»»»»»»»»»»»»»»»»»»»»»»»»»»»»»»»»»»»» Hysteresis ««««««««««««««««««««««««««««««««««««
»»»  Executed Version:	5.48.1
»»»  Vision Version:	5.48.4 (R)
»»»  Vision Compiled:	9/18/24
»»»  Driver Version:	5.47.0
»»»  Windows Version:	Windows 8 or 8.1
»»»  Processor Information:	x86 (AMD or Intel) - 32 Processors
»»»  Tester Name:	PMF21124-494 (100V)
»»»  Tester S/N:	PMF21124-494
»»»  Internal Amp Type:	100V RevK 270k
»»»  Internal Amp S/N:	iAB2-596/K     
»»»  Execution Count:	1
»»»»»»»»»»»»»»»»»»»»»»»»»»»»»»»»»»»»»»»»»»««««««««««««««««««««««««««««««««««««««««««

Stored:	6/19/2025 - 19:43:6
Configured:	06/19/25 10:04:32 AM
Executed:	06/19/25 07:42:12 PM

»»»»»»»»»»»»»»»»»»»»»»»»»»»»»»»»»»» Sample Info ««««««««««««««««««««««««««««««««««««
Sample Name:	
Lot Name:	
Wafer Name:	
Die Row/Column:	0/0
Capacitor Number:	0
Sample Area (cm2):	1.00e-04
Sample Thickness (microns):	3.00e-01

Amplifier:	Internal

»»»»»»»»»»»»»»»»»»»»»»»»»»»»»»»»»»» Tester Info «««««««««««««««««««««««««««««««««««
Tester Name:	PMF21124-494 (100V)
Tester Serial Number:	PMF21124-494
Return Signal Amp. Level:	0.19 [Index: 3]

»»»»»»»»»»»»»»»»»»»»»»»»»»»»»»»» Hysteresis Info ««««««««««««««««««««««««««««««««««
Task Name:	Hyst-1168
Volts:	20.00
Field:	666.67 (kV/cm)
DCBias:	0.00
DCField:	0.00 (kV/cm)
Hysteresis Period (ms):	2.00e+02
Preset:	Enabled
Preset Delay (ms):	1.00e+03
Profile:	Standard Bipolar

»»»»»»»»»»»»»»»»»»»»»»»»»»»»»»»»»»»»»» Data «««««««««««««««««««««««««««««««««««««««
Points:	2009

Valid Data

Point	Time (ms)	Drive Voltage	Measured Polarization (uC/cm2)	Capacitance (uF)	Normalized Capacitance (uF/cm2)	Dielectric Constant	Instantaneous Current (mA)
   1	0.0000e+00	0.0096	-6.392804	0.000324	3.244129	1.099140	0.000130
   2	9.9500e-02	0.0401	-6.263616	0.000324	3.244129	1.099140	0.000130
   3	1.9900e-01	0.0690	-6.122316	0.000355	3.548266	1.202185	0.000142
   4	2.9850e-01	0.1123	-5.985054	0.000345	3.446887	1.167837	0.000138
   5	3.9800e-01	0.1508	-5.847791	0.000345	3.446887	1.167837	0.000138
   6	4.9750e-01	0.1957	-5.678231	0.000426	4.257919	1.442622	0.000170
   7	5.9700e-01	0.2358	-5.565192	0.000284	2.838612	0.961748	0.000114
   8	6.9650e-01	0.2711	-5.367372	0.000497	4.967572	1.683059	0.000199
   9	7.9600e-01	0.3241	-5.242221	0.000314	3.142749	1.064792	0.000126
  10	8.9550e-01	0.3529	-5.084772	0.000395	3.953782	1.339577	0.000158
  11	9.9500e-01	0.3946	-4.979807	0.000264	2.635854	0.893052	0.000105
  12	1.0945e+00	0.4283	-4.810247	0.000426	4.257919	1.442622	0.000170
  13	1.1940e+00	0.4829	-4.656836	0.000385	3.852403	1.305229	0.000154
  14	1.2935e+00	0.5182	-4.515536	0.000355	3.548266	1.202185	0.000142
  15	1.3930e+00	0.5535	-4.374237	0.000355	3.548266	1.202185	0.000142
  16	1.4925e+00	0.6064	-4.228900	0.000365	3.649645	1.236533	0.000146
  17	1.5920e+00	0.6289	-4.079526	0.000375	3.751024	1.270881	0.000150
  18	1.6915e+00	0.6834	-3.893817	0.000466	4.663435	1.580014	0.000187
  19	1.7910e+00	0.7123	-3.744443	0.000375	3.751024	1.270881	0.000150
  20	1.8905e+00	0.7540	-3.651589	0.000233	2.331717	0.790007	0.000093
  21	1.9900e+00	0.7829	-3.453770	0.000497	4.967572	1.683059	0.000199
  22	2.0895e+00	0.8310	-3.304396	0.000375	3.751024	1.270881	0.000150
  23	2.1890e+00	0.8759	-3.146947	0.000395	3.953782	1.339577	0.000158
  24	2.2885e+00	0.9112	-3.033908	0.000284	2.838612	0.961748	0.000114
  25	2.3880e+00	0.9545	-2.856274	0.000446	4.460677	1.511318	0.000179
  26	2.4875e+00	0.9898	-2.686714	0.000426	4.257919	1.442622	0.000170
  27	2.5870e+00	1.0331	-2.557525	0.000324	3.244129	1.099140	0.000130
  28	2.6865e+00	1.0668	-2.400077	0.000395	3.953782	1.339577	0.000158
  29	2.7860e+00	1.1165	-2.250703	0.000375	3.751024	1.270881	0.000150
  30	2.8855e+00	1.1567	-2.101329	0.000375	3.751024	1.270881	0.000150
  31	2.9850e+00	1.1968	-1.931769	0.000426	4.257919	1.442622	0.000170
  32	3.0845e+00	1.2321	-1.786433	0.000365	3.649645	1.236533	0.000146
  33	3.1840e+00	1.2657	-1.649170	0.000345	3.446887	1.167837	0.000138
  34	3.2835e+00	1.3171	-1.483647	0.000416	4.156540	1.408274	0.000166
  35	3.3830e+00	1.3572	-1.322162	0.000406	4.055161	1.373926	0.000162
  36	3.4825e+00	1.3989	-1.168751	0.000385	3.852403	1.305229	0.000154
  37	3.5820e+00	1.4326	-1.027451	0.000355	3.548266	1.202185	0.000142
  38	3.6815e+00	1.4711	-0.853854	0.000436	4.359298	1.476970	0.000174
  39	3.7810e+00	1.5080	-0.672183	0.000456	4.562056	1.545666	0.000183
  40	3.8805e+00	1.5513	-0.547032	0.000314	3.142749	1.064792	0.000126
  41	3.9800e+00	1.5962	-0.417844	0.000324	3.244129	1.099140	0.000130
  42	4.0795e+00	1.6299	-0.260395	0.000395	3.953782	1.339577	0.000158
  43	4.1790e+00	1.6700	-0.115058	0.000365	3.649645	1.236533	0.000146
  44	4.2785e+00	1.7149	0.050464	0.000416	4.156540	1.408274	0.000166
  45	4.3780e+00	1.7486	0.215987	0.000416	4.156540	1.408274	0.000166
  46	4.4775e+00	1.7967	0.353249	0.000345	3.446887	1.167837	0.000138
  47	4.5770e+00	1.8304	0.534920	0.000456	4.562056	1.545666	0.000183
  48	4.6765e+00	1.8737	0.708517	0.000436	4.359298	1.476970	0.000174
  49	4.7760e+00	1.9122	0.833669	0.000314	3.142749	1.064792	0.000126
  50	4.8755e+00	1.9491	0.995154	0.000406	4.055161	1.373926	0.000162
  51	4.9750e+00	1.9957	1.164714	0.000426	4.257919	1.442622	0.000170
  52	5.0745e+00	2.0261	1.293902	0.000324	3.244129	1.099140	0.000130
  53	5.1740e+00	2.0743	1.475573	0.000456	4.562056	1.545666	0.000183
  54	5.2735e+00	2.1096	1.645133	0.000426	4.257919	1.442622	0.000170
  55	5.3730e+00	2.1497	1.790470	0.000365	3.649645	1.236533	0.000146
  56	5.4725e+00	2.1930	1.939844	0.000375	3.751024	1.270881	0.000150
  57	5.5720e+00	2.2331	2.133626	0.000487	4.866193	1.648711	0.000195
  58	5.6715e+00	2.2700	2.226480	0.000233	2.331717	0.790007	0.000093
  59	5.7710e+00	2.3133	2.448523	0.000558	5.575846	1.889148	0.000223
  60	5.8705e+00	2.3550	2.618083	0.000426	4.257919	1.442622	0.000170
  61	5.9700e+00	2.3823	2.735159	0.000294	2.939991	0.996096	0.000118
  62	6.0695e+00	2.4288	2.937016	0.000507	5.068951	1.717407	0.000203
  63	6.1690e+00	2.4705	3.074279	0.000345	3.446887	1.167837	0.000138
  64	6.2685e+00	2.5106	3.231727	0.000395	3.953782	1.339577	0.000158
  65	6.3680e+00	2.5523	3.401287	0.000426	4.257919	1.442622	0.000170
  66	6.4675e+00	2.5860	3.570847	0.000426	4.257919	1.442622	0.000170
  67	6.5670e+00	2.6293	3.716183	0.000365	3.649645	1.236533	0.000146
  68	6.6665e+00	2.6678	3.833260	0.000294	2.939991	0.996096	0.000118
  69	6.7660e+00	2.7079	4.027043	0.000487	4.866193	1.648711	0.000195
  70	6.8655e+00	2.7464	4.192565	0.000416	4.156540	1.408274	0.000166
  71	6.9650e+00	2.7849	4.345977	0.000385	3.852403	1.305229	0.000154
  72	7.0645e+00	2.8363	4.483239	0.000345	3.446887	1.167837	0.000138
  73	7.1640e+00	2.8652	4.685096	0.000507	5.068951	1.717407	0.000203
  74	7.2635e+00	2.9165	4.834470	0.000375	3.751024	1.270881	0.000150
  75	7.3630e+00	2.9454	4.939436	0.000264	2.635854	0.893052	0.000105
  76	7.4625e+00	2.9919	5.096884	0.000395	3.953782	1.339577	0.000158
  77	7.5620e+00	3.0208	5.262406	0.000416	4.156540	1.408274	0.000166
  78	7.6615e+00	3.0641	5.464263	0.000507	5.068951	1.717407	0.000203
  79	7.7610e+00	3.1074	5.577303	0.000284	2.838612	0.961748	0.000114
  80	7.8605e+00	3.1379	5.750900	0.000436	4.359298	1.476970	0.000174
  81	7.9600e+00	3.1908	5.948720	0.000497	4.967572	1.683059	0.000199
  82	8.0595e+00	3.2277	6.085982	0.000345	3.446887	1.167837	0.000138
  83	8.1590e+00	3.2646	6.259579	0.000436	4.359298	1.476970	0.000174
  84	8.2585e+00	3.3111	6.421064	0.000406	4.055161	1.373926	0.000162
  85	8.3580e+00	3.3416	6.570438	0.000375	3.751024	1.270881	0.000150
  86	8.4575e+00	3.3801	6.715775	0.000365	3.649645	1.236533	0.000146
  87	8.5570e+00	3.4266	6.893409	0.000446	4.460677	1.511318	0.000179
  88	8.6565e+00	3.4651	7.046820	0.000385	3.852403	1.305229	0.000154
  89	8.7560e+00	3.5069	7.252714	0.000517	5.170330	1.751755	0.000207
  90	8.8555e+00	3.5421	7.353643	0.000253	2.534475	0.858704	0.000101
  91	8.9550e+00	3.5839	7.507054	0.000385	3.852403	1.305229	0.000154
  92	9.0545e+00	3.6256	7.660465	0.000385	3.852403	1.305229	0.000154
  93	9.1540e+00	3.6609	7.838099	0.000446	4.460677	1.511318	0.000179
  94	9.2535e+00	3.7074	8.023807	0.000466	4.663435	1.580014	0.000187
  95	9.3530e+00	3.7491	8.157033	0.000335	3.345508	1.133489	0.000134
  96	9.4525e+00	3.7796	8.342741	0.000466	4.663435	1.580014	0.000187
  97	9.5520e+00	3.8181	8.480004	0.000345	3.446887	1.167837	0.000138
  98	9.6515e+00	3.8630	8.645526	0.000416	4.156540	1.408274	0.000166
  99	9.7510e+00	3.9031	8.794900	0.000375	3.751024	1.270881	0.000150
 100	9.8505e+00	3.9384	8.964460	0.000426	4.257919	1.442622	0.000170
 101	9.9500e+00	3.9769	9.125945	0.000406	4.055161	1.373926	0.000162
 102	1.0050e+01	4.0186	9.287431	0.000406	4.055161	1.373926	0.000162
 103	1.0149e+01	4.0651	9.412582	0.000314	3.142749	1.064792	0.000126
 104	1.0248e+01	4.0988	9.565993	0.000385	3.852403	1.305229	0.000154
 105	1.0348e+01	4.1518	9.727479	0.000406	4.055161	1.373926	0.000162
 106	1.0447e+01	4.1822	9.909150	0.000456	4.562056	1.545666	0.000183
 107	1.0547e+01	4.2159	10.046412	0.000345	3.446887	1.167837	0.000138
 108	1.0646e+01	4.2705	10.215972	0.000426	4.257919	1.442622	0.000170
 109	1.0746e+01	4.3009	10.393606	0.000446	4.460677	1.511318	0.000179
 110	1.0845e+01	4.3459	10.514720	0.000304	3.041370	1.030444	0.000122
 111	1.0945e+01	4.3796	10.692354	0.000446	4.460677	1.511318	0.000179
 112	1.1044e+01	4.4197	10.874025	0.000456	4.562056	1.545666	0.000183
 113	1.1144e+01	4.4566	10.995139	0.000304	3.041370	1.030444	0.000122
 114	1.1243e+01	4.4999	11.168736	0.000436	4.359298	1.476970	0.000174
 115	1.1343e+01	4.5416	11.326184	0.000395	3.953782	1.339577	0.000158
 116	1.1443e+01	4.5769	11.479595	0.000385	3.852403	1.305229	0.000154
 117	1.1542e+01	4.6170	11.608784	0.000324	3.244129	1.099140	0.000130
 118	1.1642e+01	4.6523	11.838901	0.000578	5.778604	1.957844	0.000231
 119	1.1741e+01	4.6988	11.964052	0.000314	3.142749	1.064792	0.000126
 120	1.1841e+01	4.7341	12.077092	0.000284	2.838612	0.961748	0.000114
 121	1.1940e+01	4.7838	12.254726	0.000446	4.460677	1.511318	0.000179
 122	1.2040e+01	4.8207	12.440434	0.000466	4.663435	1.580014	0.000187
 123	1.2139e+01	4.8672	12.577696	0.000345	3.446887	1.167837	0.000138
 124	1.2239e+01	4.9025	12.727070	0.000375	3.751024	1.270881	0.000150
 125	1.2338e+01	4.9378	12.864333	0.000345	3.446887	1.167837	0.000138
 126	1.2438e+01	4.9892	13.050041	0.000466	4.663435	1.580014	0.000187
 127	1.2537e+01	5.0148	13.187304	0.000345	3.446887	1.167837	0.000138
 128	1.2636e+01	5.0646	13.385124	0.000497	4.967572	1.683059	0.000199
 129	1.2736e+01	5.1063	13.486052	0.000253	2.534475	0.858704	0.000101
 130	1.2835e+01	5.1400	13.647537	0.000406	4.055161	1.373926	0.000162
 131	1.2935e+01	5.1817	13.821134	0.000436	4.359298	1.476970	0.000174
 132	1.3034e+01	5.2218	14.010880	0.000476	4.764814	1.614363	0.000191
 133	1.3134e+01	5.2683	14.148142	0.000345	3.446887	1.167837	0.000138
 134	1.3233e+01	5.2908	14.281368	0.000335	3.345508	1.133489	0.000134
 135	1.3333e+01	5.3421	14.442853	0.000406	4.055161	1.373926	0.000162
 136	1.3432e+01	5.3886	14.568004	0.000314	3.142749	1.064792	0.000126
 137	1.3532e+01	5.4175	14.765824	0.000497	4.967572	1.683059	0.000199
 138	1.3632e+01	5.4608	14.903087	0.000345	3.446887	1.167837	0.000138
 139	1.3731e+01	5.4977	15.056498	0.000385	3.852403	1.305229	0.000154
 140	1.3831e+01	5.5250	15.213946	0.000395	3.953782	1.339577	0.000158
 141	1.3930e+01	5.5891	15.375431	0.000406	4.055161	1.373926	0.000162
 142	1.4030e+01	5.6084	15.532880	0.000395	3.953782	1.339577	0.000158
 143	1.4129e+01	5.6581	15.690328	0.000395	3.953782	1.339577	0.000158
 144	1.4229e+01	5.6998	15.867962	0.000446	4.460677	1.511318	0.000179
 145	1.4328e+01	5.7335	15.981002	0.000284	2.838612	0.961748	0.000114
 146	1.4428e+01	5.7736	16.186896	0.000517	5.170330	1.751755	0.000207
 147	1.4527e+01	5.8169	16.283787	0.000243	2.433096	0.824355	0.000097
 148	1.4627e+01	5.8554	16.421050	0.000345	3.446887	1.167837	0.000138
 149	1.4726e+01	5.9020	16.663278	0.000608	6.082741	2.060888	0.000243
 150	1.4825e+01	5.9308	16.804578	0.000355	3.548266	1.202185	0.000142
 151	1.4925e+01	5.9710	16.909543	0.000264	2.635854	0.893052	0.000105
 152	1.5024e+01	6.0111	17.038731	0.000324	3.244129	1.099140	0.000130
 153	1.5124e+01	6.0624	17.236551	0.000497	4.967572	1.683059	0.000199
 154	1.5223e+01	6.0993	17.398036	0.000406	4.055161	1.373926	0.000162
 155	1.5323e+01	6.1298	17.539336	0.000355	3.548266	1.202185	0.000142
 156	1.5422e+01	6.1683	17.704859	0.000416	4.156540	1.408274	0.000166
 157	1.5522e+01	6.2180	17.866344	0.000406	4.055161	1.373926	0.000162
 158	1.5621e+01	6.2549	18.048015	0.000456	4.562056	1.545666	0.000183
 159	1.5721e+01	6.2886	18.197389	0.000375	3.751024	1.270881	0.000150
 160	1.5820e+01	6.3351	18.322541	0.000314	3.142749	1.064792	0.000126
 161	1.5920e+01	6.3736	18.467877	0.000365	3.649645	1.236533	0.000146
 162	1.6020e+01	6.4250	18.605140	0.000345	3.446887	1.167837	0.000138
 163	1.6119e+01	6.4554	18.786811	0.000456	4.562056	1.545666	0.000183
 164	1.6218e+01	6.4955	18.920037	0.000335	3.345508	1.133489	0.000134
 165	1.6318e+01	6.5292	19.097671	0.000446	4.460677	1.511318	0.000179
 166	1.6418e+01	6.5693	19.251082	0.000385	3.852403	1.305229	0.000154
 167	1.6517e+01	6.6159	19.396419	0.000365	3.649645	1.236533	0.000146
 168	1.6616e+01	6.6544	19.549830	0.000385	3.852403	1.305229	0.000154
 169	1.6716e+01	6.6864	19.711315	0.000406	4.055161	1.373926	0.000162
 170	1.6816e+01	6.7282	19.880875	0.000426	4.257919	1.442622	0.000170
 171	1.6915e+01	6.7699	20.038323	0.000395	3.953782	1.339577	0.000158
 172	1.7015e+01	6.8148	20.179623	0.000355	3.548266	1.202185	0.000142
 173	1.7114e+01	6.8469	20.324960	0.000365	3.649645	1.236533	0.000146
 174	1.7213e+01	6.8902	20.498557	0.000436	4.359298	1.476970	0.000174
 175	1.7313e+01	6.9351	20.684265	0.000466	4.663435	1.580014	0.000187
 176	1.7413e+01	6.9752	20.833639	0.000375	3.751024	1.270881	0.000150
 177	1.7512e+01	7.0121	20.914382	0.000203	2.027580	0.686963	0.000081
 178	1.7611e+01	7.0490	21.116238	0.000507	5.068951	1.717407	0.000203
 179	1.7711e+01	7.0827	21.285798	0.000426	4.257919	1.442622	0.000170
 180	1.7811e+01	7.1228	21.439209	0.000385	3.852403	1.305229	0.000154
 181	1.7910e+01	7.1693	21.632992	0.000487	4.866193	1.648711	0.000195
 182	1.8009e+01	7.2030	21.782366	0.000375	3.751024	1.270881	0.000150
 183	1.8109e+01	7.2543	21.943851	0.000406	4.055161	1.373926	0.000162
 184	1.8209e+01	7.2848	22.064965	0.000304	3.041370	1.030444	0.000122
 185	1.8308e+01	7.3265	22.210302	0.000365	3.649645	1.236533	0.000146
 186	1.8407e+01	7.3731	22.424270	0.000537	5.373088	1.820451	0.000215
 187	1.8507e+01	7.4116	22.545385	0.000304	3.041370	1.030444	0.000122
 188	1.8607e+01	7.4485	22.727056	0.000456	4.562056	1.545666	0.000183
 189	1.8706e+01	7.4950	22.856244	0.000324	3.244129	1.099140	0.000130
 190	1.8805e+01	7.5255	23.062138	0.000517	5.170330	1.751755	0.000207
 191	1.8905e+01	7.5704	23.203438	0.000355	3.548266	1.202185	0.000142
 192	1.9005e+01	7.6041	23.356849	0.000385	3.852403	1.305229	0.000154
 193	1.9104e+01	7.6490	23.518334	0.000406	4.055161	1.373926	0.000162
 194	1.9203e+01	7.6891	23.651560	0.000335	3.345508	1.133489	0.000134
 195	1.9303e+01	7.7356	23.853417	0.000507	5.068951	1.717407	0.000203
 196	1.9402e+01	7.7709	23.954345	0.000253	2.534475	0.858704	0.000101
 197	1.9502e+01	7.8110	24.148127	0.000487	4.866193	1.648711	0.000195
 198	1.9602e+01	7.8511	24.321724	0.000436	4.359298	1.476970	0.000174
 199	1.9701e+01	7.8864	24.430727	0.000274	2.737233	0.927400	0.000110
 200	1.9800e+01	7.9233	24.624509	0.000487	4.866193	1.648711	0.000195
 201	1.9900e+01	7.9730	24.737549	0.000284	2.838612	0.961748	0.000114
 202	2.0000e+01	7.9987	24.903072	0.000416	4.156540	1.408274	0.000166
 203	2.0099e+01	8.0452	25.084743	0.000456	4.562056	1.545666	0.000183
 204	2.0198e+01	8.0837	25.230080	0.000365	3.649645	1.236533	0.000146
 205	2.0298e+01	8.1270	25.411751	0.000456	4.562056	1.545666	0.000183
 206	2.0398e+01	8.1623	25.532865	0.000304	3.041370	1.030444	0.000122
 207	2.0497e+01	8.1960	25.698388	0.000416	4.156540	1.408274	0.000166
 208	2.0596e+01	8.2377	25.896207	0.000497	4.967572	1.683059	0.000199
 209	2.0696e+01	8.2810	26.041544	0.000365	3.649645	1.236533	0.000146
 210	2.0796e+01	8.3340	26.162658	0.000304	3.041370	1.030444	0.000122
 211	2.0895e+01	8.3645	26.360478	0.000497	4.967572	1.683059	0.000199
 212	2.0994e+01	8.3966	26.534075	0.000436	4.359298	1.476970	0.000174
 213	2.1094e+01	8.4447	26.643077	0.000274	2.737233	0.927400	0.000110
 214	2.1194e+01	8.4928	26.840897	0.000497	4.967572	1.683059	0.000199
 215	2.1293e+01	8.5249	26.990271	0.000375	3.751024	1.270881	0.000150
 216	2.1392e+01	8.5650	27.175979	0.000466	4.663435	1.580014	0.000187
 217	2.1492e+01	8.5987	27.297093	0.000304	3.041370	1.030444	0.000122
 218	2.1591e+01	8.6420	27.458579	0.000406	4.055161	1.373926	0.000162
 219	2.1691e+01	8.6821	27.640250	0.000456	4.562056	1.545666	0.000183
 220	2.1791e+01	8.7302	27.793661	0.000385	3.852403	1.305229	0.000154
 221	2.1890e+01	8.7575	27.971295	0.000446	4.460677	1.511318	0.000179
 222	2.1989e+01	8.8008	28.177189	0.000517	5.170330	1.751755	0.000207
 223	2.2089e+01	8.8409	28.294266	0.000294	2.939991	0.996096	0.000118
 224	2.2189e+01	8.8874	28.447677	0.000385	3.852403	1.305229	0.000154
 225	2.2288e+01	8.9179	28.584940	0.000345	3.446887	1.167837	0.000138
 226	2.2387e+01	8.9596	28.786796	0.000507	5.068951	1.717407	0.000203
 227	2.2487e+01	9.0030	28.903873	0.000294	2.939991	0.996096	0.000118
 228	2.2587e+01	9.0479	29.053247	0.000375	3.751024	1.270881	0.000150
 229	2.2686e+01	9.0880	29.234918	0.000456	4.562056	1.545666	0.000183
 230	2.2785e+01	9.1185	29.400441	0.000416	4.156540	1.408274	0.000166
 231	2.2885e+01	9.1666	29.570001	0.000426	4.257919	1.442622	0.000170
 232	2.2985e+01	9.1987	29.727449	0.000395	3.953782	1.339577	0.000158
 233	2.3084e+01	9.2404	29.901046	0.000436	4.359298	1.476970	0.000174
 234	2.3183e+01	9.2869	30.030234	0.000324	3.244129	1.099140	0.000130
 235	2.3283e+01	9.3222	30.167497	0.000345	3.446887	1.167837	0.000138
 236	2.3383e+01	9.3639	30.353205	0.000466	4.663435	1.580014	0.000187
 237	2.3482e+01	9.4088	30.510653	0.000395	3.953782	1.339577	0.000158
 238	2.3581e+01	9.4377	30.676176	0.000416	4.156540	1.408274	0.000166
 239	2.3681e+01	9.4794	30.829587	0.000385	3.852403	1.305229	0.000154
 240	2.3780e+01	9.5259	30.962813	0.000335	3.345508	1.133489	0.000134
 241	2.3880e+01	9.5580	31.164669	0.000507	5.068951	1.717407	0.000203
 242	2.3980e+01	9.5981	31.314043	0.000375	3.751024	1.270881	0.000150
 243	2.4079e+01	9.6366	31.475529	0.000406	4.055161	1.373926	0.000162
 244	2.4178e+01	9.6864	31.616829	0.000355	3.548266	1.202185	0.000142
 245	2.4278e+01	9.7200	31.786388	0.000426	4.257919	1.442622	0.000170
 246	2.4378e+01	9.7569	31.947874	0.000406	4.055161	1.373926	0.000162
 247	2.4477e+01	9.7906	32.097248	0.000375	3.751024	1.270881	0.000150
 248	2.4576e+01	9.8388	32.218362	0.000304	3.041370	1.030444	0.000122
 249	2.4676e+01	9.8757	32.359662	0.000355	3.548266	1.202185	0.000142
 250	2.4776e+01	9.9142	32.533258	0.000436	4.359298	1.476970	0.000174
 251	2.4875e+01	9.9623	32.723004	0.000476	4.764814	1.614363	0.000191
 252	2.4974e+01	10.0040	32.896601	0.000436	4.359298	1.476970	0.000174
 253	2.5074e+01	10.0393	33.017715	0.000304	3.041370	1.030444	0.000122
 254	2.5174e+01	10.0762	33.203423	0.000466	4.663435	1.580014	0.000187
 255	2.5273e+01	10.1195	33.344723	0.000355	3.548266	1.202185	0.000142
 256	2.5372e+01	10.1596	33.486022	0.000355	3.548266	1.202185	0.000142
 257	2.5472e+01	10.1917	33.651545	0.000416	4.156540	1.408274	0.000166
 258	2.5572e+01	10.2382	33.817068	0.000416	4.156540	1.408274	0.000166
 259	2.5671e+01	10.2783	34.014887	0.000497	4.967572	1.683059	0.000199
 260	2.5770e+01	10.3232	34.136001	0.000304	3.041370	1.030444	0.000122
 261	2.5870e+01	10.3601	34.265190	0.000324	3.244129	1.099140	0.000130
 262	2.5970e+01	10.3986	34.410526	0.000365	3.649645	1.236533	0.000146
 263	2.6069e+01	10.4371	34.608346	0.000497	4.967572	1.683059	0.000199
 264	2.6169e+01	10.4821	34.717349	0.000274	2.737233	0.927400	0.000110
 265	2.6268e+01	10.5141	34.915168	0.000497	4.967572	1.683059	0.000199
 266	2.6367e+01	10.5542	35.048394	0.000335	3.345508	1.133489	0.000134
 267	2.6467e+01	10.5879	35.193731	0.000365	3.649645	1.236533	0.000146
 268	2.6567e+01	10.6345	35.359253	0.000416	4.156540	1.408274	0.000166
 269	2.6666e+01	10.6794	35.528813	0.000426	4.257919	1.442622	0.000170
 270	2.6765e+01	10.7195	35.666076	0.000345	3.446887	1.167837	0.000138
 271	2.6865e+01	10.7564	35.831598	0.000416	4.156540	1.408274	0.000166
 272	2.6965e+01	10.7965	35.976935	0.000365	3.649645	1.236533	0.000146
 273	2.7064e+01	10.8398	36.142458	0.000416	4.156540	1.408274	0.000166
 274	2.7163e+01	10.8767	36.287795	0.000365	3.649645	1.236533	0.000146
 275	2.7263e+01	10.9152	36.477540	0.000476	4.764814	1.614363	0.000191
 276	2.7363e+01	10.9617	36.606728	0.000324	3.244129	1.099140	0.000130
 277	2.7462e+01	10.9954	36.707657	0.000253	2.534475	0.858704	0.000101
 278	2.7561e+01	11.0323	36.893365	0.000466	4.663435	1.580014	0.000187
 279	2.7661e+01	11.0644	37.030628	0.000345	3.446887	1.167837	0.000138
 280	2.7761e+01	11.1173	37.184039	0.000385	3.852403	1.305229	0.000154
 281	2.7860e+01	11.1574	37.345524	0.000406	4.055161	1.373926	0.000162
 282	2.7959e+01	11.1927	37.494898	0.000375	3.751024	1.270881	0.000150
 283	2.8059e+01	11.2393	37.640235	0.000365	3.649645	1.236533	0.000146
 284	2.8159e+01	11.2713	37.781535	0.000355	3.548266	1.202185	0.000142
 285	2.8258e+01	11.3082	37.991466	0.000527	5.271709	1.786103	0.000211
 286	2.8358e+01	11.3499	38.096431	0.000264	2.635854	0.893052	0.000105
 287	2.8457e+01	11.3965	38.237731	0.000355	3.548266	1.202185	0.000142
 288	2.8556e+01	11.4318	38.427477	0.000476	4.764814	1.614363	0.000191
 289	2.8656e+01	11.4719	38.576851	0.000375	3.751024	1.270881	0.000150
 290	2.8756e+01	11.5104	38.730262	0.000385	3.852403	1.305229	0.000154
 291	2.8855e+01	11.5601	38.835227	0.000264	2.635854	0.893052	0.000105
 292	2.8954e+01	11.5890	39.012861	0.000446	4.460677	1.511318	0.000179
 293	2.9054e+01	11.6339	39.158198	0.000365	3.649645	1.236533	0.000146
 294	2.9154e+01	11.6724	39.295461	0.000345	3.446887	1.167837	0.000138
 295	2.9253e+01	11.7109	39.460983	0.000416	4.156540	1.408274	0.000166
 296	2.9352e+01	11.7398	39.598246	0.000345	3.446887	1.167837	0.000138
 297	2.9452e+01	11.7911	39.735509	0.000345	3.446887	1.167837	0.000138
 298	2.9552e+01	11.8344	39.876808	0.000355	3.548266	1.202185	0.000142
 299	2.9651e+01	11.8713	40.042331	0.000416	4.156540	1.408274	0.000166
 300	2.9750e+01	11.9130	40.207853	0.000416	4.156540	1.408274	0.000166
 301	2.9850e+01	11.9483	40.316856	0.000274	2.737233	0.927400	0.000110
 302	2.9950e+01	11.9932	40.502564	0.000466	4.663435	1.580014	0.000187
 303	3.0049e+01	12.0269	40.619641	0.000294	2.939991	0.996096	0.000118
 304	3.0148e+01	12.0735	40.793238	0.000436	4.359298	1.476970	0.000174
 305	3.0248e+01	12.1168	40.934538	0.000355	3.548266	1.202185	0.000142
 306	3.0348e+01	12.1569	41.091986	0.000395	3.953782	1.339577	0.000158
 307	3.0447e+01	12.1970	41.249434	0.000395	3.953782	1.339577	0.000158
 308	3.0547e+01	12.2291	41.362474	0.000284	2.838612	0.961748	0.000114
 309	3.0646e+01	12.2740	41.536071	0.000436	4.359298	1.476970	0.000174
 310	3.0745e+01	12.3077	41.645074	0.000274	2.737233	0.927400	0.000110
 311	3.0845e+01	12.3430	41.798485	0.000385	3.852403	1.305229	0.000154
 312	3.0945e+01	12.3943	41.935747	0.000345	3.446887	1.167837	0.000138
 313	3.1044e+01	12.4328	42.093196	0.000395	3.953782	1.339577	0.000158
 314	3.1143e+01	12.4633	42.250644	0.000395	3.953782	1.339577	0.000158
 315	3.1243e+01	12.5002	42.412129	0.000406	4.055161	1.373926	0.000162
 316	3.1343e+01	12.5579	42.541318	0.000324	3.244129	1.099140	0.000130
 317	3.1442e+01	12.5820	42.682618	0.000355	3.548266	1.202185	0.000142
 318	3.1541e+01	12.6237	42.823917	0.000355	3.548266	1.202185	0.000142
 319	3.1641e+01	12.6718	42.997514	0.000436	4.359298	1.476970	0.000174
 320	3.1741e+01	12.6975	43.118628	0.000304	3.041370	1.030444	0.000122
 321	3.1840e+01	12.7537	43.268002	0.000375	3.751024	1.270881	0.000150
 322	3.1939e+01	12.7841	43.437562	0.000426	4.257919	1.442622	0.000170
 323	3.2039e+01	12.8307	43.599047	0.000406	4.055161	1.373926	0.000162
 324	3.2139e+01	12.8659	43.732273	0.000335	3.345508	1.133489	0.000134
 325	3.2238e+01	12.9044	43.861461	0.000324	3.244129	1.099140	0.000130
 326	3.2337e+01	12.9446	43.962390	0.000253	2.534475	0.858704	0.000101
 327	3.2437e+01	12.9911	44.184432	0.000558	5.575846	1.889148	0.000223
 328	3.2536e+01	13.0280	44.297472	0.000284	2.838612	0.961748	0.000114
 329	3.2636e+01	13.0665	44.471069	0.000436	4.359298	1.476970	0.000174
 330	3.2736e+01	13.0986	44.580071	0.000274	2.737233	0.927400	0.000110
 331	3.2835e+01	13.1467	44.765780	0.000466	4.663435	1.580014	0.000187
 332	3.2934e+01	13.1836	44.866708	0.000253	2.534475	0.858704	0.000101
 333	3.3034e+01	13.2269	45.012045	0.000365	3.649645	1.236533	0.000146
 334	3.3133e+01	13.2462	45.189679	0.000446	4.460677	1.511318	0.000179
 335	3.3233e+01	13.3055	45.278496	0.000223	2.230338	0.755659	0.000089
 336	3.3333e+01	13.3456	45.411721	0.000335	3.345508	1.133489	0.000134
 337	3.3432e+01	13.3809	45.613578	0.000507	5.068951	1.717407	0.000203
 338	3.3532e+01	13.4322	45.734692	0.000304	3.041370	1.030444	0.000122
 339	3.3631e+01	13.4611	45.892141	0.000395	3.953782	1.339577	0.000158
 340	3.3730e+01	13.4996	46.045552	0.000385	3.852403	1.305229	0.000154
 341	3.3830e+01	13.5381	46.190889	0.000365	3.649645	1.236533	0.000146
 342	3.3929e+01	13.5830	46.312003	0.000304	3.041370	1.030444	0.000122
 343	3.4029e+01	13.6167	46.489637	0.000446	4.460677	1.511318	0.000179
 344	3.4129e+01	13.6633	46.675345	0.000466	4.663435	1.580014	0.000187
 345	3.4228e+01	13.7066	46.756088	0.000203	2.027580	0.686963	0.000081
 346	3.4328e+01	13.7403	46.909499	0.000385	3.852403	1.305229	0.000154
 347	3.4427e+01	13.7884	47.075021	0.000416	4.156540	1.408274	0.000166
 348	3.4526e+01	13.8189	47.240544	0.000416	4.156540	1.408274	0.000166
 349	3.4626e+01	13.8590	47.406066	0.000416	4.156540	1.408274	0.000166
 350	3.4725e+01	13.8975	47.527180	0.000304	3.041370	1.030444	0.000122
 351	3.4825e+01	13.9488	47.660406	0.000335	3.345508	1.133489	0.000134
 352	3.4925e+01	13.9729	47.821891	0.000406	4.055161	1.373926	0.000162
 353	3.5024e+01	14.0194	47.979340	0.000395	3.953782	1.339577	0.000158
 354	3.5123e+01	14.0627	48.108528	0.000324	3.244129	1.099140	0.000130
 355	3.5223e+01	14.0996	48.282125	0.000436	4.359298	1.476970	0.000174
 356	3.5322e+01	14.1461	48.427462	0.000365	3.649645	1.236533	0.000146
 357	3.5422e+01	14.1750	48.584910	0.000395	3.953782	1.339577	0.000158
 358	3.5522e+01	14.2183	48.710061	0.000314	3.142749	1.064792	0.000126
 359	3.5621e+01	14.2584	48.863472	0.000385	3.852403	1.305229	0.000154
 360	3.5721e+01	14.3049	49.028995	0.000416	4.156540	1.408274	0.000166
 361	3.5820e+01	14.3354	49.146072	0.000294	2.939991	0.996096	0.000118
 362	3.5919e+01	14.3739	49.307557	0.000406	4.055161	1.373926	0.000162
 363	3.6019e+01	14.4188	49.469043	0.000406	4.055161	1.373926	0.000162
 364	3.6118e+01	14.4606	49.590157	0.000304	3.041370	1.030444	0.000122
 365	3.6218e+01	14.4991	49.751642	0.000406	4.055161	1.373926	0.000162
 366	3.6318e+01	14.5472	49.921202	0.000426	4.257919	1.442622	0.000170
 367	3.6417e+01	14.5712	50.046353	0.000314	3.142749	1.064792	0.000126
 368	3.6517e+01	14.6210	50.203801	0.000395	3.953782	1.339577	0.000158
 369	3.6616e+01	14.6515	50.353175	0.000375	3.751024	1.270881	0.000150
 370	3.6715e+01	14.7044	50.490438	0.000345	3.446887	1.167837	0.000138
 371	3.6815e+01	14.7429	50.639812	0.000375	3.751024	1.270881	0.000150
 372	3.6914e+01	14.7942	50.797260	0.000395	3.953782	1.339577	0.000158
 373	3.7014e+01	14.8071	50.954709	0.000395	3.953782	1.339577	0.000158
 374	3.7114e+01	14.8504	51.128306	0.000436	4.359298	1.476970	0.000174
 375	3.7213e+01	14.9001	51.245382	0.000294	2.939991	0.996096	0.000118
 376	3.7313e+01	14.9274	51.402831	0.000395	3.953782	1.339577	0.000158
 377	3.7412e+01	14.9723	51.540093	0.000345	3.446887	1.167837	0.000138
 378	3.7511e+01	15.0204	51.677356	0.000345	3.446887	1.167837	0.000138
 379	3.7611e+01	15.0654	51.863064	0.000466	4.663435	1.580014	0.000187
 380	3.7711e+01	15.0926	52.020513	0.000395	3.953782	1.339577	0.000158
 381	3.7810e+01	15.1391	52.133552	0.000284	2.838612	0.961748	0.000114
 382	3.7910e+01	15.1760	52.282926	0.000375	3.751024	1.270881	0.000150
 383	3.8009e+01	15.2242	52.440375	0.000395	3.953782	1.339577	0.000158
 384	3.8108e+01	15.2579	52.573600	0.000335	3.345508	1.133489	0.000134
 385	3.8208e+01	15.2899	52.722974	0.000375	3.751024	1.270881	0.000150
 386	3.8307e+01	15.3397	52.888497	0.000416	4.156540	1.408274	0.000166
 387	3.8407e+01	15.3750	53.062094	0.000436	4.359298	1.476970	0.000174
 388	3.8507e+01	15.4119	53.199356	0.000345	3.446887	1.167837	0.000138
 389	3.8606e+01	15.4520	53.288173	0.000223	2.230338	0.755659	0.000089
 390	3.8706e+01	15.5001	53.477919	0.000476	4.764814	1.614363	0.000191
 391	3.8805e+01	15.5338	53.671701	0.000487	4.866193	1.648711	0.000195
 392	3.8904e+01	15.5739	53.784741	0.000284	2.838612	0.961748	0.000114
 393	3.9004e+01	15.6092	53.934115	0.000375	3.751024	1.270881	0.000150
 394	3.9103e+01	15.6493	54.123860	0.000476	4.764814	1.614363	0.000191
 395	3.9203e+01	15.6958	54.277271	0.000385	3.852403	1.305229	0.000154
 396	3.9303e+01	15.7375	54.390311	0.000284	2.838612	0.961748	0.000114
 397	3.9402e+01	15.7680	54.567945	0.000446	4.460677	1.511318	0.000179
 398	3.9502e+01	15.8209	54.745579	0.000446	4.460677	1.511318	0.000179
 399	3.9601e+01	15.8546	54.870730	0.000314	3.142749	1.064792	0.000126
 400	3.9700e+01	15.8947	54.999919	0.000324	3.244129	1.099140	0.000130
 401	3.9800e+01	15.9413	55.185627	0.000466	4.663435	1.580014	0.000187
 402	3.9900e+01	15.9685	55.302704	0.000294	2.939991	0.996096	0.000118
 403	3.9999e+01	16.0183	55.435929	0.000335	3.345508	1.133489	0.000134
 404	4.0099e+01	16.0503	55.613563	0.000446	4.460677	1.511318	0.000179
 405	4.0198e+01	16.0937	55.742752	0.000324	3.244129	1.099140	0.000130
 406	4.0297e+01	16.1274	55.904237	0.000406	4.055161	1.373926	0.000162
 407	4.0397e+01	16.1642	56.041500	0.000345	3.446887	1.167837	0.000138
 408	4.0496e+01	16.2172	56.198948	0.000395	3.953782	1.339577	0.000158
 409	4.0596e+01	16.2493	56.380619	0.000456	4.562056	1.545666	0.000183
 410	4.0696e+01	16.2910	56.489622	0.000274	2.737233	0.927400	0.000110
 411	4.0795e+01	16.3247	56.655144	0.000416	4.156540	1.408274	0.000166
 412	4.0895e+01	16.3776	56.772221	0.000294	2.939991	0.996096	0.000118
 413	4.0994e+01	16.4161	56.957930	0.000466	4.663435	1.580014	0.000187
 414	4.1093e+01	16.4530	57.087118	0.000324	3.244129	1.099140	0.000130
 415	4.1193e+01	16.4787	57.228418	0.000355	3.548266	1.202185	0.000142
 416	4.1292e+01	16.5284	57.377792	0.000375	3.751024	1.270881	0.000150
 417	4.1392e+01	16.5669	57.531203	0.000385	3.852403	1.305229	0.000154
 418	4.1492e+01	16.6215	57.680577	0.000375	3.751024	1.270881	0.000150
 419	4.1591e+01	16.6519	57.838025	0.000395	3.953782	1.339577	0.000158
 420	4.1691e+01	16.6856	57.959139	0.000304	3.041370	1.030444	0.000122
 421	4.1790e+01	16.7241	58.128699	0.000426	4.257919	1.442622	0.000170
 422	4.1889e+01	16.7706	58.306333	0.000446	4.460677	1.511318	0.000179
 423	4.1989e+01	16.8027	58.415336	0.000274	2.737233	0.927400	0.000110
 424	4.2089e+01	16.8541	58.605081	0.000476	4.764814	1.614363	0.000191
 425	4.2188e+01	16.8862	58.726195	0.000304	3.041370	1.030444	0.000122
 426	4.2288e+01	16.9295	58.875569	0.000375	3.751024	1.270881	0.000150
 427	4.2387e+01	16.9664	59.028980	0.000385	3.852403	1.305229	0.000154
 428	4.2486e+01	17.0097	59.150094	0.000304	3.041370	1.030444	0.000122
 429	4.2586e+01	17.0530	59.267171	0.000294	2.939991	0.996096	0.000118
 430	4.2685e+01	17.0915	59.452879	0.000466	4.663435	1.580014	0.000187
 431	4.2785e+01	17.1220	59.646662	0.000487	4.866193	1.648711	0.000195
 432	4.2885e+01	17.1733	59.751627	0.000264	2.635854	0.893052	0.000105
 433	4.2984e+01	17.2102	59.872742	0.000304	3.041370	1.030444	0.000122
 434	4.3084e+01	17.2455	60.018078	0.000365	3.649645	1.236533	0.000146
 435	4.3183e+01	17.2872	60.191675	0.000436	4.359298	1.476970	0.000174
 436	4.3282e+01	17.3241	60.345086	0.000385	3.852403	1.305229	0.000154
 437	4.3382e+01	17.3626	60.490423	0.000365	3.649645	1.236533	0.000146
 438	4.3481e+01	17.4059	60.631723	0.000355	3.548266	1.202185	0.000142
 439	4.3581e+01	17.4508	60.773023	0.000355	3.548266	1.202185	0.000142
 440	4.3681e+01	17.4910	60.902211	0.000324	3.244129	1.099140	0.000130
 441	4.3780e+01	17.5278	61.039474	0.000345	3.446887	1.167837	0.000138
 442	4.3880e+01	17.5663	61.180774	0.000355	3.548266	1.202185	0.000142
 443	4.3979e+01	17.6129	61.374556	0.000487	4.866193	1.648711	0.000195
 444	4.4078e+01	17.6369	61.511819	0.000345	3.446887	1.167837	0.000138
 445	4.4178e+01	17.6851	61.632933	0.000304	3.041370	1.030444	0.000122
 446	4.4278e+01	17.7204	61.745973	0.000284	2.838612	0.961748	0.000114
 447	4.4377e+01	17.7653	61.923607	0.000446	4.460677	1.511318	0.000179
 448	4.4477e+01	17.7990	62.089129	0.000416	4.156540	1.408274	0.000166
 449	4.4576e+01	17.8503	62.198132	0.000274	2.737233	0.927400	0.000110
 450	4.4675e+01	17.8856	62.307134	0.000274	2.737233	0.927400	0.000110
 451	4.4775e+01	17.9161	62.525140	0.000547	5.474467	1.854800	0.000219
 452	4.4874e+01	17.9690	62.634142	0.000274	2.737233	0.927400	0.000110
 453	4.4974e+01	18.0043	62.779479	0.000365	3.649645	1.236533	0.000146
 454	4.5074e+01	18.0412	62.928853	0.000375	3.751024	1.270881	0.000150
 455	4.5173e+01	18.0893	63.058042	0.000324	3.244129	1.099140	0.000130
 456	4.5273e+01	18.1230	63.215490	0.000395	3.953782	1.339577	0.000158
 457	4.5372e+01	18.1727	63.352753	0.000345	3.446887	1.167837	0.000138
 458	4.5471e+01	18.2064	63.518275	0.000416	4.156540	1.408274	0.000166
 459	4.5571e+01	18.2498	63.615166	0.000243	2.433096	0.824355	0.000097
 460	4.5670e+01	18.2883	63.792800	0.000446	4.460677	1.511318	0.000179
 461	4.5770e+01	18.3187	63.934100	0.000355	3.548266	1.202185	0.000142
 462	4.5870e+01	18.3637	64.067326	0.000335	3.345508	1.133489	0.000134
 463	4.5969e+01	18.3973	64.196514	0.000324	3.244129	1.099140	0.000130
 464	4.6069e+01	18.4407	64.349925	0.000385	3.852403	1.305229	0.000154
 465	4.6168e+01	18.4808	64.483151	0.000335	3.345508	1.133489	0.000134
 466	4.6267e+01	18.5193	64.652710	0.000426	4.257919	1.442622	0.000170
 467	4.6367e+01	18.5642	64.789973	0.000345	3.446887	1.167837	0.000138
 468	4.6467e+01	18.6059	64.874753	0.000213	2.128959	0.721311	0.000085
 469	4.6566e+01	18.6364	65.084684	0.000527	5.271709	1.786103	0.000211
 470	4.6666e+01	18.6845	65.185612	0.000253	2.534475	0.858704	0.000101
 471	4.6765e+01	18.7246	65.355172	0.000426	4.257919	1.442622	0.000170
 472	4.6864e+01	18.7647	65.484360	0.000324	3.244129	1.099140	0.000130
 473	4.6964e+01	18.7936	65.613549	0.000324	3.244129	1.099140	0.000130
 474	4.7063e+01	18.8481	65.738700	0.000314	3.142749	1.064792	0.000126
 475	4.7163e+01	18.8834	65.892111	0.000385	3.852403	1.305229	0.000154
 476	4.7263e+01	18.9219	66.025336	0.000335	3.345508	1.133489	0.000134
 477	4.7362e+01	18.9588	66.146450	0.000304	3.041370	1.030444	0.000122
 478	4.7462e+01	19.0021	66.316010	0.000426	4.257919	1.442622	0.000170
 479	4.7561e+01	19.0422	66.465384	0.000375	3.751024	1.270881	0.000150
 480	4.7660e+01	19.0807	66.598610	0.000335	3.345508	1.133489	0.000134
 481	4.7760e+01	19.1225	66.727798	0.000324	3.244129	1.099140	0.000130
 482	4.7859e+01	19.1626	66.897358	0.000426	4.257919	1.442622	0.000170
 483	4.7959e+01	19.2011	67.014435	0.000294	2.939991	0.996096	0.000118
 484	4.8059e+01	19.2348	67.155734	0.000355	3.548266	1.202185	0.000142
 485	4.8158e+01	19.2829	67.280886	0.000314	3.142749	1.064792	0.000126
 486	4.8258e+01	19.3230	67.450445	0.000426	4.257919	1.442622	0.000170
 487	4.8357e+01	19.3519	67.575597	0.000314	3.142749	1.064792	0.000126
 488	4.8456e+01	19.3984	67.729008	0.000385	3.852403	1.305229	0.000154
 489	4.8556e+01	19.4433	67.838010	0.000274	2.737233	0.927400	0.000110
 490	4.8656e+01	19.4738	68.007570	0.000426	4.257919	1.442622	0.000170
 491	4.8755e+01	19.5139	68.165018	0.000395	3.953782	1.339577	0.000158
 492	4.8855e+01	19.5572	68.257872	0.000233	2.331717	0.790007	0.000093
 493	4.8954e+01	19.6021	68.423395	0.000416	4.156540	1.408274	0.000166
 494	4.9053e+01	19.6342	68.572769	0.000375	3.751024	1.270881	0.000150
 495	4.9153e+01	19.6807	68.701957	0.000324	3.244129	1.099140	0.000130
 496	4.9252e+01	19.7208	68.855369	0.000385	3.852403	1.305229	0.000154
 497	4.9352e+01	19.7561	68.996668	0.000355	3.548266	1.202185	0.000142
 498	4.9452e+01	19.7914	69.162191	0.000416	4.156540	1.408274	0.000166
 499	4.9551e+01	19.8331	69.279268	0.000294	2.939991	0.996096	0.000118
 500	4.9651e+01	19.8748	69.376159	0.000243	2.433096	0.824355	0.000097
 501	4.9750e+01	19.9182	69.549756	0.000436	4.359298	1.476970	0.000174
 502	4.9849e+01	19.9599	69.658759	0.000274	2.737233	0.927400	0.000110
 503	4.9949e+01	19.9952	69.828318	0.000426	4.257919	1.442622	0.000170
 504	5.0048e+01	19.9567	69.711241	0.000294	2.939991	0.996096	-0.000118
 505	5.0148e+01	19.9085	69.602239	0.000274	2.737233	0.927400	-0.000110
 506	5.0248e+01	19.8797	69.481125	0.000304	3.041370	1.030444	-0.000122
 507	5.0347e+01	19.8444	69.396345	0.000213	2.128959	0.721311	-0.000085
 508	5.0447e+01	19.7914	69.279268	0.000294	2.939991	0.996096	-0.000118
 509	5.0546e+01	19.7433	69.206599	0.000182	1.824822	0.618267	-0.000073
 510	5.0645e+01	19.7112	69.053188	0.000385	3.852403	1.305229	-0.000154
 511	5.0745e+01	19.6871	68.948223	0.000264	2.635854	0.893052	-0.000105
 512	5.0844e+01	19.6406	68.762514	0.000466	4.663435	1.580014	-0.000187
 513	5.0944e+01	19.5973	68.714069	0.000122	1.216548	0.412178	-0.000049
 514	5.1044e+01	19.5556	68.576806	0.000345	3.446887	1.167837	-0.000138
 515	5.1143e+01	19.5139	68.500101	0.000193	1.926201	0.652615	-0.000077
 516	5.1242e+01	19.4754	68.334578	0.000416	4.156540	1.408274	-0.000166
 517	5.1342e+01	19.4369	68.257872	0.000193	1.926201	0.652615	-0.000077
 518	5.1441e+01	19.3920	68.128684	0.000324	3.244129	1.099140	-0.000130
 519	5.1541e+01	19.3599	67.983347	0.000365	3.649645	1.236533	-0.000146
 520	5.1641e+01	19.3214	67.870307	0.000284	2.838612	0.961748	-0.000114
 521	5.1740e+01	19.2765	67.765342	0.000264	2.635854	0.893052	-0.000105
 522	5.1840e+01	19.2380	67.648265	0.000294	2.939991	0.996096	-0.000118
 523	5.1939e+01	19.1979	67.539262	0.000274	2.737233	0.927400	-0.000110
 524	5.2038e+01	19.1610	67.426223	0.000284	2.838612	0.961748	-0.000114
 525	5.2138e+01	19.1064	67.292997	0.000335	3.345508	1.133489	-0.000134
 526	5.2237e+01	19.0775	67.175920	0.000294	2.939991	0.996096	-0.000118
 527	5.2337e+01	19.0342	67.038657	0.000345	3.446887	1.167837	-0.000138
 528	5.2437e+01	19.0102	66.974063	0.000162	1.622064	0.549570	-0.000065
 529	5.2536e+01	18.9556	66.812578	0.000406	4.055161	1.373926	-0.000162
 530	5.2636e+01	18.9171	66.715687	0.000243	2.433096	0.824355	-0.000097
 531	5.2735e+01	18.8818	66.578424	0.000345	3.446887	1.167837	-0.000138
 532	5.2834e+01	18.8433	66.457310	0.000304	3.041370	1.030444	-0.000122
 533	5.2934e+01	18.8048	66.328122	0.000324	3.244129	1.099140	-0.000130
 534	5.3033e+01	18.7615	66.239305	0.000223	2.230338	0.755659	-0.000089
 535	5.3133e+01	18.7230	66.081856	0.000395	3.953782	1.339577	-0.000158
 536	5.3233e+01	18.6925	65.989002	0.000233	2.331717	0.790007	-0.000093
 537	5.3332e+01	18.6364	65.835591	0.000385	3.852403	1.305229	-0.000154
 538	5.3431e+01	18.6155	65.730626	0.000264	2.635854	0.893052	-0.000105
 539	5.3531e+01	18.5706	65.605474	0.000314	3.142749	1.064792	-0.000126
 540	5.3630e+01	18.5209	65.500509	0.000264	2.635854	0.893052	-0.000105
 541	5.3730e+01	18.4872	65.395543	0.000264	2.635854	0.893052	-0.000105
 542	5.3830e+01	18.4423	65.262318	0.000335	3.345508	1.133489	-0.000134
 543	5.3929e+01	18.4102	65.108907	0.000385	3.852403	1.305229	-0.000154
 544	5.4029e+01	18.3604	64.995867	0.000284	2.838612	0.961748	-0.000114
 545	5.4128e+01	18.3219	64.870716	0.000314	3.142749	1.064792	-0.000126
 546	5.4227e+01	18.2818	64.733453	0.000345	3.446887	1.167837	-0.000138
 547	5.4327e+01	18.2433	64.628487	0.000264	2.635854	0.893052	-0.000105
 548	5.4426e+01	18.2032	64.479113	0.000375	3.751024	1.270881	-0.000150
 549	5.4526e+01	18.1679	64.386259	0.000233	2.331717	0.790007	-0.000093
 550	5.4626e+01	18.1182	64.253034	0.000335	3.345508	1.133489	-0.000134
 551	5.4725e+01	18.0797	64.119808	0.000335	3.345508	1.133489	-0.000134
 552	5.4825e+01	18.0508	64.010806	0.000274	2.737233	0.927400	-0.000110
 553	5.4924e+01	18.0027	63.845283	0.000416	4.156540	1.408274	-0.000166
 554	5.5023e+01	17.9674	63.764540	0.000203	2.027580	0.686963	-0.000081
 555	5.5123e+01	17.9241	63.655538	0.000274	2.737233	0.927400	-0.000110
 556	5.5222e+01	17.8808	63.526349	0.000324	3.244129	1.099140	-0.000130
 557	5.5322e+01	17.8487	63.401198	0.000314	3.142749	1.064792	-0.000126
 558	5.5422e+01	17.8118	63.288158	0.000284	2.838612	0.961748	-0.000114
 559	5.5521e+01	17.7685	63.146859	0.000355	3.548266	1.202185	-0.000142
 560	5.5620e+01	17.7268	62.997485	0.000375	3.751024	1.270881	-0.000150
 561	5.5720e+01	17.6819	62.928853	0.000172	1.723443	0.583918	-0.000069
 562	5.5819e+01	17.6498	62.775442	0.000385	3.852403	1.305229	-0.000154
 563	5.5919e+01	17.6113	62.658365	0.000294	2.939991	0.996096	-0.000118
 564	5.6019e+01	17.5663	62.517065	0.000355	3.548266	1.202185	-0.000142
 565	5.6118e+01	17.5246	62.404026	0.000284	2.838612	0.961748	-0.000114
 566	5.6218e+01	17.5006	62.303097	0.000253	2.534475	0.858704	-0.000101
 567	5.6317e+01	17.4412	62.173909	0.000324	3.244129	1.099140	-0.000130
 568	5.6416e+01	17.3979	62.036646	0.000345	3.446887	1.167837	-0.000138
 569	5.6516e+01	17.3562	61.891309	0.000365	3.649645	1.236533	-0.000146
 570	5.6615e+01	17.3241	61.766158	0.000314	3.142749	1.064792	-0.000126
 571	5.6715e+01	17.2856	61.669267	0.000243	2.433096	0.824355	-0.000097
 572	5.6815e+01	17.2471	61.527967	0.000355	3.548266	1.202185	-0.000142
 573	5.6914e+01	17.2038	61.410890	0.000294	2.939991	0.996096	-0.000118
 574	5.7014e+01	17.1733	61.261516	0.000375	3.751024	1.270881	-0.000150
 575	5.7113e+01	17.1380	61.120217	0.000355	3.548266	1.202185	-0.000142
 576	5.7212e+01	17.0851	61.007177	0.000284	2.838612	0.961748	-0.000114
 577	5.7312e+01	17.0434	60.894137	0.000284	2.838612	0.961748	-0.000114
 578	5.7411e+01	17.0097	60.777060	0.000294	2.939991	0.996096	-0.000118
 579	5.7511e+01	16.9664	60.635760	0.000355	3.548266	1.202185	-0.000142
 580	5.7611e+01	16.9279	60.510609	0.000314	3.142749	1.064792	-0.000126
 581	5.7710e+01	16.8958	60.385458	0.000314	3.142749	1.064792	-0.000126
 582	5.7809e+01	16.8396	60.252232	0.000335	3.345508	1.133489	-0.000134
 583	5.7909e+01	16.8124	60.151304	0.000253	2.534475	0.858704	-0.000101
 584	5.8008e+01	16.7706	60.010004	0.000355	3.548266	1.202185	-0.000142
 585	5.8108e+01	16.7289	59.880816	0.000324	3.244129	1.099140	-0.000130
 586	5.8208e+01	16.6872	59.767776	0.000284	2.838612	0.961748	-0.000114
 587	5.8307e+01	16.6503	59.614365	0.000385	3.852403	1.305229	-0.000154
 588	5.8407e+01	16.6086	59.513436	0.000253	2.534475	0.858704	-0.000101
 589	5.8506e+01	16.5605	59.364062	0.000375	3.751024	1.270881	-0.000150
 590	5.8605e+01	16.5396	59.246986	0.000294	2.939991	0.996096	-0.000118
 591	5.8705e+01	16.4915	59.129909	0.000294	2.939991	0.996096	-0.000118
 592	5.8804e+01	16.4514	58.976497	0.000385	3.852403	1.305229	-0.000154
 593	5.8904e+01	16.4209	58.863458	0.000284	2.838612	0.961748	-0.000114
 594	5.9004e+01	16.3680	58.710046	0.000385	3.852403	1.305229	-0.000154
 595	5.9103e+01	16.3279	58.588932	0.000304	3.041370	1.030444	-0.000122
 596	5.9203e+01	16.2878	58.463781	0.000314	3.142749	1.064792	-0.000126
 597	5.9302e+01	16.2509	58.326519	0.000345	3.446887	1.167837	-0.000138
 598	5.9401e+01	16.2156	58.221553	0.000264	2.635854	0.893052	-0.000105
 599	5.9501e+01	16.1739	58.060068	0.000406	4.055161	1.373926	-0.000162
 600	5.9600e+01	16.1306	57.926842	0.000335	3.345508	1.133489	-0.000134
 601	5.9700e+01	16.0856	57.801691	0.000314	3.142749	1.064792	-0.000126
 602	5.9800e+01	16.0568	57.716911	0.000213	2.128959	0.721311	-0.000085
 603	5.9899e+01	16.0086	57.547351	0.000426	4.257919	1.442622	-0.000170
 604	5.9998e+01	15.9733	57.422200	0.000314	3.142749	1.064792	-0.000126
 605	6.0098e+01	15.9252	57.260715	0.000406	4.055161	1.373926	-0.000162
 606	6.0197e+01	15.8996	57.163823	0.000243	2.433096	0.824355	-0.000097
 607	6.0297e+01	15.8562	57.022524	0.000355	3.548266	1.202185	-0.000142
 608	6.0397e+01	15.8097	56.889298	0.000335	3.345508	1.133489	-0.000134
 609	6.0496e+01	15.7744	56.768184	0.000304	3.041370	1.030444	-0.000122
 610	6.0596e+01	15.7327	56.602662	0.000416	4.156540	1.408274	-0.000166
 611	6.0695e+01	15.6926	56.425028	0.000446	4.460677	1.511318	-0.000179
 612	6.0794e+01	15.6525	56.352359	0.000182	1.824822	0.618267	-0.000073
 613	6.0894e+01	15.6124	56.202985	0.000375	3.751024	1.270881	-0.000150
 614	6.0993e+01	15.5771	56.073797	0.000324	3.244129	1.099140	-0.000130
 615	6.1093e+01	15.5322	55.896163	0.000446	4.460677	1.511318	-0.000179
 616	6.1193e+01	15.4953	55.791197	0.000264	2.635854	0.893052	-0.000105
 617	6.1292e+01	15.4584	55.645860	0.000365	3.649645	1.236533	-0.000146
 618	6.1392e+01	15.4167	55.561081	0.000213	2.128959	0.721311	-0.000085
 619	6.1491e+01	15.3766	55.387484	0.000436	4.359298	1.476970	-0.000174
 620	6.1590e+01	15.3349	55.230035	0.000395	3.953782	1.339577	-0.000158
 621	6.1690e+01	15.2964	55.116996	0.000284	2.838612	0.961748	-0.000114
 622	6.1789e+01	15.2546	54.987807	0.000324	3.244129	1.099140	-0.000130
 623	6.1889e+01	15.2129	54.874768	0.000284	2.838612	0.961748	-0.000114
 624	6.1989e+01	15.1776	54.725393	0.000375	3.751024	1.270881	-0.000150
 625	6.2088e+01	15.1407	54.580057	0.000365	3.649645	1.236533	-0.000146
 626	6.2188e+01	15.0958	54.450868	0.000324	3.244129	1.099140	-0.000130
 627	6.2287e+01	15.0605	54.317643	0.000335	3.345508	1.133489	-0.000134
 628	6.2386e+01	15.0156	54.188454	0.000324	3.244129	1.099140	-0.000130
 629	6.2486e+01	14.9787	54.014858	0.000436	4.359298	1.476970	-0.000174
 630	6.2586e+01	14.9402	53.905855	0.000274	2.737233	0.927400	-0.000110
 631	6.2685e+01	14.8937	53.788778	0.000294	2.939991	0.996096	-0.000118
 632	6.2785e+01	14.8504	53.615181	0.000436	4.359298	1.476970	-0.000174
 633	6.2884e+01	14.8167	53.494067	0.000304	3.041370	1.030444	-0.000122
 634	6.2983e+01	14.7766	53.352767	0.000355	3.548266	1.202185	-0.000142
 635	6.3083e+01	14.7397	53.203393	0.000375	3.751024	1.270881	-0.000150
 636	6.3182e+01	14.6964	53.086316	0.000294	2.939991	0.996096	-0.000118
 637	6.3282e+01	14.6643	52.916757	0.000426	4.257919	1.442622	-0.000170
 638	6.3382e+01	14.6162	52.815828	0.000253	2.534475	0.858704	-0.000101
 639	6.3481e+01	14.5793	52.658380	0.000395	3.953782	1.339577	-0.000158
 640	6.3581e+01	14.5376	52.500932	0.000395	3.953782	1.339577	-0.000158
 641	6.3680e+01	14.5023	52.387892	0.000284	2.838612	0.961748	-0.000114
 642	6.3779e+01	14.4493	52.230444	0.000395	3.953782	1.339577	-0.000158
 643	6.3879e+01	14.4221	52.085107	0.000365	3.649645	1.236533	-0.000146
 644	6.3978e+01	14.3787	51.963993	0.000304	3.041370	1.030444	-0.000122
 645	6.4078e+01	14.3386	51.818656	0.000365	3.649645	1.236533	-0.000146
 646	6.4177e+01	14.3001	51.653133	0.000416	4.156540	1.408274	-0.000166
 647	6.4277e+01	14.2584	51.519908	0.000335	3.345508	1.133489	-0.000134
 648	6.4376e+01	14.2119	51.386682	0.000335	3.345508	1.133489	-0.000134
 649	6.4476e+01	14.1782	51.257494	0.000324	3.244129	1.099140	-0.000130
 650	6.4576e+01	14.1397	51.100046	0.000395	3.953782	1.339577	-0.000158
 651	6.4675e+01	14.0996	50.999117	0.000253	2.534475	0.858704	-0.000101
 652	6.4775e+01	14.0595	50.873966	0.000314	3.142749	1.064792	-0.000126
 653	6.4874e+01	14.0162	50.676146	0.000497	4.967572	1.683059	-0.000199
 654	6.4974e+01	13.9889	50.555032	0.000304	3.041370	1.030444	-0.000122
 655	6.5073e+01	13.9279	50.421807	0.000335	3.345508	1.133489	-0.000134
 656	6.5172e+01	13.8959	50.248210	0.000436	4.359298	1.476970	-0.000174
 657	6.5272e+01	13.8638	50.102873	0.000365	3.649645	1.236533	-0.000146
 658	6.5371e+01	13.8173	49.973685	0.000324	3.244129	1.099140	-0.000130
 659	6.5471e+01	13.7820	49.848534	0.000314	3.142749	1.064792	-0.000126
 660	6.5570e+01	13.7403	49.727419	0.000304	3.041370	1.030444	-0.000122
 661	6.5670e+01	13.7018	49.557860	0.000426	4.257919	1.442622	-0.000170
 662	6.5769e+01	13.6616	49.432709	0.000314	3.142749	1.064792	-0.000126
 663	6.5869e+01	13.6167	49.255075	0.000446	4.460677	1.511318	-0.000179
 664	6.5969e+01	13.5782	49.146072	0.000274	2.737233	0.927400	-0.000110
 665	6.6068e+01	13.5461	49.008809	0.000345	3.446887	1.167837	-0.000138
 666	6.6168e+01	13.4980	48.855398	0.000385	3.852403	1.305229	-0.000154
 667	6.6267e+01	13.4611	48.710061	0.000365	3.649645	1.236533	-0.000146
 668	6.6367e+01	13.4210	48.548576	0.000406	4.055161	1.373926	-0.000162
 669	6.6466e+01	13.3777	48.419387	0.000324	3.244129	1.099140	-0.000130
 670	6.6566e+01	13.3392	48.314422	0.000264	2.635854	0.893052	-0.000105
 671	6.6665e+01	13.3087	48.140825	0.000436	4.359298	1.476970	-0.000174
 672	6.6764e+01	13.2654	48.023748	0.000294	2.939991	0.996096	-0.000118
 673	6.6864e+01	13.2253	47.878411	0.000365	3.649645	1.236533	-0.000146
 674	6.6963e+01	13.1868	47.712889	0.000416	4.156540	1.408274	-0.000166
 675	6.7063e+01	13.1547	47.559478	0.000385	3.852403	1.305229	-0.000154
 676	6.7162e+01	13.1050	47.446438	0.000284	2.838612	0.961748	-0.000114
 677	6.7262e+01	13.0617	47.288989	0.000395	3.953782	1.339577	-0.000158
 678	6.7362e+01	13.0264	47.163838	0.000314	3.142749	1.064792	-0.000126
 679	6.7461e+01	12.9798	47.014464	0.000375	3.751024	1.270881	-0.000150
 680	6.7561e+01	12.9413	46.893350	0.000304	3.041370	1.030444	-0.000122
 681	6.7660e+01	12.8996	46.735902	0.000395	3.953782	1.339577	-0.000158
 682	6.7760e+01	12.8643	46.626899	0.000274	2.737233	0.927400	-0.000110
 683	6.7859e+01	12.8307	46.473488	0.000385	3.852403	1.305229	-0.000154
 684	6.7959e+01	12.7954	46.332188	0.000355	3.548266	1.202185	-0.000142
 685	6.8058e+01	12.7456	46.186851	0.000365	3.649645	1.236533	-0.000146
 686	6.8157e+01	12.7087	46.069774	0.000294	2.939991	0.996096	-0.000118
 687	6.8257e+01	12.6702	45.924438	0.000365	3.649645	1.236533	-0.000146
 688	6.8356e+01	12.6253	45.726618	0.000497	4.967572	1.683059	-0.000199
 689	6.8456e+01	12.5964	45.633764	0.000233	2.331717	0.790007	-0.000093
 690	6.8555e+01	12.5515	45.512650	0.000304	3.041370	1.030444	-0.000122
 691	6.8655e+01	12.5050	45.379424	0.000335	3.345508	1.133489	-0.000134
 692	6.8754e+01	12.4761	45.238125	0.000355	3.548266	1.202185	-0.000142
 693	6.8854e+01	12.4376	45.080676	0.000395	3.953782	1.339577	-0.000158
 694	6.8954e+01	12.3879	44.939376	0.000355	3.548266	1.202185	-0.000142
 695	6.9053e+01	12.3414	44.806151	0.000335	3.345508	1.133489	-0.000134
 696	6.9153e+01	12.3093	44.644666	0.000406	4.055161	1.373926	-0.000162
 697	6.9252e+01	12.2595	44.523551	0.000304	3.041370	1.030444	-0.000122
 698	6.9352e+01	12.2307	44.358029	0.000416	4.156540	1.408274	-0.000166
 699	6.9451e+01	12.1906	44.240952	0.000294	2.939991	0.996096	-0.000118
 700	6.9550e+01	12.1489	44.095615	0.000365	3.649645	1.236533	-0.000146
 701	6.9650e+01	12.1104	43.974501	0.000304	3.041370	1.030444	-0.000122
 702	6.9749e+01	12.0654	43.817053	0.000395	3.953782	1.339577	-0.000158
 703	6.9849e+01	12.0125	43.679790	0.000345	3.446887	1.167837	-0.000138
 704	6.9948e+01	11.9916	43.534453	0.000365	3.649645	1.236533	-0.000146
 705	7.0048e+01	11.9531	43.381042	0.000385	3.852403	1.305229	-0.000154
 706	7.0147e+01	11.9146	43.259928	0.000304	3.041370	1.030444	-0.000122
 707	7.0247e+01	11.8665	43.094405	0.000416	4.156540	1.408274	-0.000166
 708	7.0347e+01	11.8344	42.965217	0.000324	3.244129	1.099140	-0.000130
 709	7.0446e+01	11.8007	42.823917	0.000355	3.548266	1.202185	-0.000142
 710	7.0546e+01	11.7526	42.694729	0.000324	3.244129	1.099140	-0.000130
 711	7.0645e+01	11.7157	42.561504	0.000335	3.345508	1.133489	-0.000134
 712	7.0745e+01	11.6708	42.408092	0.000385	3.852403	1.305229	-0.000154
 713	7.0844e+01	11.6323	42.250644	0.000395	3.953782	1.339577	-0.000158
 714	7.0944e+01	11.5906	42.085122	0.000416	4.156540	1.408274	-0.000166
 715	7.1043e+01	11.5585	41.980156	0.000264	2.635854	0.893052	-0.000105
 716	7.1142e+01	11.5072	41.871153	0.000274	2.737233	0.927400	-0.000110
 717	7.1242e+01	11.4783	41.721779	0.000375	3.751024	1.270881	-0.000150
 718	7.1341e+01	11.4286	41.568368	0.000385	3.852403	1.305229	-0.000154
 719	7.1441e+01	11.3981	41.394771	0.000436	4.359298	1.476970	-0.000174
 720	7.1540e+01	11.3532	41.309991	0.000213	2.128959	0.721311	-0.000085
 721	7.1640e+01	11.3259	41.120246	0.000476	4.764814	1.614363	-0.000191
 722	7.1740e+01	11.2665	41.043540	0.000193	1.926201	0.652615	-0.000077
 723	7.1839e+01	11.2312	40.861869	0.000456	4.562056	1.545666	-0.000183
 724	7.1939e+01	11.1959	40.752867	0.000274	2.737233	0.927400	-0.000110
 725	7.2038e+01	11.1574	40.623678	0.000324	3.244129	1.099140	-0.000130
 726	7.2138e+01	11.1125	40.486416	0.000345	3.446887	1.167837	-0.000138
 727	7.2237e+01	11.0724	40.304745	0.000456	4.562056	1.545666	-0.000183
 728	7.2337e+01	11.0419	40.163445	0.000355	3.548266	1.202185	-0.000142
 729	7.2436e+01	10.9906	40.022145	0.000355	3.548266	1.202185	-0.000142
 730	7.2535e+01	10.9569	39.937365	0.000213	2.128959	0.721311	-0.000085
 731	7.2635e+01	10.9040	39.743583	0.000487	4.866193	1.648711	-0.000195
 732	7.2734e+01	10.8783	39.614394	0.000324	3.244129	1.099140	-0.000130
 733	7.2834e+01	10.8366	39.456946	0.000395	3.953782	1.339577	-0.000158
 734	7.2933e+01	10.8045	39.351981	0.000264	2.635854	0.893052	-0.000105
 735	7.3033e+01	10.7516	39.186458	0.000416	4.156540	1.408274	-0.000166
 736	7.3132e+01	10.7147	39.081493	0.000264	2.635854	0.893052	-0.000105
 737	7.3232e+01	10.6778	38.907896	0.000436	4.359298	1.476970	-0.000174
 738	7.3332e+01	10.6313	38.758522	0.000375	3.751024	1.270881	-0.000150
 739	7.3431e+01	10.5895	38.609148	0.000375	3.751024	1.270881	-0.000150
 740	7.3531e+01	10.5559	38.467848	0.000355	3.548266	1.202185	-0.000142
 741	7.3630e+01	10.5206	38.366919	0.000253	2.534475	0.858704	-0.000101
 742	7.3730e+01	10.4772	38.193323	0.000436	4.359298	1.476970	-0.000174
 743	7.3829e+01	10.4468	38.080283	0.000284	2.838612	0.961748	-0.000114
 744	7.3928e+01	10.3986	37.930909	0.000375	3.751024	1.270881	-0.000150
 745	7.4028e+01	10.3505	37.761349	0.000426	4.257919	1.442622	-0.000170
 746	7.4127e+01	10.3184	37.660421	0.000253	2.534475	0.858704	-0.000101
 747	7.4227e+01	10.2735	37.511047	0.000375	3.751024	1.270881	-0.000150
 748	7.4326e+01	10.2366	37.369747	0.000355	3.548266	1.202185	-0.000142
 749	7.4426e+01	10.2029	37.175964	0.000487	4.866193	1.648711	-0.000195
 750	7.4525e+01	10.1564	37.050813	0.000314	3.142749	1.064792	-0.000126
 751	7.4625e+01	10.1227	36.937773	0.000284	2.838612	0.961748	-0.000114
 752	7.4725e+01	10.0778	36.788399	0.000375	3.751024	1.270881	-0.000150
 753	7.4824e+01	10.0425	36.647100	0.000355	3.548266	1.202185	-0.000142
 754	7.4924e+01	10.0024	36.493689	0.000385	3.852403	1.305229	-0.000154
 755	7.5023e+01	9.9687	36.392760	0.000253	2.534475	0.858704	-0.000101
 756	7.5123e+01	9.9270	36.194940	0.000497	4.967572	1.683059	-0.000199
 757	7.5222e+01	9.8676	36.049604	0.000365	3.649645	1.236533	-0.000146
 758	7.5322e+01	9.8500	35.932527	0.000294	2.939991	0.996096	-0.000118
 759	7.5421e+01	9.7954	35.791227	0.000355	3.548266	1.202185	-0.000142
 760	7.5520e+01	9.7730	35.589370	0.000507	5.068951	1.717407	-0.000203
 761	7.5620e+01	9.7056	35.496516	0.000233	2.331717	0.790007	-0.000093
 762	7.5719e+01	9.6687	35.314845	0.000456	4.562056	1.545666	-0.000183
 763	7.5819e+01	9.6382	35.205842	0.000274	2.737233	0.927400	-0.000110
 764	7.5918e+01	9.5997	35.084728	0.000304	3.041370	1.030444	-0.000122
 765	7.6018e+01	9.5532	34.915168	0.000426	4.257919	1.442622	-0.000170
 766	7.6118e+01	9.5163	34.753683	0.000406	4.055161	1.373926	-0.000162
 767	7.6217e+01	9.4842	34.584123	0.000426	4.257919	1.442622	-0.000170
 768	7.6317e+01	9.4409	34.467046	0.000294	2.939991	0.996096	-0.000118
 769	7.6416e+01	9.4104	34.358044	0.000274	2.737233	0.927400	-0.000110
 770	7.6516e+01	9.3639	34.172335	0.000466	4.663435	1.580014	-0.000187
 771	7.6615e+01	9.3238	34.035073	0.000345	3.446887	1.167837	-0.000138
 772	7.6715e+01	9.2837	33.881662	0.000385	3.852403	1.305229	-0.000154
 773	7.6814e+01	9.2420	33.736325	0.000365	3.649645	1.236533	-0.000146
 774	7.6913e+01	9.1955	33.586951	0.000375	3.751024	1.270881	-0.000150
 775	7.7013e+01	9.1634	33.445651	0.000355	3.548266	1.202185	-0.000142
 776	7.7112e+01	9.1249	33.292240	0.000385	3.852403	1.305229	-0.000154
 777	7.7212e+01	9.0864	33.098457	0.000487	4.866193	1.648711	-0.000195
 778	7.7311e+01	9.0463	32.985418	0.000284	2.838612	0.961748	-0.000114
 779	7.7411e+01	9.0078	32.844118	0.000355	3.548266	1.202185	-0.000142
 780	7.7510e+01	8.9580	32.714929	0.000324	3.244129	1.099140	-0.000130
 781	7.7610e+01	8.9243	32.545370	0.000426	4.257919	1.442622	-0.000170
 782	7.7710e+01	8.8762	32.408107	0.000345	3.446887	1.167837	-0.000138
 783	7.7809e+01	8.8489	32.222399	0.000466	4.663435	1.580014	-0.000187
 784	7.7909e+01	8.7960	32.109359	0.000284	2.838612	0.961748	-0.000114
 785	7.8008e+01	8.7607	31.935762	0.000436	4.359298	1.476970	-0.000174
 786	7.8108e+01	8.7206	31.782351	0.000385	3.852403	1.305229	-0.000154
 787	7.8207e+01	8.6853	31.645088	0.000345	3.446887	1.167837	-0.000138
 788	7.8306e+01	8.6404	31.491677	0.000385	3.852403	1.305229	-0.000154
 789	7.8406e+01	8.5971	31.338266	0.000385	3.852403	1.305229	-0.000154
 790	7.8505e+01	8.5538	31.184855	0.000385	3.852403	1.305229	-0.000154
 791	7.8605e+01	8.5217	31.019332	0.000416	4.156540	1.408274	-0.000166
 792	7.8704e+01	8.4768	30.890144	0.000324	3.244129	1.099140	-0.000130
 793	7.8804e+01	8.4335	30.728659	0.000406	4.055161	1.373926	-0.000162
 794	7.8903e+01	8.4094	30.591396	0.000345	3.446887	1.167837	-0.000138
 795	7.9003e+01	8.3581	30.470282	0.000304	3.041370	1.030444	-0.000122
 796	7.9103e+01	8.3276	30.288611	0.000456	4.562056	1.545666	-0.000183
 797	7.9202e+01	8.2794	30.119051	0.000426	4.257919	1.442622	-0.000170
 798	7.9302e+01	8.2442	29.981789	0.000345	3.446887	1.167837	-0.000138
 799	7.9401e+01	8.2137	29.868749	0.000284	2.838612	0.961748	-0.000114
 800	7.9501e+01	8.1671	29.699189	0.000426	4.257919	1.442622	-0.000170
 801	7.9600e+01	8.1319	29.533666	0.000416	4.156540	1.408274	-0.000166
 802	7.9700e+01	8.0869	29.380255	0.000385	3.852403	1.305229	-0.000154
 803	7.9799e+01	8.0452	29.238956	0.000355	3.548266	1.202185	-0.000142
 804	7.9898e+01	8.0003	29.097656	0.000355	3.548266	1.202185	-0.000142
 805	7.9998e+01	7.9634	28.907910	0.000476	4.764814	1.614363	-0.000191
 806	8.0097e+01	7.9233	28.782759	0.000314	3.142749	1.064792	-0.000126
 807	8.0197e+01	7.8784	28.621274	0.000406	4.055161	1.373926	-0.000162
 808	8.0296e+01	7.8511	28.439603	0.000456	4.562056	1.545666	-0.000183
 809	8.0396e+01	7.8046	28.302340	0.000345	3.446887	1.167837	-0.000138
 810	8.0496e+01	7.7773	28.181226	0.000304	3.041370	1.030444	-0.000122
 811	8.0595e+01	7.7292	28.003592	0.000446	4.460677	1.511318	-0.000179
 812	8.0695e+01	7.6827	27.842107	0.000406	4.055161	1.373926	-0.000162
 813	8.0794e+01	7.6442	27.676584	0.000416	4.156540	1.408274	-0.000166
 814	8.0894e+01	7.6073	27.559507	0.000294	2.939991	0.996096	-0.000118
 815	8.0993e+01	7.5688	27.389947	0.000426	4.257919	1.442622	-0.000170
 816	8.1093e+01	7.5383	27.248648	0.000355	3.548266	1.202185	-0.000142
 817	8.1192e+01	7.4854	27.075051	0.000436	4.359298	1.476970	-0.000174
 818	8.1291e+01	7.4485	26.917603	0.000395	3.953782	1.339577	-0.000158
 819	8.1391e+01	7.4083	26.780340	0.000345	3.446887	1.167837	-0.000138
 820	8.1490e+01	7.3586	26.618854	0.000406	4.055161	1.373926	-0.000162
 821	8.1590e+01	7.3297	26.481592	0.000345	3.446887	1.167837	-0.000138
 822	8.1689e+01	7.2961	26.332218	0.000375	3.751024	1.270881	-0.000150
 823	8.1789e+01	7.2415	26.142472	0.000476	4.764814	1.614363	-0.000191
 824	8.1888e+01	7.2142	26.005210	0.000345	3.446887	1.167837	-0.000138
 825	8.1988e+01	7.1677	25.795279	0.000527	5.271709	1.786103	-0.000211
 826	8.2088e+01	7.1228	25.690313	0.000264	2.635854	0.893052	-0.000105
 827	8.2187e+01	7.0891	25.532865	0.000395	3.953782	1.339577	-0.000158
 828	8.2287e+01	7.0506	25.395602	0.000345	3.446887	1.167837	-0.000138
 829	8.2386e+01	7.0121	25.222006	0.000436	4.359298	1.476970	-0.000174
 830	8.2486e+01	6.9656	25.068594	0.000385	3.852403	1.305229	-0.000154
 831	8.2585e+01	6.9303	24.919220	0.000375	3.751024	1.270881	-0.000150
 832	8.2684e+01	6.8966	24.749661	0.000426	4.257919	1.442622	-0.000170
 833	8.2784e+01	6.8469	24.604324	0.000365	3.649645	1.236533	-0.000146
 834	8.2883e+01	6.8068	24.454950	0.000375	3.751024	1.270881	-0.000150
 835	8.2983e+01	6.7667	24.305576	0.000375	3.751024	1.270881	-0.000150
 836	8.3082e+01	6.7265	24.123905	0.000456	4.562056	1.545666	-0.000183
 837	8.3182e+01	6.6864	23.982605	0.000355	3.548266	1.202185	-0.000142
 838	8.3281e+01	6.6544	23.809008	0.000436	4.359298	1.476970	-0.000174
 839	8.3381e+01	6.6094	23.671745	0.000345	3.446887	1.167837	-0.000138
 840	8.3481e+01	6.5693	23.558706	0.000284	2.838612	0.961748	-0.000114
 841	8.3580e+01	6.5324	23.308403	0.000629	6.285499	2.129585	-0.000252
 842	8.3680e+01	6.4923	23.219586	0.000223	2.230338	0.755659	-0.000089
 843	8.3779e+01	6.4506	23.078286	0.000355	3.548266	1.202185	-0.000142
 844	8.3879e+01	6.4137	22.949098	0.000324	3.244129	1.099140	-0.000130
 845	8.3978e+01	6.3784	22.751278	0.000497	4.967572	1.683059	-0.000199
 846	8.4078e+01	6.3319	22.589793	0.000406	4.055161	1.373926	-0.000162
 847	8.4177e+01	6.2966	22.476753	0.000284	2.838612	0.961748	-0.000114
 848	8.4276e+01	6.2565	22.291045	0.000466	4.663435	1.580014	-0.000187
 849	8.4376e+01	6.2116	22.153782	0.000345	3.446887	1.167837	-0.000138
 850	8.4475e+01	6.1699	22.004408	0.000375	3.751024	1.270881	-0.000150
 851	8.4575e+01	6.1314	21.859071	0.000365	3.649645	1.236533	-0.000146
 852	8.4674e+01	6.0913	21.705660	0.000385	3.852403	1.305229	-0.000154
 853	8.4774e+01	6.0560	21.515915	0.000476	4.764814	1.614363	-0.000191
 854	8.4874e+01	6.0191	21.362504	0.000385	3.852403	1.305229	-0.000154
 855	8.4973e+01	5.9838	21.257538	0.000264	2.635854	0.893052	-0.000105
 856	8.5073e+01	5.9421	21.087979	0.000426	4.257919	1.442622	-0.000170
 857	8.5172e+01	5.9036	20.918419	0.000426	4.257919	1.442622	-0.000170
 858	8.5272e+01	5.8651	20.777119	0.000355	3.548266	1.202185	-0.000142
 859	8.5371e+01	5.8186	20.627745	0.000375	3.751024	1.270881	-0.000150
 860	8.5471e+01	5.7817	20.454148	0.000436	4.359298	1.476970	-0.000174
 861	8.5570e+01	5.7415	20.316886	0.000345	3.446887	1.167837	-0.000138
 862	8.5669e+01	5.6934	20.171549	0.000365	3.649645	1.236533	-0.000146
 863	8.5769e+01	5.6581	20.050435	0.000304	3.041370	1.030444	-0.000122
 864	8.5868e+01	5.6148	19.860689	0.000476	4.764814	1.614363	-0.000191
 865	8.5968e+01	5.5763	19.715352	0.000365	3.649645	1.236533	-0.000146
 866	8.6067e+01	5.5362	19.565978	0.000375	3.751024	1.270881	-0.000150
 867	8.6167e+01	5.4961	19.380270	0.000466	4.663435	1.580014	-0.000187
 868	8.6266e+01	5.4528	19.230896	0.000375	3.751024	1.270881	-0.000150
 869	8.6366e+01	5.4191	19.077485	0.000385	3.852403	1.305229	-0.000154
 870	8.6466e+01	5.3854	18.952334	0.000314	3.142749	1.064792	-0.000126
 871	8.6565e+01	5.3389	18.798923	0.000385	3.852403	1.305229	-0.000154
 872	8.6665e+01	5.3004	18.633400	0.000416	4.156540	1.408274	-0.000166
 873	8.6764e+01	5.2571	18.496137	0.000345	3.446887	1.167837	-0.000138
 874	8.6864e+01	5.2234	18.298318	0.000497	4.967572	1.683059	-0.000199
 875	8.6963e+01	5.1865	18.185278	0.000284	2.838612	0.961748	-0.000114
 876	8.7063e+01	5.1416	18.068201	0.000294	2.939991	0.996096	-0.000118
 877	8.7162e+01	5.0950	17.838084	0.000578	5.778604	1.957844	-0.000231
 878	8.7261e+01	5.0646	17.725044	0.000284	2.838612	0.961748	-0.000114
 879	8.7361e+01	5.0196	17.599893	0.000314	3.142749	1.064792	-0.000126
 880	8.7460e+01	4.9795	17.393999	0.000517	5.170330	1.751755	-0.000207
 881	8.7560e+01	4.9346	17.224440	0.000426	4.257919	1.442622	-0.000170
 882	8.7659e+01	4.9041	17.119474	0.000264	2.635854	0.893052	-0.000105
 883	8.7759e+01	4.8640	16.941840	0.000446	4.460677	1.511318	-0.000179
 884	8.7859e+01	4.8223	16.792466	0.000375	3.751024	1.270881	-0.000150
 885	8.7958e+01	4.7774	16.683463	0.000274	2.737233	0.927400	-0.000110
 886	8.8058e+01	4.7325	16.501792	0.000456	4.562056	1.545666	-0.000183
 887	8.8157e+01	4.7084	16.388753	0.000284	2.838612	0.961748	-0.000114
 888	8.8257e+01	4.6619	16.199007	0.000476	4.764814	1.614363	-0.000191
 889	8.8356e+01	4.6154	16.037522	0.000406	4.055161	1.373926	-0.000162
 890	8.8456e+01	4.5801	15.884111	0.000385	3.852403	1.305229	-0.000154
 891	8.8555e+01	4.5336	15.754922	0.000324	3.244129	1.099140	-0.000130
 892	8.8654e+01	4.4999	15.585363	0.000426	4.257919	1.442622	-0.000170
 893	8.8754e+01	4.4614	15.431951	0.000385	3.852403	1.305229	-0.000154
 894	8.8853e+01	4.4165	15.314874	0.000294	2.939991	0.996096	-0.000118
 895	8.8953e+01	4.3812	15.129166	0.000466	4.663435	1.580014	-0.000187
 896	8.9052e+01	4.3475	14.991904	0.000345	3.446887	1.167837	-0.000138
 897	8.9152e+01	4.2913	14.886938	0.000264	2.635854	0.893052	-0.000105
 898	8.9251e+01	4.2576	14.660858	0.000568	5.677225	1.923496	-0.000227
 899	8.9351e+01	4.2223	14.563967	0.000243	2.433096	0.824355	-0.000097
 900	8.9451e+01	4.1838	14.378259	0.000466	4.663435	1.580014	-0.000187
 901	8.9550e+01	4.1357	14.245033	0.000335	3.345508	1.133489	-0.000134
 902	8.9650e+01	4.0972	14.107771	0.000345	3.446887	1.167837	-0.000138
 903	8.9749e+01	4.0571	13.942248	0.000416	4.156540	1.408274	-0.000166
 904	8.9849e+01	4.0234	13.784800	0.000395	3.953782	1.339577	-0.000158
 905	8.9948e+01	3.9849	13.623315	0.000406	4.055161	1.373926	-0.000162
 906	9.0047e+01	3.9464	13.482015	0.000355	3.548266	1.202185	-0.000142
 907	9.0147e+01	3.9047	13.324567	0.000395	3.953782	1.339577	-0.000158
 908	9.0246e+01	3.8678	13.171155	0.000385	3.852403	1.305229	-0.000154
 909	9.0346e+01	3.8229	13.037930	0.000335	3.345508	1.133489	-0.000134
 910	9.0445e+01	3.7828	12.840110	0.000497	4.967572	1.683059	-0.000199
 911	9.0545e+01	3.7459	12.723033	0.000294	2.939991	0.996096	-0.000118
 912	9.0644e+01	3.7074	12.541362	0.000456	4.562056	1.545666	-0.000183
 913	9.0744e+01	3.6609	12.375840	0.000416	4.156540	1.408274	-0.000166
 914	9.0844e+01	3.6175	12.242614	0.000335	3.345508	1.133489	-0.000134
 915	9.0943e+01	3.5935	12.105352	0.000345	3.446887	1.167837	-0.000138
 916	9.1043e+01	3.5405	11.939829	0.000416	4.156540	1.408274	-0.000166
 917	9.1142e+01	3.5052	11.814678	0.000314	3.142749	1.064792	-0.000126
 918	9.1242e+01	3.4603	11.657229	0.000395	3.953782	1.339577	-0.000158
 919	9.1341e+01	3.4250	11.491707	0.000416	4.156540	1.408274	-0.000166
 920	9.1441e+01	3.3881	11.338296	0.000385	3.852403	1.305229	-0.000154
 921	9.1540e+01	3.3545	11.160662	0.000446	4.460677	1.511318	-0.000179
 922	9.1639e+01	3.3031	11.007251	0.000385	3.852403	1.305229	-0.000154
 923	9.1739e+01	3.2662	10.910359	0.000243	2.433096	0.824355	-0.000097
 924	9.1838e+01	3.2341	10.736762	0.000436	4.359298	1.476970	-0.000174
 925	9.1938e+01	3.1860	10.571240	0.000416	4.156540	1.408274	-0.000166
 926	9.2037e+01	3.1475	10.401680	0.000426	4.257919	1.442622	-0.000170
 927	9.2137e+01	3.1058	10.284603	0.000294	2.939991	0.996096	-0.000118
 928	9.2237e+01	3.0705	10.106969	0.000446	4.460677	1.511318	-0.000179
 929	9.2336e+01	3.0160	9.973744	0.000335	3.345508	1.133489	-0.000134
 930	9.2436e+01	2.9967	9.824370	0.000375	3.751024	1.270881	-0.000150
 931	9.2535e+01	2.9309	9.610402	0.000537	5.373088	1.820451	-0.000215
 932	9.2635e+01	2.9069	9.497362	0.000284	2.838612	0.961748	-0.000114
 933	9.2734e+01	2.8620	9.364136	0.000335	3.345508	1.133489	-0.000134
 934	9.2834e+01	2.8283	9.170354	0.000487	4.866193	1.648711	-0.000195
 935	9.2933e+01	2.7930	9.053277	0.000294	2.939991	0.996096	-0.000118
 936	9.3032e+01	2.7529	8.883717	0.000426	4.257919	1.442622	-0.000170
 937	9.3132e+01	2.7079	8.714157	0.000426	4.257919	1.442622	-0.000170
 938	9.3231e+01	2.6646	8.568821	0.000365	3.649645	1.236533	-0.000146
 939	9.3331e+01	2.6390	8.427521	0.000355	3.548266	1.202185	-0.000142
 940	9.3430e+01	2.5956	8.241813	0.000466	4.663435	1.580014	-0.000187
 941	9.3530e+01	2.5475	8.088401	0.000385	3.852403	1.305229	-0.000154
 942	9.3629e+01	2.5202	7.939027	0.000375	3.751024	1.270881	-0.000150
 943	9.3729e+01	2.4641	7.769468	0.000426	4.257919	1.442622	-0.000170
 944	9.3829e+01	2.4320	7.616057	0.000385	3.852403	1.305229	-0.000154
 945	9.3928e+01	2.3807	7.466683	0.000375	3.751024	1.270881	-0.000150
 946	9.4028e+01	2.3486	7.321346	0.000365	3.649645	1.236533	-0.000146
 947	9.4127e+01	2.3037	7.155823	0.000416	4.156540	1.408274	-0.000166
 948	9.4227e+01	2.2636	6.994338	0.000406	4.055161	1.373926	-0.000162
 949	9.4326e+01	2.2347	6.844964	0.000375	3.751024	1.270881	-0.000150
 950	9.4425e+01	2.1962	6.707701	0.000345	3.446887	1.167837	-0.000138
 951	9.4525e+01	2.1497	6.505844	0.000507	5.068951	1.717407	-0.000203
 952	9.4624e+01	2.1112	6.400879	0.000264	2.635854	0.893052	-0.000105
 953	9.4724e+01	2.0695	6.182873	0.000547	5.474467	1.854800	-0.000219
 954	9.4823e+01	2.0261	6.033499	0.000375	3.751024	1.270881	-0.000150
 955	9.4923e+01	1.9925	5.904311	0.000324	3.244129	1.099140	-0.000130
 956	9.5022e+01	1.9491	5.734751	0.000426	4.257919	1.442622	-0.000170
 957	9.5122e+01	1.9106	5.585377	0.000375	3.751024	1.270881	-0.000150
 958	9.5222e+01	1.8850	5.383521	0.000507	5.068951	1.717407	-0.000203
 959	9.5321e+01	1.8272	5.217998	0.000416	4.156540	1.408274	-0.000166
 960	9.5421e+01	1.7807	5.121107	0.000243	2.433096	0.824355	-0.000097
 961	9.5520e+01	1.7582	4.915213	0.000517	5.170330	1.751755	-0.000207
 962	9.5620e+01	1.7101	4.773913	0.000355	3.548266	1.202185	-0.000142
 963	9.5719e+01	1.6700	4.652799	0.000304	3.041370	1.030444	-0.000122
 964	9.5819e+01	1.6315	4.438831	0.000537	5.373088	1.820451	-0.000215
 965	9.5918e+01	1.5930	4.305605	0.000335	3.345508	1.133489	-0.000134
 966	9.6017e+01	1.5481	4.172380	0.000335	3.345508	1.133489	-0.000134
 967	9.6117e+01	1.5096	3.982634	0.000476	4.764814	1.614363	-0.000191
 968	9.6216e+01	1.4759	3.829223	0.000385	3.852403	1.305229	-0.000154
 969	9.6316e+01	1.4294	3.659664	0.000426	4.257919	1.442622	-0.000170
 970	9.6415e+01	1.3941	3.490104	0.000426	4.257919	1.442622	-0.000170
 971	9.6515e+01	1.3540	3.368990	0.000304	3.041370	1.030444	-0.000122
 972	9.6615e+01	1.3074	3.171170	0.000497	4.967572	1.683059	-0.000199
 973	9.6714e+01	1.2754	3.058130	0.000284	2.838612	0.961748	-0.000114
 974	9.6814e+01	1.2321	2.876459	0.000456	4.562056	1.545666	-0.000183
 975	9.6913e+01	1.2000	2.678640	0.000497	4.967572	1.683059	-0.000199
 976	9.7013e+01	1.1567	2.533303	0.000365	3.649645	1.236533	-0.000146
 977	9.7112e+01	1.1165	2.367780	0.000416	4.156540	1.408274	-0.000166
 978	9.7212e+01	1.0732	2.230517	0.000345	3.446887	1.167837	-0.000138
 979	9.7311e+01	1.0315	2.101329	0.000324	3.244129	1.099140	-0.000130
 980	9.7410e+01	0.9946	1.887361	0.000537	5.373088	1.820451	-0.000215
 981	9.7510e+01	0.9545	1.750098	0.000345	3.446887	1.167837	-0.000138
 982	9.7609e+01	0.9176	1.596687	0.000385	3.852403	1.305229	-0.000154
 983	9.7709e+01	0.8759	1.419053	0.000446	4.460677	1.511318	-0.000179
 984	9.7808e+01	0.8326	1.265642	0.000385	3.852403	1.305229	-0.000154
 985	9.7908e+01	0.7925	1.083971	0.000456	4.562056	1.545666	-0.000183
 986	9.8007e+01	0.7428	0.950745	0.000335	3.345508	1.133489	-0.000134
 987	9.8107e+01	0.7059	0.789260	0.000406	4.055161	1.373926	-0.000162
 988	9.8207e+01	0.6625	0.627775	0.000406	4.055161	1.373926	-0.000162
 989	9.8306e+01	0.6401	0.470326	0.000395	3.953782	1.339577	-0.000158
 990	9.8406e+01	0.5952	0.312878	0.000395	3.953782	1.339577	-0.000158
 991	9.8505e+01	0.5519	0.143318	0.000426	4.257919	1.442622	-0.000170
 992	9.8605e+01	0.5085	0.026241	0.000294	2.939991	0.996096	-0.000118
 993	9.8704e+01	0.4829	-0.155430	0.000456	4.562056	1.545666	-0.000183
 994	9.8803e+01	0.4364	-0.333064	0.000446	4.460677	1.511318	-0.000179
 995	9.8903e+01	0.3914	-0.474363	0.000355	3.548266	1.202185	-0.000142
 996	9.9002e+01	0.3545	-0.676220	0.000507	5.068951	1.717407	-0.000203
 997	9.9102e+01	0.3096	-0.797334	0.000304	3.041370	1.030444	-0.000122
 998	9.9201e+01	0.2759	-0.954783	0.000395	3.953782	1.339577	-0.000158
 999	9.9301e+01	0.2342	-1.104157	0.000375	3.751024	1.270881	-0.000150
1000	9.9400e+01	0.1925	-1.297939	0.000487	4.866193	1.648711	-0.000195
1001	9.9500e+01	0.1604	-1.431165	0.000335	3.345508	1.133489	-0.000134
1002	9.9600e+01	0.1139	-1.600724	0.000426	4.257919	1.442622	-0.000170
1003	9.9699e+01	0.0802	-1.786433	0.000466	4.663435	1.580014	-0.000187
1004	9.9799e+01	0.0353	-1.903510	0.000294	2.939991	0.996096	-0.000118
1005	9.9898e+01	0.0128	-2.052884	0.000375	3.751024	1.270881	-0.000150
1006	9.9998e+01	-0.0353	-2.190146	0.000345	3.446887	1.167837	-0.000138
1007	1.0010e+02	-0.0818	-2.351632	0.000406	4.055161	1.373926	-0.000162
1008	1.0020e+02	-0.1171	-2.517154	0.000416	4.156540	1.408274	-0.000166
1009	1.0030e+02	-0.1572	-2.678640	0.000406	4.055161	1.373926	-0.000162
1010	1.0040e+02	-0.1973	-2.840125	0.000406	4.055161	1.373926	-0.000162
1011	1.0050e+02	-0.2294	-2.977388	0.000345	3.446887	1.167837	-0.000138
1012	1.0059e+02	-0.2727	-3.118687	0.000355	3.548266	1.202185	-0.000142
1013	1.0069e+02	-0.3096	-3.280173	0.000406	4.055161	1.373926	-0.000162
1014	1.0079e+02	-0.3497	-3.429547	0.000375	3.751024	1.270881	-0.000150
1015	1.0089e+02	-0.3866	-3.639478	0.000527	5.271709	1.786103	-0.000211
1016	1.0099e+02	-0.4251	-3.772703	0.000335	3.345508	1.133489	-0.000134
1017	1.0109e+02	-0.4732	-3.881706	0.000274	2.737233	0.927400	-0.000110
1018	1.0119e+02	-0.5166	-4.079526	0.000497	4.967572	1.683059	-0.000199
1019	1.0129e+02	-0.5470	-4.208714	0.000324	3.244129	1.099140	-0.000130
1020	1.0139e+02	-0.6016	-4.378274	0.000426	4.257919	1.442622	-0.000170
1021	1.0149e+02	-0.6321	-4.547833	0.000426	4.257919	1.442622	-0.000170
1022	1.0159e+02	-0.6722	-4.701245	0.000385	3.852403	1.305229	-0.000154
1023	1.0169e+02	-0.7091	-4.858693	0.000395	3.953782	1.339577	-0.000158
1024	1.0179e+02	-0.7492	-4.975770	0.000294	2.939991	0.996096	-0.000118
1025	1.0189e+02	-0.7957	-5.137255	0.000406	4.055161	1.373926	-0.000162
1026	1.0199e+02	-0.8342	-5.322963	0.000466	4.663435	1.580014	-0.000187
1027	1.0209e+02	-0.8711	-5.460226	0.000345	3.446887	1.167837	-0.000138
1028	1.0219e+02	-0.9128	-5.625749	0.000416	4.156540	1.408274	-0.000166
1029	1.0229e+02	-0.9593	-5.783197	0.000395	3.953782	1.339577	-0.000158
1030	1.0239e+02	-0.9850	-5.968905	0.000466	4.663435	1.580014	-0.000187
1031	1.0248e+02	-1.0315	-6.069834	0.000253	2.534475	0.858704	-0.000101
1032	1.0258e+02	-1.0732	-6.251505	0.000456	4.562056	1.545666	-0.000183
1033	1.0268e+02	-1.1182	-6.380693	0.000324	3.244129	1.099140	-0.000130
1034	1.0278e+02	-1.1502	-6.562364	0.000456	4.562056	1.545666	-0.000183
1035	1.0288e+02	-1.1935	-6.699627	0.000345	3.446887	1.167837	-0.000138
1036	1.0298e+02	-1.2337	-6.853038	0.000385	3.852403	1.305229	-0.000154
1037	1.0308e+02	-1.2802	-6.990301	0.000345	3.446887	1.167837	-0.000138
1038	1.0318e+02	-1.3139	-7.131600	0.000355	3.548266	1.202185	-0.000142
1039	1.0328e+02	-1.3476	-7.309234	0.000446	4.460677	1.511318	-0.000179
1040	1.0338e+02	-1.3877	-7.458608	0.000375	3.751024	1.270881	-0.000150
1041	1.0348e+02	-1.4230	-7.620094	0.000406	4.055161	1.373926	-0.000162
1042	1.0358e+02	-1.4647	-7.789653	0.000426	4.257919	1.442622	-0.000170
1043	1.0368e+02	-1.5096	-7.882508	0.000233	2.331717	0.790007	-0.000093
1044	1.0378e+02	-1.5513	-8.060142	0.000446	4.460677	1.511318	-0.000179
1045	1.0388e+02	-1.5994	-8.217590	0.000395	3.953782	1.339577	-0.000158
1046	1.0398e+02	-1.6379	-8.354852	0.000345	3.446887	1.167837	-0.000138
1047	1.0408e+02	-1.6764	-8.540561	0.000466	4.663435	1.580014	-0.000187
1048	1.0418e+02	-1.7085	-8.681860	0.000355	3.548266	1.202185	-0.000142
1049	1.0428e+02	-1.7534	-8.815086	0.000335	3.345508	1.133489	-0.000134
1050	1.0438e+02	-1.7855	-9.000794	0.000466	4.663435	1.580014	-0.000187
1051	1.0447e+02	-1.8208	-9.109797	0.000274	2.737233	0.927400	-0.000110
1052	1.0457e+02	-1.8641	-9.275319	0.000416	4.156540	1.408274	-0.000166
1053	1.0467e+02	-1.9058	-9.416619	0.000355	3.548266	1.202185	-0.000142
1054	1.0477e+02	-1.9491	-9.578105	0.000406	4.055161	1.373926	-0.000162
1055	1.0487e+02	-1.9876	-9.715367	0.000345	3.446887	1.167837	-0.000138
1056	1.0497e+02	-2.0294	-9.876853	0.000406	4.055161	1.373926	-0.000162
1057	1.0507e+02	-2.0727	-10.006041	0.000324	3.244129	1.099140	-0.000130
1058	1.0517e+02	-2.1064	-10.175601	0.000426	4.257919	1.442622	-0.000170
1059	1.0527e+02	-2.1481	-10.304789	0.000324	3.244129	1.099140	-0.000130
1060	1.0537e+02	-2.1834	-10.462237	0.000395	3.953782	1.339577	-0.000158
1061	1.0547e+02	-2.2251	-10.623723	0.000406	4.055161	1.373926	-0.000162
1062	1.0557e+02	-2.2668	-10.797320	0.000436	4.359298	1.476970	-0.000174
1063	1.0567e+02	-2.3037	-10.918434	0.000304	3.041370	1.030444	-0.000122
1064	1.0577e+02	-2.3406	-11.051659	0.000335	3.345508	1.133489	-0.000134
1065	1.0587e+02	-2.3951	-11.188922	0.000345	3.446887	1.167837	-0.000138
1066	1.0597e+02	-2.4304	-11.358481	0.000426	4.257919	1.442622	-0.000170
1067	1.0607e+02	-2.4593	-11.511893	0.000385	3.852403	1.305229	-0.000154
1068	1.0617e+02	-2.5026	-11.620895	0.000274	2.737233	0.927400	-0.000110
1069	1.0627e+02	-2.5491	-11.814678	0.000487	4.866193	1.648711	-0.000195
1070	1.0637e+02	-2.5892	-11.951940	0.000345	3.446887	1.167837	-0.000138
1071	1.0647e+02	-2.6197	-12.137649	0.000466	4.663435	1.580014	-0.000187
1072	1.0656e+02	-2.6646	-12.254726	0.000294	2.939991	0.996096	-0.000118
1073	1.0666e+02	-2.7031	-12.408137	0.000385	3.852403	1.305229	-0.000154
1074	1.0676e+02	-2.7464	-12.521176	0.000284	2.838612	0.961748	-0.000114
1075	1.0686e+02	-2.7882	-12.714959	0.000487	4.866193	1.648711	-0.000195
1076	1.0696e+02	-2.8202	-12.836073	0.000304	3.041370	1.030444	-0.000122
1077	1.0706e+02	-2.8620	-13.025818	0.000476	4.764814	1.614363	-0.000191
1078	1.0716e+02	-2.9069	-13.146933	0.000304	3.041370	1.030444	-0.000122
1079	1.0726e+02	-2.9470	-13.340715	0.000487	4.866193	1.648711	-0.000195
1080	1.0736e+02	-2.9823	-13.465866	0.000314	3.142749	1.064792	-0.000126
1081	1.0746e+02	-3.0288	-13.582943	0.000294	2.939991	0.996096	-0.000118
1082	1.0756e+02	-3.0641	-13.752503	0.000426	4.257919	1.442622	-0.000170
1083	1.0766e+02	-3.0994	-13.897840	0.000365	3.649645	1.236533	-0.000146
1084	1.0776e+02	-3.1427	-14.006842	0.000274	2.737233	0.927400	-0.000110
1085	1.0786e+02	-3.1844	-14.168328	0.000406	4.055161	1.373926	-0.000162
1086	1.0796e+02	-3.2229	-14.325776	0.000395	3.953782	1.339577	-0.000158
1087	1.0806e+02	-3.2502	-14.503410	0.000446	4.460677	1.511318	-0.000179
1088	1.0816e+02	-3.3063	-14.644710	0.000355	3.548266	1.202185	-0.000142
1089	1.0826e+02	-3.3432	-14.729490	0.000213	2.128959	0.721311	-0.000085
1090	1.0836e+02	-3.3817	-14.911161	0.000456	4.562056	1.545666	-0.000183
1091	1.0845e+02	-3.4234	-15.080721	0.000426	4.257919	1.442622	-0.000170
1092	1.0855e+02	-3.4619	-15.201835	0.000304	3.041370	1.030444	-0.000122
1093	1.0865e+02	-3.5085	-15.359283	0.000395	3.953782	1.339577	-0.000158
1094	1.0875e+02	-3.5341	-15.504620	0.000365	3.649645	1.236533	-0.000146
1095	1.0885e+02	-3.5839	-15.637845	0.000335	3.345508	1.133489	-0.000134
1096	1.0895e+02	-3.6175	-15.815479	0.000446	4.460677	1.511318	-0.000179
1097	1.0905e+02	-3.6641	-15.940630	0.000314	3.142749	1.064792	-0.000126
1098	1.0915e+02	-3.6978	-16.102116	0.000406	4.055161	1.373926	-0.000162
1099	1.0925e+02	-3.7475	-16.275713	0.000436	4.359298	1.476970	-0.000174
1100	1.0935e+02	-3.7748	-16.368567	0.000233	2.331717	0.790007	-0.000093
1101	1.0945e+02	-3.8117	-16.550238	0.000456	4.562056	1.545666	-0.000183
1102	1.0955e+02	-3.8646	-16.659241	0.000274	2.737233	0.927400	-0.000110
1103	1.0965e+02	-3.8983	-16.820726	0.000406	4.055161	1.373926	-0.000162
1104	1.0975e+02	-3.9352	-17.002397	0.000456	4.562056	1.545666	-0.000183
1105	1.0985e+02	-3.9737	-17.171957	0.000426	4.257919	1.442622	-0.000170
1106	1.0995e+02	-4.0234	-17.260774	0.000223	2.230338	0.755659	-0.000089
1107	1.1005e+02	-4.0715	-17.430334	0.000426	4.257919	1.442622	-0.000170
1108	1.1015e+02	-4.0924	-17.579708	0.000375	3.751024	1.270881	-0.000150
1109	1.1025e+02	-4.1421	-17.704859	0.000314	3.142749	1.064792	-0.000126
1110	1.1035e+02	-4.1854	-17.870381	0.000416	4.156540	1.408274	-0.000166
1111	1.1044e+02	-4.2175	-18.052052	0.000456	4.562056	1.545666	-0.000183
1112	1.1054e+02	-4.2576	-18.169129	0.000294	2.939991	0.996096	-0.000118
1113	1.1064e+02	-4.2945	-18.350800	0.000456	4.562056	1.545666	-0.000183
1114	1.1074e+02	-4.3394	-18.455766	0.000264	2.635854	0.893052	-0.000105
1115	1.1084e+02	-4.3731	-18.588992	0.000335	3.345508	1.133489	-0.000134
1116	1.1094e+02	-4.4165	-18.762588	0.000436	4.359298	1.476970	-0.000174
1117	1.1104e+02	-4.4598	-18.944259	0.000456	4.562056	1.545666	-0.000183
1118	1.1114e+02	-4.5063	-19.069411	0.000314	3.142749	1.064792	-0.000126
1119	1.1124e+02	-4.5368	-19.218785	0.000375	3.751024	1.270881	-0.000150
1120	1.1134e+02	-4.5721	-19.404493	0.000466	4.663435	1.580014	-0.000187
1121	1.1144e+02	-4.6218	-19.517533	0.000284	2.838612	0.961748	-0.000114
1122	1.1154e+02	-4.6571	-19.674981	0.000395	3.953782	1.339577	-0.000158
1123	1.1164e+02	-4.6892	-19.792058	0.000294	2.939991	0.996096	-0.000118
1124	1.1174e+02	-4.7373	-19.981803	0.000476	4.764814	1.614363	-0.000191
1125	1.1184e+02	-4.7758	-20.106955	0.000314	3.142749	1.064792	-0.000126
1126	1.1194e+02	-4.8143	-20.268440	0.000406	4.055161	1.373926	-0.000162
1127	1.1204e+02	-4.8560	-20.413777	0.000365	3.649645	1.236533	-0.000146
1128	1.1214e+02	-4.8993	-20.575262	0.000406	4.055161	1.373926	-0.000162
1129	1.1224e+02	-4.9330	-20.716562	0.000355	3.548266	1.202185	-0.000142
1130	1.1234e+02	-4.9667	-20.861899	0.000365	3.649645	1.236533	-0.000146
1131	1.1244e+02	-5.0229	-20.962827	0.000253	2.534475	0.858704	-0.000101
1132	1.1253e+02	-5.0581	-21.168721	0.000517	5.170330	1.751755	-0.000207
1133	1.1263e+02	-5.0999	-21.245427	0.000193	1.926201	0.652615	-0.000077
1134	1.1273e+02	-5.1416	-21.439209	0.000487	4.866193	1.648711	-0.000195
1135	1.1283e+02	-5.1833	-21.592620	0.000385	3.852403	1.305229	-0.000154
1136	1.1293e+02	-5.2122	-21.737957	0.000365	3.649645	1.236533	-0.000146
1137	1.1303e+02	-5.2571	-21.875220	0.000345	3.446887	1.167837	-0.000138
1138	1.1313e+02	-5.2827	-22.064965	0.000476	4.764814	1.614363	-0.000191
1139	1.1323e+02	-5.3389	-22.165894	0.000253	2.534475	0.858704	-0.000101
1140	1.1333e+02	-5.3710	-22.319305	0.000385	3.852403	1.305229	-0.000154
1141	1.1343e+02	-5.4207	-22.517125	0.000497	4.967572	1.683059	-0.000199
1142	1.1353e+02	-5.4560	-22.597867	0.000203	2.027580	0.686963	-0.000081
1143	1.1363e+02	-5.4865	-22.731093	0.000335	3.345508	1.133489	-0.000134
1144	1.1373e+02	-5.5282	-22.908727	0.000446	4.460677	1.511318	-0.000179
1145	1.1383e+02	-5.5811	-23.090398	0.000456	4.562056	1.545666	-0.000183
1146	1.1393e+02	-5.6164	-23.207475	0.000294	2.939991	0.996096	-0.000118
1147	1.1403e+02	-5.6597	-23.405294	0.000497	4.967572	1.683059	-0.000199
1148	1.1413e+02	-5.7030	-23.506223	0.000253	2.534475	0.858704	-0.000101
1149	1.1423e+02	-5.7223	-23.695968	0.000476	4.764814	1.614363	-0.000191
1150	1.1433e+02	-5.7608	-23.817082	0.000304	3.041370	1.030444	-0.000122
1151	1.1442e+02	-5.8202	-23.938196	0.000304	3.041370	1.030444	-0.000122
1152	1.1452e+02	-5.8506	-24.099682	0.000406	4.055161	1.373926	-0.000162
1153	1.1462e+02	-5.8988	-24.224833	0.000314	3.142749	1.064792	-0.000126
1154	1.1472e+02	-5.9308	-24.394393	0.000426	4.257919	1.442622	-0.000170
1155	1.1482e+02	-5.9629	-24.531655	0.000345	3.446887	1.167837	-0.000138
1156	1.1492e+02	-6.0191	-24.689104	0.000395	3.953782	1.339577	-0.000158
1157	1.1502e+02	-6.0544	-24.850589	0.000406	4.055161	1.373926	-0.000162
1158	1.1512e+02	-6.0945	-24.959592	0.000274	2.737233	0.927400	-0.000110
1159	1.1522e+02	-6.1330	-25.125114	0.000416	4.156540	1.408274	-0.000166
1160	1.1532e+02	-6.1715	-25.258340	0.000335	3.345508	1.133489	-0.000134
1161	1.1542e+02	-6.2116	-25.411751	0.000385	3.852403	1.305229	-0.000154
1162	1.1552e+02	-6.2485	-25.577273	0.000416	4.156540	1.408274	-0.000166
1163	1.1562e+02	-6.2950	-25.750870	0.000436	4.359298	1.476970	-0.000174
1164	1.1572e+02	-6.3255	-25.876022	0.000314	3.142749	1.064792	-0.000126
1165	1.1582e+02	-6.3688	-26.029433	0.000385	3.852403	1.305229	-0.000154
1166	1.1592e+02	-6.4105	-26.174770	0.000365	3.649645	1.236533	-0.000146
1167	1.1602e+02	-6.4362	-26.312032	0.000345	3.446887	1.167837	-0.000138
1168	1.1612e+02	-6.4875	-26.404886	0.000233	2.331717	0.790007	-0.000093
1169	1.1622e+02	-6.5340	-26.590595	0.000466	4.663435	1.580014	-0.000187
1170	1.1632e+02	-6.5693	-26.707671	0.000294	2.939991	0.996096	-0.000118
1171	1.1642e+02	-6.6110	-26.865120	0.000395	3.953782	1.339577	-0.000158
1172	1.1651e+02	-6.6463	-27.010457	0.000365	3.649645	1.236533	-0.000146
1173	1.1661e+02	-6.6897	-27.163868	0.000385	3.852403	1.305229	-0.000154
1174	1.1671e+02	-6.7282	-27.293056	0.000324	3.244129	1.099140	-0.000130
1175	1.1681e+02	-6.7667	-27.470690	0.000446	4.460677	1.511318	-0.000179
1176	1.1691e+02	-6.8100	-27.616027	0.000365	3.649645	1.236533	-0.000146
1177	1.1701e+02	-6.8437	-27.720993	0.000264	2.635854	0.893052	-0.000105
1178	1.1711e+02	-6.8773	-27.870367	0.000375	3.751024	1.270881	-0.000150
1179	1.1721e+02	-6.9175	-27.991481	0.000304	3.041370	1.030444	-0.000122
1180	1.1731e+02	-6.9576	-28.152966	0.000406	4.055161	1.373926	-0.000162
1181	1.1741e+02	-7.0089	-28.322526	0.000426	4.257919	1.442622	-0.000170
1182	1.1751e+02	-7.0394	-28.419417	0.000243	2.433096	0.824355	-0.000097
1183	1.1761e+02	-7.0907	-28.536494	0.000294	2.939991	0.996096	-0.000118
1184	1.1771e+02	-7.1276	-28.726239	0.000476	4.764814	1.614363	-0.000191
1185	1.1781e+02	-7.1613	-28.899836	0.000436	4.359298	1.476970	-0.000174
1186	1.1791e+02	-7.1998	-28.992690	0.000233	2.331717	0.790007	-0.000093
1187	1.1801e+02	-7.2367	-29.125916	0.000335	3.345508	1.133489	-0.000134
1188	1.1811e+02	-7.2896	-29.279327	0.000385	3.852403	1.305229	-0.000154
1189	1.1821e+02	-7.3249	-29.420627	0.000355	3.548266	1.202185	-0.000142
1190	1.1831e+02	-7.3570	-29.537704	0.000294	2.939991	0.996096	-0.000118
1191	1.1841e+02	-7.4019	-29.662855	0.000314	3.142749	1.064792	-0.000126
1192	1.1850e+02	-7.4372	-29.796080	0.000335	3.345508	1.133489	-0.000134
1193	1.1860e+02	-7.4837	-29.977751	0.000456	4.562056	1.545666	-0.000183
1194	1.1870e+02	-7.5271	-30.082717	0.000264	2.635854	0.893052	-0.000105
1195	1.1880e+02	-7.5672	-30.215942	0.000335	3.345508	1.133489	-0.000134
1196	1.1890e+02	-7.6057	-30.341094	0.000314	3.142749	1.064792	-0.000126
1197	1.1900e+02	-7.6490	-30.506616	0.000416	4.156540	1.408274	-0.000166
1198	1.1910e+02	-7.6746	-30.664064	0.000395	3.953782	1.339577	-0.000158
1199	1.1920e+02	-7.7180	-30.781141	0.000294	2.939991	0.996096	-0.000118
1200	1.1930e+02	-7.7629	-30.930515	0.000375	3.751024	1.270881	-0.000150
1201	1.1940e+02	-7.8030	-31.067778	0.000345	3.446887	1.167837	-0.000138
1202	1.1950e+02	-7.8447	-31.209078	0.000355	3.548266	1.202185	-0.000142
1203	1.1960e+02	-7.8704	-31.334229	0.000314	3.142749	1.064792	-0.000126
1204	1.1970e+02	-7.9265	-31.471492	0.000345	3.446887	1.167837	-0.000138
1205	1.1980e+02	-7.9650	-31.624903	0.000385	3.852403	1.305229	-0.000154
1206	1.1990e+02	-8.0035	-31.725831	0.000253	2.534475	0.858704	-0.000101
1207	1.2000e+02	-8.0420	-31.883279	0.000395	3.953782	1.339577	-0.000158
1208	1.2010e+02	-8.0789	-32.032654	0.000375	3.751024	1.270881	-0.000150
1209	1.2020e+02	-8.1190	-32.218362	0.000466	4.663435	1.580014	-0.000187
1210	1.2030e+02	-8.1591	-32.286993	0.000172	1.723443	0.583918	-0.000069
1211	1.2039e+02	-8.1992	-32.456553	0.000426	4.257919	1.442622	-0.000170
1212	1.2049e+02	-8.2329	-32.573630	0.000294	2.939991	0.996096	-0.000118
1213	1.2059e+02	-8.2794	-32.686670	0.000284	2.838612	0.961748	-0.000114
1214	1.2069e+02	-8.3131	-32.823932	0.000345	3.446887	1.167837	-0.000138
1215	1.2079e+02	-8.3581	-32.965232	0.000355	3.548266	1.202185	-0.000142
1216	1.2089e+02	-8.4126	-33.086346	0.000304	3.041370	1.030444	-0.000122
1217	1.2099e+02	-8.4351	-33.179200	0.000233	2.331717	0.790007	-0.000093
1218	1.2109e+02	-8.4768	-33.352797	0.000436	4.359298	1.476970	-0.000174
1219	1.2119e+02	-8.5217	-33.518319	0.000416	4.156540	1.408274	-0.000166
1220	1.2129e+02	-8.5666	-33.635396	0.000294	2.939991	0.996096	-0.000118
1221	1.2139e+02	-8.6003	-33.792845	0.000395	3.953782	1.339577	-0.000158
1222	1.2149e+02	-8.6452	-33.934144	0.000355	3.548266	1.202185	-0.000142
1223	1.2159e+02	-8.6757	-34.039110	0.000264	2.635854	0.893052	-0.000105
1224	1.2169e+02	-8.7254	-34.168298	0.000324	3.244129	1.099140	-0.000130
1225	1.2179e+02	-8.7559	-34.301524	0.000335	3.345508	1.133489	-0.000134
1226	1.2189e+02	-8.8056	-34.406489	0.000264	2.635854	0.893052	-0.000105
1227	1.2199e+02	-8.8329	-34.576049	0.000426	4.257919	1.442622	-0.000170
1228	1.2209e+02	-8.8810	-34.697163	0.000304	3.041370	1.030444	-0.000122
1229	1.2219e+02	-8.9147	-34.806166	0.000274	2.737233	0.927400	-0.000110
1230	1.2229e+02	-8.9564	-34.979763	0.000436	4.359298	1.476970	-0.000174
1231	1.2239e+02	-8.9981	-35.104914	0.000314	3.142749	1.064792	-0.000126
1232	1.2248e+02	-9.0415	-35.197768	0.000233	2.331717	0.790007	-0.000093
1233	1.2258e+02	-9.0751	-35.326956	0.000324	3.244129	1.099140	-0.000130
1234	1.2268e+02	-9.1185	-35.456145	0.000324	3.244129	1.099140	-0.000130
1235	1.2278e+02	-9.1554	-35.589370	0.000335	3.345508	1.133489	-0.000134
1236	1.2288e+02	-9.1939	-35.787190	0.000497	4.967572	1.683059	-0.000199
1237	1.2298e+02	-9.2420	-35.839673	0.000132	1.317927	0.446526	-0.000053
1238	1.2308e+02	-9.2757	-35.976935	0.000345	3.446887	1.167837	-0.000138
1239	1.2318e+02	-9.3206	-36.126309	0.000375	3.751024	1.270881	-0.000150
1240	1.2328e+02	-9.3591	-36.215126	0.000223	2.230338	0.755659	-0.000089
1241	1.2338e+02	-9.3960	-36.388723	0.000436	4.359298	1.476970	-0.000174
1242	1.2348e+02	-9.4377	-36.493689	0.000264	2.635854	0.893052	-0.000105
1243	1.2358e+02	-9.4778	-36.651137	0.000395	3.953782	1.339577	-0.000158
1244	1.2368e+02	-9.5227	-36.804548	0.000385	3.852403	1.305229	-0.000154
1245	1.2378e+02	-9.5516	-36.897402	0.000233	2.331717	0.790007	-0.000093
1246	1.2388e+02	-9.5965	-37.054850	0.000395	3.953782	1.339577	-0.000158
1247	1.2398e+02	-9.6350	-37.196150	0.000355	3.548266	1.202185	-0.000142
1248	1.2408e+02	-9.6703	-37.272856	0.000193	1.926201	0.652615	-0.000077
1249	1.2418e+02	-9.7200	-37.393970	0.000304	3.041370	1.030444	-0.000122
1250	1.2428e+02	-9.7505	-37.559492	0.000416	4.156540	1.408274	-0.000166
1251	1.2438e+02	-9.8003	-37.680606	0.000304	3.041370	1.030444	-0.000122
1252	1.2447e+02	-9.8275	-37.813832	0.000335	3.345508	1.133489	-0.000134
1253	1.2457e+02	-9.8724	-37.918797	0.000264	2.635854	0.893052	-0.000105
1254	1.2467e+02	-9.9222	-38.031837	0.000284	2.838612	0.961748	-0.000114
1255	1.2477e+02	-9.9559	-38.197360	0.000416	4.156540	1.408274	-0.000166
1256	1.2487e+02	-9.9896	-38.306362	0.000274	2.737233	0.927400	-0.000110
1257	1.2497e+02	-10.0329	-38.443625	0.000345	3.446887	1.167837	-0.000138
1258	1.2507e+02	-10.0730	-38.576851	0.000335	3.345508	1.133489	-0.000134
1259	1.2517e+02	-10.1211	-38.681816	0.000264	2.635854	0.893052	-0.000105
1260	1.2527e+02	-10.1436	-38.839264	0.000395	3.953782	1.339577	-0.000158
1261	1.2537e+02	-10.1949	-38.980564	0.000355	3.548266	1.202185	-0.000142
1262	1.2547e+02	-10.2318	-39.077455	0.000243	2.433096	0.824355	-0.000097
1263	1.2557e+02	-10.2831	-39.214718	0.000345	3.446887	1.167837	-0.000138
1264	1.2567e+02	-10.3248	-39.331795	0.000294	2.939991	0.996096	-0.000118
1265	1.2577e+02	-10.3489	-39.477132	0.000365	3.649645	1.236533	-0.000146
1266	1.2587e+02	-10.3890	-39.614394	0.000345	3.446887	1.167837	-0.000138
1267	1.2597e+02	-10.4307	-39.771843	0.000395	3.953782	1.339577	-0.000158
1268	1.2607e+02	-10.4740	-39.925254	0.000385	3.852403	1.305229	-0.000154
1269	1.2617e+02	-10.5190	-40.042331	0.000294	2.939991	0.996096	-0.000118
1270	1.2627e+02	-10.5446	-40.135185	0.000233	2.331717	0.790007	-0.000093
1271	1.2636e+02	-10.5895	-40.268410	0.000335	3.345508	1.133489	-0.000134
1272	1.2646e+02	-10.6280	-40.381450	0.000284	2.838612	0.961748	-0.000114
1273	1.2656e+02	-10.6842	-40.494490	0.000284	2.838612	0.961748	-0.000114
1274	1.2666e+02	-10.7195	-40.647901	0.000385	3.852403	1.305229	-0.000154
1275	1.2676e+02	-10.7435	-40.797275	0.000375	3.751024	1.270881	-0.000150
1276	1.2686e+02	-10.8013	-40.914352	0.000294	2.939991	0.996096	-0.000118
1277	1.2696e+02	-10.8238	-41.027392	0.000284	2.838612	0.961748	-0.000114
1278	1.2706e+02	-10.8671	-41.160617	0.000335	3.345508	1.133489	-0.000134
1279	1.2716e+02	-10.9104	-41.301917	0.000355	3.548266	1.202185	-0.000142
1280	1.2726e+02	-10.9489	-41.410920	0.000274	2.737233	0.927400	-0.000110
1281	1.2736e+02	-10.9986	-41.548182	0.000345	3.446887	1.167837	-0.000138
1282	1.2746e+02	-11.0291	-41.669297	0.000304	3.041370	1.030444	-0.000122
1283	1.2756e+02	-11.0644	-41.802522	0.000335	3.345508	1.133489	-0.000134
1284	1.2766e+02	-11.1125	-41.947859	0.000365	3.649645	1.236533	-0.000146
1285	1.2776e+02	-11.1494	-42.081084	0.000335	3.345508	1.133489	-0.000134
1286	1.2786e+02	-11.1895	-42.230458	0.000375	3.751024	1.270881	-0.000150
1287	1.2796e+02	-11.2312	-42.379832	0.000375	3.751024	1.270881	-0.000150
1288	1.2806e+02	-11.2729	-42.452501	0.000182	1.824822	0.618267	-0.000073
1289	1.2816e+02	-11.3066	-42.613986	0.000406	4.055161	1.373926	-0.000162
1290	1.2826e+02	-11.3580	-42.751249	0.000345	3.446887	1.167837	-0.000138
1291	1.2835e+02	-11.3917	-42.864289	0.000284	2.838612	0.961748	-0.000114
1292	1.2845e+02	-11.4286	-42.977328	0.000284	2.838612	0.961748	-0.000114
1293	1.2855e+02	-11.4703	-43.126703	0.000375	3.751024	1.270881	-0.000150
1294	1.2865e+02	-11.5040	-43.255891	0.000324	3.244129	1.099140	-0.000130
1295	1.2875e+02	-11.5537	-43.397191	0.000355	3.548266	1.202185	-0.000142
1296	1.2885e+02	-11.5826	-43.558676	0.000406	4.055161	1.373926	-0.000162
1297	1.2895e+02	-11.6227	-43.667679	0.000274	2.737233	0.927400	-0.000110
1298	1.2905e+02	-11.6644	-43.780719	0.000284	2.838612	0.961748	-0.000114
1299	1.2915e+02	-11.7141	-43.885684	0.000264	2.635854	0.893052	-0.000105
1300	1.2925e+02	-11.7478	-44.035058	0.000375	3.751024	1.270881	-0.000150
1301	1.2935e+02	-11.7927	-44.196543	0.000406	4.055161	1.373926	-0.000162
1302	1.2945e+02	-11.8248	-44.325732	0.000324	3.244129	1.099140	-0.000130
1303	1.2955e+02	-11.8665	-44.414549	0.000223	2.230338	0.755659	-0.000089
1304	1.2965e+02	-11.9050	-44.576034	0.000406	4.055161	1.373926	-0.000162
1305	1.2975e+02	-11.9499	-44.705223	0.000324	3.244129	1.099140	-0.000130
1306	1.2985e+02	-11.9852	-44.810188	0.000264	2.635854	0.893052	-0.000105
1307	1.2995e+02	-12.0285	-44.935339	0.000314	3.142749	1.064792	-0.000126
1308	1.3005e+02	-12.0654	-45.104899	0.000426	4.257919	1.442622	-0.000170
1309	1.3015e+02	-12.1071	-45.169493	0.000162	1.622064	0.549570	-0.000065
1310	1.3025e+02	-12.1505	-45.339053	0.000426	4.257919	1.442622	-0.000170
1311	1.3034e+02	-12.1922	-45.419796	0.000203	2.027580	0.686963	-0.000081
1312	1.3044e+02	-12.2275	-45.573207	0.000385	3.852403	1.305229	-0.000154
1313	1.3054e+02	-12.2660	-45.718544	0.000365	3.649645	1.236533	-0.000146
1314	1.3064e+02	-12.3045	-45.847732	0.000324	3.244129	1.099140	-0.000130
1315	1.3074e+02	-12.3462	-45.952698	0.000264	2.635854	0.893052	-0.000105
1316	1.3084e+02	-12.3863	-46.122257	0.000426	4.257919	1.442622	-0.000170
1317	1.3094e+02	-12.4264	-46.243371	0.000304	3.041370	1.030444	-0.000122
1318	1.3104e+02	-12.4729	-46.352374	0.000274	2.737233	0.927400	-0.000110
1319	1.3114e+02	-12.5082	-46.525971	0.000436	4.359298	1.476970	-0.000174
1320	1.3124e+02	-12.5499	-46.626899	0.000253	2.534475	0.858704	-0.000101
1321	1.3134e+02	-12.5820	-46.796459	0.000426	4.257919	1.442622	-0.000170
1322	1.3144e+02	-12.6237	-46.873164	0.000193	1.926201	0.652615	-0.000077
1323	1.3154e+02	-12.6638	-46.998316	0.000314	3.142749	1.064792	-0.000126
1324	1.3164e+02	-12.6991	-47.159801	0.000406	4.055161	1.373926	-0.000162
1325	1.3174e+02	-12.7408	-47.264767	0.000264	2.635854	0.893052	-0.000105
1326	1.3184e+02	-12.7825	-47.385881	0.000304	3.041370	1.030444	-0.000122
1327	1.3194e+02	-12.8194	-47.539292	0.000385	3.852403	1.305229	-0.000154
1328	1.3204e+02	-12.8692	-47.668480	0.000324	3.244129	1.099140	-0.000130
1329	1.3214e+02	-12.8996	-47.793631	0.000314	3.142749	1.064792	-0.000126
1330	1.3224e+02	-12.9317	-47.894560	0.000253	2.534475	0.858704	-0.000101
1331	1.3234e+02	-12.9798	-48.052008	0.000395	3.953782	1.339577	-0.000158
1332	1.3243e+02	-13.0183	-48.189271	0.000345	3.446887	1.167837	-0.000138
1333	1.3253e+02	-13.0713	-48.265976	0.000193	1.926201	0.652615	-0.000077
1334	1.3263e+02	-13.1034	-48.447647	0.000456	4.562056	1.545666	-0.000183
1335	1.3273e+02	-13.1403	-48.548576	0.000253	2.534475	0.858704	-0.000101
1336	1.3283e+02	-13.1691	-48.669690	0.000304	3.041370	1.030444	-0.000122
1337	1.3293e+02	-13.2237	-48.786767	0.000294	2.939991	0.996096	-0.000118
1338	1.3303e+02	-13.2574	-48.915955	0.000324	3.244129	1.099140	-0.000130
1339	1.3313e+02	-13.3007	-49.065329	0.000375	3.751024	1.270881	-0.000150
1340	1.3323e+02	-13.3344	-49.174332	0.000274	2.737233	0.927400	-0.000110
1341	1.3333e+02	-13.3905	-49.343892	0.000426	4.257919	1.442622	-0.000170
1342	1.3343e+02	-13.4162	-49.448857	0.000264	2.635854	0.893052	-0.000105
1343	1.3353e+02	-13.4627	-49.569971	0.000304	3.041370	1.030444	-0.000122
1344	1.3363e+02	-13.5012	-49.687048	0.000294	2.939991	0.996096	-0.000118
1345	1.3373e+02	-13.5413	-49.804125	0.000294	2.939991	0.996096	-0.000118
1346	1.3383e+02	-13.5750	-49.961573	0.000395	3.953782	1.339577	-0.000158
1347	1.3393e+02	-13.6199	-50.070576	0.000274	2.737233	0.927400	-0.000110
1348	1.3403e+02	-13.6552	-50.167467	0.000243	2.433096	0.824355	-0.000097
1349	1.3413e+02	-13.7001	-50.337027	0.000426	4.257919	1.442622	-0.000170
1350	1.3423e+02	-13.7386	-50.429881	0.000233	2.331717	0.790007	-0.000093
1351	1.3432e+02	-13.7755	-50.534847	0.000264	2.635854	0.893052	-0.000105
1352	1.3442e+02	-13.8205	-50.716518	0.000456	4.562056	1.545666	-0.000183
1353	1.3452e+02	-13.8574	-50.805335	0.000223	2.230338	0.755659	-0.000089
1354	1.3462e+02	-13.8878	-50.922412	0.000294	2.939991	0.996096	-0.000118
1355	1.3472e+02	-13.9360	-51.067749	0.000365	3.649645	1.236533	-0.000146
1356	1.3482e+02	-13.9857	-51.184825	0.000294	2.939991	0.996096	-0.000118
1357	1.3492e+02	-14.0274	-51.273642	0.000223	2.230338	0.755659	-0.000089
1358	1.3502e+02	-14.0547	-51.427054	0.000385	3.852403	1.305229	-0.000154
1359	1.3512e+02	-14.0948	-51.540093	0.000284	2.838612	0.961748	-0.000114
1360	1.3522e+02	-14.1333	-51.697542	0.000395	3.953782	1.339577	-0.000158
1361	1.3532e+02	-14.1750	-51.826730	0.000324	3.244129	1.099140	-0.000130
1362	1.3542e+02	-14.2151	-51.887287	0.000152	1.520685	0.515222	-0.000061
1363	1.3552e+02	-14.2600	-52.032624	0.000365	3.649645	1.236533	-0.000146
1364	1.3562e+02	-14.2969	-52.157775	0.000314	3.142749	1.064792	-0.000126
1365	1.3572e+02	-14.3370	-52.262741	0.000264	2.635854	0.893052	-0.000105
1366	1.3582e+02	-14.3819	-52.408078	0.000365	3.649645	1.236533	-0.000146
1367	1.3592e+02	-14.4301	-52.549377	0.000355	3.548266	1.202185	-0.000142
1368	1.3602e+02	-14.4590	-52.626083	0.000193	1.926201	0.652615	-0.000077
1369	1.3612e+02	-14.5007	-52.727011	0.000253	2.534475	0.858704	-0.000101
1370	1.3622e+02	-14.5295	-52.888497	0.000406	4.055161	1.373926	-0.000162
1371	1.3631e+02	-14.5696	-53.017685	0.000324	3.244129	1.099140	-0.000130
1372	1.3641e+02	-14.6065	-53.090354	0.000182	1.824822	0.618267	-0.000073
1373	1.3651e+02	-14.6499	-53.215505	0.000314	3.142749	1.064792	-0.000126
1374	1.3661e+02	-14.6948	-53.348730	0.000335	3.345508	1.133489	-0.000134
1375	1.3671e+02	-14.7285	-53.469844	0.000304	3.041370	1.030444	-0.000122
1376	1.3681e+02	-14.7734	-53.631330	0.000406	4.055161	1.373926	-0.000162
1377	1.3691e+02	-14.8135	-53.720147	0.000223	2.230338	0.755659	-0.000089
1378	1.3701e+02	-14.8552	-53.873558	0.000385	3.852403	1.305229	-0.000154
1379	1.3711e+02	-14.8953	-53.942189	0.000172	1.723443	0.583918	-0.000069
1380	1.3721e+02	-14.9370	-54.103675	0.000406	4.055161	1.373926	-0.000162
1381	1.3731e+02	-14.9675	-54.200566	0.000243	2.433096	0.824355	-0.000097
1382	1.3741e+02	-15.0108	-54.313606	0.000284	2.838612	0.961748	-0.000114
1383	1.3751e+02	-15.0493	-54.398386	0.000213	2.128959	0.721311	-0.000085
1384	1.3761e+02	-15.0942	-54.555834	0.000395	3.953782	1.339577	-0.000158
1385	1.3771e+02	-15.1327	-54.648688	0.000233	2.331717	0.790007	-0.000093
1386	1.3781e+02	-15.1712	-54.858619	0.000527	5.271709	1.786103	-0.000211
1387	1.3791e+02	-15.2017	-54.923213	0.000162	1.622064	0.549570	-0.000065
1388	1.3801e+02	-15.2498	-55.040290	0.000294	2.939991	0.996096	-0.000118
1389	1.3811e+02	-15.2932	-55.125070	0.000213	2.128959	0.721311	-0.000085
1390	1.3821e+02	-15.3333	-55.230035	0.000264	2.635854	0.893052	-0.000105
1391	1.3831e+02	-15.3734	-55.387484	0.000395	3.953782	1.339577	-0.000158
1392	1.3840e+02	-15.4183	-55.488412	0.000253	2.534475	0.858704	-0.000101
1393	1.3850e+02	-15.4536	-55.617600	0.000324	3.244129	1.099140	-0.000130
1394	1.3860e+02	-15.4921	-55.718529	0.000253	2.534475	0.858704	-0.000101
1395	1.3870e+02	-15.5290	-55.855792	0.000345	3.446887	1.167837	-0.000138
1396	1.3880e+02	-15.5755	-55.989017	0.000335	3.345508	1.133489	-0.000134
1397	1.3890e+02	-15.6204	-56.057648	0.000172	1.723443	0.583918	-0.000069
1398	1.3900e+02	-15.6461	-56.227208	0.000426	4.257919	1.442622	-0.000170
1399	1.3910e+02	-15.6958	-56.328136	0.000253	2.534475	0.858704	-0.000101
1400	1.3920e+02	-15.7231	-56.412916	0.000213	2.128959	0.721311	-0.000085
1401	1.3930e+02	-15.7760	-56.538067	0.000314	3.142749	1.064792	-0.000126
1402	1.3940e+02	-15.8097	-56.671293	0.000335	3.345508	1.133489	-0.000134
1403	1.3950e+02	-15.8530	-56.800481	0.000324	3.244129	1.099140	-0.000130
1404	1.3960e+02	-15.8947	-56.905447	0.000264	2.635854	0.893052	-0.000105
1405	1.3970e+02	-15.9332	-56.998301	0.000233	2.331717	0.790007	-0.000093
1406	1.3980e+02	-15.9701	-57.147675	0.000375	3.751024	1.270881	-0.000150
1407	1.3990e+02	-16.0135	-57.248603	0.000253	2.534475	0.858704	-0.000101
1408	1.4000e+02	-16.0407	-57.365680	0.000294	2.939991	0.996096	-0.000118
1409	1.4010e+02	-16.0840	-57.511017	0.000365	3.649645	1.236533	-0.000146
1410	1.4020e+02	-16.1290	-57.636168	0.000314	3.142749	1.064792	-0.000126
1411	1.4029e+02	-16.1642	-57.729022	0.000233	2.331717	0.790007	-0.000093
1412	1.4039e+02	-16.2092	-57.902619	0.000436	4.359298	1.476970	-0.000174
1413	1.4049e+02	-16.2557	-57.971251	0.000172	1.723443	0.583918	-0.000069
1414	1.4059e+02	-16.2926	-58.084290	0.000284	2.838612	0.961748	-0.000114
1415	1.4069e+02	-16.3295	-58.197330	0.000284	2.838612	0.961748	-0.000114
1416	1.4079e+02	-16.3680	-58.310370	0.000284	2.838612	0.961748	-0.000114
1417	1.4089e+02	-16.4113	-58.387076	0.000193	1.926201	0.652615	-0.000077
1418	1.4099e+02	-16.4354	-58.544524	0.000395	3.953782	1.339577	-0.000158
1419	1.4109e+02	-16.4835	-58.661601	0.000294	2.939991	0.996096	-0.000118
1420	1.4119e+02	-16.5188	-58.750418	0.000223	2.230338	0.755659	-0.000089
1421	1.4129e+02	-16.5605	-58.859420	0.000274	2.737233	0.927400	-0.000110
1422	1.4139e+02	-16.6134	-58.972460	0.000284	2.838612	0.961748	-0.000114
1423	1.4149e+02	-16.6455	-59.125871	0.000385	3.852403	1.305229	-0.000154
1424	1.4159e+02	-16.6824	-59.246986	0.000304	3.041370	1.030444	-0.000122
1425	1.4169e+02	-16.7305	-59.351951	0.000264	2.635854	0.893052	-0.000105
1426	1.4179e+02	-16.7594	-59.456917	0.000264	2.635854	0.893052	-0.000105
1427	1.4189e+02	-16.8059	-59.590142	0.000335	3.345508	1.133489	-0.000134
1428	1.4199e+02	-16.8412	-59.687033	0.000243	2.433096	0.824355	-0.000097
1429	1.4209e+02	-16.8797	-59.840444	0.000385	3.852403	1.305229	-0.000154
1430	1.4219e+02	-16.9279	-59.941373	0.000253	2.534475	0.858704	-0.000101
1431	1.4228e+02	-16.9648	-60.086710	0.000365	3.649645	1.236533	-0.000146
1432	1.4238e+02	-17.0001	-60.167452	0.000203	2.027580	0.686963	-0.000081
1433	1.4248e+02	-17.0434	-60.284529	0.000294	2.939991	0.996096	-0.000118
1434	1.4258e+02	-17.0867	-60.385458	0.000253	2.534475	0.858704	-0.000101
1435	1.4268e+02	-17.1300	-60.538869	0.000385	3.852403	1.305229	-0.000154
1436	1.4278e+02	-17.1573	-60.651909	0.000284	2.838612	0.961748	-0.000114
1437	1.4288e+02	-17.2150	-60.760911	0.000274	2.737233	0.927400	-0.000110
1438	1.4298e+02	-17.2343	-60.914323	0.000385	3.852403	1.305229	-0.000154
1439	1.4308e+02	-17.2856	-61.059659	0.000365	3.649645	1.236533	-0.000146
1440	1.4318e+02	-17.3273	-61.144439	0.000213	2.128959	0.721311	-0.000085
1441	1.4328e+02	-17.3690	-61.253442	0.000274	2.737233	0.927400	-0.000110
1442	1.4338e+02	-17.4011	-61.418965	0.000416	4.156540	1.408274	-0.000166
1443	1.4348e+02	-17.4412	-61.519893	0.000253	2.534475	0.858704	-0.000101
1444	1.4358e+02	-17.4845	-61.636970	0.000294	2.939991	0.996096	-0.000118
1445	1.4368e+02	-17.5295	-61.741935	0.000264	2.635854	0.893052	-0.000105
1446	1.4378e+02	-17.5599	-61.863049	0.000304	3.041370	1.030444	-0.000122
1447	1.4388e+02	-17.5904	-62.024535	0.000406	4.055161	1.373926	-0.000162
1448	1.4398e+02	-17.6450	-62.149686	0.000314	3.142749	1.064792	-0.000126
1449	1.4408e+02	-17.6867	-62.246577	0.000243	2.433096	0.824355	-0.000097
1450	1.4418e+02	-17.7204	-62.351543	0.000264	2.635854	0.893052	-0.000105
1451	1.4428e+02	-17.7621	-62.504954	0.000385	3.852403	1.305229	-0.000154
1452	1.4437e+02	-17.7925	-62.617994	0.000284	2.838612	0.961748	-0.000114
1453	1.4447e+02	-17.8359	-62.739108	0.000304	3.041370	1.030444	-0.000122
1454	1.4457e+02	-17.8776	-62.823888	0.000213	2.128959	0.721311	-0.000085
1455	1.4467e+02	-17.9177	-62.973262	0.000375	3.751024	1.270881	-0.000150
1456	1.4477e+02	-17.9546	-63.106487	0.000335	3.345508	1.133489	-0.000134
1457	1.4487e+02	-17.9947	-63.219527	0.000284	2.838612	0.961748	-0.000114
1458	1.4497e+02	-18.0444	-63.332567	0.000284	2.838612	0.961748	-0.000114
1459	1.4507e+02	-18.0797	-63.477904	0.000365	3.649645	1.236533	-0.000146
1460	1.4517e+02	-18.1134	-63.582869	0.000264	2.635854	0.893052	-0.000105
1461	1.4527e+02	-18.1535	-63.776652	0.000487	4.866193	1.648711	-0.000195
1462	1.4537e+02	-18.1952	-63.857395	0.000203	2.027580	0.686963	-0.000081
1463	1.4547e+02	-18.2369	-63.978509	0.000304	3.041370	1.030444	-0.000122
1464	1.4557e+02	-18.2834	-64.083474	0.000264	2.635854	0.893052	-0.000105
1465	1.4567e+02	-18.3219	-64.220737	0.000345	3.446887	1.167837	-0.000138
1466	1.4577e+02	-18.3556	-64.349925	0.000324	3.244129	1.099140	-0.000130
1467	1.4587e+02	-18.3989	-64.491225	0.000355	3.548266	1.202185	-0.000142
1468	1.4597e+02	-18.4391	-64.576005	0.000213	2.128959	0.721311	-0.000085
1469	1.4607e+02	-18.4872	-64.709230	0.000335	3.345508	1.133489	-0.000134
1470	1.4617e+02	-18.5161	-64.830344	0.000304	3.041370	1.030444	-0.000122
1471	1.4626e+02	-18.5578	-64.963570	0.000335	3.345508	1.133489	-0.000134
1472	1.4636e+02	-18.5995	-65.133129	0.000426	4.257919	1.442622	-0.000170
1473	1.4646e+02	-18.6412	-65.238095	0.000264	2.635854	0.893052	-0.000105
1474	1.4656e+02	-18.6765	-65.375358	0.000345	3.446887	1.167837	-0.000138
1475	1.4666e+02	-18.7214	-65.476286	0.000253	2.534475	0.858704	-0.000101
1476	1.4676e+02	-18.7567	-65.645846	0.000426	4.257919	1.442622	-0.000170
1477	1.4686e+02	-18.8032	-65.726588	0.000203	2.027580	0.686963	-0.000081
1478	1.4696e+02	-18.8449	-65.936519	0.000527	5.271709	1.786103	-0.000211
1479	1.4706e+02	-18.8786	-65.968817	0.000081	0.811032	0.274785	-0.000032
1480	1.4716e+02	-18.9123	-66.138376	0.000426	4.257919	1.442622	-0.000170
1481	1.4726e+02	-18.9540	-66.283713	0.000365	3.649645	1.236533	-0.000146
1482	1.4736e+02	-18.9973	-66.416939	0.000335	3.345508	1.133489	-0.000134
1483	1.4746e+02	-19.0406	-66.542090	0.000314	3.142749	1.064792	-0.000126
1484	1.4756e+02	-19.0759	-66.731835	0.000476	4.764814	1.614363	-0.000191
1485	1.4766e+02	-19.1128	-66.824689	0.000233	2.331717	0.790007	-0.000093
1486	1.4776e+02	-19.1545	-66.949841	0.000314	3.142749	1.064792	-0.000126
1487	1.4786e+02	-19.1882	-67.070955	0.000304	3.041370	1.030444	-0.000122
1488	1.4796e+02	-19.2348	-67.188032	0.000294	2.939991	0.996096	-0.000118
1489	1.4806e+02	-19.2877	-67.337406	0.000375	3.751024	1.270881	-0.000150
1490	1.4816e+02	-19.3150	-67.486780	0.000375	3.751024	1.270881	-0.000150
1491	1.4825e+02	-19.3519	-67.595782	0.000274	2.737233	0.927400	-0.000110
1492	1.4835e+02	-19.3952	-67.720933	0.000314	3.142749	1.064792	-0.000126
1493	1.4845e+02	-19.4433	-67.866270	0.000365	3.649645	1.236533	-0.000146
1494	1.4855e+02	-19.4754	-67.991422	0.000314	3.142749	1.064792	-0.000126
1495	1.4865e+02	-19.5171	-68.128684	0.000345	3.446887	1.167837	-0.000138
1496	1.4875e+02	-19.5524	-68.265947	0.000345	3.446887	1.167837	-0.000138
1497	1.4885e+02	-19.6021	-68.439544	0.000436	4.359298	1.476970	-0.000174
1498	1.4895e+02	-19.6278	-68.568732	0.000324	3.244129	1.099140	-0.000130
1499	1.4905e+02	-19.6775	-68.697920	0.000324	3.244129	1.099140	-0.000130
1500	1.4915e+02	-19.7128	-68.810960	0.000284	2.838612	0.961748	-0.000114
1501	1.4925e+02	-19.7529	-69.004743	0.000487	4.866193	1.648711	-0.000195
1502	1.4935e+02	-19.7898	-69.137968	0.000335	3.345508	1.133489	-0.000134
1503	1.4945e+02	-19.8299	-69.259082	0.000304	3.041370	1.030444	-0.000122
1504	1.4955e+02	-19.8668	-69.408456	0.000375	3.751024	1.270881	-0.000150
1505	1.4965e+02	-19.9117	-69.525533	0.000294	2.939991	0.996096	-0.000118
1506	1.4975e+02	-19.9599	-69.699130	0.000436	4.359298	1.476970	-0.000174
1507	1.4985e+02	-19.9919	-69.828318	0.000324	3.244129	1.099140	-0.000130
1508	1.4995e+02	-19.9534	-69.787947	0.000101	1.013790	0.343481	0.000041
1509	1.5005e+02	-19.9198	-69.759687	0.000071	0.709653	0.240437	0.000028
1510	1.5015e+02	-19.8748	-69.662796	0.000243	2.433096	0.824355	0.000097
1511	1.5025e+02	-19.8283	-69.666833	-0.000010	-0.101379	-0.034348	-0.000004
1512	1.5034e+02	-19.7882	-69.590127	0.000193	1.926201	0.652615	0.000077
1513	1.5044e+02	-19.7561	-69.521496	0.000172	1.723443	0.583918	0.000069
1514	1.5054e+02	-19.7080	-69.444790	0.000193	1.926201	0.652615	0.000077
1515	1.5064e+02	-19.6647	-69.408456	0.000091	0.912411	0.309133	0.000037
1516	1.5074e+02	-19.6310	-69.295416	0.000284	2.838612	0.961748	0.000114
1517	1.5084e+02	-19.5989	-69.246971	0.000122	1.216548	0.412178	0.000049
1518	1.5094e+02	-19.5636	-69.178339	0.000172	1.723443	0.583918	0.000069
1519	1.5104e+02	-19.5203	-69.109708	0.000172	1.723443	0.583918	0.000069
1520	1.5114e+02	-19.4690	-69.061263	0.000122	1.216548	0.412178	0.000049
1521	1.5124e+02	-19.4321	-68.972446	0.000223	2.230338	0.755659	0.000089
1522	1.5134e+02	-19.3839	-68.903814	0.000172	1.723443	0.583918	0.000069
1523	1.5144e+02	-19.3599	-68.823071	0.000203	2.027580	0.686963	0.000081
1524	1.5154e+02	-19.3118	-68.722143	0.000253	2.534475	0.858704	0.000101
1525	1.5164e+02	-19.2716	-68.689846	0.000081	0.811032	0.274785	0.000032
1526	1.5174e+02	-19.2460	-68.601029	0.000223	2.230338	0.755659	0.000089
1527	1.5184e+02	-19.1914	-68.504138	0.000243	2.433096	0.824355	0.000097
1528	1.5194e+02	-19.1513	-68.427432	0.000193	1.926201	0.652615	0.000077
1529	1.5204e+02	-19.1176	-68.330541	0.000243	2.433096	0.824355	0.000097
1530	1.5214e+02	-19.0807	-68.233650	0.000243	2.433096	0.824355	0.000097
1531	1.5224e+02	-19.0342	-68.197315	0.000091	0.912411	0.309133	0.000037
1532	1.5233e+02	-18.9941	-68.128684	0.000172	1.723443	0.583918	0.000069
1533	1.5243e+02	-18.9460	-68.035830	0.000233	2.331717	0.790007	0.000093
1534	1.5253e+02	-18.9203	-67.947013	0.000223	2.230338	0.755659	0.000089
1535	1.5263e+02	-18.8754	-67.858196	0.000223	2.230338	0.755659	0.000089
1536	1.5273e+02	-18.8321	-67.753231	0.000264	2.635854	0.893052	0.000105
1537	1.5283e+02	-18.7936	-67.684599	0.000172	1.723443	0.583918	0.000069
1538	1.5293e+02	-18.7583	-67.563485	0.000304	3.041370	1.030444	0.000122
1539	1.5303e+02	-18.7182	-67.511002	0.000132	1.317927	0.446526	0.000053
1540	1.5313e+02	-18.6829	-67.434297	0.000193	1.926201	0.652615	0.000077
1541	1.5323e+02	-18.6380	-67.313183	0.000304	3.041370	1.030444	0.000122
1542	1.5333e+02	-18.5882	-67.244551	0.000172	1.723443	0.583918	0.000069
1543	1.5343e+02	-18.5594	-67.183994	0.000152	1.520685	0.515222	0.000061
1544	1.5353e+02	-18.5193	-67.079029	0.000264	2.635854	0.893052	0.000105
1545	1.5363e+02	-18.4759	-66.986175	0.000233	2.331717	0.790007	0.000093
1546	1.5373e+02	-18.4423	-66.881209	0.000264	2.635854	0.893052	0.000105
1547	1.5383e+02	-18.4054	-66.804504	0.000193	1.926201	0.652615	0.000077
1548	1.5393e+02	-18.3604	-66.699538	0.000264	2.635854	0.893052	0.000105
1549	1.5403e+02	-18.3268	-66.626870	0.000182	1.824822	0.618267	0.000073
1550	1.5413e+02	-18.2770	-66.546127	0.000203	2.027580	0.686963	0.000081
1551	1.5422e+02	-18.2465	-66.461347	0.000213	2.128959	0.721311	0.000085
1552	1.5432e+02	-18.1984	-66.340233	0.000304	3.041370	1.030444	0.000122
1553	1.5442e+02	-18.1551	-66.251416	0.000223	2.230338	0.755659	0.000089
1554	1.5452e+02	-18.1262	-66.138376	0.000284	2.838612	0.961748	0.000114
1555	1.5462e+02	-18.0845	-66.077819	0.000152	1.520685	0.515222	0.000061
1556	1.5472e+02	-18.0444	-65.948631	0.000324	3.244129	1.099140	0.000130
1557	1.5482e+02	-18.0011	-65.880000	0.000172	1.723443	0.583918	0.000069
1558	1.5492e+02	-17.9626	-65.787145	0.000233	2.331717	0.790007	0.000093
1559	1.5502e+02	-17.9209	-65.686217	0.000253	2.534475	0.858704	0.000101
1560	1.5512e+02	-17.8792	-65.601437	0.000213	2.128959	0.721311	0.000085
1561	1.5522e+02	-17.8439	-65.484360	0.000294	2.939991	0.996096	0.000118
1562	1.5532e+02	-17.8022	-65.399580	0.000213	2.128959	0.721311	0.000085
1563	1.5542e+02	-17.7573	-65.282503	0.000294	2.939991	0.996096	0.000118
1564	1.5552e+02	-17.7139	-65.205798	0.000193	1.926201	0.652615	0.000077
1565	1.5562e+02	-17.6802	-65.088721	0.000294	2.939991	0.996096	0.000118
1566	1.5572e+02	-17.6417	-64.955495	0.000335	3.345508	1.133489	0.000134
1567	1.5582e+02	-17.6000	-64.915124	0.000101	1.013790	0.343481	0.000041
1568	1.5592e+02	-17.5567	-64.773824	0.000355	3.548266	1.202185	0.000142
1569	1.5602e+02	-17.5278	-64.705193	0.000172	1.723443	0.583918	0.000069
1570	1.5612e+02	-17.4797	-64.551782	0.000385	3.852403	1.305229	0.000154
1571	1.5622e+02	-17.4396	-64.446816	0.000264	2.635854	0.893052	0.000105
1572	1.5631e+02	-17.3979	-64.406445	0.000101	1.013790	0.343481	0.000041
1573	1.5641e+02	-17.3578	-64.277257	0.000324	3.244129	1.099140	0.000130
1574	1.5651e+02	-17.3273	-64.184403	0.000233	2.331717	0.790007	0.000093
1575	1.5661e+02	-17.2952	-64.099623	0.000213	2.128959	0.721311	0.000085
1576	1.5671e+02	-17.2359	-63.962360	0.000345	3.446887	1.167837	0.000138
1577	1.5681e+02	-17.2038	-63.917952	0.000112	1.115169	0.377830	0.000045
1578	1.5691e+02	-17.1733	-63.752429	0.000416	4.156540	1.408274	0.000166
1579	1.5701e+02	-17.1268	-63.671686	0.000203	2.027580	0.686963	0.000081
1580	1.5711e+02	-17.0931	-63.586906	0.000213	2.128959	0.721311	0.000085
1581	1.5721e+02	-17.0402	-63.481941	0.000264	2.635854	0.893052	0.000105
1582	1.5731e+02	-17.0065	-63.381013	0.000253	2.534475	0.858704	0.000101
1583	1.5741e+02	-16.9648	-63.292196	0.000223	2.230338	0.755659	0.000089
1584	1.5751e+02	-16.9263	-63.195304	0.000243	2.433096	0.824355	0.000097
1585	1.5761e+02	-16.8942	-63.090339	0.000264	2.635854	0.893052	0.000105
1586	1.5771e+02	-16.8460	-62.977299	0.000284	2.838612	0.961748	0.000114
1587	1.5781e+02	-16.8124	-62.848111	0.000324	3.244129	1.099140	0.000130
1588	1.5791e+02	-16.7626	-62.795628	0.000132	1.317927	0.446526	0.000053
1589	1.5801e+02	-16.7273	-62.638180	0.000395	3.953782	1.339577	0.000158
1590	1.5811e+02	-16.6808	-62.581660	0.000142	1.419306	0.480874	0.000057
1591	1.5821e+02	-16.6439	-62.480731	0.000253	2.534475	0.858704	0.000101
1592	1.5830e+02	-16.6102	-62.391914	0.000223	2.230338	0.755659	0.000089
1593	1.5840e+02	-16.5621	-62.242540	0.000375	3.751024	1.270881	0.000150
1594	1.5850e+02	-16.5252	-62.137575	0.000264	2.635854	0.893052	0.000105
1595	1.5860e+02	-16.4803	-62.040683	0.000243	2.433096	0.824355	0.000097
1596	1.5870e+02	-16.4546	-61.935718	0.000264	2.635854	0.893052	0.000105
1597	1.5880e+02	-16.4065	-61.830752	0.000264	2.635854	0.893052	0.000105
1598	1.5890e+02	-16.3632	-61.737898	0.000233	2.331717	0.790007	0.000093
1599	1.5900e+02	-16.3295	-61.649081	0.000223	2.230338	0.755659	0.000089
1600	1.5910e+02	-16.2878	-61.552190	0.000243	2.433096	0.824355	0.000097
1601	1.5920e+02	-16.2525	-61.431076	0.000304	3.041370	1.030444	0.000122
1602	1.5930e+02	-16.2028	-61.354370	0.000193	1.926201	0.652615	0.000077
1603	1.5940e+02	-16.1642	-61.204996	0.000375	3.751024	1.270881	0.000150
1604	1.5950e+02	-16.1225	-61.164625	0.000101	1.013790	0.343481	0.000041
1605	1.5960e+02	-16.0905	-61.019288	0.000365	3.649645	1.236533	0.000146
1606	1.5970e+02	-16.0536	-60.882025	0.000345	3.446887	1.167837	0.000138
1607	1.5980e+02	-16.0135	-60.825506	0.000142	1.419306	0.480874	0.000057
1608	1.5990e+02	-15.9733	-60.720540	0.000264	2.635854	0.893052	0.000105
1609	1.6000e+02	-15.9316	-60.611537	0.000274	2.737233	0.927400	0.000110
1610	1.6010e+02	-15.8867	-60.514646	0.000243	2.433096	0.824355	0.000097
1611	1.6019e+02	-15.8466	-60.429866	0.000213	2.128959	0.721311	0.000085
1612	1.6029e+02	-15.8129	-60.324901	0.000264	2.635854	0.893052	0.000105
1613	1.6039e+02	-15.7632	-60.195712	0.000324	3.244129	1.099140	0.000130
1614	1.6049e+02	-15.7231	-60.106895	0.000223	2.230338	0.755659	0.000089
1615	1.6059e+02	-15.6942	-59.989818	0.000294	2.939991	0.996096	0.000118
1616	1.6069e+02	-15.6509	-59.929261	0.000152	1.520685	0.515222	0.000061
1617	1.6079e+02	-15.6124	-59.812185	0.000294	2.939991	0.996096	0.000118
1618	1.6089e+02	-15.5691	-59.682996	0.000324	3.244129	1.099140	0.000130
1619	1.6099e+02	-15.5274	-59.614365	0.000172	1.723443	0.583918	0.000069
1620	1.6109e+02	-15.4985	-59.493251	0.000304	3.041370	1.030444	0.000122
1621	1.6119e+02	-15.4488	-59.428657	0.000162	1.622064	0.549570	0.000065
1622	1.6129e+02	-15.4167	-59.275245	0.000385	3.852403	1.305229	0.000154
1623	1.6139e+02	-15.3766	-59.174317	0.000253	2.534475	0.858704	0.000101
1624	1.6149e+02	-15.3300	-59.065314	0.000274	2.737233	0.927400	0.000110
1625	1.6159e+02	-15.2996	-58.968423	0.000243	2.433096	0.824355	0.000097
1626	1.6169e+02	-15.2482	-58.863458	0.000264	2.635854	0.893052	0.000105
1627	1.6179e+02	-15.2210	-58.770604	0.000233	2.331717	0.790007	0.000093
1628	1.6189e+02	-15.1696	-58.649489	0.000304	3.041370	1.030444	0.000122
1629	1.6199e+02	-15.1359	-58.584895	0.000162	1.622064	0.549570	0.000065
1630	1.6209e+02	-15.0894	-58.443596	0.000355	3.548266	1.202185	0.000142
1631	1.6219e+02	-15.0509	-58.366890	0.000193	1.926201	0.652615	0.000077
1632	1.6228e+02	-15.0172	-58.225590	0.000355	3.548266	1.202185	0.000142
1633	1.6238e+02	-14.9755	-58.144847	0.000203	2.027580	0.686963	0.000081
1634	1.6248e+02	-14.9290	-58.039882	0.000264	2.635854	0.893052	0.000105
1635	1.6258e+02	-14.8857	-57.886471	0.000385	3.852403	1.305229	0.000154
1636	1.6268e+02	-14.8568	-57.825914	0.000152	1.520685	0.515222	0.000061
1637	1.6278e+02	-14.8167	-57.724985	0.000253	2.534475	0.858704	0.000101
1638	1.6288e+02	-14.7702	-57.599834	0.000314	3.142749	1.064792	0.000126
1639	1.6298e+02	-14.7365	-57.511017	0.000223	2.230338	0.755659	0.000089
1640	1.6308e+02	-14.6964	-57.426237	0.000213	2.128959	0.721311	0.000085
1641	1.6318e+02	-14.6531	-57.305123	0.000304	3.041370	1.030444	0.000122
1642	1.6328e+02	-14.6194	-57.192083	0.000284	2.838612	0.961748	0.000114
1643	1.6338e+02	-14.5664	-57.095192	0.000243	2.433096	0.824355	0.000097
1644	1.6348e+02	-14.5360	-56.986190	0.000274	2.737233	0.927400	0.000110
1645	1.6358e+02	-14.4958	-56.865075	0.000304	3.041370	1.030444	0.000122
1646	1.6368e+02	-14.4541	-56.800481	0.000162	1.622064	0.549570	0.000065
1647	1.6378e+02	-14.4156	-56.659182	0.000355	3.548266	1.202185	0.000142
1648	1.6388e+02	-14.3691	-56.582476	0.000193	1.926201	0.652615	0.000077
1649	1.6398e+02	-14.3402	-56.501733	0.000203	2.027580	0.686963	0.000081
1650	1.6408e+02	-14.2969	-56.368508	0.000335	3.345508	1.133489	0.000134
1651	1.6418e+02	-14.2536	-56.263542	0.000264	2.635854	0.893052	0.000105
1652	1.6427e+02	-14.2103	-56.126280	0.000345	3.446887	1.167837	0.000138
1653	1.6437e+02	-14.1798	-56.069760	0.000142	1.419306	0.480874	0.000057
1654	1.6447e+02	-14.1365	-55.944608	0.000314	3.142749	1.064792	0.000126
1655	1.6457e+02	-14.0932	-55.847717	0.000243	2.433096	0.824355	0.000097
1656	1.6467e+02	-14.0547	-55.746789	0.000253	2.534475	0.858704	0.000101
1657	1.6477e+02	-14.0162	-55.581266	0.000416	4.156540	1.408274	0.000166
1658	1.6487e+02	-13.9809	-55.496486	0.000213	2.128959	0.721311	0.000085
1659	1.6497e+02	-13.9279	-55.427855	0.000172	1.723443	0.583918	0.000069
1660	1.6507e+02	-13.8959	-55.282518	0.000365	3.649645	1.236533	0.000146
1661	1.6517e+02	-13.8558	-55.177553	0.000264	2.635854	0.893052	0.000105
1662	1.6527e+02	-13.8189	-55.088736	0.000223	2.230338	0.755659	0.000089
1663	1.6537e+02	-13.7788	-54.991844	0.000243	2.433096	0.824355	0.000097
1664	1.6547e+02	-13.7306	-54.850545	0.000355	3.548266	1.202185	0.000142
1665	1.6557e+02	-13.6985	-54.785951	0.000162	1.622064	0.549570	0.000065
1666	1.6567e+02	-13.6584	-54.680985	0.000264	2.635854	0.893052	0.000105
1667	1.6577e+02	-13.6247	-54.535648	0.000365	3.649645	1.236533	0.000146
1668	1.6587e+02	-13.5750	-54.479128	0.000142	1.419306	0.480874	0.000057
1669	1.6597e+02	-13.5397	-54.309569	0.000426	4.257919	1.442622	0.000170
1670	1.6607e+02	-13.4980	-54.224789	0.000213	2.128959	0.721311	0.000085
1671	1.6616e+02	-13.4627	-54.119823	0.000264	2.635854	0.893052	0.000105
1672	1.6626e+02	-13.4210	-54.031006	0.000223	2.230338	0.755659	0.000089
1673	1.6636e+02	-13.3761	-53.922003	0.000274	2.737233	0.927400	0.000110
1674	1.6646e+02	-13.3440	-53.776667	0.000365	3.649645	1.236533	0.000146
1675	1.6656e+02	-13.2959	-53.708035	0.000172	1.723443	0.583918	0.000069
1676	1.6666e+02	-13.2558	-53.611144	0.000243	2.433096	0.824355	0.000097
1677	1.6676e+02	-13.2237	-53.461770	0.000375	3.751024	1.270881	0.000150
1678	1.6686e+02	-13.1932	-53.348730	0.000284	2.838612	0.961748	0.000114
1679	1.6696e+02	-13.1355	-53.272025	0.000193	1.926201	0.652615	0.000077
1680	1.6706e+02	-13.1066	-53.098428	0.000436	4.359298	1.476970	0.000174
1681	1.6716e+02	-13.0585	-53.049982	0.000122	1.216548	0.412178	0.000049
1682	1.6726e+02	-13.0264	-52.912720	0.000345	3.446887	1.167837	0.000138
1683	1.6736e+02	-12.9782	-52.811791	0.000253	2.534475	0.858704	0.000101
1684	1.6746e+02	-12.9413	-52.694714	0.000294	2.939991	0.996096	0.000118
1685	1.6756e+02	-12.8980	-52.605897	0.000223	2.230338	0.755659	0.000089
1686	1.6766e+02	-12.8643	-52.464597	0.000355	3.548266	1.202185	0.000142
1687	1.6776e+02	-12.8323	-52.379818	0.000213	2.128959	0.721311	0.000085
1688	1.6786e+02	-12.7825	-52.250629	0.000324	3.244129	1.099140	0.000130
1689	1.6796e+02	-12.7456	-52.145664	0.000264	2.635854	0.893052	0.000105
1690	1.6806e+02	-12.7055	-52.020513	0.000314	3.142749	1.064792	0.000126
1691	1.6816e+02	-12.6638	-51.935733	0.000213	2.128959	0.721311	0.000085
1692	1.6825e+02	-12.6221	-51.818656	0.000294	2.939991	0.996096	0.000118
1693	1.6835e+02	-12.5900	-51.685430	0.000335	3.345508	1.133489	0.000134
1694	1.6845e+02	-12.5515	-51.556242	0.000324	3.244129	1.099140	0.000130
1695	1.6855e+02	-12.5050	-51.439165	0.000294	2.939991	0.996096	0.000118
1696	1.6865e+02	-12.4697	-51.350348	0.000223	2.230338	0.755659	0.000089
1697	1.6875e+02	-12.4328	-51.225197	0.000314	3.142749	1.064792	0.000126
1698	1.6885e+02	-12.3911	-51.112157	0.000284	2.838612	0.961748	0.000114
1699	1.6895e+02	-12.3494	-50.999117	0.000284	2.838612	0.961748	0.000114
1700	1.6905e+02	-12.3013	-50.861855	0.000345	3.446887	1.167837	0.000138
1701	1.6915e+02	-12.2644	-50.777075	0.000213	2.128959	0.721311	0.000085
1702	1.6925e+02	-12.2210	-50.619626	0.000395	3.953782	1.339577	0.000158
1703	1.6935e+02	-12.1858	-50.526772	0.000233	2.331717	0.790007	0.000093
1704	1.6945e+02	-12.1440	-50.405658	0.000304	3.041370	1.030444	0.000122
1705	1.6955e+02	-12.1104	-50.252247	0.000385	3.852403	1.305229	0.000154
1706	1.6965e+02	-12.0751	-50.163430	0.000223	2.230338	0.755659	0.000089
1707	1.6975e+02	-12.0253	-50.082687	0.000203	2.027580	0.686963	0.000081
1708	1.6985e+02	-11.9852	-49.909091	0.000436	4.359298	1.476970	0.000174
1709	1.6995e+02	-11.9419	-49.800088	0.000274	2.737233	0.927400	0.000110
1710	1.7005e+02	-11.9050	-49.707234	0.000233	2.331717	0.790007	0.000093
1711	1.7015e+02	-11.8649	-49.561897	0.000365	3.649645	1.236533	0.000146
1712	1.7024e+02	-11.8312	-49.436746	0.000314	3.142749	1.064792	0.000126
1713	1.7034e+02	-11.7831	-49.335817	0.000253	2.534475	0.858704	0.000101
1714	1.7044e+02	-11.7542	-49.190480	0.000365	3.649645	1.236533	0.000146
1715	1.7054e+02	-11.7013	-49.065329	0.000314	3.142749	1.064792	0.000126
1716	1.7064e+02	-11.6596	-48.964401	0.000253	2.534475	0.858704	0.000101
1717	1.7074e+02	-11.6259	-48.847324	0.000294	2.939991	0.996096	0.000118
1718	1.7084e+02	-11.5906	-48.738321	0.000274	2.737233	0.927400	0.000110
1719	1.7094e+02	-11.5441	-48.584910	0.000385	3.852403	1.305229	0.000154
1720	1.7104e+02	-11.5072	-48.528390	0.000142	1.419306	0.480874	0.000057
1721	1.7114e+02	-11.4735	-48.411313	0.000294	2.939991	0.996096	0.000118
1722	1.7124e+02	-11.4221	-48.282125	0.000324	3.244129	1.099140	0.000130
1723	1.7134e+02	-11.3836	-48.128714	0.000385	3.852403	1.305229	0.000154
1724	1.7144e+02	-11.3532	-48.027785	0.000253	2.534475	0.858704	0.000101
1725	1.7154e+02	-11.3034	-47.886486	0.000355	3.548266	1.202185	0.000142
1726	1.7164e+02	-11.2745	-47.741149	0.000365	3.649645	1.236533	0.000146
1727	1.7174e+02	-11.2264	-47.648295	0.000233	2.331717	0.790007	0.000093
1728	1.7184e+02	-11.1879	-47.547366	0.000253	2.534475	0.858704	0.000101
1729	1.7194e+02	-11.1590	-47.406066	0.000355	3.548266	1.202185	0.000142
1730	1.7204e+02	-11.1077	-47.301101	0.000264	2.635854	0.893052	0.000105
1731	1.7213e+02	-11.0644	-47.163838	0.000345	3.446887	1.167837	0.000138
1732	1.7223e+02	-11.0211	-47.026576	0.000345	3.446887	1.167837	0.000138
1733	1.7233e+02	-10.9874	-46.913536	0.000284	2.838612	0.961748	0.000114
1734	1.7243e+02	-10.9473	-46.764162	0.000375	3.751024	1.270881	0.000150
1735	1.7253e+02	-10.9024	-46.691493	0.000182	1.824822	0.618267	0.000073
1736	1.7263e+02	-10.8671	-46.517897	0.000436	4.359298	1.476970	0.000174
1737	1.7273e+02	-10.8270	-46.404857	0.000284	2.838612	0.961748	0.000114
1738	1.7283e+02	-10.7933	-46.295854	0.000274	2.737233	0.927400	0.000110
1739	1.7293e+02	-10.7387	-46.178777	0.000294	2.939991	0.996096	0.000118
1740	1.7303e+02	-10.7147	-46.037477	0.000355	3.548266	1.202185	0.000142
1741	1.7313e+02	-10.6714	-45.912326	0.000314	3.142749	1.064792	0.000126
1742	1.7323e+02	-10.6313	-45.791212	0.000304	3.041370	1.030444	0.000122
1743	1.7333e+02	-10.5847	-45.657987	0.000335	3.345508	1.133489	0.000134
1744	1.7343e+02	-10.5591	-45.561095	0.000243	2.433096	0.824355	0.000097
1745	1.7353e+02	-10.5029	-45.411721	0.000375	3.751024	1.270881	0.000150
1746	1.7363e+02	-10.4628	-45.318867	0.000233	2.331717	0.790007	0.000093
1747	1.7373e+02	-10.4307	-45.177567	0.000355	3.548266	1.202185	0.000142
1748	1.7383e+02	-10.4018	-45.020119	0.000395	3.953782	1.339577	0.000158
1749	1.7393e+02	-10.3553	-44.939376	0.000203	2.027580	0.686963	0.000081
1750	1.7403e+02	-10.3136	-44.798077	0.000355	3.548266	1.202185	0.000142
1751	1.7413e+02	-10.2719	-44.672926	0.000314	3.142749	1.064792	0.000126
1752	1.7422e+02	-10.2302	-44.571997	0.000253	2.534475	0.858704	0.000101
1753	1.7432e+02	-10.1933	-44.426660	0.000365	3.649645	1.236533	0.000146
1754	1.7442e+02	-10.1532	-44.293435	0.000335	3.345508	1.133489	0.000134
1755	1.7452e+02	-10.1115	-44.200581	0.000233	2.331717	0.790007	0.000093
1756	1.7462e+02	-10.0682	-44.022947	0.000446	4.460677	1.511318	0.000179
1757	1.7472e+02	-10.0313	-43.905870	0.000294	2.939991	0.996096	0.000118
1758	1.7482e+02	-9.9944	-43.780719	0.000314	3.142749	1.064792	0.000126
1759	1.7492e+02	-9.9559	-43.663642	0.000294	2.939991	0.996096	0.000118
1760	1.7502e+02	-9.9126	-43.562713	0.000253	2.534475	0.858704	0.000101
1761	1.7512e+02	-9.8741	-43.409302	0.000385	3.852403	1.305229	0.000154
1762	1.7522e+02	-9.8323	-43.288188	0.000304	3.041370	1.030444	0.000122
1763	1.7532e+02	-9.7890	-43.138814	0.000375	3.751024	1.270881	0.000150
1764	1.7542e+02	-9.7585	-43.041923	0.000243	2.433096	0.824355	0.000097
1765	1.7552e+02	-9.7136	-42.884474	0.000395	3.953782	1.339577	0.000158
1766	1.7562e+02	-9.6848	-42.755286	0.000324	3.244129	1.099140	0.000130
1767	1.7572e+02	-9.6286	-42.658395	0.000243	2.433096	0.824355	0.000097
1768	1.7582e+02	-9.5933	-42.549392	0.000274	2.737233	0.927400	0.000110
1769	1.7592e+02	-9.5516	-42.424241	0.000314	3.142749	1.064792	0.000126
1770	1.7602e+02	-9.5163	-42.291015	0.000335	3.345508	1.133489	0.000134
1771	1.7612e+02	-9.4730	-42.145679	0.000365	3.649645	1.236533	0.000146
1772	1.7621e+02	-9.4313	-42.028602	0.000294	2.939991	0.996096	0.000118
1773	1.7631e+02	-9.4008	-41.903450	0.000314	3.142749	1.064792	0.000126
1774	1.7641e+02	-9.3703	-41.770225	0.000335	3.345508	1.133489	0.000134
1775	1.7651e+02	-9.3142	-41.645074	0.000314	3.142749	1.064792	0.000126
1776	1.7661e+02	-9.2805	-41.556257	0.000223	2.230338	0.755659	0.000089
1777	1.7671e+02	-9.2308	-41.427068	0.000324	3.244129	1.099140	0.000130
1778	1.7681e+02	-9.1939	-41.314029	0.000284	2.838612	0.961748	0.000114
1779	1.7691e+02	-9.1505	-41.172729	0.000355	3.548266	1.202185	0.000142
1780	1.7701e+02	-9.1136	-40.999132	0.000436	4.359298	1.476970	0.000174
1781	1.7711e+02	-9.0816	-40.890129	0.000274	2.737233	0.927400	0.000110
1782	1.7721e+02	-9.0366	-40.805349	0.000213	2.128959	0.721311	0.000085
1783	1.7731e+02	-9.0046	-40.676161	0.000324	3.244129	1.099140	0.000130
1784	1.7741e+02	-8.9596	-40.490453	0.000466	4.663435	1.580014	0.000187
1785	1.7751e+02	-8.9099	-40.405673	0.000213	2.128959	0.721311	0.000085
1786	1.7761e+02	-8.8714	-40.280522	0.000314	3.142749	1.064792	0.000126
1787	1.7771e+02	-8.8393	-40.123074	0.000395	3.953782	1.339577	0.000158
1788	1.7781e+02	-8.7960	-40.001959	0.000304	3.041370	1.030444	0.000122
1789	1.7791e+02	-8.7575	-39.909105	0.000233	2.331717	0.790007	0.000093
1790	1.7801e+02	-8.7174	-39.808177	0.000253	2.534475	0.858704	0.000101
1791	1.7810e+02	-8.6757	-39.650729	0.000395	3.953782	1.339577	0.000158
1792	1.7820e+02	-8.6388	-39.521540	0.000324	3.244129	1.099140	0.000130
1793	1.7830e+02	-8.5971	-39.392352	0.000324	3.244129	1.099140	0.000130
1794	1.7840e+02	-8.5602	-39.287386	0.000264	2.635854	0.893052	0.000105
1795	1.7850e+02	-8.5217	-39.158198	0.000324	3.244129	1.099140	0.000130
1796	1.7860e+02	-8.4816	-39.004787	0.000385	3.852403	1.305229	0.000154
1797	1.7870e+02	-8.4383	-38.875599	0.000324	3.244129	1.099140	0.000130
1798	1.7880e+02	-8.4030	-38.774670	0.000253	2.534475	0.858704	0.000101
1799	1.7890e+02	-8.3564	-38.613185	0.000406	4.055161	1.373926	0.000162
1800	1.7900e+02	-8.3196	-38.532442	0.000203	2.027580	0.686963	0.000081
1801	1.7910e+02	-8.2859	-38.346734	0.000466	4.663435	1.580014	0.000187
1802	1.7920e+02	-8.2506	-38.225620	0.000304	3.041370	1.030444	0.000122
1803	1.7930e+02	-8.2040	-38.128728	0.000243	2.433096	0.824355	0.000097
1804	1.7940e+02	-8.1607	-37.975317	0.000385	3.852403	1.305229	0.000154
1805	1.7950e+02	-8.1286	-37.878426	0.000243	2.433096	0.824355	0.000097
1806	1.7960e+02	-8.0757	-37.745201	0.000335	3.345508	1.133489	0.000134
1807	1.7970e+02	-8.0388	-37.579678	0.000416	4.156540	1.408274	0.000166
1808	1.7980e+02	-7.9907	-37.547381	0.000081	0.811032	0.274785	0.000032
1809	1.7990e+02	-7.9634	-37.333413	0.000537	5.373088	1.820451	0.000215
1810	1.8000e+02	-7.9201	-37.240559	0.000233	2.331717	0.790007	0.000093
1811	1.8009e+02	-7.8832	-37.083110	0.000395	3.953782	1.339577	0.000158
1812	1.8019e+02	-7.8335	-36.974108	0.000274	2.737233	0.927400	0.000110
1813	1.8029e+02	-7.8110	-36.857031	0.000294	2.939991	0.996096	0.000118
1814	1.8039e+02	-7.7645	-36.748028	0.000274	2.737233	0.927400	0.000110
1815	1.8049e+02	-7.7244	-36.610765	0.000345	3.446887	1.167837	0.000138
1816	1.8059e+02	-7.6827	-36.485614	0.000314	3.142749	1.064792	0.000126
1817	1.8069e+02	-7.6297	-36.336240	0.000375	3.751024	1.270881	0.000150
1818	1.8079e+02	-7.6073	-36.223200	0.000284	2.838612	0.961748	0.000114
1819	1.8089e+02	-7.5688	-36.053641	0.000426	4.257919	1.442622	0.000170
1820	1.8099e+02	-7.5206	-35.944638	0.000274	2.737233	0.927400	0.000110
1821	1.8109e+02	-7.4886	-35.867932	0.000193	1.926201	0.652615	0.000077
1822	1.8119e+02	-7.4452	-35.678187	0.000476	4.764814	1.614363	0.000191
1823	1.8129e+02	-7.3987	-35.553036	0.000314	3.142749	1.064792	0.000126
1824	1.8139e+02	-7.3586	-35.464219	0.000223	2.230338	0.755659	0.000089
1825	1.8149e+02	-7.3249	-35.306771	0.000395	3.953782	1.339577	0.000158
1826	1.8159e+02	-7.2848	-35.205842	0.000253	2.534475	0.858704	0.000101
1827	1.8169e+02	-7.2447	-35.088765	0.000294	2.939991	0.996096	0.000118
1828	1.8179e+02	-7.2046	-34.907094	0.000456	4.562056	1.545666	0.000183
1829	1.8189e+02	-7.1597	-34.802129	0.000264	2.635854	0.893052	0.000105
1830	1.8199e+02	-7.1276	-34.664866	0.000345	3.446887	1.167837	0.000138
1831	1.8209e+02	-7.1003	-34.519529	0.000365	3.649645	1.236533	0.000146
1832	1.8218e+02	-7.0458	-34.414564	0.000264	2.635854	0.893052	0.000105
1833	1.8228e+02	-7.0057	-34.269227	0.000365	3.649645	1.236533	0.000146
1834	1.8238e+02	-6.9656	-34.148113	0.000304	3.041370	1.030444	0.000122
1835	1.8248e+02	-6.9271	-34.022961	0.000314	3.142749	1.064792	0.000126
1836	1.8258e+02	-6.8822	-33.885699	0.000345	3.446887	1.167837	0.000138
1837	1.8268e+02	-6.8388	-33.744399	0.000355	3.548266	1.202185	0.000142
1838	1.8278e+02	-6.7955	-33.639434	0.000264	2.635854	0.893052	0.000105
1839	1.8288e+02	-6.7634	-33.510245	0.000324	3.244129	1.099140	0.000130
1840	1.8298e+02	-6.7249	-33.372983	0.000345	3.446887	1.167837	0.000138
1841	1.8308e+02	-6.6816	-33.215534	0.000395	3.953782	1.339577	0.000158
1842	1.8318e+02	-6.6447	-33.086346	0.000324	3.244129	1.099140	0.000130
1843	1.8328e+02	-6.6062	-32.997529	0.000223	2.230338	0.755659	0.000089
1844	1.8338e+02	-6.5629	-32.840081	0.000395	3.953782	1.339577	0.000158
1845	1.8348e+02	-6.5340	-32.690707	0.000375	3.751024	1.270881	0.000150
1846	1.8358e+02	-6.4843	-32.573630	0.000294	2.939991	0.996096	0.000118
1847	1.8368e+02	-6.4490	-32.404070	0.000426	4.257919	1.442622	0.000170
1848	1.8378e+02	-6.4137	-32.323327	0.000203	2.027580	0.686963	0.000081
1849	1.8388e+02	-6.3736	-32.149730	0.000436	4.359298	1.476970	0.000174
1850	1.8398e+02	-6.3319	-32.044765	0.000264	2.635854	0.893052	0.000105
1851	1.8407e+02	-6.2998	-31.899428	0.000365	3.649645	1.236533	0.000146
1852	1.8417e+02	-6.2613	-31.762165	0.000345	3.446887	1.167837	0.000138
1853	1.8427e+02	-6.2084	-31.637014	0.000314	3.142749	1.064792	0.000126
1854	1.8437e+02	-6.1699	-31.483603	0.000385	3.852403	1.305229	0.000154
1855	1.8447e+02	-6.1298	-31.350378	0.000335	3.345508	1.133489	0.000134
1856	1.8457e+02	-6.1025	-31.269635	0.000203	2.027580	0.686963	0.000081
1857	1.8467e+02	-6.0544	-31.100075	0.000426	4.257919	1.442622	0.000170
1858	1.8477e+02	-6.0143	-30.982998	0.000294	2.939991	0.996096	0.000118
1859	1.8487e+02	-5.9677	-30.797290	0.000466	4.663435	1.580014	0.000187
1860	1.8497e+02	-5.9292	-30.684250	0.000284	2.838612	0.961748	0.000114
1861	1.8507e+02	-5.8988	-30.538913	0.000365	3.649645	1.236533	0.000146
1862	1.8517e+02	-5.8506	-30.397614	0.000355	3.548266	1.202185	0.000142
1863	1.8527e+02	-5.8041	-30.272462	0.000314	3.142749	1.064792	0.000126
1864	1.8537e+02	-5.7736	-30.135200	0.000345	3.446887	1.167837	0.000138
1865	1.8547e+02	-5.7383	-29.993900	0.000355	3.548266	1.202185	0.000142
1866	1.8557e+02	-5.6966	-29.828377	0.000416	4.156540	1.408274	0.000166
1867	1.8567e+02	-5.6549	-29.703226	0.000314	3.142749	1.064792	0.000126
1868	1.8577e+02	-5.6180	-29.525592	0.000446	4.460677	1.511318	0.000179
1869	1.8587e+02	-5.5651	-29.396404	0.000324	3.244129	1.099140	0.000130
1870	1.8597e+02	-5.5410	-29.283364	0.000284	2.838612	0.961748	0.000114
1871	1.8606e+02	-5.4929	-29.133990	0.000375	3.751024	1.270881	0.000150
1872	1.8616e+02	-5.4528	-29.008839	0.000314	3.142749	1.064792	0.000126
1873	1.8626e+02	-5.4223	-28.875613	0.000335	3.345508	1.133489	0.000134
1874	1.8636e+02	-5.3710	-28.726239	0.000375	3.751024	1.270881	0.000150
1875	1.8646e+02	-5.3325	-28.597051	0.000324	3.244129	1.099140	0.000130
1876	1.8656e+02	-5.2876	-28.435566	0.000406	4.055161	1.373926	0.000162
1877	1.8666e+02	-5.2571	-28.278117	0.000395	3.953782	1.339577	0.000158
1878	1.8676e+02	-5.2105	-28.144892	0.000335	3.345508	1.133489	0.000134
1879	1.8686e+02	-5.1865	-28.015703	0.000324	3.244129	1.099140	0.000130
1880	1.8696e+02	-5.1351	-27.866329	0.000375	3.751024	1.270881	0.000150
1881	1.8706e+02	-5.1047	-27.737141	0.000324	3.244129	1.099140	0.000130
1882	1.8716e+02	-5.0565	-27.579693	0.000395	3.953782	1.339577	0.000158
1883	1.8726e+02	-5.0180	-27.430319	0.000375	3.751024	1.270881	0.000150
1884	1.8736e+02	-4.9731	-27.321316	0.000274	2.737233	0.927400	0.000110
1885	1.8746e+02	-4.9330	-27.131571	0.000476	4.764814	1.614363	0.000191
1886	1.8756e+02	-4.8945	-27.038717	0.000233	2.331717	0.790007	0.000093
1887	1.8766e+02	-4.8512	-26.848971	0.000476	4.764814	1.614363	0.000191
1888	1.8776e+02	-4.8191	-26.719783	0.000324	3.244129	1.099140	0.000130
1889	1.8786e+02	-4.7774	-26.590595	0.000324	3.244129	1.099140	0.000130
1890	1.8796e+02	-4.7405	-26.441221	0.000375	3.751024	1.270881	0.000150
1891	1.8806e+02	-4.6956	-26.316069	0.000314	3.142749	1.064792	0.000126
1892	1.8815e+02	-4.6523	-26.130361	0.000466	4.663435	1.580014	0.000187
1893	1.8825e+02	-4.6138	-26.033470	0.000243	2.433096	0.824355	0.000097
1894	1.8835e+02	-4.5801	-25.867947	0.000416	4.156540	1.408274	0.000166
1895	1.8845e+02	-4.5400	-25.702425	0.000416	4.156540	1.408274	0.000166
1896	1.8855e+02	-4.5031	-25.573236	0.000324	3.244129	1.099140	0.000130
1897	1.8865e+02	-4.4517	-25.411751	0.000406	4.055161	1.373926	0.000162
1898	1.8875e+02	-4.4197	-25.294674	0.000294	2.939991	0.996096	0.000118
1899	1.8885e+02	-4.3828	-25.133189	0.000406	4.055161	1.373926	0.000162
1900	1.8895e+02	-4.3362	-24.999963	0.000335	3.345508	1.133489	0.000134
1901	1.8905e+02	-4.2929	-24.818292	0.000456	4.562056	1.545666	0.000183
1902	1.8915e+02	-4.2560	-24.733512	0.000213	2.128959	0.721311	0.000085
1903	1.8925e+02	-4.2191	-24.523581	0.000527	5.271709	1.786103	0.000211
1904	1.8935e+02	-4.1806	-24.418616	0.000264	2.635854	0.893052	0.000105
1905	1.8945e+02	-4.1389	-24.216759	0.000507	5.068951	1.717407	0.000203
1906	1.8955e+02	-4.1020	-24.107756	0.000274	2.737233	0.927400	0.000110
1907	1.8965e+02	-4.0635	-23.946271	0.000406	4.055161	1.373926	0.000162
1908	1.8975e+02	-4.0298	-23.784785	0.000406	4.055161	1.373926	0.000162
1909	1.8985e+02	-3.9817	-23.639448	0.000365	3.649645	1.236533	0.000146
1910	1.8995e+02	-3.9448	-23.510260	0.000324	3.244129	1.099140	0.000130
1911	1.9004e+02	-3.9015	-23.364923	0.000365	3.649645	1.236533	0.000146
1912	1.9014e+02	-3.8630	-23.207475	0.000395	3.953782	1.339577	0.000158
1913	1.9024e+02	-3.8245	-23.086361	0.000304	3.041370	1.030444	0.000122
1914	1.9034e+02	-3.7860	-22.928912	0.000395	3.953782	1.339577	0.000158
1915	1.9044e+02	-3.7411	-22.783576	0.000365	3.649645	1.236533	0.000146
1916	1.9054e+02	-3.6978	-22.593830	0.000476	4.764814	1.614363	0.000191
1917	1.9064e+02	-3.6609	-22.509050	0.000213	2.128959	0.721311	0.000085
1918	1.9074e+02	-3.6175	-22.331416	0.000446	4.460677	1.511318	0.000179
1919	1.9084e+02	-3.5774	-22.153782	0.000446	4.460677	1.511318	0.000179
1920	1.9094e+02	-3.5309	-22.016520	0.000345	3.446887	1.167837	0.000138
1921	1.9104e+02	-3.5085	-21.855034	0.000406	4.055161	1.373926	0.000162
1922	1.9114e+02	-3.4635	-21.729883	0.000314	3.142749	1.064792	0.000126
1923	1.9124e+02	-3.4234	-21.596658	0.000335	3.345508	1.133489	0.000134
1924	1.9134e+02	-3.3817	-21.439209	0.000395	3.953782	1.339577	0.000158
1925	1.9144e+02	-3.3448	-21.249464	0.000476	4.764814	1.614363	0.000191
1926	1.9154e+02	-3.3127	-21.140461	0.000274	2.737233	0.927400	0.000110
1927	1.9164e+02	-3.2710	-20.934567	0.000517	5.170330	1.751755	0.000207
1928	1.9174e+02	-3.2165	-20.821528	0.000284	2.838612	0.961748	0.000114
1929	1.9184e+02	-3.1780	-20.647931	0.000436	4.359298	1.476970	0.000174
1930	1.9194e+02	-3.1411	-20.514705	0.000335	3.345508	1.133489	0.000134
1931	1.9203e+02	-3.0962	-20.377443	0.000345	3.446887	1.167837	0.000138
1932	1.9213e+02	-3.0593	-20.203846	0.000436	4.359298	1.476970	0.000174
1933	1.9223e+02	-3.0240	-20.082732	0.000304	3.041370	1.030444	0.000122
1934	1.9233e+02	-2.9839	-19.925283	0.000395	3.953782	1.339577	0.000158
1935	1.9243e+02	-2.9422	-19.783984	0.000355	3.548266	1.202185	0.000142
1936	1.9253e+02	-2.9149	-19.642684	0.000355	3.548266	1.202185	0.000142
1937	1.9263e+02	-2.8620	-19.489273	0.000385	3.852403	1.305229	0.000154
1938	1.9273e+02	-2.8170	-19.327787	0.000406	4.055161	1.373926	0.000162
1939	1.9283e+02	-2.7914	-19.174376	0.000385	3.852403	1.305229	0.000154
1940	1.9293e+02	-2.7400	-19.004816	0.000426	4.257919	1.442622	0.000170
1941	1.9303e+02	-2.6951	-18.867554	0.000345	3.446887	1.167837	0.000138
1942	1.9313e+02	-2.6662	-18.738366	0.000324	3.244129	1.099140	0.000130
1943	1.9323e+02	-2.6149	-18.601103	0.000345	3.446887	1.167837	0.000138
1944	1.9333e+02	-2.5812	-18.439617	0.000406	4.055161	1.373926	0.000162
1945	1.9343e+02	-2.5411	-18.266021	0.000436	4.359298	1.476970	0.000174
1946	1.9353e+02	-2.5042	-18.157018	0.000274	2.737233	0.927400	0.000110
1947	1.9363e+02	-2.4721	-18.003607	0.000385	3.852403	1.305229	0.000154
1948	1.9373e+02	-2.4240	-17.846159	0.000395	3.953782	1.339577	0.000158
1949	1.9383e+02	-2.3775	-17.725044	0.000304	3.041370	1.030444	0.000122
1950	1.9393e+02	-2.3534	-17.587782	0.000345	3.446887	1.167837	0.000138
1951	1.9403e+02	-2.3069	-17.393999	0.000487	4.866193	1.648711	0.000195
1952	1.9412e+02	-2.2732	-17.268848	0.000314	3.142749	1.064792	0.000126
1953	1.9422e+02	-2.2203	-17.099288	0.000426	4.257919	1.442622	0.000170
1954	1.9432e+02	-2.1898	-16.937803	0.000406	4.055161	1.373926	0.000162
1955	1.9442e+02	-2.1433	-16.824763	0.000284	2.838612	0.961748	0.000114
1956	1.9452e+02	-2.1080	-16.635018	0.000476	4.764814	1.614363	0.000191
1957	1.9462e+02	-2.0598	-16.509867	0.000314	3.142749	1.064792	0.000126
1958	1.9472e+02	-2.0229	-16.368567	0.000355	3.548266	1.202185	0.000142
1959	1.9482e+02	-1.9892	-16.215156	0.000385	3.852403	1.305229	0.000154
1960	1.9492e+02	-1.9363	-16.033485	0.000456	4.562056	1.545666	0.000183
1961	1.9502e+02	-1.9138	-15.908333	0.000314	3.142749	1.064792	0.000126
1962	1.9512e+02	-1.8657	-15.738774	0.000426	4.257919	1.442622	0.000170
1963	1.9522e+02	-1.8304	-15.597474	0.000355	3.548266	1.202185	0.000142
1964	1.9532e+02	-1.7871	-15.448100	0.000375	3.751024	1.270881	0.000150
1965	1.9542e+02	-1.7422	-15.326986	0.000304	3.041370	1.030444	0.000122
1966	1.9552e+02	-1.7149	-15.125129	0.000507	5.068951	1.717407	0.000203
1967	1.9562e+02	-1.6604	-14.991904	0.000335	3.345508	1.133489	0.000134
1968	1.9572e+02	-1.6283	-14.842530	0.000375	3.751024	1.270881	0.000150
1969	1.9582e+02	-1.5850	-14.725453	0.000294	2.939991	0.996096	0.000118
1970	1.9592e+02	-1.5465	-14.547819	0.000446	4.460677	1.511318	0.000179
1971	1.9601e+02	-1.5080	-14.410556	0.000345	3.446887	1.167837	0.000138
1972	1.9611e+02	-1.4663	-14.236959	0.000436	4.359298	1.476970	0.000174
1973	1.9621e+02	-1.4262	-14.152179	0.000213	2.128959	0.721311	0.000085
1974	1.9631e+02	-1.3957	-13.958397	0.000487	4.866193	1.648711	0.000195
1975	1.9641e+02	-1.3524	-13.841320	0.000294	2.939991	0.996096	0.000118
1976	1.9651e+02	-1.2962	-13.651574	0.000476	4.764814	1.614363	0.000191
1977	1.9661e+02	-1.2609	-13.530460	0.000304	3.041370	1.030444	0.000122
1978	1.9671e+02	-1.2337	-13.373012	0.000395	3.953782	1.339577	0.000158
1979	1.9681e+02	-1.1935	-13.264009	0.000274	2.737233	0.927400	0.000110
1980	1.9691e+02	-1.1518	-13.070227	0.000487	4.866193	1.648711	0.000195
1981	1.9701e+02	-1.1117	-12.937001	0.000335	3.345508	1.133489	0.000134
1982	1.9711e+02	-1.0716	-12.771479	0.000416	4.156540	1.408274	0.000166
1983	1.9721e+02	-1.0299	-12.622105	0.000375	3.751024	1.270881	0.000150
1984	1.9731e+02	-0.9930	-12.452545	0.000426	4.257919	1.442622	0.000170
1985	1.9741e+02	-0.9561	-12.303171	0.000375	3.751024	1.270881	0.000150
1986	1.9751e+02	-0.9048	-12.153797	0.000375	3.751024	1.270881	0.000150
1987	1.9761e+02	-0.8775	-12.036720	0.000294	2.939991	0.996096	0.000118
1988	1.9771e+02	-0.8294	-11.879272	0.000395	3.953782	1.339577	0.000158
1989	1.9781e+02	-0.7877	-11.733935	0.000365	3.649645	1.236533	0.000146
1990	1.9791e+02	-0.7524	-11.600710	0.000335	3.345508	1.133489	0.000134
1991	1.9800e+02	-0.7027	-11.394816	0.000517	5.170330	1.751755	0.000207
1992	1.9810e+02	-0.6722	-11.269664	0.000314	3.142749	1.064792	0.000126
1993	1.9820e+02	-0.6305	-11.124328	0.000365	3.649645	1.236533	0.000146
1994	1.9830e+02	-0.5904	-10.950731	0.000436	4.359298	1.476970	0.000174
1995	1.9840e+02	-0.5519	-10.809431	0.000355	3.548266	1.202185	0.000142
1996	1.9850e+02	-0.5101	-10.684280	0.000314	3.142749	1.064792	0.000126
1997	1.9860e+02	-0.4829	-10.486460	0.000497	4.967572	1.683059	0.000199
1998	1.9870e+02	-0.4476	-10.329012	0.000395	3.953782	1.339577	0.000158
1999	1.9880e+02	-0.3898	-10.199823	0.000324	3.244129	1.099140	0.000130
2000	1.9890e+02	-0.3642	-10.014115	0.000466	4.663435	1.580014	0.000187
2001	1.9900e+02	-0.3144	-9.917224	0.000243	2.433096	0.824355	0.000097
2002	1.9910e+02	-0.2711	-9.703256	0.000537	5.373088	1.820451	0.000215
2003	1.9920e+02	-0.2262	-9.533696	0.000426	4.257919	1.442622	0.000170
2004	1.9930e+02	-0.1957	-9.469102	0.000162	1.622064	0.549570	0.000065
2005	1.9940e+02	-0.1636	-9.323765	0.000365	3.649645	1.236533	0.000146
2006	1.9950e+02	-0.1123	-9.129982	0.000487	4.866193	1.648711	0.000195
2007	1.9960e+02	-0.0722	-8.984646	0.000365	3.649645	1.236533	0.000146
2008	1.9970e+02	-0.0369	-8.811049	0.000436	4.359298	1.476970	0.000174
2009	1.9980e+02	-0.0016	-8.673786	0.000436	4.359298	1.476970	0.000138

PMax (uC/cm2):	7.62e+01
Pr (uC/cm2):	4.25e+00
-Pr (uC/cm2):	-2.33e+00
PLoss (uC/cm2):	-2.28e+00
-Vc:	-1.11e+00
C (Max-Eff) (nF):	3.81e-01
K (Eff):	1.29e+03
Vert. (+/-Pr) Shift (uC/cm2):	9.63e-01
Offset (uC/cm2):	6.34e+00

A (Loop Area - uC/cm2·Volts):	1.94e-05



Hysteresis Version: 5.48.1 - Radiant Technologies, Inc., 1999 - 9/12/24

