»»»»»»»»»»»»»»»»»»»»»»»»»»»»»»»»»»»» Hysteresis ««««««««««««««««««««««««««««««««««««
»»»  Executed Version:	5.48.1
»»»  Vision Version:	5.48.4 (R)
»»»  Vision Compiled:	9/18/24
»»»  Driver Version:	5.47.0
»»»  Windows Version:	Windows 8 or 8.1
»»»  Processor Information:	x86 (AMD or Intel) - 32 Processors
»»»  Tester Name:	PMF21124-494 (100V)
»»»  Tester S/N:	PMF21124-494
»»»  Internal Amp Type:	100V RevK 270k
»»»  Internal Amp S/N:	iAB2-596/K     
»»»  Execution Count:	1
»»»»»»»»»»»»»»»»»»»»»»»»»»»»»»»»»»»»»»»»»»««««««««««««««««««««««««««««««««««««««««««

Stored:	6/19/2025 - 20:2:26
Configured:	06/19/25 10:04:32 AM
Executed:	06/19/25 08:02:00 PM

»»»»»»»»»»»»»»»»»»»»»»»»»»»»»»»»»»» Sample Info ««««««««««««««««««««««««««««««««««««
Sample Name:	
Lot Name:	
Wafer Name:	
Die Row/Column:	0/0
Capacitor Number:	0
Sample Area (cm2):	1.00e-04
Sample Thickness (microns):	3.00e-01

Amplifier:	Internal

»»»»»»»»»»»»»»»»»»»»»»»»»»»»»»»»»»» Tester Info «««««««««««««««««««««««««««««««««««
Tester Name:	PMF21124-494 (100V)
Tester Serial Number:	PMF21124-494
Return Signal Amp. Level:	0.19 [Index: 3]

»»»»»»»»»»»»»»»»»»»»»»»»»»»»»»»» Hysteresis Info ««««««««««««««««««««««««««««««««««
Task Name:	Hyst-1168
Volts:	20.00
Field:	666.67 (kV/cm)
DCBias:	0.00
DCField:	0.00 (kV/cm)
Hysteresis Period (ms):	2.00e+02
Preset:	Enabled
Preset Delay (ms):	1.00e+03
Profile:	Standard Bipolar

»»»»»»»»»»»»»»»»»»»»»»»»»»»»»»»»»»»»»» Data «««««««««««««««««««««««««««««««««««««««
Points:	2009

Valid Data

Point	Time (ms)	Drive Voltage	Measured Polarization (uC/cm2)	Capacitance (uF)	Normalized Capacitance (uF/cm2)	Dielectric Constant	Instantaneous Current (mA)
   1	0.0000e+00	0.0128	-6.746054	0.000254	2.535798	0.859152	0.000101
   2	9.9500e-02	0.0257	-6.645125	0.000254	2.535798	0.859152	0.000101
   3	1.9900e-01	0.0658	-6.548234	0.000243	2.434366	0.824786	0.000097
   4	2.9850e-01	0.1123	-6.350415	0.000497	4.970164	1.683937	0.000199
   5	3.9800e-01	0.1620	-6.168743	0.000456	4.564437	1.546473	0.000183
   6	4.9750e-01	0.1973	-6.003221	0.000416	4.158709	1.409009	0.000166
   7	5.9700e-01	0.2342	-5.829624	0.000436	4.361573	1.477741	0.000174
   8	6.9650e-01	0.2775	-5.696399	0.000335	3.347254	1.134080	0.000134
   9	7.9600e-01	0.3144	-5.551062	0.000365	3.651549	1.237178	0.000146
  10	8.9550e-01	0.3561	-5.377465	0.000436	4.361573	1.477741	0.000174
  11	9.9500e-01	0.3914	-5.260388	0.000294	2.941526	0.996616	0.000118
  12	1.0945e+00	0.4412	-5.106977	0.000385	3.854413	1.305911	0.000154
  13	1.1940e+00	0.4893	-4.973751	0.000335	3.347254	1.134080	0.000134
  14	1.2935e+00	0.5262	-4.860711	0.000284	2.840094	0.962250	0.000114
  15	1.3930e+00	0.5647	-4.699226	0.000406	4.057277	1.374643	0.000162
  16	1.4925e+00	0.6000	-4.553889	0.000365	3.651549	1.237178	0.000146
  17	1.5920e+00	0.6337	-4.432775	0.000304	3.042958	1.030982	0.000122
  18	1.6915e+00	0.6802	-4.255141	0.000446	4.463005	1.512107	0.000179
  19	1.7910e+00	0.7187	-4.113841	0.000355	3.550117	1.202812	0.000142
  20	1.8905e+00	0.7540	-3.916022	0.000497	4.970164	1.683937	0.000199
  21	1.9900e+00	0.7893	-3.750499	0.000416	4.158709	1.409009	0.000166
  22	2.0895e+00	0.8406	-3.584977	0.000416	4.158709	1.409009	0.000166
  23	2.1890e+00	0.8759	-3.447714	0.000345	3.448685	1.168446	0.000138
  24	2.2885e+00	0.9048	-3.298340	0.000375	3.752981	1.271544	0.000150
  25	2.3880e+00	0.9561	-3.128780	0.000426	4.260141	1.443375	0.000170
  26	2.4875e+00	0.9914	-2.963258	0.000416	4.158709	1.409009	0.000166
  27	2.5870e+00	1.0363	-2.781587	0.000456	4.564437	1.546473	0.000183
  28	2.6865e+00	1.0780	-2.676621	0.000264	2.637230	0.893518	0.000105
  29	2.7860e+00	1.1101	-2.507061	0.000426	4.260141	1.443375	0.000170
  30	2.8855e+00	1.1583	-2.341539	0.000416	4.158709	1.409009	0.000166
  31	2.9850e+00	1.1968	-2.212350	0.000325	3.245822	1.099714	0.000130
  32	3.0845e+00	1.2272	-2.107385	0.000264	2.637230	0.893518	0.000105
  33	3.1840e+00	1.2834	-1.933788	0.000436	4.361573	1.477741	0.000174
  34	3.2835e+00	1.3267	-1.756154	0.000446	4.463005	1.512107	0.000179
  35	3.3830e+00	1.3556	-1.598706	0.000396	3.955845	1.340277	0.000158
  36	3.4825e+00	1.3909	-1.449332	0.000375	3.752981	1.271544	0.000150
  37	3.5820e+00	1.4181	-1.287846	0.000406	4.057277	1.374643	0.000162
  38	3.6815e+00	1.4727	-1.106175	0.000456	4.564437	1.546473	0.000183
  39	3.7810e+00	1.5080	-0.944690	0.000406	4.057277	1.374643	0.000162
  40	3.8805e+00	1.5417	-0.811464	0.000335	3.347254	1.134080	0.000134
  41	3.9800e+00	1.5946	-0.621719	0.000477	4.767300	1.615205	0.000191
  42	4.0795e+00	1.6331	-0.472345	0.000375	3.752981	1.271544	0.000150
  43	4.1790e+00	1.6732	-0.306822	0.000416	4.158709	1.409009	0.000166
  44	4.2785e+00	1.7165	-0.117077	0.000477	4.767300	1.615205	0.000191
  45	4.3780e+00	1.7486	0.016149	0.000335	3.347254	1.134080	0.000134
  46	4.4775e+00	1.7855	0.149374	0.000335	3.347254	1.134080	0.000134
  47	4.5770e+00	1.8336	0.310859	0.000406	4.057277	1.374643	0.000162
  48	4.6765e+00	1.8625	0.512716	0.000507	5.071596	1.718303	0.000203
  49	4.7760e+00	1.9058	0.637867	0.000314	3.144390	1.065348	0.000126
  50	4.8755e+00	1.9572	0.746870	0.000274	2.738662	0.927884	0.000110
  51	4.9750e+00	1.9892	0.904318	0.000396	3.955845	1.340277	0.000158
  52	5.0745e+00	2.0261	1.045618	0.000355	3.550117	1.202812	0.000142
  53	5.1740e+00	2.0646	1.243438	0.000497	4.970164	1.683937	0.000199
  54	5.2735e+00	2.1112	1.380700	0.000345	3.448685	1.168446	0.000138
  55	5.3730e+00	2.1449	1.517963	0.000345	3.448685	1.168446	0.000138
  56	5.4725e+00	2.1898	1.671374	0.000385	3.854413	1.305911	0.000154
  57	5.5720e+00	2.2315	1.885342	0.000538	5.375892	1.821402	0.000215
  58	5.6715e+00	2.2716	2.058939	0.000436	4.361573	1.477741	0.000174
  59	5.7710e+00	2.3069	2.196202	0.000345	3.448685	1.168446	0.000138
  60	5.8705e+00	2.3454	2.365762	0.000426	4.260141	1.443375	0.000170
  61	5.9700e+00	2.3951	2.523210	0.000396	3.955845	1.340277	0.000158
  62	6.0695e+00	2.4224	2.725067	0.000507	5.071596	1.718303	0.000203
  63	6.1690e+00	2.4545	2.870404	0.000365	3.651549	1.237178	0.000146
  64	6.2685e+00	2.5074	3.007666	0.000345	3.448685	1.168446	0.000138
  65	6.3680e+00	2.5459	3.193374	0.000467	4.665869	1.580839	0.000187
  66	6.4675e+00	2.5860	3.330637	0.000345	3.448685	1.168446	0.000138
  67	6.5670e+00	2.6293	3.484048	0.000385	3.854413	1.305911	0.000154
  68	6.6665e+00	2.6646	3.621311	0.000345	3.448685	1.168446	0.000138
  69	6.7660e+00	2.7160	3.738388	0.000294	2.941526	0.996616	0.000118
  70	6.8655e+00	2.7464	3.940244	0.000507	5.071596	1.718303	0.000203
  71	6.9650e+00	2.7930	4.117878	0.000446	4.463005	1.512107	0.000179
  72	7.0645e+00	2.8315	4.226881	0.000274	2.738662	0.927884	0.000110
  73	7.1640e+00	2.8716	4.452961	0.000568	5.680188	1.924500	0.000227
  74	7.2635e+00	2.9181	4.626558	0.000436	4.361573	1.477741	0.000174
  75	7.3630e+00	2.9390	4.832451	0.000517	5.173028	1.752669	0.000207
  76	7.4625e+00	2.9839	4.957603	0.000314	3.144390	1.065348	0.000126
  77	7.5620e+00	3.0304	5.127162	0.000426	4.260141	1.443375	0.000170
  78	7.6615e+00	3.0609	5.312871	0.000467	4.665869	1.580839	0.000187
  79	7.7610e+00	3.1058	5.454170	0.000355	3.550117	1.202812	0.000142
  80	7.8605e+00	3.1395	5.639879	0.000467	4.665869	1.580839	0.000187
  81	7.9600e+00	3.1828	5.748881	0.000274	2.738662	0.927884	0.000110
  82	8.0595e+00	3.2197	5.922478	0.000436	4.361573	1.477741	0.000174
  83	8.1590e+00	3.2742	6.116261	0.000487	4.868732	1.649571	0.000195
  84	8.2585e+00	3.3127	6.265635	0.000375	3.752981	1.271544	0.000150
  85	8.3580e+00	3.3432	6.447306	0.000456	4.564437	1.546473	0.000183
  86	8.4575e+00	3.3865	6.560346	0.000284	2.840094	0.962250	0.000114
  87	8.5570e+00	3.4331	6.685497	0.000314	3.144390	1.065348	0.000126
  88	8.6565e+00	3.4716	6.859094	0.000436	4.361573	1.477741	0.000174
  89	8.7560e+00	3.5052	7.036728	0.000446	4.463005	1.512107	0.000179
  90	8.8555e+00	3.5389	7.182064	0.000365	3.651549	1.237178	0.000146
  91	8.9550e+00	3.5790	7.363736	0.000456	4.564437	1.546473	0.000183
  92	9.0545e+00	3.6272	7.577704	0.000538	5.375892	1.821402	0.000215
  93	9.1540e+00	3.6577	7.731115	0.000385	3.854413	1.305911	0.000154
  94	9.2535e+00	3.7090	7.884526	0.000385	3.854413	1.305911	0.000154
  95	9.3530e+00	3.7459	8.078309	0.000487	4.868732	1.649571	0.000195
  96	9.4525e+00	3.7860	8.211534	0.000335	3.347254	1.134080	0.000134
  97	9.5520e+00	3.8309	8.373020	0.000406	4.057277	1.374643	0.000162
  98	9.6515e+00	3.8534	8.530468	0.000396	3.955845	1.340277	0.000158
  99	9.7510e+00	3.9015	8.708102	0.000446	4.463005	1.512107	0.000179
 100	9.8505e+00	3.9416	8.853439	0.000365	3.651549	1.237178	0.000146
 101	9.9500e+00	3.9801	8.994738	0.000355	3.550117	1.202812	0.000142
 102	1.0050e+01	4.0218	9.200632	0.000517	5.173028	1.752669	0.000207
 103	1.0149e+01	4.0571	9.333858	0.000335	3.347254	1.134080	0.000134
 104	1.0248e+01	4.0956	9.450935	0.000294	2.941526	0.996616	0.000118
 105	1.0348e+01	4.1518	9.608383	0.000396	3.955845	1.340277	0.000158
 106	1.0447e+01	4.1806	9.757757	0.000375	3.752981	1.271544	0.000150
 107	1.0547e+01	4.2191	9.943465	0.000467	4.665869	1.580839	0.000187
 108	1.0646e+01	4.2544	10.125136	0.000456	4.564437	1.546473	0.000183
 109	1.0746e+01	4.3026	10.331030	0.000517	5.173028	1.752669	0.000207
 110	1.0845e+01	4.3443	10.504627	0.000436	4.361573	1.477741	0.000174
 111	1.0945e+01	4.3780	10.670150	0.000416	4.158709	1.409009	0.000166
 112	1.1044e+01	4.4229	10.811450	0.000355	3.550117	1.202812	0.000142
 113	1.1144e+01	4.4517	10.960824	0.000375	3.752981	1.271544	0.000150
 114	1.1243e+01	4.4999	11.154606	0.000487	4.868732	1.649571	0.000195
 115	1.1343e+01	4.5432	11.308017	0.000385	3.854413	1.305911	0.000154
 116	1.1443e+01	4.5801	11.469503	0.000406	4.057277	1.374643	0.000162
 117	1.1542e+01	4.6202	11.651174	0.000456	4.564437	1.546473	0.000183
 118	1.1642e+01	4.6603	11.788436	0.000345	3.448685	1.168446	0.000138
 119	1.1741e+01	4.6988	11.957996	0.000426	4.260141	1.443375	0.000170
 120	1.1841e+01	4.7405	12.095259	0.000345	3.448685	1.168446	0.000138
 121	1.1940e+01	4.7886	12.228484	0.000335	3.347254	1.134080	0.000134
 122	1.2040e+01	4.8207	12.414192	0.000467	4.665869	1.580839	0.000187
 123	1.2139e+01	4.8544	12.531269	0.000294	2.941526	0.996616	0.000118
 124	1.2239e+01	4.8961	12.696792	0.000416	4.158709	1.409009	0.000166
 125	1.2338e+01	4.9442	12.858277	0.000406	4.057277	1.374643	0.000162
 126	1.2438e+01	4.9699	13.056097	0.000497	4.970164	1.683937	0.000199
 127	1.2537e+01	5.0180	13.237768	0.000456	4.564437	1.546473	0.000183
 128	1.2636e+01	5.0533	13.395216	0.000396	3.955845	1.340277	0.000158
 129	1.2736e+01	5.0983	13.572850	0.000446	4.463005	1.512107	0.000179
 130	1.2835e+01	5.1368	13.742410	0.000426	4.260141	1.443375	0.000170
 131	1.2935e+01	5.1817	13.891784	0.000375	3.752981	1.271544	0.000150
 132	1.3034e+01	5.2234	14.089604	0.000497	4.970164	1.683937	0.000199
 133	1.3134e+01	5.2635	14.222829	0.000335	3.347254	1.134080	0.000134
 134	1.3233e+01	5.3052	14.396426	0.000436	4.361573	1.477741	0.000174
 135	1.3333e+01	5.3325	14.557911	0.000406	4.057277	1.374643	0.000162
 136	1.3432e+01	5.3742	14.723434	0.000416	4.158709	1.409009	0.000166
 137	1.3532e+01	5.4191	14.856660	0.000335	3.347254	1.134080	0.000134
 138	1.3632e+01	5.4576	15.022182	0.000416	4.158709	1.409009	0.000166
 139	1.3731e+01	5.4945	15.187705	0.000416	4.158709	1.409009	0.000166
 140	1.3831e+01	5.5394	15.349190	0.000406	4.057277	1.374643	0.000162
 141	1.3930e+01	5.5747	15.506638	0.000396	3.955845	1.340277	0.000158
 142	1.4030e+01	5.6164	15.656012	0.000375	3.752981	1.271544	0.000150
 143	1.4129e+01	5.6485	15.789238	0.000335	3.347254	1.134080	0.000134
 144	1.4229e+01	5.6950	16.011280	0.000558	5.578756	1.890134	0.000223
 145	1.4328e+01	5.7319	16.201026	0.000477	4.767300	1.615205	0.000191
 146	1.4428e+01	5.7784	16.378660	0.000446	4.463005	1.512107	0.000179
 147	1.4527e+01	5.8121	16.515922	0.000345	3.448685	1.168446	0.000138
 148	1.4627e+01	5.8426	16.665296	0.000375	3.752981	1.271544	0.000150
 149	1.4726e+01	5.8940	16.838893	0.000436	4.361573	1.477741	0.000174
 150	1.4825e+01	5.9405	17.016527	0.000446	4.463005	1.512107	0.000179
 151	1.4925e+01	5.9774	17.153790	0.000345	3.448685	1.168446	0.000138
 152	1.5024e+01	6.0143	17.327387	0.000436	4.361573	1.477741	0.000174
 153	1.5124e+01	6.0480	17.456575	0.000325	3.245822	1.099714	0.000130
 154	1.5223e+01	6.0961	17.618060	0.000406	4.057277	1.374643	0.000162
 155	1.5323e+01	6.1362	17.775509	0.000396	3.955845	1.340277	0.000158
 156	1.5422e+01	6.1747	17.936994	0.000406	4.057277	1.374643	0.000162
 157	1.5522e+01	6.2164	18.090405	0.000385	3.854413	1.305911	0.000154
 158	1.5621e+01	6.2661	18.276113	0.000467	4.665869	1.580839	0.000187
 159	1.5721e+01	6.2966	18.364930	0.000223	2.231502	0.756053	0.000089
 160	1.5820e+01	6.3335	18.518342	0.000385	3.854413	1.305911	0.000154
 161	1.5920e+01	6.3800	18.651567	0.000335	3.347254	1.134080	0.000134
 162	1.6020e+01	6.4185	18.845350	0.000487	4.868732	1.649571	0.000195
 163	1.6119e+01	6.4538	19.051244	0.000517	5.173028	1.752669	0.000207
 164	1.6218e+01	6.4939	19.188506	0.000345	3.448685	1.168446	0.000138
 165	1.6318e+01	6.5405	19.358066	0.000426	4.260141	1.443375	0.000170
 166	1.6418e+01	6.5741	19.487254	0.000325	3.245822	1.099714	0.000130
 167	1.6517e+01	6.6143	19.681037	0.000487	4.868732	1.649571	0.000195
 168	1.6616e+01	6.6544	19.846559	0.000416	4.158709	1.409009	0.000166
 169	1.6716e+01	6.6832	20.036305	0.000477	4.767300	1.615205	0.000191
 170	1.6816e+01	6.7330	20.169530	0.000335	3.347254	1.134080	0.000134
 171	1.6915e+01	6.7650	20.335053	0.000416	4.158709	1.409009	0.000166
 172	1.7015e+01	6.8116	20.528835	0.000487	4.868732	1.649571	0.000195
 173	1.7114e+01	6.8517	20.649949	0.000304	3.042958	1.030982	0.000122
 174	1.7213e+01	6.8838	20.819509	0.000426	4.260141	1.443375	0.000170
 175	1.7313e+01	6.9351	20.952734	0.000335	3.347254	1.134080	0.000134
 176	1.7413e+01	6.9736	21.081923	0.000325	3.245822	1.099714	0.000130
 177	1.7512e+01	7.0041	21.219185	0.000345	3.448685	1.168446	0.000138
 178	1.7611e+01	7.0554	21.368559	0.000375	3.752981	1.271544	0.000150
 179	1.7711e+01	7.0859	21.534082	0.000416	4.158709	1.409009	0.000166
 180	1.7811e+01	7.1356	21.723827	0.000477	4.767300	1.615205	0.000191
 181	1.7910e+01	7.1789	21.909536	0.000467	4.665869	1.580839	0.000187
 182	1.8009e+01	7.2158	22.095244	0.000467	4.665869	1.580839	0.000187
 183	1.8109e+01	7.2479	22.220395	0.000314	3.144390	1.065348	0.000126
 184	1.8209e+01	7.2816	22.373806	0.000385	3.854413	1.305911	0.000154
 185	1.8308e+01	7.3265	22.563552	0.000477	4.767300	1.615205	0.000191
 186	1.8407e+01	7.3666	22.692740	0.000325	3.245822	1.099714	0.000130
 187	1.8507e+01	7.4100	22.878448	0.000467	4.665869	1.580839	0.000187
 188	1.8607e+01	7.4501	22.975339	0.000243	2.434366	0.824786	0.000097
 189	1.8706e+01	7.4870	23.217568	0.000609	6.085915	2.061964	0.000243
 190	1.8805e+01	7.5255	23.346756	0.000325	3.245822	1.099714	0.000130
 191	1.8905e+01	7.5591	23.528427	0.000456	4.564437	1.546473	0.000183
 192	1.9005e+01	7.6073	23.649541	0.000304	3.042958	1.030982	0.000122
 193	1.9104e+01	7.6618	23.806989	0.000396	3.955845	1.340277	0.000158
 194	1.9203e+01	7.6907	23.924066	0.000294	2.941526	0.996616	0.000118
 195	1.9303e+01	7.7276	24.049218	0.000314	3.144390	1.065348	0.000126
 196	1.9402e+01	7.7565	24.255112	0.000517	5.173028	1.752669	0.000207
 197	1.9502e+01	7.7998	24.444857	0.000477	4.767300	1.615205	0.000191
 198	1.9602e+01	7.8431	24.590194	0.000365	3.651549	1.237178	0.000146
 199	1.9701e+01	7.8832	24.783976	0.000487	4.868732	1.649571	0.000195
 200	1.9800e+01	7.9265	24.929313	0.000365	3.651549	1.237178	0.000146
 201	1.9900e+01	7.9682	25.098873	0.000426	4.260141	1.443375	0.000170
 202	2.0000e+01	8.0035	25.256321	0.000396	3.955845	1.340277	0.000158
 203	2.0099e+01	8.0484	25.393584	0.000345	3.448685	1.168446	0.000138
 204	2.0198e+01	8.0789	25.571218	0.000446	4.463005	1.512107	0.000179
 205	2.0298e+01	8.1238	25.732703	0.000406	4.057277	1.374643	0.000162
 206	2.0398e+01	8.1671	25.869966	0.000345	3.448685	1.168446	0.000138
 207	2.0497e+01	8.2073	26.059711	0.000477	4.767300	1.615205	0.000191
 208	2.0596e+01	8.2393	26.229271	0.000426	4.260141	1.443375	0.000170
 209	2.0696e+01	8.2794	26.358459	0.000325	3.245822	1.099714	0.000130
 210	2.0796e+01	8.3308	26.523982	0.000416	4.158709	1.409009	0.000166
 211	2.0895e+01	8.3661	26.645096	0.000304	3.042958	1.030982	0.000122
 212	2.0994e+01	8.4078	26.806581	0.000406	4.057277	1.374643	0.000162
 213	2.1094e+01	8.4463	26.959992	0.000385	3.854413	1.305911	0.000154
 214	2.1194e+01	8.4896	27.093218	0.000335	3.347254	1.134080	0.000134
 215	2.1293e+01	8.5169	27.242592	0.000375	3.752981	1.271544	0.000150
 216	2.1392e+01	8.5618	27.391966	0.000375	3.752981	1.271544	0.000150
 217	2.1492e+01	8.5987	27.573637	0.000456	4.564437	1.546473	0.000183
 218	2.1591e+01	8.6372	27.735123	0.000406	4.057277	1.374643	0.000162
 219	2.1691e+01	8.6869	27.912756	0.000446	4.463005	1.512107	0.000179
 220	2.1791e+01	8.7270	28.082316	0.000426	4.260141	1.443375	0.000170
 221	2.1890e+01	8.7543	28.231690	0.000375	3.752981	1.271544	0.000150
 222	2.1989e+01	8.8056	28.364916	0.000335	3.347254	1.134080	0.000134
 223	2.2089e+01	8.8393	28.542550	0.000446	4.463005	1.512107	0.000179
 224	2.2189e+01	8.8858	28.720184	0.000446	4.463005	1.512107	0.000179
 225	2.2288e+01	8.9243	28.833223	0.000284	2.840094	0.962250	0.000114
 226	2.2387e+01	8.9628	29.027006	0.000487	4.868732	1.649571	0.000195
 227	2.2487e+01	9.0030	29.144083	0.000294	2.941526	0.996616	0.000118
 228	2.2587e+01	9.0366	29.309605	0.000416	4.158709	1.409009	0.000166
 229	2.2686e+01	9.0880	29.491277	0.000456	4.564437	1.546473	0.000183
 230	2.2785e+01	9.1136	29.640651	0.000375	3.752981	1.271544	0.000150
 231	2.2885e+01	9.1650	29.753690	0.000284	2.840094	0.962250	0.000114
 232	2.2985e+01	9.2019	29.894990	0.000355	3.550117	1.202812	0.000142
 233	2.3084e+01	9.2372	30.044364	0.000375	3.752981	1.271544	0.000150
 234	2.3183e+01	9.2869	30.234110	0.000477	4.767300	1.615205	0.000191
 235	2.3283e+01	9.3222	30.407706	0.000436	4.361573	1.477741	0.000174
 236	2.3383e+01	9.3687	30.569192	0.000406	4.057277	1.374643	0.000162
 237	2.3482e+01	9.4088	30.734714	0.000416	4.158709	1.409009	0.000166
 238	2.3581e+01	9.4409	30.920423	0.000467	4.665869	1.580839	0.000187
 239	2.3681e+01	9.4826	31.061722	0.000355	3.550117	1.202812	0.000142
 240	2.3780e+01	9.5227	31.207059	0.000365	3.651549	1.237178	0.000146
 241	2.3880e+01	9.5596	31.368545	0.000406	4.057277	1.374643	0.000162
 242	2.3980e+01	9.6029	31.582513	0.000538	5.375892	1.821402	0.000215
 243	2.4079e+01	9.6430	31.727850	0.000365	3.651549	1.237178	0.000146
 244	2.4178e+01	9.6864	31.881261	0.000385	3.854413	1.305911	0.000154
 245	2.4278e+01	9.7249	32.030635	0.000375	3.752981	1.271544	0.000150
 246	2.4378e+01	9.7602	32.204232	0.000436	4.361573	1.477741	0.000174
 247	2.4477e+01	9.8035	32.345532	0.000355	3.550117	1.202812	0.000142
 248	2.4576e+01	9.8339	32.470683	0.000314	3.144390	1.065348	0.000126
 249	2.4676e+01	9.8789	32.640242	0.000426	4.260141	1.443375	0.000170
 250	2.4776e+01	9.9158	32.761357	0.000304	3.042958	1.030982	0.000122
 251	2.4875e+01	9.9639	32.898619	0.000345	3.448685	1.168446	0.000138
 252	2.4974e+01	10.0008	33.100476	0.000507	5.071596	1.718303	0.000203
 253	2.5074e+01	10.0393	33.261961	0.000406	4.057277	1.374643	0.000162
 254	2.5174e+01	10.0826	33.423447	0.000406	4.057277	1.374643	0.000162
 255	2.5273e+01	10.1179	33.580895	0.000396	3.955845	1.340277	0.000158
 256	2.5372e+01	10.1564	33.730269	0.000375	3.752981	1.271544	0.000150
 257	2.5472e+01	10.1949	33.920014	0.000477	4.767300	1.615205	0.000191
 258	2.5572e+01	10.2318	34.024980	0.000264	2.637230	0.893518	0.000105
 259	2.5671e+01	10.2799	34.206651	0.000456	4.564437	1.546473	0.000183
 260	2.5770e+01	10.3184	34.364099	0.000396	3.955845	1.340277	0.000158
 261	2.5870e+01	10.3521	34.541733	0.000446	4.463005	1.512107	0.000179
 262	2.5970e+01	10.4083	34.662847	0.000304	3.042958	1.030982	0.000122
 263	2.6069e+01	10.4387	34.848556	0.000467	4.665869	1.580839	0.000187
 264	2.6169e+01	10.4788	35.030227	0.000456	4.564437	1.546473	0.000183
 265	2.6268e+01	10.5174	35.167489	0.000345	3.448685	1.168446	0.000138
 266	2.6367e+01	10.5559	35.308789	0.000355	3.550117	1.202812	0.000142
 267	2.6467e+01	10.5960	35.393569	0.000213	2.130070	0.721687	0.000085
 268	2.6567e+01	10.6377	35.555054	0.000406	4.057277	1.374643	0.000162
 269	2.6666e+01	10.6730	35.740763	0.000467	4.665869	1.580839	0.000187
 270	2.6765e+01	10.7195	35.942619	0.000507	5.071596	1.718303	0.000203
 271	2.6865e+01	10.7516	36.035474	0.000233	2.332934	0.790420	0.000093
 272	2.6965e+01	10.7901	36.249442	0.000538	5.375892	1.821402	0.000215
 273	2.7064e+01	10.8318	36.358444	0.000274	2.738662	0.927884	0.000110
 274	2.7163e+01	10.8671	36.544153	0.000467	4.665869	1.580839	0.000187
 275	2.7263e+01	10.9072	36.657193	0.000284	2.840094	0.962250	0.000114
 276	2.7363e+01	10.9473	36.838864	0.000456	4.564437	1.546473	0.000183
 277	2.7462e+01	10.9922	37.000349	0.000406	4.057277	1.374643	0.000162
 278	2.7561e+01	11.0355	37.157797	0.000396	3.955845	1.340277	0.000158
 279	2.7661e+01	11.0836	37.295060	0.000345	3.448685	1.168446	0.000138
 280	2.7761e+01	11.1125	37.472694	0.000446	4.463005	1.512107	0.000179
 281	2.7860e+01	11.1526	37.593808	0.000304	3.042958	1.030982	0.000122
 282	2.7959e+01	11.1879	37.795665	0.000507	5.071596	1.718303	0.000203
 283	2.8059e+01	11.2360	37.900630	0.000264	2.637230	0.893518	0.000105
 284	2.8159e+01	11.2729	38.066153	0.000416	4.158709	1.409009	0.000166
 285	2.8258e+01	11.3147	38.247824	0.000456	4.564437	1.546473	0.000183
 286	2.8358e+01	11.3548	38.356827	0.000274	2.738662	0.927884	0.000110
 287	2.8457e+01	11.3997	38.530423	0.000436	4.361573	1.477741	0.000174
 288	2.8556e+01	11.4414	38.659612	0.000325	3.245822	1.099714	0.000130
 289	2.8656e+01	11.4751	38.849357	0.000477	4.767300	1.615205	0.000191
 290	2.8756e+01	11.5136	38.966434	0.000294	2.941526	0.996616	0.000118
 291	2.8855e+01	11.5585	39.115808	0.000375	3.752981	1.271544	0.000150
 292	2.8954e+01	11.5890	39.301516	0.000467	4.665869	1.580839	0.000187
 293	2.9054e+01	11.6387	39.446853	0.000365	3.651549	1.237178	0.000146
 294	2.9154e+01	11.6756	39.572005	0.000314	3.144390	1.065348	0.000126
 295	2.9253e+01	11.7061	39.769824	0.000497	4.970164	1.683937	0.000199
 296	2.9352e+01	11.7494	39.919198	0.000375	3.752981	1.271544	0.000150
 297	2.9452e+01	11.7943	40.084721	0.000416	4.158709	1.409009	0.000166
 298	2.9552e+01	11.8296	40.197761	0.000284	2.840094	0.962250	0.000114
 299	2.9651e+01	11.8713	40.375395	0.000446	4.463005	1.512107	0.000179
 300	2.9750e+01	11.9114	40.532843	0.000396	3.955845	1.340277	0.000158
 301	2.9850e+01	11.9419	40.710477	0.000446	4.463005	1.512107	0.000179
 302	2.9950e+01	11.9932	40.835628	0.000314	3.144390	1.065348	0.000126
 303	3.0049e+01	12.0334	40.964816	0.000325	3.245822	1.099714	0.000130
 304	3.0148e+01	12.0799	41.122265	0.000396	3.955845	1.340277	0.000158
 305	3.0248e+01	12.1136	41.263564	0.000355	3.550117	1.202812	0.000142
 306	3.0348e+01	12.1473	41.457347	0.000487	4.868732	1.649571	0.000195
 307	3.0447e+01	12.1954	41.614795	0.000396	3.955845	1.340277	0.000158
 308	3.0547e+01	12.2307	41.739946	0.000314	3.144390	1.065348	0.000126
 309	3.0646e+01	12.2724	41.901432	0.000406	4.057277	1.374643	0.000162
 310	3.0745e+01	12.3077	42.095214	0.000487	4.868732	1.649571	0.000195
 311	3.0845e+01	12.3526	42.220366	0.000314	3.144390	1.065348	0.000126
 312	3.0945e+01	12.3911	42.389925	0.000426	4.260141	1.443375	0.000170
 313	3.1044e+01	12.4200	42.535262	0.000365	3.651549	1.237178	0.000146
 314	3.1143e+01	12.4553	42.664450	0.000325	3.245822	1.099714	0.000130
 315	3.1243e+01	12.5050	42.834010	0.000426	4.260141	1.443375	0.000170
 316	3.1343e+01	12.5579	42.991458	0.000396	3.955845	1.340277	0.000158
 317	3.1442e+01	12.5884	43.120647	0.000325	3.245822	1.099714	0.000130
 318	3.1541e+01	12.6253	43.322504	0.000507	5.071596	1.718303	0.000203
 319	3.1641e+01	12.6638	43.415358	0.000233	2.332934	0.790420	0.000093
 320	3.1741e+01	12.7023	43.560695	0.000365	3.651549	1.237178	0.000146
 321	3.1840e+01	12.7472	43.734291	0.000436	4.361573	1.477741	0.000174
 322	3.1939e+01	12.7873	43.863480	0.000325	3.245822	1.099714	0.000130
 323	3.2039e+01	12.8242	43.984594	0.000304	3.042958	1.030982	0.000122
 324	3.2139e+01	12.8740	44.162228	0.000446	4.463005	1.512107	0.000179
 325	3.2238e+01	12.9109	44.299490	0.000345	3.448685	1.168446	0.000138
 326	3.2337e+01	12.9510	44.432716	0.000335	3.347254	1.134080	0.000134
 327	3.2437e+01	12.9815	44.610350	0.000446	4.463005	1.512107	0.000179
 328	3.2536e+01	13.0360	44.755687	0.000365	3.651549	1.237178	0.000146
 329	3.2636e+01	13.0569	44.896987	0.000355	3.550117	1.202812	0.000142
 330	3.2736e+01	13.1066	45.078658	0.000456	4.564437	1.546473	0.000183
 331	3.2835e+01	13.1483	45.175549	0.000243	2.434366	0.824786	0.000097
 332	3.2934e+01	13.1868	45.324923	0.000375	3.752981	1.271544	0.000150
 333	3.3034e+01	13.2189	45.474297	0.000375	3.752981	1.271544	0.000150
 334	3.3133e+01	13.2542	45.639820	0.000416	4.158709	1.409009	0.000166
 335	3.3233e+01	13.3023	45.789194	0.000375	3.752981	1.271544	0.000150
 336	3.3333e+01	13.3440	45.938568	0.000375	3.752981	1.271544	0.000150
 337	3.3432e+01	13.3777	46.091979	0.000385	3.854413	1.305911	0.000154
 338	3.3532e+01	13.4226	46.273650	0.000456	4.564437	1.546473	0.000183
 339	3.3631e+01	13.4627	46.390727	0.000294	2.941526	0.996616	0.000118
 340	3.3730e+01	13.5028	46.519915	0.000325	3.245822	1.099714	0.000130
 341	3.3830e+01	13.5365	46.620844	0.000254	2.535798	0.859152	0.000101
 342	3.3929e+01	13.5830	46.774255	0.000385	3.854413	1.305911	0.000154
 343	3.4029e+01	13.6215	47.012446	0.000598	5.984484	2.027598	0.000239
 344	3.4129e+01	13.6520	47.133560	0.000304	3.042958	1.030982	0.000122
 345	3.4228e+01	13.6985	47.266785	0.000335	3.347254	1.134080	0.000134
 346	3.4328e+01	13.7435	47.440382	0.000436	4.361573	1.477741	0.000174
 347	3.4427e+01	13.7804	47.581682	0.000355	3.550117	1.202812	0.000142
 348	3.4526e+01	13.8237	47.739130	0.000396	3.955845	1.340277	0.000158
 349	3.4626e+01	13.8670	47.864281	0.000314	3.144390	1.065348	0.000126
 350	3.4725e+01	13.8943	48.054027	0.000477	4.767300	1.615205	0.000191
 351	3.4825e+01	13.9440	48.187252	0.000335	3.347254	1.134080	0.000134
 352	3.4925e+01	13.9825	48.300292	0.000284	2.840094	0.962250	0.000114
 353	3.5024e+01	14.0178	48.490037	0.000477	4.767300	1.615205	0.000191
 354	3.5123e+01	14.0547	48.635374	0.000365	3.651549	1.237178	0.000146
 355	3.5223e+01	14.1012	48.792823	0.000396	3.955845	1.340277	0.000158
 356	3.5322e+01	14.1445	48.958345	0.000416	4.158709	1.409009	0.000166
 357	3.5422e+01	14.1846	49.091571	0.000335	3.347254	1.134080	0.000134
 358	3.5522e+01	14.2231	49.249019	0.000396	3.955845	1.340277	0.000158
 359	3.5621e+01	14.2648	49.337836	0.000223	2.231502	0.756053	0.000089
 360	3.5721e+01	14.3017	49.527581	0.000477	4.767300	1.615205	0.000191
 361	3.5820e+01	14.3467	49.668881	0.000355	3.550117	1.202812	0.000142
 362	3.5919e+01	14.3852	49.794032	0.000314	3.144390	1.065348	0.000126
 363	3.6019e+01	14.4253	49.979740	0.000467	4.665869	1.580839	0.000187
 364	3.6118e+01	14.4606	50.112966	0.000335	3.347254	1.134080	0.000134
 365	3.6218e+01	14.5071	50.258303	0.000365	3.651549	1.237178	0.000146
 366	3.6318e+01	14.5456	50.399603	0.000355	3.550117	1.202812	0.000142
 367	3.6417e+01	14.5809	50.557051	0.000396	3.955845	1.340277	0.000158
 368	3.6517e+01	14.6194	50.682202	0.000314	3.144390	1.065348	0.000126
 369	3.6616e+01	14.6579	50.884059	0.000507	5.071596	1.718303	0.000203
 370	3.6715e+01	14.7060	51.021321	0.000345	3.448685	1.168446	0.000138
 371	3.6815e+01	14.7269	51.174733	0.000385	3.854413	1.305911	0.000154
 372	3.6914e+01	14.7766	51.344292	0.000426	4.260141	1.443375	0.000170
 373	3.7014e+01	14.8167	51.469444	0.000314	3.144390	1.065348	0.000126
 374	3.7114e+01	14.8536	51.614780	0.000365	3.651549	1.237178	0.000146
 375	3.7213e+01	14.9001	51.764154	0.000375	3.752981	1.271544	0.000150
 376	3.7313e+01	14.9306	51.901417	0.000345	3.448685	1.168446	0.000138
 377	3.7412e+01	14.9691	52.075014	0.000436	4.361573	1.477741	0.000174
 378	3.7511e+01	15.0140	52.224388	0.000375	3.752981	1.271544	0.000150
 379	3.7611e+01	15.0557	52.349539	0.000314	3.144390	1.065348	0.000126
 380	3.7711e+01	15.0942	52.482765	0.000335	3.347254	1.134080	0.000134
 381	3.7810e+01	15.1343	52.607916	0.000314	3.144390	1.065348	0.000126
 382	3.7910e+01	15.1776	52.777476	0.000426	4.260141	1.443375	0.000170
 383	3.8009e+01	15.2129	52.906664	0.000325	3.245822	1.099714	0.000130
 384	3.8108e+01	15.2546	53.076224	0.000426	4.260141	1.443375	0.000170
 385	3.8208e+01	15.2948	53.213486	0.000345	3.448685	1.168446	0.000138
 386	3.8307e+01	15.3333	53.342675	0.000325	3.245822	1.099714	0.000130
 387	3.8407e+01	15.3766	53.552606	0.000527	5.274460	1.787035	0.000211
 388	3.8507e+01	15.4183	53.649497	0.000243	2.434366	0.824786	0.000097
 389	3.8606e+01	15.4568	53.786759	0.000345	3.448685	1.168446	0.000138
 390	3.8706e+01	15.4921	53.964393	0.000446	4.463005	1.512107	0.000179
 391	3.8805e+01	15.5306	54.117805	0.000385	3.854413	1.305911	0.000154
 392	3.8904e+01	15.5787	54.234882	0.000294	2.941526	0.996616	0.000118
 393	3.9004e+01	15.6076	54.436738	0.000507	5.071596	1.718303	0.000203
 394	3.9103e+01	15.6509	54.553815	0.000294	2.941526	0.996616	0.000118
 395	3.9203e+01	15.6894	54.715301	0.000406	4.057277	1.374643	0.000162
 396	3.9303e+01	15.7279	54.832378	0.000294	2.941526	0.996616	0.000118
 397	3.9402e+01	15.7712	54.985789	0.000385	3.854413	1.305911	0.000154
 398	3.9502e+01	15.8145	55.106903	0.000304	3.042958	1.030982	0.000122
 399	3.9601e+01	15.8514	55.256277	0.000375	3.752981	1.271544	0.000150
 400	3.9700e+01	15.8963	55.405651	0.000375	3.752981	1.271544	0.000150
 401	3.9800e+01	15.9397	55.546951	0.000355	3.550117	1.202812	0.000142
 402	3.9900e+01	15.9717	55.692288	0.000365	3.651549	1.237178	0.000146
 403	3.9999e+01	16.0135	55.898181	0.000517	5.173028	1.752669	0.000207
 404	4.0099e+01	16.0487	56.047555	0.000375	3.752981	1.271544	0.000150
 405	4.0198e+01	16.0889	56.172707	0.000314	3.144390	1.065348	0.000126
 406	4.0297e+01	16.1370	56.330155	0.000396	3.955845	1.340277	0.000158
 407	4.0397e+01	16.1626	56.443195	0.000284	2.840094	0.962250	0.000114
 408	4.0496e+01	16.2124	56.645052	0.000507	5.071596	1.718303	0.000203
 409	4.0596e+01	16.2525	56.778277	0.000335	3.347254	1.134080	0.000134
 410	4.0696e+01	16.2878	56.935725	0.000396	3.955845	1.340277	0.000158
 411	4.0795e+01	16.3359	57.105285	0.000426	4.260141	1.443375	0.000170
 412	4.0895e+01	16.3632	57.238510	0.000335	3.347254	1.134080	0.000134
 413	4.0994e+01	16.4097	57.399996	0.000406	4.057277	1.374643	0.000162
 414	4.1093e+01	16.4466	57.529184	0.000325	3.245822	1.099714	0.000130
 415	4.1193e+01	16.4899	57.686633	0.000396	3.955845	1.340277	0.000158
 416	4.1292e+01	16.5268	57.827932	0.000355	3.550117	1.202812	0.000142
 417	4.1392e+01	16.5685	57.965195	0.000345	3.448685	1.168446	0.000138
 418	4.1492e+01	16.6102	58.110532	0.000365	3.651549	1.237178	0.000146
 419	4.1591e+01	16.6503	58.247794	0.000345	3.448685	1.168446	0.000138
 420	4.1691e+01	16.6888	58.376983	0.000325	3.245822	1.099714	0.000130
 421	4.1790e+01	16.7273	58.526357	0.000375	3.752981	1.271544	0.000150
 422	4.1889e+01	16.7723	58.667657	0.000355	3.550117	1.202812	0.000142
 423	4.1989e+01	16.8059	58.861439	0.000487	4.868732	1.649571	0.000195
 424	4.2089e+01	16.8444	58.950256	0.000223	2.231502	0.756053	0.000089
 425	4.2188e+01	16.8926	59.152113	0.000507	5.071596	1.718303	0.000203
 426	4.2288e+01	16.9263	59.285338	0.000335	3.347254	1.134080	0.000134
 427	4.2387e+01	16.9680	59.426638	0.000355	3.550117	1.202812	0.000142
 428	4.2486e+01	17.0033	59.600235	0.000436	4.361573	1.477741	0.000174
 429	4.2586e+01	17.0498	59.721349	0.000304	3.042958	1.030982	0.000122
 430	4.2685e+01	17.0851	59.890909	0.000426	4.260141	1.443375	0.000170
 431	4.2785e+01	17.1284	60.024134	0.000335	3.347254	1.134080	0.000134
 432	4.2885e+01	17.1765	60.116988	0.000233	2.332934	0.790420	0.000093
 433	4.2984e+01	17.1974	60.290585	0.000436	4.361573	1.477741	0.000174
 434	4.3084e+01	17.2375	60.464182	0.000436	4.361573	1.477741	0.000174
 435	4.3183e+01	17.2808	60.601445	0.000345	3.448685	1.168446	0.000138
 436	4.3282e+01	17.3289	60.718522	0.000294	2.941526	0.996616	0.000118
 437	4.3382e+01	17.3674	60.871933	0.000385	3.854413	1.305911	0.000154
 438	4.3481e+01	17.3947	61.021307	0.000375	3.752981	1.271544	0.000150
 439	4.3581e+01	17.4492	61.186829	0.000416	4.158709	1.409009	0.000166
 440	4.3681e+01	17.4910	61.324092	0.000345	3.448685	1.168446	0.000138
 441	4.3780e+01	17.5262	61.457317	0.000335	3.347254	1.134080	0.000134
 442	4.3880e+01	17.5712	61.606691	0.000375	3.752981	1.271544	0.000150
 443	4.3979e+01	17.6000	61.768177	0.000406	4.057277	1.374643	0.000162
 444	4.4078e+01	17.6417	61.913514	0.000365	3.651549	1.237178	0.000146
 445	4.4178e+01	17.6883	62.050776	0.000345	3.448685	1.168446	0.000138
 446	4.4278e+01	17.7236	62.224373	0.000436	4.361573	1.477741	0.000174
 447	4.4377e+01	17.7637	62.337413	0.000284	2.840094	0.962250	0.000114
 448	4.4477e+01	17.8038	62.498898	0.000406	4.057277	1.374643	0.000162
 449	4.4576e+01	17.8519	62.660384	0.000406	4.057277	1.374643	0.000162
 450	4.4675e+01	17.8888	62.785535	0.000314	3.144390	1.065348	0.000126
 451	4.4775e+01	17.9177	62.882426	0.000243	2.434366	0.824786	0.000097
 452	4.4874e+01	17.9546	63.080246	0.000497	4.970164	1.683937	0.000199
 453	4.4974e+01	18.0107	63.169063	0.000223	2.231502	0.756053	0.000089
 454	4.5074e+01	18.0412	63.334585	0.000416	4.158709	1.409009	0.000166
 455	4.5173e+01	18.0861	63.504145	0.000426	4.260141	1.443375	0.000170
 456	4.5273e+01	18.1278	63.596999	0.000233	2.332934	0.790420	0.000093
 457	4.5372e+01	18.1615	63.746373	0.000375	3.752981	1.271544	0.000150
 458	4.5471e+01	18.2032	63.911896	0.000416	4.158709	1.409009	0.000166
 459	4.5571e+01	18.2385	64.024936	0.000284	2.840094	0.962250	0.000114
 460	4.5670e+01	18.2883	64.190458	0.000416	4.158709	1.409009	0.000166
 461	4.5770e+01	18.3252	64.351944	0.000406	4.057277	1.374643	0.000162
 462	4.5870e+01	18.3637	64.477095	0.000314	3.144390	1.065348	0.000126
 463	4.5969e+01	18.4070	64.626469	0.000375	3.752981	1.271544	0.000150
 464	4.6069e+01	18.4471	64.779880	0.000385	3.854413	1.305911	0.000154
 465	4.6168e+01	18.4872	64.949440	0.000426	4.260141	1.443375	0.000170
 466	4.6267e+01	18.5209	65.106888	0.000396	3.955845	1.340277	0.000158
 467	4.6367e+01	18.5738	65.268373	0.000406	4.057277	1.374643	0.000162
 468	4.6467e+01	18.6091	65.353153	0.000213	2.130070	0.721687	0.000085
 469	4.6566e+01	18.6476	65.498490	0.000365	3.651549	1.237178	0.000146
 470	4.6666e+01	18.6829	65.619604	0.000304	3.042958	1.030982	0.000122
 471	4.6765e+01	18.7182	65.764941	0.000365	3.651549	1.237178	0.000146
 472	4.6864e+01	18.7647	65.934501	0.000426	4.260141	1.443375	0.000170
 473	4.6964e+01	18.8032	66.087912	0.000385	3.854413	1.305911	0.000154
 474	4.7063e+01	18.8449	66.225175	0.000345	3.448685	1.168446	0.000138
 475	4.7163e+01	18.8850	66.370512	0.000365	3.651549	1.237178	0.000146
 476	4.7263e+01	18.9203	66.519886	0.000375	3.752981	1.271544	0.000150
 477	4.7362e+01	18.9620	66.653111	0.000335	3.347254	1.134080	0.000134
 478	4.7462e+01	19.0070	66.778262	0.000314	3.144390	1.065348	0.000126
 479	4.7561e+01	19.0422	66.923599	0.000365	3.651549	1.237178	0.000146
 480	4.7660e+01	19.0888	67.085085	0.000406	4.057277	1.374643	0.000162
 481	4.7760e+01	19.1225	67.238496	0.000385	3.854413	1.305911	0.000154
 482	4.7859e+01	19.1610	67.367684	0.000325	3.245822	1.099714	0.000130
 483	4.7959e+01	19.1995	67.504947	0.000345	3.448685	1.168446	0.000138
 484	4.8059e+01	19.2396	67.694692	0.000477	4.767300	1.615205	0.000191
 485	4.8158e+01	19.2877	67.827918	0.000335	3.347254	1.134080	0.000134
 486	4.8258e+01	19.3198	67.961143	0.000335	3.347254	1.134080	0.000134
 487	4.8357e+01	19.3663	68.021700	0.000152	1.521479	0.515491	0.000061
 488	4.8456e+01	19.3968	68.175111	0.000385	3.854413	1.305911	0.000154
 489	4.8556e+01	19.4433	68.328522	0.000385	3.854413	1.305911	0.000154
 490	4.8656e+01	19.4834	68.457711	0.000325	3.245822	1.099714	0.000130
 491	4.8755e+01	19.5203	68.594973	0.000345	3.448685	1.168446	0.000138
 492	4.8855e+01	19.5620	68.740310	0.000365	3.651549	1.237178	0.000146
 493	4.8954e+01	19.5989	68.893721	0.000385	3.854413	1.305911	0.000154
 494	4.9053e+01	19.6390	69.002724	0.000274	2.738662	0.927884	0.000110
 495	4.9153e+01	19.6743	69.156135	0.000385	3.854413	1.305911	0.000154
 496	4.9252e+01	19.7176	69.285324	0.000325	3.245822	1.099714	0.000130
 497	4.9352e+01	19.7593	69.410475	0.000314	3.144390	1.065348	0.000126
 498	4.9452e+01	19.7994	69.575997	0.000416	4.158709	1.409009	0.000166
 499	4.9551e+01	19.8379	69.757668	0.000456	4.564437	1.546473	0.000183
 500	4.9651e+01	19.8748	69.850523	0.000233	2.332934	0.790420	0.000093
 501	4.9750e+01	19.9246	70.020082	0.000426	4.260141	1.443375	0.000170
 502	4.9849e+01	19.9583	70.193679	0.000436	4.361573	1.477741	0.000174
 503	4.9949e+01	19.9887	70.339016	0.000365	3.651549	1.237178	0.000146
 504	5.0048e+01	19.9615	70.189642	0.000375	3.752981	1.271544	-0.000150
 505	5.0148e+01	19.9182	70.092751	0.000243	2.434366	0.824786	-0.000097
 506	5.0248e+01	19.8925	69.939340	0.000385	3.854413	1.305911	-0.000154
 507	5.0347e+01	19.8428	69.798040	0.000355	3.550117	1.202812	-0.000142
 508	5.0447e+01	19.7946	69.725371	0.000183	1.825775	0.618589	-0.000073
 509	5.0546e+01	19.7658	69.600220	0.000314	3.144390	1.065348	-0.000126
 510	5.0645e+01	19.7160	69.499292	0.000254	2.535798	0.859152	-0.000101
 511	5.0745e+01	19.6775	69.382215	0.000294	2.941526	0.996616	-0.000118
 512	5.0844e+01	19.6310	69.273212	0.000274	2.738662	0.927884	-0.000110
 513	5.0944e+01	19.5877	69.144024	0.000325	3.245822	1.099714	-0.000130
 514	5.1044e+01	19.5604	69.063281	0.000203	2.028638	0.687321	-0.000081
 515	5.1143e+01	19.5187	68.946204	0.000294	2.941526	0.996616	-0.000118
 516	5.1242e+01	19.4834	68.804904	0.000355	3.550117	1.202812	-0.000142
 517	5.1342e+01	19.4385	68.679753	0.000314	3.144390	1.065348	-0.000126
 518	5.1441e+01	19.3984	68.586899	0.000233	2.332934	0.790420	-0.000093
 519	5.1541e+01	19.3631	68.510193	0.000193	1.927207	0.652955	-0.000077
 520	5.1641e+01	19.3069	68.397154	0.000284	2.840094	0.962250	-0.000114
 521	5.1740e+01	19.2797	68.267965	0.000325	3.245822	1.099714	-0.000130
 522	5.1840e+01	19.2396	68.154926	0.000284	2.840094	0.962250	-0.000114
 523	5.1939e+01	19.1930	68.033811	0.000304	3.042958	1.030982	-0.000122
 524	5.2038e+01	19.1545	67.860215	0.000436	4.361573	1.477741	-0.000174
 525	5.2138e+01	19.1144	67.743138	0.000294	2.941526	0.996616	-0.000118
 526	5.2237e+01	19.0936	67.666432	0.000193	1.927207	0.652955	-0.000077
 527	5.2337e+01	19.0519	67.513021	0.000385	3.854413	1.305911	-0.000154
 528	5.2437e+01	18.9909	67.408055	0.000264	2.637230	0.893518	-0.000105
 529	5.2536e+01	18.9508	67.270793	0.000345	3.448685	1.168446	-0.000138
 530	5.2636e+01	18.9235	67.157753	0.000284	2.840094	0.962250	-0.000114
 531	5.2735e+01	18.8770	67.024528	0.000335	3.347254	1.134080	-0.000134
 532	5.2834e+01	18.8401	66.919562	0.000264	2.637230	0.893518	-0.000105
 533	5.2934e+01	18.7984	66.762114	0.000396	3.955845	1.340277	-0.000158
 534	5.3033e+01	18.7599	66.649074	0.000284	2.840094	0.962250	-0.000114
 535	5.3133e+01	18.7294	66.572368	0.000193	1.927207	0.652955	-0.000077
 536	5.3233e+01	18.6893	66.459329	0.000284	2.840094	0.962250	-0.000114
 537	5.3332e+01	18.6476	66.390697	0.000172	1.724343	0.584223	-0.000069
 538	5.3431e+01	18.6075	66.241323	0.000375	3.752981	1.271544	-0.000150
 539	5.3531e+01	18.5658	66.128283	0.000284	2.840094	0.962250	-0.000114
 540	5.3630e+01	18.5257	65.966798	0.000406	4.057277	1.374643	-0.000162
 541	5.3730e+01	18.4824	65.861832	0.000264	2.637230	0.893518	-0.000105
 542	5.3830e+01	18.4455	65.744755	0.000294	2.941526	0.996616	-0.000118
 543	5.3929e+01	18.4118	65.559047	0.000467	4.665869	1.580839	-0.000187
 544	5.4029e+01	18.3620	65.450045	0.000274	2.738662	0.927884	-0.000110
 545	5.4128e+01	18.3187	65.345079	0.000264	2.637230	0.893518	-0.000105
 546	5.4227e+01	18.2802	65.175519	0.000426	4.260141	1.443375	-0.000170
 547	5.4327e+01	18.2417	65.070554	0.000264	2.637230	0.893518	-0.000105
 548	5.4426e+01	18.2032	64.953477	0.000294	2.941526	0.996616	-0.000118
 549	5.4526e+01	18.1663	64.848511	0.000264	2.637230	0.893518	-0.000105
 550	5.4626e+01	18.1182	64.674915	0.000436	4.361573	1.477741	-0.000174
 551	5.4725e+01	18.0845	64.561875	0.000284	2.840094	0.962250	-0.000114
 552	5.4825e+01	18.0380	64.456909	0.000264	2.637230	0.893518	-0.000105
 553	5.4924e+01	18.0011	64.311572	0.000365	3.651549	1.237178	-0.000146
 554	5.5023e+01	17.9594	64.255052	0.000142	1.420047	0.481125	-0.000057
 555	5.5123e+01	17.9241	64.097604	0.000396	3.955845	1.340277	-0.000158
 556	5.5222e+01	17.8824	63.992639	0.000264	2.637230	0.893518	-0.000105
 557	5.5322e+01	17.8519	63.839227	0.000385	3.854413	1.305911	-0.000154
 558	5.5422e+01	17.8054	63.722150	0.000294	2.941526	0.996616	-0.000118
 559	5.5521e+01	17.7669	63.588925	0.000335	3.347254	1.134080	-0.000134
 560	5.5620e+01	17.7268	63.459737	0.000325	3.245822	1.099714	-0.000130
 561	5.5720e+01	17.6883	63.314400	0.000365	3.651549	1.237178	-0.000146
 562	5.5819e+01	17.6514	63.201360	0.000284	2.840094	0.962250	-0.000114
 563	5.5919e+01	17.6081	63.047949	0.000385	3.854413	1.305911	-0.000154
 564	5.6019e+01	17.5728	62.926835	0.000304	3.042958	1.030982	-0.000122
 565	5.6118e+01	17.5327	62.781498	0.000365	3.651549	1.237178	-0.000146
 566	5.6218e+01	17.4845	62.664421	0.000294	2.941526	0.996616	-0.000118
 567	5.6317e+01	17.4541	62.539270	0.000314	3.144390	1.065348	-0.000126
 568	5.6416e+01	17.4091	62.389896	0.000375	3.752981	1.271544	-0.000150
 569	5.6516e+01	17.3594	62.293004	0.000243	2.434366	0.824786	-0.000097
 570	5.6615e+01	17.3305	62.151705	0.000355	3.550117	1.202812	-0.000142
 571	5.6715e+01	17.2904	62.070962	0.000203	2.028638	0.687321	-0.000081
 572	5.6815e+01	17.2439	61.961959	0.000274	2.738662	0.927884	-0.000110
 573	5.6914e+01	17.2102	61.844882	0.000294	2.941526	0.996616	-0.000118
 574	5.7014e+01	17.1653	61.731843	0.000284	2.840094	0.962250	-0.000114
 575	5.7113e+01	17.1268	61.610728	0.000304	3.042958	1.030982	-0.000122
 576	5.7212e+01	17.0851	61.473466	0.000345	3.448685	1.168446	-0.000138
 577	5.7312e+01	17.0418	61.356389	0.000294	2.941526	0.996616	-0.000118
 578	5.7411e+01	17.0113	61.235275	0.000304	3.042958	1.030982	-0.000122
 579	5.7511e+01	16.9648	61.106087	0.000325	3.245822	1.099714	-0.000130
 580	5.7611e+01	16.9359	60.964787	0.000355	3.550117	1.202812	-0.000142
 581	5.7710e+01	16.8846	60.783116	0.000456	4.564437	1.546473	-0.000183
 582	5.7809e+01	16.8444	60.686224	0.000243	2.434366	0.824786	-0.000097
 583	5.7909e+01	16.8059	60.516665	0.000426	4.260141	1.443375	-0.000170
 584	5.8008e+01	16.7690	60.431885	0.000213	2.130070	0.721687	-0.000085
 585	5.8108e+01	16.7370	60.290585	0.000355	3.550117	1.202812	-0.000142
 586	5.8208e+01	16.6888	60.121025	0.000426	4.260141	1.443375	-0.000170
 587	5.8307e+01	16.6535	60.028171	0.000233	2.332934	0.790420	-0.000093
 588	5.8407e+01	16.6166	59.927243	0.000254	2.535798	0.859152	-0.000101
 589	5.8506e+01	16.5637	59.850537	0.000193	1.927207	0.652955	-0.000077
 590	5.8605e+01	16.5332	59.721349	0.000325	3.245822	1.099714	-0.000130
 591	5.8705e+01	16.4899	59.592161	0.000325	3.245822	1.099714	-0.000130
 592	5.8804e+01	16.4546	59.479121	0.000284	2.840094	0.962250	-0.000114
 593	5.8904e+01	16.4113	59.329747	0.000375	3.752981	1.271544	-0.000150
 594	5.9004e+01	16.3680	59.200558	0.000325	3.245822	1.099714	-0.000130
 595	5.9103e+01	16.3311	59.055222	0.000365	3.651549	1.237178	-0.000146
 596	5.9203e+01	16.2942	58.942182	0.000284	2.840094	0.962250	-0.000114
 597	5.9302e+01	16.2525	58.808956	0.000335	3.347254	1.134080	-0.000134
 598	5.9401e+01	16.2108	58.671694	0.000345	3.448685	1.168446	-0.000138
 599	5.9501e+01	16.1707	58.494060	0.000446	4.463005	1.512107	-0.000179
 600	5.9600e+01	16.1274	58.364871	0.000325	3.245822	1.099714	-0.000130
 601	5.9700e+01	16.0872	58.255869	0.000274	2.738662	0.927884	-0.000110
 602	5.9800e+01	16.0455	58.086309	0.000426	4.260141	1.443375	-0.000170
 603	5.9899e+01	16.0151	57.961158	0.000314	3.144390	1.065348	-0.000126
 604	5.9998e+01	15.9766	57.831969	0.000325	3.245822	1.099714	-0.000130
 605	6.0098e+01	15.9413	57.722967	0.000274	2.738662	0.927884	-0.000110
 606	6.0197e+01	15.9012	57.581667	0.000355	3.550117	1.202812	-0.000142
 607	6.0297e+01	15.8594	57.529184	0.000132	1.318615	0.446759	-0.000053
 608	6.0397e+01	15.8161	57.391922	0.000345	3.448685	1.168446	-0.000138
 609	6.0496e+01	15.7824	57.230436	0.000406	4.057277	1.374643	-0.000162
 610	6.0596e+01	15.7215	57.085099	0.000365	3.651549	1.237178	-0.000146
 611	6.0695e+01	15.6878	57.004357	0.000203	2.028638	0.687321	-0.000081
 612	6.0794e+01	15.6509	56.846908	0.000396	3.955845	1.340277	-0.000158
 613	6.0894e+01	15.6172	56.741943	0.000264	2.637230	0.893518	-0.000105
 614	6.0993e+01	15.5787	56.604680	0.000345	3.448685	1.168446	-0.000138
 615	6.1093e+01	15.5306	56.467418	0.000345	3.448685	1.168446	-0.000138
 616	6.1193e+01	15.4953	56.330155	0.000345	3.448685	1.168446	-0.000138
 617	6.1292e+01	15.4552	56.176744	0.000385	3.854413	1.305911	-0.000154
 618	6.1392e+01	15.4167	56.043518	0.000335	3.347254	1.134080	-0.000134
 619	6.1491e+01	15.3766	55.890107	0.000385	3.854413	1.305911	-0.000154
 620	6.1590e+01	15.3349	55.748807	0.000355	3.550117	1.202812	-0.000142
 621	6.1690e+01	15.2932	55.607508	0.000355	3.550117	1.202812	-0.000142
 622	6.1789e+01	15.2514	55.454096	0.000385	3.854413	1.305911	-0.000154
 623	6.1889e+01	15.2178	55.341057	0.000284	2.840094	0.962250	-0.000114
 624	6.1989e+01	15.1744	55.260314	0.000203	2.028638	0.687321	-0.000081
 625	6.2088e+01	15.1327	55.123051	0.000345	3.448685	1.168446	-0.000138
 626	6.2188e+01	15.0894	55.026160	0.000243	2.434366	0.824786	-0.000097
 627	6.2287e+01	15.0525	54.888897	0.000345	3.448685	1.168446	-0.000138
 628	6.2386e+01	15.0108	54.723375	0.000416	4.158709	1.409009	-0.000166
 629	6.2486e+01	14.9707	54.606298	0.000294	2.941526	0.996616	-0.000118
 630	6.2586e+01	14.9338	54.469035	0.000345	3.448685	1.168446	-0.000138
 631	6.2685e+01	14.8905	54.392330	0.000193	1.927207	0.652955	-0.000077
 632	6.2785e+01	14.8616	54.242956	0.000375	3.752981	1.271544	-0.000150
 633	6.2884e+01	14.8199	54.081470	0.000406	4.057277	1.374643	-0.000162
 634	6.2983e+01	14.7798	53.940171	0.000355	3.550117	1.202812	-0.000142
 635	6.3083e+01	14.7381	53.810982	0.000325	3.245822	1.099714	-0.000130
 636	6.3182e+01	14.7044	53.685831	0.000314	3.144390	1.065348	-0.000126
 637	6.3282e+01	14.6482	53.504160	0.000456	4.564437	1.546473	-0.000183
 638	6.3382e+01	14.6194	53.370934	0.000335	3.347254	1.134080	-0.000134
 639	6.3481e+01	14.5777	53.237709	0.000335	3.347254	1.134080	-0.000134
 640	6.3581e+01	14.5360	53.104483	0.000335	3.347254	1.134080	-0.000134
 641	6.3680e+01	14.4926	53.007592	0.000243	2.434366	0.824786	-0.000097
 642	6.3779e+01	14.4590	52.870330	0.000345	3.448685	1.168446	-0.000138
 643	6.3879e+01	14.4172	52.745178	0.000314	3.144390	1.065348	-0.000126
 644	6.3978e+01	14.3803	52.656361	0.000223	2.231502	0.756053	-0.000089
 645	6.4078e+01	14.3354	52.494876	0.000406	4.057277	1.374643	-0.000162
 646	6.4177e+01	14.3001	52.357613	0.000345	3.448685	1.168446	-0.000138
 647	6.4277e+01	14.2632	52.240536	0.000294	2.941526	0.996616	-0.000118
 648	6.4376e+01	14.2167	52.103274	0.000345	3.448685	1.168446	-0.000138
 649	6.4476e+01	14.1782	51.937751	0.000416	4.158709	1.409009	-0.000166
 650	6.4576e+01	14.1397	51.828749	0.000274	2.738662	0.927884	-0.000110
 651	6.4675e+01	14.1044	51.683412	0.000365	3.651549	1.237178	-0.000146
 652	6.4775e+01	14.0579	51.542112	0.000355	3.550117	1.202812	-0.000142
 653	6.4874e+01	14.0210	51.408886	0.000335	3.347254	1.134080	-0.000134
 654	6.4974e+01	13.9825	51.263550	0.000365	3.651549	1.237178	-0.000146
 655	6.5073e+01	13.9296	51.049581	0.000538	5.375892	1.821402	-0.000215
 656	6.5172e+01	13.9071	50.924430	0.000314	3.144390	1.065348	-0.000126
 657	6.5272e+01	13.8622	50.783130	0.000355	3.550117	1.202812	-0.000142
 658	6.5371e+01	13.8173	50.662016	0.000304	3.042958	1.030982	-0.000122
 659	6.5471e+01	13.7739	50.565125	0.000243	2.434366	0.824786	-0.000097
 660	6.5570e+01	13.7419	50.427863	0.000345	3.448685	1.168446	-0.000138
 661	6.5670e+01	13.6937	50.310786	0.000294	2.941526	0.996616	-0.000118
 662	6.5769e+01	13.6665	50.205820	0.000264	2.637230	0.893518	-0.000105
 663	6.5869e+01	13.6231	50.024149	0.000456	4.564437	1.546473	-0.000183
 664	6.5969e+01	13.5798	49.882849	0.000355	3.550117	1.202812	-0.000142
 665	6.6068e+01	13.5365	49.733475	0.000375	3.752981	1.271544	-0.000150
 666	6.6168e+01	13.5028	49.620435	0.000284	2.840094	0.962250	-0.000114
 667	6.6267e+01	13.4627	49.511433	0.000274	2.738662	0.927884	-0.000110
 668	6.6367e+01	13.4178	49.366096	0.000365	3.651549	1.237178	-0.000146
 669	6.6466e+01	13.3729	49.212685	0.000385	3.854413	1.305911	-0.000154
 670	6.6566e+01	13.3376	49.055236	0.000396	3.955845	1.340277	-0.000158
 671	6.6665e+01	13.3023	48.905862	0.000375	3.752981	1.271544	-0.000150
 672	6.6764e+01	13.2558	48.720154	0.000467	4.665869	1.580839	-0.000187
 673	6.6864e+01	13.2189	48.595003	0.000314	3.144390	1.065348	-0.000126
 674	6.6963e+01	13.1836	48.490037	0.000264	2.637230	0.893518	-0.000105
 675	6.7063e+01	13.1483	48.316441	0.000436	4.361573	1.477741	-0.000174
 676	6.7162e+01	13.1130	48.158992	0.000396	3.955845	1.340277	-0.000158
 677	6.7262e+01	13.0649	48.086324	0.000183	1.825775	0.618589	-0.000073
 678	6.7362e+01	13.0312	47.969247	0.000294	2.941526	0.996616	-0.000118
 679	6.7461e+01	12.9847	47.819873	0.000375	3.752981	1.271544	-0.000150
 680	6.7561e+01	12.9494	47.710870	0.000274	2.738662	0.927884	-0.000110
 681	6.7660e+01	12.9157	47.553422	0.000396	3.955845	1.340277	-0.000158
 682	6.7760e+01	12.8627	47.408085	0.000365	3.651549	1.237178	-0.000146
 683	6.7859e+01	12.8307	47.242562	0.000416	4.158709	1.409009	-0.000166
 684	6.7959e+01	12.7889	47.129523	0.000284	2.840094	0.962250	-0.000114
 685	6.8058e+01	12.7392	47.028594	0.000254	2.535798	0.859152	-0.000101
 686	6.8157e+01	12.7071	46.846923	0.000456	4.564437	1.546473	-0.000183
 687	6.8257e+01	12.6686	46.729846	0.000294	2.941526	0.996616	-0.000118
 688	6.8356e+01	12.6301	46.556249	0.000436	4.361573	1.477741	-0.000174
 689	6.8456e+01	12.5820	46.390727	0.000416	4.158709	1.409009	-0.000166
 690	6.8555e+01	12.5483	46.213093	0.000446	4.463005	1.512107	-0.000179
 691	6.8655e+01	12.5050	46.108127	0.000264	2.637230	0.893518	-0.000105
 692	6.8754e+01	12.4713	45.974902	0.000335	3.347254	1.134080	-0.000134
 693	6.8854e+01	12.4328	45.865899	0.000274	2.738662	0.927884	-0.000110
 694	6.8954e+01	12.3975	45.704414	0.000406	4.057277	1.374643	-0.000162
 695	6.9053e+01	12.3526	45.607522	0.000243	2.434366	0.824786	-0.000097
 696	6.9153e+01	12.2980	45.433926	0.000436	4.361573	1.477741	-0.000174
 697	6.9252e+01	12.2692	45.288589	0.000365	3.651549	1.237178	-0.000146
 698	6.9352e+01	12.2323	45.159400	0.000325	3.245822	1.099714	-0.000130
 699	6.9451e+01	12.1906	45.034249	0.000314	3.144390	1.065348	-0.000126
 700	6.9550e+01	12.1489	44.876801	0.000396	3.955845	1.340277	-0.000158
 701	6.9650e+01	12.1023	44.783947	0.000233	2.332934	0.790420	-0.000093
 702	6.9749e+01	12.0735	44.610350	0.000436	4.361573	1.477741	-0.000174
 703	6.9849e+01	12.0317	44.493273	0.000294	2.941526	0.996616	-0.000118
 704	6.9948e+01	11.9884	44.343899	0.000375	3.752981	1.271544	-0.000150
 705	7.0048e+01	11.9499	44.190488	0.000385	3.854413	1.305911	-0.000154
 706	7.0147e+01	11.9227	44.045151	0.000365	3.651549	1.237178	-0.000146
 707	7.0247e+01	11.8697	43.887703	0.000396	3.955845	1.340277	-0.000158
 708	7.0347e+01	11.8344	43.758514	0.000325	3.245822	1.099714	-0.000130
 709	7.0446e+01	11.7847	43.560695	0.000497	4.970164	1.683937	-0.000199
 710	7.0546e+01	11.7494	43.419395	0.000355	3.550117	1.202812	-0.000142
 711	7.0645e+01	11.7029	43.314429	0.000264	2.637230	0.893518	-0.000105
 712	7.0745e+01	11.6692	43.181204	0.000335	3.347254	1.134080	-0.000134
 713	7.0844e+01	11.6195	43.068164	0.000284	2.840094	0.962250	-0.000114
 714	7.0944e+01	11.5874	42.910716	0.000396	3.955845	1.340277	-0.000158
 715	7.1043e+01	11.5569	42.769416	0.000355	3.550117	1.202812	-0.000142
 716	7.1142e+01	11.5136	42.640228	0.000325	3.245822	1.099714	-0.000130
 717	7.1242e+01	11.4799	42.511039	0.000325	3.245822	1.099714	-0.000130
 718	7.1341e+01	11.4302	42.341480	0.000426	4.260141	1.443375	-0.000170
 719	7.1441e+01	11.3949	42.240551	0.000254	2.535798	0.859152	-0.000101
 720	7.1540e+01	11.3564	42.014472	0.000568	5.680188	1.924500	-0.000227
 721	7.1640e+01	11.3114	41.905469	0.000274	2.738662	0.927884	-0.000110
 722	7.1740e+01	11.2697	41.812615	0.000233	2.332934	0.790420	-0.000093
 723	7.1839e+01	11.2248	41.639018	0.000436	4.361573	1.477741	-0.000174
 724	7.1939e+01	11.1975	41.505793	0.000335	3.347254	1.134080	-0.000134
 725	7.2038e+01	11.1494	41.316047	0.000477	4.767300	1.615205	-0.000191
 726	7.2138e+01	11.1077	41.178785	0.000345	3.448685	1.168446	-0.000138
 727	7.2237e+01	11.0836	40.980965	0.000497	4.970164	1.683937	-0.000199
 728	7.2337e+01	11.0435	40.827554	0.000385	3.854413	1.305911	-0.000154
 729	7.2436e+01	10.9938	40.766997	0.000152	1.521479	0.515491	-0.000061
 730	7.2535e+01	10.9617	40.629734	0.000345	3.448685	1.168446	-0.000138
 731	7.2635e+01	10.9168	40.460174	0.000426	4.260141	1.443375	-0.000170
 732	7.2734e+01	10.8735	40.335023	0.000314	3.144390	1.065348	-0.000126
 733	7.2834e+01	10.8350	40.193723	0.000355	3.550117	1.202812	-0.000142
 734	7.2933e+01	10.7933	40.044349	0.000375	3.752981	1.271544	-0.000150
 735	7.3033e+01	10.7596	39.915161	0.000325	3.245822	1.099714	-0.000130
 736	7.3132e+01	10.7147	39.790010	0.000314	3.144390	1.065348	-0.000126
 737	7.3232e+01	10.6762	39.616413	0.000436	4.361573	1.477741	-0.000174
 738	7.3332e+01	10.6329	39.463002	0.000385	3.854413	1.305911	-0.000154
 739	7.3431e+01	10.5927	39.341888	0.000304	3.042958	1.030982	-0.000122
 740	7.3531e+01	10.5559	39.204625	0.000345	3.448685	1.168446	-0.000138
 741	7.3630e+01	10.5157	39.055251	0.000375	3.752981	1.271544	-0.000150
 742	7.3730e+01	10.4772	38.934137	0.000304	3.042958	1.030982	-0.000122
 743	7.3829e+01	10.4403	38.780726	0.000385	3.854413	1.305911	-0.000154
 744	7.3928e+01	10.4067	38.635389	0.000365	3.651549	1.237178	-0.000146
 745	7.4028e+01	10.3601	38.473904	0.000406	4.057277	1.374643	-0.000162
 746	7.4127e+01	10.3232	38.336641	0.000345	3.448685	1.168446	-0.000138
 747	7.4227e+01	10.2703	38.215527	0.000304	3.042958	1.030982	-0.000122
 748	7.4326e+01	10.2446	38.078264	0.000345	3.448685	1.168446	-0.000138
 749	7.4426e+01	10.1869	37.953113	0.000314	3.144390	1.065348	-0.000126
 750	7.4525e+01	10.1500	37.759331	0.000487	4.868732	1.649571	-0.000195
 751	7.4625e+01	10.1291	37.674551	0.000213	2.130070	0.721687	-0.000085
 752	7.4725e+01	10.0826	37.492880	0.000456	4.564437	1.546473	-0.000183
 753	7.4824e+01	10.0377	37.367728	0.000314	3.144390	1.065348	-0.000126
 754	7.4924e+01	9.9944	37.222392	0.000365	3.651549	1.237178	-0.000146
 755	7.5023e+01	9.9575	37.073017	0.000375	3.752981	1.271544	-0.000150
 756	7.5123e+01	9.9222	36.927681	0.000365	3.651549	1.237178	-0.000146
 757	7.5222e+01	9.8708	36.790418	0.000345	3.448685	1.168446	-0.000138
 758	7.5322e+01	9.8291	36.653155	0.000345	3.448685	1.168446	-0.000138
 759	7.5421e+01	9.7970	36.487633	0.000416	4.158709	1.409009	-0.000166
 760	7.5520e+01	9.7457	36.370556	0.000294	2.941526	0.996616	-0.000118
 761	7.5620e+01	9.7136	36.209070	0.000406	4.057277	1.374643	-0.000162
 762	7.5719e+01	9.6831	36.079882	0.000325	3.245822	1.099714	-0.000130
 763	7.5819e+01	9.6446	35.930508	0.000375	3.752981	1.271544	-0.000150
 764	7.5918e+01	9.6078	35.756911	0.000436	4.361573	1.477741	-0.000174
 765	7.6018e+01	9.5564	35.672131	0.000213	2.130070	0.721687	-0.000085
 766	7.6118e+01	9.5243	35.502572	0.000426	4.260141	1.443375	-0.000170
 767	7.6217e+01	9.4826	35.353198	0.000375	3.752981	1.271544	-0.000150
 768	7.6317e+01	9.4425	35.203824	0.000375	3.752981	1.271544	-0.000150
 769	7.6416e+01	9.4072	35.082710	0.000304	3.042958	1.030982	-0.000122
 770	7.6516e+01	9.3559	34.909113	0.000436	4.361573	1.477741	-0.000174
 771	7.6615e+01	9.3174	34.783962	0.000314	3.144390	1.065348	-0.000126
 772	7.6715e+01	9.2821	34.606328	0.000446	4.463005	1.512107	-0.000179
 773	7.6814e+01	9.2372	34.473102	0.000335	3.347254	1.134080	-0.000134
 774	7.6913e+01	9.2051	34.323728	0.000375	3.752981	1.271544	-0.000150
 775	7.7013e+01	9.1489	34.194540	0.000325	3.245822	1.099714	-0.000130
 776	7.7112e+01	9.1249	34.065351	0.000325	3.245822	1.099714	-0.000130
 777	7.7212e+01	9.0767	33.883680	0.000456	4.564437	1.546473	-0.000183
 778	7.7311e+01	9.0527	33.734306	0.000375	3.752981	1.271544	-0.000150
 779	7.7411e+01	8.9917	33.601081	0.000335	3.347254	1.134080	-0.000134
 780	7.7510e+01	8.9580	33.488041	0.000284	2.840094	0.962250	-0.000114
 781	7.7610e+01	8.9211	33.342704	0.000365	3.651549	1.237178	-0.000146
 782	7.7710e+01	8.8891	33.193330	0.000375	3.752981	1.271544	-0.000150
 783	7.7809e+01	8.8425	33.047993	0.000365	3.651549	1.237178	-0.000146
 784	7.7909e+01	8.7976	32.878433	0.000426	4.260141	1.443375	-0.000170
 785	7.8008e+01	8.7719	32.700799	0.000446	4.463005	1.512107	-0.000179
 786	7.8108e+01	8.7254	32.599871	0.000254	2.535798	0.859152	-0.000101
 787	7.8207e+01	8.6805	32.410126	0.000477	4.767300	1.615205	-0.000191
 788	7.8306e+01	8.6372	32.289012	0.000304	3.042958	1.030982	-0.000122
 789	7.8406e+01	8.6083	32.127526	0.000406	4.057277	1.374643	-0.000162
 790	7.8505e+01	8.5746	31.998338	0.000325	3.245822	1.099714	-0.000130
 791	7.8605e+01	8.5217	31.857038	0.000355	3.550117	1.202812	-0.000142
 792	7.8704e+01	8.4800	31.699590	0.000396	3.955845	1.340277	-0.000158
 793	7.8804e+01	8.4415	31.521956	0.000446	4.463005	1.512107	-0.000179
 794	7.8903e+01	8.4142	31.376619	0.000365	3.651549	1.237178	-0.000146
 795	7.9003e+01	8.3597	31.251468	0.000314	3.144390	1.065348	-0.000126
 796	7.9103e+01	8.3276	31.106131	0.000365	3.651549	1.237178	-0.000146
 797	7.9202e+01	8.2827	30.956757	0.000375	3.752981	1.271544	-0.000150
 798	7.9302e+01	8.2409	30.835643	0.000304	3.042958	1.030982	-0.000122
 799	7.9401e+01	8.1976	30.694343	0.000355	3.550117	1.202812	-0.000142
 800	7.9501e+01	8.1591	30.544969	0.000375	3.752981	1.271544	-0.000150
 801	7.9600e+01	8.1270	30.407706	0.000345	3.448685	1.168446	-0.000138
 802	7.9700e+01	8.0853	30.197775	0.000527	5.274460	1.787035	-0.000211
 803	7.9799e+01	8.0404	30.108958	0.000223	2.231502	0.756053	-0.000089
 804	7.9898e+01	8.0035	29.943436	0.000416	4.158709	1.409009	-0.000166
 805	7.9998e+01	7.9634	29.785987	0.000396	3.955845	1.340277	-0.000158
 806	8.0097e+01	7.9313	29.612391	0.000436	4.361573	1.477741	-0.000174
 807	8.0197e+01	7.8960	29.499351	0.000284	2.840094	0.962250	-0.000114
 808	8.0296e+01	7.8431	29.329791	0.000426	4.260141	1.443375	-0.000170
 809	8.0396e+01	7.8014	29.196566	0.000335	3.347254	1.134080	-0.000134
 810	8.0496e+01	7.7757	29.035080	0.000406	4.057277	1.374643	-0.000162
 811	8.0595e+01	7.7244	28.901855	0.000335	3.347254	1.134080	-0.000134
 812	8.0695e+01	7.6811	28.764592	0.000345	3.448685	1.168446	-0.000138
 813	8.0794e+01	7.6442	28.599070	0.000416	4.158709	1.409009	-0.000166
 814	8.0894e+01	7.6073	28.437584	0.000406	4.057277	1.374643	-0.000162
 815	8.0993e+01	7.5672	28.288210	0.000375	3.752981	1.271544	-0.000150
 816	8.1093e+01	7.5255	28.187282	0.000254	2.535798	0.859152	-0.000101
 817	8.1192e+01	7.4837	28.037908	0.000375	3.752981	1.271544	-0.000150
 818	8.1291e+01	7.4452	27.916794	0.000304	3.042958	1.030982	-0.000122
 819	8.1391e+01	7.4051	27.771457	0.000365	3.651549	1.237178	-0.000146
 820	8.1490e+01	7.3682	27.569600	0.000507	5.071596	1.718303	-0.000203
 821	8.1590e+01	7.3346	27.436374	0.000335	3.347254	1.134080	-0.000134
 822	8.1689e+01	7.2944	27.258741	0.000446	4.463005	1.512107	-0.000179
 823	8.1789e+01	7.2399	27.109366	0.000375	3.752981	1.271544	-0.000150
 824	8.1888e+01	7.2142	26.903473	0.000517	5.173028	1.752669	-0.000207
 825	8.1988e+01	7.1645	26.766210	0.000345	3.448685	1.168446	-0.000138
 826	8.2088e+01	7.1212	26.624910	0.000355	3.550117	1.202812	-0.000142
 827	8.2187e+01	7.0907	26.483610	0.000355	3.550117	1.202812	-0.000142
 828	8.2287e+01	7.0442	26.330199	0.000385	3.854413	1.305911	-0.000154
 829	8.2386e+01	7.0025	26.160640	0.000426	4.260141	1.443375	-0.000170
 830	8.2486e+01	6.9688	26.011266	0.000375	3.752981	1.271544	-0.000150
 831	8.2585e+01	6.9239	25.845743	0.000416	4.158709	1.409009	-0.000166
 832	8.2684e+01	6.8886	25.720592	0.000314	3.144390	1.065348	-0.000126
 833	8.2784e+01	6.8565	25.563143	0.000396	3.955845	1.340277	-0.000158
 834	8.2883e+01	6.8180	25.413769	0.000375	3.752981	1.271544	-0.000150
 835	8.2983e+01	6.7715	25.260358	0.000385	3.854413	1.305911	-0.000154
 836	8.3082e+01	6.7378	25.147319	0.000284	2.840094	0.962250	-0.000114
 837	8.3182e+01	6.6880	24.973722	0.000436	4.361573	1.477741	-0.000174
 838	8.3281e+01	6.6528	24.864719	0.000274	2.738662	0.927884	-0.000110
 839	8.3381e+01	6.6046	24.674974	0.000477	4.767300	1.615205	-0.000191
 840	8.3481e+01	6.5725	24.509451	0.000416	4.158709	1.409009	-0.000166
 841	8.3580e+01	6.5228	24.352003	0.000396	3.955845	1.340277	-0.000158
 842	8.3680e+01	6.4923	24.182443	0.000426	4.260141	1.443375	-0.000170
 843	8.3779e+01	6.4490	24.033069	0.000375	3.752981	1.271544	-0.000150
 844	8.3879e+01	6.4153	23.859472	0.000436	4.361573	1.477741	-0.000174
 845	8.3978e+01	6.3848	23.706061	0.000385	3.854413	1.305911	-0.000154
 846	8.4078e+01	6.3319	23.544576	0.000406	4.057277	1.374643	-0.000162
 847	8.4177e+01	6.2902	23.459796	0.000213	2.130070	0.721687	-0.000085
 848	8.4276e+01	6.2613	23.257939	0.000507	5.071596	1.718303	-0.000203
 849	8.4376e+01	6.2148	23.108565	0.000375	3.752981	1.271544	-0.000150
 850	8.4475e+01	6.1683	22.959191	0.000375	3.752981	1.271544	-0.000150
 851	8.4575e+01	6.1282	22.813854	0.000365	3.651549	1.237178	-0.000146
 852	8.4674e+01	6.0977	22.668517	0.000365	3.651549	1.237178	-0.000146
 853	8.4774e+01	6.0592	22.502995	0.000416	4.158709	1.409009	-0.000166
 854	8.4874e+01	6.0079	22.381881	0.000304	3.042958	1.030982	-0.000122
 855	8.4973e+01	5.9806	22.224432	0.000396	3.955845	1.340277	-0.000158
 856	8.5073e+01	5.9389	22.111392	0.000284	2.840094	0.962250	-0.000114
 857	8.5172e+01	5.8940	21.917610	0.000487	4.868732	1.649571	-0.000195
 858	8.5272e+01	5.8474	21.711716	0.000517	5.173028	1.752669	-0.000207
 859	8.5371e+01	5.8169	21.594639	0.000294	2.941526	0.996616	-0.000118
 860	8.5471e+01	5.7801	21.429116	0.000416	4.158709	1.409009	-0.000166
 861	8.5570e+01	5.7399	21.287817	0.000355	3.550117	1.202812	-0.000142
 862	8.5669e+01	5.6982	21.130368	0.000396	3.955845	1.340277	-0.000158
 863	8.5769e+01	5.6662	20.989069	0.000355	3.550117	1.202812	-0.000142
 864	8.5868e+01	5.6036	20.823546	0.000416	4.158709	1.409009	-0.000166
 865	8.5968e+01	5.5795	20.678209	0.000365	3.651549	1.237178	-0.000146
 866	8.6067e+01	5.5410	20.508650	0.000426	4.260141	1.443375	-0.000170
 867	8.6167e+01	5.4881	20.351201	0.000396	3.955845	1.340277	-0.000158
 868	8.6266e+01	5.4544	20.197790	0.000385	3.854413	1.305911	-0.000154
 869	8.6366e+01	5.4303	20.072639	0.000314	3.144390	1.065348	-0.000126
 870	8.6466e+01	5.3694	19.911153	0.000406	4.057277	1.374643	-0.000162
 871	8.6565e+01	5.3373	19.745631	0.000416	4.158709	1.409009	-0.000166
 872	8.6665e+01	5.3004	19.604331	0.000355	3.550117	1.202812	-0.000142
 873	8.6764e+01	5.2667	19.467069	0.000345	3.448685	1.168446	-0.000138
 874	8.6864e+01	5.2282	19.293472	0.000436	4.361573	1.477741	-0.000174
 875	8.6963e+01	5.1785	19.172358	0.000304	3.042958	1.030982	-0.000122
 876	8.7063e+01	5.1448	19.002798	0.000426	4.260141	1.443375	-0.000170
 877	8.7162e+01	5.0983	18.829201	0.000436	4.361573	1.477741	-0.000174
 878	8.7261e+01	5.0581	18.663679	0.000416	4.158709	1.409009	-0.000166
 879	8.7361e+01	5.0212	18.542564	0.000304	3.042958	1.030982	-0.000122
 880	8.7460e+01	4.9747	18.377042	0.000416	4.158709	1.409009	-0.000166
 881	8.7560e+01	4.9330	18.211519	0.000416	4.158709	1.409009	-0.000166
 882	8.7659e+01	4.8929	18.058108	0.000385	3.854413	1.305911	-0.000154
 883	8.7759e+01	4.8624	17.892586	0.000416	4.158709	1.409009	-0.000166
 884	8.7859e+01	4.8239	17.775509	0.000294	2.941526	0.996616	-0.000118
 885	8.7958e+01	4.7790	17.605949	0.000426	4.260141	1.443375	-0.000170
 886	8.8058e+01	4.7405	17.436389	0.000426	4.260141	1.443375	-0.000170
 887	8.8157e+01	4.6972	17.270867	0.000416	4.158709	1.409009	-0.000166
 888	8.8257e+01	4.6635	17.121493	0.000375	3.752981	1.271544	-0.000150
 889	8.8356e+01	4.6218	16.964044	0.000396	3.955845	1.340277	-0.000158
 890	8.8456e+01	4.5801	16.859079	0.000264	2.637230	0.893518	-0.000105
 891	8.8555e+01	4.5352	16.693556	0.000416	4.158709	1.409009	-0.000166
 892	8.8654e+01	4.5015	16.572442	0.000304	3.042958	1.030982	-0.000122
 893	8.8754e+01	4.4630	16.310028	0.000659	6.593075	2.233794	-0.000264
 894	8.8853e+01	4.4181	16.168729	0.000355	3.550117	1.202812	-0.000142
 895	8.8953e+01	4.3812	16.039540	0.000325	3.245822	1.099714	-0.000130
 896	8.9052e+01	4.3378	15.841721	0.000497	4.970164	1.683937	-0.000199
 897	8.9152e+01	4.2993	15.684272	0.000396	3.955845	1.340277	-0.000158
 898	8.9251e+01	4.2641	15.510676	0.000436	4.361573	1.477741	-0.000174
 899	8.9351e+01	4.2191	15.385524	0.000314	3.144390	1.065348	-0.000126
 900	8.9451e+01	4.1806	15.224039	0.000406	4.057277	1.374643	-0.000162
 901	8.9550e+01	4.1518	15.062553	0.000406	4.057277	1.374643	-0.000162
 902	8.9650e+01	4.0956	14.921254	0.000355	3.550117	1.202812	-0.000142
 903	8.9749e+01	4.0603	14.727471	0.000487	4.868732	1.649571	-0.000195
 904	8.9849e+01	4.0202	14.614431	0.000284	2.840094	0.962250	-0.000114
 905	8.9948e+01	3.9753	14.444872	0.000426	4.260141	1.443375	-0.000170
 906	9.0047e+01	3.9368	14.311646	0.000335	3.347254	1.134080	-0.000134
 907	9.0147e+01	3.9047	14.178421	0.000335	3.347254	1.134080	-0.000134
 908	9.0246e+01	3.8614	14.004824	0.000436	4.361573	1.477741	-0.000174
 909	9.0346e+01	3.8133	13.851413	0.000385	3.854413	1.305911	-0.000154
 910	9.0445e+01	3.7860	13.710113	0.000355	3.550117	1.202812	-0.000142
 911	9.0545e+01	3.7427	13.532479	0.000446	4.463005	1.512107	-0.000179
 912	9.0644e+01	3.7042	13.379068	0.000385	3.854413	1.305911	-0.000154
 913	9.0744e+01	3.6721	13.225657	0.000385	3.854413	1.305911	-0.000154
 914	9.0844e+01	3.6288	13.124728	0.000254	2.535798	0.859152	-0.000101
 915	9.0943e+01	3.5839	12.918834	0.000517	5.173028	1.752669	-0.000207
 916	9.1043e+01	3.5421	12.745238	0.000436	4.361573	1.477741	-0.000174
 917	9.1142e+01	3.5069	12.636235	0.000274	2.738662	0.927884	-0.000110
 918	9.1242e+01	3.4716	12.462638	0.000436	4.361573	1.477741	-0.000174
 919	9.1341e+01	3.4282	12.313264	0.000375	3.752981	1.271544	-0.000150
 920	9.1441e+01	3.3785	12.155816	0.000396	3.955845	1.340277	-0.000158
 921	9.1540e+01	3.3480	11.986256	0.000426	4.260141	1.443375	-0.000170
 922	9.1639e+01	3.2951	11.824771	0.000406	4.057277	1.374643	-0.000162
 923	9.1739e+01	3.2694	11.707694	0.000294	2.941526	0.996616	-0.000118
 924	9.1838e+01	3.2261	11.534097	0.000436	4.361573	1.477741	-0.000174
 925	9.1938e+01	3.1860	11.376649	0.000396	3.955845	1.340277	-0.000158
 926	9.2037e+01	3.1491	11.243423	0.000335	3.347254	1.134080	-0.000134
 927	9.2137e+01	3.1106	11.057715	0.000467	4.665869	1.580839	-0.000187
 928	9.2237e+01	3.0737	10.968898	0.000223	2.231502	0.756053	-0.000089
 929	9.2336e+01	3.0272	10.767041	0.000507	5.071596	1.718303	-0.000203
 930	9.2436e+01	2.9919	10.577296	0.000477	4.767300	1.615205	-0.000191
 931	9.2535e+01	2.9438	10.464256	0.000284	2.840094	0.962250	-0.000114
 932	9.2635e+01	2.9101	10.270473	0.000487	4.868732	1.649571	-0.000195
 933	9.2734e+01	2.8732	10.125136	0.000365	3.651549	1.237178	-0.000146
 934	9.2834e+01	2.8251	10.008059	0.000294	2.941526	0.996616	-0.000118
 935	9.2933e+01	2.7849	9.822351	0.000467	4.665869	1.580839	-0.000187
 936	9.3032e+01	2.7497	9.664903	0.000396	3.955845	1.340277	-0.000158
 937	9.3132e+01	2.7079	9.491306	0.000436	4.361573	1.477741	-0.000174
 938	9.3231e+01	2.6694	9.362118	0.000325	3.245822	1.099714	-0.000130
 939	9.3331e+01	2.6261	9.188521	0.000436	4.361573	1.477741	-0.000174
 940	9.3430e+01	2.5956	9.047221	0.000355	3.550117	1.202812	-0.000142
 941	9.3530e+01	2.5507	8.913996	0.000335	3.347254	1.134080	-0.000134
 942	9.3629e+01	2.5090	8.712139	0.000507	5.071596	1.718303	-0.000203
 943	9.3729e+01	2.4657	8.591025	0.000304	3.042958	1.030982	-0.000122
 944	9.3829e+01	2.4256	8.409354	0.000456	4.564437	1.546473	-0.000183
 945	9.3928e+01	2.3951	8.288240	0.000304	3.042958	1.030982	-0.000122
 946	9.4028e+01	2.3550	8.098494	0.000477	4.767300	1.615205	-0.000191
 947	9.4127e+01	2.3037	7.924897	0.000436	4.361573	1.477741	-0.000174
 948	9.4227e+01	2.2700	7.759375	0.000416	4.158709	1.409009	-0.000166
 949	9.4326e+01	2.2219	7.646335	0.000284	2.840094	0.962250	-0.000114
 950	9.4425e+01	2.1898	7.468701	0.000446	4.463005	1.512107	-0.000179
 951	9.4525e+01	2.1465	7.311253	0.000396	3.955845	1.340277	-0.000158
 952	9.4624e+01	2.1112	7.153805	0.000396	3.955845	1.340277	-0.000158
 953	9.4724e+01	2.0759	7.008468	0.000365	3.651549	1.237178	-0.000146
 954	9.4823e+01	2.0261	6.822759	0.000467	4.665869	1.580839	-0.000187
 955	9.4923e+01	1.9909	6.669348	0.000385	3.854413	1.305911	-0.000154
 956	9.5022e+01	1.9475	6.532086	0.000345	3.448685	1.168446	-0.000138
 957	9.5122e+01	1.8994	6.374637	0.000396	3.955845	1.340277	-0.000158
 958	9.5222e+01	1.8705	6.184892	0.000477	4.767300	1.615205	-0.000191
 959	9.5321e+01	1.8272	6.035518	0.000375	3.752981	1.271544	-0.000150
 960	9.5421e+01	1.7935	5.882107	0.000385	3.854413	1.305911	-0.000154
 961	9.5520e+01	1.7438	5.744844	0.000345	3.448685	1.168446	-0.000138
 962	9.5620e+01	1.7133	5.555099	0.000477	4.767300	1.615205	-0.000191
 963	9.5719e+01	1.6796	5.466282	0.000223	2.231502	0.756053	-0.000089
 964	9.5819e+01	1.6411	5.272499	0.000487	4.868732	1.649571	-0.000195
 965	9.5918e+01	1.6026	5.111014	0.000406	4.057277	1.374643	-0.000162
 966	9.6017e+01	1.5561	4.941454	0.000426	4.260141	1.443375	-0.000170
 967	9.6117e+01	1.5096	4.796117	0.000365	3.651549	1.237178	-0.000146
 968	9.6216e+01	1.4855	4.602335	0.000487	4.868732	1.649571	-0.000195
 969	9.6316e+01	1.4374	4.489295	0.000284	2.840094	0.962250	-0.000114
 970	9.6415e+01	1.3845	4.299550	0.000477	4.767300	1.615205	-0.000191
 971	9.6515e+01	1.3492	4.178435	0.000304	3.042958	1.030982	-0.000122
 972	9.6615e+01	1.3139	4.008876	0.000426	4.260141	1.443375	-0.000170
 973	9.6714e+01	1.2738	3.847390	0.000406	4.057277	1.374643	-0.000162
 974	9.6814e+01	1.2208	3.677831	0.000426	4.260141	1.443375	-0.000170
 975	9.6913e+01	1.1968	3.572865	0.000264	2.637230	0.893518	-0.000105
 976	9.7013e+01	1.1502	3.371008	0.000507	5.071596	1.718303	-0.000203
 977	9.7112e+01	1.1165	3.241820	0.000325	3.245822	1.099714	-0.000130
 978	9.7212e+01	1.0764	3.084372	0.000396	3.955845	1.340277	-0.000158
 979	9.7311e+01	1.0315	2.926923	0.000396	3.955845	1.340277	-0.000158
 980	9.7410e+01	0.9930	2.797735	0.000325	3.245822	1.099714	-0.000130
 981	9.7510e+01	0.9481	2.583767	0.000538	5.375892	1.821402	-0.000215
 982	9.7609e+01	0.9128	2.438430	0.000365	3.651549	1.237178	-0.000146
 983	9.7709e+01	0.8695	2.313279	0.000314	3.144390	1.065348	-0.000126
 984	9.7808e+01	0.8406	2.127571	0.000467	4.665869	1.580839	-0.000187
 985	9.7908e+01	0.7845	1.949937	0.000446	4.463005	1.512107	-0.000179
 986	9.8007e+01	0.7540	1.812674	0.000345	3.448685	1.168446	-0.000138
 987	9.8107e+01	0.7155	1.614854	0.000497	4.970164	1.683937	-0.000199
 988	9.8207e+01	0.6754	1.469517	0.000365	3.651549	1.237178	-0.000146
 989	9.8306e+01	0.6369	1.312069	0.000396	3.955845	1.340277	-0.000158
 990	9.8406e+01	0.5871	1.158658	0.000385	3.854413	1.305911	-0.000154
 991	9.8505e+01	0.5615	0.976987	0.000456	4.564437	1.546473	-0.000183
 992	9.8605e+01	0.5214	0.872021	0.000264	2.637230	0.893518	-0.000105
 993	9.8704e+01	0.4765	0.645942	0.000568	5.680188	1.924500	-0.000227
 994	9.8803e+01	0.4364	0.516753	0.000325	3.245822	1.099714	-0.000130
 995	9.8903e+01	0.3962	0.339119	0.000446	4.463005	1.512107	-0.000179
 996	9.9002e+01	0.3529	0.185708	0.000385	3.854413	1.305911	-0.000154
 997	9.9102e+01	0.3192	0.080743	0.000264	2.637230	0.893518	-0.000105
 998	9.9201e+01	0.2791	-0.072668	0.000385	3.854413	1.305911	-0.000154
 999	9.9301e+01	0.2310	-0.302785	0.000578	5.781620	1.958866	-0.000231
1000	9.9400e+01	0.2053	-0.427936	0.000314	3.144390	1.065348	-0.000126
1001	9.9500e+01	0.1604	-0.585385	0.000396	3.955845	1.340277	-0.000158
1002	9.9600e+01	0.1123	-0.754944	0.000426	4.260141	1.443375	-0.000170
1003	9.9699e+01	0.0754	-0.924504	0.000426	4.260141	1.443375	-0.000170
1004	9.9799e+01	0.0353	-1.114249	0.000477	4.767300	1.615205	-0.000191
1005	9.9898e+01	0.0048	-1.207104	0.000233	2.332934	0.790420	-0.000093
1006	9.9998e+01	-0.0337	-1.368589	0.000406	4.057277	1.374643	-0.000162
1007	1.0010e+02	-0.0738	-1.566409	0.000497	4.970164	1.683937	-0.000199
1008	1.0020e+02	-0.1155	-1.711746	0.000365	3.651549	1.237178	-0.000146
1009	1.0030e+02	-0.1556	-1.877268	0.000416	4.158709	1.409009	-0.000166
1010	1.0040e+02	-0.1957	-2.010494	0.000335	3.347254	1.134080	-0.000134
1011	1.0050e+02	-0.2310	-2.188128	0.000446	4.463005	1.512107	-0.000179
1012	1.0059e+02	-0.2727	-2.309242	0.000304	3.042958	1.030982	-0.000122
1013	1.0069e+02	-0.3144	-2.515136	0.000517	5.173028	1.752669	-0.000207
1014	1.0079e+02	-0.3529	-2.607990	0.000233	2.332934	0.790420	-0.000093
1015	1.0089e+02	-0.3898	-2.801772	0.000487	4.868732	1.649571	-0.000195
1016	1.0099e+02	-0.4299	-2.943072	0.000355	3.550117	1.202812	-0.000142
1017	1.0109e+02	-0.4700	-3.112632	0.000426	4.260141	1.443375	-0.000170
1018	1.0119e+02	-0.5150	-3.257969	0.000365	3.651549	1.237178	-0.000146
1019	1.0129e+02	-0.5486	-3.467900	0.000527	5.274460	1.787035	-0.000211
1020	1.0139e+02	-0.5920	-3.613236	0.000365	3.651549	1.237178	-0.000146
1021	1.0149e+02	-0.6289	-3.762611	0.000375	3.752981	1.271544	-0.000150
1022	1.0159e+02	-0.6802	-3.936207	0.000436	4.361573	1.477741	-0.000174
1023	1.0169e+02	-0.7139	-4.077507	0.000355	3.550117	1.202812	-0.000142
1024	1.0179e+02	-0.7492	-4.234955	0.000396	3.955845	1.340277	-0.000158
1025	1.0189e+02	-0.7877	-4.452961	0.000548	5.477324	1.855768	-0.000219
1026	1.0199e+02	-0.8374	-4.561963	0.000274	2.738662	0.927884	-0.000110
1027	1.0209e+02	-0.8695	-4.703263	0.000355	3.550117	1.202812	-0.000142
1028	1.0219e+02	-0.9112	-4.888971	0.000467	4.665869	1.580839	-0.000187
1029	1.0229e+02	-0.9593	-5.066605	0.000446	4.463005	1.512107	-0.000179
1030	1.0239e+02	-0.9946	-5.215979	0.000375	3.752981	1.271544	-0.000150
1031	1.0248e+02	-1.0395	-5.369391	0.000385	3.854413	1.305911	-0.000154
1032	1.0258e+02	-1.0684	-5.494542	0.000314	3.144390	1.065348	-0.000126
1033	1.0268e+02	-1.1246	-5.651990	0.000396	3.955845	1.340277	-0.000158
1034	1.0278e+02	-1.1422	-5.841735	0.000477	4.767300	1.615205	-0.000191
1035	1.0288e+02	-1.1919	-5.978998	0.000345	3.448685	1.168446	-0.000138
1036	1.0298e+02	-1.2321	-6.144521	0.000416	4.158709	1.409009	-0.000166
1037	1.0308e+02	-1.2641	-6.261598	0.000294	2.941526	0.996616	-0.000118
1038	1.0318e+02	-1.3107	-6.459417	0.000497	4.970164	1.683937	-0.000199
1039	1.0328e+02	-1.3524	-6.637051	0.000446	4.463005	1.512107	-0.000179
1040	1.0338e+02	-1.3893	-6.778351	0.000355	3.550117	1.202812	-0.000142
1041	1.0348e+02	-1.4262	-6.931762	0.000385	3.854413	1.305911	-0.000154
1042	1.0358e+02	-1.4759	-7.077099	0.000365	3.651549	1.237178	-0.000146
1043	1.0368e+02	-1.5096	-7.246659	0.000426	4.260141	1.443375	-0.000170
1044	1.0378e+02	-1.5529	-7.416218	0.000426	4.260141	1.443375	-0.000170
1045	1.0388e+02	-1.5914	-7.569630	0.000385	3.854413	1.305911	-0.000154
1046	1.0398e+02	-1.6315	-7.735152	0.000416	4.158709	1.409009	-0.000166
1047	1.0408e+02	-1.6748	-7.844155	0.000274	2.738662	0.927884	-0.000110
1048	1.0418e+02	-1.7117	-8.054086	0.000527	5.274460	1.787035	-0.000211
1049	1.0428e+02	-1.7550	-8.191348	0.000345	3.448685	1.168446	-0.000138
1050	1.0438e+02	-1.7935	-8.381094	0.000477	4.767300	1.615205	-0.000191
1051	1.0447e+02	-1.8272	-8.534505	0.000385	3.854413	1.305911	-0.000154
1052	1.0457e+02	-1.8689	-8.655619	0.000304	3.042958	1.030982	-0.000122
1053	1.0467e+02	-1.9090	-8.857476	0.000507	5.071596	1.718303	-0.000203
1054	1.0477e+02	-1.9475	-9.014924	0.000396	3.955845	1.340277	-0.000158
1055	1.0487e+02	-1.9892	-9.140075	0.000314	3.144390	1.065348	-0.000126
1056	1.0497e+02	-2.0245	-9.305598	0.000416	4.158709	1.409009	-0.000166
1057	1.0507e+02	-2.0743	-9.459009	0.000385	3.854413	1.305911	-0.000154
1058	1.0517e+02	-2.1064	-9.612420	0.000385	3.854413	1.305911	-0.000154
1059	1.0527e+02	-2.1513	-9.814277	0.000507	5.071596	1.718303	-0.000203
1060	1.0537e+02	-2.1785	-9.915205	0.000254	2.535798	0.859152	-0.000101
1061	1.0547e+02	-2.2283	-10.096876	0.000456	4.564437	1.546473	-0.000183
1062	1.0557e+02	-2.2780	-10.282585	0.000467	4.665869	1.580839	-0.000187
1063	1.0567e+02	-2.3101	-10.440033	0.000396	3.955845	1.340277	-0.000158
1064	1.0577e+02	-2.3614	-10.585370	0.000365	3.651549	1.237178	-0.000146
1065	1.0587e+02	-2.3855	-10.746855	0.000406	4.057277	1.374643	-0.000162
1066	1.0597e+02	-2.4336	-10.896229	0.000375	3.752981	1.271544	-0.000150
1067	1.0607e+02	-2.4609	-11.045603	0.000375	3.752981	1.271544	-0.000150
1068	1.0617e+02	-2.4898	-11.215163	0.000426	4.260141	1.443375	-0.000170
1069	1.0627e+02	-2.5363	-11.344351	0.000325	3.245822	1.099714	-0.000130
1070	1.0637e+02	-2.5892	-11.542171	0.000497	4.970164	1.683937	-0.000199
1071	1.0647e+02	-2.6229	-11.659248	0.000294	2.941526	0.996616	-0.000118
1072	1.0656e+02	-2.6614	-11.816696	0.000396	3.955845	1.340277	-0.000158
1073	1.0666e+02	-2.7015	-11.970107	0.000385	3.854413	1.305911	-0.000154
1074	1.0676e+02	-2.7368	-12.159853	0.000477	4.767300	1.615205	-0.000191
1075	1.0686e+02	-2.7866	-12.285004	0.000314	3.144390	1.065348	-0.000126
1076	1.0696e+02	-2.8202	-12.446489	0.000406	4.057277	1.374643	-0.000162
1077	1.0706e+02	-2.8684	-12.575678	0.000325	3.245822	1.099714	-0.000130
1078	1.0716e+02	-2.9021	-12.729089	0.000385	3.854413	1.305911	-0.000154
1079	1.0726e+02	-2.9470	-12.906723	0.000446	4.463005	1.512107	-0.000179
1080	1.0736e+02	-2.9887	-13.060134	0.000385	3.854413	1.305911	-0.000154
1081	1.0746e+02	-3.0208	-13.209508	0.000375	3.752981	1.271544	-0.000150
1082	1.0756e+02	-3.0545	-13.379068	0.000426	4.260141	1.443375	-0.000170
1083	1.0766e+02	-3.1058	-13.488071	0.000274	2.738662	0.927884	-0.000110
1084	1.0776e+02	-3.1507	-13.617259	0.000325	3.245822	1.099714	-0.000130
1085	1.0786e+02	-3.1812	-13.782781	0.000416	4.158709	1.409009	-0.000166
1086	1.0796e+02	-3.2133	-13.911970	0.000325	3.245822	1.099714	-0.000130
1087	1.0806e+02	-3.2566	-14.073455	0.000406	4.057277	1.374643	-0.000162
1088	1.0816e+02	-3.3015	-14.315683	0.000609	6.085915	2.061964	-0.000243
1089	1.0826e+02	-3.3400	-14.400463	0.000213	2.130070	0.721687	-0.000085
1090	1.0836e+02	-3.3769	-14.541763	0.000355	3.550117	1.202812	-0.000142
1091	1.0845e+02	-3.4138	-14.731508	0.000477	4.767300	1.615205	-0.000191
1092	1.0855e+02	-3.4587	-14.872808	0.000355	3.550117	1.202812	-0.000142
1093	1.0865e+02	-3.5117	-15.006034	0.000335	3.347254	1.134080	-0.000134
1094	1.0875e+02	-3.5518	-15.187705	0.000456	4.564437	1.546473	-0.000183
1095	1.0885e+02	-3.5806	-15.308819	0.000304	3.042958	1.030982	-0.000122
1096	1.0895e+02	-3.6111	-15.498564	0.000477	4.767300	1.615205	-0.000191
1097	1.0905e+02	-3.6673	-15.623715	0.000314	3.144390	1.065348	-0.000126
1098	1.0915e+02	-3.6945	-15.781164	0.000396	3.955845	1.340277	-0.000158
1099	1.0925e+02	-3.7491	-15.942649	0.000406	4.057277	1.374643	-0.000162
1100	1.0935e+02	-3.7812	-16.100097	0.000396	3.955845	1.340277	-0.000158
1101	1.0945e+02	-3.8149	-16.273694	0.000436	4.361573	1.477741	-0.000174
1102	1.0955e+02	-3.8486	-16.390771	0.000294	2.941526	0.996616	-0.000118
1103	1.0965e+02	-3.9095	-16.523997	0.000335	3.347254	1.134080	-0.000134
1104	1.0975e+02	-3.9416	-16.637036	0.000284	2.840094	0.962250	-0.000114
1105	1.0985e+02	-3.9801	-16.875227	0.000598	5.984484	2.027598	-0.000239
1106	1.0995e+02	-4.0282	-17.000379	0.000314	3.144390	1.065348	-0.000126
1107	1.1005e+02	-4.0651	-17.153790	0.000385	3.854413	1.305911	-0.000154
1108	1.1015e+02	-4.1020	-17.299127	0.000365	3.651549	1.237178	-0.000146
1109	1.1025e+02	-4.1389	-17.484835	0.000467	4.665869	1.580839	-0.000187
1110	1.1035e+02	-4.1758	-17.609986	0.000314	3.144390	1.065348	-0.000126
1111	1.1044e+02	-4.2207	-17.747249	0.000345	3.448685	1.168446	-0.000138
1112	1.1054e+02	-4.2608	-17.916808	0.000426	4.260141	1.443375	-0.000170
1113	1.1064e+02	-4.2849	-18.070220	0.000385	3.854413	1.305911	-0.000154
1114	1.1074e+02	-4.3443	-18.219594	0.000375	3.752981	1.271544	-0.000150
1115	1.1084e+02	-4.3828	-18.348782	0.000325	3.245822	1.099714	-0.000130
1116	1.1094e+02	-4.4229	-18.477970	0.000325	3.245822	1.099714	-0.000130
1117	1.1104e+02	-4.4630	-18.667716	0.000477	4.767300	1.615205	-0.000191
1118	1.1114e+02	-4.4999	-18.813053	0.000365	3.651549	1.237178	-0.000146
1119	1.1124e+02	-4.5400	-18.930129	0.000294	2.941526	0.996616	-0.000118
1120	1.1134e+02	-4.5817	-19.127949	0.000497	4.970164	1.683937	-0.000199
1121	1.1144e+02	-4.6106	-19.253100	0.000314	3.144390	1.065348	-0.000126
1122	1.1154e+02	-4.6475	-19.434771	0.000456	4.564437	1.546473	-0.000183
1123	1.1164e+02	-4.6908	-19.572034	0.000345	3.448685	1.168446	-0.000138
1124	1.1174e+02	-4.7389	-19.725445	0.000385	3.854413	1.305911	-0.000154
1125	1.1184e+02	-4.7726	-19.818299	0.000233	2.332934	0.790420	-0.000093
1126	1.1194e+02	-4.8031	-20.040342	0.000558	5.578756	1.890134	-0.000223
1127	1.1204e+02	-4.8640	-20.173567	0.000335	3.347254	1.134080	-0.000134
1128	1.1214e+02	-4.9073	-20.298718	0.000314	3.144390	1.065348	-0.000126
1129	1.1224e+02	-4.9491	-20.476352	0.000446	4.463005	1.512107	-0.000179
1130	1.1234e+02	-4.9747	-20.593429	0.000294	2.941526	0.996616	-0.000118
1131	1.1244e+02	-5.0212	-20.771063	0.000446	4.463005	1.512107	-0.000179
1132	1.1253e+02	-5.0581	-20.908326	0.000345	3.448685	1.168446	-0.000138
1133	1.1263e+02	-5.0983	-21.057700	0.000375	3.752981	1.271544	-0.000150
1134	1.1273e+02	-5.1416	-21.199000	0.000355	3.550117	1.202812	-0.000142
1135	1.1283e+02	-5.1656	-21.360485	0.000406	4.057277	1.374643	-0.000162
1136	1.1293e+02	-5.2186	-21.501785	0.000355	3.550117	1.202812	-0.000142
1137	1.1303e+02	-5.2571	-21.639048	0.000345	3.448685	1.168446	-0.000138
1138	1.1313e+02	-5.2972	-21.776310	0.000345	3.448685	1.168446	-0.000138
1139	1.1323e+02	-5.3277	-21.909536	0.000335	3.347254	1.134080	-0.000134
1140	1.1333e+02	-5.3710	-22.087170	0.000446	4.463005	1.512107	-0.000179
1141	1.1343e+02	-5.4191	-22.240581	0.000385	3.854413	1.305911	-0.000154
1142	1.1353e+02	-5.4608	-22.385918	0.000365	3.651549	1.237178	-0.000146
1143	1.1363e+02	-5.4945	-22.511069	0.000314	3.144390	1.065348	-0.000126
1144	1.1373e+02	-5.5282	-22.668517	0.000396	3.955845	1.340277	-0.000158
1145	1.1383e+02	-5.5779	-22.834040	0.000416	4.158709	1.409009	-0.000166
1146	1.1393e+02	-5.6132	-22.975339	0.000355	3.550117	1.202812	-0.000142
1147	1.1403e+02	-5.6581	-23.128751	0.000385	3.854413	1.305911	-0.000154
1148	1.1413e+02	-5.6966	-23.270050	0.000355	3.550117	1.202812	-0.000142
1149	1.1423e+02	-5.7239	-23.427499	0.000396	3.955845	1.340277	-0.000158
1150	1.1433e+02	-5.7640	-23.508241	0.000203	2.028638	0.687321	-0.000081
1151	1.1442e+02	-5.8169	-23.685875	0.000446	4.463005	1.512107	-0.000179
1152	1.1452e+02	-5.8587	-23.843324	0.000396	3.955845	1.340277	-0.000158
1153	1.1462e+02	-5.8923	-23.992698	0.000375	3.752981	1.271544	-0.000150
1154	1.1472e+02	-5.9308	-24.138035	0.000365	3.651549	1.237178	-0.000146
1155	1.1482e+02	-5.9742	-24.255112	0.000294	2.941526	0.996616	-0.000118
1156	1.1492e+02	-6.0143	-24.404486	0.000375	3.752981	1.271544	-0.000150
1157	1.1502e+02	-6.0544	-24.541748	0.000345	3.448685	1.168446	-0.000138
1158	1.1512e+02	-6.1009	-24.743605	0.000507	5.071596	1.718303	-0.000203
1159	1.1522e+02	-6.1362	-24.860682	0.000294	2.941526	0.996616	-0.000118
1160	1.1532e+02	-6.1683	-25.062539	0.000507	5.071596	1.718303	-0.000203
1161	1.1542e+02	-6.2164	-25.191727	0.000325	3.245822	1.099714	-0.000130
1162	1.1552e+02	-6.2549	-25.333027	0.000355	3.550117	1.202812	-0.000142
1163	1.1562e+02	-6.2886	-25.490475	0.000396	3.955845	1.340277	-0.000158
1164	1.1572e+02	-6.3287	-25.643886	0.000385	3.854413	1.305911	-0.000154
1165	1.1582e+02	-6.3736	-25.765000	0.000304	3.042958	1.030982	-0.000122
1166	1.1592e+02	-6.4105	-25.987043	0.000558	5.578756	1.890134	-0.000223
1167	1.1602e+02	-6.4426	-26.116231	0.000325	3.245822	1.099714	-0.000130
1168	1.1612e+02	-6.4923	-26.229271	0.000284	2.840094	0.962250	-0.000114
1169	1.1622e+02	-6.5308	-26.370571	0.000355	3.550117	1.202812	-0.000142
1170	1.1632e+02	-6.5741	-26.528019	0.000396	3.955845	1.340277	-0.000158
1171	1.1642e+02	-6.6143	-26.689504	0.000406	4.057277	1.374643	-0.000162
1172	1.1651e+02	-6.6415	-26.806581	0.000294	2.941526	0.996616	-0.000118
1173	1.1661e+02	-6.6961	-26.935770	0.000325	3.245822	1.099714	-0.000130
1174	1.1671e+02	-6.7298	-27.040735	0.000264	2.637230	0.893518	-0.000105
1175	1.1681e+02	-6.7634	-27.206258	0.000416	4.158709	1.409009	-0.000166
1176	1.1691e+02	-6.7971	-27.359669	0.000385	3.854413	1.305911	-0.000154
1177	1.1701e+02	-6.8437	-27.525191	0.000416	4.158709	1.409009	-0.000166
1178	1.1711e+02	-6.8886	-27.658417	0.000335	3.347254	1.134080	-0.000134
1179	1.1721e+02	-6.9319	-27.815865	0.000396	3.955845	1.340277	-0.000158
1180	1.1731e+02	-6.9688	-27.977351	0.000406	4.057277	1.374643	-0.000162
1181	1.1741e+02	-6.9993	-28.090390	0.000284	2.840094	0.962250	-0.000114
1182	1.1751e+02	-7.0442	-28.284173	0.000487	4.868732	1.649571	-0.000195
1183	1.1761e+02	-7.0843	-28.445658	0.000406	4.057277	1.374643	-0.000162
1184	1.1771e+02	-7.1212	-28.562735	0.000294	2.941526	0.996616	-0.000118
1185	1.1781e+02	-7.1661	-28.679812	0.000294	2.941526	0.996616	-0.000118
1186	1.1791e+02	-7.1982	-28.817075	0.000345	3.448685	1.168446	-0.000138
1187	1.1801e+02	-7.2383	-28.962412	0.000365	3.651549	1.237178	-0.000146
1188	1.1811e+02	-7.2816	-29.107749	0.000365	3.651549	1.237178	-0.000146
1189	1.1821e+02	-7.3249	-29.273271	0.000416	4.158709	1.409009	-0.000166
1190	1.1831e+02	-7.3682	-29.418608	0.000365	3.651549	1.237178	-0.000146
1191	1.1841e+02	-7.4067	-29.531648	0.000284	2.840094	0.962250	-0.000114
1192	1.1850e+02	-7.4485	-29.668911	0.000345	3.448685	1.168446	-0.000138
1193	1.1860e+02	-7.4854	-29.761765	0.000233	2.332934	0.790420	-0.000093
1194	1.1870e+02	-7.5174	-29.975733	0.000538	5.375892	1.821402	-0.000215
1195	1.1880e+02	-7.5575	-30.092810	0.000294	2.941526	0.996616	-0.000118
1196	1.1890e+02	-7.6009	-30.282555	0.000477	4.767300	1.615205	-0.000191
1197	1.1900e+02	-7.6474	-30.407706	0.000314	3.144390	1.065348	-0.000126
1198	1.1910e+02	-7.6891	-30.549006	0.000355	3.550117	1.202812	-0.000142
1199	1.1920e+02	-7.7132	-30.706454	0.000396	3.955845	1.340277	-0.000158
1200	1.1930e+02	-7.7709	-30.839680	0.000335	3.347254	1.134080	-0.000134
1201	1.1940e+02	-7.8030	-30.989054	0.000375	3.752981	1.271544	-0.000150
1202	1.1950e+02	-7.8367	-31.134391	0.000365	3.651549	1.237178	-0.000146
1203	1.1960e+02	-7.8768	-31.279728	0.000365	3.651549	1.237178	-0.000146
1204	1.1970e+02	-7.9249	-31.408916	0.000325	3.245822	1.099714	-0.000130
1205	1.1980e+02	-7.9650	-31.530030	0.000304	3.042958	1.030982	-0.000122
1206	1.1990e+02	-8.0083	-31.711701	0.000456	4.564437	1.546473	-0.000183
1207	1.2000e+02	-8.0420	-31.844927	0.000335	3.347254	1.134080	-0.000134
1208	1.2010e+02	-8.0789	-31.945855	0.000254	2.535798	0.859152	-0.000101
1209	1.2020e+02	-8.1190	-32.075043	0.000325	3.245822	1.099714	-0.000130
1210	1.2030e+02	-8.1559	-32.196158	0.000304	3.042958	1.030982	-0.000122
1211	1.2039e+02	-8.2040	-32.321309	0.000314	3.144390	1.065348	-0.000126
1212	1.2049e+02	-8.2345	-32.498943	0.000446	4.463005	1.512107	-0.000179
1213	1.2059e+02	-8.2746	-32.636205	0.000345	3.448685	1.168446	-0.000138
1214	1.2069e+02	-8.3244	-32.777505	0.000355	3.550117	1.202812	-0.000142
1215	1.2079e+02	-8.3613	-32.934953	0.000396	3.955845	1.340277	-0.000158
1216	1.2089e+02	-8.3982	-33.072216	0.000345	3.448685	1.168446	-0.000138
1217	1.2099e+02	-8.4431	-33.213516	0.000355	3.550117	1.202812	-0.000142
1218	1.2109e+02	-8.4736	-33.415373	0.000507	5.071596	1.718303	-0.000203
1219	1.2119e+02	-8.5105	-33.524375	0.000274	2.738662	0.927884	-0.000110
1220	1.2129e+02	-8.5538	-33.669712	0.000365	3.651549	1.237178	-0.000146
1221	1.2139e+02	-8.6019	-33.794863	0.000314	3.144390	1.065348	-0.000126
1222	1.2149e+02	-8.6436	-33.911940	0.000294	2.941526	0.996616	-0.000118
1223	1.2159e+02	-8.6741	-34.077463	0.000416	4.158709	1.409009	-0.000166
1224	1.2169e+02	-8.7174	-34.190503	0.000284	2.840094	0.962250	-0.000114
1225	1.2179e+02	-8.7607	-34.319691	0.000325	3.245822	1.099714	-0.000130
1226	1.2189e+02	-8.7976	-34.485213	0.000416	4.158709	1.409009	-0.000166
1227	1.2199e+02	-8.8409	-34.622476	0.000345	3.448685	1.168446	-0.000138
1228	1.2209e+02	-8.8842	-34.715330	0.000233	2.332934	0.790420	-0.000093
1229	1.2219e+02	-8.9115	-34.864704	0.000375	3.752981	1.271544	-0.000150
1230	1.2229e+02	-8.9420	-35.034264	0.000426	4.260141	1.443375	-0.000170
1231	1.2239e+02	-8.9933	-35.171527	0.000345	3.448685	1.168446	-0.000138
1232	1.2248e+02	-9.0415	-35.328975	0.000396	3.955845	1.340277	-0.000158
1233	1.2258e+02	-9.0816	-35.462200	0.000335	3.347254	1.134080	-0.000134
1234	1.2268e+02	-9.1201	-35.551017	0.000223	2.231502	0.756053	-0.000089
1235	1.2278e+02	-9.1521	-35.752874	0.000507	5.071596	1.718303	-0.000203
1236	1.2288e+02	-9.1923	-35.873988	0.000304	3.042958	1.030982	-0.000122
1237	1.2298e+02	-9.2420	-35.987028	0.000284	2.840094	0.962250	-0.000114
1238	1.2308e+02	-9.2709	-36.144476	0.000396	3.955845	1.340277	-0.000158
1239	1.2318e+02	-9.3222	-36.305962	0.000406	4.057277	1.374643	-0.000162
1240	1.2328e+02	-9.3511	-36.410927	0.000264	2.637230	0.893518	-0.000105
1241	1.2338e+02	-9.4008	-36.511856	0.000254	2.535798	0.859152	-0.000101
1242	1.2348e+02	-9.4345	-36.681415	0.000426	4.260141	1.443375	-0.000170
1243	1.2358e+02	-9.4826	-36.806567	0.000314	3.144390	1.065348	-0.000126
1244	1.2368e+02	-9.5163	-36.959978	0.000385	3.854413	1.305911	-0.000154
1245	1.2378e+02	-9.5500	-37.052832	0.000233	2.332934	0.790420	-0.000093
1246	1.2388e+02	-9.5901	-37.226429	0.000436	4.361573	1.477741	-0.000174
1247	1.2398e+02	-9.6286	-37.327357	0.000254	2.535798	0.859152	-0.000101
1248	1.2408e+02	-9.6767	-37.476731	0.000375	3.752981	1.271544	-0.000150
1249	1.2418e+02	-9.7217	-37.597845	0.000304	3.042958	1.030982	-0.000122
1250	1.2428e+02	-9.7569	-37.727033	0.000325	3.245822	1.099714	-0.000130
1251	1.2438e+02	-9.7890	-37.908705	0.000456	4.564437	1.546473	-0.000183
1252	1.2447e+02	-9.8307	-37.997522	0.000223	2.231502	0.756053	-0.000089
1253	1.2457e+02	-9.8692	-38.126710	0.000325	3.245822	1.099714	-0.000130
1254	1.2467e+02	-9.9061	-38.324530	0.000497	4.970164	1.683937	-0.000199
1255	1.2477e+02	-9.9543	-38.405272	0.000203	2.028638	0.687321	-0.000081
1256	1.2487e+02	-9.9992	-38.534461	0.000325	3.245822	1.099714	-0.000130
1257	1.2497e+02	-10.0297	-38.615203	0.000203	2.028638	0.687321	-0.000081
1258	1.2507e+02	-10.0826	-38.821097	0.000517	5.173028	1.752669	-0.000207
1259	1.2517e+02	-10.1147	-38.930100	0.000274	2.738662	0.927884	-0.000110
1260	1.2527e+02	-10.1532	-39.095622	0.000416	4.158709	1.409009	-0.000166
1261	1.2537e+02	-10.1949	-39.188477	0.000233	2.332934	0.790420	-0.000093
1262	1.2547e+02	-10.2350	-39.313628	0.000314	3.144390	1.065348	-0.000126
1263	1.2557e+02	-10.2751	-39.463002	0.000375	3.752981	1.271544	-0.000150
1264	1.2567e+02	-10.3152	-39.636599	0.000436	4.361573	1.477741	-0.000174
1265	1.2577e+02	-10.3537	-39.761750	0.000314	3.144390	1.065348	-0.000126
1266	1.2587e+02	-10.3954	-39.915161	0.000385	3.854413	1.305911	-0.000154
1267	1.2597e+02	-10.4243	-39.995904	0.000203	2.028638	0.687321	-0.000081
1268	1.2607e+02	-10.4772	-40.129129	0.000335	3.347254	1.134080	-0.000134
1269	1.2617e+02	-10.5157	-40.234095	0.000264	2.637230	0.893518	-0.000105
1270	1.2627e+02	-10.5542	-40.391543	0.000396	3.955845	1.340277	-0.000158
1271	1.2636e+02	-10.5895	-40.528806	0.000345	3.448685	1.168446	-0.000138
1272	1.2646e+02	-10.6280	-40.649920	0.000304	3.042958	1.030982	-0.000122
1273	1.2656e+02	-10.6730	-40.783145	0.000335	3.347254	1.134080	-0.000134
1274	1.2666e+02	-10.7099	-40.900222	0.000294	2.941526	0.996616	-0.000118
1275	1.2676e+02	-10.7484	-41.077856	0.000446	4.463005	1.512107	-0.000179
1276	1.2686e+02	-10.7981	-41.194933	0.000294	2.941526	0.996616	-0.000118
1277	1.2696e+02	-10.8189	-41.332196	0.000345	3.448685	1.168446	-0.000138
1278	1.2706e+02	-10.8703	-41.433124	0.000254	2.535798	0.859152	-0.000101
1279	1.2716e+02	-10.9152	-41.598647	0.000416	4.158709	1.409009	-0.000166
1280	1.2726e+02	-10.9521	-41.683426	0.000213	2.130070	0.721687	-0.000085
1281	1.2736e+02	-10.9810	-41.857023	0.000436	4.361573	1.477741	-0.000174
1282	1.2746e+02	-11.0275	-41.961989	0.000264	2.637230	0.893518	-0.000105
1283	1.2756e+02	-11.0676	-42.123474	0.000406	4.057277	1.374643	-0.000162
1284	1.2766e+02	-11.1013	-42.276885	0.000385	3.854413	1.305911	-0.000154
1285	1.2776e+02	-11.1542	-42.361665	0.000213	2.130070	0.721687	-0.000085
1286	1.2786e+02	-11.1895	-42.511039	0.000375	3.752981	1.271544	-0.000150
1287	1.2796e+02	-11.2344	-42.656376	0.000365	3.651549	1.237178	-0.000146
1288	1.2806e+02	-11.2665	-42.761342	0.000264	2.637230	0.893518	-0.000105
1289	1.2816e+02	-11.3098	-42.862270	0.000254	2.535798	0.859152	-0.000101
1290	1.2826e+02	-11.3532	-43.015681	0.000385	3.854413	1.305911	-0.000154
1291	1.2835e+02	-11.3852	-43.152944	0.000345	3.448685	1.168446	-0.000138
1292	1.2845e+02	-11.4237	-43.290207	0.000345	3.448685	1.168446	-0.000138
1293	1.2855e+02	-11.4703	-43.411321	0.000304	3.042958	1.030982	-0.000122
1294	1.2865e+02	-11.5056	-43.528398	0.000294	2.941526	0.996616	-0.000118
1295	1.2875e+02	-11.5505	-43.653549	0.000314	3.144390	1.065348	-0.000126
1296	1.2885e+02	-11.5906	-43.835220	0.000456	4.564437	1.546473	-0.000183
1297	1.2895e+02	-11.6355	-43.903851	0.000172	1.724343	0.584223	-0.000069
1298	1.2905e+02	-11.6676	-44.065337	0.000406	4.057277	1.374643	-0.000162
1299	1.2915e+02	-11.7109	-44.194525	0.000325	3.245822	1.099714	-0.000130
1300	1.2925e+02	-11.7462	-44.380233	0.000467	4.665869	1.580839	-0.000187
1301	1.2935e+02	-11.7879	-44.465013	0.000213	2.130070	0.721687	-0.000085
1302	1.2945e+02	-11.8248	-44.590164	0.000314	3.144390	1.065348	-0.000126
1303	1.2955e+02	-11.8713	-44.715315	0.000314	3.144390	1.065348	-0.000126
1304	1.2965e+02	-11.9050	-44.840467	0.000314	3.144390	1.065348	-0.000126
1305	1.2975e+02	-11.9419	-44.981766	0.000355	3.550117	1.202812	-0.000142
1306	1.2985e+02	-11.9900	-45.094806	0.000284	2.840094	0.962250	-0.000114
1307	1.2995e+02	-12.0205	-45.232069	0.000345	3.448685	1.168446	-0.000138
1308	1.3005e+02	-12.0702	-45.357220	0.000314	3.144390	1.065348	-0.000126
1309	1.3015e+02	-12.1104	-45.425851	0.000172	1.724343	0.584223	-0.000069
1310	1.3025e+02	-12.1456	-45.631745	0.000517	5.173028	1.752669	-0.000207
1311	1.3034e+02	-12.1890	-45.748822	0.000294	2.941526	0.996616	-0.000118
1312	1.3044e+02	-12.2307	-45.841676	0.000233	2.332934	0.790420	-0.000093
1313	1.3054e+02	-12.2628	-45.966828	0.000314	3.144390	1.065348	-0.000126
1314	1.3064e+02	-12.3125	-46.136387	0.000426	4.260141	1.443375	-0.000170
1315	1.3074e+02	-12.3414	-46.192907	0.000142	1.420047	0.481125	-0.000057
1316	1.3084e+02	-12.3831	-46.342281	0.000375	3.752981	1.271544	-0.000150
1317	1.3094e+02	-12.4232	-46.495692	0.000385	3.854413	1.305911	-0.000154
1318	1.3104e+02	-12.4553	-46.628918	0.000335	3.347254	1.134080	-0.000134
1319	1.3114e+02	-12.4938	-46.745995	0.000294	2.941526	0.996616	-0.000118
1320	1.3124e+02	-12.5499	-46.850960	0.000264	2.637230	0.893518	-0.000105
1321	1.3134e+02	-12.5788	-46.976111	0.000314	3.144390	1.065348	-0.000126
1322	1.3144e+02	-12.6157	-47.129523	0.000385	3.854413	1.305911	-0.000154
1323	1.3154e+02	-12.6783	-47.262748	0.000335	3.347254	1.134080	-0.000134
1324	1.3164e+02	-12.7007	-47.355602	0.000233	2.332934	0.790420	-0.000093
1325	1.3174e+02	-12.7376	-47.529199	0.000436	4.361573	1.477741	-0.000174
1326	1.3184e+02	-12.7857	-47.670499	0.000355	3.550117	1.202812	-0.000142
1327	1.3194e+02	-12.8307	-47.779501	0.000274	2.738662	0.927884	-0.000110
1328	1.3204e+02	-12.8692	-47.912727	0.000335	3.347254	1.134080	-0.000134
1329	1.3214e+02	-12.8884	-48.025767	0.000284	2.840094	0.962250	-0.000114
1330	1.3224e+02	-12.9381	-48.150918	0.000314	3.144390	1.065348	-0.000126
1331	1.3234e+02	-12.9718	-48.243772	0.000233	2.332934	0.790420	-0.000093
1332	1.3243e+02	-13.0183	-48.409295	0.000416	4.158709	1.409009	-0.000166
1333	1.3253e+02	-13.0633	-48.534446	0.000314	3.144390	1.065348	-0.000126
1334	1.3263e+02	-13.0937	-48.708043	0.000436	4.361573	1.477741	-0.000174
1335	1.3273e+02	-13.1371	-48.837231	0.000325	3.245822	1.099714	-0.000130
1336	1.3283e+02	-13.1756	-48.938159	0.000254	2.535798	0.859152	-0.000101
1337	1.3293e+02	-13.2141	-49.087533	0.000375	3.752981	1.271544	-0.000150
1338	1.3303e+02	-13.2606	-49.216722	0.000325	3.245822	1.099714	-0.000130
1339	1.3313e+02	-13.3007	-49.321687	0.000264	2.637230	0.893518	-0.000105
1340	1.3323e+02	-13.3408	-49.442801	0.000304	3.042958	1.030982	-0.000122
1341	1.3333e+02	-13.3793	-49.571990	0.000325	3.245822	1.099714	-0.000130
1342	1.3343e+02	-13.4146	-49.729438	0.000396	3.955845	1.340277	-0.000158
1343	1.3353e+02	-13.4515	-49.854589	0.000314	3.144390	1.065348	-0.000126
1344	1.3363e+02	-13.5076	-49.963592	0.000274	2.738662	0.927884	-0.000110
1345	1.3373e+02	-13.5461	-50.080669	0.000294	2.941526	0.996616	-0.000118
1346	1.3383e+02	-13.5798	-50.205820	0.000314	3.144390	1.065348	-0.000126
1347	1.3393e+02	-13.6280	-50.359231	0.000385	3.854413	1.305911	-0.000154
1348	1.3403e+02	-13.6584	-50.480345	0.000304	3.042958	1.030982	-0.000122
1349	1.3413e+02	-13.7082	-50.565125	0.000213	2.130070	0.721687	-0.000085
1350	1.3423e+02	-13.7370	-50.690276	0.000314	3.144390	1.065348	-0.000126
1351	1.3432e+02	-13.7772	-50.831576	0.000355	3.550117	1.202812	-0.000142
1352	1.3442e+02	-13.8189	-50.952690	0.000304	3.042958	1.030982	-0.000122
1353	1.3452e+02	-13.8574	-51.085916	0.000335	3.347254	1.134080	-0.000134
1354	1.3462e+02	-13.8943	-51.219141	0.000335	3.347254	1.134080	-0.000134
1355	1.3472e+02	-13.9488	-51.372552	0.000385	3.854413	1.305911	-0.000154
1356	1.3482e+02	-13.9665	-51.521926	0.000375	3.752981	1.271544	-0.000150
1357	1.3492e+02	-14.0162	-51.594595	0.000183	1.825775	0.618589	-0.000073
1358	1.3502e+02	-14.0611	-51.764154	0.000426	4.260141	1.443375	-0.000170
1359	1.3512e+02	-14.0996	-51.848934	0.000213	2.130070	0.721687	-0.000085
1360	1.3522e+02	-14.1413	-51.974085	0.000314	3.144390	1.065348	-0.000126
1361	1.3532e+02	-14.1862	-52.119422	0.000365	3.651549	1.237178	-0.000146
1362	1.3542e+02	-14.2119	-52.196128	0.000193	1.927207	0.652955	-0.000077
1363	1.3552e+02	-14.2584	-52.373762	0.000446	4.463005	1.512107	-0.000179
1364	1.3562e+02	-14.2985	-52.470653	0.000243	2.434366	0.824786	-0.000097
1365	1.3572e+02	-14.3386	-52.624064	0.000385	3.854413	1.305911	-0.000154
1366	1.3582e+02	-14.3836	-52.692696	0.000172	1.724343	0.584223	-0.000069
1367	1.3592e+02	-14.4060	-52.858218	0.000416	4.158709	1.409009	-0.000166
1368	1.3602e+02	-14.4573	-52.967221	0.000274	2.738662	0.927884	-0.000110
1369	1.3612e+02	-14.4926	-53.104483	0.000345	3.448685	1.168446	-0.000138
1370	1.3622e+02	-14.5343	-53.221560	0.000294	2.941526	0.996616	-0.000118
1371	1.3631e+02	-14.5745	-53.346712	0.000314	3.144390	1.065348	-0.000126
1372	1.3641e+02	-14.6162	-53.479937	0.000335	3.347254	1.134080	-0.000134
1373	1.3651e+02	-14.6482	-53.572791	0.000233	2.332934	0.790420	-0.000093
1374	1.3661e+02	-14.7028	-53.714091	0.000355	3.550117	1.202812	-0.000142
1375	1.3671e+02	-14.7333	-53.851354	0.000345	3.448685	1.168446	-0.000138
1376	1.3681e+02	-14.7686	-53.972468	0.000304	3.042958	1.030982	-0.000122
1377	1.3691e+02	-14.8231	-54.085507	0.000284	2.840094	0.962250	-0.000114
1378	1.3701e+02	-14.8472	-54.190473	0.000264	2.637230	0.893518	-0.000105
1379	1.3711e+02	-14.8873	-54.335810	0.000365	3.651549	1.237178	-0.000146
1380	1.3721e+02	-14.9338	-54.404441	0.000172	1.724343	0.584223	-0.000069
1381	1.3731e+02	-14.9803	-54.574001	0.000426	4.260141	1.443375	-0.000170
1382	1.3741e+02	-15.0076	-54.683004	0.000274	2.738662	0.927884	-0.000110
1383	1.3751e+02	-15.0525	-54.860638	0.000446	4.463005	1.512107	-0.000179
1384	1.3761e+02	-15.0894	-54.981752	0.000304	3.042958	1.030982	-0.000122
1385	1.3771e+02	-15.1199	-55.038272	0.000142	1.420047	0.481125	-0.000057
1386	1.3781e+02	-15.1744	-55.211868	0.000436	4.361573	1.477741	-0.000174
1387	1.3791e+02	-15.2161	-55.353168	0.000355	3.550117	1.202812	-0.000142
1388	1.3801e+02	-15.2579	-55.450059	0.000243	2.434366	0.824786	-0.000097
1389	1.3811e+02	-15.2932	-55.571173	0.000304	3.042958	1.030982	-0.000122
1390	1.3821e+02	-15.3349	-55.688250	0.000294	2.941526	0.996616	-0.000118
1391	1.3831e+02	-15.3766	-55.833587	0.000365	3.651549	1.237178	-0.000146
1392	1.3840e+02	-15.4135	-55.918367	0.000213	2.130070	0.721687	-0.000085
1393	1.3850e+02	-15.4456	-56.096001	0.000446	4.463005	1.512107	-0.000179
1394	1.3860e+02	-15.4953	-56.217115	0.000304	3.042958	1.030982	-0.000122
1395	1.3870e+02	-15.5338	-56.289784	0.000183	1.825775	0.618589	-0.000073
1396	1.3880e+02	-15.5787	-56.471455	0.000456	4.564437	1.546473	-0.000183
1397	1.3890e+02	-15.6140	-56.556235	0.000213	2.130070	0.721687	-0.000085
1398	1.3900e+02	-15.6509	-56.669274	0.000284	2.840094	0.962250	-0.000114
1399	1.3910e+02	-15.7038	-56.834797	0.000416	4.158709	1.409009	-0.000166
1400	1.3920e+02	-15.7343	-56.963985	0.000325	3.245822	1.099714	-0.000130
1401	1.3930e+02	-15.7664	-57.093174	0.000325	3.245822	1.099714	-0.000130
1402	1.3940e+02	-15.7985	-57.181991	0.000223	2.231502	0.756053	-0.000089
1403	1.3950e+02	-15.8482	-57.299068	0.000294	2.941526	0.996616	-0.000118
1404	1.3960e+02	-15.8931	-57.420182	0.000304	3.042958	1.030982	-0.000122
1405	1.3970e+02	-15.9268	-57.553407	0.000335	3.347254	1.134080	-0.000134
1406	1.3980e+02	-15.9653	-57.678558	0.000314	3.144390	1.065348	-0.000126
1407	1.3990e+02	-16.0086	-57.783524	0.000264	2.637230	0.893518	-0.000105
1408	1.4000e+02	-16.0568	-57.924824	0.000355	3.550117	1.202812	-0.000142
1409	1.4010e+02	-16.0905	-58.009603	0.000213	2.130070	0.721687	-0.000085
1410	1.4020e+02	-16.1241	-58.146866	0.000345	3.448685	1.168446	-0.000138
1411	1.4029e+02	-16.1691	-58.255869	0.000274	2.738662	0.927884	-0.000110
1412	1.4039e+02	-16.2044	-58.372946	0.000294	2.941526	0.996616	-0.000118
1413	1.4049e+02	-16.2493	-58.465800	0.000233	2.332934	0.790420	-0.000093
1414	1.4059e+02	-16.2926	-58.586914	0.000304	3.042958	1.030982	-0.000122
1415	1.4069e+02	-16.3295	-58.732251	0.000365	3.651549	1.237178	-0.000146
1416	1.4079e+02	-16.3696	-58.837216	0.000264	2.637230	0.893518	-0.000105
1417	1.4089e+02	-16.4033	-58.986590	0.000375	3.752981	1.271544	-0.000150
1418	1.4099e+02	-16.4450	-59.067333	0.000203	2.028638	0.687321	-0.000081
1419	1.4109e+02	-16.4851	-59.208633	0.000355	3.550117	1.202812	-0.000142
1420	1.4119e+02	-16.5268	-59.321673	0.000284	2.840094	0.962250	-0.000114
1421	1.4129e+02	-16.5637	-59.462972	0.000355	3.550117	1.202812	-0.000142
1422	1.4139e+02	-16.6022	-59.567938	0.000264	2.637230	0.893518	-0.000105
1423	1.4149e+02	-16.6407	-59.668866	0.000254	2.535798	0.859152	-0.000101
1424	1.4159e+02	-16.6856	-59.814203	0.000365	3.651549	1.237178	-0.000146
1425	1.4169e+02	-16.7177	-59.923206	0.000274	2.738662	0.927884	-0.000110
1426	1.4179e+02	-16.7690	-60.032208	0.000274	2.738662	0.927884	-0.000110
1427	1.4189e+02	-16.8075	-60.129100	0.000243	2.434366	0.824786	-0.000097
1428	1.4199e+02	-16.8412	-60.270399	0.000355	3.550117	1.202812	-0.000142
1429	1.4209e+02	-16.8894	-60.391514	0.000304	3.042958	1.030982	-0.000122
1430	1.4219e+02	-16.9327	-60.548962	0.000396	3.955845	1.340277	-0.000158
1431	1.4228e+02	-16.9680	-60.637779	0.000223	2.231502	0.756053	-0.000089
1432	1.4238e+02	-17.0129	-60.750819	0.000284	2.840094	0.962250	-0.000114
1433	1.4248e+02	-17.0514	-60.904230	0.000385	3.854413	1.305911	-0.000154
1434	1.4258e+02	-17.0787	-60.993047	0.000223	2.231502	0.756053	-0.000089
1435	1.4268e+02	-17.1188	-61.110124	0.000294	2.941526	0.996616	-0.000118
1436	1.4278e+02	-17.1685	-61.259498	0.000375	3.752981	1.271544	-0.000150
1437	1.4288e+02	-17.2022	-61.320055	0.000152	1.521479	0.515491	-0.000061
1438	1.4298e+02	-17.2487	-61.473466	0.000385	3.854413	1.305911	-0.000154
1439	1.4308e+02	-17.2904	-61.598617	0.000314	3.144390	1.065348	-0.000126
1440	1.4318e+02	-17.3273	-61.735880	0.000345	3.448685	1.168446	-0.000138
1441	1.4328e+02	-17.3626	-61.861031	0.000314	3.144390	1.065348	-0.000126
1442	1.4338e+02	-17.4059	-61.994256	0.000335	3.347254	1.134080	-0.000134
1443	1.4348e+02	-17.4412	-62.119408	0.000314	3.144390	1.065348	-0.000126
1444	1.4358e+02	-17.4749	-62.244559	0.000314	3.144390	1.065348	-0.000126
1445	1.4368e+02	-17.5214	-62.329339	0.000213	2.130070	0.721687	-0.000085
1446	1.4378e+02	-17.5647	-62.458527	0.000325	3.245822	1.099714	-0.000130
1447	1.4388e+02	-17.6032	-62.615975	0.000396	3.955845	1.340277	-0.000158
1448	1.4398e+02	-17.6466	-62.720941	0.000264	2.637230	0.893518	-0.000105
1449	1.4408e+02	-17.6883	-62.813795	0.000233	2.332934	0.790420	-0.000093
1450	1.4418e+02	-17.7220	-62.951058	0.000345	3.448685	1.168446	-0.000138
1451	1.4428e+02	-17.7685	-63.084283	0.000335	3.347254	1.134080	-0.000134
1452	1.4437e+02	-17.7990	-63.197323	0.000284	2.840094	0.962250	-0.000114
1453	1.4447e+02	-17.8487	-63.282103	0.000213	2.130070	0.721687	-0.000085
1454	1.4457e+02	-17.8792	-63.366883	0.000213	2.130070	0.721687	-0.000085
1455	1.4467e+02	-17.9129	-63.540479	0.000436	4.361573	1.477741	-0.000174
1456	1.4477e+02	-17.9642	-63.657556	0.000294	2.941526	0.996616	-0.000118
1457	1.4487e+02	-18.0011	-63.823079	0.000416	4.158709	1.409009	-0.000166
1458	1.4497e+02	-18.0348	-63.928044	0.000264	2.637230	0.893518	-0.000105
1459	1.4507e+02	-18.0733	-64.049158	0.000304	3.042958	1.030982	-0.000122
1460	1.4517e+02	-18.1246	-64.210644	0.000406	4.057277	1.374643	-0.000162
1461	1.4527e+02	-18.1615	-64.283312	0.000183	1.825775	0.618589	-0.000073
1462	1.4537e+02	-18.1968	-64.448835	0.000416	4.158709	1.409009	-0.000166
1463	1.4547e+02	-18.2305	-64.573986	0.000314	3.144390	1.065348	-0.000126
1464	1.4557e+02	-18.2850	-64.646655	0.000183	1.825775	0.618589	-0.000073
1465	1.4567e+02	-18.3252	-64.820251	0.000436	4.361573	1.477741	-0.000174
1466	1.4577e+02	-18.3476	-64.937328	0.000294	2.941526	0.996616	-0.000118
1467	1.4587e+02	-18.4006	-65.050368	0.000284	2.840094	0.962250	-0.000114
1468	1.4597e+02	-18.4391	-65.175519	0.000314	3.144390	1.065348	-0.000126
1469	1.4607e+02	-18.4808	-65.300671	0.000314	3.144390	1.065348	-0.000126
1470	1.4617e+02	-18.5257	-65.429859	0.000325	3.245822	1.099714	-0.000130
1471	1.4626e+02	-18.5658	-65.550973	0.000304	3.042958	1.030982	-0.000122
1472	1.4636e+02	-18.5979	-65.672087	0.000304	3.042958	1.030982	-0.000122
1473	1.4646e+02	-18.6524	-65.773015	0.000254	2.535798	0.859152	-0.000101
1474	1.4656e+02	-18.6845	-65.918352	0.000365	3.651549	1.237178	-0.000146
1475	1.4666e+02	-18.7102	-66.055615	0.000345	3.448685	1.168446	-0.000138
1476	1.4676e+02	-18.7583	-66.152506	0.000243	2.434366	0.824786	-0.000097
1477	1.4686e+02	-18.8000	-66.309954	0.000396	3.955845	1.340277	-0.000158
1478	1.4696e+02	-18.8385	-66.410883	0.000254	2.535798	0.859152	-0.000101
1479	1.4706e+02	-18.8802	-66.519886	0.000274	2.738662	0.927884	-0.000110
1480	1.4716e+02	-18.9155	-66.649074	0.000325	3.245822	1.099714	-0.000130
1481	1.4726e+02	-18.9524	-66.810559	0.000406	4.057277	1.374643	-0.000162
1482	1.4736e+02	-18.9957	-66.935711	0.000314	3.144390	1.065348	-0.000126
1483	1.4746e+02	-19.0390	-67.072973	0.000345	3.448685	1.168446	-0.000138
1484	1.4756e+02	-19.0807	-67.214273	0.000355	3.550117	1.202812	-0.000142
1485	1.4766e+02	-19.1241	-67.303090	0.000223	2.231502	0.756053	-0.000089
1486	1.4776e+02	-19.1577	-67.456501	0.000385	3.854413	1.305911	-0.000154
1487	1.4786e+02	-19.1930	-67.569541	0.000284	2.840094	0.962250	-0.000114
1488	1.4796e+02	-19.2315	-67.726989	0.000396	3.955845	1.340277	-0.000158
1489	1.4806e+02	-19.2781	-67.904623	0.000446	4.463005	1.512107	-0.000179
1490	1.4816e+02	-19.3182	-68.013626	0.000274	2.738662	0.927884	-0.000110
1491	1.4825e+02	-19.3487	-68.110517	0.000243	2.434366	0.824786	-0.000097
1492	1.4835e+02	-19.3904	-68.239705	0.000325	3.245822	1.099714	-0.000130
1493	1.4845e+02	-19.4401	-68.364857	0.000314	3.144390	1.065348	-0.000126
1494	1.4855e+02	-19.4674	-68.506156	0.000355	3.550117	1.202812	-0.000142
1495	1.4865e+02	-19.5155	-68.691865	0.000467	4.665869	1.580839	-0.000187
1496	1.4875e+02	-19.5604	-68.788756	0.000243	2.434366	0.824786	-0.000097
1497	1.4885e+02	-19.5909	-68.938130	0.000375	3.752981	1.271544	-0.000150
1498	1.4895e+02	-19.6342	-69.026947	0.000223	2.231502	0.756053	-0.000089
1499	1.4905e+02	-19.6727	-69.192469	0.000416	4.158709	1.409009	-0.000166
1500	1.4915e+02	-19.7192	-69.329732	0.000345	3.448685	1.168446	-0.000138
1501	1.4925e+02	-19.7561	-69.450846	0.000304	3.042958	1.030982	-0.000122
1502	1.4935e+02	-19.7962	-69.608294	0.000396	3.955845	1.340277	-0.000158
1503	1.4945e+02	-19.8395	-69.798040	0.000477	4.767300	1.615205	-0.000191
1504	1.4955e+02	-19.8813	-69.898968	0.000254	2.535798	0.859152	-0.000101
1505	1.4965e+02	-19.9101	-70.060454	0.000406	4.057277	1.374643	-0.000162
1506	1.4975e+02	-19.9534	-70.238088	0.000446	4.463005	1.512107	-0.000179
1507	1.4985e+02	-19.9743	-70.339016	0.000254	2.535798	0.859152	-0.000101
1508	1.4995e+02	-19.9663	-70.290570	0.000122	1.217183	0.412393	0.000049
1509	1.5005e+02	-19.9117	-70.250199	0.000101	1.014319	0.343661	0.000041
1510	1.5015e+02	-19.8604	-70.193679	0.000142	1.420047	0.481125	0.000057
1511	1.5025e+02	-19.8395	-70.108899	0.000213	2.130070	0.721687	0.000085
1512	1.5034e+02	-19.7914	-70.032194	0.000193	1.927207	0.652955	0.000077
1513	1.5044e+02	-19.7497	-69.979711	0.000132	1.318615	0.446759	0.000053
1514	1.5054e+02	-19.7128	-69.959525	0.000051	0.507160	0.171830	0.000020
1515	1.5064e+02	-19.6759	-69.915117	0.000112	1.115751	0.378027	0.000045
1516	1.5074e+02	-19.6294	-69.826300	0.000223	2.231502	0.756053	0.000089
1517	1.5084e+02	-19.6021	-69.733446	0.000233	2.332934	0.790420	0.000093
1518	1.5094e+02	-19.5668	-69.680963	0.000132	1.318615	0.446759	0.000053
1519	1.5104e+02	-19.5091	-69.620406	0.000152	1.521479	0.515491	0.000061
1520	1.5114e+02	-19.4754	-69.507366	0.000284	2.840094	0.962250	0.000114
1521	1.5124e+02	-19.4369	-69.438735	0.000172	1.724343	0.584223	0.000069
1522	1.5134e+02	-19.4000	-69.398363	0.000101	1.014319	0.343661	0.000041
1523	1.5144e+02	-19.3519	-69.366066	0.000081	0.811455	0.274929	0.000032
1524	1.5154e+02	-19.3198	-69.277249	0.000223	2.231502	0.756053	0.000089
1525	1.5164e+02	-19.2781	-69.184395	0.000233	2.332934	0.790420	0.000093
1526	1.5174e+02	-19.2412	-69.111727	0.000183	1.825775	0.618589	0.000073
1527	1.5184e+02	-19.2027	-69.026947	0.000213	2.130070	0.721687	0.000085
1528	1.5194e+02	-19.1513	-68.950241	0.000193	1.927207	0.652955	0.000077
1529	1.5204e+02	-19.1144	-68.881610	0.000172	1.724343	0.584223	0.000069
1530	1.5214e+02	-19.0727	-68.800867	0.000203	2.028638	0.687321	0.000081
1531	1.5224e+02	-19.0342	-68.724162	0.000193	1.927207	0.652955	0.000077
1532	1.5233e+02	-19.0005	-68.647456	0.000193	1.927207	0.652955	0.000077
1533	1.5243e+02	-18.9572	-68.550565	0.000243	2.434366	0.824786	0.000097
1534	1.5253e+02	-18.9219	-68.449636	0.000254	2.535798	0.859152	0.000101
1535	1.5263e+02	-18.8802	-68.401191	0.000122	1.217183	0.412393	0.000049
1536	1.5273e+02	-18.8369	-68.280077	0.000304	3.042958	1.030982	0.000122
1537	1.5283e+02	-18.7952	-68.231631	0.000122	1.217183	0.412393	0.000049
1538	1.5293e+02	-18.7599	-68.167037	0.000162	1.622911	0.549857	0.000065
1539	1.5303e+02	-18.7310	-68.045923	0.000304	3.042958	1.030982	0.000122
1540	1.5313e+02	-18.6669	-68.001514	0.000112	1.115751	0.378027	0.000045
1541	1.5323e+02	-18.6348	-67.880400	0.000304	3.042958	1.030982	0.000122
1542	1.5333e+02	-18.5979	-67.831955	0.000122	1.217183	0.412393	0.000049
1543	1.5343e+02	-18.5546	-67.726989	0.000264	2.637230	0.893518	0.000105
1544	1.5353e+02	-18.5177	-67.601838	0.000314	3.144390	1.065348	0.000126
1545	1.5363e+02	-18.4759	-67.549355	0.000132	1.318615	0.446759	0.000053
1546	1.5373e+02	-18.4407	-67.456501	0.000233	2.332934	0.790420	0.000093
1547	1.5383e+02	-18.3957	-67.351536	0.000264	2.637230	0.893518	0.000105
1548	1.5393e+02	-18.3588	-67.286941	0.000162	1.622911	0.549857	0.000065
1549	1.5403e+02	-18.3139	-67.169864	0.000294	2.941526	0.996616	0.000118
1550	1.5413e+02	-18.2770	-67.093159	0.000193	1.927207	0.652955	0.000077
1551	1.5422e+02	-18.2353	-67.064899	0.000071	0.710023	0.240562	0.000028
1552	1.5432e+02	-18.2064	-66.919562	0.000365	3.651549	1.237178	0.000146
1553	1.5442e+02	-18.1647	-66.826708	0.000233	2.332934	0.790420	0.000093
1554	1.5452e+02	-18.1134	-66.737891	0.000223	2.231502	0.756053	0.000089
1555	1.5462e+02	-18.0845	-66.612740	0.000314	3.144390	1.065348	0.000126
1556	1.5472e+02	-18.0396	-66.608703	0.000010	0.101432	0.034366	0.000004
1557	1.5482e+02	-18.0075	-66.463366	0.000365	3.651549	1.237178	0.000146
1558	1.5492e+02	-17.9546	-66.418957	0.000112	1.115751	0.378027	0.000045
1559	1.5502e+02	-17.9177	-66.326103	0.000233	2.332934	0.790420	0.000093
1560	1.5512e+02	-17.8856	-66.233249	0.000233	2.332934	0.790420	0.000093
1561	1.5522e+02	-17.8487	-66.112135	0.000304	3.042958	1.030982	0.000122
1562	1.5532e+02	-17.8022	-66.031392	0.000203	2.028638	0.687321	0.000081
1563	1.5542e+02	-17.7621	-65.918352	0.000284	2.840094	0.962250	0.000114
1564	1.5552e+02	-17.7220	-65.853758	0.000162	1.622911	0.549857	0.000065
1565	1.5562e+02	-17.6819	-65.764941	0.000223	2.231502	0.756053	0.000089
1566	1.5572e+02	-17.6466	-65.684198	0.000203	2.028638	0.687321	0.000081
1567	1.5582e+02	-17.6016	-65.563084	0.000304	3.042958	1.030982	0.000122
1568	1.5592e+02	-17.5647	-65.470230	0.000233	2.332934	0.790420	0.000093
1569	1.5602e+02	-17.5295	-65.385450	0.000213	2.130070	0.721687	0.000085
1570	1.5612e+02	-17.4893	-65.320856	0.000162	1.622911	0.549857	0.000065
1571	1.5622e+02	-17.4444	-65.223965	0.000243	2.434366	0.824786	0.000097
1572	1.5631e+02	-17.4091	-65.159371	0.000162	1.622911	0.549857	0.000065
1573	1.5641e+02	-17.3690	-65.022108	0.000345	3.448685	1.168446	0.000138
1574	1.5651e+02	-17.3129	-64.925217	0.000243	2.434366	0.824786	0.000097
1575	1.5661e+02	-17.2744	-64.848511	0.000193	1.927207	0.652955	0.000077
1576	1.5671e+02	-17.2375	-64.751620	0.000243	2.434366	0.824786	0.000097
1577	1.5681e+02	-17.1990	-64.658766	0.000233	2.332934	0.790420	0.000093
1578	1.5691e+02	-17.1605	-64.521503	0.000345	3.448685	1.168446	0.000138
1579	1.5701e+02	-17.1236	-64.380204	0.000355	3.550117	1.202812	0.000142
1580	1.5711e+02	-17.0947	-64.319647	0.000152	1.521479	0.515491	0.000061
1581	1.5721e+02	-17.0402	-64.222755	0.000243	2.434366	0.824786	0.000097
1582	1.5731e+02	-17.0097	-64.129901	0.000233	2.332934	0.790420	0.000093
1583	1.5741e+02	-16.9551	-64.033010	0.000243	2.434366	0.824786	0.000097
1584	1.5751e+02	-16.9198	-63.891710	0.000355	3.550117	1.202812	0.000142
1585	1.5761e+02	-16.8846	-63.815005	0.000193	1.927207	0.652955	0.000077
1586	1.5771e+02	-16.8493	-63.706002	0.000274	2.738662	0.927884	0.000110
1587	1.5781e+02	-16.8092	-63.625259	0.000203	2.028638	0.687321	0.000081
1588	1.5791e+02	-16.7658	-63.528368	0.000243	2.434366	0.824786	0.000097
1589	1.5801e+02	-16.7289	-63.435514	0.000233	2.332934	0.790420	0.000093
1590	1.5811e+02	-16.6776	-63.314400	0.000304	3.042958	1.030982	0.000122
1591	1.5821e+02	-16.6487	-63.221546	0.000233	2.332934	0.790420	0.000093
1592	1.5830e+02	-16.6006	-63.148877	0.000183	1.825775	0.618589	0.000073
1593	1.5840e+02	-16.5701	-63.035837	0.000284	2.840094	0.962250	0.000114
1594	1.5850e+02	-16.5140	-62.914723	0.000304	3.042958	1.030982	0.000122
1595	1.5860e+02	-16.4963	-62.862241	0.000132	1.318615	0.446759	0.000053
1596	1.5870e+02	-16.4418	-62.704792	0.000396	3.955845	1.340277	0.000158
1597	1.5880e+02	-16.4049	-62.656347	0.000122	1.217183	0.412393	0.000049
1598	1.5890e+02	-16.3712	-62.506973	0.000375	3.752981	1.271544	0.000150
1599	1.5900e+02	-16.3199	-62.402007	0.000264	2.637230	0.893518	0.000105
1600	1.5910e+02	-16.2830	-62.317227	0.000213	2.130070	0.721687	0.000085
1601	1.5920e+02	-16.2461	-62.232447	0.000213	2.130070	0.721687	0.000085
1602	1.5930e+02	-16.2028	-62.119408	0.000284	2.840094	0.962250	0.000114
1603	1.5940e+02	-16.1675	-62.054813	0.000162	1.622911	0.549857	0.000065
1604	1.5950e+02	-16.1290	-61.921588	0.000335	3.347254	1.134080	0.000134
1605	1.5960e+02	-16.0905	-61.836808	0.000213	2.130070	0.721687	0.000085
1606	1.5970e+02	-16.0471	-61.719731	0.000294	2.941526	0.996616	0.000118
1607	1.5980e+02	-16.0086	-61.610728	0.000274	2.738662	0.927884	0.000110
1608	1.5990e+02	-15.9589	-61.521912	0.000223	2.231502	0.756053	0.000089
1609	1.6000e+02	-15.9364	-61.441169	0.000203	2.028638	0.687321	0.000081
1610	1.6010e+02	-15.8899	-61.324092	0.000294	2.941526	0.996616	0.000118
1611	1.6019e+02	-15.8546	-61.207015	0.000294	2.941526	0.996616	0.000118
1612	1.6029e+02	-15.8145	-61.073789	0.000335	3.347254	1.134080	0.000134
1613	1.6039e+02	-15.7712	-60.984972	0.000223	2.231502	0.756053	0.000089
1614	1.6049e+02	-15.7359	-60.920378	0.000162	1.622911	0.549857	0.000065
1615	1.6059e+02	-15.6862	-60.787153	0.000335	3.347254	1.134080	0.000134
1616	1.6069e+02	-15.6525	-60.726596	0.000152	1.521479	0.515491	0.000061
1617	1.6079e+02	-15.6012	-60.601445	0.000314	3.144390	1.065348	0.000126
1618	1.6089e+02	-15.5691	-60.492442	0.000274	2.738662	0.927884	0.000110
1619	1.6099e+02	-15.5290	-60.439959	0.000132	1.318615	0.446759	0.000053
1620	1.6109e+02	-15.4921	-60.282511	0.000396	3.955845	1.340277	0.000158
1621	1.6119e+02	-15.4520	-60.149285	0.000335	3.347254	1.134080	0.000134
1622	1.6129e+02	-15.4119	-60.060468	0.000223	2.231502	0.756053	0.000089
1623	1.6139e+02	-15.3798	-59.967614	0.000233	2.332934	0.790420	0.000093
1624	1.6149e+02	-15.3429	-59.846500	0.000304	3.042958	1.030982	0.000122
1625	1.6159e+02	-15.2964	-59.761720	0.000213	2.130070	0.721687	0.000085
1626	1.6169e+02	-15.2498	-59.648681	0.000284	2.840094	0.962250	0.000114
1627	1.6179e+02	-15.2113	-59.543715	0.000264	2.637230	0.893518	0.000105
1628	1.6189e+02	-15.1664	-59.450861	0.000233	2.332934	0.790420	0.000093
1629	1.6199e+02	-15.1279	-59.349932	0.000254	2.535798	0.859152	0.000101
1630	1.6209e+02	-15.0958	-59.265153	0.000213	2.130070	0.721687	0.000085
1631	1.6219e+02	-15.0637	-59.127890	0.000345	3.448685	1.168446	0.000138
1632	1.6228e+02	-15.0220	-59.047147	0.000203	2.028638	0.687321	0.000081
1633	1.6238e+02	-14.9723	-58.905848	0.000355	3.550117	1.202812	0.000142
1634	1.6248e+02	-14.9338	-58.849328	0.000142	1.420047	0.481125	0.000057
1635	1.6258e+02	-14.8905	-58.708028	0.000355	3.550117	1.202812	0.000142
1636	1.6268e+02	-14.8568	-58.639397	0.000172	1.724343	0.584223	0.000069
1637	1.6278e+02	-14.8151	-58.494060	0.000365	3.651549	1.237178	0.000146
1638	1.6288e+02	-14.7734	-58.372946	0.000304	3.042958	1.030982	0.000122
1639	1.6298e+02	-14.7413	-58.308351	0.000162	1.622911	0.549857	0.000065
1640	1.6308e+02	-14.6884	-58.167052	0.000355	3.550117	1.202812	0.000142
1641	1.6318e+02	-14.6579	-58.049975	0.000294	2.941526	0.996616	0.000118
1642	1.6328e+02	-14.6210	-57.965195	0.000213	2.130070	0.721687	0.000085
1643	1.6338e+02	-14.5664	-57.864267	0.000254	2.535798	0.859152	0.000101
1644	1.6348e+02	-14.5327	-57.791598	0.000183	1.825775	0.618589	0.000073
1645	1.6358e+02	-14.4910	-57.682595	0.000274	2.738662	0.927884	0.000110
1646	1.6368e+02	-14.4413	-57.549370	0.000335	3.347254	1.134080	0.000134
1647	1.6378e+02	-14.4188	-57.404033	0.000365	3.651549	1.237178	0.000146
1648	1.6388e+02	-14.3755	-57.319253	0.000213	2.130070	0.721687	0.000085
1649	1.6398e+02	-14.3370	-57.198139	0.000304	3.042958	1.030982	0.000122
1650	1.6408e+02	-14.3065	-57.060877	0.000345	3.448685	1.168446	0.000138
1651	1.6418e+02	-14.2568	-56.984171	0.000193	1.927207	0.652955	0.000077
1652	1.6427e+02	-14.2071	-56.846908	0.000345	3.448685	1.168446	0.000138
1653	1.6437e+02	-14.1830	-56.766166	0.000203	2.028638	0.687321	0.000081
1654	1.6447e+02	-14.1413	-56.649089	0.000294	2.941526	0.996616	0.000118
1655	1.6457e+02	-14.1028	-56.499715	0.000375	3.752981	1.271544	0.000150
1656	1.6467e+02	-14.0531	-56.447232	0.000132	1.318615	0.446759	0.000053
1657	1.6477e+02	-14.0210	-56.314006	0.000335	3.347254	1.134080	0.000134
1658	1.6487e+02	-13.9761	-56.253449	0.000152	1.521479	0.515491	0.000061
1659	1.6497e+02	-13.9408	-56.124261	0.000325	3.245822	1.099714	0.000130
1660	1.6507e+02	-13.9039	-56.096001	0.000071	0.710023	0.240562	0.000028
1661	1.6517e+02	-13.8574	-55.962776	0.000335	3.347254	1.134080	0.000134
1662	1.6527e+02	-13.8124	-55.886070	0.000193	1.927207	0.652955	0.000077
1663	1.6537e+02	-13.7755	-55.732659	0.000385	3.854413	1.305911	0.000154
1664	1.6547e+02	-13.7306	-55.615582	0.000294	2.941526	0.996616	0.000118
1665	1.6557e+02	-13.7050	-55.486394	0.000325	3.245822	1.099714	0.000130
1666	1.6567e+02	-13.6600	-55.397577	0.000223	2.231502	0.756053	0.000089
1667	1.6577e+02	-13.6199	-55.292611	0.000264	2.637230	0.893518	0.000105
1668	1.6587e+02	-13.5830	-55.171497	0.000304	3.042958	1.030982	0.000122
1669	1.6597e+02	-13.5349	-55.078643	0.000233	2.332934	0.790420	0.000093
1670	1.6607e+02	-13.4996	-54.969640	0.000274	2.738662	0.927884	0.000110
1671	1.6616e+02	-13.4627	-54.836415	0.000335	3.347254	1.134080	0.000134
1672	1.6626e+02	-13.4258	-54.751635	0.000213	2.130070	0.721687	0.000085
1673	1.6636e+02	-13.3777	-54.606298	0.000365	3.651549	1.237178	0.000146
1674	1.6646e+02	-13.3392	-54.521518	0.000213	2.130070	0.721687	0.000085
1675	1.6656e+02	-13.3023	-54.408478	0.000284	2.840094	0.962250	0.000114
1676	1.6666e+02	-13.2622	-54.291401	0.000294	2.941526	0.996616	0.000118
1677	1.6676e+02	-13.2253	-54.218733	0.000183	1.825775	0.618589	0.000073
1678	1.6686e+02	-13.1820	-54.158176	0.000152	1.521479	0.515491	0.000061
1679	1.6696e+02	-13.1419	-54.057248	0.000254	2.535798	0.859152	0.000101
1680	1.6706e+02	-13.1066	-53.948245	0.000274	2.738662	0.927884	0.000110
1681	1.6716e+02	-13.0617	-53.835205	0.000284	2.840094	0.962250	0.000114
1682	1.6726e+02	-13.0183	-53.689868	0.000365	3.651549	1.237178	0.000146
1683	1.6736e+02	-12.9782	-53.508197	0.000456	4.564437	1.546473	0.000183
1684	1.6746e+02	-12.9397	-53.439566	0.000172	1.724343	0.584223	0.000069
1685	1.6756e+02	-12.8932	-53.286155	0.000385	3.854413	1.305911	0.000154
1686	1.6766e+02	-12.8627	-53.169078	0.000294	2.941526	0.996616	0.000118
1687	1.6776e+02	-12.8274	-53.092372	0.000193	1.927207	0.652955	0.000077
1688	1.6786e+02	-12.7938	-52.963184	0.000325	3.245822	1.099714	0.000130
1689	1.6796e+02	-12.7520	-52.882441	0.000203	2.028638	0.687321	0.000081
1690	1.6806e+02	-12.7039	-52.741141	0.000355	3.550117	1.202812	0.000142
1691	1.6816e+02	-12.6590	-52.632139	0.000274	2.738662	0.927884	0.000110
1692	1.6825e+02	-12.6157	-52.519099	0.000284	2.840094	0.962250	0.000114
1693	1.6835e+02	-12.5804	-52.393948	0.000314	3.144390	1.065348	0.000126
1694	1.6845e+02	-12.5339	-52.309168	0.000213	2.130070	0.721687	0.000085
1695	1.6855e+02	-12.5050	-52.220351	0.000223	2.231502	0.756053	0.000089
1696	1.6865e+02	-12.4633	-52.123460	0.000243	2.434366	0.824786	0.000097
1697	1.6875e+02	-12.4296	-52.018494	0.000264	2.637230	0.893518	0.000105
1698	1.6885e+02	-12.3783	-51.877194	0.000355	3.550117	1.202812	0.000142
1699	1.6895e+02	-12.3414	-51.804526	0.000183	1.825775	0.618589	0.000073
1700	1.6905e+02	-12.2997	-51.630929	0.000436	4.361573	1.477741	0.000174
1701	1.6915e+02	-12.2660	-51.481555	0.000375	3.752981	1.271544	0.000150
1702	1.6925e+02	-12.2275	-51.384664	0.000243	2.434366	0.824786	0.000097
1703	1.6935e+02	-12.1825	-51.283735	0.000254	2.535798	0.859152	0.000101
1704	1.6945e+02	-12.1392	-51.178770	0.000264	2.637230	0.893518	0.000105
1705	1.6955e+02	-12.1087	-51.057656	0.000304	3.042958	1.030982	0.000122
1706	1.6965e+02	-12.0638	-50.952690	0.000264	2.637230	0.893518	0.000105
1707	1.6975e+02	-12.0398	-50.831576	0.000304	3.042958	1.030982	0.000122
1708	1.6985e+02	-11.9868	-50.706425	0.000314	3.144390	1.065348	0.000126
1709	1.6995e+02	-11.9515	-50.573199	0.000335	3.347254	1.134080	0.000134
1710	1.7005e+02	-11.9082	-50.496494	0.000193	1.927207	0.652955	0.000077
1711	1.7015e+02	-11.8713	-50.391528	0.000264	2.637230	0.893518	0.000105
1712	1.7024e+02	-11.8280	-50.258303	0.000335	3.347254	1.134080	0.000134
1713	1.7034e+02	-11.7895	-50.169486	0.000223	2.231502	0.756053	0.000089
1714	1.7044e+02	-11.7430	-50.044335	0.000314	3.144390	1.065348	0.000126
1715	1.7054e+02	-11.7029	-49.935332	0.000274	2.738662	0.927884	0.000110
1716	1.7064e+02	-11.6628	-49.834404	0.000254	2.535798	0.859152	0.000101
1717	1.7074e+02	-11.6227	-49.693104	0.000355	3.550117	1.202812	0.000142
1718	1.7084e+02	-11.5858	-49.571990	0.000304	3.042958	1.030982	0.000122
1719	1.7094e+02	-11.5537	-49.430690	0.000355	3.550117	1.202812	0.000142
1720	1.7104e+02	-11.5040	-49.329762	0.000254	2.535798	0.859152	0.000101
1721	1.7114e+02	-11.4622	-49.184425	0.000365	3.651549	1.237178	0.000146
1722	1.7124e+02	-11.4237	-49.123868	0.000152	1.521479	0.515491	0.000061
1723	1.7134e+02	-11.3901	-49.018902	0.000264	2.637230	0.893518	0.000105
1724	1.7144e+02	-11.3516	-48.853380	0.000416	4.158709	1.409009	0.000166
1725	1.7154e+02	-11.3114	-48.724191	0.000325	3.245822	1.099714	0.000130
1726	1.7164e+02	-11.2697	-48.631337	0.000233	2.332934	0.790420	0.000093
1727	1.7174e+02	-11.2232	-48.534446	0.000243	2.434366	0.824786	0.000097
1728	1.7184e+02	-11.2008	-48.393146	0.000355	3.550117	1.202812	0.000142
1729	1.7194e+02	-11.1478	-48.292218	0.000254	2.535798	0.859152	0.000101
1730	1.7204e+02	-11.1093	-48.215512	0.000193	1.927207	0.652955	0.000077
1731	1.7213e+02	-11.0676	-48.110547	0.000264	2.637230	0.893518	0.000105
1732	1.7223e+02	-11.0339	-48.013655	0.000243	2.434366	0.824786	0.000097
1733	1.7233e+02	-10.9922	-47.892541	0.000304	3.042958	1.030982	0.000122
1734	1.7243e+02	-10.9521	-47.775464	0.000294	2.941526	0.996616	0.000118
1735	1.7253e+02	-10.9040	-47.589756	0.000467	4.665869	1.580839	0.000187
1736	1.7263e+02	-10.8783	-47.468642	0.000304	3.042958	1.030982	0.000122
1737	1.7273e+02	-10.8350	-47.339454	0.000325	3.245822	1.099714	0.000130
1738	1.7283e+02	-10.7933	-47.206228	0.000335	3.347254	1.134080	0.000134
1739	1.7293e+02	-10.7580	-47.137597	0.000172	1.724343	0.584223	0.000069
1740	1.7303e+02	-10.7163	-47.012446	0.000314	3.144390	1.065348	0.000126
1741	1.7313e+02	-10.6778	-46.891332	0.000304	3.042958	1.030982	0.000122
1742	1.7323e+02	-10.6345	-46.754069	0.000345	3.448685	1.168446	0.000138
1743	1.7333e+02	-10.5847	-46.620844	0.000335	3.347254	1.134080	0.000134
1744	1.7343e+02	-10.5591	-46.467432	0.000385	3.854413	1.305911	0.000154
1745	1.7353e+02	-10.5141	-46.354393	0.000284	2.840094	0.962250	0.000114
1746	1.7363e+02	-10.4692	-46.237316	0.000294	2.941526	0.996616	0.000118
1747	1.7373e+02	-10.4355	-46.180796	0.000142	1.420047	0.481125	0.000057
1748	1.7383e+02	-10.3938	-46.075830	0.000264	2.637230	0.893518	0.000105
1749	1.7393e+02	-10.3425	-45.934530	0.000355	3.550117	1.202812	0.000142
1750	1.7403e+02	-10.3168	-45.821491	0.000284	2.840094	0.962250	0.000114
1751	1.7413e+02	-10.2719	-45.676154	0.000365	3.651549	1.237178	0.000146
1752	1.7422e+02	-10.2222	-45.587337	0.000223	2.231502	0.756053	0.000089
1753	1.7432e+02	-10.1981	-45.381443	0.000517	5.173028	1.752669	0.000207
1754	1.7442e+02	-10.1548	-45.264366	0.000294	2.941526	0.996616	0.000118
1755	1.7452e+02	-10.1083	-45.135178	0.000325	3.245822	1.099714	0.000130
1756	1.7462e+02	-10.0842	-45.010026	0.000314	3.144390	1.065348	0.000126
1757	1.7472e+02	-10.0313	-44.876801	0.000335	3.347254	1.134080	0.000134
1758	1.7482e+02	-10.0024	-44.755687	0.000304	3.042958	1.030982	0.000122
1759	1.7492e+02	-9.9543	-44.642647	0.000284	2.840094	0.962250	0.000114
1760	1.7502e+02	-9.9190	-44.521533	0.000304	3.042958	1.030982	0.000122
1761	1.7512e+02	-9.8757	-44.339862	0.000456	4.564437	1.546473	0.000183
1762	1.7522e+02	-9.8323	-44.230859	0.000274	2.738662	0.927884	0.000110
1763	1.7532e+02	-9.7938	-44.129931	0.000254	2.535798	0.859152	0.000101
1764	1.7542e+02	-9.7441	-44.041114	0.000223	2.231502	0.756053	0.000089
1765	1.7552e+02	-9.7200	-43.932111	0.000274	2.738662	0.927884	0.000110
1766	1.7562e+02	-9.6703	-43.835220	0.000243	2.434366	0.824786	0.000097
1767	1.7572e+02	-9.6302	-43.689883	0.000365	3.651549	1.237178	0.000146
1768	1.7582e+02	-9.5965	-43.597029	0.000233	2.332934	0.790420	0.000093
1769	1.7592e+02	-9.5548	-43.471878	0.000314	3.144390	1.065348	0.000126
1770	1.7602e+02	-9.5179	-43.302318	0.000426	4.260141	1.443375	0.000170
1771	1.7612e+02	-9.4778	-43.181204	0.000304	3.042958	1.030982	0.000122
1772	1.7621e+02	-9.4393	-42.983384	0.000497	4.970164	1.683937	0.000199
1773	1.7631e+02	-9.3928	-42.886493	0.000243	2.434366	0.824786	0.000097
1774	1.7641e+02	-9.3591	-42.737119	0.000375	3.752981	1.271544	0.000150
1775	1.7651e+02	-9.3206	-42.636191	0.000254	2.535798	0.859152	0.000101
1776	1.7661e+02	-9.2869	-42.507002	0.000325	3.245822	1.099714	0.000130
1777	1.7671e+02	-9.2436	-42.426259	0.000203	2.028638	0.687321	0.000081
1778	1.7681e+02	-9.1939	-42.252663	0.000436	4.361573	1.477741	0.000174
1779	1.7691e+02	-9.1618	-42.115400	0.000345	3.448685	1.168446	0.000138
1780	1.7701e+02	-9.1104	-42.010434	0.000264	2.637230	0.893518	0.000105
1781	1.7711e+02	-9.0784	-41.925655	0.000213	2.130070	0.721687	0.000085
1782	1.7721e+02	-9.0350	-41.820689	0.000264	2.637230	0.893518	0.000105
1783	1.7731e+02	-8.9949	-41.663241	0.000396	3.955845	1.340277	0.000158
1784	1.7741e+02	-8.9612	-41.574424	0.000223	2.231502	0.756053	0.000089
1785	1.7751e+02	-8.9147	-41.425050	0.000375	3.752981	1.271544	0.000150
1786	1.7761e+02	-8.8762	-41.287787	0.000345	3.448685	1.168446	0.000138
1787	1.7771e+02	-8.8297	-41.190896	0.000243	2.434366	0.824786	0.000097
1788	1.7781e+02	-8.7976	-41.037485	0.000385	3.854413	1.305911	0.000154
1789	1.7791e+02	-8.7495	-40.892148	0.000365	3.651549	1.237178	0.000146
1790	1.7801e+02	-8.7190	-40.750848	0.000355	3.550117	1.202812	0.000142
1791	1.7810e+02	-8.6789	-40.625697	0.000314	3.144390	1.065348	0.000126
1792	1.7820e+02	-8.6372	-40.460174	0.000416	4.158709	1.409009	0.000166
1793	1.7830e+02	-8.5955	-40.339060	0.000304	3.042958	1.030982	0.000122
1794	1.7840e+02	-8.5682	-40.246206	0.000233	2.332934	0.790420	0.000093
1795	1.7850e+02	-8.5217	-40.088758	0.000396	3.955845	1.340277	0.000158
1796	1.7860e+02	-8.4703	-39.979755	0.000274	2.738662	0.927884	0.000110
1797	1.7870e+02	-8.4431	-39.858641	0.000304	3.042958	1.030982	0.000122
1798	1.7880e+02	-8.4062	-39.725416	0.000335	3.347254	1.134080	0.000134
1799	1.7890e+02	-8.3532	-39.640636	0.000213	2.130070	0.721687	0.000085
1800	1.7900e+02	-8.3179	-39.471076	0.000426	4.260141	1.443375	0.000170
1801	1.7910e+02	-8.2778	-39.374185	0.000243	2.434366	0.824786	0.000097
1802	1.7920e+02	-8.2329	-39.240959	0.000335	3.347254	1.134080	0.000134
1803	1.7930e+02	-8.1960	-39.087548	0.000385	3.854413	1.305911	0.000154
1804	1.7940e+02	-8.1591	-38.986620	0.000254	2.535798	0.859152	0.000101
1805	1.7950e+02	-8.1174	-38.841283	0.000365	3.651549	1.237178	0.000146
1806	1.7960e+02	-8.0885	-38.712095	0.000325	3.245822	1.099714	0.000130
1807	1.7970e+02	-8.0436	-38.522349	0.000477	4.767300	1.615205	0.000191
1808	1.7980e+02	-8.0035	-38.409309	0.000284	2.840094	0.962250	0.000114
1809	1.7990e+02	-7.9650	-38.304344	0.000264	2.637230	0.893518	0.000105
1810	1.8000e+02	-7.9217	-38.134784	0.000426	4.260141	1.443375	0.000170
1811	1.8009e+02	-7.8864	-37.981373	0.000385	3.854413	1.305911	0.000154
1812	1.8019e+02	-7.8367	-37.888519	0.000233	2.332934	0.790420	0.000093
1813	1.8029e+02	-7.8030	-37.743182	0.000365	3.651549	1.237178	0.000146
1814	1.8039e+02	-7.7565	-37.585734	0.000396	3.955845	1.340277	0.000158
1815	1.8049e+02	-7.7148	-37.488842	0.000243	2.434366	0.824786	0.000097
1816	1.8059e+02	-7.6827	-37.367728	0.000304	3.042958	1.030982	0.000122
1817	1.8069e+02	-7.6442	-37.266800	0.000254	2.535798	0.859152	0.000101
1818	1.8079e+02	-7.6105	-37.125500	0.000355	3.550117	1.202812	0.000142
1819	1.8089e+02	-7.5575	-36.980163	0.000365	3.651549	1.237178	0.000146
1820	1.8099e+02	-7.5206	-36.903458	0.000193	1.927207	0.652955	0.000077
1821	1.8109e+02	-7.4886	-36.721787	0.000456	4.564437	1.546473	0.000183
1822	1.8119e+02	-7.4420	-36.572413	0.000375	3.752981	1.271544	0.000150
1823	1.8129e+02	-7.4083	-36.447261	0.000314	3.144390	1.065348	0.000126
1824	1.8139e+02	-7.3650	-36.237330	0.000527	5.274460	1.787035	0.000211
1825	1.8149e+02	-7.3329	-36.180810	0.000142	1.420047	0.481125	0.000057
1826	1.8159e+02	-7.2880	-36.027399	0.000385	3.854413	1.305911	0.000154
1827	1.8169e+02	-7.2431	-35.890137	0.000345	3.448685	1.168446	0.000138
1828	1.8179e+02	-7.2014	-35.732688	0.000396	3.955845	1.340277	0.000158
1829	1.8189e+02	-7.1645	-35.655983	0.000193	1.927207	0.652955	0.000077
1830	1.8199e+02	-7.1308	-35.510646	0.000365	3.651549	1.237178	0.000146
1831	1.8209e+02	-7.1019	-35.385495	0.000314	3.144390	1.065348	0.000126
1832	1.8218e+02	-7.0490	-35.236121	0.000375	3.752981	1.271544	0.000150
1833	1.8228e+02	-7.0073	-35.127118	0.000274	2.738662	0.927884	0.000110
1834	1.8238e+02	-6.9656	-34.969670	0.000396	3.955845	1.340277	0.000158
1835	1.8248e+02	-6.9271	-34.884890	0.000213	2.130070	0.721687	0.000085
1836	1.8258e+02	-6.8838	-34.759739	0.000314	3.144390	1.065348	0.000126
1837	1.8268e+02	-6.8485	-34.638625	0.000304	3.042958	1.030982	0.000122
1838	1.8278e+02	-6.8052	-34.517511	0.000304	3.042958	1.030982	0.000122
1839	1.8288e+02	-6.7699	-34.368137	0.000375	3.752981	1.271544	0.000150
1840	1.8298e+02	-6.7346	-34.226837	0.000355	3.550117	1.202812	0.000142
1841	1.8308e+02	-6.6832	-34.065351	0.000406	4.057277	1.374643	0.000162
1842	1.8318e+02	-6.6495	-33.932126	0.000335	3.347254	1.134080	0.000134
1843	1.8328e+02	-6.6046	-33.798900	0.000335	3.347254	1.134080	0.000134
1844	1.8338e+02	-6.5629	-33.653564	0.000365	3.651549	1.237178	0.000146
1845	1.8348e+02	-6.5244	-33.500152	0.000385	3.854413	1.305911	0.000154
1846	1.8358e+02	-6.4843	-33.383075	0.000294	2.941526	0.996616	0.000118
1847	1.8368e+02	-6.4490	-33.225627	0.000396	3.955845	1.340277	0.000158
1848	1.8378e+02	-6.4105	-33.148922	0.000193	1.927207	0.652955	0.000077
1849	1.8388e+02	-6.3720	-32.938990	0.000527	5.274460	1.787035	0.000211
1850	1.8398e+02	-6.3287	-32.846136	0.000233	2.332934	0.790420	0.000093
1851	1.8407e+02	-6.2982	-32.720985	0.000314	3.144390	1.065348	0.000126
1852	1.8417e+02	-6.2517	-32.616020	0.000264	2.637230	0.893518	0.000105
1853	1.8427e+02	-6.2100	-32.478757	0.000345	3.448685	1.168446	0.000138
1854	1.8437e+02	-6.1715	-32.333420	0.000365	3.651549	1.237178	0.000146
1855	1.8447e+02	-6.1218	-32.208269	0.000314	3.144390	1.065348	0.000126
1856	1.8457e+02	-6.0897	-32.066969	0.000355	3.550117	1.202812	0.000142
1857	1.8467e+02	-6.0496	-31.966041	0.000254	2.535798	0.859152	0.000101
1858	1.8477e+02	-6.0159	-31.780333	0.000467	4.665869	1.580839	0.000187
1859	1.8487e+02	-5.9710	-31.614810	0.000416	4.158709	1.409009	0.000166
1860	1.8497e+02	-5.9325	-31.469473	0.000365	3.651549	1.237178	0.000146
1861	1.8507e+02	-5.8907	-31.344322	0.000314	3.144390	1.065348	0.000126
1862	1.8517e+02	-5.8474	-31.154576	0.000477	4.767300	1.615205	0.000191
1863	1.8527e+02	-5.8121	-31.069797	0.000213	2.130070	0.721687	0.000085
1864	1.8537e+02	-5.7768	-30.924460	0.000365	3.651549	1.237178	0.000146
1865	1.8547e+02	-5.7415	-30.767011	0.000396	3.955845	1.340277	0.000158
1866	1.8557e+02	-5.6918	-30.605526	0.000406	4.057277	1.374643	0.000162
1867	1.8567e+02	-5.6581	-30.496523	0.000274	2.738662	0.927884	0.000110
1868	1.8577e+02	-5.6132	-30.355224	0.000355	3.550117	1.202812	0.000142
1869	1.8587e+02	-5.5651	-30.258332	0.000243	2.434366	0.824786	0.000097
1870	1.8597e+02	-5.5346	-30.129144	0.000325	3.245822	1.099714	0.000130
1871	1.8606e+02	-5.4961	-29.995919	0.000335	3.347254	1.134080	0.000134
1872	1.8616e+02	-5.4512	-29.854619	0.000355	3.550117	1.202812	0.000142
1873	1.8626e+02	-5.4127	-29.721393	0.000335	3.347254	1.134080	0.000134
1874	1.8636e+02	-5.3646	-29.580094	0.000355	3.550117	1.202812	0.000142
1875	1.8646e+02	-5.3421	-29.434757	0.000365	3.651549	1.237178	0.000146
1876	1.8656e+02	-5.2876	-29.269234	0.000416	4.158709	1.409009	0.000166
1877	1.8666e+02	-5.2571	-29.079489	0.000477	4.767300	1.615205	0.000191
1878	1.8676e+02	-5.2105	-28.986635	0.000233	2.332934	0.790420	0.000093
1879	1.8686e+02	-5.1737	-28.804963	0.000456	4.564437	1.546473	0.000183
1880	1.8696e+02	-5.1368	-28.651552	0.000385	3.854413	1.305911	0.000154
1881	1.8706e+02	-5.0999	-28.518327	0.000335	3.347254	1.134080	0.000134
1882	1.8716e+02	-5.0598	-28.409324	0.000274	2.738662	0.927884	0.000110
1883	1.8726e+02	-5.0196	-28.251876	0.000396	3.955845	1.340277	0.000158
1884	1.8736e+02	-4.9715	-28.118650	0.000335	3.347254	1.134080	0.000134
1885	1.8746e+02	-4.9458	-27.953128	0.000416	4.158709	1.409009	0.000166
1886	1.8756e+02	-4.8961	-27.803754	0.000375	3.752981	1.271544	0.000150
1887	1.8766e+02	-4.8480	-27.714937	0.000223	2.231502	0.756053	0.000089
1888	1.8776e+02	-4.8175	-27.577674	0.000345	3.448685	1.168446	0.000138
1889	1.8786e+02	-4.7726	-27.456560	0.000304	3.042958	1.030982	0.000122
1890	1.8796e+02	-4.7389	-27.299112	0.000396	3.955845	1.340277	0.000158
1891	1.8806e+02	-4.6972	-27.165886	0.000335	3.347254	1.134080	0.000134
1892	1.8815e+02	-4.6555	-27.048809	0.000294	2.941526	0.996616	0.000118
1893	1.8825e+02	-4.6250	-26.879250	0.000426	4.260141	1.443375	0.000170
1894	1.8835e+02	-4.5656	-26.725839	0.000385	3.854413	1.305911	0.000154
1895	1.8845e+02	-4.5384	-26.536093	0.000477	4.767300	1.615205	0.000191
1896	1.8855e+02	-4.4902	-26.414979	0.000304	3.042958	1.030982	0.000122
1897	1.8865e+02	-4.4678	-26.265605	0.000375	3.752981	1.271544	0.000150
1898	1.8875e+02	-4.4213	-26.128342	0.000345	3.448685	1.168446	0.000138
1899	1.8885e+02	-4.3747	-25.962820	0.000416	4.158709	1.409009	0.000166
1900	1.8895e+02	-4.3443	-25.837669	0.000314	3.144390	1.065348	0.000126
1901	1.8905e+02	-4.2993	-25.676183	0.000406	4.057277	1.374643	0.000162
1902	1.8915e+02	-4.2641	-25.567181	0.000274	2.738662	0.927884	0.000110
1903	1.8925e+02	-4.2127	-25.385510	0.000456	4.564437	1.546473	0.000183
1904	1.8935e+02	-4.1903	-25.284581	0.000254	2.535798	0.859152	0.000101
1905	1.8945e+02	-4.1389	-25.102910	0.000456	4.564437	1.546473	0.000183
1906	1.8955e+02	-4.1020	-25.038316	0.000162	1.622911	0.549857	0.000065
1907	1.8965e+02	-4.0603	-24.888942	0.000375	3.752981	1.271544	0.000150
1908	1.8975e+02	-4.0234	-24.711308	0.000446	4.463005	1.512107	0.000179
1909	1.8985e+02	-3.9753	-24.537711	0.000436	4.361573	1.477741	0.000174
1910	1.8995e+02	-3.9368	-24.412560	0.000314	3.144390	1.065348	0.000126
1911	1.9004e+02	-3.9015	-24.259149	0.000385	3.854413	1.305911	0.000154
1912	1.9014e+02	-3.8582	-24.085552	0.000436	4.361573	1.477741	0.000174
1913	1.9024e+02	-3.8181	-23.928104	0.000396	3.955845	1.340277	0.000158
1914	1.9034e+02	-3.7828	-23.794878	0.000335	3.347254	1.134080	0.000134
1915	1.9044e+02	-3.7395	-23.601096	0.000487	4.868732	1.649571	0.000195
1916	1.9054e+02	-3.7106	-23.467870	0.000335	3.347254	1.134080	0.000134
1917	1.9064e+02	-3.6625	-23.302347	0.000416	4.158709	1.409009	0.000166
1918	1.9074e+02	-3.6159	-23.193345	0.000274	2.738662	0.927884	0.000110
1919	1.9084e+02	-3.5919	-23.019748	0.000436	4.361573	1.477741	0.000174
1920	1.9094e+02	-3.5341	-22.858263	0.000406	4.057277	1.374643	0.000162
1921	1.9104e+02	-3.5052	-22.696777	0.000406	4.057277	1.374643	0.000162
1922	1.9114e+02	-3.4603	-22.567589	0.000325	3.245822	1.099714	0.000130
1923	1.9124e+02	-3.4154	-22.422252	0.000365	3.651549	1.237178	0.000146
1924	1.9134e+02	-3.3817	-22.309212	0.000284	2.840094	0.962250	0.000114
1925	1.9144e+02	-3.3400	-22.163875	0.000365	3.651549	1.237178	0.000146
1926	1.9154e+02	-3.2999	-22.014501	0.000375	3.752981	1.271544	0.000150
1927	1.9164e+02	-3.2502	-21.889350	0.000314	3.144390	1.065348	0.000126
1928	1.9174e+02	-3.2197	-21.711716	0.000446	4.463005	1.512107	0.000179
1929	1.9184e+02	-3.1732	-21.558305	0.000385	3.854413	1.305911	0.000154
1930	1.9194e+02	-3.1411	-21.392782	0.000416	4.158709	1.409009	0.000166
1931	1.9203e+02	-3.0898	-21.211111	0.000456	4.564437	1.546473	0.000183
1932	1.9213e+02	-3.0737	-21.061737	0.000375	3.752981	1.271544	0.000150
1933	1.9223e+02	-3.0224	-20.896215	0.000416	4.158709	1.409009	0.000166
1934	1.9233e+02	-2.9951	-20.767026	0.000325	3.245822	1.099714	0.000130
1935	1.9243e+02	-2.9502	-20.621689	0.000365	3.651549	1.237178	0.000146
1936	1.9253e+02	-2.9085	-20.448093	0.000436	4.361573	1.477741	0.000174
1937	1.9263e+02	-2.8652	-20.294681	0.000385	3.854413	1.305911	0.000154
1938	1.9273e+02	-2.8218	-20.133196	0.000406	4.057277	1.374643	0.000162
1939	1.9283e+02	-2.7801	-19.975748	0.000396	3.955845	1.340277	0.000158
1940	1.9293e+02	-2.7481	-19.846559	0.000325	3.245822	1.099714	0.000130
1941	1.9303e+02	-2.7015	-19.677000	0.000426	4.260141	1.443375	0.000170
1942	1.9313e+02	-2.6630	-19.596257	0.000203	2.028638	0.687321	0.000081
1943	1.9323e+02	-2.6277	-19.418623	0.000446	4.463005	1.512107	0.000179
1944	1.9333e+02	-2.5940	-19.265212	0.000385	3.854413	1.305911	0.000154
1945	1.9343e+02	-2.5379	-19.087578	0.000446	4.463005	1.512107	0.000179
1946	1.9353e+02	-2.5090	-18.946278	0.000355	3.550117	1.202812	0.000142
1947	1.9363e+02	-2.4673	-18.817090	0.000325	3.245822	1.099714	0.000130
1948	1.9373e+02	-2.4256	-18.643493	0.000436	4.361573	1.477741	0.000174
1949	1.9383e+02	-2.3823	-18.453747	0.000477	4.767300	1.615205	0.000191
1950	1.9393e+02	-2.3486	-18.320522	0.000335	3.347254	1.134080	0.000134
1951	1.9403e+02	-2.3085	-18.171148	0.000375	3.752981	1.271544	0.000150
1952	1.9412e+02	-2.2620	-17.981403	0.000477	4.767300	1.615205	0.000191
1953	1.9422e+02	-2.2315	-17.823954	0.000396	3.955845	1.340277	0.000158
1954	1.9432e+02	-2.1898	-17.666506	0.000396	3.955845	1.340277	0.000158
1955	1.9442e+02	-2.1465	-17.537318	0.000325	3.245822	1.099714	0.000130
1956	1.9452e+02	-2.1015	-17.367758	0.000426	4.260141	1.443375	0.000170
1957	1.9462e+02	-2.0663	-17.210310	0.000396	3.955845	1.340277	0.000158
1958	1.9472e+02	-2.0213	-17.073047	0.000345	3.448685	1.168446	0.000138
1959	1.9482e+02	-1.9892	-16.935784	0.000345	3.448685	1.168446	0.000138
1960	1.9492e+02	-1.9556	-16.806596	0.000325	3.245822	1.099714	0.000130
1961	1.9502e+02	-1.9203	-16.641074	0.000416	4.158709	1.409009	0.000166
1962	1.9512e+02	-1.8753	-16.491699	0.000375	3.752981	1.271544	0.000150
1963	1.9522e+02	-1.8256	-16.326177	0.000416	4.158709	1.409009	0.000166
1964	1.9532e+02	-1.7855	-16.164691	0.000406	4.057277	1.374643	0.000162
1965	1.9542e+02	-1.7470	-16.067800	0.000243	2.434366	0.824786	0.000097
1966	1.9552e+02	-1.7101	-15.869981	0.000497	4.970164	1.683937	0.000199
1967	1.9562e+02	-1.6636	-15.627752	0.000609	6.085915	2.061964	0.000243
1968	1.9572e+02	-1.6155	-15.579307	0.000122	1.217183	0.412393	0.000049
1969	1.9582e+02	-1.5962	-15.373413	0.000517	5.173028	1.752669	0.000207
1970	1.9592e+02	-1.5529	-15.195779	0.000446	4.463005	1.512107	0.000179
1971	1.9601e+02	-1.5144	-15.030256	0.000416	4.158709	1.409009	0.000166
1972	1.9611e+02	-1.4663	-14.913179	0.000294	2.941526	0.996616	0.000118
1973	1.9621e+02	-1.4374	-14.755731	0.000396	3.955845	1.340277	0.000158
1974	1.9631e+02	-1.3941	-14.529652	0.000568	5.680188	1.924500	0.000227
1975	1.9641e+02	-1.3443	-14.424686	0.000264	2.637230	0.893518	0.000105
1976	1.9651e+02	-1.3010	-14.271275	0.000385	3.854413	1.305911	0.000154
1977	1.9661e+02	-1.2657	-14.129975	0.000355	3.550117	1.202812	0.000142
1978	1.9671e+02	-1.2304	-14.008861	0.000304	3.042958	1.030982	0.000122
1979	1.9681e+02	-1.1887	-13.847376	0.000406	4.057277	1.374643	0.000162
1980	1.9691e+02	-1.1502	-13.657630	0.000477	4.767300	1.615205	0.000191
1981	1.9701e+02	-1.1085	-13.508256	0.000375	3.752981	1.271544	0.000150
1982	1.9711e+02	-1.0732	-13.330622	0.000446	4.463005	1.512107	0.000179
1983	1.9721e+02	-1.0331	-13.173174	0.000396	3.955845	1.340277	0.000158
1984	1.9731e+02	-0.9834	-13.019763	0.000385	3.854413	1.305911	0.000154
1985	1.9741e+02	-0.9641	-12.793683	0.000568	5.680188	1.924500	0.000227
1986	1.9751e+02	-0.9080	-12.624123	0.000426	4.260141	1.443375	0.000170
1987	1.9761e+02	-0.8743	-12.450527	0.000436	4.361573	1.477741	0.000174
1988	1.9771e+02	-0.8374	-12.353635	0.000243	2.434366	0.824786	0.000097
1989	1.9781e+02	-0.7925	-12.200224	0.000385	3.854413	1.305911	0.000154
1990	1.9791e+02	-0.7572	-12.034702	0.000416	4.158709	1.409009	0.000166
1991	1.9800e+02	-0.7075	-11.820733	0.000538	5.375892	1.821402	0.000215
1992	1.9810e+02	-0.6722	-11.711731	0.000274	2.738662	0.927884	0.000110
1993	1.9820e+02	-0.6305	-11.578505	0.000335	3.347254	1.134080	0.000134
1994	1.9830e+02	-0.5968	-11.433168	0.000365	3.651549	1.237178	0.000146
1995	1.9840e+02	-0.5454	-11.283794	0.000375	3.752981	1.271544	0.000150
1996	1.9850e+02	-0.5037	-11.142495	0.000355	3.550117	1.202812	0.000142
1997	1.9860e+02	-0.4797	-11.001195	0.000355	3.550117	1.202812	0.000142
1998	1.9870e+02	-0.4315	-10.823561	0.000446	4.463005	1.512107	0.000179
1999	1.9880e+02	-0.4011	-10.686298	0.000345	3.448685	1.168446	0.000138
2000	1.9890e+02	-0.3593	-10.492516	0.000487	4.868732	1.649571	0.000195
2001	1.9900e+02	-0.3176	-10.322956	0.000426	4.260141	1.443375	0.000170
2002	1.9910e+02	-0.2775	-10.117062	0.000517	5.173028	1.752669	0.000207
2003	1.9920e+02	-0.2326	-9.987874	0.000325	3.245822	1.099714	0.000130
2004	1.9930e+02	-0.1909	-9.822351	0.000416	4.158709	1.409009	0.000166
2005	1.9940e+02	-0.1572	-9.681051	0.000355	3.550117	1.202812	0.000142
2006	1.9950e+02	-0.1203	-9.523603	0.000396	3.955845	1.340277	0.000158
2007	1.9960e+02	-0.0786	-9.354044	0.000426	4.260141	1.443375	0.000170
2008	1.9970e+02	-0.0353	-9.224855	0.000325	3.245822	1.099714	0.000130
2009	1.9980e+02	0.0080	-9.055295	0.000325	3.245822	1.099714	0.000170

PMax (uC/cm2):	7.71e+01
Pr (uC/cm2):	5.49e+00
-Pr (uC/cm2):	-2.34e+00
PLoss (uC/cm2):	-2.31e+00
-Vc:	-1.37e+00
C (Max-Eff) (nF):	3.86e-01
K (Eff):	1.31e+03
Vert. (+/-Pr) Shift (uC/cm2):	1.58e+00
Offset (uC/cm2):	6.72e+00

A (Loop Area - uC/cm2·Volts):	5.06e-02



Hysteresis Version: 5.48.1 - Radiant Technologies, Inc., 1999 - 9/12/24

