»»»»»»»»»»»»»»»»»»»»»»»»»»»»»»»»»»»» Hysteresis ««««««««««««««««««««««««««««««««««««
»»»  Executed Version:	5.48.1
»»»  Vision Version:	5.48.4 (R)
»»»  Vision Compiled:	9/18/24
»»»  Driver Version:	5.47.0
»»»  Windows Version:	Windows 8 or 8.1
»»»  Processor Information:	x86 (AMD or Intel) - 32 Processors
»»»  Tester Name:	PMF21124-494 (100V)
»»»  Tester S/N:	PMF21124-494
»»»  Internal Amp Type:	100V RevK 270k
»»»  Internal Amp S/N:	iAB2-596/K     
»»»  Execution Count:	1
»»»»»»»»»»»»»»»»»»»»»»»»»»»»»»»»»»»»»»»»»»««««««««««««««««««««««««««««««««««««««««««

Stored:	6/19/2025 - 20:40:6
Configured:	06/19/25 10:04:32 AM
Executed:	06/19/25 08:39:35 PM

»»»»»»»»»»»»»»»»»»»»»»»»»»»»»»»»»»» Sample Info ««««««««««««««««««««««««««««««««««««
Sample Name:	
Lot Name:	
Wafer Name:	
Die Row/Column:	0/0
Capacitor Number:	0
Sample Area (cm2):	1.00e-04
Sample Thickness (microns):	3.00e-01

Amplifier:	Internal

»»»»»»»»»»»»»»»»»»»»»»»»»»»»»»»»»»» Tester Info «««««««««««««««««««««««««««««««««««
Tester Name:	PMF21124-494 (100V)
Tester Serial Number:	PMF21124-494
Return Signal Amp. Level:	0.19 [Index: 3]

»»»»»»»»»»»»»»»»»»»»»»»»»»»»»»»» Hysteresis Info ««««««««««««««««««««««««««««««««««
Task Name:	Hyst-1168
Volts:	20.00
Field:	666.67 (kV/cm)
DCBias:	0.00
DCField:	0.00 (kV/cm)
Hysteresis Period (ms):	2.00e+02
Preset:	Enabled
Preset Delay (ms):	1.00e+03
Profile:	Standard Bipolar

»»»»»»»»»»»»»»»»»»»»»»»»»»»»»»»»»»»»»» Data «««««««««««««««««««««««««««««««««««««««
Points:	2009

Valid Data

Point	Time (ms)	Drive Voltage	Measured Polarization (uC/cm2)	Capacitance (uF)	Normalized Capacitance (uF/cm2)	Dielectric Constant	Instantaneous Current (mA)
   1	0.0000e+00	0.0193	-5.645934	0.000243	2.432560	0.824173	0.000097
   2	9.9500e-02	0.0369	-5.549043	0.000243	2.432560	0.824173	0.000097
   3	1.9900e-01	0.0818	-5.423892	0.000314	3.142056	1.064557	0.000126
   4	2.9850e-01	0.1091	-5.258369	0.000416	4.155623	1.407963	0.000166
   5	3.9800e-01	0.1524	-5.173589	0.000213	2.128490	0.721152	0.000085
   6	4.9750e-01	0.2053	-4.995955	0.000446	4.459693	1.510985	0.000179
   7	5.9700e-01	0.2342	-4.870804	0.000314	3.142056	1.064557	0.000126
   8	6.9650e-01	0.2695	-4.733542	0.000345	3.446126	1.167579	0.000138
   9	7.9600e-01	0.3225	-4.608390	0.000314	3.142056	1.064557	0.000126
  10	8.9550e-01	0.3593	-4.446905	0.000405	4.054266	1.373622	0.000162
  11	9.9500e-01	0.3946	-4.341939	0.000264	2.635273	0.892855	0.000105
  12	1.0945e+00	0.4347	-4.180454	0.000405	4.054266	1.373622	0.000162
  13	1.1940e+00	0.4765	-4.039154	0.000355	3.547483	1.201920	0.000142
  14	1.2935e+00	0.5166	-3.897855	0.000355	3.547483	1.201920	0.000142
  15	1.3930e+00	0.5454	-3.776740	0.000304	3.040699	1.030217	0.000122
  16	1.4925e+00	0.5823	-3.635441	0.000355	3.547483	1.201920	0.000142
  17	1.5920e+00	0.6401	-3.498178	0.000345	3.446126	1.167579	0.000138
  18	1.6915e+00	0.6770	-3.340730	0.000395	3.952909	1.339282	0.000158
  19	1.7910e+00	0.7123	-3.247876	0.000233	2.331203	0.789833	0.000093
  20	1.8905e+00	0.7572	-3.062167	0.000466	4.662406	1.579666	0.000187
  21	1.9900e+00	0.8005	-2.941053	0.000304	3.040699	1.030217	0.000122
  22	2.0895e+00	0.8470	-2.775531	0.000416	4.155623	1.407963	0.000166
  23	2.1890e+00	0.8743	-2.674602	0.000253	2.533916	0.858514	0.000101
  24	2.2885e+00	0.9080	-2.529266	0.000365	3.648839	1.236260	0.000146
  25	2.3880e+00	0.9529	-2.375854	0.000385	3.851553	1.304941	0.000154
  26	2.4875e+00	0.9962	-2.234555	0.000355	3.547483	1.201920	0.000142
  27	2.5870e+00	1.0299	-2.036735	0.000497	4.966476	1.682688	0.000199
  28	2.6865e+00	1.0700	-1.947918	0.000223	2.229846	0.755492	0.000089
  29	2.7860e+00	1.1117	-1.838915	0.000274	2.736630	0.927195	0.000110
  30	2.8855e+00	1.1518	-1.701653	0.000345	3.446126	1.167579	0.000138
  31	2.9850e+00	1.1935	-1.447313	0.000639	6.385469	2.163455	0.000256
  32	3.0845e+00	1.2337	-1.318125	0.000324	3.243413	1.098898	0.000130
  33	3.1840e+00	1.2770	-1.168751	0.000375	3.750196	1.270601	0.000150
  34	3.2835e+00	1.3091	-1.035525	0.000334	3.344769	1.133239	0.000134
  35	3.3830e+00	1.3476	-0.870003	0.000416	4.155623	1.407963	0.000166
  36	3.4825e+00	1.3909	-0.785223	0.000213	2.128490	0.721152	0.000085
  37	3.5820e+00	1.4342	-0.664109	0.000304	3.040699	1.030217	0.000122
  38	3.6815e+00	1.4807	-0.510698	0.000385	3.851553	1.304941	0.000154
  39	3.7810e+00	1.5144	-0.324989	0.000466	4.662406	1.579666	0.000187
  40	3.8805e+00	1.5577	-0.171578	0.000385	3.851553	1.304941	0.000154
  41	3.9800e+00	1.5930	-0.038353	0.000334	3.344769	1.133239	0.000134
  42	4.0795e+00	1.6379	0.086798	0.000314	3.142056	1.064557	0.000126
  43	4.1790e+00	1.6748	0.256358	0.000426	4.256979	1.442304	0.000170
  44	4.2785e+00	1.7149	0.389584	0.000334	3.344769	1.133239	0.000134
  45	4.3780e+00	1.7422	0.571255	0.000456	4.561049	1.545325	0.000183
  46	4.4775e+00	1.7919	0.684295	0.000284	2.837986	0.961536	0.000114
  47	4.5770e+00	1.8320	0.861928	0.000446	4.459693	1.510985	0.000179
  48	4.6765e+00	1.8657	0.995154	0.000334	3.344769	1.133239	0.000134
  49	4.7760e+00	1.9122	1.168751	0.000436	4.358336	1.476644	0.000174
  50	4.8755e+00	1.9475	1.261605	0.000233	2.331203	0.789833	0.000093
  51	4.9750e+00	1.9892	1.459425	0.000497	4.966476	1.682688	0.000199
  52	5.0745e+00	2.0310	1.584576	0.000314	3.142056	1.064557	0.000126
  53	5.1740e+00	2.0743	1.782395	0.000497	4.966476	1.682688	0.000199
  54	5.2735e+00	2.1096	1.887361	0.000264	2.635273	0.892855	0.000105
  55	5.3730e+00	2.1497	2.073069	0.000466	4.662406	1.579666	0.000187
  56	5.4725e+00	2.1850	2.202258	0.000324	3.243413	1.098898	0.000130
  57	5.5720e+00	2.2283	2.355669	0.000385	3.851553	1.304941	0.000154
  58	5.6715e+00	2.2764	2.468709	0.000284	2.837986	0.961536	0.000114
  59	5.7710e+00	2.3037	2.634231	0.000416	4.155623	1.407963	0.000166
  60	5.8705e+00	2.3470	2.844162	0.000527	5.270546	1.785709	0.000211
  61	5.9700e+00	2.3903	2.928942	0.000213	2.128490	0.721152	0.000085
  62	6.0695e+00	2.4432	3.106576	0.000446	4.459693	1.510985	0.000179
  63	6.1690e+00	2.4689	3.272099	0.000416	4.155623	1.407963	0.000166
  64	6.2685e+00	2.5058	3.409361	0.000345	3.446126	1.167579	0.000138
  65	6.3680e+00	2.5523	3.550661	0.000355	3.547483	1.201920	0.000142
  66	6.4675e+00	2.5844	3.700035	0.000375	3.750196	1.270601	0.000150
  67	6.5670e+00	2.6261	3.849409	0.000375	3.750196	1.270601	0.000150
  68	6.6665e+00	2.6630	4.002820	0.000385	3.851553	1.304941	0.000154
  69	6.7660e+00	2.7063	4.148157	0.000365	3.648839	1.236260	0.000146
  70	6.8655e+00	2.7448	4.305605	0.000395	3.952909	1.339282	0.000158
  71	6.9650e+00	2.7898	4.434794	0.000324	3.243413	1.098898	0.000130
  72	7.0645e+00	2.8283	4.612428	0.000446	4.459693	1.510985	0.000179
  73	7.1640e+00	2.8732	4.761802	0.000375	3.750196	1.270601	0.000150
  74	7.2635e+00	2.9069	4.963658	0.000507	5.067832	1.717028	0.000203
  75	7.3630e+00	2.9390	5.104958	0.000355	3.547483	1.201920	0.000142
  76	7.4625e+00	2.9710	5.250295	0.000365	3.648839	1.236260	0.000146
  77	7.5620e+00	3.0192	5.375446	0.000314	3.142056	1.064557	0.000126
  78	7.6615e+00	3.0721	5.536932	0.000405	4.054266	1.373622	0.000162
  79	7.7610e+00	3.1106	5.658046	0.000304	3.040699	1.030217	0.000122
  80	7.8605e+00	3.1491	5.872014	0.000537	5.371902	1.820050	0.000215
  81	7.9600e+00	3.1764	5.993128	0.000304	3.040699	1.030217	0.000122
  82	8.0595e+00	3.2213	6.126353	0.000334	3.344769	1.133239	0.000134
  83	8.1590e+00	3.2646	6.271690	0.000365	3.648839	1.236260	0.000146
  84	8.2585e+00	3.3095	6.421064	0.000375	3.750196	1.270601	0.000150
  85	8.3580e+00	3.3464	6.630995	0.000527	5.270546	1.785709	0.000211
  86	8.4575e+00	3.3753	6.768258	0.000345	3.446126	1.167579	0.000138
  87	8.5570e+00	3.4250	6.937818	0.000426	4.256979	1.442304	0.000170
  88	8.6565e+00	3.4667	7.071043	0.000334	3.344769	1.133239	0.000134
  89	8.7560e+00	3.4988	7.256751	0.000466	4.662406	1.579666	0.000187
  90	8.8555e+00	3.5277	7.414200	0.000395	3.952909	1.339282	0.000158
  91	8.9550e+00	3.5855	7.547425	0.000334	3.344769	1.133239	0.000134
  92	9.0545e+00	3.6272	7.676614	0.000324	3.243413	1.098898	0.000130
  93	9.1540e+00	3.6560	7.850210	0.000436	4.358336	1.476644	0.000174
  94	9.2535e+00	3.7074	8.031882	0.000456	4.561049	1.545325	0.000183
  95	9.3530e+00	3.7475	8.177218	0.000365	3.648839	1.236260	0.000146
  96	9.4525e+00	3.7860	8.302370	0.000314	3.142056	1.064557	0.000126
  97	9.5520e+00	3.8261	8.471929	0.000426	4.256979	1.442304	0.000170
  98	9.6515e+00	3.8582	8.633415	0.000405	4.054266	1.373622	0.000162
  99	9.7510e+00	3.9047	8.782789	0.000375	3.750196	1.270601	0.000150
 100	9.8505e+00	3.9464	8.960423	0.000446	4.459693	1.510985	0.000179
 101	9.9500e+00	3.9881	9.138057	0.000446	4.459693	1.510985	0.000179
 102	1.0050e+01	4.0154	9.271282	0.000334	3.344769	1.133239	0.000134
 103	1.0149e+01	4.0619	9.396433	0.000314	3.142056	1.064557	0.000126
 104	1.0248e+01	4.0988	9.553882	0.000395	3.952909	1.339282	0.000158
 105	1.0348e+01	4.1437	9.711330	0.000395	3.952909	1.339282	0.000158
 106	1.0447e+01	4.1822	9.844555	0.000334	3.344769	1.133239	0.000134
 107	1.0547e+01	4.2207	10.046412	0.000507	5.067832	1.717028	0.000203
 108	1.0646e+01	4.2673	10.155415	0.000274	2.736630	0.927195	0.000110
 109	1.0746e+01	4.2993	10.353235	0.000497	4.966476	1.682688	0.000199
 110	1.0845e+01	4.3394	10.482423	0.000324	3.243413	1.098898	0.000130
 111	1.0945e+01	4.3747	10.639871	0.000395	3.952909	1.339282	0.000158
 112	1.1044e+01	4.4197	10.789245	0.000375	3.750196	1.270601	0.000150
 113	1.1144e+01	4.4662	10.938619	0.000375	3.750196	1.270601	0.000150
 114	1.1243e+01	4.5047	11.104142	0.000416	4.155623	1.407963	0.000166
 115	1.1343e+01	4.5416	11.249479	0.000365	3.648839	1.236260	0.000146
 116	1.1443e+01	4.5833	11.386741	0.000345	3.446126	1.167579	0.000138
 117	1.1542e+01	4.6186	11.532078	0.000365	3.648839	1.236260	0.000146
 118	1.1642e+01	4.6587	11.681452	0.000375	3.750196	1.270601	0.000150
 119	1.1741e+01	4.7036	11.814678	0.000334	3.344769	1.133239	0.000134
 120	1.1841e+01	4.7389	12.012497	0.000497	4.966476	1.682688	0.000199
 121	1.1940e+01	4.7806	12.137649	0.000314	3.142056	1.064557	0.000126
 122	1.2040e+01	4.8303	12.315283	0.000446	4.459693	1.510985	0.000179
 123	1.2139e+01	4.8640	12.436397	0.000304	3.040699	1.030217	0.000122
 124	1.2239e+01	4.9009	12.614031	0.000446	4.459693	1.510985	0.000179
 125	1.2338e+01	4.9475	12.735145	0.000304	3.040699	1.030217	0.000122
 126	1.2438e+01	4.9876	12.880482	0.000365	3.648839	1.236260	0.000146
 127	1.2537e+01	5.0100	13.021781	0.000355	3.547483	1.201920	0.000142
 128	1.2636e+01	5.0630	13.187304	0.000416	4.155623	1.407963	0.000166
 129	1.2736e+01	5.0902	13.381086	0.000487	4.865119	1.648347	0.000195
 130	1.2835e+01	5.1384	13.554683	0.000436	4.358336	1.476644	0.000174
 131	1.2935e+01	5.1769	13.635426	0.000203	2.027133	0.686811	0.000081
 132	1.3034e+01	5.2122	13.796911	0.000405	4.054266	1.373622	0.000162
 133	1.3134e+01	5.2571	13.978582	0.000456	4.561049	1.545325	0.000183
 134	1.3233e+01	5.2908	14.103734	0.000314	3.142056	1.064557	0.000126
 135	1.3333e+01	5.3357	14.204662	0.000253	2.533916	0.858514	0.000101
 136	1.3432e+01	5.3726	14.422667	0.000547	5.473259	1.854390	0.000219
 137	1.3532e+01	5.4159	14.555893	0.000334	3.344769	1.133239	0.000134
 138	1.3632e+01	5.4592	14.757750	0.000507	5.067832	1.717028	0.000203
 139	1.3731e+01	5.4945	14.858678	0.000253	2.533916	0.858514	0.000101
 140	1.3831e+01	5.5410	15.004015	0.000365	3.648839	1.236260	0.000146
 141	1.3930e+01	5.5827	15.149352	0.000365	3.648839	1.236260	0.000146
 142	1.4030e+01	5.6164	15.294689	0.000365	3.648839	1.236260	0.000146
 143	1.4129e+01	5.6517	15.456174	0.000405	4.054266	1.373622	0.000162
 144	1.4229e+01	5.6950	15.585363	0.000324	3.243413	1.098898	0.000130
 145	1.4328e+01	5.7335	15.767034	0.000456	4.561049	1.545325	0.000183
 146	1.4428e+01	5.7736	15.880073	0.000284	2.837986	0.961536	0.000114
 147	1.4527e+01	5.8121	16.065782	0.000466	4.662406	1.579666	0.000187
 148	1.4627e+01	5.8587	16.186896	0.000304	3.040699	1.030217	0.000122
 149	1.4726e+01	5.8988	16.384715	0.000497	4.966476	1.682688	0.000199
 150	1.4825e+01	5.9325	16.517941	0.000334	3.344769	1.133239	0.000134
 151	1.4925e+01	5.9694	16.647129	0.000324	3.243413	1.098898	0.000130
 152	1.5024e+01	6.0143	16.816689	0.000426	4.256979	1.442304	0.000170
 153	1.5124e+01	6.0544	16.949914	0.000334	3.344769	1.133239	0.000134
 154	1.5223e+01	6.1057	17.111400	0.000405	4.054266	1.373622	0.000162
 155	1.5323e+01	6.1410	17.224440	0.000284	2.837986	0.961536	0.000114
 156	1.5422e+01	6.1715	17.393999	0.000426	4.256979	1.442304	0.000170
 157	1.5522e+01	6.2164	17.519151	0.000314	3.142056	1.064557	0.000126
 158	1.5621e+01	6.2581	17.700822	0.000456	4.561049	1.545325	0.000183
 159	1.5721e+01	6.2934	17.842121	0.000355	3.547483	1.201920	0.000142
 160	1.5820e+01	6.3255	18.003607	0.000405	4.054266	1.373622	0.000162
 161	1.5920e+01	6.3688	18.161055	0.000395	3.952909	1.339282	0.000158
 162	1.6020e+01	6.4201	18.302355	0.000355	3.547483	1.201920	0.000142
 163	1.6119e+01	6.4570	18.423469	0.000304	3.040699	1.030217	0.000122
 164	1.6218e+01	6.4923	18.588992	0.000416	4.155623	1.407963	0.000166
 165	1.6318e+01	6.5196	18.754514	0.000416	4.155623	1.407963	0.000166
 166	1.6418e+01	6.5774	18.867554	0.000284	2.837986	0.961536	0.000114
 167	1.6517e+01	6.6078	19.000779	0.000334	3.344769	1.133239	0.000134
 168	1.6616e+01	6.6511	19.162265	0.000405	4.054266	1.373622	0.000162
 169	1.6716e+01	6.6977	19.283379	0.000304	3.040699	1.030217	0.000122
 170	1.6816e+01	6.7282	19.444864	0.000405	4.054266	1.373622	0.000162
 171	1.6915e+01	6.7715	19.598275	0.000385	3.851553	1.304941	0.000154
 172	1.7015e+01	6.8036	19.759761	0.000405	4.054266	1.373622	0.000162
 173	1.7114e+01	6.8469	19.897023	0.000345	3.446126	1.167579	0.000138
 174	1.7213e+01	6.8854	20.010063	0.000284	2.837986	0.961536	0.000114
 175	1.7313e+01	6.9287	20.159437	0.000375	3.750196	1.270601	0.000150
 176	1.7413e+01	6.9672	20.324960	0.000416	4.155623	1.407963	0.000166
 177	1.7512e+01	7.0121	20.450111	0.000314	3.142056	1.064557	0.000126
 178	1.7611e+01	7.0554	20.647931	0.000497	4.966476	1.682688	0.000199
 179	1.7711e+01	7.0843	20.744822	0.000243	2.432560	0.824173	0.000097
 180	1.7811e+01	7.1244	20.942642	0.000497	4.966476	1.682688	0.000199
 181	1.7910e+01	7.1677	21.035496	0.000233	2.331203	0.789833	0.000093
 182	1.8009e+01	7.2046	21.201018	0.000416	4.155623	1.407963	0.000166
 183	1.8109e+01	7.2479	21.350392	0.000375	3.750196	1.270601	0.000150
 184	1.8209e+01	7.2800	21.519952	0.000426	4.256979	1.442304	0.000170
 185	1.8308e+01	7.3362	21.665289	0.000365	3.648839	1.236260	0.000146
 186	1.8407e+01	7.3666	21.818700	0.000385	3.851553	1.304941	0.000154
 187	1.8507e+01	7.4116	21.964037	0.000365	3.648839	1.236260	0.000146
 188	1.8607e+01	7.4388	22.093225	0.000324	3.243413	1.098898	0.000130
 189	1.8706e+01	7.4950	22.202228	0.000274	2.736630	0.927195	0.000110
 190	1.8805e+01	7.5271	22.412159	0.000527	5.270546	1.785709	0.000211
 191	1.8905e+01	7.5720	22.541347	0.000324	3.243413	1.098898	0.000130
 192	1.9005e+01	7.6041	22.654387	0.000284	2.837986	0.961536	0.000114
 193	1.9104e+01	7.6474	22.827984	0.000436	4.358336	1.476644	0.000174
 194	1.9203e+01	7.6843	23.005618	0.000446	4.459693	1.510985	0.000179
 195	1.9303e+01	7.7292	23.118658	0.000284	2.837986	0.961536	0.000114
 196	1.9402e+01	7.7709	23.255920	0.000345	3.446126	1.167579	0.000138
 197	1.9502e+01	7.8078	23.421443	0.000416	4.155623	1.407963	0.000166
 198	1.9602e+01	7.8463	23.578891	0.000395	3.952909	1.339282	0.000158
 199	1.9701e+01	7.8896	23.720191	0.000355	3.547483	1.201920	0.000142
 200	1.9800e+01	7.9265	23.865528	0.000365	3.648839	1.236260	0.000146
 201	1.9900e+01	7.9650	24.035088	0.000426	4.256979	1.442304	0.000170
 202	2.0000e+01	8.0083	24.200610	0.000416	4.155623	1.407963	0.000166
 203	2.0099e+01	8.0484	24.362096	0.000405	4.054266	1.373622	0.000162
 204	2.0198e+01	8.0837	24.463024	0.000253	2.533916	0.858514	0.000101
 205	2.0298e+01	8.1303	24.624509	0.000405	4.054266	1.373622	0.000162
 206	2.0398e+01	8.1543	24.777921	0.000385	3.851553	1.304941	0.000154
 207	2.0497e+01	8.2073	24.927295	0.000375	3.750196	1.270601	0.000150
 208	2.0596e+01	8.2393	25.056483	0.000324	3.243413	1.098898	0.000130
 209	2.0696e+01	8.2843	25.234117	0.000446	4.459693	1.510985	0.000179
 210	2.0796e+01	8.3179	25.419825	0.000466	4.662406	1.579666	0.000187
 211	2.0895e+01	8.3613	25.512679	0.000233	2.331203	0.789833	0.000093
 212	2.0994e+01	8.4062	25.698388	0.000466	4.662406	1.579666	0.000187
 213	2.1094e+01	8.4399	25.843724	0.000365	3.648839	1.236260	0.000146
 214	2.1194e+01	8.4896	25.997136	0.000385	3.851553	1.304941	0.000154
 215	2.1293e+01	8.5217	26.130361	0.000334	3.344769	1.133239	0.000134
 216	2.1392e+01	8.5554	26.320106	0.000476	4.763762	1.614006	0.000191
 217	2.1492e+01	8.5987	26.408923	0.000223	2.229846	0.755492	0.000089
 218	2.1591e+01	8.6532	26.602706	0.000487	4.865119	1.648347	0.000195
 219	2.1691e+01	8.6805	26.748043	0.000365	3.648839	1.236260	0.000146
 220	2.1791e+01	8.7254	26.877231	0.000324	3.243413	1.098898	0.000130
 221	2.1890e+01	8.7639	27.026605	0.000375	3.750196	1.270601	0.000150
 222	2.1989e+01	8.8056	27.167905	0.000355	3.547483	1.201920	0.000142
 223	2.2089e+01	8.8377	27.329390	0.000405	4.054266	1.373622	0.000162
 224	2.2189e+01	8.8842	27.474727	0.000365	3.648839	1.236260	0.000146
 225	2.2288e+01	8.9163	27.664473	0.000476	4.763762	1.614006	0.000191
 226	2.2387e+01	8.9596	27.781550	0.000294	2.939343	0.995876	0.000118
 227	2.2487e+01	9.0014	27.906701	0.000314	3.142056	1.064557	0.000126
 228	2.2587e+01	9.0350	28.072223	0.000416	4.155623	1.407963	0.000166
 229	2.2686e+01	9.0784	28.197375	0.000314	3.142056	1.064557	0.000126
 230	2.2785e+01	9.1201	28.379046	0.000456	4.561049	1.545325	0.000183
 231	2.2885e+01	9.1586	28.524383	0.000365	3.648839	1.236260	0.000146
 232	2.2985e+01	9.1923	28.665682	0.000355	3.547483	1.201920	0.000142
 233	2.3084e+01	9.2388	28.843316	0.000446	4.459693	1.510985	0.000179
 234	2.3183e+01	9.2917	28.956356	0.000284	2.837986	0.961536	0.000114
 235	2.3283e+01	9.3206	29.129953	0.000436	4.358336	1.476644	0.000174
 236	2.3383e+01	9.3591	29.275290	0.000365	3.648839	1.236260	0.000146
 237	2.3482e+01	9.3992	29.396404	0.000304	3.040699	1.030217	0.000122
 238	2.3581e+01	9.4409	29.561926	0.000416	4.155623	1.407963	0.000166
 239	2.3681e+01	9.4842	29.747635	0.000466	4.662406	1.579666	0.000187
 240	2.3780e+01	9.5211	29.884897	0.000345	3.446126	1.167579	0.000138
 241	2.3880e+01	9.5660	30.034271	0.000375	3.750196	1.270601	0.000150
 242	2.3980e+01	9.5965	30.187682	0.000385	3.851553	1.304941	0.000154
 243	2.4079e+01	9.6366	30.328982	0.000355	3.547483	1.201920	0.000142
 244	2.4178e+01	9.6815	30.502579	0.000436	4.358336	1.476644	0.000174
 245	2.4278e+01	9.7152	30.635805	0.000334	3.344769	1.133239	0.000134
 246	2.4378e+01	9.7569	30.781141	0.000365	3.648839	1.236260	0.000146
 247	2.4477e+01	9.7970	30.914367	0.000334	3.344769	1.133239	0.000134
 248	2.4576e+01	9.8339	31.067778	0.000385	3.851553	1.304941	0.000154
 249	2.4676e+01	9.8821	31.241375	0.000436	4.358336	1.476644	0.000174
 250	2.4776e+01	9.9158	31.370563	0.000324	3.243413	1.098898	0.000130
 251	2.4875e+01	9.9575	31.572420	0.000507	5.067832	1.717028	0.000203
 252	2.4974e+01	9.9912	31.677386	0.000264	2.635273	0.892855	0.000105
 253	2.5074e+01	10.0297	31.838871	0.000405	4.054266	1.373622	0.000162
 254	2.5174e+01	10.0714	31.964022	0.000314	3.142056	1.064557	0.000126
 255	2.5273e+01	10.1211	32.145693	0.000456	4.561049	1.545325	0.000183
 256	2.5372e+01	10.1596	32.282956	0.000345	3.446126	1.167579	0.000138
 257	2.5472e+01	10.1901	32.432330	0.000375	3.750196	1.270601	0.000150
 258	2.5572e+01	10.2398	32.581704	0.000375	3.750196	1.270601	0.000150
 259	2.5671e+01	10.2831	32.743189	0.000405	4.054266	1.373622	0.000162
 260	2.5770e+01	10.3184	32.884489	0.000355	3.547483	1.201920	0.000142
 261	2.5870e+01	10.3617	33.037900	0.000385	3.851553	1.304941	0.000154
 262	2.5970e+01	10.3906	33.203423	0.000416	4.155623	1.407963	0.000166
 263	2.6069e+01	10.4355	33.328574	0.000314	3.142056	1.064557	0.000126
 264	2.6169e+01	10.4772	33.461800	0.000334	3.344769	1.133239	0.000134
 265	2.6268e+01	10.5206	33.607136	0.000365	3.648839	1.236260	0.000146
 266	2.6367e+01	10.5591	33.780733	0.000436	4.358336	1.476644	0.000174
 267	2.6467e+01	10.5927	33.917996	0.000345	3.446126	1.167579	0.000138
 268	2.6567e+01	10.6409	34.091593	0.000436	4.358336	1.476644	0.000174
 269	2.6666e+01	10.6698	34.265190	0.000436	4.358336	1.476644	0.000174
 270	2.6765e+01	10.7083	34.382267	0.000294	2.939343	0.995876	0.000118
 271	2.6865e+01	10.7596	34.547789	0.000416	4.155623	1.407963	0.000166
 272	2.6965e+01	10.7917	34.697163	0.000375	3.750196	1.270601	0.000150
 273	2.7064e+01	10.8398	34.830389	0.000334	3.344769	1.133239	0.000134
 274	2.7163e+01	10.8687	34.975725	0.000365	3.648839	1.236260	0.000146
 275	2.7263e+01	10.9136	35.068580	0.000233	2.331203	0.789833	0.000093
 276	2.7363e+01	10.9569	35.242176	0.000436	4.358336	1.476644	0.000174
 277	2.7462e+01	10.9922	35.415773	0.000436	4.358336	1.476644	0.000174
 278	2.7561e+01	11.0371	35.585333	0.000426	4.256979	1.442304	0.000170
 279	2.7661e+01	11.0772	35.682224	0.000243	2.432560	0.824173	0.000097
 280	2.7761e+01	11.1189	35.819487	0.000345	3.446126	1.167579	0.000138
 281	2.7860e+01	11.1542	35.989047	0.000426	4.256979	1.442304	0.000170
 282	2.7959e+01	11.1959	36.118235	0.000324	3.243413	1.098898	0.000130
 283	2.8059e+01	11.2280	36.243386	0.000314	3.142056	1.064557	0.000126
 284	2.8159e+01	11.2794	36.433131	0.000476	4.763762	1.614006	0.000191
 285	2.8258e+01	11.3179	36.538097	0.000264	2.635273	0.892855	0.000105
 286	2.8358e+01	11.3516	36.675360	0.000345	3.446126	1.167579	0.000138
 287	2.8457e+01	11.3917	36.889328	0.000537	5.371902	1.820050	0.000215
 288	2.8556e+01	11.4350	36.961996	0.000182	1.824420	0.618130	0.000073
 289	2.8656e+01	11.4751	37.119445	0.000395	3.952909	1.339282	0.000158
 290	2.8756e+01	11.5104	37.272856	0.000385	3.851553	1.304941	0.000154
 291	2.8855e+01	11.5441	37.426267	0.000385	3.851553	1.304941	0.000154
 292	2.8954e+01	11.5906	37.575641	0.000375	3.750196	1.270601	0.000150
 293	2.9054e+01	11.6355	37.692718	0.000294	2.939343	0.995876	0.000118
 294	2.9154e+01	11.6724	37.862278	0.000426	4.256979	1.442304	0.000170
 295	2.9253e+01	11.7077	38.011652	0.000375	3.750196	1.270601	0.000150
 296	2.9352e+01	11.7494	38.068171	0.000142	1.418993	0.480768	0.000057
 297	2.9452e+01	11.7959	38.282140	0.000537	5.371902	1.820050	0.000215
 298	2.9552e+01	11.8216	38.407291	0.000314	3.142056	1.064557	0.000126
 299	2.9651e+01	11.8665	38.572813	0.000416	4.155623	1.407963	0.000166
 300	2.9750e+01	11.9162	38.685853	0.000284	2.837986	0.961536	0.000114
 301	2.9850e+01	11.9547	38.823116	0.000345	3.446126	1.167579	0.000138
 302	2.9950e+01	11.9916	38.992676	0.000426	4.256979	1.442304	0.000170
 303	3.0049e+01	12.0269	39.142050	0.000375	3.750196	1.270601	0.000150
 304	3.0148e+01	12.0751	39.226829	0.000213	2.128490	0.721152	0.000085
 305	3.0248e+01	12.1184	39.396389	0.000426	4.256979	1.442304	0.000170
 306	3.0348e+01	12.1521	39.505392	0.000274	2.736630	0.927195	0.000110
 307	3.0447e+01	12.1874	39.674951	0.000426	4.256979	1.442304	0.000170
 308	3.0547e+01	12.2403	39.840474	0.000416	4.155623	1.407963	0.000166
 309	3.0646e+01	12.2756	39.969662	0.000324	3.243413	1.098898	0.000130
 310	3.0745e+01	12.3141	40.106925	0.000345	3.446126	1.167579	0.000138
 311	3.0845e+01	12.3526	40.228039	0.000304	3.040699	1.030217	0.000122
 312	3.0945e+01	12.3895	40.405673	0.000446	4.459693	1.510985	0.000179
 313	3.1044e+01	12.4408	40.555047	0.000375	3.750196	1.270601	0.000150
 314	3.1143e+01	12.4665	40.647901	0.000233	2.331203	0.789833	0.000093
 315	3.1243e+01	12.5098	40.817461	0.000426	4.256979	1.442304	0.000170
 316	3.1343e+01	12.5499	40.926464	0.000274	2.736630	0.927195	0.000110
 317	3.1442e+01	12.5916	41.071800	0.000365	3.648839	1.236260	0.000146
 318	3.1541e+01	12.6317	41.257509	0.000466	4.662406	1.579666	0.000187
 319	3.1641e+01	12.6734	41.382660	0.000314	3.142056	1.064557	0.000126
 320	3.1741e+01	12.7087	41.499737	0.000294	2.939343	0.995876	0.000118
 321	3.1840e+01	12.7537	41.632962	0.000334	3.344769	1.133239	0.000134
 322	3.1939e+01	12.7889	41.778299	0.000365	3.648839	1.236260	0.000146
 323	3.2039e+01	12.8258	41.931710	0.000385	3.851553	1.304941	0.000154
 324	3.2139e+01	12.8627	42.056862	0.000314	3.142056	1.064557	0.000126
 325	3.2238e+01	12.9109	42.190087	0.000334	3.344769	1.133239	0.000134
 326	3.2337e+01	12.9413	42.319275	0.000324	3.243413	1.098898	0.000130
 327	3.2437e+01	12.9686	42.460575	0.000355	3.547483	1.201920	0.000142
 328	3.2536e+01	13.0216	42.573615	0.000284	2.837986	0.961536	0.000114
 329	3.2636e+01	13.0633	42.735100	0.000405	4.054266	1.373622	0.000162
 330	3.2736e+01	13.1162	42.860252	0.000314	3.142056	1.064557	0.000126
 331	3.2835e+01	13.1371	43.033848	0.000436	4.358336	1.476644	0.000174
 332	3.2934e+01	13.1884	43.150925	0.000294	2.939343	0.995876	0.000118
 333	3.3034e+01	13.2109	43.340671	0.000476	4.763762	1.614006	0.000191
 334	3.3133e+01	13.2654	43.417376	0.000193	1.925776	0.652471	0.000077
 335	3.3233e+01	13.3007	43.566750	0.000375	3.750196	1.270601	0.000150
 336	3.3333e+01	13.3408	43.695939	0.000324	3.243413	1.098898	0.000130
 337	3.3432e+01	13.3873	43.841276	0.000365	3.648839	1.236260	0.000146
 338	3.3532e+01	13.4274	44.002761	0.000405	4.054266	1.373622	0.000162
 339	3.3631e+01	13.4643	44.111764	0.000274	2.736630	0.927195	0.000110
 340	3.3730e+01	13.4948	44.220766	0.000274	2.736630	0.927195	0.000110
 341	3.3830e+01	13.5397	44.398400	0.000446	4.459693	1.510985	0.000179
 342	3.3929e+01	13.5766	44.519514	0.000304	3.040699	1.030217	0.000122
 343	3.4029e+01	13.6247	44.620443	0.000253	2.533916	0.858514	0.000101
 344	3.4129e+01	13.6681	44.777891	0.000395	3.952909	1.339282	0.000158
 345	3.4228e+01	13.7001	44.907079	0.000324	3.243413	1.098898	0.000130
 346	3.4328e+01	13.7435	45.052416	0.000365	3.648839	1.236260	0.000146
 347	3.4427e+01	13.7852	45.177567	0.000314	3.142056	1.064557	0.000126
 348	3.4526e+01	13.8140	45.306756	0.000324	3.243413	1.098898	0.000130
 349	3.4626e+01	13.8638	45.508613	0.000507	5.067832	1.717028	0.000203
 350	3.4725e+01	13.9039	45.625690	0.000294	2.939343	0.995876	0.000118
 351	3.4825e+01	13.9360	45.754878	0.000324	3.243413	1.098898	0.000130
 352	3.4925e+01	13.9841	45.884066	0.000324	3.243413	1.098898	0.000130
 353	3.5024e+01	14.0194	45.984995	0.000253	2.533916	0.858514	0.000101
 354	3.5123e+01	14.0611	46.166666	0.000456	4.561049	1.545325	0.000183
 355	3.5223e+01	14.0980	46.291817	0.000314	3.142056	1.064557	0.000126
 356	3.5322e+01	14.1429	46.433117	0.000355	3.547483	1.201920	0.000142
 357	3.5422e+01	14.1814	46.550194	0.000294	2.939343	0.995876	0.000118
 358	3.5522e+01	14.2167	46.699568	0.000375	3.750196	1.270601	0.000150
 359	3.5621e+01	14.2568	46.865090	0.000416	4.155623	1.407963	0.000166
 360	3.5721e+01	14.2905	46.957944	0.000233	2.331203	0.789833	0.000093
 361	3.5820e+01	14.3338	47.123467	0.000416	4.155623	1.407963	0.000166
 362	3.5919e+01	14.3739	47.256692	0.000334	3.344769	1.133239	0.000134
 363	3.6019e+01	14.4204	47.377806	0.000304	3.040699	1.030217	0.000122
 364	3.6118e+01	14.4606	47.531218	0.000385	3.851553	1.304941	0.000154
 365	3.6218e+01	14.5007	47.692703	0.000405	4.054266	1.373622	0.000162
 366	3.6318e+01	14.5504	47.817854	0.000314	3.142056	1.064557	0.000126
 367	3.6417e+01	14.5825	47.959154	0.000355	3.547483	1.201920	0.000142
 368	3.6517e+01	14.6226	48.096417	0.000345	3.446126	1.167579	0.000138
 369	3.6616e+01	14.6499	48.237716	0.000355	3.547483	1.201920	0.000142
 370	3.6715e+01	14.6851	48.379016	0.000355	3.547483	1.201920	0.000142
 371	3.6815e+01	14.7397	48.508204	0.000324	3.243413	1.098898	0.000130
 372	3.6914e+01	14.7718	48.657578	0.000375	3.750196	1.270601	0.000150
 373	3.7014e+01	14.8247	48.786767	0.000324	3.243413	1.098898	0.000130
 374	3.7114e+01	14.8472	48.956327	0.000426	4.256979	1.442304	0.000170
 375	3.7213e+01	14.8937	49.081478	0.000314	3.142056	1.064557	0.000126
 376	3.7313e+01	14.9370	49.247000	0.000416	4.155623	1.407963	0.000166
 377	3.7412e+01	14.9787	49.360040	0.000284	2.837986	0.961536	0.000114
 378	3.7511e+01	15.0220	49.521526	0.000405	4.054266	1.373622	0.000162
 379	3.7611e+01	15.0654	49.683011	0.000405	4.054266	1.373622	0.000162
 380	3.7711e+01	15.1071	49.787976	0.000264	2.635273	0.892855	0.000105
 381	3.7810e+01	15.1359	49.913128	0.000314	3.142056	1.064557	0.000126
 382	3.7910e+01	15.1760	50.102873	0.000476	4.763762	1.614006	0.000191
 383	3.8009e+01	15.2194	50.199764	0.000243	2.432560	0.824173	0.000097
 384	3.8108e+01	15.2530	50.324916	0.000314	3.142056	1.064557	0.000126
 385	3.8208e+01	15.2867	50.470252	0.000365	3.648839	1.236260	0.000146
 386	3.8307e+01	15.3188	50.611552	0.000355	3.547483	1.201920	0.000142
 387	3.8407e+01	15.3766	50.785149	0.000436	4.358336	1.476644	0.000174
 388	3.8507e+01	15.4199	50.890115	0.000264	2.635273	0.892855	0.000105
 389	3.8606e+01	15.4456	51.067749	0.000446	4.459693	1.510985	0.000179
 390	3.8706e+01	15.4953	51.221160	0.000385	3.851553	1.304941	0.000154
 391	3.8805e+01	15.5370	51.322088	0.000253	2.533916	0.858514	0.000101
 392	3.8904e+01	15.5707	51.443202	0.000304	3.040699	1.030217	0.000122
 393	3.9004e+01	15.6140	51.600650	0.000395	3.952909	1.339282	0.000158
 394	3.9103e+01	15.6541	51.729839	0.000324	3.243413	1.098898	0.000130
 395	3.9203e+01	15.6910	51.895361	0.000416	4.155623	1.407963	0.000166
 396	3.9303e+01	15.7375	52.020513	0.000314	3.142056	1.064557	0.000126
 397	3.9402e+01	15.7728	52.157775	0.000345	3.446126	1.167579	0.000138
 398	3.9502e+01	15.8081	52.274852	0.000294	2.939343	0.995876	0.000118
 399	3.9601e+01	15.8594	52.432300	0.000395	3.952909	1.339282	0.000158
 400	3.9700e+01	15.8899	52.565526	0.000334	3.344769	1.133239	0.000134
 401	3.9800e+01	15.9364	52.710863	0.000365	3.648839	1.236260	0.000146
 402	3.9900e+01	15.9701	52.856200	0.000365	3.648839	1.236260	0.000146
 403	3.9999e+01	16.0102	53.021722	0.000416	4.155623	1.407963	0.000166
 404	4.0099e+01	16.0552	53.130725	0.000274	2.736630	0.927195	0.000110
 405	4.0198e+01	16.0856	53.284136	0.000385	3.851553	1.304941	0.000154
 406	4.0297e+01	16.1370	53.401213	0.000294	2.939343	0.995876	0.000118
 407	4.0397e+01	16.1642	53.558661	0.000395	3.952909	1.339282	0.000158
 408	4.0496e+01	16.2156	53.699961	0.000355	3.547483	1.201920	0.000142
 409	4.0596e+01	16.2509	53.861446	0.000405	4.054266	1.373622	0.000162
 410	4.0696e+01	16.2942	53.990635	0.000324	3.243413	1.098898	0.000130
 411	4.0795e+01	16.3263	54.156157	0.000416	4.155623	1.407963	0.000166
 412	4.0895e+01	16.3760	54.277271	0.000304	3.040699	1.030217	0.000122
 413	4.0994e+01	16.4129	54.446831	0.000426	4.256979	1.442304	0.000170
 414	4.1093e+01	16.4658	54.563908	0.000294	2.939343	0.995876	0.000118
 415	4.1193e+01	16.4899	54.713282	0.000375	3.750196	1.270601	0.000150
 416	4.1292e+01	16.5316	54.806136	0.000233	2.331203	0.789833	0.000093
 417	4.1392e+01	16.5717	54.967622	0.000405	4.054266	1.373622	0.000162
 418	4.1492e+01	16.6150	55.125070	0.000395	3.952909	1.339282	0.000158
 419	4.1591e+01	16.6487	55.286555	0.000405	4.054266	1.373622	0.000162
 420	4.1691e+01	16.6888	55.387484	0.000253	2.533916	0.858514	0.000101
 421	4.1790e+01	16.7289	55.520709	0.000334	3.344769	1.133239	0.000134
 422	4.1889e+01	16.7787	55.666046	0.000365	3.648839	1.236260	0.000146
 423	4.1989e+01	16.8188	55.851754	0.000466	4.662406	1.579666	0.000187
 424	4.2089e+01	16.8460	55.976906	0.000314	3.142056	1.064557	0.000126
 425	4.2188e+01	16.8942	56.126280	0.000375	3.750196	1.270601	0.000150
 426	4.2288e+01	16.9311	56.291802	0.000416	4.155623	1.407963	0.000166
 427	4.2387e+01	16.9664	56.396768	0.000264	2.635273	0.892855	0.000105
 428	4.2486e+01	17.0161	56.542105	0.000365	3.648839	1.236260	0.000146
 429	4.2586e+01	17.0466	56.663219	0.000304	3.040699	1.030217	0.000122
 430	4.2685e+01	17.0963	56.800481	0.000345	3.446126	1.167579	0.000138
 431	4.2785e+01	17.1284	56.925632	0.000314	3.142056	1.064557	0.000126
 432	4.2885e+01	17.1717	57.075006	0.000375	3.750196	1.270601	0.000150
 433	4.2984e+01	17.2070	57.224381	0.000375	3.750196	1.270601	0.000150
 434	4.3084e+01	17.2503	57.365680	0.000355	3.547483	1.201920	0.000142
 435	4.3183e+01	17.2920	57.506980	0.000355	3.547483	1.201920	0.000142
 436	4.3282e+01	17.3225	57.640205	0.000334	3.344769	1.133239	0.000134
 437	4.3382e+01	17.3690	57.765357	0.000314	3.142056	1.064557	0.000126
 438	4.3481e+01	17.4011	57.934916	0.000426	4.256979	1.442304	0.000170
 439	4.3581e+01	17.4460	58.064105	0.000324	3.243413	1.098898	0.000130
 440	4.3681e+01	17.4942	58.209442	0.000365	3.648839	1.236260	0.000146
 441	4.3780e+01	17.5391	58.358816	0.000375	3.750196	1.270601	0.000150
 442	4.3880e+01	17.5631	58.419373	0.000152	1.520350	0.515108	0.000061
 443	4.3979e+01	17.6081	58.597007	0.000446	4.459693	1.510985	0.000179
 444	4.4078e+01	17.6466	58.778678	0.000456	4.561049	1.545325	0.000183
 445	4.4178e+01	17.6835	58.895755	0.000294	2.939343	0.995876	0.000118
 446	4.4278e+01	17.7220	58.992646	0.000243	2.432560	0.824173	0.000097
 447	4.4377e+01	17.7605	59.154131	0.000405	4.054266	1.373622	0.000162
 448	4.4477e+01	17.8054	59.287357	0.000334	3.344769	1.133239	0.000134
 449	4.4576e+01	17.8455	59.424619	0.000345	3.446126	1.167579	0.000138
 450	4.4675e+01	17.8824	59.545734	0.000304	3.040699	1.030217	0.000122
 451	4.4775e+01	17.9209	59.678959	0.000334	3.344769	1.133239	0.000134
 452	4.4874e+01	17.9738	59.812185	0.000334	3.344769	1.133239	0.000134
 453	4.4974e+01	17.9931	59.961559	0.000375	3.750196	1.270601	0.000150
 454	4.5074e+01	18.0492	60.066524	0.000264	2.635273	0.892855	0.000105
 455	4.5173e+01	18.0957	60.244158	0.000446	4.459693	1.510985	0.000179
 456	4.5273e+01	18.1342	60.361235	0.000294	2.939343	0.995876	0.000118
 457	4.5372e+01	18.1599	60.474275	0.000284	2.837986	0.961536	0.000114
 458	4.5471e+01	18.2096	60.623649	0.000375	3.750196	1.270601	0.000150
 459	4.5571e+01	18.2465	60.724577	0.000253	2.533916	0.858514	0.000101
 460	4.5670e+01	18.2866	60.890100	0.000416	4.155623	1.407963	0.000166
 461	4.5770e+01	18.3284	61.007177	0.000294	2.939343	0.995876	0.000118
 462	4.5870e+01	18.3653	61.140402	0.000334	3.344769	1.133239	0.000134
 463	4.5969e+01	18.4054	61.293813	0.000385	3.851553	1.304941	0.000154
 464	4.6069e+01	18.4471	61.402816	0.000274	2.736630	0.927195	0.000110
 465	4.6168e+01	18.4743	61.523930	0.000304	3.040699	1.030217	0.000122
 466	4.6267e+01	18.5289	61.653118	0.000324	3.243413	1.098898	0.000130
 467	4.6367e+01	18.5642	61.854975	0.000507	5.067832	1.717028	0.000203
 468	4.6467e+01	18.6043	61.972052	0.000294	2.939343	0.995876	0.000118
 469	4.6566e+01	18.6348	62.097203	0.000314	3.142056	1.064557	0.000126
 470	4.6666e+01	18.6749	62.190057	0.000233	2.331203	0.789833	0.000093
 471	4.6765e+01	18.7262	62.355580	0.000416	4.155623	1.407963	0.000166
 472	4.6864e+01	18.7599	62.492843	0.000345	3.446126	1.167579	0.000138
 473	4.6964e+01	18.7936	62.622031	0.000324	3.243413	1.098898	0.000130
 474	4.7063e+01	18.8401	62.743145	0.000304	3.040699	1.030217	0.000122
 475	4.7163e+01	18.8786	62.868296	0.000314	3.142056	1.064557	0.000126
 476	4.7263e+01	18.9251	63.025745	0.000395	3.952909	1.339282	0.000158
 477	4.7362e+01	18.9620	63.130710	0.000264	2.635273	0.892855	0.000105
 478	4.7462e+01	19.0005	63.284121	0.000385	3.851553	1.304941	0.000154
 479	4.7561e+01	19.0503	63.393124	0.000274	2.736630	0.927195	0.000110
 480	4.7660e+01	19.0823	63.534424	0.000355	3.547483	1.201920	0.000142
 481	4.7760e+01	19.1112	63.635352	0.000253	2.533916	0.858514	0.000101
 482	4.7859e+01	19.1658	63.768578	0.000334	3.344769	1.133239	0.000134
 483	4.7959e+01	19.2027	63.913914	0.000365	3.648839	1.236260	0.000146
 484	4.8059e+01	19.2492	64.075400	0.000405	4.054266	1.373622	0.000162
 485	4.8158e+01	19.2797	64.192477	0.000294	2.939343	0.995876	0.000118
 486	4.8258e+01	19.3214	64.325702	0.000334	3.344769	1.133239	0.000134
 487	4.8357e+01	19.3615	64.446816	0.000304	3.040699	1.030217	0.000122
 488	4.8456e+01	19.3920	64.555819	0.000274	2.736630	0.927195	0.000110
 489	4.8556e+01	19.4401	64.697119	0.000355	3.547483	1.201920	0.000142
 490	4.8656e+01	19.4738	64.810159	0.000284	2.837986	0.961536	0.000114
 491	4.8755e+01	19.5251	64.975681	0.000416	4.155623	1.407963	0.000166
 492	4.8855e+01	19.5588	65.060461	0.000213	2.128490	0.721152	0.000085
 493	4.8954e+01	19.6021	65.173501	0.000284	2.837986	0.961536	0.000114
 494	4.9053e+01	19.6358	65.343060	0.000426	4.256979	1.442304	0.000170
 495	4.9153e+01	19.6791	65.468212	0.000314	3.142056	1.064557	0.000126
 496	4.9252e+01	19.7192	65.585289	0.000294	2.939343	0.995876	0.000118
 497	4.9352e+01	19.7593	65.686217	0.000253	2.533916	0.858514	0.000101
 498	4.9452e+01	19.7978	65.859814	0.000436	4.358336	1.476644	0.000174
 499	4.9551e+01	19.8395	65.989002	0.000324	3.243413	1.098898	0.000130
 500	4.9651e+01	19.8748	66.098005	0.000274	2.736630	0.927195	0.000110
 501	4.9750e+01	19.9230	66.243342	0.000365	3.648839	1.236260	0.000146
 502	4.9849e+01	19.9502	66.380604	0.000345	3.446126	1.167579	0.000138
 503	4.9949e+01	19.9968	66.489607	0.000274	2.736630	0.927195	0.000110
 504	5.0048e+01	19.9599	66.376567	0.000284	2.837986	0.961536	-0.000114
 505	5.0148e+01	19.9182	66.299862	0.000193	1.925776	0.652471	-0.000077
 506	5.0248e+01	19.8732	66.182785	0.000294	2.939343	0.995876	-0.000118
 507	5.0347e+01	19.8283	66.106079	0.000193	1.925776	0.652471	-0.000077
 508	5.0447e+01	19.7930	65.976891	0.000324	3.243413	1.098898	-0.000130
 509	5.0546e+01	19.7561	65.859814	0.000294	2.939343	0.995876	-0.000118
 510	5.0645e+01	19.7176	65.791183	0.000172	1.723063	0.583790	-0.000069
 511	5.0745e+01	19.6759	65.637771	0.000385	3.851553	1.304941	-0.000154
 512	5.0844e+01	19.6278	65.504546	0.000334	3.344769	1.133239	-0.000134
 513	5.0944e+01	19.5957	65.456100	0.000122	1.216280	0.412087	-0.000049
 514	5.1044e+01	19.5588	65.314801	0.000355	3.547483	1.201920	-0.000142
 515	5.1143e+01	19.5059	65.234058	0.000203	2.027133	0.686811	-0.000081
 516	5.1242e+01	19.4690	65.100832	0.000334	3.344769	1.133239	-0.000134
 517	5.1342e+01	19.4401	64.987793	0.000284	2.837986	0.961536	-0.000114
 518	5.1441e+01	19.3968	64.894938	0.000233	2.331203	0.789833	-0.000093
 519	5.1541e+01	19.3519	64.769787	0.000314	3.142056	1.064557	-0.000126
 520	5.1641e+01	19.3214	64.685007	0.000213	2.128490	0.721152	-0.000085
 521	5.1740e+01	19.2845	64.555819	0.000324	3.243413	1.098898	-0.000130
 522	5.1840e+01	19.2396	64.454891	0.000253	2.533916	0.858514	-0.000101
 523	5.1939e+01	19.2075	64.341851	0.000284	2.837986	0.961536	-0.000114
 524	5.2038e+01	19.1610	64.200551	0.000355	3.547483	1.201920	-0.000142
 525	5.2138e+01	19.1257	64.107697	0.000233	2.331203	0.789833	-0.000093
 526	5.2237e+01	19.0807	64.006769	0.000253	2.533916	0.858514	-0.000101
 527	5.2337e+01	19.0422	63.889692	0.000294	2.939343	0.995876	-0.000118
 528	5.2437e+01	18.9957	63.772615	0.000294	2.939343	0.995876	-0.000118
 529	5.2536e+01	18.9572	63.659575	0.000284	2.837986	0.961536	-0.000114
 530	5.2636e+01	18.9171	63.570758	0.000223	2.229846	0.755492	-0.000089
 531	5.2735e+01	18.8850	63.437532	0.000334	3.344769	1.133239	-0.000134
 532	5.2834e+01	18.8497	63.356790	0.000203	2.027133	0.686811	-0.000081
 533	5.2934e+01	18.7984	63.227601	0.000324	3.243413	1.098898	-0.000130
 534	5.3033e+01	18.7647	63.078227	0.000375	3.750196	1.270601	-0.000150
 535	5.3133e+01	18.7246	63.013633	0.000162	1.621706	0.549449	-0.000065
 536	5.3233e+01	18.6861	62.876371	0.000345	3.446126	1.167579	-0.000138
 537	5.3332e+01	18.6364	62.775442	0.000253	2.533916	0.858514	-0.000101
 538	5.3431e+01	18.6011	62.626068	0.000375	3.750196	1.270601	-0.000150
 539	5.3531e+01	18.5578	62.581660	0.000111	1.114923	0.377746	-0.000045
 540	5.3630e+01	18.5209	62.420174	0.000405	4.054266	1.373622	-0.000162
 541	5.3730e+01	18.4904	62.319246	0.000253	2.533916	0.858514	-0.000101
 542	5.3830e+01	18.4423	62.218317	0.000253	2.533916	0.858514	-0.000101
 543	5.3929e+01	18.4086	62.117389	0.000253	2.533916	0.858514	-0.000101
 544	5.4029e+01	18.3620	61.935718	0.000456	4.561049	1.545325	-0.000183
 545	5.4128e+01	18.3219	61.883235	0.000132	1.317636	0.446427	-0.000053
 546	5.4227e+01	18.2754	61.790381	0.000233	2.331203	0.789833	-0.000093
 547	5.4327e+01	18.2449	61.620821	0.000426	4.256979	1.442304	-0.000170
 548	5.4426e+01	18.2048	61.511819	0.000274	2.736630	0.927195	-0.000110
 549	5.4526e+01	18.1647	61.414927	0.000243	2.432560	0.824173	-0.000097
 550	5.4626e+01	18.1214	61.265553	0.000375	3.750196	1.270601	-0.000150
 551	5.4725e+01	18.0781	61.176736	0.000223	2.229846	0.755492	-0.000089
 552	5.4825e+01	18.0476	61.104068	0.000182	1.824420	0.618130	-0.000073
 553	5.4924e+01	17.9963	60.962768	0.000355	3.547483	1.201920	-0.000142
 554	5.5023e+01	17.9674	60.817431	0.000365	3.648839	1.236260	-0.000146
 555	5.5123e+01	17.9225	60.688243	0.000324	3.243413	1.098898	-0.000130
 556	5.5222e+01	17.8824	60.611537	0.000193	1.925776	0.652471	-0.000077
 557	5.5322e+01	17.8535	60.494460	0.000294	2.939343	0.995876	-0.000118
 558	5.5422e+01	17.8054	60.377384	0.000294	2.939343	0.995876	-0.000118
 559	5.5521e+01	17.7685	60.256269	0.000304	3.040699	1.030217	-0.000122
 560	5.5620e+01	17.7316	60.159378	0.000243	2.432560	0.824173	-0.000097
 561	5.5720e+01	17.6883	60.038264	0.000304	3.040699	1.030217	-0.000122
 562	5.5819e+01	17.6626	59.933299	0.000264	2.635273	0.892855	-0.000105
 563	5.5919e+01	17.6145	59.787962	0.000365	3.648839	1.236260	-0.000146
 564	5.6019e+01	17.5631	59.691070	0.000243	2.432560	0.824173	-0.000097
 565	5.6118e+01	17.5311	59.565919	0.000314	3.142056	1.064557	-0.000126
 566	5.6218e+01	17.4813	59.440768	0.000314	3.142056	1.064557	-0.000126
 567	5.6317e+01	17.4460	59.331765	0.000274	2.736630	0.927195	-0.000110
 568	5.6416e+01	17.4059	59.263134	0.000172	1.723063	0.583790	-0.000069
 569	5.6516e+01	17.3642	59.077426	0.000466	4.662406	1.579666	-0.000187
 570	5.6615e+01	17.3225	59.004757	0.000182	1.824420	0.618130	-0.000073
 571	5.6715e+01	17.2872	58.887680	0.000294	2.939343	0.995876	-0.000118
 572	5.6815e+01	17.2599	58.750418	0.000345	3.446126	1.167579	-0.000138
 573	5.6914e+01	17.2038	58.649489	0.000253	2.533916	0.858514	-0.000101
 574	5.7014e+01	17.1653	58.520301	0.000324	3.243413	1.098898	-0.000130
 575	5.7113e+01	17.1268	58.423410	0.000243	2.432560	0.824173	-0.000097
 576	5.7212e+01	17.0883	58.278073	0.000365	3.648839	1.236260	-0.000146
 577	5.7312e+01	17.0434	58.201367	0.000193	1.925776	0.652471	-0.000077
 578	5.7411e+01	17.0177	58.064105	0.000345	3.446126	1.167579	-0.000138
 579	5.7511e+01	16.9632	57.942991	0.000304	3.040699	1.030217	-0.000122
 580	5.7611e+01	16.9247	57.870322	0.000182	1.824420	0.618130	-0.000073
 581	5.7710e+01	16.8910	57.737097	0.000334	3.344769	1.133239	-0.000134
 582	5.7809e+01	16.8493	57.603871	0.000334	3.344769	1.133239	-0.000134
 583	5.7909e+01	16.8075	57.482757	0.000304	3.040699	1.030217	-0.000122
 584	5.8008e+01	16.7755	57.333383	0.000375	3.750196	1.270601	-0.000150
 585	5.8108e+01	16.7289	57.293012	0.000101	1.013566	0.343406	-0.000041
 586	5.8208e+01	16.6904	57.119415	0.000436	4.358336	1.476644	-0.000174
 587	5.8307e+01	16.6519	57.026561	0.000233	2.331203	0.789833	-0.000093
 588	5.8407e+01	16.6054	56.937744	0.000223	2.229846	0.755492	-0.000089
 589	5.8506e+01	16.5637	56.796444	0.000355	3.547483	1.201920	-0.000142
 590	5.8605e+01	16.5364	56.663219	0.000334	3.344769	1.133239	-0.000134
 591	5.8705e+01	16.4819	56.618810	0.000111	1.114923	0.377746	-0.000045
 592	5.8804e+01	16.4530	56.453288	0.000416	4.155623	1.407963	-0.000166
 593	5.8904e+01	16.4065	56.348322	0.000264	2.635273	0.892855	-0.000105
 594	5.9004e+01	16.3616	56.211059	0.000345	3.446126	1.167579	-0.000138
 595	5.9103e+01	16.3247	56.089945	0.000304	3.040699	1.030217	-0.000122
 596	5.9203e+01	16.2926	56.009203	0.000203	2.027133	0.686811	-0.000081
 597	5.9302e+01	16.2509	55.880014	0.000324	3.243413	1.098898	-0.000130
 598	5.9401e+01	16.2108	55.758900	0.000304	3.040699	1.030217	-0.000122
 599	5.9501e+01	16.1723	55.657972	0.000253	2.533916	0.858514	-0.000101
 600	5.9600e+01	16.1402	55.540895	0.000294	2.939343	0.995876	-0.000118
 601	5.9700e+01	16.0889	55.387484	0.000385	3.851553	1.304941	-0.000154
 602	5.9800e+01	16.0503	55.262333	0.000314	3.142056	1.064557	-0.000126
 603	5.9899e+01	16.0086	55.165441	0.000243	2.432560	0.824173	-0.000097
 604	5.9998e+01	15.9637	55.048364	0.000294	2.939343	0.995876	-0.000118
 605	6.0098e+01	15.9429	54.919176	0.000324	3.243413	1.098898	-0.000130
 606	6.0197e+01	15.8931	54.842470	0.000193	1.925776	0.652471	-0.000077
 607	6.0297e+01	15.8627	54.652725	0.000476	4.763762	1.614006	-0.000191
 608	6.0397e+01	15.8129	54.539685	0.000284	2.837986	0.961536	-0.000114
 609	6.0496e+01	15.7728	54.446831	0.000233	2.331203	0.789833	-0.000093
 610	6.0596e+01	15.7343	54.349940	0.000243	2.432560	0.824173	-0.000097
 611	6.0695e+01	15.6878	54.192492	0.000395	3.952909	1.339282	-0.000158
 612	6.0794e+01	15.6605	54.099637	0.000233	2.331203	0.789833	-0.000093
 613	6.0894e+01	15.6108	53.942189	0.000395	3.952909	1.339282	-0.000158
 614	6.0993e+01	15.5835	53.845298	0.000243	2.432560	0.824173	-0.000097
 615	6.1093e+01	15.5370	53.716110	0.000324	3.243413	1.098898	-0.000130
 616	6.1193e+01	15.5049	53.623255	0.000233	2.331203	0.789833	-0.000093
 617	6.1292e+01	15.4504	53.485993	0.000345	3.446126	1.167579	-0.000138
 618	6.1392e+01	15.4103	53.340656	0.000365	3.648839	1.236260	-0.000146
 619	6.1491e+01	15.3782	53.243765	0.000243	2.432560	0.824173	-0.000097
 620	6.1590e+01	15.3333	53.070168	0.000436	4.358336	1.476644	-0.000174
 621	6.1690e+01	15.2980	52.961165	0.000274	2.736630	0.927195	-0.000110
 622	6.1789e+01	15.2514	52.836014	0.000314	3.142056	1.064557	-0.000126
 623	6.1889e+01	15.2210	52.743160	0.000233	2.331203	0.789833	-0.000093
 624	6.1989e+01	15.1712	52.593786	0.000375	3.750196	1.270601	-0.000150
 625	6.2088e+01	15.1407	52.480746	0.000284	2.837986	0.961536	-0.000114
 626	6.2188e+01	15.0958	52.367706	0.000284	2.837986	0.961536	-0.000114
 627	6.2287e+01	15.0541	52.210258	0.000395	3.952909	1.339282	-0.000158
 628	6.2386e+01	15.0204	52.097218	0.000284	2.837986	0.961536	-0.000114
 629	6.2486e+01	14.9691	51.992253	0.000264	2.635273	0.892855	-0.000105
 630	6.2586e+01	14.9290	51.830767	0.000405	4.054266	1.373622	-0.000162
 631	6.2685e+01	14.8921	51.721765	0.000274	2.736630	0.927195	-0.000110
 632	6.2785e+01	14.8680	51.596613	0.000314	3.142056	1.064557	-0.000126
 633	6.2884e+01	14.8135	51.406868	0.000476	4.763762	1.614006	-0.000191
 634	6.2983e+01	14.7750	51.350348	0.000142	1.418993	0.480768	-0.000057
 635	6.3083e+01	14.7365	51.205011	0.000365	3.648839	1.236260	-0.000146
 636	6.3182e+01	14.7028	51.071786	0.000334	3.344769	1.133239	-0.000134
 637	6.3282e+01	14.6691	50.970857	0.000253	2.533916	0.858514	-0.000101
 638	6.3382e+01	14.6146	50.841669	0.000324	3.243413	1.098898	-0.000130
 639	6.3481e+01	14.5745	50.700369	0.000355	3.547483	1.201920	-0.000142
 640	6.3581e+01	14.5360	50.599441	0.000253	2.533916	0.858514	-0.000101
 641	6.3680e+01	14.4926	50.450067	0.000375	3.750196	1.270601	-0.000150
 642	6.3779e+01	14.4654	50.328953	0.000304	3.040699	1.030217	-0.000122
 643	6.3879e+01	14.4188	50.175542	0.000385	3.851553	1.304941	-0.000154
 644	6.3978e+01	14.3739	50.042316	0.000334	3.344769	1.133239	-0.000134
 645	6.4078e+01	14.3450	49.965610	0.000193	1.925776	0.652471	-0.000077
 646	6.4177e+01	14.3001	49.816236	0.000375	3.750196	1.270601	-0.000150
 647	6.4277e+01	14.2600	49.674937	0.000355	3.547483	1.201920	-0.000142
 648	6.4376e+01	14.2151	49.565934	0.000274	2.736630	0.927195	-0.000110
 649	6.4476e+01	14.1686	49.444820	0.000304	3.040699	1.030217	-0.000122
 650	6.4576e+01	14.1365	49.283335	0.000405	4.054266	1.373622	-0.000162
 651	6.4675e+01	14.0980	49.150109	0.000334	3.344769	1.133239	-0.000134
 652	6.4775e+01	14.0659	49.041106	0.000274	2.736630	0.927195	-0.000110
 653	6.4874e+01	14.0290	48.932104	0.000274	2.736630	0.927195	-0.000110
 654	6.4974e+01	13.9809	48.766581	0.000416	4.155623	1.407963	-0.000166
 655	6.5073e+01	13.9456	48.637393	0.000324	3.243413	1.098898	-0.000130
 656	6.5172e+01	13.9007	48.528390	0.000274	2.736630	0.927195	-0.000110
 657	6.5272e+01	13.8654	48.387090	0.000355	3.547483	1.201920	-0.000142
 658	6.5371e+01	13.8221	48.286162	0.000253	2.533916	0.858514	-0.000101
 659	6.5471e+01	13.7836	48.120639	0.000416	4.155623	1.407963	-0.000166
 660	6.5570e+01	13.7338	48.011637	0.000274	2.736630	0.927195	-0.000110
 661	6.5670e+01	13.6985	47.890523	0.000304	3.040699	1.030217	-0.000122
 662	6.5769e+01	13.6568	47.733074	0.000395	3.952909	1.339282	-0.000158
 663	6.5869e+01	13.6247	47.595812	0.000345	3.446126	1.167579	-0.000138
 664	6.5969e+01	13.5750	47.478735	0.000294	2.939343	0.995876	-0.000118
 665	6.6068e+01	13.5413	47.353584	0.000314	3.142056	1.064557	-0.000126
 666	6.6168e+01	13.5125	47.204210	0.000375	3.750196	1.270601	-0.000150
 667	6.6267e+01	13.4611	47.070984	0.000334	3.344769	1.133239	-0.000134
 668	6.6367e+01	13.4242	46.953907	0.000294	2.939343	0.995876	-0.000118
 669	6.6466e+01	13.3809	46.820682	0.000334	3.344769	1.133239	-0.000134
 670	6.6566e+01	13.3456	46.695531	0.000314	3.142056	1.064557	-0.000126
 671	6.6665e+01	13.3119	46.582491	0.000284	2.837986	0.961536	-0.000114
 672	6.6764e+01	13.2558	46.457340	0.000314	3.142056	1.064557	-0.000126
 673	6.6864e+01	13.2285	46.275668	0.000456	4.561049	1.545325	-0.000183
 674	6.6963e+01	13.1932	46.154554	0.000304	3.040699	1.030217	-0.000122
 675	6.7063e+01	13.1371	46.073812	0.000203	2.027133	0.686811	-0.000081
 676	6.7162e+01	13.1082	45.916363	0.000395	3.952909	1.339282	-0.000158
 677	6.7262e+01	13.0665	45.754878	0.000405	4.054266	1.373622	-0.000162
 678	6.7362e+01	13.0151	45.641838	0.000284	2.837986	0.961536	-0.000114
 679	6.7461e+01	12.9895	45.464204	0.000446	4.459693	1.510985	-0.000179
 680	6.7561e+01	12.9478	45.359239	0.000264	2.635273	0.892855	-0.000105
 681	6.7660e+01	12.8980	45.217939	0.000355	3.547483	1.201920	-0.000142
 682	6.7760e+01	12.8643	45.092788	0.000314	3.142056	1.064557	-0.000126
 683	6.7859e+01	12.8242	44.955525	0.000345	3.446126	1.167579	-0.000138
 684	6.7959e+01	12.7889	44.830374	0.000314	3.142056	1.064557	-0.000126
 685	6.8058e+01	12.7424	44.721371	0.000274	2.736630	0.927195	-0.000110
 686	6.8157e+01	12.7071	44.580071	0.000355	3.547483	1.201920	-0.000142
 687	6.8257e+01	12.6686	44.426660	0.000385	3.851553	1.304941	-0.000154
 688	6.8356e+01	12.6285	44.305546	0.000304	3.040699	1.030217	-0.000122
 689	6.8456e+01	12.5900	44.196543	0.000274	2.736630	0.927195	-0.000110
 690	6.8555e+01	12.5467	44.022947	0.000436	4.358336	1.476644	-0.000174
 691	6.8655e+01	12.5162	43.885684	0.000345	3.446126	1.167579	-0.000138
 692	6.8754e+01	12.4713	43.736310	0.000375	3.750196	1.270601	-0.000150
 693	6.8854e+01	12.4248	43.667679	0.000172	1.723063	0.583790	-0.000069
 694	6.8954e+01	12.3975	43.530416	0.000345	3.446126	1.167579	-0.000138
 695	6.9053e+01	12.3590	43.377005	0.000385	3.851553	1.304941	-0.000154
 696	6.9153e+01	12.3125	43.219557	0.000395	3.952909	1.339282	-0.000158
 697	6.9252e+01	12.2756	43.058071	0.000405	4.054266	1.373622	-0.000162
 698	6.9352e+01	12.2275	42.961180	0.000243	2.432560	0.824173	-0.000097
 699	6.9451e+01	12.1858	42.827954	0.000334	3.344769	1.133239	-0.000134
 700	6.9550e+01	12.1473	42.702803	0.000314	3.142056	1.064557	-0.000126
 701	6.9650e+01	12.1152	42.585726	0.000294	2.939343	0.995876	-0.000118
 702	6.9749e+01	12.0670	42.444427	0.000355	3.547483	1.201920	-0.000142
 703	6.9849e+01	12.0285	42.323313	0.000304	3.040699	1.030217	-0.000122
 704	6.9948e+01	11.9852	42.186050	0.000345	3.446126	1.167579	-0.000138
 705	7.0048e+01	11.9435	42.052824	0.000334	3.344769	1.133239	-0.000134
 706	7.0147e+01	11.9018	41.883265	0.000426	4.256979	1.442304	-0.000170
 707	7.0247e+01	11.8697	41.826745	0.000142	1.418993	0.480768	-0.000057
 708	7.0347e+01	11.8248	41.600665	0.000568	5.675972	1.923071	-0.000227
 709	7.0446e+01	11.7847	41.523960	0.000193	1.925776	0.652471	-0.000077
 710	7.0546e+01	11.7606	41.370548	0.000385	3.851553	1.304941	-0.000154
 711	7.0645e+01	11.7157	41.281731	0.000223	2.229846	0.755492	-0.000089
 712	7.0745e+01	11.6772	41.120246	0.000405	4.054266	1.373622	-0.000162
 713	7.0844e+01	11.6275	41.015281	0.000264	2.635273	0.892855	-0.000105
 714	7.0944e+01	11.5858	40.878018	0.000345	3.446126	1.167579	-0.000138
 715	7.1043e+01	11.5601	40.744792	0.000334	3.344769	1.133239	-0.000134
 716	7.1142e+01	11.5136	40.583307	0.000405	4.054266	1.373622	-0.000162
 717	7.1242e+01	11.4687	40.478341	0.000264	2.635273	0.892855	-0.000105
 718	7.1341e+01	11.4318	40.353190	0.000314	3.142056	1.064557	-0.000126
 719	7.1441e+01	11.3901	40.207853	0.000365	3.648839	1.236260	-0.000146
 720	7.1540e+01	11.3467	40.046368	0.000405	4.054266	1.373622	-0.000162
 721	7.1640e+01	11.3147	39.989848	0.000142	1.418993	0.480768	-0.000057
 722	7.1740e+01	11.2778	39.792028	0.000497	4.966476	1.682688	-0.000199
 723	7.1839e+01	11.2328	39.674951	0.000294	2.939343	0.995876	-0.000118
 724	7.1939e+01	11.1879	39.553837	0.000304	3.040699	1.030217	-0.000122
 725	7.2038e+01	11.1542	39.428686	0.000314	3.142056	1.064557	-0.000126
 726	7.2138e+01	11.1109	39.307572	0.000304	3.040699	1.030217	-0.000122
 727	7.2237e+01	11.0756	39.178384	0.000324	3.243413	1.098898	-0.000130
 728	7.2337e+01	11.0387	39.073418	0.000264	2.635273	0.892855	-0.000105
 729	7.2436e+01	10.9874	38.891747	0.000456	4.561049	1.545325	-0.000183
 730	7.2535e+01	10.9505	38.770633	0.000304	3.040699	1.030217	-0.000122
 731	7.2635e+01	10.9184	38.669705	0.000253	2.533916	0.858514	-0.000101
 732	7.2734e+01	10.8783	38.512256	0.000395	3.952909	1.339282	-0.000158
 733	7.2834e+01	10.8318	38.387105	0.000314	3.142056	1.064557	-0.000126
 734	7.2933e+01	10.7869	38.205434	0.000456	4.561049	1.545325	-0.000183
 735	7.3033e+01	10.7516	38.104506	0.000253	2.533916	0.858514	-0.000101
 736	7.3132e+01	10.7066	37.991466	0.000284	2.837986	0.961536	-0.000114
 737	7.3232e+01	10.6810	37.878426	0.000284	2.837986	0.961536	-0.000114
 738	7.3332e+01	10.6345	37.725015	0.000385	3.851553	1.304941	-0.000154
 739	7.3431e+01	10.5976	37.555455	0.000426	4.256979	1.442304	-0.000170
 740	7.3531e+01	10.5623	37.414155	0.000355	3.547483	1.201920	-0.000142
 741	7.3630e+01	10.5125	37.341487	0.000182	1.824420	0.618130	-0.000073
 742	7.3730e+01	10.4788	37.171927	0.000426	4.256979	1.442304	-0.000170
 743	7.3829e+01	10.4307	37.046776	0.000314	3.142056	1.064557	-0.000126
 744	7.3928e+01	10.3970	36.909513	0.000345	3.446126	1.167579	-0.000138
 745	7.4028e+01	10.3553	36.792437	0.000294	2.939343	0.995876	-0.000118
 746	7.4127e+01	10.3200	36.667285	0.000314	3.142056	1.064557	-0.000126
 747	7.4227e+01	10.2783	36.497726	0.000426	4.256979	1.442304	-0.000170
 748	7.4326e+01	10.2382	36.392760	0.000264	2.635273	0.892855	-0.000105
 749	7.4426e+01	10.1933	36.291832	0.000253	2.533916	0.858514	-0.000101
 750	7.4525e+01	10.1644	36.118235	0.000436	4.358336	1.476644	-0.000174
 751	7.4625e+01	10.1179	36.001158	0.000294	2.939343	0.995876	-0.000118
 752	7.4725e+01	10.0842	35.823524	0.000446	4.459693	1.510985	-0.000179
 753	7.4824e+01	10.0393	35.754893	0.000172	1.723063	0.583790	-0.000069
 754	7.4924e+01	9.9976	35.621667	0.000334	3.344769	1.133239	-0.000134
 755	7.5023e+01	9.9591	35.476330	0.000365	3.648839	1.236260	-0.000146
 756	7.5123e+01	9.9126	35.339068	0.000345	3.446126	1.167579	-0.000138
 757	7.5222e+01	9.8708	35.193731	0.000365	3.648839	1.236260	-0.000146
 758	7.5322e+01	9.8500	35.088765	0.000264	2.635273	0.892855	-0.000105
 759	7.5421e+01	9.8051	34.951503	0.000345	3.446126	1.167579	-0.000138
 760	7.5520e+01	9.7602	34.842500	0.000274	2.736630	0.927195	-0.000110
 761	7.5620e+01	9.7184	34.664866	0.000446	4.459693	1.510985	-0.000179
 762	7.5719e+01	9.6719	34.539715	0.000314	3.142056	1.064557	-0.000126
 763	7.5819e+01	9.6334	34.438786	0.000253	2.533916	0.858514	-0.000101
 764	7.5918e+01	9.6013	34.281338	0.000395	3.952909	1.339282	-0.000158
 765	7.6018e+01	9.5612	34.160224	0.000304	3.040699	1.030217	-0.000122
 766	7.6118e+01	9.5083	34.055259	0.000264	2.635273	0.892855	-0.000105
 767	7.6217e+01	9.4762	33.885699	0.000426	4.256979	1.442304	-0.000170
 768	7.6317e+01	9.4489	33.752473	0.000334	3.344769	1.133239	-0.000134
 769	7.6416e+01	9.4040	33.623285	0.000324	3.243413	1.098898	-0.000130
 770	7.6516e+01	9.3511	33.502171	0.000304	3.040699	1.030217	-0.000122
 771	7.6615e+01	9.3206	33.364908	0.000345	3.446126	1.167579	-0.000138
 772	7.6715e+01	9.2837	33.243794	0.000304	3.040699	1.030217	-0.000122
 773	7.6814e+01	9.2372	33.078272	0.000416	4.155623	1.407963	-0.000166
 774	7.6913e+01	9.2083	32.969269	0.000274	2.736630	0.927195	-0.000110
 775	7.7013e+01	9.1570	32.836044	0.000334	3.344769	1.133239	-0.000134
 776	7.7112e+01	9.1169	32.674558	0.000405	4.054266	1.373622	-0.000162
 777	7.7212e+01	9.0832	32.557481	0.000294	2.939343	0.995876	-0.000118
 778	7.7311e+01	9.0543	32.395996	0.000405	4.054266	1.373622	-0.000162
 779	7.7411e+01	9.0014	32.274882	0.000304	3.040699	1.030217	-0.000122
 780	7.7510e+01	8.9709	32.125508	0.000375	3.750196	1.270601	-0.000150
 781	7.7610e+01	8.9260	31.988245	0.000345	3.446126	1.167579	-0.000138
 782	7.7710e+01	8.8810	31.855020	0.000334	3.344769	1.133239	-0.000134
 783	7.7809e+01	8.8409	31.733905	0.000304	3.040699	1.030217	-0.000122
 784	7.7909e+01	8.8056	31.588569	0.000365	3.648839	1.236260	-0.000146
 785	7.8008e+01	8.7543	31.451306	0.000345	3.446126	1.167579	-0.000138
 786	7.8108e+01	8.7334	31.285783	0.000416	4.155623	1.407963	-0.000166
 787	7.8207e+01	8.6773	31.156595	0.000324	3.243413	1.098898	-0.000130
 788	7.8306e+01	8.6372	31.015295	0.000355	3.547483	1.201920	-0.000142
 789	7.8406e+01	8.5987	30.882070	0.000334	3.344769	1.133239	-0.000134
 790	7.8505e+01	8.5666	30.744807	0.000345	3.446126	1.167579	-0.000138
 791	7.8605e+01	8.5169	30.635805	0.000274	2.736630	0.927195	-0.000110
 792	7.8704e+01	8.4784	30.458171	0.000446	4.459693	1.510985	-0.000179
 793	7.8804e+01	8.4367	30.300722	0.000395	3.952909	1.339282	-0.000158
 794	7.8903e+01	8.4094	30.183645	0.000294	2.939343	0.995876	-0.000118
 795	7.9003e+01	8.3709	30.034271	0.000375	3.750196	1.270601	-0.000150
 796	7.9103e+01	8.3276	29.941417	0.000233	2.331203	0.789833	-0.000093
 797	7.9202e+01	8.2827	29.739560	0.000507	5.067832	1.717028	-0.000203
 798	7.9302e+01	8.2458	29.610372	0.000324	3.243413	1.098898	-0.000130
 799	7.9401e+01	8.2057	29.460998	0.000375	3.750196	1.270601	-0.000150
 800	7.9501e+01	8.1671	29.339884	0.000304	3.040699	1.030217	-0.000122
 801	7.9600e+01	8.1254	29.186473	0.000385	3.851553	1.304941	-0.000154
 802	7.9700e+01	8.0853	29.061322	0.000314	3.142056	1.064557	-0.000126
 803	7.9799e+01	8.0532	28.895799	0.000416	4.155623	1.407963	-0.000166
 804	7.9898e+01	8.0035	28.778722	0.000294	2.939343	0.995876	-0.000118
 805	7.9998e+01	7.9650	28.669719	0.000274	2.736630	0.927195	-0.000110
 806	8.0097e+01	7.9217	28.500160	0.000426	4.256979	1.442304	-0.000170
 807	8.0197e+01	7.8912	28.338674	0.000405	4.054266	1.373622	-0.000162
 808	8.0296e+01	7.8447	28.197375	0.000355	3.547483	1.201920	-0.000142
 809	8.0396e+01	7.8078	28.019741	0.000446	4.459693	1.510985	-0.000179
 810	8.0496e+01	7.7645	27.902664	0.000294	2.939343	0.995876	-0.000118
 811	8.0595e+01	7.7260	27.773475	0.000324	3.243413	1.098898	-0.000130
 812	8.0695e+01	7.6843	27.620064	0.000385	3.851553	1.304941	-0.000154
 813	8.0794e+01	7.6474	27.474727	0.000365	3.648839	1.236260	-0.000146
 814	8.0894e+01	7.6105	27.329390	0.000365	3.648839	1.236260	-0.000146
 815	8.0993e+01	7.5704	27.220388	0.000274	2.736630	0.927195	-0.000110
 816	8.1093e+01	7.5303	27.071014	0.000375	3.750196	1.270601	-0.000150
 817	8.1192e+01	7.4837	26.937788	0.000334	3.344769	1.133239	-0.000134
 818	8.1291e+01	7.4517	26.731894	0.000517	5.169189	1.751369	-0.000207
 819	8.1391e+01	7.3955	26.614817	0.000294	2.939343	0.995876	-0.000118
 820	8.1490e+01	7.3666	26.497740	0.000294	2.939343	0.995876	-0.000118
 821	8.1590e+01	7.3329	26.360478	0.000345	3.446126	1.167579	-0.000138
 822	8.1689e+01	7.2880	26.203030	0.000395	3.952909	1.339282	-0.000158
 823	8.1789e+01	7.2463	26.041544	0.000405	4.054266	1.373622	-0.000162
 824	8.1888e+01	7.2094	25.936579	0.000264	2.635273	0.892855	-0.000105
 825	8.1988e+01	7.1645	25.762982	0.000436	4.358336	1.476644	-0.000174
 826	8.2088e+01	7.1324	25.621682	0.000355	3.547483	1.201920	-0.000142
 827	8.2187e+01	7.0891	25.476345	0.000365	3.648839	1.236260	-0.000146
 828	8.2287e+01	7.0490	25.314860	0.000405	4.054266	1.373622	-0.000162
 829	8.2386e+01	7.0057	25.181634	0.000334	3.344769	1.133239	-0.000134
 830	8.2486e+01	6.9720	25.024186	0.000395	3.952909	1.339282	-0.000158
 831	8.2585e+01	6.9303	24.882886	0.000355	3.547483	1.201920	-0.000142
 832	8.2684e+01	6.8741	24.733512	0.000375	3.750196	1.270601	-0.000150
 833	8.2784e+01	6.8485	24.616435	0.000294	2.939343	0.995876	-0.000118
 834	8.2883e+01	6.8116	24.479173	0.000345	3.446126	1.167579	-0.000138
 835	8.2983e+01	6.7650	24.273279	0.000517	5.169189	1.751369	-0.000207
 836	8.3082e+01	6.7298	24.136016	0.000345	3.446126	1.167579	-0.000138
 837	8.3182e+01	6.6913	23.978568	0.000395	3.952909	1.339282	-0.000158
 838	8.3281e+01	6.6576	23.857454	0.000304	3.040699	1.030217	-0.000122
 839	8.3381e+01	6.6159	23.724228	0.000334	3.344769	1.133239	-0.000134
 840	8.3481e+01	6.5709	23.554668	0.000426	4.256979	1.442304	-0.000170
 841	8.3580e+01	6.5244	23.429517	0.000314	3.142056	1.064557	-0.000126
 842	8.3680e+01	6.4827	23.239772	0.000476	4.763762	1.614006	-0.000191
 843	8.3779e+01	6.4490	23.171141	0.000172	1.723063	0.583790	-0.000069
 844	8.3879e+01	6.4121	23.005618	0.000416	4.155623	1.407963	-0.000166
 845	8.3978e+01	6.3704	22.827984	0.000446	4.459693	1.510985	-0.000179
 846	8.4078e+01	6.3335	22.678610	0.000375	3.750196	1.270601	-0.000150
 847	8.4177e+01	6.2918	22.513087	0.000416	4.155623	1.407963	-0.000166
 848	8.4276e+01	6.2581	22.379862	0.000334	3.344769	1.133239	-0.000134
 849	8.4376e+01	6.2164	22.266822	0.000284	2.837986	0.961536	-0.000114
 850	8.4475e+01	6.1747	22.085151	0.000456	4.561049	1.545325	-0.000183
 851	8.4575e+01	6.1250	21.935777	0.000375	3.750196	1.270601	-0.000150
 852	8.4674e+01	6.0993	21.810626	0.000314	3.142056	1.064557	-0.000126
 853	8.4774e+01	6.0512	21.669326	0.000355	3.547483	1.201920	-0.000142
 854	8.4874e+01	6.0159	21.519952	0.000375	3.750196	1.270601	-0.000150
 855	8.4973e+01	5.9742	21.378652	0.000355	3.547483	1.201920	-0.000142
 856	8.5073e+01	5.9341	21.229278	0.000375	3.750196	1.270601	-0.000150
 857	8.5172e+01	5.9004	21.067793	0.000405	4.054266	1.373622	-0.000162
 858	8.5272e+01	5.8474	20.918419	0.000375	3.750196	1.270601	-0.000150
 859	8.5371e+01	5.8105	20.769045	0.000375	3.750196	1.270601	-0.000150
 860	8.5471e+01	5.7736	20.595448	0.000436	4.358336	1.476644	-0.000174
 861	8.5570e+01	5.7464	20.478371	0.000294	2.939343	0.995876	-0.000118
 862	8.5669e+01	5.6998	20.341108	0.000345	3.446126	1.167579	-0.000138
 863	8.5769e+01	5.6453	20.224031	0.000294	2.939343	0.995876	-0.000118
 864	8.5868e+01	5.6164	20.054472	0.000426	4.256979	1.442304	-0.000170
 865	8.5968e+01	5.5843	19.872801	0.000456	4.561049	1.545325	-0.000183
 866	8.6067e+01	5.5410	19.767835	0.000264	2.635273	0.892855	-0.000105
 867	8.6167e+01	5.5009	19.634610	0.000334	3.344769	1.133239	-0.000134
 868	8.6266e+01	5.4560	19.465050	0.000426	4.256979	1.442304	-0.000170
 869	8.6366e+01	5.4255	19.360084	0.000264	2.635273	0.892855	-0.000105
 870	8.6466e+01	5.3806	19.182450	0.000446	4.459693	1.510985	-0.000179
 871	8.6565e+01	5.3373	19.008854	0.000436	4.358336	1.476644	-0.000174
 872	8.6665e+01	5.3004	18.871591	0.000345	3.446126	1.167579	-0.000138
 873	8.6764e+01	5.2539	18.742403	0.000324	3.243413	1.098898	-0.000130
 874	8.6864e+01	5.2154	18.593029	0.000375	3.750196	1.270601	-0.000150
 875	8.6963e+01	5.1881	18.435580	0.000395	3.952909	1.339282	-0.000158
 876	8.7063e+01	5.1448	18.298318	0.000345	3.446126	1.167579	-0.000138
 877	8.7162e+01	5.0950	18.161055	0.000345	3.446126	1.167579	-0.000138
 878	8.7261e+01	5.0565	17.983421	0.000446	4.459693	1.510985	-0.000179
 879	8.7361e+01	5.0148	17.882493	0.000253	2.533916	0.858514	-0.000101
 880	8.7460e+01	4.9827	17.729082	0.000385	3.851553	1.304941	-0.000154
 881	8.7560e+01	4.9298	17.583745	0.000365	3.648839	1.236260	-0.000146
 882	8.7659e+01	4.9057	17.470705	0.000284	2.837986	0.961536	-0.000114
 883	8.7759e+01	4.8576	17.264811	0.000517	5.169189	1.751369	-0.000207
 884	8.7859e+01	4.8223	17.147734	0.000294	2.939343	0.995876	-0.000118
 885	8.7958e+01	4.7758	17.010471	0.000345	3.446126	1.167579	-0.000138
 886	8.8058e+01	4.7389	16.828800	0.000456	4.561049	1.545325	-0.000183
 887	8.8157e+01	4.7068	16.723835	0.000264	2.635273	0.892855	-0.000105
 888	8.8257e+01	4.6619	16.582535	0.000355	3.547483	1.201920	-0.000142
 889	8.8356e+01	4.6154	16.412975	0.000426	4.256979	1.442304	-0.000170
 890	8.8456e+01	4.5801	16.287824	0.000314	3.142056	1.064557	-0.000126
 891	8.8555e+01	4.5480	16.114227	0.000436	4.358336	1.476644	-0.000174
 892	8.8654e+01	4.5063	15.964853	0.000375	3.750196	1.270601	-0.000150
 893	8.8754e+01	4.4501	15.871999	0.000233	2.331203	0.789833	-0.000093
 894	8.8853e+01	4.4132	15.682254	0.000476	4.763762	1.614006	-0.000191
 895	8.8953e+01	4.3828	15.549028	0.000334	3.344769	1.133239	-0.000134
 896	8.9052e+01	4.3507	15.399654	0.000375	3.750196	1.270601	-0.000150
 897	8.9152e+01	4.2977	15.258355	0.000355	3.547483	1.201920	-0.000142
 898	8.9251e+01	4.2608	15.121092	0.000345	3.446126	1.167579	-0.000138
 899	8.9351e+01	4.2223	14.963644	0.000395	3.952909	1.339282	-0.000158
 900	8.9451e+01	4.1838	14.834455	0.000324	3.243413	1.098898	-0.000130
 901	8.9550e+01	4.1437	14.689118	0.000365	3.648839	1.236260	-0.000146
 902	8.9650e+01	4.1004	14.559930	0.000324	3.243413	1.098898	-0.000130
 903	8.9749e+01	4.0683	14.386333	0.000436	4.358336	1.476644	-0.000174
 904	8.9849e+01	4.0298	14.249071	0.000345	3.446126	1.167579	-0.000138
 905	8.9948e+01	3.9801	14.091622	0.000395	3.952909	1.339282	-0.000158
 906	9.0047e+01	3.9416	13.950323	0.000355	3.547483	1.201920	-0.000142
 907	9.0147e+01	3.9047	13.829208	0.000304	3.040699	1.030217	-0.000122
 908	9.0246e+01	3.8566	13.647537	0.000456	4.561049	1.545325	-0.000183
 909	9.0346e+01	3.8245	13.538535	0.000274	2.736630	0.927195	-0.000110
 910	9.0445e+01	3.7828	13.385124	0.000385	3.851553	1.304941	-0.000154
 911	9.0545e+01	3.7411	13.259972	0.000314	3.142056	1.064557	-0.000126
 912	9.0644e+01	3.7042	13.122710	0.000345	3.446126	1.167579	-0.000138
 913	9.0744e+01	3.6737	12.949113	0.000436	4.358336	1.476644	-0.000174
 914	9.0844e+01	3.6208	12.848184	0.000253	2.533916	0.858514	-0.000101
 915	9.0943e+01	3.5823	12.654402	0.000487	4.865119	1.648347	-0.000195
 916	9.1043e+01	3.5486	12.500991	0.000385	3.851553	1.304941	-0.000154
 917	9.1142e+01	3.5036	12.420248	0.000203	2.027133	0.686811	-0.000081
 918	9.1242e+01	3.4635	12.210317	0.000527	5.270546	1.785709	-0.000211
 919	9.1341e+01	3.4202	12.081129	0.000324	3.243413	1.098898	-0.000130
 920	9.1441e+01	3.3817	11.972126	0.000274	2.736630	0.927195	-0.000110
 921	9.1540e+01	3.3416	11.806603	0.000416	4.155623	1.407963	-0.000166
 922	9.1639e+01	3.3063	11.669341	0.000345	3.446126	1.167579	-0.000138
 923	9.1739e+01	3.2694	11.532078	0.000345	3.446126	1.167579	-0.000138
 924	9.1838e+01	3.2309	11.386741	0.000365	3.648839	1.236260	-0.000146
 925	9.1938e+01	3.1924	11.217182	0.000426	4.256979	1.442304	-0.000170
 926	9.2037e+01	3.1411	11.079919	0.000345	3.446126	1.167579	-0.000138
 927	9.2137e+01	3.1074	10.962842	0.000294	2.939343	0.995876	-0.000118
 928	9.2237e+01	3.0721	10.809431	0.000385	3.851553	1.304941	-0.000154
 929	9.2336e+01	3.0304	10.676205	0.000334	3.344769	1.133239	-0.000134
 930	9.2436e+01	2.9823	10.534906	0.000355	3.547483	1.201920	-0.000142
 931	9.2535e+01	2.9406	10.337086	0.000497	4.966476	1.682688	-0.000199
 932	9.2635e+01	2.9069	10.215972	0.000304	3.040699	1.030217	-0.000122
 933	9.2734e+01	2.8668	10.090821	0.000314	3.142056	1.064557	-0.000126
 934	9.2834e+01	2.8186	9.957595	0.000334	3.344769	1.133239	-0.000134
 935	9.2933e+01	2.7914	9.824370	0.000334	3.344769	1.133239	-0.000134
 936	9.3032e+01	2.7481	9.654810	0.000426	4.256979	1.442304	-0.000170
 937	9.3132e+01	2.7015	9.485250	0.000426	4.256979	1.442304	-0.000170
 938	9.3231e+01	2.6775	9.327802	0.000395	3.952909	1.339282	-0.000158
 939	9.3331e+01	2.6309	9.234948	0.000233	2.331203	0.789833	-0.000093
 940	9.3430e+01	2.5956	9.081537	0.000385	3.851553	1.304941	-0.000154
 941	9.3530e+01	2.5395	8.936200	0.000365	3.648839	1.236260	-0.000146
 942	9.3629e+01	2.5026	8.782789	0.000385	3.851553	1.304941	-0.000154
 943	9.3729e+01	2.4769	8.673786	0.000274	2.736630	0.927195	-0.000110
 944	9.3829e+01	2.4368	8.484041	0.000476	4.763762	1.614006	-0.000191
 945	9.3928e+01	2.3823	8.342741	0.000355	3.547483	1.201920	-0.000142
 946	9.4028e+01	2.3454	8.189330	0.000385	3.851553	1.304941	-0.000154
 947	9.4127e+01	2.3117	8.043993	0.000365	3.648839	1.236260	-0.000146
 948	9.4227e+01	2.2748	7.922879	0.000304	3.040699	1.030217	-0.000122
 949	9.4326e+01	2.2315	7.737171	0.000466	4.662406	1.579666	-0.000187
 950	9.4425e+01	2.1930	7.571648	0.000416	4.155623	1.407963	-0.000166
 951	9.4525e+01	2.1433	7.503017	0.000172	1.723063	0.583790	-0.000069
 952	9.4624e+01	2.1112	7.293086	0.000527	5.270546	1.785709	-0.000211
 953	9.4724e+01	2.0743	7.180046	0.000284	2.837986	0.961536	-0.000114
 954	9.4823e+01	2.0213	7.022598	0.000395	3.952909	1.339282	-0.000158
 955	9.4923e+01	1.9941	6.853038	0.000426	4.256979	1.442304	-0.000170
 956	9.5022e+01	1.9491	6.667330	0.000466	4.662406	1.579666	-0.000187
 957	9.5122e+01	1.9138	6.566401	0.000253	2.533916	0.858514	-0.000101
 958	9.5222e+01	1.8721	6.392804	0.000436	4.358336	1.476644	-0.000174
 959	9.5321e+01	1.8256	6.235356	0.000395	3.952909	1.339282	-0.000158
 960	9.5421e+01	1.7935	6.110205	0.000314	3.142056	1.064557	-0.000126
 961	9.5520e+01	1.7534	5.948720	0.000405	4.054266	1.373622	-0.000162
 962	9.5620e+01	1.7181	5.799345	0.000375	3.750196	1.270601	-0.000150
 963	9.5719e+01	1.6604	5.702454	0.000243	2.432560	0.824173	-0.000097
 964	9.5819e+01	1.6331	5.484449	0.000547	5.473259	1.854390	-0.000219
 965	9.5918e+01	1.5930	5.339112	0.000365	3.648839	1.236260	-0.000146
 966	9.6017e+01	1.5513	5.201849	0.000345	3.446126	1.167579	-0.000138
 967	9.6117e+01	1.5128	5.056513	0.000365	3.648839	1.236260	-0.000146
 968	9.6216e+01	1.4695	4.874841	0.000456	4.561049	1.545325	-0.000183
 969	9.6316e+01	1.4326	4.753727	0.000304	3.040699	1.030217	-0.000122
 970	9.6415e+01	1.3861	4.604353	0.000375	3.750196	1.270601	-0.000150
 971	9.6515e+01	1.3508	4.459016	0.000365	3.648839	1.236260	-0.000146
 972	9.6615e+01	1.3107	4.289457	0.000426	4.256979	1.442304	-0.000170
 973	9.6714e+01	1.2770	4.192565	0.000243	2.432560	0.824173	-0.000097
 974	9.6814e+01	1.2337	3.986672	0.000517	5.169189	1.751369	-0.000207
 975	9.6913e+01	1.2000	3.869595	0.000294	2.939343	0.995876	-0.000118
 976	9.7013e+01	1.1583	3.724258	0.000365	3.648839	1.236260	-0.000146
 977	9.7112e+01	1.1165	3.562772	0.000405	4.054266	1.373622	-0.000162
 978	9.7212e+01	1.0780	3.421473	0.000355	3.547483	1.201920	-0.000142
 979	9.7311e+01	1.0347	3.223653	0.000497	4.966476	1.682688	-0.000199
 980	9.7410e+01	1.0010	3.094465	0.000324	3.243413	1.098898	-0.000130
 981	9.7510e+01	0.9529	2.941053	0.000385	3.851553	1.304941	-0.000154
 982	9.7609e+01	0.9112	2.791679	0.000375	3.750196	1.270601	-0.000150
 983	9.7709e+01	0.8727	2.658454	0.000334	3.344769	1.133239	-0.000134
 984	9.7808e+01	0.8406	2.525228	0.000334	3.344769	1.133239	-0.000134
 985	9.7908e+01	0.7925	2.339520	0.000466	4.662406	1.579666	-0.000187
 986	9.8007e+01	0.7556	2.198220	0.000355	3.547483	1.201920	-0.000142
 987	9.8107e+01	0.7107	2.020586	0.000446	4.459693	1.510985	-0.000179
 988	9.8207e+01	0.6738	1.879287	0.000355	3.547483	1.201920	-0.000142
 989	9.8306e+01	0.6321	1.742024	0.000345	3.446126	1.167579	-0.000138
 990	9.8406e+01	0.5952	1.596687	0.000365	3.648839	1.236260	-0.000146
 991	9.8505e+01	0.5438	1.419053	0.000446	4.459693	1.510985	-0.000179
 992	9.8605e+01	0.5150	1.257568	0.000405	4.054266	1.373622	-0.000162
 993	9.8704e+01	0.4716	1.140491	0.000294	2.939343	0.995876	-0.000118
 994	9.8803e+01	0.4412	0.995154	0.000365	3.648839	1.236260	-0.000146
 995	9.8903e+01	0.3962	0.785223	0.000527	5.270546	1.785709	-0.000211
 996	9.9002e+01	0.3561	0.656035	0.000324	3.243413	1.098898	-0.000130
 997	9.9102e+01	0.3112	0.502623	0.000385	3.851553	1.304941	-0.000154
 998	9.9201e+01	0.2775	0.353249	0.000375	3.750196	1.270601	-0.000150
 999	9.9301e+01	0.2406	0.228098	0.000314	3.142056	1.064557	-0.000126
1000	9.9400e+01	0.1925	0.042390	0.000466	4.662406	1.579666	-0.000187
1001	9.9500e+01	0.1556	-0.082761	0.000314	3.142056	1.064557	-0.000126
1002	9.9600e+01	0.1123	-0.256358	0.000436	4.358336	1.476644	-0.000174
1003	9.9699e+01	0.0770	-0.401695	0.000365	3.648839	1.236260	-0.000146
1004	9.9799e+01	0.0369	-0.591440	0.000476	4.763762	1.614006	-0.000191
1005	9.9898e+01	0.0080	-0.664109	0.000182	1.824420	0.618130	-0.000073
1006	9.9998e+01	-0.0305	-0.821557	0.000395	3.952909	1.339282	-0.000158
1007	1.0010e+02	-0.0738	-0.954783	0.000334	3.344769	1.133239	-0.000134
1008	1.0020e+02	-0.1267	-1.140491	0.000466	4.662406	1.579666	-0.000187
1009	1.0030e+02	-0.1588	-1.297939	0.000395	3.952909	1.339282	-0.000158
1010	1.0040e+02	-0.1941	-1.475573	0.000446	4.459693	1.510985	-0.000179
1011	1.0050e+02	-0.2310	-1.620910	0.000365	3.648839	1.236260	-0.000146
1012	1.0059e+02	-0.2743	-1.794507	0.000436	4.358336	1.476644	-0.000174
1013	1.0069e+02	-0.3112	-1.915621	0.000304	3.040699	1.030217	-0.000122
1014	1.0079e+02	-0.3481	-2.060958	0.000365	3.648839	1.236260	-0.000146
1015	1.0089e+02	-0.3930	-2.218406	0.000395	3.952909	1.339282	-0.000158
1016	1.0099e+02	-0.4315	-2.371817	0.000385	3.851553	1.304941	-0.000154
1017	1.0109e+02	-0.4668	-2.505043	0.000334	3.344769	1.133239	-0.000134
1018	1.0119e+02	-0.5085	-2.658454	0.000385	3.851553	1.304941	-0.000154
1019	1.0129e+02	-0.5535	-2.848199	0.000476	4.763762	1.614006	-0.000191
1020	1.0139e+02	-0.5968	-2.969313	0.000304	3.040699	1.030217	-0.000122
1021	1.0149e+02	-0.6337	-3.159059	0.000476	4.763762	1.614006	-0.000191
1022	1.0159e+02	-0.6786	-3.264024	0.000264	2.635273	0.892855	-0.000105
1023	1.0169e+02	-0.7107	-3.461844	0.000497	4.966476	1.682688	-0.000199
1024	1.0179e+02	-0.7460	-3.574884	0.000284	2.837986	0.961536	-0.000114
1025	1.0189e+02	-0.7909	-3.748481	0.000436	4.358336	1.476644	-0.000174
1026	1.0199e+02	-0.8294	-3.869595	0.000304	3.040699	1.030217	-0.000122
1027	1.0209e+02	-0.8695	-4.035117	0.000416	4.155623	1.407963	-0.000166
1028	1.0219e+02	-0.9112	-4.188528	0.000385	3.851553	1.304941	-0.000154
1029	1.0229e+02	-0.9529	-4.350014	0.000405	4.054266	1.373622	-0.000162
1030	1.0239e+02	-0.9930	-4.467091	0.000294	2.939343	0.995876	-0.000118
1031	1.0248e+02	-1.0460	-4.681059	0.000537	5.371902	1.820050	-0.000215
1032	1.0258e+02	-1.0668	-4.757764	0.000193	1.925776	0.652471	-0.000077
1033	1.0268e+02	-1.1101	-4.939436	0.000456	4.561049	1.545325	-0.000183
1034	1.0278e+02	-1.1470	-5.108995	0.000426	4.256979	1.442304	-0.000170
1035	1.0288e+02	-1.1935	-5.213961	0.000264	2.635273	0.892855	-0.000105
1036	1.0298e+02	-1.2304	-5.351223	0.000345	3.446126	1.167579	-0.000138
1037	1.0308e+02	-1.2786	-5.577303	0.000568	5.675972	1.923071	-0.000227
1038	1.0318e+02	-1.3058	-5.694380	0.000294	2.939343	0.995876	-0.000118
1039	1.0328e+02	-1.3524	-5.835680	0.000355	3.547483	1.201920	-0.000142
1040	1.0338e+02	-1.3957	-5.964868	0.000324	3.243413	1.098898	-0.000130
1041	1.0348e+02	-1.4262	-6.134428	0.000426	4.256979	1.442304	-0.000170
1042	1.0358e+02	-1.4647	-6.295913	0.000405	4.054266	1.373622	-0.000162
1043	1.0368e+02	-1.5064	-6.437213	0.000355	3.547483	1.201920	-0.000142
1044	1.0378e+02	-1.5497	-6.550253	0.000284	2.837986	0.961536	-0.000114
1045	1.0388e+02	-1.5866	-6.723850	0.000436	4.358336	1.476644	-0.000174
1046	1.0398e+02	-1.6331	-6.861112	0.000345	3.446126	1.167579	-0.000138
1047	1.0408e+02	-1.6652	-6.998375	0.000345	3.446126	1.167579	-0.000138
1048	1.0418e+02	-1.7101	-7.115452	0.000294	2.939343	0.995876	-0.000118
1049	1.0428e+02	-1.7486	-7.301160	0.000466	4.662406	1.579666	-0.000187
1050	1.0438e+02	-1.7839	-7.406126	0.000264	2.635273	0.892855	-0.000105
1051	1.0447e+02	-1.8240	-7.575685	0.000426	4.256979	1.442304	-0.000170
1052	1.0457e+02	-1.8737	-7.729096	0.000385	3.851553	1.304941	-0.000154
1053	1.0467e+02	-1.9026	-7.858285	0.000324	3.243413	1.098898	-0.000130
1054	1.0477e+02	-1.9507	-8.039956	0.000456	4.561049	1.545325	-0.000183
1055	1.0487e+02	-1.9941	-8.177218	0.000345	3.446126	1.167579	-0.000138
1056	1.0497e+02	-2.0245	-8.342741	0.000416	4.155623	1.407963	-0.000166
1057	1.0507e+02	-2.0630	-8.500189	0.000395	3.952909	1.339282	-0.000158
1058	1.0517e+02	-2.1080	-8.613229	0.000284	2.837986	0.961536	-0.000114
1059	1.0527e+02	-2.1433	-8.766640	0.000385	3.851553	1.304941	-0.000154
1060	1.0537e+02	-2.1785	-8.911977	0.000365	3.648839	1.236260	-0.000146
1061	1.0547e+02	-2.2315	-9.041165	0.000324	3.243413	1.098898	-0.000130
1062	1.0557e+02	-2.2684	-9.194577	0.000385	3.851553	1.304941	-0.000154
1063	1.0567e+02	-2.3037	-9.364136	0.000426	4.256979	1.442304	-0.000170
1064	1.0577e+02	-2.3470	-9.497362	0.000334	3.344769	1.133239	-0.000134
1065	1.0587e+02	-2.3871	-9.630587	0.000334	3.344769	1.133239	-0.000134
1066	1.0597e+02	-2.4320	-9.804184	0.000436	4.358336	1.476644	-0.000174
1067	1.0607e+02	-2.4705	-9.905113	0.000253	2.533916	0.858514	-0.000101
1068	1.0617e+02	-2.5026	-10.066598	0.000405	4.054266	1.373622	-0.000162
1069	1.0627e+02	-2.5331	-10.220009	0.000385	3.851553	1.304941	-0.000154
1070	1.0637e+02	-2.5908	-10.361309	0.000355	3.547483	1.201920	-0.000142
1071	1.0647e+02	-2.6277	-10.486460	0.000314	3.142056	1.064557	-0.000126
1072	1.0656e+02	-2.6630	-10.656020	0.000426	4.256979	1.442304	-0.000170
1073	1.0666e+02	-2.6999	-10.777134	0.000304	3.040699	1.030217	-0.000122
1074	1.0676e+02	-2.7464	-10.918434	0.000355	3.547483	1.201920	-0.000142
1075	1.0686e+02	-2.7785	-11.083956	0.000416	4.155623	1.407963	-0.000166
1076	1.0696e+02	-2.8186	-11.229293	0.000365	3.648839	1.236260	-0.000146
1077	1.0706e+02	-2.8603	-11.342333	0.000284	2.837986	0.961536	-0.000114
1078	1.0716e+02	-2.9021	-11.491707	0.000375	3.750196	1.270601	-0.000150
1079	1.0726e+02	-2.9438	-11.661267	0.000426	4.256979	1.442304	-0.000170
1080	1.0736e+02	-2.9839	-11.754121	0.000233	2.331203	0.789833	-0.000093
1081	1.0746e+02	-3.0208	-11.919643	0.000416	4.155623	1.407963	-0.000166
1082	1.0756e+02	-3.0641	-12.064980	0.000365	3.648839	1.236260	-0.000146
1083	1.0766e+02	-3.1026	-12.206280	0.000355	3.547483	1.201920	-0.000142
1084	1.0776e+02	-3.1363	-12.363728	0.000395	3.952909	1.339282	-0.000158
1085	1.0786e+02	-3.1860	-12.480805	0.000294	2.939343	0.995876	-0.000118
1086	1.0796e+02	-3.2261	-12.662476	0.000456	4.561049	1.545325	-0.000183
1087	1.0806e+02	-3.2678	-12.787627	0.000314	3.142056	1.064557	-0.000126
1088	1.0816e+02	-3.3047	-12.945076	0.000395	3.952909	1.339282	-0.000158
1089	1.0826e+02	-3.3432	-13.062153	0.000294	2.939343	0.995876	-0.000118
1090	1.0836e+02	-3.3785	-13.203452	0.000355	3.547483	1.201920	-0.000142
1091	1.0845e+02	-3.4218	-13.352826	0.000375	3.750196	1.270601	-0.000150
1092	1.0855e+02	-3.4667	-13.461829	0.000274	2.736630	0.927195	-0.000110
1093	1.0865e+02	-3.5020	-13.619277	0.000395	3.952909	1.339282	-0.000158
1094	1.0875e+02	-3.5405	-13.748466	0.000324	3.243413	1.098898	-0.000130
1095	1.0885e+02	-3.5967	-13.881691	0.000334	3.344769	1.133239	-0.000134
1096	1.0895e+02	-3.6224	-14.071437	0.000476	4.763762	1.614006	-0.000191
1097	1.0905e+02	-3.6560	-14.192551	0.000304	3.040699	1.030217	-0.000122
1098	1.0915e+02	-3.7026	-14.313665	0.000304	3.040699	1.030217	-0.000122
1099	1.0925e+02	-3.7491	-14.467076	0.000385	3.851553	1.304941	-0.000154
1100	1.0935e+02	-3.7828	-14.584153	0.000294	2.939343	0.995876	-0.000118
1101	1.0945e+02	-3.8229	-14.717378	0.000334	3.344769	1.133239	-0.000134
1102	1.0955e+02	-3.8614	-14.874827	0.000395	3.952909	1.339282	-0.000158
1103	1.0965e+02	-3.8967	-15.048423	0.000436	4.358336	1.476644	-0.000174
1104	1.0975e+02	-3.9416	-15.169538	0.000304	3.040699	1.030217	-0.000122
1105	1.0985e+02	-3.9737	-15.290652	0.000304	3.040699	1.030217	-0.000122
1106	1.0995e+02	-4.0250	-15.460211	0.000426	4.256979	1.442304	-0.000170
1107	1.1005e+02	-4.0619	-15.581325	0.000304	3.040699	1.030217	-0.000122
1108	1.1015e+02	-4.0940	-15.738774	0.000395	3.952909	1.339282	-0.000158
1109	1.1025e+02	-4.1437	-15.871999	0.000334	3.344769	1.133239	-0.000134
1110	1.1035e+02	-4.1790	-16.001187	0.000324	3.243413	1.098898	-0.000130
1111	1.1044e+02	-4.2288	-16.146524	0.000365	3.648839	1.236260	-0.000146
1112	1.1054e+02	-4.2608	-16.303973	0.000395	3.952909	1.339282	-0.000158
1113	1.1064e+02	-4.3026	-16.429124	0.000314	3.142056	1.064557	-0.000126
1114	1.1074e+02	-4.3362	-16.574461	0.000365	3.648839	1.236260	-0.000146
1115	1.1084e+02	-4.3683	-16.735946	0.000405	4.054266	1.373622	-0.000162
1116	1.1094e+02	-4.4181	-16.840912	0.000264	2.635273	0.892855	-0.000105
1117	1.1104e+02	-4.4517	-17.010471	0.000426	4.256979	1.442304	-0.000170
1118	1.1114e+02	-4.4983	-17.123511	0.000284	2.837986	0.961536	-0.000114
1119	1.1124e+02	-4.5416	-17.264811	0.000355	3.547483	1.201920	-0.000142
1120	1.1134e+02	-4.5737	-17.426296	0.000405	4.054266	1.373622	-0.000162
1121	1.1144e+02	-4.6186	-17.547410	0.000304	3.040699	1.030217	-0.000122
1122	1.1154e+02	-4.6571	-17.729082	0.000456	4.561049	1.545325	-0.000183
1123	1.1164e+02	-4.7036	-17.890567	0.000405	4.054266	1.373622	-0.000162
1124	1.1174e+02	-4.7501	-17.991495	0.000253	2.533916	0.858514	-0.000101
1125	1.1184e+02	-4.7822	-18.112609	0.000304	3.040699	1.030217	-0.000122
1126	1.1194e+02	-4.8175	-18.302355	0.000476	4.763762	1.614006	-0.000191
1127	1.1204e+02	-4.8464	-18.415395	0.000284	2.837986	0.961536	-0.000114
1128	1.1214e+02	-4.8961	-18.584954	0.000426	4.256979	1.442304	-0.000170
1129	1.1224e+02	-4.9426	-18.693957	0.000274	2.736630	0.927195	-0.000110
1130	1.1234e+02	-4.9779	-18.847368	0.000385	3.851553	1.304941	-0.000154
1131	1.1244e+02	-5.0116	-18.984631	0.000345	3.446126	1.167579	-0.000138
1132	1.1253e+02	-5.0581	-19.121893	0.000345	3.446126	1.167579	-0.000138
1133	1.1263e+02	-5.0999	-19.283379	0.000405	4.054266	1.373622	-0.000162
1134	1.1273e+02	-5.1335	-19.440827	0.000395	3.952909	1.339282	-0.000158
1135	1.1283e+02	-5.1785	-19.549830	0.000274	2.736630	0.927195	-0.000110
1136	1.1293e+02	-5.2089	-19.739575	0.000476	4.763762	1.614006	-0.000191
1137	1.1303e+02	-5.2555	-19.868764	0.000324	3.243413	1.098898	-0.000130
1138	1.1313e+02	-5.2859	-19.989878	0.000304	3.040699	1.030217	-0.000122
1139	1.1323e+02	-5.3389	-20.135214	0.000365	3.648839	1.236260	-0.000146
1140	1.1333e+02	-5.3678	-20.276514	0.000355	3.547483	1.201920	-0.000142
1141	1.1343e+02	-5.4127	-20.417814	0.000355	3.547483	1.201920	-0.000142
1142	1.1353e+02	-5.4496	-20.551039	0.000334	3.344769	1.133239	-0.000134
1143	1.1363e+02	-5.4961	-20.692339	0.000355	3.547483	1.201920	-0.000142
1144	1.1373e+02	-5.5266	-20.853825	0.000405	4.054266	1.373622	-0.000162
1145	1.1383e+02	-5.5795	-20.991087	0.000345	3.446126	1.167579	-0.000138
1146	1.1393e+02	-5.6180	-21.132387	0.000355	3.547483	1.201920	-0.000142
1147	1.1403e+02	-5.6549	-21.237353	0.000264	2.635273	0.892855	-0.000105
1148	1.1413e+02	-5.6838	-21.410949	0.000436	4.358336	1.476644	-0.000174
1149	1.1423e+02	-5.7367	-21.532063	0.000304	3.040699	1.030217	-0.000122
1150	1.1433e+02	-5.7720	-21.693549	0.000405	4.054266	1.373622	-0.000162
1151	1.1442e+02	-5.8041	-21.798514	0.000264	2.635273	0.892855	-0.000105
1152	1.1452e+02	-5.8538	-21.996334	0.000497	4.966476	1.682688	-0.000199
1153	1.1462e+02	-5.8891	-22.097262	0.000253	2.533916	0.858514	-0.000101
1154	1.1472e+02	-5.9308	-22.238562	0.000355	3.547483	1.201920	-0.000142
1155	1.1482e+02	-5.9694	-22.396011	0.000395	3.952909	1.339282	-0.000158
1156	1.1492e+02	-5.9998	-22.541347	0.000365	3.648839	1.236260	-0.000146
1157	1.1502e+02	-6.0512	-22.682647	0.000355	3.547483	1.201920	-0.000142
1158	1.1512e+02	-6.0993	-22.823947	0.000355	3.547483	1.201920	-0.000142
1159	1.1522e+02	-6.1298	-22.969284	0.000365	3.648839	1.236260	-0.000146
1160	1.1532e+02	-6.1699	-23.086361	0.000294	2.939343	0.995876	-0.000118
1161	1.1542e+02	-6.2084	-23.251883	0.000416	4.155623	1.407963	-0.000166
1162	1.1552e+02	-6.2533	-23.368960	0.000294	2.939343	0.995876	-0.000118
1163	1.1562e+02	-6.2854	-23.530446	0.000405	4.054266	1.373622	-0.000162
1164	1.1572e+02	-6.3303	-23.639448	0.000274	2.736630	0.927195	-0.000110
1165	1.1582e+02	-6.3672	-23.784785	0.000365	3.648839	1.236260	-0.000146
1166	1.1592e+02	-6.4057	-23.942233	0.000395	3.952909	1.339282	-0.000158
1167	1.1602e+02	-6.4458	-24.055273	0.000284	2.837986	0.961536	-0.000114
1168	1.1612e+02	-6.4843	-24.224833	0.000426	4.256979	1.442304	-0.000170
1169	1.1622e+02	-6.5292	-24.349984	0.000314	3.142056	1.064557	-0.000126
1170	1.1632e+02	-6.5581	-24.483210	0.000334	3.344769	1.133239	-0.000134
1171	1.1642e+02	-6.6062	-24.636621	0.000385	3.851553	1.304941	-0.000154
1172	1.1651e+02	-6.6511	-24.785995	0.000375	3.750196	1.270601	-0.000150
1173	1.1661e+02	-6.6848	-24.923257	0.000345	3.446126	1.167579	-0.000138
1174	1.1671e+02	-6.7153	-25.040334	0.000294	2.939343	0.995876	-0.000118
1175	1.1681e+02	-6.7586	-25.213931	0.000436	4.358336	1.476644	-0.000174
1176	1.1691e+02	-6.8100	-25.339082	0.000314	3.142056	1.064557	-0.000126
1177	1.1701e+02	-6.8437	-25.460197	0.000304	3.040699	1.030217	-0.000122
1178	1.1711e+02	-6.8790	-25.625719	0.000416	4.155623	1.407963	-0.000166
1179	1.1721e+02	-6.9191	-25.734722	0.000274	2.736630	0.927195	-0.000110
1180	1.1731e+02	-6.9560	-25.924467	0.000476	4.763762	1.614006	-0.000191
1181	1.1741e+02	-7.0025	-26.021358	0.000243	2.432560	0.824173	-0.000097
1182	1.1751e+02	-7.0506	-26.166695	0.000365	3.648839	1.236260	-0.000146
1183	1.1761e+02	-7.0923	-26.344329	0.000446	4.459693	1.510985	-0.000179
1184	1.1771e+02	-7.1308	-26.453332	0.000274	2.736630	0.927195	-0.000110
1185	1.1781e+02	-7.1533	-26.635003	0.000456	4.561049	1.545325	-0.000183
1186	1.1791e+02	-7.2030	-26.752080	0.000294	2.939343	0.995876	-0.000118
1187	1.1801e+02	-7.2447	-26.873194	0.000304	3.040699	1.030217	-0.000122
1188	1.1811e+02	-7.2832	-27.030642	0.000395	3.952909	1.339282	-0.000158
1189	1.1821e+02	-7.3249	-27.163868	0.000334	3.344769	1.133239	-0.000134
1190	1.1831e+02	-7.3682	-27.301130	0.000345	3.446126	1.167579	-0.000138
1191	1.1841e+02	-7.4035	-27.442430	0.000355	3.547483	1.201920	-0.000142
1192	1.1850e+02	-7.4324	-27.583730	0.000355	3.547483	1.201920	-0.000142
1193	1.1860e+02	-7.4902	-27.680621	0.000243	2.432560	0.824173	-0.000097
1194	1.1870e+02	-7.5255	-27.838069	0.000395	3.952909	1.339282	-0.000158
1195	1.1880e+02	-7.5575	-28.003592	0.000416	4.155623	1.407963	-0.000166
1196	1.1890e+02	-7.6009	-28.096446	0.000233	2.331203	0.789833	-0.000093
1197	1.1900e+02	-7.6474	-28.233709	0.000345	3.446126	1.167579	-0.000138
1198	1.1910e+02	-7.6811	-28.366934	0.000334	3.344769	1.133239	-0.000134
1199	1.1920e+02	-7.7244	-28.528420	0.000405	4.054266	1.373622	-0.000162
1200	1.1930e+02	-7.7565	-28.649534	0.000304	3.040699	1.030217	-0.000122
1201	1.1940e+02	-7.8014	-28.794871	0.000365	3.648839	1.236260	-0.000146
1202	1.1950e+02	-7.8447	-28.948282	0.000385	3.851553	1.304941	-0.000154
1203	1.1960e+02	-7.8784	-29.041136	0.000233	2.331203	0.789833	-0.000093
1204	1.1970e+02	-7.9249	-29.182436	0.000355	3.547483	1.201920	-0.000142
1205	1.1980e+02	-7.9618	-29.303550	0.000304	3.040699	1.030217	-0.000122
1206	1.1990e+02	-7.9987	-29.440812	0.000345	3.446126	1.167579	-0.000138
1207	1.2000e+02	-8.0500	-29.541741	0.000253	2.533916	0.858514	-0.000101
1208	1.2010e+02	-8.0837	-29.707263	0.000416	4.155623	1.407963	-0.000166
1209	1.2020e+02	-8.1174	-29.848563	0.000355	3.547483	1.201920	-0.000142
1210	1.2030e+02	-8.1639	-29.965640	0.000294	2.939343	0.995876	-0.000118
1211	1.2039e+02	-8.2024	-30.131163	0.000416	4.155623	1.407963	-0.000166
1212	1.2049e+02	-8.2425	-30.252277	0.000304	3.040699	1.030217	-0.000122
1213	1.2059e+02	-8.2714	-30.373391	0.000304	3.040699	1.030217	-0.000122
1214	1.2069e+02	-8.3228	-30.486431	0.000284	2.837986	0.961536	-0.000114
1215	1.2079e+02	-8.3645	-30.619656	0.000334	3.344769	1.133239	-0.000134
1216	1.2089e+02	-8.3982	-30.760956	0.000355	3.547483	1.201920	-0.000142
1217	1.2099e+02	-8.4367	-30.910330	0.000375	3.750196	1.270601	-0.000150
1218	1.2109e+02	-8.4768	-31.031444	0.000304	3.040699	1.030217	-0.000122
1219	1.2119e+02	-8.5249	-31.144484	0.000284	2.837986	0.961536	-0.000114
1220	1.2129e+02	-8.5650	-31.257523	0.000284	2.837986	0.961536	-0.000114
1221	1.2139e+02	-8.5955	-31.423046	0.000416	4.155623	1.407963	-0.000166
1222	1.2149e+02	-8.6404	-31.507826	0.000213	2.128490	0.721152	-0.000085
1223	1.2159e+02	-8.6773	-31.689497	0.000456	4.561049	1.545325	-0.000183
1224	1.2169e+02	-8.7190	-31.798500	0.000274	2.736630	0.927195	-0.000110
1225	1.2179e+02	-8.7607	-31.915577	0.000294	2.939343	0.995876	-0.000118
1226	1.2189e+02	-8.7976	-32.081099	0.000416	4.155623	1.407963	-0.000166
1227	1.2199e+02	-8.8361	-32.202213	0.000304	3.040699	1.030217	-0.000122
1228	1.2209e+02	-8.8826	-32.331402	0.000324	3.243413	1.098898	-0.000130
1229	1.2219e+02	-8.9179	-32.440404	0.000274	2.736630	0.927195	-0.000110
1230	1.2229e+02	-8.9612	-32.549407	0.000274	2.736630	0.927195	-0.000110
1231	1.2239e+02	-8.9981	-32.678595	0.000324	3.243413	1.098898	-0.000130
1232	1.2248e+02	-9.0334	-32.852192	0.000436	4.358336	1.476644	-0.000174
1233	1.2258e+02	-9.0784	-33.001566	0.000375	3.750196	1.270601	-0.000150
1234	1.2268e+02	-9.1153	-33.078272	0.000193	1.925776	0.652471	-0.000077
1235	1.2278e+02	-9.1554	-33.187274	0.000274	2.736630	0.927195	-0.000110
1236	1.2288e+02	-9.1987	-33.344723	0.000395	3.952909	1.339282	-0.000158
1237	1.2298e+02	-9.2356	-33.433540	0.000223	2.229846	0.755492	-0.000089
1238	1.2308e+02	-9.2693	-33.578877	0.000365	3.648839	1.236260	-0.000146
1239	1.2318e+02	-9.3110	-33.728251	0.000375	3.750196	1.270601	-0.000150
1240	1.2328e+02	-9.3543	-33.885699	0.000395	3.952909	1.339282	-0.000158
1241	1.2338e+02	-9.3944	-33.950293	0.000162	1.621706	0.549449	-0.000065
1242	1.2348e+02	-9.4409	-34.115816	0.000416	4.155623	1.407963	-0.000166
1243	1.2358e+02	-9.4810	-34.261152	0.000365	3.648839	1.236260	-0.000146
1244	1.2368e+02	-9.5115	-34.345932	0.000213	2.128490	0.721152	-0.000085
1245	1.2378e+02	-9.5516	-34.467046	0.000304	3.040699	1.030217	-0.000122
1246	1.2388e+02	-9.5949	-34.612383	0.000365	3.648839	1.236260	-0.000146
1247	1.2398e+02	-9.6350	-34.725423	0.000284	2.837986	0.961536	-0.000114
1248	1.2408e+02	-9.6783	-34.794054	0.000172	1.723063	0.583790	-0.000069
1249	1.2418e+02	-9.7249	-34.975725	0.000456	4.561049	1.545325	-0.000183
1250	1.2428e+02	-9.7585	-35.068580	0.000233	2.331203	0.789833	-0.000093
1251	1.2438e+02	-9.7970	-35.213916	0.000365	3.648839	1.236260	-0.000146
1252	1.2447e+02	-9.8307	-35.379439	0.000416	4.155623	1.407963	-0.000166
1253	1.2457e+02	-9.8837	-35.460182	0.000203	2.027133	0.686811	-0.000081
1254	1.2467e+02	-9.9222	-35.601482	0.000355	3.547483	1.201920	-0.000142
1255	1.2477e+02	-9.9575	-35.698373	0.000243	2.432560	0.824173	-0.000097
1256	1.2487e+02	-9.9831	-35.843710	0.000365	3.648839	1.236260	-0.000146
1257	1.2497e+02	-10.0329	-35.936564	0.000233	2.331203	0.789833	-0.000093
1258	1.2507e+02	-10.0730	-36.098049	0.000405	4.054266	1.373622	-0.000162
1259	1.2517e+02	-10.1115	-36.198978	0.000253	2.533916	0.858514	-0.000101
1260	1.2527e+02	-10.1468	-36.320092	0.000304	3.040699	1.030217	-0.000122
1261	1.2537e+02	-10.1885	-36.441206	0.000304	3.040699	1.030217	-0.000122
1262	1.2547e+02	-10.2318	-36.586543	0.000365	3.648839	1.236260	-0.000146
1263	1.2557e+02	-10.2735	-36.699582	0.000284	2.837986	0.961536	-0.000114
1264	1.2567e+02	-10.3152	-36.784362	0.000213	2.128490	0.721152	-0.000085
1265	1.2577e+02	-10.3553	-36.921625	0.000345	3.446126	1.167579	-0.000138
1266	1.2587e+02	-10.3970	-37.054850	0.000334	3.344769	1.133239	-0.000134
1267	1.2597e+02	-10.4323	-37.175964	0.000304	3.040699	1.030217	-0.000122
1268	1.2607e+02	-10.4660	-37.309190	0.000334	3.344769	1.133239	-0.000134
1269	1.2617e+02	-10.5077	-37.410118	0.000253	2.533916	0.858514	-0.000101
1270	1.2627e+02	-10.5542	-37.555455	0.000365	3.648839	1.236260	-0.000146
1271	1.2636e+02	-10.5895	-37.672532	0.000294	2.939343	0.995876	-0.000118
1272	1.2646e+02	-10.6313	-37.809795	0.000345	3.446126	1.167579	-0.000138
1273	1.2656e+02	-10.6746	-37.934946	0.000314	3.142056	1.064557	-0.000126
1274	1.2666e+02	-10.7066	-38.043949	0.000274	2.736630	0.927195	-0.000110
1275	1.2676e+02	-10.7564	-38.144877	0.000253	2.533916	0.858514	-0.000101
1276	1.2686e+02	-10.7917	-38.274065	0.000324	3.243413	1.098898	-0.000130
1277	1.2696e+02	-10.8366	-38.395179	0.000304	3.040699	1.030217	-0.000122
1278	1.2706e+02	-10.8591	-38.496108	0.000253	2.533916	0.858514	-0.000101
1279	1.2716e+02	-10.9008	-38.653556	0.000395	3.952909	1.339282	-0.000158
1280	1.2726e+02	-10.9473	-38.766596	0.000284	2.837986	0.961536	-0.000114
1281	1.2736e+02	-10.9858	-38.899821	0.000334	3.344769	1.133239	-0.000134
1282	1.2746e+02	-11.0291	-38.992676	0.000233	2.331203	0.789833	-0.000093
1283	1.2756e+02	-11.0692	-39.117827	0.000314	3.142056	1.064557	-0.000126
1284	1.2766e+02	-11.1093	-39.259126	0.000355	3.547483	1.201920	-0.000142
1285	1.2776e+02	-11.1510	-39.428686	0.000426	4.256979	1.442304	-0.000170
1286	1.2786e+02	-11.1927	-39.513466	0.000213	2.128490	0.721152	-0.000085
1287	1.2796e+02	-11.2232	-39.646692	0.000334	3.344769	1.133239	-0.000134
1288	1.2806e+02	-11.2826	-39.731471	0.000213	2.128490	0.721152	-0.000085
1289	1.2816e+02	-11.3002	-39.892957	0.000405	4.054266	1.373622	-0.000162
1290	1.2826e+02	-11.3499	-40.001959	0.000274	2.736630	0.927195	-0.000110
1291	1.2835e+02	-11.3836	-40.119036	0.000294	2.939343	0.995876	-0.000118
1292	1.2845e+02	-11.4253	-40.240150	0.000304	3.040699	1.030217	-0.000122
1293	1.2855e+02	-11.4622	-40.401636	0.000405	4.054266	1.373622	-0.000162
1294	1.2865e+02	-11.5152	-40.506601	0.000264	2.635273	0.892855	-0.000105
1295	1.2875e+02	-11.5457	-40.651938	0.000365	3.648839	1.236260	-0.000146
1296	1.2885e+02	-11.5874	-40.773052	0.000304	3.040699	1.030217	-0.000122
1297	1.2895e+02	-11.6211	-40.873981	0.000253	2.533916	0.858514	-0.000101
1298	1.2905e+02	-11.6644	-40.982983	0.000274	2.736630	0.927195	-0.000110
1299	1.2915e+02	-11.6981	-41.059689	0.000193	1.925776	0.652471	-0.000077
1300	1.2925e+02	-11.7462	-41.188877	0.000324	3.243413	1.098898	-0.000130
1301	1.2935e+02	-11.7831	-41.366511	0.000446	4.459693	1.510985	-0.000179
1302	1.2945e+02	-11.8232	-41.503774	0.000345	3.446126	1.167579	-0.000138
1303	1.2955e+02	-11.8601	-41.636999	0.000334	3.344769	1.133239	-0.000134
1304	1.2965e+02	-11.9066	-41.733891	0.000243	2.432560	0.824173	-0.000097
1305	1.2975e+02	-11.9403	-41.867116	0.000334	3.344769	1.133239	-0.000134
1306	1.2985e+02	-11.9932	-41.988230	0.000304	3.040699	1.030217	-0.000122
1307	1.2995e+02	-12.0253	-42.125493	0.000345	3.446126	1.167579	-0.000138
1308	1.3005e+02	-12.0638	-42.222384	0.000243	2.432560	0.824173	-0.000097
1309	1.3015e+02	-12.1039	-42.335424	0.000284	2.837986	0.961536	-0.000114
1310	1.3025e+02	-12.1440	-42.480761	0.000365	3.648839	1.236260	-0.000146
1311	1.3034e+02	-12.1825	-42.581689	0.000253	2.533916	0.858514	-0.000101
1312	1.3044e+02	-12.2339	-42.702803	0.000304	3.040699	1.030217	-0.000122
1313	1.3054e+02	-12.2579	-42.787583	0.000213	2.128490	0.721152	-0.000085
1314	1.3064e+02	-12.3029	-42.985403	0.000497	4.966476	1.682688	-0.000199
1315	1.3074e+02	-12.3478	-43.102480	0.000294	2.939343	0.995876	-0.000118
1316	1.3084e+02	-12.3831	-43.195334	0.000233	2.331203	0.789833	-0.000093
1317	1.3094e+02	-12.4232	-43.328559	0.000334	3.344769	1.133239	-0.000134
1318	1.3104e+02	-12.4633	-43.486008	0.000395	3.952909	1.339282	-0.000158
1319	1.3114e+02	-12.5018	-43.566750	0.000203	2.027133	0.686811	-0.000081
1320	1.3124e+02	-12.5483	-43.704013	0.000345	3.446126	1.167579	-0.000138
1321	1.3134e+02	-12.5868	-43.829164	0.000314	3.142056	1.064557	-0.000126
1322	1.3144e+02	-12.6253	-43.934130	0.000264	2.635273	0.892855	-0.000105
1323	1.3154e+02	-12.6606	-44.059281	0.000314	3.142056	1.064557	-0.000126
1324	1.3164e+02	-12.7087	-44.176358	0.000294	2.939343	0.995876	-0.000118
1325	1.3174e+02	-12.7408	-44.345918	0.000426	4.256979	1.442304	-0.000170
1326	1.3184e+02	-12.7889	-44.430697	0.000213	2.128490	0.721152	-0.000085
1327	1.3194e+02	-12.8162	-44.539700	0.000274	2.736630	0.927195	-0.000110
1328	1.3204e+02	-12.8692	-44.681000	0.000355	3.547483	1.201920	-0.000142
1329	1.3214e+02	-12.9044	-44.818262	0.000345	3.446126	1.167579	-0.000138
1330	1.3224e+02	-12.9413	-44.899005	0.000203	2.027133	0.686811	-0.000081
1331	1.3234e+02	-12.9750	-45.040305	0.000355	3.547483	1.201920	-0.000142
1332	1.3243e+02	-13.0167	-45.165456	0.000314	3.142056	1.064557	-0.000126
1333	1.3253e+02	-13.0617	-45.318867	0.000385	3.851553	1.304941	-0.000154
1334	1.3263e+02	-13.0970	-45.395573	0.000193	1.925776	0.652471	-0.000077
1335	1.3273e+02	-13.1355	-45.528798	0.000334	3.344769	1.133239	-0.000134
1336	1.3283e+02	-13.1804	-45.686247	0.000395	3.952909	1.339282	-0.000158
1337	1.3293e+02	-13.2189	-45.791212	0.000264	2.635273	0.892855	-0.000105
1338	1.3303e+02	-13.2590	-45.847732	0.000142	1.418993	0.480768	-0.000057
1339	1.3313e+02	-13.3055	-45.993069	0.000365	3.648839	1.236260	-0.000146
1340	1.3323e+02	-13.3408	-46.134369	0.000355	3.547483	1.201920	-0.000142
1341	1.3333e+02	-13.3809	-46.295854	0.000405	4.054266	1.373622	-0.000162
1342	1.3343e+02	-13.4146	-46.392745	0.000243	2.432560	0.824173	-0.000097
1343	1.3353e+02	-13.4675	-46.530008	0.000345	3.446126	1.167579	-0.000138
1344	1.3363e+02	-13.5060	-46.618825	0.000223	2.229846	0.755492	-0.000089
1345	1.3373e+02	-13.5445	-46.752050	0.000334	3.344769	1.133239	-0.000134
1346	1.3383e+02	-13.5686	-46.881239	0.000324	3.243413	1.098898	-0.000130
1347	1.3393e+02	-13.6199	-47.030613	0.000375	3.750196	1.270601	-0.000150
1348	1.3403e+02	-13.6536	-47.159801	0.000324	3.243413	1.098898	-0.000130
1349	1.3413e+02	-13.7001	-47.288989	0.000324	3.243413	1.098898	-0.000130
1350	1.3423e+02	-13.7290	-47.373769	0.000213	2.128490	0.721152	-0.000085
1351	1.3432e+02	-13.7723	-47.498921	0.000314	3.142056	1.064557	-0.000126
1352	1.3442e+02	-13.8189	-47.636183	0.000345	3.446126	1.167579	-0.000138
1353	1.3452e+02	-13.8542	-47.725000	0.000223	2.229846	0.755492	-0.000089
1354	1.3462e+02	-13.9023	-47.902634	0.000446	4.459693	1.510985	-0.000179
1355	1.3472e+02	-13.9279	-48.056045	0.000385	3.851553	1.304941	-0.000154
1356	1.3482e+02	-13.9825	-48.108528	0.000132	1.317636	0.446427	-0.000053
1357	1.3492e+02	-14.0226	-48.197345	0.000223	2.229846	0.755492	-0.000089
1358	1.3502e+02	-14.0499	-48.358830	0.000405	4.054266	1.373622	-0.000162
1359	1.3512e+02	-14.0932	-48.475907	0.000294	2.939343	0.995876	-0.000118
1360	1.3522e+02	-14.1301	-48.584910	0.000274	2.736630	0.927195	-0.000110
1361	1.3532e+02	-14.1798	-48.714098	0.000324	3.243413	1.098898	-0.000130
1362	1.3542e+02	-14.2167	-48.806953	0.000233	2.331203	0.789833	-0.000093
1363	1.3552e+02	-14.2632	-48.956327	0.000375	3.750196	1.270601	-0.000150
1364	1.3562e+02	-14.2921	-49.097626	0.000355	3.547483	1.201920	-0.000142
1365	1.3572e+02	-14.3402	-49.182406	0.000213	2.128490	0.721152	-0.000085
1366	1.3582e+02	-14.3819	-49.303520	0.000304	3.040699	1.030217	-0.000122
1367	1.3592e+02	-14.4140	-49.408486	0.000264	2.635273	0.892855	-0.000105
1368	1.3602e+02	-14.4541	-49.549785	0.000355	3.547483	1.201920	-0.000142
1369	1.3612e+02	-14.5007	-49.654751	0.000264	2.635273	0.892855	-0.000105
1370	1.3622e+02	-14.5408	-49.787976	0.000334	3.344769	1.133239	-0.000134
1371	1.3631e+02	-14.5712	-49.913128	0.000314	3.142056	1.064557	-0.000126
1372	1.3641e+02	-14.6130	-50.014056	0.000253	2.533916	0.858514	-0.000101
1373	1.3651e+02	-14.6531	-50.127096	0.000284	2.837986	0.961536	-0.000114
1374	1.3661e+02	-14.7012	-50.292618	0.000416	4.155623	1.407963	-0.000166
1375	1.3671e+02	-14.7317	-50.381435	0.000223	2.229846	0.755492	-0.000089
1376	1.3681e+02	-14.7798	-50.474290	0.000233	2.331203	0.789833	-0.000093
1377	1.3691e+02	-14.8119	-50.559069	0.000213	2.128490	0.721152	-0.000085
1378	1.3701e+02	-14.8520	-50.720555	0.000405	4.054266	1.373622	-0.000162
1379	1.3711e+02	-14.8937	-50.785149	0.000162	1.621706	0.549449	-0.000065
1380	1.3721e+02	-14.9354	-50.958746	0.000436	4.358336	1.476644	-0.000174
1381	1.3731e+02	-14.9659	-51.087934	0.000324	3.243413	1.098898	-0.000130
1382	1.3741e+02	-15.0060	-51.200974	0.000284	2.837986	0.961536	-0.000114
1383	1.3751e+02	-15.0509	-51.257494	0.000142	1.418993	0.480768	-0.000057
1384	1.3761e+02	-15.0830	-51.410905	0.000385	3.851553	1.304941	-0.000154
1385	1.3771e+02	-15.1359	-51.527982	0.000294	2.939343	0.995876	-0.000118
1386	1.3781e+02	-15.1712	-51.636985	0.000274	2.736630	0.927195	-0.000110
1387	1.3791e+02	-15.2178	-51.733876	0.000243	2.432560	0.824173	-0.000097
1388	1.3801e+02	-15.2546	-51.830767	0.000243	2.432560	0.824173	-0.000097
1389	1.3811e+02	-15.2819	-51.935733	0.000264	2.635273	0.892855	-0.000105
1390	1.3821e+02	-15.3268	-52.101255	0.000416	4.155623	1.407963	-0.000166
1391	1.3831e+02	-15.3702	-52.181998	0.000203	2.027133	0.686811	-0.000081
1392	1.3840e+02	-15.3990	-52.295038	0.000284	2.837986	0.961536	-0.000114
1393	1.3850e+02	-15.4504	-52.432300	0.000345	3.446126	1.167579	-0.000138
1394	1.3860e+02	-15.4953	-52.521117	0.000223	2.229846	0.755492	-0.000089
1395	1.3870e+02	-15.5306	-52.694714	0.000436	4.358336	1.476644	-0.000174
1396	1.3880e+02	-15.5659	-52.783531	0.000223	2.229846	0.755492	-0.000089
1397	1.3890e+02	-15.6108	-52.892534	0.000274	2.736630	0.927195	-0.000110
1398	1.3900e+02	-15.6541	-53.021722	0.000324	3.243413	1.098898	-0.000130
1399	1.3910e+02	-15.6990	-53.114576	0.000233	2.331203	0.789833	-0.000093
1400	1.3920e+02	-15.7279	-53.235690	0.000304	3.040699	1.030217	-0.000122
1401	1.3930e+02	-15.7712	-53.316433	0.000203	2.027133	0.686811	-0.000081
1402	1.3940e+02	-15.8145	-53.473881	0.000395	3.952909	1.339282	-0.000158
1403	1.3950e+02	-15.8562	-53.550587	0.000193	1.925776	0.652471	-0.000077
1404	1.3960e+02	-15.8915	-53.671701	0.000304	3.040699	1.030217	-0.000122
1405	1.3970e+02	-15.9252	-53.796852	0.000314	3.142056	1.064557	-0.000126
1406	1.3980e+02	-15.9669	-53.901818	0.000264	2.635273	0.892855	-0.000105
1407	1.3990e+02	-16.0118	-54.014858	0.000284	2.837986	0.961536	-0.000114
1408	1.4000e+02	-16.0455	-54.095600	0.000203	2.027133	0.686811	-0.000081
1409	1.4010e+02	-16.0840	-54.249011	0.000385	3.851553	1.304941	-0.000154
1410	1.4020e+02	-16.1338	-54.358014	0.000274	2.736630	0.927195	-0.000110
1411	1.4029e+02	-16.1675	-54.442794	0.000213	2.128490	0.721152	-0.000085
1412	1.4039e+02	-16.2076	-54.547760	0.000264	2.635273	0.892855	-0.000105
1413	1.4049e+02	-16.2477	-54.668874	0.000304	3.040699	1.030217	-0.000122
1414	1.4059e+02	-16.2910	-54.822285	0.000385	3.851553	1.304941	-0.000154
1415	1.4069e+02	-16.3231	-54.935325	0.000284	2.837986	0.961536	-0.000114
1416	1.4079e+02	-16.3632	-54.999919	0.000162	1.621706	0.549449	-0.000065
1417	1.4089e+02	-16.4129	-55.104884	0.000264	2.635273	0.892855	-0.000105
1418	1.4099e+02	-16.4482	-55.221961	0.000294	2.939343	0.995876	-0.000118
1419	1.4109e+02	-16.4867	-55.367298	0.000365	3.648839	1.236260	-0.000146
1420	1.4119e+02	-16.5316	-55.435929	0.000172	1.723063	0.583790	-0.000069
1421	1.4129e+02	-16.5781	-55.601452	0.000416	4.155623	1.407963	-0.000166
1422	1.4139e+02	-16.6070	-55.690269	0.000223	2.229846	0.755492	-0.000089
1423	1.4149e+02	-16.6455	-55.807346	0.000294	2.939343	0.995876	-0.000118
1424	1.4159e+02	-16.6808	-55.928460	0.000304	3.040699	1.030217	-0.000122
1425	1.4169e+02	-16.7241	-56.021314	0.000233	2.331203	0.789833	-0.000093
1426	1.4179e+02	-16.7610	-56.118205	0.000243	2.432560	0.824173	-0.000097
1427	1.4189e+02	-16.8140	-56.275654	0.000395	3.952909	1.339282	-0.000158
1428	1.4199e+02	-16.8460	-56.348322	0.000182	1.824420	0.618130	-0.000073
1429	1.4209e+02	-16.8926	-56.453288	0.000264	2.635273	0.892855	-0.000105
1430	1.4219e+02	-16.9327	-56.578439	0.000314	3.142056	1.064557	-0.000126
1431	1.4228e+02	-16.9632	-56.679367	0.000253	2.533916	0.858514	-0.000101
1432	1.4238e+02	-17.0001	-56.816630	0.000345	3.446126	1.167579	-0.000138
1433	1.4248e+02	-17.0337	-56.913521	0.000243	2.432560	0.824173	-0.000097
1434	1.4258e+02	-17.0867	-57.022524	0.000274	2.736630	0.927195	-0.000110
1435	1.4268e+02	-17.1204	-57.139601	0.000294	2.939343	0.995876	-0.000118
1436	1.4278e+02	-17.1669	-57.284938	0.000365	3.648839	1.236260	-0.000146
1437	1.4288e+02	-17.2118	-57.406052	0.000304	3.040699	1.030217	-0.000122
1438	1.4298e+02	-17.2439	-57.502943	0.000243	2.432560	0.824173	-0.000097
1439	1.4308e+02	-17.2840	-57.595797	0.000233	2.331203	0.789833	-0.000093
1440	1.4318e+02	-17.3241	-57.720948	0.000314	3.142056	1.064557	-0.000126
1441	1.4328e+02	-17.3578	-57.833988	0.000284	2.837986	0.961536	-0.000114
1442	1.4338e+02	-17.4059	-57.971251	0.000345	3.446126	1.167579	-0.000138
1443	1.4348e+02	-17.4444	-58.043919	0.000182	1.824420	0.618130	-0.000073
1444	1.4358e+02	-17.4781	-58.189256	0.000365	3.648839	1.236260	-0.000146
1445	1.4368e+02	-17.5246	-58.294221	0.000264	2.635273	0.892855	-0.000105
1446	1.4378e+02	-17.5567	-58.451670	0.000395	3.952909	1.339282	-0.000158
1447	1.4388e+02	-17.6032	-58.524338	0.000182	1.824420	0.618130	-0.000073
1448	1.4398e+02	-17.6562	-58.657564	0.000334	3.344769	1.133239	-0.000134
1449	1.4408e+02	-17.6786	-58.770604	0.000284	2.837986	0.961536	-0.000114
1450	1.4418e+02	-17.7220	-58.907866	0.000345	3.446126	1.167579	-0.000138
1451	1.4428e+02	-17.7653	-58.996683	0.000223	2.229846	0.755492	-0.000089
1452	1.4437e+02	-17.7909	-59.113760	0.000294	2.939343	0.995876	-0.000118
1453	1.4447e+02	-17.8455	-59.226800	0.000284	2.837986	0.961536	-0.000114
1454	1.4457e+02	-17.8776	-59.315617	0.000223	2.229846	0.755492	-0.000089
1455	1.4467e+02	-17.9289	-59.493251	0.000446	4.459693	1.510985	-0.000179
1456	1.4477e+02	-17.9578	-59.614365	0.000304	3.040699	1.030217	-0.000122
1457	1.4487e+02	-18.0027	-59.735479	0.000304	3.040699	1.030217	-0.000122
1458	1.4497e+02	-18.0428	-59.884853	0.000375	3.750196	1.270601	-0.000150
1459	1.4507e+02	-18.0765	-59.977707	0.000233	2.331203	0.789833	-0.000093
1460	1.4517e+02	-18.1182	-60.119007	0.000355	3.547483	1.201920	-0.000142
1461	1.4527e+02	-18.1695	-60.228010	0.000274	2.736630	0.927195	-0.000110
1462	1.4537e+02	-18.2016	-60.341049	0.000284	2.837986	0.961536	-0.000114
1463	1.4547e+02	-18.2481	-60.437941	0.000243	2.432560	0.824173	-0.000097
1464	1.4557e+02	-18.2786	-60.567129	0.000324	3.243413	1.098898	-0.000130
1465	1.4567e+02	-18.3203	-60.696317	0.000324	3.243413	1.098898	-0.000130
1466	1.4577e+02	-18.3540	-60.873951	0.000446	4.459693	1.510985	-0.000179
1467	1.4587e+02	-18.3941	-60.942583	0.000172	1.723063	0.583790	-0.000069
1468	1.4597e+02	-18.4423	-61.095994	0.000385	3.851553	1.304941	-0.000154
1469	1.4607e+02	-18.4776	-61.213071	0.000294	2.939343	0.995876	-0.000118
1470	1.4617e+02	-18.5209	-61.342259	0.000324	3.243413	1.098898	-0.000130
1471	1.4626e+02	-18.5562	-61.483559	0.000355	3.547483	1.201920	-0.000142
1472	1.4636e+02	-18.5979	-61.604673	0.000304	3.040699	1.030217	-0.000122
1473	1.4646e+02	-18.6460	-61.717713	0.000284	2.837986	0.961536	-0.000114
1474	1.4656e+02	-18.6797	-61.863049	0.000365	3.648839	1.236260	-0.000146
1475	1.4666e+02	-18.7150	-62.048758	0.000466	4.662406	1.579666	-0.000187
1476	1.4676e+02	-18.7615	-62.121426	0.000182	1.824420	0.618130	-0.000073
1477	1.4686e+02	-18.7920	-62.226392	0.000264	2.635273	0.892855	-0.000105
1478	1.4696e+02	-18.8369	-62.363654	0.000345	3.446126	1.167579	-0.000138
1479	1.4706e+02	-18.8690	-62.521103	0.000395	3.952909	1.339282	-0.000158
1480	1.4716e+02	-18.9107	-62.662402	0.000355	3.547483	1.201920	-0.000142
1481	1.4726e+02	-18.9508	-62.755256	0.000233	2.331203	0.789833	-0.000093
1482	1.4736e+02	-19.0021	-62.900593	0.000365	3.648839	1.236260	-0.000146
1483	1.4746e+02	-19.0198	-63.045930	0.000365	3.648839	1.236260	-0.000146
1484	1.4756e+02	-19.0823	-63.163007	0.000294	2.939343	0.995876	-0.000118
1485	1.4766e+02	-19.1192	-63.332567	0.000426	4.256979	1.442304	-0.000170
1486	1.4776e+02	-19.1545	-63.477904	0.000365	3.648839	1.236260	-0.000146
1487	1.4786e+02	-19.1995	-63.615166	0.000345	3.446126	1.167579	-0.000138
1488	1.4796e+02	-19.2348	-63.728206	0.000284	2.837986	0.961536	-0.000114
1489	1.4806e+02	-19.2845	-63.865469	0.000345	3.446126	1.167579	-0.000138
1490	1.4816e+02	-19.3214	-63.994657	0.000324	3.243413	1.098898	-0.000130
1491	1.4825e+02	-19.3503	-64.111734	0.000294	2.939343	0.995876	-0.000118
1492	1.4835e+02	-19.3984	-64.273220	0.000405	4.054266	1.373622	-0.000162
1493	1.4845e+02	-19.4417	-64.410482	0.000345	3.446126	1.167579	-0.000138
1494	1.4855e+02	-19.4658	-64.547745	0.000345	3.446126	1.167579	-0.000138
1495	1.4865e+02	-19.5059	-64.697119	0.000375	3.750196	1.270601	-0.000150
1496	1.4875e+02	-19.5572	-64.822270	0.000314	3.142056	1.064557	-0.000126
1497	1.4885e+02	-19.5909	-65.012015	0.000476	4.763762	1.614006	-0.000191
1498	1.4895e+02	-19.6230	-65.145241	0.000334	3.344769	1.133239	-0.000134
1499	1.4905e+02	-19.6679	-65.286541	0.000355	3.547483	1.201920	-0.000142
1500	1.4915e+02	-19.7016	-65.415729	0.000324	3.243413	1.098898	-0.000130
1501	1.4925e+02	-19.7545	-65.577214	0.000405	4.054266	1.373622	-0.000162
1502	1.4935e+02	-19.7978	-65.722551	0.000365	3.648839	1.236260	-0.000146
1503	1.4945e+02	-19.8331	-65.871925	0.000375	3.750196	1.270601	-0.000150
1504	1.4955e+02	-19.8684	-66.013225	0.000355	3.547483	1.201920	-0.000142
1505	1.4965e+02	-19.9101	-66.231230	0.000547	5.473259	1.854390	-0.000219
1506	1.4975e+02	-19.9502	-66.311973	0.000203	2.027133	0.686811	-0.000081
1507	1.4985e+02	-19.9968	-66.485570	0.000436	4.358336	1.476644	-0.000174
1508	1.4995e+02	-19.9454	-66.489607	-0.000010	-0.101357	-0.034341	-0.000004
1509	1.5005e+02	-19.9133	-66.473458	0.000041	0.405427	0.137362	0.000016
1510	1.5015e+02	-19.8780	-66.392716	0.000203	2.027133	0.686811	0.000081
1511	1.5025e+02	-19.8299	-66.384642	0.000020	0.202713	0.068681	0.000008
1512	1.5034e+02	-19.7818	-66.332159	0.000132	1.317636	0.446427	0.000053
1513	1.5044e+02	-19.7497	-66.311973	0.000051	0.506783	0.171703	0.000020
1514	1.5054e+02	-19.7144	-66.255453	0.000142	1.418993	0.480768	0.000057
1515	1.5064e+02	-19.6743	-66.247379	0.000020	0.202713	0.068681	0.000008
1516	1.5074e+02	-19.6262	-66.150488	0.000243	2.432560	0.824173	0.000097
1517	1.5084e+02	-19.6053	-66.134339	0.000041	0.405427	0.137362	0.000016
1518	1.5094e+02	-19.5540	-66.061671	0.000182	1.824420	0.618130	0.000073
1519	1.5104e+02	-19.5155	-65.993039	0.000172	1.723063	0.583790	0.000069
1520	1.5114e+02	-19.4738	-65.936519	0.000142	1.418993	0.480768	0.000057
1521	1.5124e+02	-19.4321	-65.896148	0.000101	1.013566	0.343406	0.000041
1522	1.5134e+02	-19.3872	-65.888074	0.000020	0.202713	0.068681	0.000008
1523	1.5144e+02	-19.3519	-65.787145	0.000253	2.533916	0.858514	0.000101
1524	1.5154e+02	-19.3150	-65.750811	0.000091	0.912210	0.309065	0.000037
1525	1.5164e+02	-19.2829	-65.678143	0.000182	1.824420	0.618130	0.000073
1526	1.5174e+02	-19.2348	-65.621623	0.000142	1.418993	0.480768	0.000057
1527	1.5184e+02	-19.2011	-65.577214	0.000111	1.114923	0.377746	0.000045
1528	1.5194e+02	-19.1561	-65.500509	0.000193	1.925776	0.652471	0.000077
1529	1.5204e+02	-19.1160	-65.431877	0.000172	1.723063	0.583790	0.000069
1530	1.5214e+02	-19.0840	-65.347098	0.000213	2.128490	0.721152	0.000085
1531	1.5224e+02	-19.0422	-65.330949	0.000041	0.405427	0.137362	0.000016
1532	1.5233e+02	-18.9957	-65.270392	0.000152	1.520350	0.515108	0.000061
1533	1.5243e+02	-18.9572	-65.181575	0.000223	2.229846	0.755492	0.000089
1534	1.5253e+02	-18.9187	-65.088721	0.000233	2.331203	0.789833	0.000093
1535	1.5263e+02	-18.8738	-65.020090	0.000172	1.723063	0.583790	0.000069
1536	1.5273e+02	-18.8305	-64.939347	0.000203	2.027133	0.686811	0.000081
1537	1.5283e+02	-18.8032	-64.858604	0.000203	2.027133	0.686811	0.000081
1538	1.5293e+02	-18.7599	-64.842456	0.000041	0.405427	0.137362	0.000016
1539	1.5303e+02	-18.7198	-64.745564	0.000243	2.432560	0.824173	0.000097
1540	1.5313e+02	-18.6669	-64.660785	0.000213	2.128490	0.721152	0.000085
1541	1.5323e+02	-18.6332	-64.600228	0.000152	1.520350	0.515108	0.000061
1542	1.5333e+02	-18.6011	-64.543708	0.000142	1.418993	0.480768	0.000057
1543	1.5343e+02	-18.5530	-64.402408	0.000355	3.547483	1.201920	0.000142
1544	1.5353e+02	-18.5080	-64.333777	0.000172	1.723063	0.583790	0.000069
1545	1.5363e+02	-18.4808	-64.297442	0.000091	0.912210	0.309065	0.000037
1546	1.5373e+02	-18.4294	-64.224774	0.000182	1.824420	0.618130	0.000073
1547	1.5383e+02	-18.3989	-64.135957	0.000223	2.229846	0.755492	0.000089
1548	1.5393e+02	-18.3637	-64.010806	0.000314	3.142056	1.064557	0.000126
1549	1.5403e+02	-18.3107	-63.913914	0.000243	2.432560	0.824173	0.000097
1550	1.5413e+02	-18.2834	-63.889692	0.000061	0.608140	0.206043	0.000024
1551	1.5422e+02	-18.2401	-63.784726	0.000264	2.635273	0.892855	0.000105
1552	1.5432e+02	-18.2016	-63.679761	0.000264	2.635273	0.892855	0.000105
1553	1.5442e+02	-18.1631	-63.594981	0.000213	2.128490	0.721152	0.000085
1554	1.5452e+02	-18.1102	-63.534424	0.000152	1.520350	0.515108	0.000061
1555	1.5462e+02	-18.0845	-63.461755	0.000182	1.824420	0.618130	0.000073
1556	1.5472e+02	-18.0268	-63.356790	0.000264	2.635273	0.892855	0.000105
1557	1.5482e+02	-17.9963	-63.308344	0.000122	1.216280	0.412087	0.000049
1558	1.5492e+02	-17.9626	-63.167044	0.000355	3.547483	1.201920	0.000142
1559	1.5502e+02	-17.9193	-63.074190	0.000233	2.331203	0.789833	0.000093
1560	1.5512e+02	-17.8760	-63.041893	0.000081	0.810853	0.274724	0.000032
1561	1.5522e+02	-17.8391	-62.957113	0.000213	2.128490	0.721152	0.000085
1562	1.5532e+02	-17.8006	-62.835999	0.000304	3.040699	1.030217	0.000122
1563	1.5542e+02	-17.7621	-62.779479	0.000142	1.418993	0.480768	0.000057
1564	1.5552e+02	-17.7316	-62.662402	0.000294	2.939343	0.995876	0.000118
1565	1.5562e+02	-17.6802	-62.609920	0.000132	1.317636	0.446427	0.000053
1566	1.5572e+02	-17.6417	-62.500917	0.000274	2.736630	0.927195	0.000110
1567	1.5582e+02	-17.6032	-62.412100	0.000223	2.229846	0.755492	0.000089
1568	1.5592e+02	-17.5680	-62.331357	0.000203	2.027133	0.686811	0.000081
1569	1.5602e+02	-17.5246	-62.210243	0.000304	3.040699	1.030217	0.000122
1570	1.5612e+02	-17.4797	-62.165835	0.000111	1.114923	0.377746	0.000045
1571	1.5622e+02	-17.4380	-62.056832	0.000274	2.736630	0.927195	0.000110
1572	1.5631e+02	-17.3995	-61.976089	0.000203	2.027133	0.686811	0.000081
1573	1.5641e+02	-17.3626	-61.879198	0.000243	2.432560	0.824173	0.000097
1574	1.5651e+02	-17.3273	-61.794418	0.000213	2.128490	0.721152	0.000085
1575	1.5661e+02	-17.2920	-61.717713	0.000193	1.925776	0.652471	0.000077
1576	1.5671e+02	-17.2375	-61.628896	0.000223	2.229846	0.755492	0.000089
1577	1.5681e+02	-17.2038	-61.475484	0.000385	3.851553	1.304941	0.000154
1578	1.5691e+02	-17.1589	-61.394742	0.000203	2.027133	0.686811	0.000081
1579	1.5701e+02	-17.1284	-61.334185	0.000152	1.520350	0.515108	0.000061
1580	1.5711e+02	-17.0787	-61.225182	0.000274	2.736630	0.927195	0.000110
1581	1.5721e+02	-17.0466	-61.124254	0.000253	2.533916	0.858514	0.000101
1582	1.5731e+02	-16.9968	-61.043511	0.000203	2.027133	0.686811	0.000081
1583	1.5741e+02	-16.9648	-60.950657	0.000233	2.331203	0.789833	0.000093
1584	1.5751e+02	-16.9311	-60.873951	0.000193	1.925776	0.652471	0.000077
1585	1.5761e+02	-16.8797	-60.777060	0.000243	2.432560	0.824173	0.000097
1586	1.5771e+02	-16.8557	-60.655946	0.000304	3.040699	1.030217	0.000122
1587	1.5781e+02	-16.8027	-60.583277	0.000182	1.824420	0.618130	0.000073
1588	1.5791e+02	-16.7706	-60.458126	0.000314	3.142056	1.064557	0.000126
1589	1.5801e+02	-16.7177	-60.369309	0.000223	2.229846	0.755492	0.000089
1590	1.5811e+02	-16.6808	-60.337012	0.000081	0.810853	0.274724	0.000032
1591	1.5821e+02	-16.6359	-60.183601	0.000385	3.851553	1.304941	0.000154
1592	1.5830e+02	-16.6086	-60.082673	0.000253	2.533916	0.858514	0.000101
1593	1.5840e+02	-16.5717	-60.005967	0.000193	1.925776	0.652471	0.000077
1594	1.5850e+02	-16.5220	-59.913113	0.000233	2.331203	0.789833	0.000093
1595	1.5860e+02	-16.4851	-59.779887	0.000334	3.344769	1.133239	0.000134
1596	1.5870e+02	-16.4498	-59.699145	0.000203	2.027133	0.686811	0.000081
1597	1.5880e+02	-16.3953	-59.578031	0.000304	3.040699	1.030217	0.000122
1598	1.5890e+02	-16.3696	-59.513436	0.000162	1.621706	0.549449	0.000065
1599	1.5900e+02	-16.3311	-59.368100	0.000365	3.648839	1.236260	0.000146
1600	1.5910e+02	-16.2910	-59.327728	0.000101	1.013566	0.343406	0.000041
1601	1.5920e+02	-16.2573	-59.226800	0.000253	2.533916	0.858514	0.000101
1602	1.5930e+02	-16.2028	-59.117797	0.000274	2.736630	0.927195	0.000110
1603	1.5940e+02	-16.1675	-59.012832	0.000264	2.635273	0.892855	0.000105
1604	1.5950e+02	-16.1338	-58.915940	0.000243	2.432560	0.824173	0.000097
1605	1.5960e+02	-16.0905	-58.790789	0.000314	3.142056	1.064557	0.000126
1606	1.5970e+02	-16.0439	-58.710046	0.000203	2.027133	0.686811	0.000081
1607	1.5980e+02	-16.0086	-58.609118	0.000253	2.533916	0.858514	0.000101
1608	1.5990e+02	-15.9717	-58.536450	0.000182	1.824420	0.618130	0.000073
1609	1.6000e+02	-15.9236	-58.471855	0.000162	1.621706	0.549449	0.000065
1610	1.6010e+02	-15.8867	-58.318444	0.000385	3.851553	1.304941	0.000154
1611	1.6019e+02	-15.8418	-58.217516	0.000253	2.533916	0.858514	0.000101
1612	1.6029e+02	-15.8097	-58.120625	0.000243	2.432560	0.824173	0.000097
1613	1.6039e+02	-15.7728	-58.015659	0.000264	2.635273	0.892855	0.000105
1614	1.6049e+02	-15.7407	-57.890508	0.000314	3.142056	1.064557	0.000126
1615	1.6059e+02	-15.6878	-57.825914	0.000162	1.621706	0.549449	0.000065
1616	1.6069e+02	-15.6685	-57.745171	0.000203	2.027133	0.686811	0.000081
1617	1.6079e+02	-15.6140	-57.611946	0.000334	3.344769	1.133239	0.000134
1618	1.6089e+02	-15.5723	-57.527166	0.000213	2.128490	0.721152	0.000085
1619	1.6099e+02	-15.5322	-57.482757	0.000111	1.114923	0.377746	0.000045
1620	1.6109e+02	-15.4921	-57.313198	0.000426	4.256979	1.442304	0.000170
1621	1.6119e+02	-15.4536	-57.232455	0.000203	2.027133	0.686811	0.000081
1622	1.6129e+02	-15.4119	-57.175935	0.000142	1.418993	0.480768	0.000057
1623	1.6139e+02	-15.3718	-57.075006	0.000253	2.533916	0.858514	0.000101
1624	1.6149e+02	-15.3365	-56.970041	0.000264	2.635273	0.892855	0.000105
1625	1.6159e+02	-15.2948	-56.840853	0.000324	3.243413	1.098898	0.000130
1626	1.6169e+02	-15.2514	-56.776258	0.000162	1.621706	0.549449	0.000065
1627	1.6179e+02	-15.2161	-56.679367	0.000243	2.432560	0.824173	0.000097
1628	1.6189e+02	-15.1648	-56.546142	0.000334	3.344769	1.133239	0.000134
1629	1.6199e+02	-15.1391	-56.481548	0.000162	1.621706	0.549449	0.000065
1630	1.6209e+02	-15.0974	-56.344285	0.000345	3.446126	1.167579	0.000138
1631	1.6219e+02	-15.0509	-56.255468	0.000223	2.229846	0.755492	0.000089
1632	1.6228e+02	-15.0060	-56.158577	0.000243	2.432560	0.824173	0.000097
1633	1.6238e+02	-14.9723	-56.106094	0.000132	1.317636	0.446427	0.000053
1634	1.6248e+02	-14.9402	-55.972868	0.000334	3.344769	1.133239	0.000134
1635	1.6258e+02	-14.8937	-55.900200	0.000182	1.824420	0.618130	0.000073
1636	1.6268e+02	-14.8568	-55.803309	0.000243	2.432560	0.824173	0.000097
1637	1.6278e+02	-14.8103	-55.694306	0.000274	2.736630	0.927195	0.000110
1638	1.6288e+02	-14.7798	-55.561081	0.000334	3.344769	1.133239	0.000134
1639	1.6298e+02	-14.7285	-55.472264	0.000223	2.229846	0.755492	0.000089
1640	1.6308e+02	-14.6916	-55.383447	0.000223	2.229846	0.755492	0.000089
1641	1.6318e+02	-14.6531	-55.286555	0.000243	2.432560	0.824173	0.000097
1642	1.6328e+02	-14.6210	-55.181590	0.000264	2.635273	0.892855	0.000105
1643	1.6338e+02	-14.5680	-55.121033	0.000152	1.520350	0.515108	0.000061
1644	1.6348e+02	-14.5360	-54.975696	0.000365	3.648839	1.236260	0.000146
1645	1.6358e+02	-14.4926	-54.903027	0.000182	1.824420	0.618130	0.000073
1646	1.6368e+02	-14.4477	-54.785951	0.000294	2.939343	0.995876	0.000118
1647	1.6378e+02	-14.4108	-54.689059	0.000243	2.432560	0.824173	0.000097
1648	1.6388e+02	-14.3691	-54.592168	0.000243	2.432560	0.824173	0.000097
1649	1.6398e+02	-14.3418	-54.511425	0.000203	2.027133	0.686811	0.000081
1650	1.6408e+02	-14.3017	-54.418571	0.000233	2.331203	0.789833	0.000093
1651	1.6418e+02	-14.2552	-54.273234	0.000365	3.648839	1.236260	0.000146
1652	1.6427e+02	-14.2151	-54.200566	0.000182	1.824420	0.618130	0.000073
1653	1.6437e+02	-14.1782	-54.083489	0.000294	2.939343	0.995876	0.000118
1654	1.6447e+02	-14.1397	-54.014858	0.000172	1.723063	0.583790	0.000069
1655	1.6457e+02	-14.0916	-53.901818	0.000284	2.837986	0.961536	0.000114
1656	1.6467e+02	-14.0547	-53.808964	0.000233	2.331203	0.789833	0.000093
1657	1.6477e+02	-14.0178	-53.695924	0.000284	2.837986	0.961536	0.000114
1658	1.6487e+02	-13.9761	-53.586921	0.000274	2.736630	0.927195	0.000110
1659	1.6497e+02	-13.9392	-53.502141	0.000213	2.128490	0.721152	0.000085
1660	1.6507e+02	-13.8959	-53.401213	0.000253	2.533916	0.858514	0.000101
1661	1.6517e+02	-13.8686	-53.300285	0.000253	2.533916	0.858514	0.000101
1662	1.6527e+02	-13.8237	-53.179171	0.000304	3.040699	1.030217	0.000122
1663	1.6537e+02	-13.7707	-53.110539	0.000172	1.723063	0.583790	0.000069
1664	1.6547e+02	-13.7354	-52.993462	0.000294	2.939343	0.995876	0.000118
1665	1.6557e+02	-13.6937	-52.940980	0.000132	1.317636	0.446427	0.000053
1666	1.6567e+02	-13.6568	-52.787568	0.000385	3.851553	1.304941	0.000154
1667	1.6577e+02	-13.6151	-52.706826	0.000203	2.027133	0.686811	0.000081
1668	1.6587e+02	-13.5766	-52.561489	0.000365	3.648839	1.236260	0.000146
1669	1.6597e+02	-13.5461	-52.476709	0.000213	2.128490	0.721152	0.000085
1670	1.6607e+02	-13.5060	-52.387892	0.000223	2.229846	0.755492	0.000089
1671	1.6616e+02	-13.4531	-52.282926	0.000264	2.635273	0.892855	0.000105
1672	1.6626e+02	-13.4114	-52.190072	0.000233	2.331203	0.789833	0.000093
1673	1.6636e+02	-13.3777	-52.085107	0.000264	2.635273	0.892855	0.000105
1674	1.6646e+02	-13.3328	-52.000327	0.000213	2.128490	0.721152	0.000085
1675	1.6656e+02	-13.2959	-51.883250	0.000294	2.939343	0.995876	0.000118
1676	1.6666e+02	-13.2606	-51.786359	0.000243	2.432560	0.824173	0.000097
1677	1.6676e+02	-13.2253	-51.665245	0.000304	3.040699	1.030217	0.000122
1678	1.6686e+02	-13.1788	-51.548168	0.000294	2.939343	0.995876	0.000118
1679	1.6696e+02	-13.1403	-51.491648	0.000142	1.418993	0.480768	0.000057
1680	1.6706e+02	-13.1002	-51.394757	0.000243	2.432560	0.824173	0.000097
1681	1.6716e+02	-13.0617	-51.249420	0.000365	3.648839	1.236260	0.000146
1682	1.6726e+02	-13.0167	-51.192900	0.000142	1.418993	0.480768	0.000057
1683	1.6736e+02	-12.9798	-51.120231	0.000182	1.824420	0.618130	0.000073
1684	1.6746e+02	-12.9446	-50.982969	0.000345	3.446126	1.167579	0.000138
1685	1.6756e+02	-12.9044	-50.882040	0.000253	2.533916	0.858514	0.000101
1686	1.6766e+02	-12.8659	-50.797260	0.000213	2.128490	0.721152	0.000085
1687	1.6776e+02	-12.8226	-50.692295	0.000264	2.635273	0.892855	0.000105
1688	1.6786e+02	-12.7857	-50.595404	0.000243	2.432560	0.824173	0.000097
1689	1.6796e+02	-12.7424	-50.490438	0.000264	2.635273	0.892855	0.000105
1690	1.6806e+02	-12.7071	-50.409695	0.000203	2.027133	0.686811	0.000081
1691	1.6816e+02	-12.6654	-50.232061	0.000446	4.459693	1.510985	0.000179
1692	1.6825e+02	-12.6205	-50.179579	0.000132	1.317636	0.446427	0.000053
1693	1.6835e+02	-12.5884	-50.054427	0.000314	3.142056	1.064557	0.000126
1694	1.6845e+02	-12.5515	-49.925239	0.000324	3.243413	1.098898	0.000130
1695	1.6855e+02	-12.5034	-49.836422	0.000223	2.229846	0.755492	0.000089
1696	1.6865e+02	-12.4569	-49.743568	0.000233	2.331203	0.789833	0.000093
1697	1.6875e+02	-12.4200	-49.650714	0.000233	2.331203	0.789833	0.000093
1698	1.6885e+02	-12.3815	-49.561897	0.000223	2.229846	0.755492	0.000089
1699	1.6895e+02	-12.3462	-49.404449	0.000395	3.952909	1.339282	0.000158
1700	1.6905e+02	-12.3045	-49.315632	0.000223	2.229846	0.755492	0.000089
1701	1.6915e+02	-12.2547	-49.234889	0.000203	2.027133	0.686811	0.000081
1702	1.6925e+02	-12.2307	-49.117812	0.000294	2.939343	0.995876	0.000118
1703	1.6935e+02	-12.1858	-49.053218	0.000162	1.621706	0.549449	0.000065
1704	1.6945e+02	-12.1424	-48.887695	0.000416	4.155623	1.407963	0.000166
1705	1.6955e+02	-12.1055	-48.782730	0.000264	2.635273	0.892855	0.000105
1706	1.6965e+02	-12.0574	-48.718136	0.000162	1.621706	0.549449	0.000065
1707	1.6975e+02	-12.0301	-48.536464	0.000456	4.561049	1.545325	0.000183
1708	1.6985e+02	-11.9836	-48.419387	0.000294	2.939343	0.995876	0.000118
1709	1.6995e+02	-11.9483	-48.338645	0.000203	2.027133	0.686811	0.000081
1710	1.7005e+02	-11.9066	-48.241754	0.000243	2.432560	0.824173	0.000097
1711	1.7015e+02	-11.8729	-48.128714	0.000284	2.837986	0.961536	0.000114
1712	1.7024e+02	-11.8328	-47.979340	0.000375	3.750196	1.270601	0.000150
1713	1.7034e+02	-11.7927	-47.886486	0.000233	2.331203	0.789833	0.000093
1714	1.7044e+02	-11.7510	-47.793631	0.000233	2.331203	0.789833	0.000093
1715	1.7054e+02	-11.7013	-47.676554	0.000294	2.939343	0.995876	0.000118
1716	1.7064e+02	-11.6692	-47.555440	0.000304	3.040699	1.030217	0.000122
1717	1.7074e+02	-11.6146	-47.454512	0.000253	2.533916	0.858514	0.000101
1718	1.7084e+02	-11.5745	-47.325324	0.000324	3.243413	1.098898	0.000130
1719	1.7094e+02	-11.5473	-47.240544	0.000213	2.128490	0.721152	0.000085
1720	1.7104e+02	-11.5088	-47.115393	0.000314	3.142056	1.064557	0.000126
1721	1.7114e+02	-11.4687	-47.038687	0.000193	1.925776	0.652471	0.000077
1722	1.7124e+02	-11.4318	-46.857016	0.000456	4.561049	1.545325	0.000183
1723	1.7134e+02	-11.3981	-46.792422	0.000162	1.621706	0.549449	0.000065
1724	1.7144e+02	-11.3532	-46.715716	0.000193	1.925776	0.652471	0.000077
1725	1.7154e+02	-11.3114	-46.538082	0.000446	4.459693	1.510985	0.000179
1726	1.7164e+02	-11.2617	-46.429080	0.000274	2.736630	0.927195	0.000110
1727	1.7174e+02	-11.2360	-46.324114	0.000264	2.635273	0.892855	0.000105
1728	1.7184e+02	-11.1863	-46.239334	0.000213	2.128490	0.721152	0.000085
1729	1.7194e+02	-11.1526	-46.122257	0.000294	2.939343	0.995876	0.000118
1730	1.7204e+02	-11.1093	-45.964809	0.000395	3.952909	1.339282	0.000158
1731	1.7213e+02	-11.0676	-45.871955	0.000233	2.331203	0.789833	0.000093
1732	1.7223e+02	-11.0291	-45.762952	0.000274	2.736630	0.927195	0.000110
1733	1.7233e+02	-10.9922	-45.662024	0.000253	2.533916	0.858514	0.000101
1734	1.7243e+02	-10.9489	-45.528798	0.000334	3.344769	1.133239	0.000134
1735	1.7253e+02	-10.9184	-45.355201	0.000436	4.358336	1.476644	0.000174
1736	1.7263e+02	-10.8719	-45.282533	0.000182	1.824420	0.618130	0.000073
1737	1.7273e+02	-10.8270	-45.201790	0.000203	2.027133	0.686811	0.000081
1738	1.7283e+02	-10.7981	-45.084713	0.000294	2.939343	0.995876	0.000118
1739	1.7293e+02	-10.7532	-44.947451	0.000345	3.446126	1.167579	0.000138
1740	1.7303e+02	-10.7034	-44.818262	0.000324	3.243413	1.098898	0.000130
1741	1.7313e+02	-10.6681	-44.729445	0.000223	2.229846	0.755492	0.000089
1742	1.7323e+02	-10.6232	-44.652740	0.000193	1.925776	0.652471	0.000077
1743	1.7333e+02	-10.5944	-44.475106	0.000446	4.459693	1.510985	0.000179
1744	1.7343e+02	-10.5446	-44.341880	0.000334	3.344769	1.133239	0.000134
1745	1.7353e+02	-10.5141	-44.208655	0.000334	3.344769	1.133239	0.000134
1746	1.7363e+02	-10.4708	-44.127912	0.000203	2.027133	0.686811	0.000081
1747	1.7373e+02	-10.4307	-44.018910	0.000274	2.736630	0.927195	0.000110
1748	1.7383e+02	-10.3938	-43.917981	0.000253	2.533916	0.858514	0.000101
1749	1.7393e+02	-10.3473	-43.780719	0.000345	3.446126	1.167579	0.000138
1750	1.7403e+02	-10.3232	-43.635382	0.000365	3.648839	1.236260	0.000146
1751	1.7413e+02	-10.2751	-43.562713	0.000182	1.824420	0.618130	0.000073
1752	1.7422e+02	-10.2334	-43.409302	0.000385	3.851553	1.304941	0.000154
1753	1.7432e+02	-10.1917	-43.276077	0.000334	3.344769	1.133239	0.000134
1754	1.7442e+02	-10.1532	-43.183222	0.000233	2.331203	0.789833	0.000093
1755	1.7452e+02	-10.1147	-43.078257	0.000264	2.635273	0.892855	0.000105
1756	1.7462e+02	-10.0826	-42.940994	0.000345	3.446126	1.167579	0.000138
1757	1.7472e+02	-10.0297	-42.852177	0.000223	2.229846	0.755492	0.000089
1758	1.7482e+02	-9.9847	-42.706840	0.000365	3.648839	1.236260	0.000146
1759	1.7492e+02	-9.9527	-42.585726	0.000304	3.040699	1.030217	0.000122
1760	1.7502e+02	-9.9093	-42.468649	0.000294	2.939343	0.995876	0.000118
1761	1.7512e+02	-9.8757	-42.339461	0.000324	3.243413	1.098898	0.000130
1762	1.7522e+02	-9.8323	-42.226421	0.000284	2.837986	0.961536	0.000114
1763	1.7532e+02	-9.7938	-42.113381	0.000284	2.837986	0.961536	0.000114
1764	1.7542e+02	-9.7569	-41.992267	0.000304	3.040699	1.030217	0.000122
1765	1.7552e+02	-9.7168	-41.846930	0.000365	3.648839	1.236260	0.000146
1766	1.7562e+02	-9.6671	-41.729854	0.000294	2.939343	0.995876	0.000118
1767	1.7572e+02	-9.6318	-41.628925	0.000253	2.533916	0.858514	0.000101
1768	1.7582e+02	-9.5901	-41.483588	0.000365	3.648839	1.236260	0.000146
1769	1.7592e+02	-9.5660	-41.354400	0.000324	3.243413	1.098898	0.000130
1770	1.7602e+02	-9.5211	-41.245397	0.000274	2.736630	0.927195	0.000110
1771	1.7612e+02	-9.4762	-41.136395	0.000274	2.736630	0.927195	0.000110
1772	1.7621e+02	-9.4473	-40.999132	0.000345	3.446126	1.167579	0.000138
1773	1.7631e+02	-9.3992	-40.882055	0.000294	2.939343	0.995876	0.000118
1774	1.7641e+02	-9.3623	-40.732681	0.000375	3.750196	1.270601	0.000150
1775	1.7651e+02	-9.3110	-40.615604	0.000294	2.939343	0.995876	0.000118
1776	1.7661e+02	-9.2741	-40.518713	0.000243	2.432560	0.824173	0.000097
1777	1.7671e+02	-9.2436	-40.373376	0.000365	3.648839	1.236260	0.000146
1778	1.7681e+02	-9.2051	-40.284559	0.000223	2.229846	0.755492	0.000089
1779	1.7691e+02	-9.1521	-40.163445	0.000304	3.040699	1.030217	0.000122
1780	1.7701e+02	-9.1136	-39.997922	0.000416	4.155623	1.407963	0.000166
1781	1.7711e+02	-9.0800	-39.917180	0.000203	2.027133	0.686811	0.000081
1782	1.7721e+02	-9.0286	-39.751657	0.000416	4.155623	1.407963	0.000166
1783	1.7731e+02	-8.9949	-39.642654	0.000274	2.736630	0.927195	0.000110
1784	1.7741e+02	-8.9516	-39.525577	0.000294	2.939343	0.995876	0.000118
1785	1.7751e+02	-8.9211	-39.412538	0.000284	2.837986	0.961536	0.000114
1786	1.7761e+02	-8.8794	-39.299498	0.000284	2.837986	0.961536	0.000114
1787	1.7771e+02	-8.8297	-39.194532	0.000264	2.635273	0.892855	0.000105
1788	1.7781e+02	-8.7976	-39.057270	0.000345	3.446126	1.167579	0.000138
1789	1.7791e+02	-8.7543	-38.956341	0.000253	2.533916	0.858514	0.000101
1790	1.7801e+02	-8.7190	-38.815042	0.000355	3.547483	1.201920	0.000142
1791	1.7810e+02	-8.6725	-38.722187	0.000233	2.331203	0.789833	0.000093
1792	1.7820e+02	-8.6372	-38.605110	0.000294	2.939343	0.995876	0.000118
1793	1.7830e+02	-8.6067	-38.455736	0.000375	3.750196	1.270601	0.000150
1794	1.7840e+02	-8.5538	-38.346734	0.000274	2.736630	0.927195	0.000110
1795	1.7850e+02	-8.5233	-38.225620	0.000304	3.040699	1.030217	0.000122
1796	1.7860e+02	-8.4832	-38.112580	0.000284	2.837986	0.961536	0.000114
1797	1.7870e+02	-8.4351	-37.971280	0.000355	3.547483	1.201920	0.000142
1798	1.7880e+02	-8.3998	-37.862278	0.000274	2.736630	0.927195	0.000110
1799	1.7890e+02	-8.3548	-37.753275	0.000274	2.736630	0.927195	0.000110
1800	1.7900e+02	-8.3244	-37.587752	0.000416	4.155623	1.407963	0.000166
1801	1.7910e+02	-8.2666	-37.519121	0.000172	1.723063	0.583790	0.000069
1802	1.7920e+02	-8.2409	-37.373784	0.000365	3.648839	1.236260	0.000146
1803	1.7930e+02	-8.2040	-37.276893	0.000243	2.432560	0.824173	0.000097
1804	1.7940e+02	-8.1607	-37.163853	0.000284	2.837986	0.961536	0.000114
1805	1.7950e+02	-8.1206	-36.994293	0.000426	4.256979	1.442304	0.000170
1806	1.7960e+02	-8.0901	-36.852994	0.000355	3.547483	1.201920	0.000142
1807	1.7970e+02	-8.0404	-36.764177	0.000223	2.229846	0.755492	0.000089
1808	1.7980e+02	-8.0035	-36.630951	0.000334	3.344769	1.133239	0.000134
1809	1.7990e+02	-7.9586	-36.554246	0.000193	1.925776	0.652471	0.000077
1810	1.8000e+02	-7.9249	-36.396797	0.000395	3.952909	1.339282	0.000158
1811	1.8009e+02	-7.8784	-36.299906	0.000243	2.432560	0.824173	0.000097
1812	1.8019e+02	-7.8463	-36.142458	0.000395	3.952909	1.339282	0.000158
1813	1.8029e+02	-7.8062	-36.041529	0.000253	2.533916	0.858514	0.000101
1814	1.8039e+02	-7.7581	-35.916378	0.000314	3.142056	1.064557	0.000126
1815	1.8049e+02	-7.7180	-35.803338	0.000284	2.837986	0.961536	0.000114
1816	1.8059e+02	-7.6875	-35.621667	0.000456	4.561049	1.545325	0.000183
1817	1.8069e+02	-7.6378	-35.532850	0.000223	2.229846	0.755492	0.000089
1818	1.8079e+02	-7.5960	-35.371365	0.000405	4.054266	1.373622	0.000162
1819	1.8089e+02	-7.5591	-35.286585	0.000213	2.128490	0.721152	0.000085
1820	1.8099e+02	-7.5271	-35.153359	0.000334	3.344769	1.133239	0.000134
1821	1.8109e+02	-7.4854	-35.056468	0.000243	2.432560	0.824173	0.000097
1822	1.8119e+02	-7.4517	-34.931317	0.000314	3.142056	1.064557	0.000126
1823	1.8129e+02	-7.4019	-34.781943	0.000375	3.750196	1.270601	0.000150
1824	1.8139e+02	-7.3634	-34.681015	0.000253	2.533916	0.858514	0.000101
1825	1.8149e+02	-7.3297	-34.580086	0.000253	2.533916	0.858514	0.000101
1826	1.8159e+02	-7.2832	-34.438786	0.000355	3.547483	1.201920	0.000142
1827	1.8169e+02	-7.2447	-34.317672	0.000304	3.040699	1.030217	0.000122
1828	1.8179e+02	-7.2030	-34.172335	0.000365	3.648839	1.236260	0.000146
1829	1.8189e+02	-7.1693	-34.083518	0.000223	2.229846	0.755492	0.000089
1830	1.8199e+02	-7.1212	-33.917996	0.000416	4.155623	1.407963	0.000166
1831	1.8209e+02	-7.0843	-33.833216	0.000213	2.128490	0.721152	0.000085
1832	1.8218e+02	-7.0474	-33.699991	0.000334	3.344769	1.133239	0.000134
1833	1.8228e+02	-6.9977	-33.570802	0.000324	3.243413	1.098898	0.000130
1834	1.8238e+02	-6.9688	-33.453725	0.000294	2.939343	0.995876	0.000118
1835	1.8248e+02	-6.9351	-33.340685	0.000284	2.837986	0.961536	0.000114
1836	1.8258e+02	-6.8854	-33.207460	0.000334	3.344769	1.133239	0.000134
1837	1.8268e+02	-6.8437	-33.094420	0.000284	2.837986	0.961536	0.000114
1838	1.8278e+02	-6.8148	-32.945046	0.000375	3.750196	1.270601	0.000150
1839	1.8288e+02	-6.7602	-32.840081	0.000264	2.635273	0.892855	0.000105
1840	1.8298e+02	-6.7265	-32.731078	0.000274	2.736630	0.927195	0.000110
1841	1.8308e+02	-6.6704	-32.565555	0.000416	4.155623	1.407963	0.000166
1842	1.8318e+02	-6.6431	-32.464627	0.000253	2.533916	0.858514	0.000101
1843	1.8328e+02	-6.6014	-32.331402	0.000334	3.344769	1.133239	0.000134
1844	1.8338e+02	-6.5661	-32.194139	0.000345	3.446126	1.167579	0.000138
1845	1.8348e+02	-6.5292	-32.101285	0.000233	2.331203	0.789833	0.000093
1846	1.8358e+02	-6.4939	-31.984208	0.000294	2.939343	0.995876	0.000118
1847	1.8368e+02	-6.4474	-31.810611	0.000436	4.358336	1.476644	0.000174
1848	1.8378e+02	-6.4169	-31.774277	0.000091	0.912210	0.309065	0.000037
1849	1.8388e+02	-6.3656	-31.624903	0.000375	3.750196	1.270601	0.000150
1850	1.8398e+02	-6.3335	-31.495714	0.000324	3.243413	1.098898	0.000130
1851	1.8407e+02	-6.2886	-31.370563	0.000314	3.142056	1.064557	0.000126
1852	1.8417e+02	-6.2549	-31.257523	0.000284	2.837986	0.961536	0.000114
1853	1.8427e+02	-6.2116	-31.108149	0.000375	3.750196	1.270601	0.000150
1854	1.8437e+02	-6.1747	-30.999147	0.000274	2.736630	0.927195	0.000110
1855	1.8447e+02	-6.1330	-30.861884	0.000345	3.446126	1.167579	0.000138
1856	1.8457e+02	-6.0929	-30.736733	0.000314	3.142056	1.064557	0.000126
1857	1.8467e+02	-6.0512	-30.591396	0.000365	3.648839	1.236260	0.000146
1858	1.8477e+02	-6.0143	-30.510653	0.000203	2.027133	0.686811	0.000081
1859	1.8487e+02	-5.9710	-30.353205	0.000395	3.952909	1.339282	0.000158
1860	1.8497e+02	-5.9260	-30.191720	0.000405	4.054266	1.373622	0.000162
1861	1.8507e+02	-5.8891	-30.102903	0.000223	2.229846	0.755492	0.000089
1862	1.8517e+02	-5.8506	-29.937380	0.000416	4.155623	1.407963	0.000166
1863	1.8527e+02	-5.8137	-29.840489	0.000243	2.432560	0.824173	0.000097
1864	1.8537e+02	-5.7736	-29.739560	0.000253	2.533916	0.858514	0.000101
1865	1.8547e+02	-5.7351	-29.582112	0.000395	3.952909	1.339282	0.000158
1866	1.8557e+02	-5.6934	-29.452924	0.000324	3.243413	1.098898	0.000130
1867	1.8567e+02	-5.6549	-29.323735	0.000324	3.243413	1.098898	0.000130
1868	1.8577e+02	-5.6132	-29.182436	0.000355	3.547483	1.201920	0.000142
1869	1.8587e+02	-5.5699	-29.061322	0.000304	3.040699	1.030217	0.000122
1870	1.8597e+02	-5.5314	-28.936170	0.000314	3.142056	1.064557	0.000126
1871	1.8606e+02	-5.4929	-28.798908	0.000345	3.446126	1.167579	0.000138
1872	1.8616e+02	-5.4560	-28.697979	0.000253	2.533916	0.858514	0.000101
1873	1.8626e+02	-5.4191	-28.540531	0.000395	3.952909	1.339282	0.000158
1874	1.8636e+02	-5.3790	-28.395194	0.000365	3.648839	1.236260	0.000146
1875	1.8646e+02	-5.3325	-28.270043	0.000314	3.142056	1.064557	0.000126
1876	1.8656e+02	-5.2940	-28.112595	0.000395	3.952909	1.339282	0.000158
1877	1.8666e+02	-5.2555	-27.979369	0.000334	3.344769	1.133239	0.000134
1878	1.8676e+02	-5.2138	-27.870367	0.000274	2.736630	0.927195	0.000110
1879	1.8686e+02	-5.1737	-27.741178	0.000324	3.243413	1.098898	0.000130
1880	1.8696e+02	-5.1271	-27.620064	0.000304	3.040699	1.030217	0.000122
1881	1.8706e+02	-5.0983	-27.462616	0.000395	3.952909	1.339282	0.000158
1882	1.8716e+02	-5.0646	-27.293056	0.000426	4.256979	1.442304	0.000170
1883	1.8726e+02	-5.0164	-27.216351	0.000193	1.925776	0.652471	0.000077
1884	1.8736e+02	-4.9747	-27.079088	0.000345	3.446126	1.167579	0.000138
1885	1.8746e+02	-4.9346	-26.897417	0.000456	4.561049	1.545325	0.000183
1886	1.8756e+02	-4.8993	-26.844934	0.000132	1.317636	0.446427	0.000053
1887	1.8766e+02	-4.8512	-26.639040	0.000517	5.169189	1.751369	0.000207
1888	1.8776e+02	-4.8175	-26.513889	0.000314	3.142056	1.064557	0.000126
1889	1.8786e+02	-4.7742	-26.376626	0.000345	3.446126	1.167579	0.000138
1890	1.8796e+02	-4.7405	-26.243401	0.000334	3.344769	1.133239	0.000134
1891	1.8806e+02	-4.7148	-26.065767	0.000446	4.459693	1.510985	0.000179
1892	1.8815e+02	-4.6571	-25.985024	0.000203	2.027133	0.686811	0.000081
1893	1.8825e+02	-4.6154	-25.811427	0.000436	4.358336	1.476644	0.000174
1894	1.8835e+02	-4.5689	-25.702425	0.000274	2.736630	0.927195	0.000110
1895	1.8845e+02	-4.5287	-25.577273	0.000314	3.142056	1.064557	0.000126
1896	1.8855e+02	-4.5063	-25.395602	0.000456	4.561049	1.545325	0.000183
1897	1.8865e+02	-4.4662	-25.282563	0.000284	2.837986	0.961536	0.000114
1898	1.8875e+02	-4.4132	-25.165486	0.000294	2.939343	0.995876	0.000118
1899	1.8885e+02	-4.3780	-25.012074	0.000385	3.851553	1.304941	0.000154
1900	1.8895e+02	-4.3362	-24.862700	0.000375	3.750196	1.270601	0.000150
1901	1.8905e+02	-4.2945	-24.753698	0.000274	2.736630	0.927195	0.000110
1902	1.8915e+02	-4.2544	-24.624509	0.000324	3.243413	1.098898	0.000130
1903	1.8925e+02	-4.2207	-24.467061	0.000395	3.952909	1.339282	0.000158
1904	1.8935e+02	-4.1806	-24.345947	0.000304	3.040699	1.030217	0.000122
1905	1.8945e+02	-4.1357	-24.152165	0.000487	4.865119	1.648347	0.000195
1906	1.8955e+02	-4.0988	-24.039125	0.000284	2.837986	0.961536	0.000114
1907	1.8965e+02	-4.0523	-23.913974	0.000314	3.142056	1.064557	0.000126
1908	1.8975e+02	-4.0218	-23.796897	0.000294	2.939343	0.995876	0.000118
1909	1.8985e+02	-3.9753	-23.627337	0.000426	4.256979	1.442304	0.000170
1910	1.8995e+02	-3.9368	-23.518334	0.000274	2.736630	0.927195	0.000110
1911	1.9004e+02	-3.9079	-23.332626	0.000466	4.662406	1.579666	0.000187
1912	1.9014e+02	-3.8630	-23.215549	0.000294	2.939343	0.995876	0.000118
1913	1.9024e+02	-3.8357	-23.037915	0.000446	4.459693	1.510985	0.000179
1914	1.9034e+02	-3.7780	-22.900652	0.000345	3.446126	1.167579	0.000138
1915	1.9044e+02	-3.7459	-22.759353	0.000355	3.547483	1.201920	0.000142
1916	1.9054e+02	-3.6978	-22.614016	0.000365	3.648839	1.236260	0.000146
1917	1.9064e+02	-3.6689	-22.452530	0.000405	4.054266	1.373622	0.000162
1918	1.9074e+02	-3.6272	-22.343528	0.000274	2.736630	0.927195	0.000110
1919	1.9084e+02	-3.5790	-22.202228	0.000355	3.547483	1.201920	0.000142
1920	1.9094e+02	-3.5470	-22.081114	0.000304	3.040699	1.030217	0.000122
1921	1.9104e+02	-3.5036	-21.915591	0.000416	4.155623	1.407963	0.000166
1922	1.9114e+02	-3.4635	-21.754106	0.000405	4.054266	1.373622	0.000162
1923	1.9124e+02	-3.4218	-21.604732	0.000375	3.750196	1.270601	0.000150
1924	1.9134e+02	-3.3753	-21.491692	0.000284	2.837986	0.961536	0.000114
1925	1.9144e+02	-3.3448	-21.350392	0.000355	3.547483	1.201920	0.000142
1926	1.9154e+02	-3.3143	-21.209093	0.000355	3.547483	1.201920	0.000142
1927	1.9164e+02	-3.2582	-21.023384	0.000466	4.662406	1.579666	0.000187
1928	1.9174e+02	-3.2229	-20.874010	0.000375	3.750196	1.270601	0.000150
1929	1.9184e+02	-3.1892	-20.752896	0.000304	3.040699	1.030217	0.000122
1930	1.9194e+02	-3.1411	-20.611597	0.000355	3.547483	1.201920	0.000142
1931	1.9203e+02	-3.1074	-20.482408	0.000324	3.243413	1.098898	0.000130
1932	1.9213e+02	-3.0625	-20.308811	0.000436	4.358336	1.476644	0.000174
1933	1.9223e+02	-3.0288	-20.171549	0.000345	3.446126	1.167579	0.000138
1934	1.9233e+02	-2.9823	-20.026212	0.000365	3.648839	1.236260	0.000146
1935	1.9243e+02	-2.9341	-19.897023	0.000324	3.243413	1.098898	0.000130
1936	1.9253e+02	-2.8972	-19.723427	0.000436	4.358336	1.476644	0.000174
1937	1.9263e+02	-2.8603	-19.586164	0.000345	3.446126	1.167579	0.000138
1938	1.9273e+02	-2.8170	-19.465050	0.000304	3.040699	1.030217	0.000122
1939	1.9283e+02	-2.7721	-19.299527	0.000416	4.155623	1.407963	0.000166
1940	1.9293e+02	-2.7400	-19.170339	0.000324	3.243413	1.098898	0.000130
1941	1.9303e+02	-2.7079	-19.008854	0.000405	4.054266	1.373622	0.000162
1942	1.9313e+02	-2.6598	-18.871591	0.000345	3.446126	1.167579	0.000138
1943	1.9323e+02	-2.6213	-18.730291	0.000355	3.547483	1.201920	0.000142
1944	1.9333e+02	-2.5908	-18.544583	0.000466	4.662406	1.579666	0.000187
1945	1.9343e+02	-2.5539	-18.451729	0.000233	2.331203	0.789833	0.000093
1946	1.9353e+02	-2.4978	-18.282169	0.000426	4.256979	1.442304	0.000170
1947	1.9363e+02	-2.4625	-18.112609	0.000426	4.256979	1.442304	0.000170
1948	1.9373e+02	-2.4224	-18.011681	0.000253	2.533916	0.858514	0.000101
1949	1.9383e+02	-2.3855	-17.850196	0.000405	4.054266	1.373622	0.000162
1950	1.9393e+02	-2.3406	-17.721007	0.000324	3.243413	1.098898	0.000130
1951	1.9403e+02	-2.2957	-17.595856	0.000314	3.142056	1.064557	0.000126
1952	1.9412e+02	-2.2620	-17.446482	0.000375	3.750196	1.270601	0.000150
1953	1.9422e+02	-2.2283	-17.264811	0.000456	4.561049	1.545325	0.000183
1954	1.9432e+02	-2.1850	-17.143697	0.000304	3.040699	1.030217	0.000122
1955	1.9442e+02	-2.1513	-16.982211	0.000405	4.054266	1.373622	0.000162
1956	1.9452e+02	-2.0983	-16.840912	0.000355	3.547483	1.201920	0.000142
1957	1.9462e+02	-2.0711	-16.679426	0.000405	4.054266	1.373622	0.000162
1958	1.9472e+02	-2.0213	-16.534089	0.000365	3.648839	1.236260	0.000146
1959	1.9482e+02	-1.9909	-16.408938	0.000314	3.142056	1.064557	0.000126
1960	1.9492e+02	-1.9363	-16.255527	0.000385	3.851553	1.304941	0.000154
1961	1.9502e+02	-1.9010	-16.146524	0.000274	2.736630	0.927195	0.000110
1962	1.9512e+02	-1.8625	-15.968890	0.000446	4.459693	1.510985	0.000179
1963	1.9522e+02	-1.8256	-15.871999	0.000243	2.432560	0.824173	0.000097
1964	1.9532e+02	-1.7807	-15.710514	0.000405	4.054266	1.373622	0.000162
1965	1.9542e+02	-1.7534	-15.553065	0.000395	3.952909	1.339282	0.000158
1966	1.9552e+02	-1.6941	-15.423877	0.000324	3.243413	1.098898	0.000130
1967	1.9562e+02	-1.6668	-15.286614	0.000345	3.446126	1.167579	0.000138
1968	1.9572e+02	-1.6251	-15.137240	0.000375	3.750196	1.270601	0.000150
1969	1.9582e+02	-1.5850	-14.999978	0.000345	3.446126	1.167579	0.000138
1970	1.9592e+02	-1.5545	-14.822344	0.000446	4.459693	1.510985	0.000179
1971	1.9601e+02	-1.5000	-14.681044	0.000355	3.547483	1.201920	0.000142
1972	1.9611e+02	-1.4631	-14.559930	0.000304	3.040699	1.030217	0.000122
1973	1.9621e+02	-1.4214	-14.426705	0.000334	3.344769	1.133239	0.000134
1974	1.9631e+02	-1.3812	-14.273293	0.000385	3.851553	1.304941	0.000154
1975	1.9641e+02	-1.3427	-14.136031	0.000345	3.446126	1.167579	0.000138
1976	1.9651e+02	-1.3155	-13.962434	0.000436	4.358336	1.476644	0.000174
1977	1.9661e+02	-1.2770	-13.768651	0.000487	4.865119	1.648347	0.000195
1978	1.9671e+02	-1.2337	-13.704057	0.000162	1.621706	0.549449	0.000065
1979	1.9681e+02	-1.1935	-13.534498	0.000426	4.256979	1.442304	0.000170
1980	1.9691e+02	-1.1486	-13.405309	0.000324	3.243413	1.098898	0.000130
1981	1.9701e+02	-1.1069	-13.239787	0.000416	4.155623	1.407963	0.000166
1982	1.9711e+02	-1.0668	-13.102524	0.000345	3.446126	1.167579	0.000138
1983	1.9721e+02	-1.0251	-12.961224	0.000355	3.547483	1.201920	0.000142
1984	1.9731e+02	-0.9930	-12.795702	0.000416	4.155623	1.407963	0.000166
1985	1.9741e+02	-0.9529	-12.630179	0.000416	4.155623	1.407963	0.000166
1986	1.9751e+02	-0.9144	-12.517139	0.000284	2.837986	0.961536	0.000114
1987	1.9761e+02	-0.8711	-12.379877	0.000345	3.446126	1.167579	0.000138
1988	1.9771e+02	-0.8422	-12.246651	0.000334	3.344769	1.133239	0.000134
1989	1.9781e+02	-0.7909	-12.056906	0.000476	4.763762	1.614006	0.000191
1990	1.9791e+02	-0.7524	-11.939829	0.000294	2.939343	0.995876	0.000118
1991	1.9800e+02	-0.7139	-11.794492	0.000365	3.648839	1.236260	0.000146
1992	1.9810e+02	-0.6642	-11.633007	0.000405	4.054266	1.373622	0.000162
1993	1.9820e+02	-0.6305	-11.479595	0.000385	3.851553	1.304941	0.000154
1994	1.9830e+02	-0.5855	-11.362519	0.000294	2.939343	0.995876	0.000118
1995	1.9840e+02	-0.5486	-11.180847	0.000456	4.561049	1.545325	0.000183
1996	1.9850e+02	-0.5134	-11.096068	0.000213	2.128490	0.721152	0.000085
1997	1.9860e+02	-0.4765	-10.922471	0.000436	4.358336	1.476644	0.000174
1998	1.9870e+02	-0.4267	-10.765022	0.000395	3.952909	1.339282	0.000158
1999	1.9880e+02	-0.3914	-10.619686	0.000365	3.648839	1.236260	0.000146
2000	1.9890e+02	-0.3610	-10.490497	0.000324	3.243413	1.098898	0.000130
2001	1.9900e+02	-0.3080	-10.324975	0.000416	4.155623	1.407963	0.000166
2002	1.9910e+02	-0.2759	-10.199823	0.000314	3.142056	1.064557	0.000126
2003	1.9920e+02	-0.2374	-10.058524	0.000355	3.547483	1.201920	0.000142
2004	1.9930e+02	-0.1893	-9.925298	0.000334	3.344769	1.133239	0.000134
2005	1.9940e+02	-0.1604	-9.723441	0.000507	5.067832	1.717028	0.000203
2006	1.9950e+02	-0.1155	-9.618476	0.000264	2.635273	0.892855	0.000105
2007	1.9960e+02	-0.0738	-9.448916	0.000426	4.256979	1.442304	0.000170
2008	1.9970e+02	-0.0353	-9.319728	0.000324	3.243413	1.098898	0.000130
2009	1.9980e+02	0.0128	-9.182465	0.000324	3.243413	1.098898	0.000138

PMax (uC/cm2):	7.21e+01
Pr (uC/cm2):	4.92e+00
-Pr (uC/cm2):	-3.56e+00
PLoss (uC/cm2):	-3.54e+00
-Vc:	-1.29e+00
C (Max-Eff) (nF):	3.61e-01
K (Eff):	1.22e+03
Vert. (+/-Pr) Shift (uC/cm2):	6.78e-01
Offset (uC/cm2):	5.62e+00

A (Loop Area - uC/cm2·Volts):	6.00e-02



Hysteresis Version: 5.48.1 - Radiant Technologies, Inc., 1999 - 9/12/24

