»»»»»»»»»»»»»»»»»»»»»»»»»»»»»»»»»»»» Hysteresis ««««««««««««««««««««««««««««««««««««
»»»  Executed Version:	5.48.1
»»»  Vision Version:	5.48.4 (R)
»»»  Vision Compiled:	9/18/24
»»»  Driver Version:	5.47.0
»»»  Windows Version:	Windows 8 or 8.1
»»»  Processor Information:	x86 (AMD or Intel) - 32 Processors
»»»  Tester Name:	PMF21124-494 (100V)
»»»  Tester S/N:	PMF21124-494
»»»  Internal Amp Type:	100V RevK 270k
»»»  Internal Amp S/N:	iAB2-596/K     
»»»  Execution Count:	1
»»»»»»»»»»»»»»»»»»»»»»»»»»»»»»»»»»»»»»»»»»««««««««««««««««««««««««««««««««««««««««««

Stored:	6/19/2025 - 20:27:21
Configured:	06/19/25 10:04:32 AM
Executed:	06/19/25 08:26:49 PM

»»»»»»»»»»»»»»»»»»»»»»»»»»»»»»»»»»» Sample Info ««««««««««««««««««««««««««««««««««««
Sample Name:	
Lot Name:	
Wafer Name:	
Die Row/Column:	0/0
Capacitor Number:	0
Sample Area (cm2):	1.00e-04
Sample Thickness (microns):	3.00e-01

Amplifier:	Internal

»»»»»»»»»»»»»»»»»»»»»»»»»»»»»»»»»»» Tester Info «««««««««««««««««««««««««««««««««««
Tester Name:	PMF21124-494 (100V)
Tester Serial Number:	PMF21124-494
Return Signal Amp. Level:	0.19 [Index: 3]

»»»»»»»»»»»»»»»»»»»»»»»»»»»»»»»» Hysteresis Info ««««««««««««««««««««««««««««««««««
Task Name:	Hyst-1168
Volts:	20.00
Field:	666.67 (kV/cm)
DCBias:	0.00
DCField:	0.00 (kV/cm)
Hysteresis Period (ms):	2.00e+02
Preset:	Enabled
Preset Delay (ms):	1.00e+03
Profile:	Standard Bipolar

»»»»»»»»»»»»»»»»»»»»»»»»»»»»»»»»»»»»»» Data «««««««««««««««««««««««««««««««««««««««
Points:	2009

Valid Data

Point	Time (ms)	Drive Voltage	Measured Polarization (uC/cm2)	Capacitance (uF)	Normalized Capacitance (uF/cm2)	Dielectric Constant	Instantaneous Current (mA)
   1	0.0000e+00	0.0048	-7.044802	0.000284	2.838100	0.961574	0.000114
   2	9.9500e-02	0.0273	-6.931762	0.000284	2.838100	0.961574	0.000114
   3	1.9900e-01	0.0770	-6.790462	0.000355	3.547625	1.201968	0.000142
   4	2.9850e-01	0.1171	-6.637051	0.000385	3.851707	1.304994	0.000154
   5	3.9800e-01	0.1556	-6.495751	0.000355	3.547625	1.201968	0.000142
   6	4.9750e-01	0.1957	-6.346377	0.000375	3.750346	1.270652	0.000150
   7	5.9700e-01	0.2342	-6.209115	0.000345	3.446264	1.167626	0.000138
   8	6.9650e-01	0.2743	-6.075889	0.000334	3.344904	1.133284	0.000134
   9	7.9600e-01	0.3257	-5.934590	0.000355	3.547625	1.201968	0.000142
  10	8.9550e-01	0.3610	-5.732733	0.000507	5.068036	1.717097	0.000203
  11	9.9500e-01	0.4027	-5.579322	0.000385	3.851707	1.304994	0.000154
  12	1.0945e+00	0.4364	-5.397650	0.000456	4.561232	1.545387	0.000183
  13	1.1940e+00	0.4781	-5.268462	0.000324	3.243543	1.098942	0.000130
  14	1.2935e+00	0.5085	-5.131200	0.000345	3.446264	1.167626	0.000138
  15	1.3930e+00	0.5503	-4.969714	0.000405	4.054429	1.373678	0.000162
  16	1.4925e+00	0.5936	-4.808229	0.000405	4.054429	1.373678	0.000162
  17	1.5920e+00	0.6321	-4.675003	0.000334	3.344904	1.133284	0.000134
  18	1.6915e+00	0.6738	-4.469109	0.000517	5.169396	1.751439	0.000207
  19	1.7910e+00	0.7171	-4.347995	0.000304	3.040821	1.030258	0.000122
  20	1.8905e+00	0.7572	-4.230918	0.000294	2.939461	0.995916	0.000118
  21	1.9900e+00	0.7909	-4.025024	0.000517	5.169396	1.751439	0.000207
  22	2.0895e+00	0.8390	-3.879687	0.000365	3.648986	1.236310	0.000146
  23	2.1890e+00	0.8727	-3.726276	0.000385	3.851707	1.304994	0.000154
  24	2.2885e+00	0.9160	-3.629385	0.000243	2.432657	0.824207	0.000097
  25	2.3880e+00	0.9465	-3.439640	0.000476	4.763954	1.614071	0.000191
  26	2.4875e+00	0.9978	-3.302377	0.000345	3.446264	1.167626	0.000138
  27	2.5870e+00	1.0315	-3.169152	0.000334	3.344904	1.133284	0.000134
  28	2.6865e+00	1.0813	-2.975369	0.000487	4.865314	1.648413	0.000195
  29	2.7860e+00	1.1037	-2.850218	0.000314	3.142182	1.064600	0.000126
  30	2.8855e+00	1.1647	-2.640287	0.000527	5.270757	1.785781	0.000211
  31	2.9850e+00	1.1935	-2.486876	0.000385	3.851707	1.304994	0.000154
  32	3.0845e+00	1.2256	-2.385947	0.000253	2.534018	0.858548	0.000101
  33	3.1840e+00	1.2786	-2.200239	0.000466	4.662593	1.579729	0.000187
  34	3.2835e+00	1.3010	-2.062976	0.000345	3.446264	1.167626	0.000138
  35	3.3830e+00	1.3524	-1.873231	0.000476	4.763954	1.614071	0.000191
  36	3.4825e+00	1.3989	-1.752117	0.000304	3.040821	1.030258	0.000122
  37	3.5820e+00	1.4278	-1.574483	0.000446	4.459871	1.511045	0.000179
  38	3.6815e+00	1.4759	-1.396849	0.000446	4.459871	1.511045	0.000179
  39	3.7810e+00	1.5128	-1.239401	0.000395	3.953068	1.339336	0.000158
  40	3.8805e+00	1.5513	-1.102138	0.000345	3.446264	1.167626	0.000138
  41	3.9800e+00	1.5946	-0.940653	0.000405	4.054429	1.373678	0.000162
  42	4.0795e+00	1.6363	-0.779167	0.000405	4.054429	1.373678	0.000162
  43	4.1790e+00	1.6748	-0.654016	0.000314	3.142182	1.064600	0.000126
  44	4.2785e+00	1.7213	-0.492531	0.000405	4.054429	1.373678	0.000162
  45	4.3780e+00	1.7534	-0.318934	0.000436	4.358511	1.476703	0.000174
  46	4.4775e+00	1.7871	-0.197820	0.000304	3.040821	1.030258	0.000122
  47	4.5770e+00	1.8368	0.024223	0.000557	5.574839	1.888807	0.000223
  48	4.6765e+00	1.8641	0.201857	0.000446	4.459871	1.511045	0.000179
  49	4.7760e+00	1.9155	0.298748	0.000243	2.432657	0.824207	0.000097
  50	4.8755e+00	1.9459	0.488493	0.000476	4.763954	1.614071	0.000191
  51	4.9750e+00	1.9892	0.662090	0.000436	4.358511	1.476703	0.000174
  52	5.0745e+00	2.0294	0.791279	0.000324	3.243543	1.098942	0.000130
  53	5.1740e+00	2.0695	0.976987	0.000466	4.662593	1.579729	0.000187
  54	5.2735e+00	2.1080	1.130398	0.000385	3.851707	1.304994	0.000154
  55	5.3730e+00	2.1465	1.267661	0.000345	3.446264	1.167626	0.000138
  56	5.4725e+00	2.1962	1.505852	0.000598	5.980282	2.026174	0.000239
  57	5.5720e+00	2.2315	1.622929	0.000294	2.939461	0.995916	0.000118
  58	5.6715e+00	2.2700	1.788451	0.000416	4.155789	1.408020	0.000166
  59	5.7710e+00	2.3085	1.937825	0.000375	3.750346	1.270652	0.000150
  60	5.8705e+00	2.3454	2.075088	0.000345	3.446264	1.167626	0.000138
  61	5.9700e+00	2.3823	2.248685	0.000436	4.358511	1.476703	0.000174
  62	6.0695e+00	2.4400	2.410170	0.000405	4.054429	1.373678	0.000162
  63	6.1690e+00	2.4593	2.571655	0.000405	4.054429	1.373678	0.000162
  64	6.2685e+00	2.5010	2.729104	0.000395	3.953068	1.339336	0.000158
  65	6.3680e+00	2.5443	2.939035	0.000527	5.270757	1.785781	0.000211
  66	6.4675e+00	2.5780	3.120706	0.000456	4.561232	1.545387	0.000183
  67	6.5670e+00	2.6342	3.253931	0.000334	3.344904	1.133284	0.000134
  68	6.6665e+00	2.6614	3.459825	0.000517	5.169396	1.751439	0.000207
  69	6.7660e+00	2.7176	3.548642	0.000223	2.229936	0.755523	0.000089
  70	6.8655e+00	2.7497	3.758573	0.000527	5.270757	1.785781	0.000211
  71	6.9650e+00	2.7898	3.887762	0.000324	3.243543	1.098942	0.000130
  72	7.0645e+00	2.8299	4.065396	0.000446	4.459871	1.511045	0.000179
  73	7.1640e+00	2.8603	4.218807	0.000385	3.851707	1.304994	0.000154
  74	7.2635e+00	2.9085	4.396441	0.000446	4.459871	1.511045	0.000179
  75	7.3630e+00	2.9470	4.561963	0.000416	4.155789	1.408020	0.000166
  76	7.4625e+00	2.9807	4.707300	0.000365	3.648986	1.236310	0.000146
  77	7.5620e+00	3.0288	4.880897	0.000436	4.358511	1.476703	0.000174
  78	7.6615e+00	3.0737	5.046420	0.000416	4.155789	1.408020	0.000166
  79	7.7610e+00	3.1154	5.171571	0.000314	3.142182	1.064600	0.000126
  80	7.8605e+00	3.1475	5.296722	0.000314	3.142182	1.064600	0.000126
  81	7.9600e+00	3.1908	5.478393	0.000456	4.561232	1.545387	0.000183
  82	8.0595e+00	3.2261	5.680250	0.000507	5.068036	1.717097	0.000203
  83	8.1590e+00	3.2694	5.841735	0.000405	4.054429	1.373678	0.000162
  84	8.2585e+00	3.3159	5.999184	0.000395	3.953068	1.339336	0.000158
  85	8.3580e+00	3.3464	6.148558	0.000375	3.750346	1.270652	0.000150
  86	8.4575e+00	3.3817	6.330229	0.000456	4.561232	1.545387	0.000183
  87	8.5570e+00	3.4154	6.495751	0.000416	4.155789	1.408020	0.000166
  88	8.6565e+00	3.4555	6.649163	0.000385	3.851707	1.304994	0.000154
  89	8.7560e+00	3.5052	6.798537	0.000375	3.750346	1.270652	0.000150
  90	8.8555e+00	3.5373	7.012505	0.000537	5.372118	1.820123	0.000215
  91	8.9550e+00	3.5919	7.153805	0.000355	3.547625	1.201968	0.000142
  92	9.0545e+00	3.6191	7.299141	0.000365	3.648986	1.236310	0.000146
  93	9.1540e+00	3.6657	7.456590	0.000395	3.953068	1.339336	0.000158
  94	9.2535e+00	3.7042	7.597889	0.000355	3.547625	1.201968	0.000142
  95	9.3530e+00	3.7523	7.775523	0.000446	4.459871	1.511045	0.000179
  96	9.4525e+00	3.7780	7.953157	0.000446	4.459871	1.511045	0.000179
  97	9.5520e+00	3.8309	8.074271	0.000304	3.040821	1.030258	0.000122
  98	9.6515e+00	3.8614	8.231720	0.000395	3.953068	1.339336	0.000158
  99	9.7510e+00	3.9031	8.393205	0.000405	4.054429	1.373678	0.000162
 100	9.8505e+00	3.9448	8.542579	0.000375	3.750346	1.270652	0.000150
 101	9.9500e+00	3.9833	8.744436	0.000507	5.068036	1.717097	0.000203
 102	1.0050e+01	4.0266	8.901884	0.000395	3.953068	1.339336	0.000158
 103	1.0149e+01	4.0635	9.051258	0.000375	3.750346	1.270652	0.000150
 104	1.0248e+01	4.1068	9.228892	0.000446	4.459871	1.511045	0.000179
 105	1.0348e+01	4.1373	9.406526	0.000446	4.459871	1.511045	0.000179
 106	1.0447e+01	4.1838	9.535715	0.000324	3.243543	1.098942	0.000130
 107	1.0547e+01	4.2223	9.677014	0.000355	3.547625	1.201968	0.000142
 108	1.0646e+01	4.2624	9.858685	0.000456	4.561232	1.545387	0.000183
 109	1.0746e+01	4.3058	9.999985	0.000355	3.547625	1.201968	0.000142
 110	1.0845e+01	4.3443	10.169545	0.000426	4.257150	1.442361	0.000170
 111	1.0945e+01	4.3828	10.326993	0.000395	3.953068	1.339336	0.000158
 112	1.1044e+01	4.4197	10.496553	0.000426	4.257150	1.442361	0.000170
 113	1.1144e+01	4.4630	10.662075	0.000416	4.155789	1.408020	0.000166
 114	1.1243e+01	4.4919	10.827598	0.000416	4.155789	1.408020	0.000166
 115	1.1343e+01	4.5432	10.932564	0.000264	2.635379	0.892890	0.000105
 116	1.1443e+01	4.5881	11.134420	0.000507	5.068036	1.717097	0.000203
 117	1.1542e+01	4.6234	11.271683	0.000345	3.446264	1.167626	0.000138
 118	1.1642e+01	4.6651	11.445280	0.000436	4.358511	1.476703	0.000174
 119	1.1741e+01	4.7020	11.618877	0.000436	4.358511	1.476703	0.000174
 120	1.1841e+01	4.7437	11.780362	0.000405	4.054429	1.373678	0.000162
 121	1.1940e+01	4.7790	11.913588	0.000334	3.344904	1.133284	0.000134
 122	1.2040e+01	4.8175	12.079110	0.000416	4.155789	1.408020	0.000166
 123	1.2139e+01	4.8560	12.232521	0.000385	3.851707	1.304994	0.000154
 124	1.2239e+01	4.9009	12.402081	0.000426	4.257150	1.442361	0.000170
 125	1.2338e+01	4.9346	12.539344	0.000345	3.446264	1.167626	0.000138
 126	1.2438e+01	4.9827	12.729089	0.000476	4.763954	1.614071	0.000191
 127	1.2537e+01	5.0084	12.870389	0.000355	3.547625	1.201968	0.000142
 128	1.2636e+01	5.0581	13.043986	0.000436	4.358511	1.476703	0.000174
 129	1.2736e+01	5.0902	13.189322	0.000365	3.648986	1.236310	0.000146
 130	1.2835e+01	5.1448	13.326585	0.000345	3.446264	1.167626	0.000138
 131	1.2935e+01	5.1865	13.471922	0.000365	3.648986	1.236310	0.000146
 132	1.3034e+01	5.2218	13.645519	0.000436	4.358511	1.476703	0.000174
 133	1.3134e+01	5.2474	13.790856	0.000365	3.648986	1.236310	0.000146
 134	1.3233e+01	5.3020	13.952341	0.000405	4.054429	1.373678	0.000162
 135	1.3333e+01	5.3228	14.162272	0.000527	5.270757	1.785781	0.000211
 136	1.3432e+01	5.3758	14.291461	0.000324	3.243543	1.098942	0.000130
 137	1.3532e+01	5.4287	14.465057	0.000436	4.358511	1.476703	0.000174
 138	1.3632e+01	5.4576	14.582134	0.000294	2.939461	0.995916	0.000118
 139	1.3731e+01	5.4913	14.739583	0.000395	3.953068	1.339336	0.000158
 140	1.3831e+01	5.5298	14.937402	0.000497	4.966675	1.682755	0.000199
 141	1.3930e+01	5.5683	15.082739	0.000365	3.648986	1.236310	0.000146
 142	1.4030e+01	5.6132	15.232113	0.000375	3.750346	1.270652	0.000150
 143	1.4129e+01	5.6597	15.401673	0.000426	4.257150	1.442361	0.000170
 144	1.4229e+01	5.6950	15.567195	0.000416	4.155789	1.408020	0.000166
 145	1.4328e+01	5.7383	15.708495	0.000355	3.547625	1.201968	0.000142
 146	1.4428e+01	5.7736	15.865943	0.000395	3.953068	1.339336	0.000158
 147	1.4527e+01	5.8137	16.007243	0.000355	3.547625	1.201968	0.000142
 148	1.4627e+01	5.8587	16.180840	0.000436	4.358511	1.476703	0.000174
 149	1.4726e+01	5.8907	16.314066	0.000334	3.344904	1.133284	0.000134
 150	1.4825e+01	5.9405	16.487662	0.000436	4.358511	1.476703	0.000174
 151	1.4925e+01	5.9790	16.637036	0.000375	3.750346	1.270652	0.000150
 152	1.5024e+01	6.0191	16.786410	0.000375	3.750346	1.270652	0.000150
 153	1.5124e+01	6.0512	16.976156	0.000476	4.763954	1.614071	0.000191
 154	1.5223e+01	6.0929	17.085158	0.000274	2.736739	0.927232	0.000110
 155	1.5323e+01	6.1378	17.266830	0.000456	4.561232	1.545387	0.000183
 156	1.5422e+01	6.1747	17.391981	0.000314	3.142182	1.064600	0.000126
 157	1.5522e+01	6.2084	17.569615	0.000446	4.459871	1.511045	0.000179
 158	1.5621e+01	6.2501	17.759360	0.000476	4.763954	1.614071	0.000191
 159	1.5721e+01	6.2950	17.884511	0.000314	3.142182	1.064600	0.000126
 160	1.5820e+01	6.3335	18.062145	0.000446	4.459871	1.511045	0.000179
 161	1.5920e+01	6.3704	18.203445	0.000355	3.547625	1.201968	0.000142
 162	1.6020e+01	6.4137	18.417413	0.000537	5.372118	1.820123	0.000215
 163	1.6119e+01	6.4602	18.522379	0.000264	2.635379	0.892890	0.000105
 164	1.6218e+01	6.4971	18.663679	0.000355	3.547625	1.201968	0.000142
 165	1.6318e+01	6.5324	18.817090	0.000385	3.851707	1.304994	0.000154
 166	1.6418e+01	6.5741	18.958389	0.000355	3.547625	1.201968	0.000142
 167	1.6517e+01	6.6094	19.148135	0.000476	4.763954	1.614071	0.000191
 168	1.6616e+01	6.6528	19.317695	0.000426	4.257150	1.442361	0.000170
 169	1.6716e+01	6.6897	19.434771	0.000294	2.939461	0.995916	0.000118
 170	1.6816e+01	6.7394	19.576071	0.000355	3.547625	1.201968	0.000142
 171	1.6915e+01	6.7747	19.773891	0.000497	4.966675	1.682755	0.000199
 172	1.7015e+01	6.8228	19.919228	0.000365	3.648986	1.236310	0.000146
 173	1.7114e+01	6.8597	20.088787	0.000426	4.257150	1.442361	0.000170
 174	1.7213e+01	6.8838	20.254310	0.000416	4.155789	1.408020	0.000166
 175	1.7313e+01	6.9271	20.411758	0.000395	3.953068	1.339336	0.000158
 176	1.7413e+01	6.9720	20.585355	0.000436	4.358511	1.476703	0.000174
 177	1.7512e+01	7.0105	20.714543	0.000324	3.243543	1.098942	0.000130
 178	1.7611e+01	7.0506	20.892177	0.000446	4.459871	1.511045	0.000179
 179	1.7711e+01	7.0907	21.065774	0.000436	4.358511	1.476703	0.000174
 180	1.7811e+01	7.1340	21.194963	0.000324	3.243543	1.098942	0.000130
 181	1.7910e+01	7.1661	21.380671	0.000466	4.662593	1.579729	0.000187
 182	1.8009e+01	7.2062	21.526008	0.000365	3.648986	1.236310	0.000146
 183	1.8109e+01	7.2527	21.691530	0.000416	4.155789	1.408020	0.000166
 184	1.8209e+01	7.2800	21.861090	0.000426	4.257150	1.442361	0.000170
 185	1.8308e+01	7.3313	21.994316	0.000334	3.344904	1.133284	0.000134
 186	1.8407e+01	7.3634	22.171949	0.000446	4.459871	1.511045	0.000179
 187	1.8507e+01	7.4035	22.305175	0.000334	3.344904	1.133284	0.000134
 188	1.8607e+01	7.4436	22.466660	0.000405	4.054429	1.373678	0.000162
 189	1.8706e+01	7.5030	22.624109	0.000395	3.953068	1.339336	0.000158
 190	1.8805e+01	7.5303	22.805780	0.000456	4.561232	1.545387	0.000183
 191	1.8905e+01	7.5752	22.967265	0.000405	4.054429	1.373678	0.000162
 192	1.9005e+01	7.6025	23.120676	0.000385	3.851707	1.304994	0.000154
 193	1.9104e+01	7.6522	23.282162	0.000405	4.054429	1.373678	0.000162
 194	1.9203e+01	7.6907	23.423462	0.000355	3.547625	1.201968	0.000142
 195	1.9303e+01	7.7260	23.593021	0.000426	4.257150	1.442361	0.000170
 196	1.9402e+01	7.7789	23.770655	0.000446	4.459871	1.511045	0.000179
 197	1.9502e+01	7.8062	23.911955	0.000355	3.547625	1.201968	0.000142
 198	1.9602e+01	7.8415	24.061329	0.000375	3.750346	1.270652	0.000150
 199	1.9701e+01	7.8896	24.275297	0.000537	5.372118	1.820123	0.000215
 200	1.9800e+01	7.9185	24.360077	0.000213	2.128575	0.721181	0.000085
 201	1.9900e+01	7.9618	24.557897	0.000497	4.966675	1.682755	0.000199
 202	2.0000e+01	8.0019	24.747642	0.000476	4.763954	1.614071	0.000191
 203	2.0099e+01	8.0388	24.860682	0.000284	2.838100	0.961574	0.000114
 204	2.0198e+01	8.0789	25.006019	0.000365	3.648986	1.236310	0.000146
 205	2.0298e+01	8.1351	25.191727	0.000466	4.662593	1.579729	0.000187
 206	2.0398e+01	8.1736	25.320915	0.000324	3.243543	1.098942	0.000130
 207	2.0497e+01	8.2073	25.474327	0.000385	3.851707	1.304994	0.000154
 208	2.0596e+01	8.2442	25.627738	0.000385	3.851707	1.304994	0.000154
 209	2.0696e+01	8.2843	25.793260	0.000416	4.155789	1.408020	0.000166
 210	2.0796e+01	8.3276	25.983006	0.000476	4.763954	1.614071	0.000191
 211	2.0895e+01	8.3677	26.180825	0.000497	4.966675	1.682755	0.000199
 212	2.0994e+01	8.4078	26.322125	0.000355	3.547625	1.201968	0.000142
 213	2.1094e+01	8.4383	26.491685	0.000426	4.257150	1.442361	0.000170
 214	2.1194e+01	8.4832	26.604725	0.000284	2.838100	0.961574	0.000114
 215	2.1293e+01	8.5185	26.790433	0.000466	4.662593	1.579729	0.000187
 216	2.1392e+01	8.5746	26.972104	0.000456	4.561232	1.545387	0.000183
 217	2.1492e+01	8.6083	27.117441	0.000365	3.648986	1.236310	0.000146
 218	2.1591e+01	8.6500	27.246629	0.000324	3.243543	1.098942	0.000130
 219	2.1691e+01	8.6789	27.436374	0.000476	4.763954	1.614071	0.000191
 220	2.1791e+01	8.7238	27.605934	0.000426	4.257150	1.442361	0.000170
 221	2.1890e+01	8.7607	27.759345	0.000385	3.851707	1.304994	0.000154
 222	2.1989e+01	8.8056	27.900645	0.000355	3.547625	1.201968	0.000142
 223	2.2089e+01	8.8313	28.102502	0.000507	5.068036	1.717097	0.000203
 224	2.2189e+01	8.8874	28.207467	0.000264	2.635379	0.892890	0.000105
 225	2.2288e+01	8.9243	28.348767	0.000355	3.547625	1.201968	0.000142
 226	2.2387e+01	8.9564	28.502178	0.000385	3.851707	1.304994	0.000154
 227	2.2487e+01	9.0062	28.643478	0.000355	3.547625	1.201968	0.000142
 228	2.2587e+01	9.0511	28.825149	0.000456	4.561232	1.545387	0.000183
 229	2.2686e+01	9.0816	29.006820	0.000456	4.561232	1.545387	0.000183
 230	2.2785e+01	9.1249	29.160231	0.000385	3.851707	1.304994	0.000154
 231	2.2885e+01	9.1570	29.321717	0.000405	4.054429	1.373678	0.000162
 232	2.2985e+01	9.1971	29.503388	0.000456	4.561232	1.545387	0.000183
 233	2.3084e+01	9.2452	29.676985	0.000436	4.358511	1.476703	0.000174
 234	2.3183e+01	9.2741	29.806173	0.000324	3.243543	1.098942	0.000130
 235	2.3283e+01	9.3190	29.967659	0.000405	4.054429	1.373678	0.000162
 236	2.3383e+01	9.3575	30.117033	0.000375	3.750346	1.270652	0.000150
 237	2.3482e+01	9.4040	30.282555	0.000416	4.155789	1.408020	0.000166
 238	2.3581e+01	9.4393	30.452115	0.000426	4.257150	1.442361	0.000170
 239	2.3681e+01	9.4842	30.605526	0.000385	3.851707	1.304994	0.000154
 240	2.3780e+01	9.5227	30.758937	0.000385	3.851707	1.304994	0.000154
 241	2.3880e+01	9.5628	30.932534	0.000436	4.358511	1.476703	0.000174
 242	2.3980e+01	9.6061	31.057685	0.000314	3.142182	1.064600	0.000126
 243	2.4079e+01	9.6446	31.235319	0.000446	4.459871	1.511045	0.000179
 244	2.4178e+01	9.6896	31.380656	0.000365	3.648986	1.236310	0.000146
 245	2.4278e+01	9.7200	31.509844	0.000324	3.243543	1.098942	0.000130
 246	2.4378e+01	9.7505	31.687478	0.000446	4.459871	1.511045	0.000179
 247	2.4477e+01	9.8003	31.840890	0.000385	3.851707	1.304994	0.000154
 248	2.4576e+01	9.8339	32.026598	0.000466	4.662593	1.579729	0.000187
 249	2.4676e+01	9.8724	32.208269	0.000456	4.561232	1.545387	0.000183
 250	2.4776e+01	9.9254	32.361680	0.000385	3.851707	1.304994	0.000154
 251	2.4875e+01	9.9559	32.494906	0.000334	3.344904	1.133284	0.000134
 252	2.4974e+01	9.9992	32.664465	0.000426	4.257150	1.442361	0.000170
 253	2.5074e+01	10.0361	32.797691	0.000334	3.344904	1.133284	0.000134
 254	2.5174e+01	10.0778	32.971288	0.000436	4.358511	1.476703	0.000174
 255	2.5273e+01	10.1195	33.092402	0.000304	3.040821	1.030258	0.000122
 256	2.5372e+01	10.1468	33.282147	0.000476	4.763954	1.614071	0.000191
 257	2.5472e+01	10.1917	33.407298	0.000314	3.142182	1.064600	0.000126
 258	2.5572e+01	10.2318	33.548598	0.000355	3.547625	1.201968	0.000142
 259	2.5671e+01	10.2751	33.702009	0.000385	3.851707	1.304994	0.000154
 260	2.5770e+01	10.3184	33.899829	0.000497	4.966675	1.682755	0.000199
 261	2.5870e+01	10.3633	34.061314	0.000405	4.054429	1.373678	0.000162
 262	2.5970e+01	10.4018	34.182428	0.000304	3.040821	1.030258	0.000122
 263	2.6069e+01	10.4371	34.295468	0.000284	2.838100	0.961574	0.000114
 264	2.6169e+01	10.4788	34.444842	0.000375	3.750346	1.270652	0.000150
 265	2.6268e+01	10.5093	34.642662	0.000497	4.966675	1.682755	0.000199
 266	2.6367e+01	10.5559	34.792036	0.000375	3.750346	1.270652	0.000150
 267	2.6467e+01	10.5992	34.949484	0.000395	3.953068	1.339336	0.000158
 268	2.6567e+01	10.6345	35.098858	0.000375	3.750346	1.270652	0.000150
 269	2.6666e+01	10.6746	35.236121	0.000345	3.446264	1.167626	0.000138
 270	2.6765e+01	10.7195	35.385495	0.000375	3.750346	1.270652	0.000150
 271	2.6865e+01	10.7516	35.555054	0.000426	4.257150	1.442361	0.000170
 272	2.6965e+01	10.7981	35.712503	0.000395	3.953068	1.339336	0.000158
 273	2.7064e+01	10.8302	35.869951	0.000395	3.953068	1.339336	0.000158
 274	2.7163e+01	10.8655	35.966842	0.000243	2.432657	0.824207	0.000097
 275	2.7263e+01	10.9168	36.160625	0.000487	4.865314	1.648413	0.000195
 276	2.7363e+01	10.9521	36.297887	0.000345	3.446264	1.167626	0.000138
 277	2.7462e+01	10.9906	36.479559	0.000456	4.561232	1.545387	0.000183
 278	2.7561e+01	11.0387	36.641044	0.000405	4.054429	1.373678	0.000162
 279	2.7661e+01	11.0724	36.741972	0.000253	2.534018	0.858548	0.000101
 280	2.7761e+01	11.1141	36.903458	0.000405	4.054429	1.373678	0.000162
 281	2.7860e+01	11.1446	37.060906	0.000395	3.953068	1.339336	0.000158
 282	2.7959e+01	11.1959	37.222392	0.000405	4.054429	1.373678	0.000162
 283	2.8059e+01	11.2312	37.347543	0.000314	3.142182	1.064600	0.000126
 284	2.8159e+01	11.2762	37.521140	0.000436	4.358511	1.476703	0.000174
 285	2.8258e+01	11.3082	37.650328	0.000324	3.243543	1.098942	0.000130
 286	2.8358e+01	11.3596	37.815850	0.000416	4.155789	1.408020	0.000166
 287	2.8457e+01	11.3933	38.009633	0.000487	4.865314	1.648413	0.000195
 288	2.8556e+01	11.4414	38.134784	0.000314	3.142182	1.064600	0.000126
 289	2.8656e+01	11.4719	38.243787	0.000274	2.736739	0.927232	0.000110
 290	2.8756e+01	11.5152	38.401235	0.000395	3.953068	1.339336	0.000158
 291	2.8855e+01	11.5569	38.562721	0.000405	4.054429	1.373678	0.000162
 292	2.8954e+01	11.5906	38.708057	0.000365	3.648986	1.236310	0.000146
 293	2.9054e+01	11.6323	38.857431	0.000375	3.750346	1.270652	0.000150
 294	2.9154e+01	11.6644	39.026991	0.000426	4.257150	1.442361	0.000170
 295	2.9253e+01	11.7093	39.148105	0.000304	3.040821	1.030258	0.000122
 296	2.9352e+01	11.7510	39.297479	0.000375	3.750346	1.270652	0.000150
 297	2.9452e+01	11.7863	39.467039	0.000426	4.257150	1.442361	0.000170
 298	2.9552e+01	11.8296	39.628524	0.000405	4.054429	1.373678	0.000162
 299	2.9651e+01	11.8826	39.745601	0.000294	2.939461	0.995916	0.000118
 300	2.9750e+01	11.9146	39.878827	0.000334	3.344904	1.133284	0.000134
 301	2.9850e+01	11.9547	40.048387	0.000426	4.257150	1.442361	0.000170
 302	2.9950e+01	11.9965	40.193723	0.000365	3.648986	1.236310	0.000146
 303	3.0049e+01	12.0269	40.322912	0.000324	3.243543	1.098942	0.000130
 304	3.0148e+01	12.0702	40.520731	0.000497	4.966675	1.682755	0.000199
 305	3.0248e+01	12.1120	40.625697	0.000264	2.635379	0.892890	0.000105
 306	3.0348e+01	12.1489	40.811405	0.000466	4.662593	1.579729	0.000187
 307	3.0447e+01	12.1809	40.896185	0.000213	2.128575	0.721181	0.000085
 308	3.0547e+01	12.2323	41.081893	0.000466	4.662593	1.579729	0.000187
 309	3.0646e+01	12.2756	41.259527	0.000446	4.459871	1.511045	0.000179
 310	3.0745e+01	12.3061	41.364493	0.000264	2.635379	0.892890	0.000105
 311	3.0845e+01	12.3606	41.542127	0.000446	4.459871	1.511045	0.000179
 312	3.0945e+01	12.3911	41.671315	0.000324	3.243543	1.098942	0.000130
 313	3.1044e+01	12.4264	41.832801	0.000405	4.054429	1.373678	0.000162
 314	3.1143e+01	12.4713	41.986212	0.000385	3.851707	1.304994	0.000154
 315	3.1243e+01	12.5050	42.103289	0.000294	2.939461	0.995916	0.000118
 316	3.1343e+01	12.5451	42.264774	0.000405	4.054429	1.373678	0.000162
 317	3.1442e+01	12.5932	42.414148	0.000375	3.750346	1.270652	0.000150
 318	3.1541e+01	12.6333	42.567559	0.000385	3.851707	1.304994	0.000154
 319	3.1641e+01	12.6670	42.712896	0.000365	3.648986	1.236310	0.000146
 320	3.1741e+01	12.7103	42.817862	0.000264	2.635379	0.892890	0.000105
 321	3.1840e+01	12.7440	42.987421	0.000426	4.257150	1.442361	0.000170
 322	3.1939e+01	12.7841	43.108535	0.000304	3.040821	1.030258	0.000122
 323	3.2039e+01	12.8226	43.274058	0.000416	4.155789	1.408020	0.000166
 324	3.2139e+01	12.8692	43.443618	0.000426	4.257150	1.442361	0.000170
 325	3.2238e+01	12.9012	43.572806	0.000324	3.243543	1.098942	0.000130
 326	3.2337e+01	12.9494	43.722180	0.000375	3.750346	1.270652	0.000150
 327	3.2437e+01	12.9782	43.815034	0.000233	2.331296	0.789865	0.000093
 328	3.2536e+01	13.0183	44.024965	0.000527	5.270757	1.785781	0.000211
 329	3.2636e+01	13.0601	44.162228	0.000345	3.446264	1.167626	0.000138
 330	3.2736e+01	13.1018	44.315639	0.000385	3.851707	1.304994	0.000154
 331	3.2835e+01	13.1467	44.424642	0.000274	2.736739	0.927232	0.000110
 332	3.2934e+01	13.1788	44.574016	0.000375	3.750346	1.270652	0.000150
 333	3.3034e+01	13.2205	44.735501	0.000405	4.054429	1.373678	0.000162
 334	3.3133e+01	13.2654	44.828355	0.000233	2.331296	0.789865	0.000093
 335	3.3233e+01	13.3055	45.005989	0.000446	4.459871	1.511045	0.000179
 336	3.3333e+01	13.3424	45.203809	0.000497	4.966675	1.682755	0.000199
 337	3.3432e+01	13.3841	45.357220	0.000385	3.851707	1.304994	0.000154
 338	3.3532e+01	13.4178	45.466223	0.000274	2.736739	0.927232	0.000110
 339	3.3631e+01	13.4595	45.611560	0.000365	3.648986	1.236310	0.000146
 340	3.3730e+01	13.5044	45.736711	0.000314	3.142182	1.064600	0.000126
 341	3.3830e+01	13.5510	45.898196	0.000405	4.054429	1.373678	0.000162
 342	3.3929e+01	13.5879	46.027385	0.000324	3.243543	1.098942	0.000130
 343	3.4029e+01	13.6199	46.213093	0.000466	4.662593	1.579729	0.000187
 344	3.4129e+01	13.6649	46.350355	0.000345	3.446264	1.167626	0.000138
 345	3.4228e+01	13.7098	46.511841	0.000405	4.054429	1.373678	0.000162
 346	3.4328e+01	13.7306	46.641029	0.000324	3.243543	1.098942	0.000130
 347	3.4427e+01	13.7820	46.806552	0.000416	4.155789	1.408020	0.000166
 348	3.4526e+01	13.8253	46.955926	0.000375	3.750346	1.270652	0.000150
 349	3.4626e+01	13.8590	47.113374	0.000395	3.953068	1.339336	0.000158
 350	3.4725e+01	13.9055	47.270822	0.000395	3.953068	1.339336	0.000158
 351	3.4825e+01	13.9408	47.391936	0.000304	3.040821	1.030258	0.000122
 352	3.4925e+01	13.9809	47.577645	0.000466	4.662593	1.579729	0.000187
 353	3.5024e+01	14.0274	47.727019	0.000375	3.750346	1.270652	0.000150
 354	3.5123e+01	14.0515	47.920801	0.000487	4.865314	1.648413	0.000195
 355	3.5223e+01	14.1108	48.049990	0.000324	3.243543	1.098942	0.000130
 356	3.5322e+01	14.1381	48.219549	0.000426	4.257150	1.442361	0.000170
 357	3.5422e+01	14.1894	48.320478	0.000253	2.534018	0.858548	0.000101
 358	3.5522e+01	14.2119	48.445629	0.000314	3.142182	1.064600	0.000126
 359	3.5621e+01	14.2632	48.578854	0.000334	3.344904	1.133284	0.000134
 360	3.5721e+01	14.3001	48.732265	0.000385	3.851707	1.304994	0.000154
 361	3.5820e+01	14.3450	48.881640	0.000375	3.750346	1.270652	0.000150
 362	3.5919e+01	14.3836	49.022939	0.000355	3.547625	1.201968	0.000142
 363	3.6019e+01	14.4188	49.204610	0.000456	4.561232	1.545387	0.000183
 364	3.6118e+01	14.4622	49.329762	0.000314	3.142182	1.064600	0.000126
 365	3.6218e+01	14.4975	49.438764	0.000274	2.736739	0.927232	0.000110
 366	3.6318e+01	14.5376	49.628510	0.000476	4.763954	1.614071	0.000191
 367	3.6417e+01	14.5809	49.802106	0.000436	4.358511	1.476703	0.000174
 368	3.6517e+01	14.6242	49.915146	0.000284	2.838100	0.961574	0.000114
 369	3.6616e+01	14.6579	50.084706	0.000426	4.257150	1.442361	0.000170
 370	3.6715e+01	14.6900	50.246191	0.000405	4.054429	1.373678	0.000162
 371	3.6815e+01	14.7269	50.403640	0.000395	3.953068	1.339336	0.000158
 372	3.6914e+01	14.7670	50.553014	0.000375	3.750346	1.270652	0.000150
 373	3.7014e+01	14.8103	50.758908	0.000517	5.169396	1.751439	0.000207
 374	3.7114e+01	14.8664	50.855799	0.000243	2.432657	0.824207	0.000097
 375	3.7213e+01	14.9017	51.009210	0.000385	3.851707	1.304994	0.000154
 376	3.7313e+01	14.9386	51.106101	0.000243	2.432657	0.824207	0.000097
 377	3.7412e+01	14.9723	51.231253	0.000314	3.142182	1.064600	0.000126
 378	3.7511e+01	15.0108	51.445221	0.000537	5.372118	1.820123	0.000215
 379	3.7611e+01	15.0621	51.578446	0.000334	3.344904	1.133284	0.000134
 380	3.7711e+01	15.0942	51.719746	0.000355	3.547625	1.201968	0.000142
 381	3.7810e+01	15.1343	51.861046	0.000355	3.547625	1.201968	0.000142
 382	3.7910e+01	15.1809	51.986197	0.000314	3.142182	1.064600	0.000126
 383	3.8009e+01	15.2161	52.167868	0.000456	4.561232	1.545387	0.000183
 384	3.8108e+01	15.2482	52.305131	0.000345	3.446264	1.167626	0.000138
 385	3.8208e+01	15.2980	52.454505	0.000375	3.750346	1.270652	0.000150
 386	3.8307e+01	15.3317	52.615990	0.000405	4.054429	1.373678	0.000162
 387	3.8407e+01	15.3702	52.753253	0.000345	3.446264	1.167626	0.000138
 388	3.8507e+01	15.4135	52.922812	0.000426	4.257150	1.442361	0.000170
 389	3.8606e+01	15.4504	53.096409	0.000436	4.358511	1.476703	0.000174
 390	3.8706e+01	15.4841	53.278080	0.000456	4.561232	1.545387	0.000183
 391	3.8805e+01	15.5354	53.431491	0.000385	3.851707	1.304994	0.000154
 392	3.8904e+01	15.5755	53.548568	0.000294	2.939461	0.995916	0.000118
 393	3.9004e+01	15.6236	53.693905	0.000365	3.648986	1.236310	0.000146
 394	3.9103e+01	15.6621	53.815019	0.000304	3.040821	1.030258	0.000122
 395	3.9203e+01	15.6926	53.968431	0.000385	3.851707	1.304994	0.000154
 396	3.9303e+01	15.7311	54.105693	0.000345	3.446264	1.167626	0.000138
 397	3.9402e+01	15.7760	54.283327	0.000446	4.459871	1.511045	0.000179
 398	3.9502e+01	15.8129	54.400404	0.000294	2.939461	0.995916	0.000118
 399	3.9601e+01	15.8546	54.582075	0.000456	4.561232	1.545387	0.000183
 400	3.9700e+01	15.8851	54.699152	0.000294	2.939461	0.995916	0.000118
 401	3.9800e+01	15.9332	54.872749	0.000436	4.358511	1.476703	0.000174
 402	3.9900e+01	15.9701	54.981752	0.000274	2.736739	0.927232	0.000110
 403	3.9999e+01	16.0054	55.179571	0.000497	4.966675	1.682755	0.000199
 404	4.0099e+01	16.0536	55.288574	0.000274	2.736739	0.927232	0.000110
 405	4.0198e+01	16.0969	55.474282	0.000466	4.662593	1.579729	0.000187
 406	4.0297e+01	16.1274	55.591359	0.000294	2.939461	0.995916	0.000118
 407	4.0397e+01	16.1707	55.777067	0.000466	4.662593	1.579729	0.000187
 408	4.0496e+01	16.2140	55.938553	0.000405	4.054429	1.373678	0.000162
 409	4.0596e+01	16.2477	56.096001	0.000395	3.953068	1.339336	0.000158
 410	4.0696e+01	16.2878	56.217115	0.000304	3.040821	1.030258	0.000122
 411	4.0795e+01	16.3327	56.354378	0.000345	3.446264	1.167626	0.000138
 412	4.0895e+01	16.3696	56.499715	0.000365	3.648986	1.236310	0.000146
 413	4.0994e+01	16.4097	56.661200	0.000405	4.054429	1.373678	0.000162
 414	4.1093e+01	16.4530	56.770203	0.000274	2.736739	0.927232	0.000110
 415	4.1193e+01	16.4931	56.911502	0.000355	3.547625	1.201968	0.000142
 416	4.1292e+01	16.5284	57.077025	0.000416	4.155789	1.408020	0.000166
 417	4.1392e+01	16.5797	57.210251	0.000334	3.344904	1.133284	0.000134
 418	4.1492e+01	16.6118	57.351550	0.000355	3.547625	1.201968	0.000142
 419	4.1591e+01	16.6584	57.513036	0.000405	4.054429	1.373678	0.000162
 420	4.1691e+01	16.6840	57.650298	0.000345	3.446264	1.167626	0.000138
 421	4.1790e+01	16.7209	57.799672	0.000375	3.750346	1.270652	0.000150
 422	4.1889e+01	16.7787	57.924824	0.000314	3.142182	1.064600	0.000126
 423	4.1989e+01	16.8092	58.078235	0.000385	3.851707	1.304994	0.000154
 424	4.2089e+01	16.8557	58.247794	0.000426	4.257150	1.442361	0.000170
 425	4.2188e+01	16.8910	58.433503	0.000466	4.662593	1.579729	0.000187
 426	4.2288e+01	16.9263	58.570765	0.000345	3.446264	1.167626	0.000138
 427	4.2387e+01	16.9776	58.736288	0.000416	4.155789	1.408020	0.000166
 428	4.2486e+01	17.0097	58.853365	0.000294	2.939461	0.995916	0.000118
 429	4.2586e+01	17.0530	59.026962	0.000436	4.358511	1.476703	0.000174
 430	4.2685e+01	17.0979	59.111741	0.000213	2.128575	0.721181	0.000085
 431	4.2785e+01	17.1284	59.224781	0.000284	2.838100	0.961574	0.000114
 432	4.2885e+01	17.1701	59.358007	0.000334	3.344904	1.133284	0.000134
 433	4.2984e+01	17.2118	59.519492	0.000405	4.054429	1.373678	0.000162
 434	4.3084e+01	17.2471	59.620421	0.000253	2.534018	0.858548	0.000101
 435	4.3183e+01	17.2872	59.806129	0.000466	4.662593	1.579729	0.000187
 436	4.3282e+01	17.3321	59.951466	0.000365	3.648986	1.236310	0.000146
 437	4.3382e+01	17.3690	60.100840	0.000375	3.750346	1.270652	0.000150
 438	4.3481e+01	17.4059	60.242139	0.000355	3.547625	1.201968	0.000142
 439	4.3581e+01	17.4444	60.387476	0.000365	3.648986	1.236310	0.000146
 440	4.3681e+01	17.4781	60.512628	0.000314	3.142182	1.064600	0.000126
 441	4.3780e+01	17.5278	60.629705	0.000294	2.939461	0.995916	0.000118
 442	4.3880e+01	17.5712	60.787153	0.000395	3.953068	1.339336	0.000158
 443	4.3979e+01	17.6049	60.980935	0.000487	4.865314	1.648413	0.000195
 444	4.4078e+01	17.6498	61.126272	0.000365	3.648986	1.236310	0.000146
 445	4.4178e+01	17.6979	61.255461	0.000324	3.243543	1.098942	0.000130
 446	4.4278e+01	17.7236	61.433095	0.000446	4.459871	1.511045	0.000179
 447	4.4377e+01	17.7733	61.550171	0.000294	2.939461	0.995916	0.000118
 448	4.4477e+01	17.8118	61.671286	0.000304	3.040821	1.030258	0.000122
 449	4.4576e+01	17.8487	61.764140	0.000233	2.331296	0.789865	0.000093
 450	4.4675e+01	17.8856	61.909477	0.000365	3.648986	1.236310	0.000146
 451	4.4775e+01	17.9289	62.030591	0.000304	3.040821	1.030258	0.000122
 452	4.4874e+01	17.9610	62.196113	0.000416	4.155789	1.408020	0.000166
 453	4.4974e+01	17.9963	62.321264	0.000314	3.142182	1.064600	0.000126
 454	4.5074e+01	18.0396	62.458527	0.000345	3.446264	1.167626	0.000138
 455	4.5173e+01	18.0829	62.620012	0.000405	4.054429	1.373678	0.000162
 456	4.5273e+01	18.1246	62.765349	0.000365	3.648986	1.236310	0.000146
 457	4.5372e+01	18.1567	62.910686	0.000365	3.648986	1.236310	0.000146
 458	4.5471e+01	18.2096	63.007577	0.000243	2.432657	0.824207	0.000097
 459	4.5571e+01	18.2530	63.181174	0.000436	4.358511	1.476703	0.000174
 460	4.5670e+01	18.2850	63.314400	0.000334	3.344904	1.133284	0.000134
 461	4.5770e+01	18.3107	63.508182	0.000487	4.865314	1.648413	0.000195
 462	4.5870e+01	18.3604	63.645445	0.000345	3.446264	1.167626	0.000138
 463	4.5969e+01	18.4086	63.778670	0.000334	3.344904	1.133284	0.000134
 464	4.6069e+01	18.4503	63.936119	0.000395	3.953068	1.339336	0.000158
 465	4.6168e+01	18.4920	64.073381	0.000345	3.446264	1.167626	0.000138
 466	4.6267e+01	18.5257	64.174310	0.000253	2.534018	0.858548	0.000101
 467	4.6367e+01	18.5578	64.327721	0.000385	3.851707	1.304994	0.000154
 468	4.6467e+01	18.6075	64.408464	0.000203	2.027214	0.686839	0.000081
 469	4.6566e+01	18.6476	64.513429	0.000264	2.635379	0.892890	0.000105
 470	4.6666e+01	18.6861	64.682989	0.000426	4.257150	1.442361	0.000170
 471	4.6765e+01	18.7166	64.787954	0.000264	2.635379	0.892890	0.000105
 472	4.6864e+01	18.7711	64.965588	0.000446	4.459871	1.511045	0.000179
 473	4.6964e+01	18.8032	65.086702	0.000304	3.040821	1.030258	0.000122
 474	4.7063e+01	18.8465	65.240114	0.000385	3.851707	1.304994	0.000154
 475	4.7163e+01	18.8818	65.369302	0.000324	3.243543	1.098942	0.000130
 476	4.7263e+01	18.9171	65.526750	0.000395	3.953068	1.339336	0.000158
 477	4.7362e+01	18.9588	65.627679	0.000253	2.534018	0.858548	0.000101
 478	4.7462e+01	18.9973	65.793201	0.000416	4.155789	1.408020	0.000166
 479	4.7561e+01	19.0342	65.922389	0.000324	3.243543	1.098942	0.000130
 480	4.7660e+01	19.0856	66.108098	0.000466	4.662593	1.579729	0.000187
 481	4.7760e+01	19.1225	66.249397	0.000355	3.547625	1.201968	0.000142
 482	4.7859e+01	19.1610	66.390697	0.000355	3.547625	1.201968	0.000142
 483	4.7959e+01	19.1979	66.552183	0.000405	4.054429	1.373678	0.000162
 484	4.8059e+01	19.2396	66.632925	0.000203	2.027214	0.686839	0.000081
 485	4.8158e+01	19.2845	66.754039	0.000304	3.040821	1.030258	0.000122
 486	4.8258e+01	19.3085	66.883228	0.000324	3.243543	1.098942	0.000130
 487	4.8357e+01	19.3663	66.992230	0.000274	2.736739	0.927232	0.000110
 488	4.8456e+01	19.3968	67.113345	0.000304	3.040821	1.030258	0.000122
 489	4.8556e+01	19.4369	67.290978	0.000446	4.459871	1.511045	0.000179
 490	4.8656e+01	19.4754	67.383833	0.000233	2.331296	0.789865	0.000093
 491	4.8755e+01	19.5203	67.521095	0.000345	3.446264	1.167626	0.000138
 492	4.8855e+01	19.5588	67.682581	0.000405	4.054429	1.373678	0.000162
 493	4.8954e+01	19.6053	67.811769	0.000324	3.243543	1.098942	0.000130
 494	4.9053e+01	19.6390	67.920772	0.000274	2.736739	0.927232	0.000110
 495	4.9153e+01	19.6695	68.110517	0.000476	4.763954	1.614071	0.000191
 496	4.9252e+01	19.7192	68.211445	0.000253	2.534018	0.858548	0.000101
 497	4.9352e+01	19.7577	68.364857	0.000385	3.851707	1.304994	0.000154
 498	4.9452e+01	19.8026	68.534416	0.000426	4.257150	1.442361	0.000170
 499	4.9551e+01	19.8428	68.671679	0.000345	3.446264	1.167626	0.000138
 500	4.9651e+01	19.8652	68.821053	0.000375	3.750346	1.270652	0.000150
 501	4.9750e+01	19.9214	68.942167	0.000304	3.040821	1.030258	0.000122
 502	4.9849e+01	19.9647	69.063281	0.000304	3.040821	1.030258	0.000122
 503	4.9949e+01	20.0000	69.204581	0.000355	3.547625	1.201968	0.000142
 504	5.0048e+01	19.9534	69.087504	0.000294	2.939461	0.995916	-0.000118
 505	5.0148e+01	19.9214	68.962353	0.000314	3.142182	1.064600	-0.000126
 506	5.0248e+01	19.8829	68.853350	0.000274	2.736739	0.927232	-0.000110
 507	5.0347e+01	19.8363	68.752422	0.000253	2.534018	0.858548	-0.000101
 508	5.0447e+01	19.7930	68.643419	0.000274	2.736739	0.927232	-0.000110
 509	5.0546e+01	19.7609	68.518268	0.000314	3.142182	1.064600	-0.000126
 510	5.0645e+01	19.7144	68.385042	0.000334	3.344904	1.133284	-0.000134
 511	5.0745e+01	19.6759	68.304300	0.000203	2.027214	0.686839	-0.000081
 512	5.0844e+01	19.6326	68.223557	0.000203	2.027214	0.686839	-0.000081
 513	5.0944e+01	19.5973	68.086294	0.000345	3.446264	1.167626	-0.000138
 514	5.1044e+01	19.5572	68.005552	0.000203	2.027214	0.686839	-0.000081
 515	5.1143e+01	19.5123	67.896549	0.000274	2.736739	0.927232	-0.000110
 516	5.1242e+01	19.4738	67.844066	0.000132	1.317689	0.446445	-0.000053
 517	5.1342e+01	19.4401	67.698729	0.000365	3.648986	1.236310	-0.000146
 518	5.1441e+01	19.4048	67.589727	0.000274	2.736739	0.927232	-0.000110
 519	5.1541e+01	19.3599	67.500910	0.000223	2.229936	0.755523	-0.000089
 520	5.1641e+01	19.3198	67.391907	0.000274	2.736739	0.927232	-0.000110
 521	5.1740e+01	19.2877	67.274830	0.000294	2.939461	0.995916	-0.000118
 522	5.1840e+01	19.2428	67.129493	0.000365	3.648986	1.236310	-0.000146
 523	5.1939e+01	19.1946	67.044713	0.000213	2.128575	0.721181	-0.000085
 524	5.2038e+01	19.1594	66.879191	0.000416	4.155789	1.408020	-0.000166
 525	5.2138e+01	19.1192	66.741928	0.000345	3.446264	1.167626	-0.000138
 526	5.2237e+01	19.0872	66.641000	0.000253	2.534018	0.858548	-0.000101
 527	5.2337e+01	19.0438	66.531997	0.000274	2.736739	0.927232	-0.000110
 528	5.2437e+01	18.9973	66.435106	0.000243	2.432657	0.824207	-0.000097
 529	5.2536e+01	18.9620	66.293806	0.000355	3.547625	1.201968	-0.000142
 530	5.2636e+01	18.9267	66.184803	0.000274	2.736739	0.927232	-0.000110
 531	5.2735e+01	18.8866	66.091949	0.000233	2.331296	0.789865	-0.000093
 532	5.2834e+01	18.8465	65.962761	0.000324	3.243543	1.098942	-0.000130
 533	5.2934e+01	18.8032	65.857795	0.000264	2.635379	0.892890	-0.000105
 534	5.3033e+01	18.7631	65.789164	0.000172	1.723132	0.583813	-0.000069
 535	5.3133e+01	18.7198	65.639790	0.000375	3.750346	1.270652	-0.000150
 536	5.3233e+01	18.6861	65.538862	0.000253	2.534018	0.858548	-0.000101
 537	5.3332e+01	18.6412	65.454082	0.000213	2.128575	0.721181	-0.000085
 538	5.3431e+01	18.5931	65.296633	0.000395	3.953068	1.339336	-0.000158
 539	5.3531e+01	18.5626	65.232039	0.000162	1.621771	0.549471	-0.000065
 540	5.3630e+01	18.5225	65.118999	0.000284	2.838100	0.961574	-0.000114
 541	5.3730e+01	18.4840	64.937328	0.000456	4.561232	1.545387	-0.000183
 542	5.3830e+01	18.4439	64.779880	0.000395	3.953068	1.339336	-0.000158
 543	5.3929e+01	18.4038	64.642617	0.000345	3.446264	1.167626	-0.000138
 544	5.4029e+01	18.3653	64.541689	0.000253	2.534018	0.858548	-0.000101
 545	5.4128e+01	18.3235	64.428649	0.000284	2.838100	0.961574	-0.000114
 546	5.4227e+01	18.2802	64.287349	0.000355	3.547625	1.201968	-0.000142
 547	5.4327e+01	18.2417	64.182384	0.000264	2.635379	0.892890	-0.000105
 548	5.4426e+01	18.1904	64.069344	0.000284	2.838100	0.961574	-0.000114
 549	5.4526e+01	18.1647	63.944193	0.000314	3.142182	1.064600	-0.000126
 550	5.4626e+01	18.1182	63.843265	0.000253	2.534018	0.858548	-0.000101
 551	5.4725e+01	18.0829	63.734262	0.000274	2.736739	0.927232	-0.000110
 552	5.4825e+01	18.0508	63.641408	0.000233	2.331296	0.789865	-0.000093
 553	5.4924e+01	18.0091	63.568739	0.000182	1.824493	0.618155	-0.000073
 554	5.5023e+01	17.9674	63.467811	0.000253	2.534018	0.858548	-0.000101
 555	5.5123e+01	17.9321	63.338623	0.000324	3.243543	1.098942	-0.000130
 556	5.5222e+01	17.8808	63.193286	0.000365	3.648986	1.236310	-0.000146
 557	5.5322e+01	17.8455	63.068134	0.000314	3.142182	1.064600	-0.000126
 558	5.5422e+01	17.8054	62.947020	0.000304	3.040821	1.030258	-0.000122
 559	5.5521e+01	17.7653	62.870315	0.000193	1.925854	0.652497	-0.000077
 560	5.5620e+01	17.7300	62.692681	0.000446	4.459871	1.511045	-0.000179
 561	5.5720e+01	17.6867	62.535233	0.000395	3.953068	1.339336	-0.000158
 562	5.5819e+01	17.6369	62.381821	0.000385	3.851707	1.304994	-0.000154
 563	5.5919e+01	17.6016	62.272819	0.000274	2.736739	0.927232	-0.000110
 564	5.6019e+01	17.5663	62.184002	0.000223	2.229936	0.755523	-0.000089
 565	5.6118e+01	17.5246	62.070962	0.000284	2.838100	0.961574	-0.000114
 566	5.6218e+01	17.4926	61.921588	0.000375	3.750346	1.270652	-0.000150
 567	5.6317e+01	17.4460	61.812585	0.000274	2.736739	0.927232	-0.000110
 568	5.6416e+01	17.3995	61.707620	0.000264	2.635379	0.892890	-0.000105
 569	5.6516e+01	17.3658	61.602654	0.000264	2.635379	0.892890	-0.000105
 570	5.6615e+01	17.3193	61.529986	0.000182	1.824493	0.618155	-0.000073
 571	5.6715e+01	17.2888	61.392723	0.000345	3.446264	1.167626	-0.000138
 572	5.6815e+01	17.2503	61.299869	0.000233	2.331296	0.789865	-0.000093
 573	5.6914e+01	17.2038	61.150495	0.000375	3.750346	1.270652	-0.000150
 574	5.7014e+01	17.1701	61.041492	0.000274	2.736739	0.927232	-0.000110
 575	5.7113e+01	17.1268	60.904230	0.000345	3.446264	1.167626	-0.000138
 576	5.7212e+01	17.0835	60.799264	0.000264	2.635379	0.892890	-0.000105
 577	5.7312e+01	17.0514	60.670076	0.000324	3.243543	1.098942	-0.000130
 578	5.7411e+01	17.0177	60.544925	0.000314	3.142182	1.064600	-0.000126
 579	5.7511e+01	16.9712	60.415736	0.000324	3.243543	1.098942	-0.000130
 580	5.7611e+01	16.9359	60.266362	0.000375	3.750346	1.270652	-0.000150
 581	5.7710e+01	16.8846	60.145248	0.000304	3.040821	1.030258	-0.000122
 582	5.7809e+01	16.8444	60.003948	0.000355	3.547625	1.201968	-0.000142
 583	5.7909e+01	16.8156	59.834389	0.000426	4.257150	1.442361	-0.000170
 584	5.8008e+01	16.7594	59.765757	0.000172	1.723132	0.583813	-0.000069
 585	5.8108e+01	16.7321	59.640606	0.000314	3.142182	1.064600	-0.000126
 586	5.8208e+01	16.6936	59.523529	0.000294	2.939461	0.995916	-0.000118
 587	5.8307e+01	16.6567	59.418564	0.000264	2.635379	0.892890	-0.000105
 588	5.8407e+01	16.6102	59.317635	0.000253	2.534018	0.858548	-0.000101
 589	5.8506e+01	16.5733	59.192484	0.000314	3.142182	1.064600	-0.000126
 590	5.8605e+01	16.5428	59.075407	0.000294	2.939461	0.995916	-0.000118
 591	5.8705e+01	16.4883	58.926033	0.000375	3.750346	1.270652	-0.000150
 592	5.8804e+01	16.4514	58.845291	0.000203	2.027214	0.686839	-0.000081
 593	5.8904e+01	16.4097	58.691879	0.000385	3.851707	1.304994	-0.000154
 594	5.9004e+01	16.3744	58.590951	0.000253	2.534018	0.858548	-0.000101
 595	5.9103e+01	16.3279	58.457725	0.000334	3.344904	1.133284	-0.000134
 596	5.9203e+01	16.2862	58.352760	0.000264	2.635379	0.892890	-0.000105
 597	5.9302e+01	16.2525	58.207423	0.000365	3.648986	1.236310	-0.000146
 598	5.9401e+01	16.2108	58.013641	0.000487	4.865314	1.648413	-0.000195
 599	5.9501e+01	16.1707	57.888489	0.000314	3.142182	1.064600	-0.000126
 600	5.9600e+01	16.1306	57.779487	0.000274	2.736739	0.927232	-0.000110
 601	5.9700e+01	16.0953	57.601853	0.000446	4.459871	1.511045	-0.000179
 602	5.9800e+01	16.0520	57.492850	0.000274	2.736739	0.927232	-0.000110
 603	5.9899e+01	16.0151	57.363662	0.000324	3.243543	1.098942	-0.000130
 604	5.9998e+01	15.9782	57.238510	0.000314	3.142182	1.064600	-0.000126
 605	6.0098e+01	15.9316	57.137582	0.000253	2.534018	0.858548	-0.000101
 606	6.0197e+01	15.8931	56.988208	0.000375	3.750346	1.270652	-0.000150
 607	6.0297e+01	15.8578	56.891317	0.000243	2.432657	0.824207	-0.000097
 608	6.0397e+01	15.8097	56.778277	0.000284	2.838100	0.961574	-0.000114
 609	6.0496e+01	15.7760	56.661200	0.000294	2.939461	0.995916	-0.000118
 610	6.0596e+01	15.7263	56.511826	0.000375	3.750346	1.270652	-0.000150
 611	6.0695e+01	15.6926	56.398786	0.000284	2.838100	0.961574	-0.000114
 612	6.0794e+01	15.6381	56.257487	0.000355	3.547625	1.201968	-0.000142
 613	6.0894e+01	15.6124	56.140410	0.000294	2.939461	0.995916	-0.000118
 614	6.0993e+01	15.5803	56.027370	0.000284	2.838100	0.961574	-0.000114
 615	6.1093e+01	15.5434	55.865884	0.000405	4.054429	1.373678	-0.000162
 616	6.1193e+01	15.5001	55.716510	0.000375	3.750346	1.270652	-0.000150
 617	6.1292e+01	15.4648	55.575211	0.000355	3.547625	1.201968	-0.000142
 618	6.1392e+01	15.4135	55.405651	0.000426	4.257150	1.442361	-0.000170
 619	6.1491e+01	15.3798	55.304722	0.000253	2.534018	0.858548	-0.000101
 620	6.1590e+01	15.3397	55.175534	0.000324	3.243543	1.098942	-0.000130
 621	6.1690e+01	15.2835	54.997900	0.000446	4.459871	1.511045	-0.000179
 622	6.1789e+01	15.2563	54.921195	0.000193	1.925854	0.652497	-0.000077
 623	6.1889e+01	15.2081	54.816229	0.000264	2.635379	0.892890	-0.000105
 624	6.1989e+01	15.1744	54.707226	0.000274	2.736739	0.927232	-0.000110
 625	6.2088e+01	15.1343	54.537667	0.000426	4.257150	1.442361	-0.000170
 626	6.2188e+01	15.0910	54.444813	0.000233	2.331296	0.789865	-0.000093
 627	6.2287e+01	15.0509	54.303513	0.000355	3.547625	1.201968	-0.000142
 628	6.2386e+01	15.0172	54.186436	0.000294	2.939461	0.995916	-0.000118
 629	6.2486e+01	14.9739	54.033025	0.000385	3.851707	1.304994	-0.000154
 630	6.2586e+01	14.9338	53.915948	0.000294	2.939461	0.995916	-0.000118
 631	6.2685e+01	14.8921	53.782722	0.000334	3.344904	1.133284	-0.000134
 632	6.2785e+01	14.8680	53.633348	0.000375	3.750346	1.270652	-0.000150
 633	6.2884e+01	14.8183	53.471863	0.000405	4.054429	1.373678	-0.000162
 634	6.2983e+01	14.7718	53.358823	0.000284	2.838100	0.961574	-0.000114
 635	6.3083e+01	14.7317	53.225598	0.000334	3.344904	1.133284	-0.000134
 636	6.3182e+01	14.6964	53.084298	0.000355	3.547625	1.201968	-0.000142
 637	6.3282e+01	14.6579	52.890515	0.000487	4.865314	1.648413	-0.000195
 638	6.3382e+01	14.6210	52.781513	0.000274	2.736739	0.927232	-0.000110
 639	6.3481e+01	14.5729	52.644250	0.000345	3.446264	1.167626	-0.000138
 640	6.3581e+01	14.5408	52.527173	0.000294	2.939461	0.995916	-0.000118
 641	6.3680e+01	14.5007	52.406059	0.000304	3.040821	1.030258	-0.000122
 642	6.3779e+01	14.4590	52.325316	0.000203	2.027214	0.686839	-0.000081
 643	6.3879e+01	14.4188	52.155757	0.000426	4.257150	1.442361	-0.000170
 644	6.3978e+01	14.3836	52.006383	0.000375	3.750346	1.270652	-0.000150
 645	6.4078e+01	14.3370	51.877194	0.000324	3.243543	1.098942	-0.000130
 646	6.4177e+01	14.2889	51.788377	0.000223	2.229936	0.755523	-0.000089
 647	6.4277e+01	14.2552	51.651115	0.000345	3.446264	1.167626	-0.000138
 648	6.4376e+01	14.2103	51.497703	0.000385	3.851707	1.304994	-0.000154
 649	6.4476e+01	14.1750	51.356404	0.000355	3.547625	1.201968	-0.000142
 650	6.4576e+01	14.1333	51.223178	0.000334	3.344904	1.133284	-0.000134
 651	6.4675e+01	14.0900	51.089953	0.000334	3.344904	1.133284	-0.000134
 652	6.4775e+01	14.0595	50.956727	0.000334	3.344904	1.133284	-0.000134
 653	6.4874e+01	14.0274	50.799279	0.000395	3.953068	1.339336	-0.000158
 654	6.4974e+01	13.9809	50.649905	0.000375	3.750346	1.270652	-0.000150
 655	6.5073e+01	13.9392	50.456122	0.000487	4.865314	1.648413	-0.000195
 656	6.5172e+01	13.8894	50.298674	0.000395	3.953068	1.339336	-0.000158
 657	6.5272e+01	13.8590	50.201783	0.000243	2.432657	0.824207	-0.000097
 658	6.5371e+01	13.8157	50.072595	0.000324	3.243543	1.098942	-0.000130
 659	6.5471e+01	13.7804	49.979740	0.000233	2.331296	0.789865	-0.000093
 660	6.5570e+01	13.7451	49.822292	0.000395	3.953068	1.339336	-0.000158
 661	6.5670e+01	13.6985	49.689067	0.000334	3.344904	1.133284	-0.000134
 662	6.5769e+01	13.6600	49.604287	0.000213	2.128575	0.721181	-0.000085
 663	6.5869e+01	13.6167	49.442801	0.000405	4.054429	1.373678	-0.000162
 664	6.5969e+01	13.5862	49.313613	0.000324	3.243543	1.098942	-0.000130
 665	6.6068e+01	13.5477	49.196536	0.000294	2.939461	0.995916	-0.000118
 666	6.6168e+01	13.4916	49.010828	0.000466	4.662593	1.579729	-0.000187
 667	6.6267e+01	13.4547	48.926048	0.000213	2.128575	0.721181	-0.000085
 668	6.6367e+01	13.4290	48.772637	0.000385	3.851707	1.304994	-0.000154
 669	6.6466e+01	13.3889	48.607114	0.000416	4.155789	1.408020	-0.000166
 670	6.6566e+01	13.3360	48.477926	0.000324	3.243543	1.098942	-0.000130
 671	6.6665e+01	13.2943	48.320478	0.000395	3.953068	1.339336	-0.000158
 672	6.6764e+01	13.2606	48.203401	0.000294	2.939461	0.995916	-0.000118
 673	6.6864e+01	13.2189	48.025767	0.000446	4.459871	1.511045	-0.000179
 674	6.6963e+01	13.1820	47.896578	0.000324	3.243543	1.098942	-0.000130
 675	6.7063e+01	13.1435	47.763353	0.000334	3.344904	1.133284	-0.000134
 676	6.7162e+01	13.1050	47.557459	0.000517	5.169396	1.751439	-0.000207
 677	6.7262e+01	13.0520	47.500939	0.000142	1.419050	0.480787	-0.000057
 678	6.7362e+01	13.0280	47.355602	0.000365	3.648986	1.236310	-0.000146
 679	6.7461e+01	12.9831	47.230451	0.000314	3.142182	1.064600	-0.000126
 680	6.7561e+01	12.9462	47.153745	0.000193	1.925854	0.652497	-0.000077
 681	6.7660e+01	12.9109	47.008409	0.000365	3.648986	1.236310	-0.000146
 682	6.7760e+01	12.8724	46.859035	0.000375	3.750346	1.270652	-0.000150
 683	6.7859e+01	12.8242	46.721772	0.000345	3.446264	1.167626	-0.000138
 684	6.7959e+01	12.7954	46.560286	0.000405	4.054429	1.373678	-0.000162
 685	6.8058e+01	12.7520	46.463395	0.000243	2.432657	0.824207	-0.000097
 686	6.8157e+01	12.6975	46.322095	0.000355	3.547625	1.201968	-0.000142
 687	6.8257e+01	12.6574	46.205019	0.000294	2.939461	0.995916	-0.000118
 688	6.8356e+01	12.6365	46.063719	0.000355	3.547625	1.201968	-0.000142
 689	6.8456e+01	12.5884	45.946642	0.000294	2.939461	0.995916	-0.000118
 690	6.8555e+01	12.5499	45.797268	0.000375	3.750346	1.270652	-0.000150
 691	6.8655e+01	12.5066	45.651931	0.000365	3.648986	1.236310	-0.000146
 692	6.8754e+01	12.4697	45.502557	0.000375	3.750346	1.270652	-0.000150
 693	6.8854e+01	12.4344	45.357220	0.000365	3.648986	1.236310	-0.000146
 694	6.8954e+01	12.3943	45.199772	0.000395	3.953068	1.339336	-0.000158
 695	6.9053e+01	12.3446	45.090769	0.000274	2.736739	0.927232	-0.000110
 696	6.9153e+01	12.3141	44.957544	0.000334	3.344904	1.133284	-0.000134
 697	6.9252e+01	12.2740	44.852578	0.000264	2.635379	0.892890	-0.000105
 698	6.9352e+01	12.2355	44.662833	0.000476	4.763954	1.614071	-0.000191
 699	6.9451e+01	12.1954	44.561904	0.000253	2.534018	0.858548	-0.000101
 700	6.9550e+01	12.1440	44.404456	0.000395	3.953068	1.339336	-0.000158
 701	6.9650e+01	12.1055	44.259119	0.000365	3.648986	1.236310	-0.000146
 702	6.9749e+01	12.0606	44.170302	0.000223	2.229936	0.755523	-0.000089
 703	6.9849e+01	12.0253	43.944223	0.000568	5.676200	1.923149	-0.000227
 704	6.9948e+01	11.9868	43.891740	0.000132	1.317689	0.446445	-0.000053
 705	7.0048e+01	11.9499	43.758514	0.000334	3.344904	1.133284	-0.000134
 706	7.0147e+01	11.9114	43.609140	0.000375	3.750346	1.270652	-0.000150
 707	7.0247e+01	11.8777	43.431506	0.000446	4.459871	1.511045	-0.000179
 708	7.0347e+01	11.8264	43.330578	0.000253	2.534018	0.858548	-0.000101
 709	7.0446e+01	11.7927	43.237724	0.000233	2.331296	0.789865	-0.000093
 710	7.0546e+01	11.7478	43.076238	0.000405	4.054429	1.373678	-0.000162
 711	7.0645e+01	11.7157	42.918790	0.000395	3.953068	1.339336	-0.000158
 712	7.0745e+01	11.6724	42.753267	0.000416	4.155789	1.408020	-0.000166
 713	7.0844e+01	11.6211	42.624079	0.000324	3.243543	1.098942	-0.000130
 714	7.0944e+01	11.5954	42.511039	0.000284	2.838100	0.961574	-0.000114
 715	7.1043e+01	11.5569	42.385888	0.000314	3.142182	1.064600	-0.000126
 716	7.1142e+01	11.5136	42.208254	0.000446	4.459871	1.511045	-0.000179
 717	7.1242e+01	11.4735	42.099251	0.000274	2.736739	0.927232	-0.000110
 718	7.1341e+01	11.4286	41.986212	0.000284	2.838100	0.961574	-0.000114
 719	7.1441e+01	11.4029	41.840875	0.000365	3.648986	1.236310	-0.000146
 720	7.1540e+01	11.3532	41.719761	0.000304	3.040821	1.030258	-0.000122
 721	7.1640e+01	11.3114	41.542127	0.000446	4.459871	1.511045	-0.000179
 722	7.1740e+01	11.2665	41.421013	0.000304	3.040821	1.030258	-0.000122
 723	7.1839e+01	11.2441	41.299899	0.000304	3.040821	1.030258	-0.000122
 724	7.1939e+01	11.1911	41.162636	0.000345	3.446264	1.167626	-0.000138
 725	7.2038e+01	11.1478	41.017299	0.000365	3.648986	1.236310	-0.000146
 726	7.2138e+01	11.1205	40.904259	0.000284	2.838100	0.961574	-0.000114
 727	7.2237e+01	11.0756	40.771034	0.000334	3.344904	1.133284	-0.000134
 728	7.2337e+01	11.0387	40.605511	0.000416	4.155789	1.408020	-0.000166
 729	7.2436e+01	10.9922	40.492471	0.000284	2.838100	0.961574	-0.000114
 730	7.2535e+01	10.9553	40.310800	0.000456	4.561232	1.545387	-0.000183
 731	7.2635e+01	10.9152	40.238132	0.000182	1.824493	0.618155	-0.000073
 732	7.2734e+01	10.8719	40.100869	0.000345	3.446264	1.167626	-0.000138
 733	7.2834e+01	10.8334	39.931310	0.000426	4.257150	1.442361	-0.000170
 734	7.2933e+01	10.7949	39.794047	0.000345	3.446264	1.167626	-0.000138
 735	7.3033e+01	10.7564	39.660821	0.000334	3.344904	1.133284	-0.000134
 736	7.3132e+01	10.7147	39.515485	0.000365	3.648986	1.236310	-0.000146
 737	7.3232e+01	10.6842	39.362073	0.000385	3.851707	1.304994	-0.000154
 738	7.3332e+01	10.6280	39.257108	0.000264	2.635379	0.892890	-0.000105
 739	7.3431e+01	10.5992	39.131957	0.000314	3.142182	1.064600	-0.000126
 740	7.3531e+01	10.5623	38.978546	0.000385	3.851707	1.304994	-0.000154
 741	7.3630e+01	10.5206	38.865506	0.000284	2.838100	0.961574	-0.000114
 742	7.3730e+01	10.4772	38.720169	0.000365	3.648986	1.236310	-0.000146
 743	7.3829e+01	10.4355	38.546572	0.000436	4.358511	1.476703	-0.000174
 744	7.3928e+01	10.4002	38.437569	0.000274	2.736739	0.927232	-0.000110
 745	7.4028e+01	10.3553	38.284158	0.000385	3.851707	1.304994	-0.000154
 746	7.4127e+01	10.3072	38.126710	0.000395	3.953068	1.339336	-0.000158
 747	7.4227e+01	10.2815	38.017707	0.000274	2.736739	0.927232	-0.000110
 748	7.4326e+01	10.2302	37.888519	0.000324	3.243543	1.098942	-0.000130
 749	7.4426e+01	10.1965	37.767405	0.000304	3.040821	1.030258	-0.000122
 750	7.4525e+01	10.1660	37.609957	0.000395	3.953068	1.339336	-0.000158
 751	7.4625e+01	10.1179	37.492880	0.000294	2.939461	0.995916	-0.000118
 752	7.4725e+01	10.0730	37.307171	0.000466	4.662593	1.579729	-0.000187
 753	7.4824e+01	10.0329	37.169909	0.000345	3.446264	1.167626	-0.000138
 754	7.4924e+01	10.0072	37.028609	0.000355	3.547625	1.201968	-0.000142
 755	7.5023e+01	9.9623	36.850975	0.000446	4.459871	1.511045	-0.000179
 756	7.5123e+01	9.9158	36.758121	0.000233	2.331296	0.789865	-0.000093
 757	7.5222e+01	9.8741	36.600673	0.000395	3.953068	1.339336	-0.000158
 758	7.5322e+01	9.8404	36.447261	0.000385	3.851707	1.304994	-0.000154
 759	7.5421e+01	9.8051	36.326147	0.000304	3.040821	1.030258	-0.000122
 760	7.5520e+01	9.7537	36.209070	0.000294	2.939461	0.995916	-0.000118
 761	7.5620e+01	9.7249	36.059696	0.000375	3.750346	1.270652	-0.000150
 762	7.5719e+01	9.6815	35.898211	0.000405	4.054429	1.373678	-0.000162
 763	7.5819e+01	9.6430	35.740763	0.000395	3.953068	1.339336	-0.000158
 764	7.5918e+01	9.6045	35.623686	0.000294	2.939461	0.995916	-0.000118
 765	7.6018e+01	9.5644	35.486423	0.000345	3.446264	1.167626	-0.000138
 766	7.6118e+01	9.5195	35.324938	0.000405	4.054429	1.373678	-0.000162
 767	7.6217e+01	9.4842	35.224009	0.000253	2.534018	0.858548	-0.000101
 768	7.6317e+01	9.4473	35.110970	0.000284	2.838100	0.961574	-0.000114
 769	7.6416e+01	9.3976	34.921224	0.000476	4.763954	1.614071	-0.000191
 770	7.6516e+01	9.3591	34.747627	0.000436	4.358511	1.476703	-0.000174
 771	7.6615e+01	9.3206	34.638625	0.000274	2.736739	0.927232	-0.000110
 772	7.6715e+01	9.2773	34.469065	0.000426	4.257150	1.442361	-0.000170
 773	7.6814e+01	9.2388	34.307580	0.000405	4.054429	1.373678	-0.000162
 774	7.6913e+01	9.1987	34.162243	0.000365	3.648986	1.236310	-0.000146
 775	7.7013e+01	9.1682	33.996720	0.000416	4.155789	1.408020	-0.000166
 776	7.7112e+01	9.1265	33.907903	0.000223	2.229936	0.755523	-0.000089
 777	7.7212e+01	9.0832	33.730269	0.000446	4.459871	1.511045	-0.000179
 778	7.7311e+01	9.0415	33.588969	0.000355	3.547625	1.201968	-0.000142
 779	7.7411e+01	8.9997	33.419410	0.000426	4.257150	1.442361	-0.000170
 780	7.7510e+01	8.9628	33.314444	0.000264	2.635379	0.892890	-0.000105
 781	7.7610e+01	8.9195	33.177181	0.000345	3.446264	1.167626	-0.000138
 782	7.7710e+01	8.8778	33.003585	0.000436	4.358511	1.476703	-0.000174
 783	7.7809e+01	8.8393	32.890545	0.000284	2.838100	0.961574	-0.000114
 784	7.7909e+01	8.8056	32.773468	0.000294	2.939461	0.995916	-0.000118
 785	7.8008e+01	8.7591	32.611982	0.000405	4.054429	1.373678	-0.000162
 786	7.8108e+01	8.7334	32.482794	0.000324	3.243543	1.098942	-0.000130
 787	7.8207e+01	8.6885	32.264789	0.000547	5.473479	1.854465	-0.000219
 788	7.8306e+01	8.6436	32.123489	0.000355	3.547625	1.201968	-0.000142
 789	7.8406e+01	8.6099	31.990264	0.000334	3.344904	1.133284	-0.000134
 790	7.8505e+01	8.5698	31.836852	0.000385	3.851707	1.304994	-0.000154
 791	7.8605e+01	8.5185	31.699590	0.000345	3.446264	1.167626	-0.000138
 792	7.8704e+01	8.4848	31.530030	0.000426	4.257150	1.442361	-0.000170
 793	7.8804e+01	8.4351	31.360470	0.000426	4.257150	1.442361	-0.000170
 794	7.8903e+01	8.4174	31.219171	0.000355	3.547625	1.201968	-0.000142
 795	7.9003e+01	8.3709	31.118242	0.000253	2.534018	0.858548	-0.000101
 796	7.9103e+01	8.3276	30.972905	0.000365	3.648986	1.236310	-0.000146
 797	7.9202e+01	8.2891	30.815457	0.000395	3.953068	1.339336	-0.000158
 798	7.9302e+01	8.2490	30.666083	0.000375	3.750346	1.270652	-0.000150
 799	7.9401e+01	8.2073	30.524783	0.000355	3.547625	1.201968	-0.000142
 800	7.9501e+01	8.1655	30.387521	0.000345	3.446264	1.167626	-0.000138
 801	7.9600e+01	8.1303	30.238147	0.000375	3.750346	1.270652	-0.000150
 802	7.9700e+01	8.0757	30.117033	0.000304	3.040821	1.030258	-0.000122
 803	7.9799e+01	8.0468	29.955547	0.000405	4.054429	1.373678	-0.000162
 804	7.9898e+01	7.9987	29.830396	0.000314	3.142182	1.064600	-0.000126
 805	7.9998e+01	7.9682	29.656799	0.000436	4.358511	1.476703	-0.000174
 806	8.0097e+01	7.9249	29.475128	0.000456	4.561232	1.545387	-0.000183
 807	8.0197e+01	7.8768	29.305568	0.000426	4.257150	1.442361	-0.000170
 808	8.0296e+01	7.8431	29.172343	0.000334	3.344904	1.133284	-0.000134
 809	8.0396e+01	7.8142	29.014895	0.000395	3.953068	1.339336	-0.000158
 810	8.0496e+01	7.7741	28.861483	0.000385	3.851707	1.304994	-0.000154
 811	8.0595e+01	7.7356	28.683849	0.000446	4.459871	1.511045	-0.000179
 812	8.0695e+01	7.6827	28.562735	0.000304	3.040821	1.030258	-0.000122
 813	8.0794e+01	7.6522	28.413361	0.000375	3.750346	1.270652	-0.000150
 814	8.0894e+01	7.6057	28.259950	0.000385	3.851707	1.304994	-0.000154
 815	8.0993e+01	7.5752	28.090390	0.000426	4.257150	1.442361	-0.000170
 816	8.1093e+01	7.5319	27.981388	0.000274	2.736739	0.927232	-0.000110
 817	8.1192e+01	7.4934	27.807791	0.000436	4.358511	1.476703	-0.000174
 818	8.1291e+01	7.4517	27.650343	0.000395	3.953068	1.339336	-0.000158
 819	8.1391e+01	7.4116	27.521154	0.000324	3.243543	1.098942	-0.000130
 820	8.1490e+01	7.3714	27.383892	0.000345	3.446264	1.167626	-0.000138
 821	8.1590e+01	7.3297	27.287000	0.000243	2.432657	0.824207	-0.000097
 822	8.1689e+01	7.2928	27.129552	0.000395	3.953068	1.339336	-0.000158
 823	8.1789e+01	7.2479	26.968067	0.000405	4.054429	1.373678	-0.000162
 824	8.1888e+01	7.2078	26.786396	0.000456	4.561232	1.545387	-0.000183
 825	8.1988e+01	7.1693	26.628947	0.000395	3.953068	1.339336	-0.000158
 826	8.2088e+01	7.1356	26.451313	0.000446	4.459871	1.511045	-0.000179
 827	8.2187e+01	7.0907	26.257531	0.000487	4.865314	1.648413	-0.000195
 828	8.2287e+01	7.0458	26.100083	0.000395	3.953068	1.339336	-0.000158
 829	8.2386e+01	7.0137	25.991080	0.000274	2.736739	0.927232	-0.000110
 830	8.2486e+01	6.9640	25.789223	0.000507	5.068036	1.717097	-0.000203
 831	8.2585e+01	6.9303	25.716555	0.000182	1.824493	0.618155	-0.000073
 832	8.2684e+01	6.8950	25.559106	0.000395	3.953068	1.339336	-0.000158
 833	8.2784e+01	6.8437	25.373398	0.000466	4.662593	1.579729	-0.000187
 834	8.2883e+01	6.8132	25.236135	0.000345	3.446264	1.167626	-0.000138
 835	8.2983e+01	6.7747	25.078687	0.000395	3.953068	1.339336	-0.000158
 836	8.3082e+01	6.7378	24.909128	0.000426	4.257150	1.442361	-0.000170
 837	8.3182e+01	6.6848	24.783976	0.000314	3.142182	1.064600	-0.000126
 838	8.3281e+01	6.6479	24.658825	0.000314	3.142182	1.064600	-0.000126
 839	8.3381e+01	6.6110	24.565971	0.000233	2.331296	0.789865	-0.000093
 840	8.3481e+01	6.5725	24.392374	0.000436	4.358511	1.476703	-0.000174
 841	8.3580e+01	6.5276	24.251074	0.000355	3.547625	1.201968	-0.000142
 842	8.3680e+01	6.4923	24.065366	0.000466	4.662593	1.579729	-0.000187
 843	8.3779e+01	6.4522	23.948289	0.000294	2.939461	0.995916	-0.000118
 844	8.3879e+01	6.4169	23.746432	0.000507	5.068036	1.717097	-0.000203
 845	8.3978e+01	6.3688	23.605133	0.000355	3.547625	1.201968	-0.000142
 846	8.4078e+01	6.3383	23.415387	0.000476	4.763954	1.614071	-0.000191
 847	8.4177e+01	6.3046	23.278125	0.000345	3.446264	1.167626	-0.000138
 848	8.4276e+01	6.2597	23.128751	0.000375	3.750346	1.270652	-0.000150
 849	8.4376e+01	6.2052	22.983414	0.000365	3.648986	1.236310	-0.000146
 850	8.4475e+01	6.1683	22.809817	0.000436	4.358511	1.476703	-0.000174
 851	8.4575e+01	6.1378	22.680629	0.000324	3.243543	1.098942	-0.000130
 852	8.4674e+01	6.0993	22.523180	0.000395	3.953068	1.339336	-0.000158
 853	8.4774e+01	6.0544	22.393992	0.000324	3.243543	1.098942	-0.000130
 854	8.4874e+01	6.0127	22.232507	0.000405	4.054429	1.373678	-0.000162
 855	8.4973e+01	5.9677	22.111392	0.000304	3.040821	1.030258	-0.000122
 856	8.5073e+01	5.9308	21.974130	0.000345	3.446264	1.167626	-0.000138
 857	8.5172e+01	5.8940	21.857053	0.000294	2.939461	0.995916	-0.000118
 858	8.5272e+01	5.8571	21.715753	0.000355	3.547625	1.201968	-0.000142
 859	8.5371e+01	5.8105	21.513896	0.000507	5.068036	1.717097	-0.000203
 860	8.5471e+01	5.7704	21.417005	0.000243	2.432657	0.824207	-0.000097
 861	8.5570e+01	5.7367	21.251483	0.000416	4.155789	1.408020	-0.000166
 862	8.5669e+01	5.7111	21.069811	0.000456	4.561232	1.545387	-0.000183
 863	8.5769e+01	5.6613	20.871992	0.000497	4.966675	1.682755	-0.000199
 864	8.5868e+01	5.6148	20.750878	0.000304	3.040821	1.030258	-0.000122
 865	8.5968e+01	5.5731	20.601504	0.000375	3.750346	1.270652	-0.000150
 866	8.6067e+01	5.5474	20.472315	0.000324	3.243543	1.098942	-0.000130
 867	8.6167e+01	5.4945	20.294681	0.000446	4.459871	1.511045	-0.000179
 868	8.6266e+01	5.4624	20.121085	0.000436	4.358511	1.476703	-0.000174
 869	8.6366e+01	5.4191	19.951525	0.000426	4.257150	1.442361	-0.000170
 870	8.6466e+01	5.3742	19.790039	0.000405	4.054429	1.373678	-0.000162
 871	8.6565e+01	5.3341	19.713334	0.000193	1.925854	0.652497	-0.000077
 872	8.6665e+01	5.2859	19.559923	0.000385	3.851707	1.304994	-0.000154
 873	8.6764e+01	5.2667	19.430734	0.000324	3.243543	1.098942	-0.000130
 874	8.6864e+01	5.2234	19.301546	0.000324	3.243543	1.098942	-0.000130
 875	8.6963e+01	5.1737	19.136023	0.000416	4.155789	1.408020	-0.000166
 876	8.7063e+01	5.1368	18.958389	0.000446	4.459871	1.511045	-0.000179
 877	8.7162e+01	5.0934	18.804978	0.000385	3.851707	1.304994	-0.000154
 878	8.7261e+01	5.0710	18.712124	0.000233	2.331296	0.789865	-0.000093
 879	8.7361e+01	5.0148	18.550639	0.000405	4.054429	1.373678	-0.000162
 880	8.7460e+01	4.9827	18.381079	0.000426	4.257150	1.442361	-0.000170
 881	8.7560e+01	4.9475	18.223631	0.000395	3.953068	1.339336	-0.000158
 882	8.7659e+01	4.8945	18.054071	0.000426	4.257150	1.442361	-0.000170
 883	8.7759e+01	4.8544	17.884511	0.000426	4.257150	1.442361	-0.000170
 884	8.7859e+01	4.8223	17.682655	0.000507	5.068036	1.717097	-0.000203
 885	8.7958e+01	4.7694	17.561540	0.000304	3.040821	1.030258	-0.000122
 886	8.8058e+01	4.7357	17.412166	0.000375	3.750346	1.270652	-0.000150
 887	8.8157e+01	4.6940	17.266830	0.000365	3.648986	1.236310	-0.000146
 888	8.8257e+01	4.6667	17.105344	0.000405	4.054429	1.373678	-0.000162
 889	8.8356e+01	4.6186	16.976156	0.000324	3.243543	1.098942	-0.000130
 890	8.8456e+01	4.5801	16.855042	0.000304	3.040821	1.030258	-0.000122
 891	8.8555e+01	4.5416	16.717779	0.000345	3.446264	1.167626	-0.000138
 892	8.8654e+01	4.5031	16.592628	0.000314	3.142182	1.064600	-0.000126
 893	8.8754e+01	4.4566	16.447291	0.000365	3.648986	1.236310	-0.000146
 894	8.8853e+01	4.4309	16.285806	0.000405	4.054429	1.373678	-0.000162
 895	8.8953e+01	4.3812	16.136432	0.000375	3.750346	1.270652	-0.000150
 896	8.9052e+01	4.3378	16.003206	0.000334	3.344904	1.133284	-0.000134
 897	8.9152e+01	4.2945	15.809424	0.000487	4.865314	1.648413	-0.000195
 898	8.9251e+01	4.2624	15.668124	0.000355	3.547625	1.201968	-0.000142
 899	8.9351e+01	4.2175	15.506638	0.000405	4.054429	1.373678	-0.000162
 900	8.9451e+01	4.1854	15.381487	0.000314	3.142182	1.064600	-0.000126
 901	8.9550e+01	4.1485	15.171556	0.000527	5.270757	1.785781	-0.000211
 902	8.9650e+01	4.1084	15.042368	0.000324	3.243543	1.098942	-0.000130
 903	8.9749e+01	4.0715	14.884919	0.000395	3.953068	1.339336	-0.000158
 904	8.9849e+01	4.0202	14.739583	0.000365	3.648986	1.236310	-0.000146
 905	8.9948e+01	3.9881	14.614431	0.000314	3.142182	1.064600	-0.000126
 906	9.0047e+01	3.9496	14.424686	0.000476	4.763954	1.614071	-0.000191
 907	9.0147e+01	3.8999	14.299535	0.000314	3.142182	1.064600	-0.000126
 908	9.0246e+01	3.8614	14.170346	0.000324	3.243543	1.098942	-0.000130
 909	9.0346e+01	3.8149	14.025010	0.000365	3.648986	1.236310	-0.000146
 910	9.0445e+01	3.7860	13.899858	0.000314	3.142182	1.064600	-0.000126
 911	9.0545e+01	3.7427	13.734336	0.000416	4.155789	1.408020	-0.000166
 912	9.0644e+01	3.7010	13.576887	0.000395	3.953068	1.339336	-0.000158
 913	9.0744e+01	3.6609	13.451736	0.000314	3.142182	1.064600	-0.000126
 914	9.0844e+01	3.6191	13.290251	0.000405	4.054429	1.373678	-0.000162
 915	9.0943e+01	3.5806	13.140877	0.000375	3.750346	1.270652	-0.000150
 916	9.1043e+01	3.5405	12.979391	0.000405	4.054429	1.373678	-0.000162
 917	9.1142e+01	3.5036	12.817906	0.000405	4.054429	1.373678	-0.000162
 918	9.1242e+01	3.4700	12.668532	0.000375	3.750346	1.270652	-0.000150
 919	9.1341e+01	3.4363	12.482824	0.000466	4.662593	1.579729	-0.000187
 920	9.1441e+01	3.3849	12.321338	0.000405	4.054429	1.373678	-0.000162
 921	9.1540e+01	3.3448	12.184076	0.000345	3.446264	1.167626	-0.000138
 922	9.1639e+01	3.3047	12.030664	0.000385	3.851707	1.304994	-0.000154
 923	9.1739e+01	3.2710	11.844956	0.000466	4.662593	1.579729	-0.000187
 924	9.1838e+01	3.2309	11.715768	0.000324	3.243543	1.098942	-0.000130
 925	9.1938e+01	3.1892	11.558320	0.000395	3.953068	1.339336	-0.000158
 926	9.2037e+01	3.1491	11.457391	0.000253	2.534018	0.858548	-0.000101
 927	9.2137e+01	3.1058	11.291869	0.000416	4.155789	1.408020	-0.000166
 928	9.2237e+01	3.0545	11.134420	0.000395	3.953068	1.339336	-0.000158
 929	9.2336e+01	3.0208	11.005232	0.000324	3.243543	1.098942	-0.000130
 930	9.2436e+01	2.9823	10.819524	0.000466	4.662593	1.579729	-0.000187
 931	9.2535e+01	2.9470	10.698410	0.000304	3.040821	1.030258	-0.000122
 932	9.2635e+01	2.9053	10.544999	0.000385	3.851707	1.304994	-0.000154
 933	9.2734e+01	2.8652	10.387550	0.000395	3.953068	1.339336	-0.000158
 934	9.2834e+01	2.8379	10.197805	0.000476	4.763954	1.614071	-0.000191
 935	9.2933e+01	2.7801	10.044394	0.000385	3.851707	1.304994	-0.000154
 936	9.3032e+01	2.7464	9.899057	0.000365	3.648986	1.236310	-0.000146
 937	9.3132e+01	2.7095	9.713349	0.000466	4.662593	1.579729	-0.000187
 938	9.3231e+01	2.6823	9.519566	0.000487	4.865314	1.648413	-0.000195
 939	9.3331e+01	2.6261	9.374229	0.000365	3.648986	1.236310	-0.000146
 940	9.3430e+01	2.5876	9.212744	0.000405	4.054429	1.373678	-0.000162
 941	9.3530e+01	2.5459	9.071444	0.000355	3.547625	1.201968	-0.000142
 942	9.3629e+01	2.5074	8.905921	0.000416	4.155789	1.408020	-0.000166
 943	9.3729e+01	2.4705	8.720213	0.000466	4.662593	1.579729	-0.000187
 944	9.3829e+01	2.4304	8.667730	0.000132	1.317689	0.446445	-0.000053
 945	9.3928e+01	2.3935	8.490096	0.000446	4.459871	1.511045	-0.000179
 946	9.4028e+01	2.3422	8.320537	0.000426	4.257150	1.442361	-0.000170
 947	9.4127e+01	2.3165	8.199423	0.000304	3.040821	1.030258	-0.000122
 948	9.4227e+01	2.2684	8.046012	0.000385	3.851707	1.304994	-0.000154
 949	9.4326e+01	2.2170	7.868378	0.000446	4.459871	1.511045	-0.000179
 950	9.4425e+01	2.1914	7.694781	0.000436	4.358511	1.476703	-0.000174
 951	9.4525e+01	2.1465	7.553481	0.000355	3.547625	1.201968	-0.000142
 952	9.4624e+01	2.1015	7.375847	0.000446	4.459871	1.511045	-0.000179
 953	9.4724e+01	2.0743	7.226473	0.000375	3.750346	1.270652	-0.000150
 954	9.4823e+01	2.0278	7.089210	0.000345	3.446264	1.167626	-0.000138
 955	9.4923e+01	1.9973	6.895428	0.000487	4.865314	1.648413	-0.000195
 956	9.5022e+01	1.9491	6.697608	0.000497	4.966675	1.682755	-0.000199
 957	9.5122e+01	1.9026	6.548234	0.000375	3.750346	1.270652	-0.000150
 958	9.5222e+01	1.8737	6.374637	0.000436	4.358511	1.476703	-0.000174
 959	9.5321e+01	1.8272	6.213152	0.000405	4.054429	1.373678	-0.000162
 960	9.5421e+01	1.7919	6.067815	0.000365	3.648986	1.236310	-0.000146
 961	9.5520e+01	1.7566	5.934590	0.000334	3.344904	1.133284	-0.000134
 962	9.5620e+01	1.7101	5.817513	0.000294	2.939461	0.995916	-0.000118
 963	9.5719e+01	1.6684	5.627767	0.000476	4.763954	1.614071	-0.000191
 964	9.5819e+01	1.6299	5.518765	0.000274	2.736739	0.927232	-0.000110
 965	9.5918e+01	1.5898	5.333056	0.000466	4.662593	1.579729	-0.000187
 966	9.6017e+01	1.5497	5.175608	0.000395	3.953068	1.339336	-0.000158
 967	9.6117e+01	1.5080	5.006048	0.000426	4.257150	1.442361	-0.000170
 968	9.6216e+01	1.4759	4.868786	0.000345	3.446264	1.167626	-0.000138
 969	9.6316e+01	1.4358	4.666929	0.000507	5.068036	1.717097	-0.000203
 970	9.6415e+01	1.3893	4.537741	0.000324	3.243543	1.098942	-0.000130
 971	9.6515e+01	1.3524	4.392404	0.000365	3.648986	1.236310	-0.000146
 972	9.6615e+01	1.3074	4.214770	0.000446	4.459871	1.511045	-0.000179
 973	9.6714e+01	1.2770	4.065396	0.000375	3.750346	1.270652	-0.000150
 974	9.6814e+01	1.2304	3.827205	0.000598	5.980282	2.026174	-0.000239
 975	9.6913e+01	1.1935	3.685905	0.000355	3.547625	1.201968	-0.000142
 976	9.7013e+01	1.1502	3.548642	0.000345	3.446264	1.167626	-0.000138
 977	9.7112e+01	1.1149	3.362934	0.000466	4.662593	1.579729	-0.000187
 978	9.7212e+01	1.0652	3.225671	0.000345	3.446264	1.167626	-0.000138
 979	9.7311e+01	1.0315	3.031889	0.000487	4.865314	1.648413	-0.000195
 980	9.7410e+01	0.9914	2.943072	0.000223	2.229936	0.755523	-0.000089
 981	9.7510e+01	0.9561	2.757364	0.000466	4.662593	1.579729	-0.000187
 982	9.7609e+01	0.9144	2.632213	0.000314	3.142182	1.064600	-0.000126
 983	9.7709e+01	0.8647	2.478801	0.000385	3.851707	1.304994	-0.000154
 984	9.7808e+01	0.8374	2.293093	0.000466	4.662593	1.579729	-0.000187
 985	9.7908e+01	0.7941	2.135645	0.000395	3.953068	1.339336	-0.000158
 986	9.8007e+01	0.7524	2.002419	0.000334	3.344904	1.133284	-0.000134
 987	9.8107e+01	0.7010	1.800563	0.000507	5.068036	1.717097	-0.000203
 988	9.8207e+01	0.6754	1.643114	0.000395	3.953068	1.339336	-0.000158
 989	9.8306e+01	0.6369	1.469517	0.000436	4.358511	1.476703	-0.000174
 990	9.8406e+01	0.6032	1.368589	0.000253	2.534018	0.858548	-0.000101
 991	9.8505e+01	0.5438	1.146547	0.000557	5.574839	1.888807	-0.000223
 992	9.8605e+01	0.5182	0.997173	0.000375	3.750346	1.270652	-0.000150
 993	9.8704e+01	0.4813	0.771093	0.000568	5.676200	1.923149	-0.000227
 994	9.8803e+01	0.4396	0.641905	0.000324	3.243543	1.098942	-0.000130
 995	9.8903e+01	0.4011	0.480419	0.000405	4.054429	1.373678	-0.000162
 996	9.9002e+01	0.3513	0.318934	0.000405	4.054429	1.373678	-0.000162
 997	9.9102e+01	0.3225	0.181671	0.000345	3.446264	1.167626	-0.000138
 998	9.9201e+01	0.2823	0.068631	0.000284	2.838100	0.961574	-0.000114
 999	9.9301e+01	0.2326	-0.117077	0.000466	4.662593	1.579729	-0.000187
1000	9.9400e+01	0.1989	-0.274525	0.000395	3.953068	1.339336	-0.000158
1001	9.9500e+01	0.1636	-0.444085	0.000426	4.257150	1.442361	-0.000170
1002	9.9600e+01	0.1187	-0.605570	0.000405	4.054429	1.373678	-0.000162
1003	9.9699e+01	0.0770	-0.710536	0.000264	2.635379	0.892890	-0.000105
1004	9.9799e+01	0.0401	-0.863947	0.000385	3.851707	1.304994	-0.000154
1005	9.9898e+01	0.0016	-1.069841	0.000517	5.169396	1.751439	-0.000207
1006	9.9998e+01	-0.0401	-1.199029	0.000324	3.243543	1.098942	-0.000130
1007	1.0010e+02	-0.0802	-1.332255	0.000334	3.344904	1.133284	-0.000134
1008	1.0020e+02	-0.1139	-1.534112	0.000507	5.068036	1.717097	-0.000203
1009	1.0030e+02	-0.1556	-1.675411	0.000355	3.547625	1.201968	-0.000142
1010	1.0040e+02	-0.1957	-1.901491	0.000568	5.676200	1.923149	-0.000227
1011	1.0050e+02	-0.2374	-2.006456	0.000264	2.635379	0.892890	-0.000105
1012	1.0059e+02	-0.2775	-2.204276	0.000497	4.966675	1.682755	-0.000199
1013	1.0069e+02	-0.3176	-2.369799	0.000416	4.155789	1.408020	-0.000166
1014	1.0079e+02	-0.3593	-2.482838	0.000284	2.838100	0.961574	-0.000114
1015	1.0089e+02	-0.3882	-2.607990	0.000314	3.142182	1.064600	-0.000126
1016	1.0099e+02	-0.4267	-2.785624	0.000446	4.459871	1.511045	-0.000179
1017	1.0109e+02	-0.4749	-2.914812	0.000324	3.243543	1.098942	-0.000130
1018	1.0119e+02	-0.5101	-3.044000	0.000324	3.243543	1.098942	-0.000130
1019	1.0129e+02	-0.5535	-3.221634	0.000446	4.459871	1.511045	-0.000179
1020	1.0139e+02	-0.5952	-3.383120	0.000405	4.054429	1.373678	-0.000162
1021	1.0149e+02	-0.6321	-3.516345	0.000334	3.344904	1.133284	-0.000134
1022	1.0159e+02	-0.6786	-3.689942	0.000436	4.358511	1.476703	-0.000174
1023	1.0169e+02	-0.7187	-3.823168	0.000334	3.344904	1.133284	-0.000134
1024	1.0179e+02	-0.7524	-4.000802	0.000446	4.459871	1.511045	-0.000179
1025	1.0189e+02	-0.8037	-4.150176	0.000375	3.750346	1.270652	-0.000150
1026	1.0199e+02	-0.8310	-4.319735	0.000426	4.257150	1.442361	-0.000170
1027	1.0209e+02	-0.8583	-4.461035	0.000355	3.547625	1.201968	-0.000142
1028	1.0219e+02	-0.9176	-4.650780	0.000476	4.763954	1.614071	-0.000191
1029	1.0229e+02	-0.9497	-4.856674	0.000517	5.169396	1.751439	-0.000207
1030	1.0239e+02	-0.9882	-5.022197	0.000416	4.155789	1.408020	-0.000166
1031	1.0248e+02	-1.0315	-5.151385	0.000324	3.243543	1.098942	-0.000130
1032	1.0258e+02	-1.0684	-5.284611	0.000334	3.344904	1.133284	-0.000134
1033	1.0268e+02	-1.1117	-5.498579	0.000537	5.372118	1.820123	-0.000215
1034	1.0278e+02	-1.1534	-5.591433	0.000233	2.331296	0.789865	-0.000093
1035	1.0288e+02	-1.1871	-5.716584	0.000314	3.142182	1.064600	-0.000126
1036	1.0298e+02	-1.2321	-5.833661	0.000294	2.939461	0.995916	-0.000118
1037	1.0308e+02	-1.2722	-6.011295	0.000446	4.459871	1.511045	-0.000179
1038	1.0318e+02	-1.3026	-6.192966	0.000456	4.561232	1.545387	-0.000183
1039	1.0328e+02	-1.3524	-6.346377	0.000385	3.851707	1.304994	-0.000154
1040	1.0338e+02	-1.3861	-6.495751	0.000375	3.750346	1.270652	-0.000150
1041	1.0348e+02	-1.4278	-6.616865	0.000304	3.040821	1.030258	-0.000122
1042	1.0358e+02	-1.4775	-6.762202	0.000365	3.648986	1.236310	-0.000146
1043	1.0368e+02	-1.5080	-6.972133	0.000527	5.270757	1.785781	-0.000211
1044	1.0378e+02	-1.5513	-7.137656	0.000416	4.155789	1.408020	-0.000166
1045	1.0388e+02	-1.5914	-7.258770	0.000304	3.040821	1.030258	-0.000122
1046	1.0398e+02	-1.6315	-7.464664	0.000517	5.169396	1.751439	-0.000207
1047	1.0408e+02	-1.6668	-7.646335	0.000456	4.561232	1.545387	-0.000183
1048	1.0418e+02	-1.7133	-7.787635	0.000355	3.547625	1.201968	-0.000142
1049	1.0428e+02	-1.7534	-7.937009	0.000375	3.750346	1.270652	-0.000150
1050	1.0438e+02	-1.7871	-8.086383	0.000375	3.750346	1.270652	-0.000150
1051	1.0447e+02	-1.8288	-8.227683	0.000355	3.547625	1.201968	-0.000142
1052	1.0457e+02	-1.8673	-8.368982	0.000355	3.547625	1.201968	-0.000142
1053	1.0467e+02	-1.9058	-8.506245	0.000345	3.446264	1.167626	-0.000138
1054	1.0477e+02	-1.9475	-8.615248	0.000274	2.736739	0.927232	-0.000110
1055	1.0487e+02	-1.9844	-8.817104	0.000507	5.068036	1.717097	-0.000203
1056	1.0497e+02	-2.0213	-8.934181	0.000294	2.939461	0.995916	-0.000118
1057	1.0507e+02	-2.0727	-9.099704	0.000416	4.155789	1.408020	-0.000166
1058	1.0517e+02	-2.1144	-9.257152	0.000395	3.953068	1.339336	-0.000158
1059	1.0527e+02	-2.1497	-9.402489	0.000365	3.648986	1.236310	-0.000146
1060	1.0537e+02	-2.1898	-9.555900	0.000385	3.851707	1.304994	-0.000154
1061	1.0547e+02	-2.2267	-9.725460	0.000426	4.257150	1.442361	-0.000170
1062	1.0557e+02	-2.2652	-9.899057	0.000436	4.358511	1.476703	-0.000174
1063	1.0567e+02	-2.3085	-10.048431	0.000375	3.750346	1.270652	-0.000150
1064	1.0577e+02	-2.3438	-10.258362	0.000527	5.270757	1.785781	-0.000211
1065	1.0587e+02	-2.3775	-10.419847	0.000405	4.054429	1.373678	-0.000162
1066	1.0597e+02	-2.4320	-10.532887	0.000284	2.838100	0.961574	-0.000114
1067	1.0607e+02	-2.4641	-10.678224	0.000365	3.648986	1.236310	-0.000146
1068	1.0617e+02	-2.5042	-10.819524	0.000355	3.547625	1.201968	-0.000142
1069	1.0627e+02	-2.5427	-10.960824	0.000355	3.547625	1.201968	-0.000142
1070	1.0637e+02	-2.5860	-11.090012	0.000324	3.243543	1.098942	-0.000130
1071	1.0647e+02	-2.6245	-11.255534	0.000416	4.155789	1.408020	-0.000166
1072	1.0656e+02	-2.6630	-11.348389	0.000233	2.331296	0.789865	-0.000093
1073	1.0666e+02	-2.7047	-11.497763	0.000375	3.750346	1.270652	-0.000150
1074	1.0676e+02	-2.7481	-11.679434	0.000456	4.561232	1.545387	-0.000183
1075	1.0686e+02	-2.7914	-11.824771	0.000365	3.648986	1.236310	-0.000146
1076	1.0696e+02	-2.8251	-11.949922	0.000314	3.142182	1.064600	-0.000126
1077	1.0706e+02	-2.8652	-12.127556	0.000446	4.459871	1.511045	-0.000179
1078	1.0716e+02	-2.9005	-12.268856	0.000355	3.547625	1.201968	-0.000142
1079	1.0726e+02	-2.9486	-12.434378	0.000416	4.155789	1.408020	-0.000166
1080	1.0736e+02	-2.9839	-12.567604	0.000334	3.344904	1.133284	-0.000134
1081	1.0746e+02	-3.0288	-12.757349	0.000476	4.763954	1.614071	-0.000191
1082	1.0756e+02	-3.0657	-12.943057	0.000466	4.662593	1.579729	-0.000187
1083	1.0766e+02	-3.1026	-13.088394	0.000365	3.648986	1.236310	-0.000146
1084	1.0776e+02	-3.1443	-13.290251	0.000507	5.068036	1.717097	-0.000203
1085	1.0786e+02	-3.1780	-13.399254	0.000274	2.736739	0.927232	-0.000110
1086	1.0796e+02	-3.2165	-13.524405	0.000314	3.142182	1.064600	-0.000126
1087	1.0806e+02	-3.2598	-13.657630	0.000334	3.344904	1.133284	-0.000134
1088	1.0816e+02	-3.2983	-13.778744	0.000304	3.040821	1.030258	-0.000122
1089	1.0826e+02	-3.3480	-13.891784	0.000284	2.838100	0.961574	-0.000114
1090	1.0836e+02	-3.3769	-14.093641	0.000507	5.068036	1.717097	-0.000203
1091	1.0845e+02	-3.4154	-14.218792	0.000314	3.142182	1.064600	-0.000126
1092	1.0855e+02	-3.4619	-14.388352	0.000426	4.257150	1.442361	-0.000170
1093	1.0865e+02	-3.5085	-14.533689	0.000365	3.648986	1.236310	-0.000146
1094	1.0875e+02	-3.5454	-14.679026	0.000365	3.648986	1.236310	-0.000146
1095	1.0885e+02	-3.5871	-14.832437	0.000385	3.851707	1.304994	-0.000154
1096	1.0895e+02	-3.6208	-14.957588	0.000314	3.142182	1.064600	-0.000126
1097	1.0905e+02	-3.6625	-15.155408	0.000497	4.966675	1.682755	-0.000199
1098	1.0915e+02	-3.6913	-15.308819	0.000385	3.851707	1.304994	-0.000154
1099	1.0925e+02	-3.7523	-15.502601	0.000487	4.865314	1.648413	-0.000195
1100	1.0935e+02	-3.7716	-15.672161	0.000426	4.257150	1.442361	-0.000170
1101	1.0945e+02	-3.8197	-15.793275	0.000304	3.040821	1.030258	-0.000122
1102	1.0955e+02	-3.8582	-15.942649	0.000375	3.750346	1.270652	-0.000150
1103	1.0965e+02	-3.8951	-16.128357	0.000466	4.662593	1.579729	-0.000187
1104	1.0975e+02	-3.9416	-16.253508	0.000314	3.142182	1.064600	-0.000126
1105	1.0985e+02	-3.9801	-16.382697	0.000324	3.243543	1.098942	-0.000130
1106	1.0995e+02	-4.0250	-16.536108	0.000385	3.851707	1.304994	-0.000154
1107	1.1005e+02	-4.0635	-16.685482	0.000375	3.750346	1.270652	-0.000150
1108	1.1015e+02	-4.0972	-16.814670	0.000324	3.243543	1.098942	-0.000130
1109	1.1025e+02	-4.1357	-17.004416	0.000476	4.763954	1.614071	-0.000191
1110	1.1035e+02	-4.1822	-17.133604	0.000324	3.243543	1.098942	-0.000130
1111	1.1044e+02	-4.2223	-17.270867	0.000345	3.446264	1.167626	-0.000138
1112	1.1054e+02	-4.2576	-17.420241	0.000375	3.750346	1.270652	-0.000150
1113	1.1064e+02	-4.3042	-17.593838	0.000436	4.358511	1.476703	-0.000174
1114	1.1074e+02	-4.3362	-17.743212	0.000375	3.750346	1.270652	-0.000150
1115	1.1084e+02	-4.3731	-17.904697	0.000405	4.054429	1.373678	-0.000162
1116	1.1094e+02	-4.4181	-18.033885	0.000324	3.243543	1.098942	-0.000130
1117	1.1104e+02	-4.4566	-18.207482	0.000436	4.358511	1.476703	-0.000174
1118	1.1114e+02	-4.4983	-18.373005	0.000416	4.155789	1.408020	-0.000166
1119	1.1124e+02	-4.5352	-18.510267	0.000345	3.446264	1.167626	-0.000138
1120	1.1134e+02	-4.5801	-18.667716	0.000395	3.953068	1.339336	-0.000158
1121	1.1144e+02	-4.6138	-18.857461	0.000476	4.763954	1.614071	-0.000191
1122	1.1154e+02	-4.6683	-18.930129	0.000182	1.824493	0.618155	-0.000073
1123	1.1164e+02	-4.6956	-19.103726	0.000436	4.358511	1.476703	-0.000174
1124	1.1174e+02	-4.7405	-19.265212	0.000405	4.054429	1.373678	-0.000162
1125	1.1184e+02	-4.7742	-19.446883	0.000456	4.561232	1.545387	-0.000183
1126	1.1194e+02	-4.8079	-19.567997	0.000304	3.040821	1.030258	-0.000122
1127	1.1204e+02	-4.8592	-19.721408	0.000385	3.851707	1.304994	-0.000154
1128	1.1214e+02	-4.8977	-19.838485	0.000294	2.939461	0.995916	-0.000118
1129	1.1224e+02	-4.9378	-20.004008	0.000416	4.155789	1.408020	-0.000166
1130	1.1234e+02	-4.9731	-20.161456	0.000395	3.953068	1.339336	-0.000158
1131	1.1244e+02	-5.0164	-20.326978	0.000416	4.155789	1.408020	-0.000166
1132	1.1253e+02	-5.0517	-20.476352	0.000375	3.750346	1.270652	-0.000150
1133	1.1263e+02	-5.1031	-20.605541	0.000324	3.243543	1.098942	-0.000130
1134	1.1273e+02	-5.1271	-20.758952	0.000385	3.851707	1.304994	-0.000154
1135	1.1283e+02	-5.1817	-20.916400	0.000395	3.953068	1.339336	-0.000158
1136	1.1293e+02	-5.2170	-21.085960	0.000426	4.257150	1.442361	-0.000170
1137	1.1303e+02	-5.2442	-21.239371	0.000385	3.851707	1.304994	-0.000154
1138	1.1313e+02	-5.2859	-21.437191	0.000497	4.966675	1.682755	-0.000199
1139	1.1323e+02	-5.3309	-21.554268	0.000294	2.939461	0.995916	-0.000118
1140	1.1333e+02	-5.3726	-21.671345	0.000294	2.939461	0.995916	-0.000118
1141	1.1343e+02	-5.4223	-21.796496	0.000314	3.142182	1.064600	-0.000126
1142	1.1353e+02	-5.4496	-21.966056	0.000426	4.257150	1.442361	-0.000170
1143	1.1363e+02	-5.4993	-22.127541	0.000405	4.054429	1.373678	-0.000162
1144	1.1373e+02	-5.5314	-22.256729	0.000324	3.243543	1.098942	-0.000130
1145	1.1383e+02	-5.5651	-22.430326	0.000436	4.358511	1.476703	-0.000174
1146	1.1393e+02	-5.6132	-22.587774	0.000395	3.953068	1.339336	-0.000158
1147	1.1403e+02	-5.6662	-22.737148	0.000375	3.750346	1.270652	-0.000150
1148	1.1413e+02	-5.6902	-22.838077	0.000253	2.534018	0.858548	-0.000101
1149	1.1423e+02	-5.7415	-23.027822	0.000476	4.763954	1.614071	-0.000191
1150	1.1433e+02	-5.7704	-23.173159	0.000365	3.648986	1.236310	-0.000146
1151	1.1442e+02	-5.8105	-23.330607	0.000395	3.953068	1.339336	-0.000158
1152	1.1452e+02	-5.8554	-23.484019	0.000385	3.851707	1.304994	-0.000154
1153	1.1462e+02	-5.9004	-23.613207	0.000324	3.243543	1.098942	-0.000130
1154	1.1472e+02	-5.9357	-23.774692	0.000405	4.054429	1.373678	-0.000162
1155	1.1482e+02	-5.9726	-23.928104	0.000385	3.851707	1.304994	-0.000154
1156	1.1492e+02	-6.0046	-24.081515	0.000385	3.851707	1.304994	-0.000154
1157	1.1502e+02	-6.0496	-24.243000	0.000405	4.054429	1.373678	-0.000162
1158	1.1512e+02	-6.0961	-24.396411	0.000385	3.851707	1.304994	-0.000154
1159	1.1522e+02	-6.1330	-24.521562	0.000314	3.142182	1.064600	-0.000126
1160	1.1532e+02	-6.1715	-24.715345	0.000487	4.865314	1.648413	-0.000195
1161	1.1542e+02	-6.2036	-24.872793	0.000395	3.953068	1.339336	-0.000158
1162	1.1552e+02	-6.2597	-24.961610	0.000223	2.229936	0.755523	-0.000089
1163	1.1562e+02	-6.2950	-25.151356	0.000476	4.763954	1.614071	-0.000191
1164	1.1572e+02	-6.3383	-25.268433	0.000294	2.939461	0.995916	-0.000118
1165	1.1582e+02	-6.3800	-25.401658	0.000334	3.344904	1.133284	-0.000134
1166	1.1592e+02	-6.4121	-25.559106	0.000395	3.953068	1.339336	-0.000158
1167	1.1602e+02	-6.4458	-25.700406	0.000355	3.547625	1.201968	-0.000142
1168	1.1612e+02	-6.4955	-25.849780	0.000375	3.750346	1.270652	-0.000150
1169	1.1622e+02	-6.5196	-25.987043	0.000345	3.446264	1.167626	-0.000138
1170	1.1632e+02	-6.5677	-26.128342	0.000355	3.547625	1.201968	-0.000142
1171	1.1642e+02	-6.5982	-26.273679	0.000365	3.648986	1.236310	-0.000146
1172	1.1651e+02	-6.6463	-26.431128	0.000395	3.953068	1.339336	-0.000158
1173	1.1661e+02	-6.6880	-26.588576	0.000395	3.953068	1.339336	-0.000158
1174	1.1671e+02	-6.7330	-26.713727	0.000314	3.142182	1.064600	-0.000126
1175	1.1681e+02	-6.7602	-26.855027	0.000355	3.547625	1.201968	-0.000142
1176	1.1691e+02	-6.8068	-27.004401	0.000375	3.750346	1.270652	-0.000150
1177	1.1701e+02	-6.8388	-27.165886	0.000405	4.054429	1.373678	-0.000162
1178	1.1711e+02	-6.8790	-27.323335	0.000395	3.953068	1.339336	-0.000158
1179	1.1721e+02	-6.9351	-27.420226	0.000243	2.432657	0.824207	-0.000097
1180	1.1731e+02	-6.9592	-27.569600	0.000375	3.750346	1.270652	-0.000150
1181	1.1741e+02	-6.9977	-27.702825	0.000334	3.344904	1.133284	-0.000134
1182	1.1751e+02	-7.0506	-27.840088	0.000345	3.446264	1.167626	-0.000138
1183	1.1761e+02	-7.0971	-27.981388	0.000355	3.547625	1.201968	-0.000142
1184	1.1771e+02	-7.1244	-28.102502	0.000304	3.040821	1.030258	-0.000122
1185	1.1781e+02	-7.1613	-28.292247	0.000476	4.763954	1.614071	-0.000191
1186	1.1791e+02	-7.2062	-28.437584	0.000365	3.648986	1.236310	-0.000146
1187	1.1801e+02	-7.2383	-28.570810	0.000334	3.344904	1.133284	-0.000134
1188	1.1811e+02	-7.2784	-28.683849	0.000284	2.838100	0.961574	-0.000114
1189	1.1821e+02	-7.3297	-28.869558	0.000466	4.662593	1.579729	-0.000187
1190	1.1831e+02	-7.3490	-29.002783	0.000334	3.344904	1.133284	-0.000134
1191	1.1841e+02	-7.4035	-29.115823	0.000284	2.838100	0.961574	-0.000114
1192	1.1850e+02	-7.4372	-29.269234	0.000385	3.851707	1.304994	-0.000154
1193	1.1860e+02	-7.4837	-29.394385	0.000314	3.142182	1.064600	-0.000126
1194	1.1870e+02	-7.5319	-29.539722	0.000365	3.648986	1.236310	-0.000146
1195	1.1880e+02	-7.5704	-29.689096	0.000375	3.750346	1.270652	-0.000150
1196	1.1890e+02	-7.5960	-29.814247	0.000314	3.142182	1.064600	-0.000126
1197	1.1900e+02	-7.6426	-29.963621	0.000375	3.750346	1.270652	-0.000150
1198	1.1910e+02	-7.6763	-30.129144	0.000416	4.155789	1.408020	-0.000166
1199	1.1920e+02	-7.7228	-30.238147	0.000274	2.736739	0.927232	-0.000110
1200	1.1930e+02	-7.7661	-30.427892	0.000476	4.763954	1.614071	-0.000191
1201	1.1940e+02	-7.7982	-30.536895	0.000274	2.736739	0.927232	-0.000110
1202	1.1950e+02	-7.8543	-30.653972	0.000294	2.939461	0.995916	-0.000118
1203	1.1960e+02	-7.8848	-30.803346	0.000375	3.750346	1.270652	-0.000150
1204	1.1970e+02	-7.9217	-30.928497	0.000314	3.142182	1.064600	-0.000126
1205	1.1980e+02	-7.9650	-31.053648	0.000314	3.142182	1.064600	-0.000126
1206	1.1990e+02	-8.0035	-31.243393	0.000476	4.763954	1.614071	-0.000191
1207	1.2000e+02	-8.0436	-31.356433	0.000284	2.838100	0.961574	-0.000114
1208	1.2010e+02	-8.0901	-31.505807	0.000375	3.750346	1.270652	-0.000150
1209	1.2020e+02	-8.1158	-31.634996	0.000324	3.243543	1.098942	-0.000130
1210	1.2030e+02	-8.1591	-31.752073	0.000294	2.939461	0.995916	-0.000118
1211	1.2039e+02	-8.1960	-31.921632	0.000426	4.257150	1.442361	-0.000170
1212	1.2049e+02	-8.2442	-32.042746	0.000304	3.040821	1.030258	-0.000122
1213	1.2059e+02	-8.2762	-32.163860	0.000304	3.040821	1.030258	-0.000122
1214	1.2069e+02	-8.3179	-32.317272	0.000385	3.851707	1.304994	-0.000154
1215	1.2079e+02	-8.3516	-32.454534	0.000345	3.446264	1.167626	-0.000138
1216	1.2089e+02	-8.3998	-32.587760	0.000334	3.344904	1.133284	-0.000134
1217	1.2099e+02	-8.4431	-32.761357	0.000436	4.358511	1.476703	-0.000174
1218	1.2109e+02	-8.4800	-32.854211	0.000233	2.331296	0.789865	-0.000093
1219	1.2119e+02	-8.5185	-33.031845	0.000446	4.459871	1.511045	-0.000179
1220	1.2129e+02	-8.5682	-33.148922	0.000294	2.939461	0.995916	-0.000118
1221	1.2139e+02	-8.6019	-33.290221	0.000355	3.547625	1.201968	-0.000142
1222	1.2149e+02	-8.6420	-33.399224	0.000274	2.736739	0.927232	-0.000110
1223	1.2159e+02	-8.6869	-33.552635	0.000385	3.851707	1.304994	-0.000154
1224	1.2169e+02	-8.7174	-33.665675	0.000284	2.838100	0.961574	-0.000114
1225	1.2179e+02	-8.7511	-33.819086	0.000385	3.851707	1.304994	-0.000154
1226	1.2189e+02	-8.7944	-33.928089	0.000274	2.736739	0.927232	-0.000110
1227	1.2199e+02	-8.8457	-34.073426	0.000365	3.648986	1.236310	-0.000146
1228	1.2209e+02	-8.8842	-34.218763	0.000365	3.648986	1.236310	-0.000146
1229	1.2219e+02	-8.9211	-34.331802	0.000284	2.838100	0.961574	-0.000114
1230	1.2229e+02	-8.9548	-34.489251	0.000395	3.953068	1.339336	-0.000158
1231	1.2239e+02	-8.9965	-34.602290	0.000284	2.838100	0.961574	-0.000114
1232	1.2248e+02	-9.0431	-34.759739	0.000395	3.953068	1.339336	-0.000158
1233	1.2258e+02	-9.0784	-34.872779	0.000284	2.838100	0.961574	-0.000114
1234	1.2268e+02	-9.1153	-35.046375	0.000436	4.358511	1.476703	-0.000174
1235	1.2278e+02	-9.1586	-35.167489	0.000304	3.040821	1.030258	-0.000122
1236	1.2288e+02	-9.2003	-35.288603	0.000304	3.040821	1.030258	-0.000122
1237	1.2298e+02	-9.2484	-35.381458	0.000233	2.331296	0.789865	-0.000093
1238	1.2308e+02	-9.2757	-35.526794	0.000365	3.648986	1.236310	-0.000146
1239	1.2318e+02	-9.3174	-35.664057	0.000345	3.446264	1.167626	-0.000138
1240	1.2328e+02	-9.3511	-35.805357	0.000355	3.547625	1.201968	-0.000142
1241	1.2338e+02	-9.4040	-35.894174	0.000223	2.229936	0.755523	-0.000089
1242	1.2348e+02	-9.4393	-36.027399	0.000334	3.344904	1.133284	-0.000134
1243	1.2358e+02	-9.4762	-36.188885	0.000405	4.054429	1.373678	-0.000162
1244	1.2368e+02	-9.5243	-36.342296	0.000385	3.851707	1.304994	-0.000154
1245	1.2378e+02	-9.5596	-36.467447	0.000314	3.142182	1.064600	-0.000126
1246	1.2388e+02	-9.5917	-36.608747	0.000355	3.547625	1.201968	-0.000142
1247	1.2398e+02	-9.6366	-36.733898	0.000314	3.142182	1.064600	-0.000126
1248	1.2408e+02	-9.6735	-36.826752	0.000233	2.331296	0.789865	-0.000093
1249	1.2418e+02	-9.7120	-36.951903	0.000314	3.142182	1.064600	-0.000126
1250	1.2428e+02	-9.7618	-37.073017	0.000304	3.040821	1.030258	-0.000122
1251	1.2438e+02	-9.7954	-37.226429	0.000385	3.851707	1.304994	-0.000154
1252	1.2447e+02	-9.8275	-37.367728	0.000355	3.547625	1.201968	-0.000142
1253	1.2457e+02	-9.8757	-37.480768	0.000284	2.838100	0.961574	-0.000114
1254	1.2467e+02	-9.9142	-37.618031	0.000345	3.446264	1.167626	-0.000138
1255	1.2477e+02	-9.9671	-37.722996	0.000264	2.635379	0.892890	-0.000105
1256	1.2487e+02	-9.9912	-37.884482	0.000405	4.054429	1.373678	-0.000162
1257	1.2497e+02	-10.0393	-37.997522	0.000284	2.838100	0.961574	-0.000114
1258	1.2507e+02	-10.0826	-38.114599	0.000294	2.939461	0.995916	-0.000118
1259	1.2517e+02	-10.1163	-38.263973	0.000375	3.750346	1.270652	-0.000150
1260	1.2527e+02	-10.1564	-38.421421	0.000395	3.953068	1.339336	-0.000158
1261	1.2537e+02	-10.1885	-38.514275	0.000233	2.331296	0.789865	-0.000093
1262	1.2547e+02	-10.2430	-38.655575	0.000355	3.547625	1.201968	-0.000142
1263	1.2557e+02	-10.2703	-38.849357	0.000487	4.865314	1.648413	-0.000195
1264	1.2567e+02	-10.3056	-38.958360	0.000274	2.736739	0.927232	-0.000110
1265	1.2577e+02	-10.3537	-39.083511	0.000314	3.142182	1.064600	-0.000126
1266	1.2587e+02	-10.3842	-39.184439	0.000253	2.534018	0.858548	-0.000101
1267	1.2597e+02	-10.4259	-39.333813	0.000375	3.750346	1.270652	-0.000150
1268	1.2607e+02	-10.4805	-39.487225	0.000385	3.851707	1.304994	-0.000154
1269	1.2617e+02	-10.5109	-39.584116	0.000243	2.432657	0.824207	-0.000097
1270	1.2627e+02	-10.5607	-39.757713	0.000436	4.358511	1.476703	-0.000174
1271	1.2636e+02	-10.5831	-39.866715	0.000274	2.736739	0.927232	-0.000110
1272	1.2646e+02	-10.6280	-40.008015	0.000355	3.547625	1.201968	-0.000142
1273	1.2656e+02	-10.6730	-40.129129	0.000304	3.040821	1.030258	-0.000122
1274	1.2666e+02	-10.7115	-40.238132	0.000274	2.736739	0.927232	-0.000110
1275	1.2676e+02	-10.7500	-40.335023	0.000243	2.432657	0.824207	-0.000097
1276	1.2686e+02	-10.7981	-40.536880	0.000507	5.068036	1.717097	-0.000203
1277	1.2696e+02	-10.8254	-40.662031	0.000314	3.142182	1.064600	-0.000126
1278	1.2706e+02	-10.8719	-40.791219	0.000324	3.243543	1.098942	-0.000130
1279	1.2716e+02	-10.9104	-40.912334	0.000304	3.040821	1.030258	-0.000122
1280	1.2726e+02	-10.9473	-41.045559	0.000334	3.344904	1.133284	-0.000134
1281	1.2736e+02	-10.9938	-41.150525	0.000264	2.635379	0.892890	-0.000105
1282	1.2746e+02	-11.0355	-41.283750	0.000334	3.344904	1.133284	-0.000134
1283	1.2756e+02	-11.0692	-41.433124	0.000375	3.750346	1.270652	-0.000150
1284	1.2766e+02	-11.1093	-41.586535	0.000385	3.851707	1.304994	-0.000154
1285	1.2776e+02	-11.1558	-41.723798	0.000345	3.446264	1.167626	-0.000138
1286	1.2786e+02	-11.1831	-41.857023	0.000334	3.344904	1.133284	-0.000134
1287	1.2796e+02	-11.2248	-41.978137	0.000304	3.040821	1.030258	-0.000122
1288	1.2806e+02	-11.2681	-42.123474	0.000365	3.648986	1.236310	-0.000146
1289	1.2816e+02	-11.3082	-42.212291	0.000223	2.229936	0.755523	-0.000089
1290	1.2826e+02	-11.3467	-42.365702	0.000385	3.851707	1.304994	-0.000154
1291	1.2835e+02	-11.3868	-42.486817	0.000304	3.040821	1.030258	-0.000122
1292	1.2845e+02	-11.4221	-42.636191	0.000375	3.750346	1.270652	-0.000150
1293	1.2855e+02	-11.4703	-42.785565	0.000375	3.750346	1.270652	-0.000150
1294	1.2865e+02	-11.5232	-42.882456	0.000243	2.432657	0.824207	-0.000097
1295	1.2875e+02	-11.5521	-43.023756	0.000355	3.547625	1.201968	-0.000142
1296	1.2885e+02	-11.5874	-43.185241	0.000405	4.054429	1.373678	-0.000162
1297	1.2895e+02	-11.6227	-43.290207	0.000264	2.635379	0.892890	-0.000105
1298	1.2905e+02	-11.6788	-43.387098	0.000243	2.432657	0.824207	-0.000097
1299	1.2915e+02	-11.7125	-43.500138	0.000284	2.838100	0.961574	-0.000114
1300	1.2925e+02	-11.7510	-43.613177	0.000284	2.838100	0.961574	-0.000114
1301	1.2935e+02	-11.7815	-43.794848	0.000456	4.561232	1.545387	-0.000183
1302	1.2945e+02	-11.8312	-43.911925	0.000294	2.939461	0.995916	-0.000118
1303	1.2955e+02	-11.8665	-44.073411	0.000405	4.054429	1.373678	-0.000162
1304	1.2965e+02	-11.9034	-44.190488	0.000294	2.939461	0.995916	-0.000118
1305	1.2975e+02	-11.9419	-44.311602	0.000304	3.040821	1.030258	-0.000122
1306	1.2985e+02	-11.9788	-44.420605	0.000274	2.736739	0.927232	-0.000110
1307	1.2995e+02	-12.0334	-44.618424	0.000497	4.966675	1.682755	-0.000199
1308	1.3005e+02	-12.0735	-44.727427	0.000274	2.736739	0.927232	-0.000110
1309	1.3015e+02	-12.1104	-44.860652	0.000334	3.344904	1.133284	-0.000134
1310	1.3025e+02	-12.1489	-45.001952	0.000355	3.547625	1.201968	-0.000142
1311	1.3034e+02	-12.1809	-45.143252	0.000355	3.547625	1.201968	-0.000142
1312	1.3044e+02	-12.2323	-45.252254	0.000274	2.736739	0.927232	-0.000110
1313	1.3054e+02	-12.2676	-45.385480	0.000334	3.344904	1.133284	-0.000134
1314	1.3064e+02	-12.3125	-45.542928	0.000395	3.953068	1.339336	-0.000158
1315	1.3074e+02	-12.3430	-45.643857	0.000253	2.534018	0.858548	-0.000101
1316	1.3084e+02	-12.3879	-45.752859	0.000274	2.736739	0.927232	-0.000110
1317	1.3094e+02	-12.4280	-45.886085	0.000334	3.344904	1.133284	-0.000134
1318	1.3104e+02	-12.4585	-45.954716	0.000172	1.723132	0.583813	-0.000069
1319	1.3114e+02	-12.4986	-46.136387	0.000456	4.561232	1.545387	-0.000183
1320	1.3124e+02	-12.5467	-46.269613	0.000334	3.344904	1.133284	-0.000134
1321	1.3134e+02	-12.5660	-46.439172	0.000426	4.257150	1.442361	-0.000170
1322	1.3144e+02	-12.6285	-46.568361	0.000324	3.243543	1.098942	-0.000130
1323	1.3154e+02	-12.6590	-46.665252	0.000243	2.432657	0.824207	-0.000097
1324	1.3164e+02	-12.7103	-46.818663	0.000385	3.851707	1.304994	-0.000154
1325	1.3174e+02	-12.7376	-46.959963	0.000355	3.547625	1.201968	-0.000142
1326	1.3184e+02	-12.7889	-47.089151	0.000324	3.243543	1.098942	-0.000130
1327	1.3194e+02	-12.8194	-47.202191	0.000284	2.838100	0.961574	-0.000114
1328	1.3204e+02	-12.8740	-47.355602	0.000385	3.851707	1.304994	-0.000154
1329	1.3214e+02	-12.9028	-47.484791	0.000324	3.243543	1.098942	-0.000130
1330	1.3224e+02	-12.9317	-47.549385	0.000162	1.621771	0.549471	-0.000065
1331	1.3234e+02	-12.9847	-47.735093	0.000466	4.662593	1.579729	-0.000187
1332	1.3243e+02	-13.0135	-47.848133	0.000284	2.838100	0.961574	-0.000114
1333	1.3253e+02	-13.0697	-47.989433	0.000355	3.547625	1.201968	-0.000142
1334	1.3263e+02	-13.0921	-48.054027	0.000162	1.621771	0.549471	-0.000065
1335	1.3273e+02	-13.1322	-48.219549	0.000416	4.155789	1.408020	-0.000166
1336	1.3283e+02	-13.1611	-48.340663	0.000304	3.040821	1.030258	-0.000122
1337	1.3293e+02	-13.2269	-48.477926	0.000345	3.446264	1.167626	-0.000138
1338	1.3303e+02	-13.2542	-48.631337	0.000385	3.851707	1.304994	-0.000154
1339	1.3313e+02	-13.3007	-48.728228	0.000243	2.432657	0.824207	-0.000097
1340	1.3323e+02	-13.3312	-48.861454	0.000334	3.344904	1.133284	-0.000134
1341	1.3333e+02	-13.3777	-48.970457	0.000274	2.736739	0.927232	-0.000110
1342	1.3343e+02	-13.4162	-49.119831	0.000375	3.750346	1.270652	-0.000150
1343	1.3353e+02	-13.4579	-49.224796	0.000264	2.635379	0.892890	-0.000105
1344	1.3363e+02	-13.4884	-49.366096	0.000355	3.547625	1.201968	-0.000142
1345	1.3373e+02	-13.5413	-49.458950	0.000233	2.331296	0.789865	-0.000093
1346	1.3383e+02	-13.5814	-49.632547	0.000436	4.358511	1.476703	-0.000174
1347	1.3393e+02	-13.6183	-49.749624	0.000294	2.939461	0.995916	-0.000118
1348	1.3403e+02	-13.6681	-49.834404	0.000213	2.128575	0.721181	-0.000085
1349	1.3413e+02	-13.7018	-50.003963	0.000426	4.257150	1.442361	-0.000170
1350	1.3423e+02	-13.7370	-50.096817	0.000233	2.331296	0.789865	-0.000093
1351	1.3432e+02	-13.7836	-50.234080	0.000345	3.446264	1.167626	-0.000138
1352	1.3442e+02	-13.8221	-50.343083	0.000274	2.736739	0.927232	-0.000110
1353	1.3452e+02	-13.8622	-50.472271	0.000324	3.243543	1.098942	-0.000130
1354	1.3462e+02	-13.8959	-50.621645	0.000375	3.750346	1.270652	-0.000150
1355	1.3472e+02	-13.9328	-50.710462	0.000223	2.229936	0.755523	-0.000089
1356	1.3482e+02	-13.9713	-50.859836	0.000375	3.750346	1.270652	-0.000150
1357	1.3492e+02	-14.0082	-50.948653	0.000223	2.229936	0.755523	-0.000089
1358	1.3502e+02	-14.0499	-51.081878	0.000334	3.344904	1.133284	-0.000134
1359	1.3512e+02	-14.0980	-51.223178	0.000355	3.547625	1.201968	-0.000142
1360	1.3522e+02	-14.1349	-51.340255	0.000294	2.939461	0.995916	-0.000118
1361	1.3532e+02	-14.1766	-51.453295	0.000284	2.838100	0.961574	-0.000114
1362	1.3542e+02	-14.2183	-51.574409	0.000304	3.040821	1.030258	-0.000122
1363	1.3552e+02	-14.2552	-51.671300	0.000243	2.432657	0.824207	-0.000097
1364	1.3562e+02	-14.3033	-51.808563	0.000345	3.446264	1.167626	-0.000138
1365	1.3572e+02	-14.3483	-51.957937	0.000375	3.750346	1.270652	-0.000150
1366	1.3582e+02	-14.3836	-52.058865	0.000253	2.534018	0.858548	-0.000101
1367	1.3592e+02	-14.4060	-52.155757	0.000243	2.432657	0.824207	-0.000097
1368	1.3602e+02	-14.4557	-52.288982	0.000334	3.344904	1.133284	-0.000134
1369	1.3612e+02	-14.4958	-52.422208	0.000334	3.344904	1.133284	-0.000134
1370	1.3622e+02	-14.5343	-52.567544	0.000365	3.648986	1.236310	-0.000146
1371	1.3631e+02	-14.5777	-52.716918	0.000375	3.750346	1.270652	-0.000150
1372	1.3641e+02	-14.6097	-52.821884	0.000264	2.635379	0.892890	-0.000105
1373	1.3651e+02	-14.6434	-52.906664	0.000213	2.128575	0.721181	-0.000085
1374	1.3661e+02	-14.6964	-53.015667	0.000274	2.736739	0.927232	-0.000110
1375	1.3671e+02	-14.7349	-53.156966	0.000355	3.547625	1.201968	-0.000142
1376	1.3681e+02	-14.7734	-53.274043	0.000294	2.939461	0.995916	-0.000118
1377	1.3691e+02	-14.8087	-53.342675	0.000172	1.723132	0.583813	-0.000069
1378	1.3701e+02	-14.8504	-53.508197	0.000416	4.155789	1.408020	-0.000166
1379	1.3711e+02	-14.8921	-53.613163	0.000264	2.635379	0.892890	-0.000105
1380	1.3721e+02	-14.9370	-53.746388	0.000334	3.344904	1.133284	-0.000134
1381	1.3731e+02	-14.9755	-53.847316	0.000253	2.534018	0.858548	-0.000101
1382	1.3741e+02	-15.0012	-53.984579	0.000345	3.446264	1.167626	-0.000138
1383	1.3751e+02	-15.0541	-54.081470	0.000243	2.432657	0.824207	-0.000097
1384	1.3761e+02	-15.0926	-54.242956	0.000405	4.054429	1.373678	-0.000162
1385	1.3771e+02	-15.1311	-54.351958	0.000274	2.736739	0.927232	-0.000110
1386	1.3781e+02	-15.1680	-54.477110	0.000314	3.142182	1.064600	-0.000126
1387	1.3791e+02	-15.2113	-54.565927	0.000223	2.229936	0.755523	-0.000089
1388	1.3801e+02	-15.2579	-54.715301	0.000375	3.750346	1.270652	-0.000150
1389	1.3811e+02	-15.2899	-54.860638	0.000365	3.648986	1.236310	-0.000146
1390	1.3821e+02	-15.3317	-54.957529	0.000243	2.432657	0.824207	-0.000097
1391	1.3831e+02	-15.3734	-55.066531	0.000274	2.736739	0.927232	-0.000110
1392	1.3840e+02	-15.4054	-55.171497	0.000264	2.635379	0.892890	-0.000105
1393	1.3850e+02	-15.4552	-55.268388	0.000243	2.432657	0.824207	-0.000097
1394	1.3860e+02	-15.4857	-55.397577	0.000324	3.243543	1.098942	-0.000130
1395	1.3870e+02	-15.5322	-55.478319	0.000203	2.027214	0.686839	-0.000081
1396	1.3880e+02	-15.5675	-55.599433	0.000304	3.040821	1.030258	-0.000122
1397	1.3890e+02	-15.6092	-55.720547	0.000304	3.040821	1.030258	-0.000122
1398	1.3900e+02	-15.6557	-55.861847	0.000355	3.547625	1.201968	-0.000142
1399	1.3910e+02	-15.6862	-55.982961	0.000304	3.040821	1.030258	-0.000122
1400	1.3920e+02	-15.7359	-56.079853	0.000243	2.432657	0.824207	-0.000097
1401	1.3930e+02	-15.7696	-56.188855	0.000274	2.736739	0.927232	-0.000110
1402	1.3940e+02	-15.8145	-56.289784	0.000253	2.534018	0.858548	-0.000101
1403	1.3950e+02	-15.8418	-56.447232	0.000395	3.953068	1.339336	-0.000158
1404	1.3960e+02	-15.8931	-56.556235	0.000274	2.736739	0.927232	-0.000110
1405	1.3970e+02	-15.9236	-56.685423	0.000324	3.243543	1.098942	-0.000130
1406	1.3980e+02	-15.9669	-56.778277	0.000233	2.331296	0.789865	-0.000093
1407	1.3990e+02	-15.9974	-56.963985	0.000466	4.662593	1.579729	-0.000187
1408	1.4000e+02	-16.0455	-57.068951	0.000264	2.635379	0.892890	-0.000105
1409	1.4010e+02	-16.0889	-57.161805	0.000233	2.331296	0.789865	-0.000093
1410	1.4020e+02	-16.1274	-57.258696	0.000243	2.432657	0.824207	-0.000097
1411	1.4029e+02	-16.1755	-57.335402	0.000193	1.925854	0.652497	-0.000077
1412	1.4039e+02	-16.2172	-57.440367	0.000264	2.635379	0.892890	-0.000105
1413	1.4049e+02	-16.2509	-57.605890	0.000416	4.155789	1.408020	-0.000166
1414	1.4059e+02	-16.2942	-57.686633	0.000203	2.027214	0.686839	-0.000081
1415	1.4069e+02	-16.3327	-57.815821	0.000324	3.243543	1.098942	-0.000130
1416	1.4079e+02	-16.3760	-57.916749	0.000253	2.534018	0.858548	-0.000101
1417	1.4089e+02	-16.4097	-58.082272	0.000416	4.155789	1.408020	-0.000166
1418	1.4099e+02	-16.4498	-58.126680	0.000111	1.114968	0.377761	-0.000045
1419	1.4109e+02	-16.4931	-58.267980	0.000355	3.547625	1.201968	-0.000142
1420	1.4119e+02	-16.5252	-58.421391	0.000385	3.851707	1.304994	-0.000154
1421	1.4129e+02	-16.5637	-58.534431	0.000284	2.838100	0.961574	-0.000114
1422	1.4139e+02	-16.6070	-58.647471	0.000284	2.838100	0.961574	-0.000114
1423	1.4149e+02	-16.6311	-58.768585	0.000304	3.040821	1.030258	-0.000122
1424	1.4159e+02	-16.6824	-58.893736	0.000314	3.142182	1.064600	-0.000126
1425	1.4169e+02	-16.7225	-59.043110	0.000375	3.750346	1.270652	-0.000150
1426	1.4179e+02	-16.7578	-59.160187	0.000294	2.939461	0.995916	-0.000118
1427	1.4189e+02	-16.8108	-59.281301	0.000304	3.040821	1.030258	-0.000122
1428	1.4199e+02	-16.8412	-59.345895	0.000162	1.621771	0.549471	-0.000065
1429	1.4209e+02	-16.8829	-59.471047	0.000314	3.142182	1.064600	-0.000126
1430	1.4219e+02	-16.9263	-59.592161	0.000304	3.040821	1.030258	-0.000122
1431	1.4228e+02	-16.9648	-59.709238	0.000294	2.939461	0.995916	-0.000118
1432	1.4238e+02	-17.0081	-59.814203	0.000264	2.635379	0.892890	-0.000105
1433	1.4248e+02	-17.0434	-59.947429	0.000334	3.344904	1.133284	-0.000134
1434	1.4258e+02	-17.0915	-60.076617	0.000324	3.243543	1.098942	-0.000130
1435	1.4268e+02	-17.1332	-60.185620	0.000274	2.736739	0.927232	-0.000110
1436	1.4278e+02	-17.1621	-60.298659	0.000284	2.838100	0.961574	-0.000114
1437	1.4288e+02	-17.2022	-60.399588	0.000253	2.534018	0.858548	-0.000101
1438	1.4298e+02	-17.2423	-60.516665	0.000294	2.939461	0.995916	-0.000118
1439	1.4308e+02	-17.2840	-60.670076	0.000385	3.851707	1.304994	-0.000154
1440	1.4318e+02	-17.3193	-60.819450	0.000375	3.750346	1.270652	-0.000150
1441	1.4328e+02	-17.3658	-60.916341	0.000243	2.432657	0.824207	-0.000097
1442	1.4338e+02	-17.3995	-61.057641	0.000355	3.547625	1.201968	-0.000142
1443	1.4348e+02	-17.4412	-61.170681	0.000284	2.838100	0.961574	-0.000114
1444	1.4358e+02	-17.4813	-61.332166	0.000405	4.054429	1.373678	-0.000162
1445	1.4368e+02	-17.5214	-61.433095	0.000253	2.534018	0.858548	-0.000101
1446	1.4378e+02	-17.5663	-61.521912	0.000223	2.229936	0.755523	-0.000089
1447	1.4388e+02	-17.6097	-61.582469	0.000152	1.520411	0.515129	-0.000061
1448	1.4398e+02	-17.6482	-61.719731	0.000345	3.446264	1.167626	-0.000138
1449	1.4408e+02	-17.6786	-61.856994	0.000345	3.446264	1.167626	-0.000138
1450	1.4418e+02	-17.7139	-61.953885	0.000243	2.432657	0.824207	-0.000097
1451	1.4428e+02	-17.7653	-62.062888	0.000274	2.736739	0.927232	-0.000110
1452	1.4437e+02	-17.8070	-62.196113	0.000334	3.344904	1.133284	-0.000134
1453	1.4447e+02	-17.8471	-62.313190	0.000294	2.939461	0.995916	-0.000118
1454	1.4457e+02	-17.8824	-62.446416	0.000334	3.344904	1.133284	-0.000134
1455	1.4467e+02	-17.9225	-62.555418	0.000274	2.736739	0.927232	-0.000110
1456	1.4477e+02	-17.9626	-62.684607	0.000324	3.243543	1.098942	-0.000130
1457	1.4487e+02	-17.9963	-62.850129	0.000416	4.155789	1.408020	-0.000166
1458	1.4497e+02	-18.0332	-62.999503	0.000375	3.750346	1.270652	-0.000150
1459	1.4507e+02	-18.0829	-63.084283	0.000213	2.128575	0.721181	-0.000085
1460	1.4517e+02	-18.1182	-63.233657	0.000375	3.750346	1.270652	-0.000150
1461	1.4527e+02	-18.1663	-63.366883	0.000334	3.344904	1.133284	-0.000134
1462	1.4537e+02	-18.2048	-63.455700	0.000223	2.229936	0.755523	-0.000089
1463	1.4547e+02	-18.2401	-63.576814	0.000304	3.040821	1.030258	-0.000122
1464	1.4557e+02	-18.2786	-63.673705	0.000243	2.432657	0.824207	-0.000097
1465	1.4567e+02	-18.3139	-63.790782	0.000294	2.939461	0.995916	-0.000118
1466	1.4577e+02	-18.3604	-63.944193	0.000385	3.851707	1.304994	-0.000154
1467	1.4587e+02	-18.3973	-64.053196	0.000274	2.736739	0.927232	-0.000110
1468	1.4597e+02	-18.4407	-64.154124	0.000253	2.534018	0.858548	-0.000101
1469	1.4607e+02	-18.4824	-64.283312	0.000324	3.243543	1.098942	-0.000130
1470	1.4617e+02	-18.5225	-64.384241	0.000253	2.534018	0.858548	-0.000101
1471	1.4626e+02	-18.5706	-64.525541	0.000355	3.547625	1.201968	-0.000142
1472	1.4636e+02	-18.5995	-64.682989	0.000395	3.953068	1.339336	-0.000158
1473	1.4646e+02	-18.6412	-64.755657	0.000182	1.824493	0.618155	-0.000073
1474	1.4656e+02	-18.6733	-64.945403	0.000476	4.763954	1.614071	-0.000191
1475	1.4666e+02	-18.7118	-65.090740	0.000365	3.648986	1.236310	-0.000146
1476	1.4676e+02	-18.7551	-65.199742	0.000274	2.736739	0.927232	-0.000110
1477	1.4686e+02	-18.7984	-65.328931	0.000324	3.243543	1.098942	-0.000130
1478	1.4696e+02	-18.8401	-65.454082	0.000314	3.142182	1.064600	-0.000126
1479	1.4706e+02	-18.8738	-65.599419	0.000365	3.648986	1.236310	-0.000146
1480	1.4716e+02	-18.9171	-65.728607	0.000324	3.243543	1.098942	-0.000130
1481	1.4726e+02	-18.9604	-65.853758	0.000314	3.142182	1.064600	-0.000126
1482	1.4736e+02	-18.9957	-65.902204	0.000122	1.216329	0.412103	-0.000049
1483	1.4746e+02	-19.0438	-66.027355	0.000314	3.142182	1.064600	-0.000126
1484	1.4756e+02	-19.0872	-66.200952	0.000436	4.358511	1.476703	-0.000174
1485	1.4766e+02	-19.1160	-66.305917	0.000264	2.635379	0.892890	-0.000105
1486	1.4776e+02	-19.1561	-66.398771	0.000233	2.331296	0.789865	-0.000093
1487	1.4786e+02	-19.2059	-66.552183	0.000385	3.851707	1.304994	-0.000154
1488	1.4796e+02	-19.2444	-66.701557	0.000375	3.750346	1.270652	-0.000150
1489	1.4806e+02	-19.2749	-66.826708	0.000314	3.142182	1.064600	-0.000126
1490	1.4816e+02	-19.3134	-66.976082	0.000375	3.750346	1.270652	-0.000150
1491	1.4825e+02	-19.3551	-67.117382	0.000355	3.547625	1.201968	-0.000142
1492	1.4835e+02	-19.3936	-67.262719	0.000365	3.648986	1.236310	-0.000146
1493	1.4845e+02	-19.4353	-67.387870	0.000314	3.142182	1.064600	-0.000126
1494	1.4855e+02	-19.4722	-67.521095	0.000334	3.344904	1.133284	-0.000134
1495	1.4865e+02	-19.5155	-67.674506	0.000385	3.851707	1.304994	-0.000154
1496	1.4875e+02	-19.5540	-67.803695	0.000324	3.243543	1.098942	-0.000130
1497	1.4885e+02	-19.5973	-67.924809	0.000304	3.040821	1.030258	-0.000122
1498	1.4895e+02	-19.6374	-68.070146	0.000365	3.648986	1.236310	-0.000146
1499	1.4905e+02	-19.6727	-68.167037	0.000243	2.432657	0.824207	-0.000097
1500	1.4915e+02	-19.7176	-68.267965	0.000253	2.534018	0.858548	-0.000101
1501	1.4925e+02	-19.7577	-68.372931	0.000264	2.635379	0.892890	-0.000105
1502	1.4935e+02	-19.7962	-68.538453	0.000416	4.155789	1.408020	-0.000166
1503	1.4945e+02	-19.8299	-68.659567	0.000304	3.040821	1.030258	-0.000122
1504	1.4955e+02	-19.8780	-68.784719	0.000314	3.142182	1.064600	-0.000126
1505	1.4965e+02	-19.9214	-68.958316	0.000436	4.358511	1.476703	-0.000174
1506	1.4975e+02	-19.9502	-69.123838	0.000416	4.155789	1.408020	-0.000166
1507	1.4985e+02	-19.9903	-69.204581	0.000203	2.027214	0.686839	-0.000081
1508	1.4995e+02	-19.9422	-69.196507	0.000020	0.202721	0.068684	0.000008
1509	1.5005e+02	-19.9037	-69.144024	0.000132	1.317689	0.446445	0.000053
1510	1.5015e+02	-19.8780	-69.091541	0.000132	1.317689	0.446445	0.000053
1511	1.5025e+02	-19.8315	-69.035021	0.000142	1.419050	0.480787	0.000057
1512	1.5034e+02	-19.7930	-68.990613	0.000111	1.114968	0.377761	0.000045
1513	1.5044e+02	-19.7577	-68.930056	0.000152	1.520411	0.515129	0.000061
1514	1.5054e+02	-19.7128	-68.873536	0.000142	1.419050	0.480787	0.000057
1515	1.5064e+02	-19.6695	-68.776644	0.000243	2.432657	0.824207	0.000097
1516	1.5074e+02	-19.6390	-68.679753	0.000243	2.432657	0.824207	0.000097
1517	1.5084e+02	-19.5909	-68.594973	0.000213	2.128575	0.721181	0.000085
1518	1.5094e+02	-19.5604	-68.518268	0.000193	1.925854	0.652497	0.000077
1519	1.5104e+02	-19.5075	-68.498082	0.000051	0.506804	0.171710	0.000020
1520	1.5114e+02	-19.4770	-68.409265	0.000223	2.229936	0.755523	0.000089
1521	1.5124e+02	-19.4305	-68.340634	0.000172	1.723132	0.583813	0.000069
1522	1.5134e+02	-19.4016	-68.259891	0.000203	2.027214	0.686839	0.000081
1523	1.5144e+02	-19.3615	-68.199334	0.000152	1.520411	0.515129	0.000061
1524	1.5154e+02	-19.3085	-68.154926	0.000111	1.114968	0.377761	0.000045
1525	1.5164e+02	-19.2749	-68.074183	0.000203	2.027214	0.686839	0.000081
1526	1.5174e+02	-19.2331	-68.009589	0.000162	1.621771	0.549471	0.000065
1527	1.5184e+02	-19.1995	-67.936920	0.000182	1.824493	0.618155	0.000073
1528	1.5194e+02	-19.1626	-67.835992	0.000253	2.534018	0.858548	0.000101
1529	1.5204e+02	-19.1096	-67.767360	0.000172	1.723132	0.583813	0.000069
1530	1.5214e+02	-19.0711	-67.718915	0.000122	1.216329	0.412103	0.000049
1531	1.5224e+02	-19.0503	-67.654321	0.000162	1.621771	0.549471	0.000065
1532	1.5233e+02	-19.0005	-67.533207	0.000304	3.040821	1.030258	0.000122
1533	1.5243e+02	-18.9684	-67.420167	0.000284	2.838100	0.961574	0.000114
1534	1.5253e+02	-18.9203	-67.343461	0.000193	1.925854	0.652497	0.000077
1535	1.5263e+02	-18.8722	-67.222347	0.000304	3.040821	1.030258	0.000122
1536	1.5273e+02	-18.8417	-67.145642	0.000193	1.925854	0.652497	0.000077
1537	1.5283e+02	-18.7984	-67.105270	0.000101	1.013607	0.343419	0.000041
1538	1.5293e+02	-18.7583	-67.000305	0.000264	2.635379	0.892890	0.000105
1539	1.5303e+02	-18.7150	-66.903413	0.000243	2.432657	0.824207	0.000097
1540	1.5313e+02	-18.6701	-66.846894	0.000142	1.419050	0.480787	0.000057
1541	1.5323e+02	-18.6332	-66.794411	0.000132	1.317689	0.446445	0.000053
1542	1.5333e+02	-18.6011	-66.673297	0.000304	3.040821	1.030258	0.000122
1543	1.5343e+02	-18.5562	-66.600628	0.000182	1.824493	0.618155	0.000073
1544	1.5353e+02	-18.5225	-66.527960	0.000182	1.824493	0.618155	0.000073
1545	1.5363e+02	-18.4920	-66.447217	0.000203	2.027214	0.686839	0.000081
1546	1.5373e+02	-18.4358	-66.322066	0.000314	3.142182	1.064600	0.000126
1547	1.5383e+02	-18.3957	-66.293806	0.000071	0.709525	0.240394	0.000028
1548	1.5393e+02	-18.3588	-66.225175	0.000172	1.723132	0.583813	0.000069
1549	1.5403e+02	-18.3219	-66.116172	0.000274	2.736739	0.927232	0.000110
1550	1.5413e+02	-18.2818	-65.991021	0.000314	3.142182	1.064600	0.000126
1551	1.5422e+02	-18.2305	-65.894130	0.000243	2.432657	0.824207	0.000097
1552	1.5432e+02	-18.2032	-65.809350	0.000213	2.128575	0.721181	0.000085
1553	1.5442e+02	-18.1615	-65.704384	0.000264	2.635379	0.892890	0.000105
1554	1.5452e+02	-18.1230	-65.583270	0.000304	3.040821	1.030258	0.000122
1555	1.5462e+02	-18.0877	-65.506564	0.000193	1.925854	0.652497	0.000077
1556	1.5472e+02	-18.0492	-65.454082	0.000132	1.317689	0.446445	0.000053
1557	1.5482e+02	-17.9979	-65.312782	0.000355	3.547625	1.201968	0.000142
1558	1.5492e+02	-17.9562	-65.228002	0.000213	2.128575	0.721181	0.000085
1559	1.5502e+02	-17.9257	-65.223965	0.000010	0.101361	0.034342	0.000004
1560	1.5512e+02	-17.8776	-65.078628	0.000365	3.648986	1.236310	0.000146
1561	1.5522e+02	-17.8471	-64.973663	0.000264	2.635379	0.892890	0.000105
1562	1.5532e+02	-17.7958	-64.905031	0.000172	1.723132	0.583813	0.000069
1563	1.5542e+02	-17.7637	-64.852548	0.000132	1.317689	0.446445	0.000053
1564	1.5552e+02	-17.7204	-64.735472	0.000294	2.939461	0.995916	0.000118
1565	1.5562e+02	-17.6819	-64.634543	0.000253	2.534018	0.858548	0.000101
1566	1.5572e+02	-17.6466	-64.537652	0.000243	2.432657	0.824207	0.000097
1567	1.5582e+02	-17.6032	-64.436724	0.000253	2.534018	0.858548	0.000101
1568	1.5592e+02	-17.5696	-64.323684	0.000284	2.838100	0.961574	0.000114
1569	1.5602e+02	-17.5230	-64.226792	0.000243	2.432657	0.824207	0.000097
1570	1.5612e+02	-17.4893	-64.093567	0.000334	3.344904	1.133284	0.000134
1571	1.5622e+02	-17.4460	-63.992639	0.000253	2.534018	0.858548	0.000101
1572	1.5631e+02	-17.4043	-63.899784	0.000233	2.331296	0.789865	0.000093
1573	1.5641e+02	-17.3658	-63.815005	0.000213	2.128575	0.721181	0.000085
1574	1.5651e+02	-17.3193	-63.746373	0.000172	1.723132	0.583813	0.000069
1575	1.5661e+02	-17.2696	-63.681779	0.000162	1.621771	0.549471	0.000065
1576	1.5671e+02	-17.2471	-63.568739	0.000284	2.838100	0.961574	0.000114
1577	1.5681e+02	-17.2214	-63.492034	0.000193	1.925854	0.652497	0.000077
1578	1.5691e+02	-17.1589	-63.362845	0.000324	3.243543	1.098942	0.000130
1579	1.5701e+02	-17.1268	-63.233657	0.000324	3.243543	1.098942	0.000130
1580	1.5711e+02	-17.0803	-63.169063	0.000162	1.621771	0.549471	0.000065
1581	1.5721e+02	-17.0418	-63.100432	0.000172	1.723132	0.583813	0.000069
1582	1.5731e+02	-17.0065	-62.999503	0.000253	2.534018	0.858548	0.000101
1583	1.5741e+02	-16.9616	-62.886463	0.000284	2.838100	0.961574	0.000114
1584	1.5751e+02	-16.9263	-62.749201	0.000345	3.446264	1.167626	0.000138
1585	1.5761e+02	-16.8829	-62.672495	0.000193	1.925854	0.652497	0.000077
1586	1.5771e+02	-16.8460	-62.547344	0.000314	3.142182	1.064600	0.000126
1587	1.5781e+02	-16.8011	-62.450453	0.000243	2.432657	0.824207	0.000097
1588	1.5791e+02	-16.7674	-62.353561	0.000243	2.432657	0.824207	0.000097
1589	1.5801e+02	-16.7257	-62.260707	0.000233	2.331296	0.789865	0.000093
1590	1.5811e+02	-16.6953	-62.163816	0.000243	2.432657	0.824207	0.000097
1591	1.5821e+02	-16.6423	-62.066925	0.000243	2.432657	0.824207	0.000097
1592	1.5830e+02	-16.5974	-62.018479	0.000122	1.216329	0.412103	0.000049
1593	1.5840e+02	-16.5637	-61.909477	0.000274	2.736739	0.927232	0.000110
1594	1.5850e+02	-16.5188	-61.780288	0.000324	3.243543	1.098942	0.000130
1595	1.5860e+02	-16.4819	-61.667248	0.000284	2.838100	0.961574	0.000114
1596	1.5870e+02	-16.4386	-61.626877	0.000101	1.013607	0.343419	0.000041
1597	1.5880e+02	-16.4001	-61.517874	0.000274	2.736739	0.927232	0.000110
1598	1.5890e+02	-16.3648	-61.412909	0.000264	2.635379	0.892890	0.000105
1599	1.5900e+02	-16.3327	-61.303906	0.000274	2.736739	0.927232	0.000110
1600	1.5910e+02	-16.2910	-61.279683	0.000061	0.608164	0.206052	0.000024
1601	1.5920e+02	-16.2493	-61.114161	0.000416	4.155789	1.408020	0.000166
1602	1.5930e+02	-16.2124	-61.017270	0.000243	2.432657	0.824207	0.000097
1603	1.5940e+02	-16.1723	-60.920378	0.000243	2.432657	0.824207	0.000097
1604	1.5950e+02	-16.1290	-60.839636	0.000203	2.027214	0.686839	0.000081
1605	1.5960e+02	-16.0840	-60.754856	0.000213	2.128575	0.721181	0.000085
1606	1.5970e+02	-16.0439	-60.593370	0.000405	4.054429	1.373678	0.000162
1607	1.5980e+02	-16.0135	-60.484368	0.000274	2.736739	0.927232	0.000110
1608	1.5990e+02	-15.9685	-60.395551	0.000223	2.229936	0.755523	0.000089
1609	1.6000e+02	-15.9252	-60.314808	0.000203	2.027214	0.686839	0.000081
1610	1.6010e+02	-15.8915	-60.238102	0.000193	1.925854	0.652497	0.000077
1611	1.6019e+02	-15.8498	-60.112951	0.000314	3.142182	1.064600	0.000126
1612	1.6029e+02	-15.8145	-60.056431	0.000142	1.419050	0.480787	0.000057
1613	1.6039e+02	-15.7680	-59.915131	0.000355	3.547625	1.201968	0.000142
1614	1.6049e+02	-15.7263	-59.842463	0.000182	1.824493	0.618155	0.000073
1615	1.6059e+02	-15.6894	-59.781906	0.000152	1.520411	0.515129	0.000061
1616	1.6069e+02	-15.6509	-59.648681	0.000334	3.344904	1.133284	0.000134
1617	1.6079e+02	-15.6060	-59.596198	0.000132	1.317689	0.446445	0.000053
1618	1.6089e+02	-15.5739	-59.475084	0.000304	3.040821	1.030258	0.000122
1619	1.6099e+02	-15.5418	-59.349932	0.000314	3.142182	1.064600	0.000126
1620	1.6109e+02	-15.4889	-59.208633	0.000355	3.547625	1.201968	0.000142
1621	1.6119e+02	-15.4552	-59.160187	0.000122	1.216329	0.412103	0.000049
1622	1.6129e+02	-15.4167	-59.002739	0.000395	3.953068	1.339336	0.000158
1623	1.6139e+02	-15.3718	-58.942182	0.000152	1.520411	0.515129	0.000061
1624	1.6149e+02	-15.3284	-58.808956	0.000334	3.344904	1.133284	0.000134
1625	1.6159e+02	-15.2883	-58.716102	0.000233	2.331296	0.789865	0.000093
1626	1.6169e+02	-15.2450	-58.643434	0.000182	1.824493	0.618155	0.000073
1627	1.6179e+02	-15.2129	-58.538468	0.000264	2.635379	0.892890	0.000105
1628	1.6189e+02	-15.1680	-58.461763	0.000193	1.925854	0.652497	0.000077
1629	1.6199e+02	-15.1359	-58.364871	0.000243	2.432657	0.824207	0.000097
1630	1.6209e+02	-15.0942	-58.247794	0.000294	2.939461	0.995916	0.000118
1631	1.6219e+02	-15.0557	-58.163015	0.000213	2.128575	0.721181	0.000085
1632	1.6228e+02	-15.0204	-58.070160	0.000233	2.331296	0.789865	0.000093
1633	1.6238e+02	-14.9627	-57.924824	0.000365	3.648986	1.236310	0.000146
1634	1.6248e+02	-14.9386	-57.836007	0.000223	2.229936	0.755523	0.000089
1635	1.6258e+02	-14.8937	-57.710855	0.000314	3.142182	1.064600	0.000126
1636	1.6268e+02	-14.8552	-57.674521	0.000091	0.912246	0.309077	0.000037
1637	1.6278e+02	-14.8151	-57.533221	0.000355	3.547625	1.201968	0.000142
1638	1.6288e+02	-14.7862	-57.476702	0.000142	1.419050	0.480787	0.000057
1639	1.6298e+02	-14.7365	-57.359625	0.000294	2.939461	0.995916	0.000118
1640	1.6308e+02	-14.6964	-57.230436	0.000324	3.243543	1.098942	0.000130
1641	1.6318e+02	-14.6547	-57.153731	0.000193	1.925854	0.652497	0.000077
1642	1.6328e+02	-14.6081	-57.004357	0.000375	3.750346	1.270652	0.000150
1643	1.6338e+02	-14.5841	-56.939762	0.000162	1.621771	0.549471	0.000065
1644	1.6348e+02	-14.5440	-56.842871	0.000243	2.432657	0.824207	0.000097
1645	1.6358e+02	-14.4975	-56.750017	0.000233	2.331296	0.789865	0.000093
1646	1.6368e+02	-14.4573	-56.600643	0.000375	3.750346	1.270652	0.000150
1647	1.6378e+02	-14.4188	-56.519900	0.000203	2.027214	0.686839	0.000081
1648	1.6388e+02	-14.3691	-56.406861	0.000284	2.838100	0.961574	0.000114
1649	1.6398e+02	-14.3290	-56.314006	0.000233	2.331296	0.789865	0.000093
1650	1.6408e+02	-14.2937	-56.205004	0.000274	2.736739	0.927232	0.000110
1651	1.6418e+02	-14.2584	-56.140410	0.000162	1.621771	0.549471	0.000065
1652	1.6427e+02	-14.2167	-56.023333	0.000294	2.939461	0.995916	0.000118
1653	1.6437e+02	-14.1718	-55.914330	0.000274	2.736739	0.927232	0.000110
1654	1.6447e+02	-14.1301	-55.849736	0.000162	1.621771	0.549471	0.000065
1655	1.6457e+02	-14.1044	-55.708436	0.000355	3.547625	1.201968	0.000142
1656	1.6467e+02	-14.0595	-55.619619	0.000223	2.229936	0.755523	0.000089
1657	1.6477e+02	-14.0226	-55.555025	0.000162	1.621771	0.549471	0.000065
1658	1.6487e+02	-13.9713	-55.401614	0.000385	3.851707	1.304994	0.000154
1659	1.6497e+02	-13.9247	-55.341057	0.000152	1.520411	0.515129	0.000061
1660	1.6507e+02	-13.8975	-55.228017	0.000284	2.838100	0.961574	0.000114
1661	1.6517e+02	-13.8526	-55.135163	0.000233	2.331296	0.789865	0.000093
1662	1.6527e+02	-13.8124	-54.985789	0.000375	3.750346	1.270652	0.000150
1663	1.6537e+02	-13.7788	-54.921195	0.000162	1.621771	0.549471	0.000065
1664	1.6547e+02	-13.7242	-54.800081	0.000304	3.040821	1.030258	0.000122
1665	1.6557e+02	-13.7034	-54.691078	0.000274	2.736739	0.927232	0.000110
1666	1.6567e+02	-13.6633	-54.590149	0.000253	2.534018	0.858548	0.000101
1667	1.6577e+02	-13.6231	-54.505370	0.000213	2.128575	0.721181	0.000085
1668	1.6587e+02	-13.5766	-54.384256	0.000304	3.040821	1.030258	0.000122
1669	1.6597e+02	-13.5510	-54.267179	0.000294	2.939461	0.995916	0.000118
1670	1.6607e+02	-13.5012	-54.182399	0.000213	2.128575	0.721181	0.000085
1671	1.6616e+02	-13.4595	-54.089545	0.000233	2.331296	0.789865	0.000093
1672	1.6626e+02	-13.4130	-53.924022	0.000416	4.155789	1.408020	0.000166
1673	1.6636e+02	-13.3793	-53.847316	0.000193	1.925854	0.652497	0.000077
1674	1.6646e+02	-13.3472	-53.766574	0.000203	2.027214	0.686839	0.000081
1675	1.6656e+02	-13.3055	-53.665645	0.000253	2.534018	0.858548	0.000101
1676	1.6666e+02	-13.2622	-53.544531	0.000304	3.040821	1.030258	0.000122
1677	1.6676e+02	-13.2189	-53.479937	0.000162	1.621771	0.549471	0.000065
1678	1.6686e+02	-13.1675	-53.374972	0.000264	2.635379	0.892890	0.000105
1679	1.6696e+02	-13.1355	-53.245783	0.000324	3.243543	1.098942	0.000130
1680	1.6706e+02	-13.1002	-53.104483	0.000355	3.547625	1.201968	0.000142
1681	1.6716e+02	-13.0601	-52.979332	0.000314	3.142182	1.064600	0.000126
1682	1.6726e+02	-13.0151	-52.890515	0.000223	2.229936	0.755523	0.000089
1683	1.6736e+02	-12.9831	-52.753253	0.000345	3.446264	1.167626	0.000138
1684	1.6746e+02	-12.9430	-52.652324	0.000253	2.534018	0.858548	0.000101
1685	1.6756e+02	-12.8948	-52.571582	0.000203	2.027214	0.686839	0.000081
1686	1.6766e+02	-12.8611	-52.414133	0.000395	3.953068	1.339336	0.000158
1687	1.6776e+02	-12.8114	-52.329353	0.000213	2.128575	0.721181	0.000085
1688	1.6786e+02	-12.7825	-52.236499	0.000233	2.331296	0.789865	0.000093
1689	1.6796e+02	-12.7440	-52.147682	0.000223	2.229936	0.755523	0.000089
1690	1.6806e+02	-12.7023	-52.018494	0.000324	3.243543	1.098942	0.000130
1691	1.6816e+02	-12.6654	-51.861046	0.000395	3.953068	1.339336	0.000158
1692	1.6825e+02	-12.6349	-51.808563	0.000132	1.317689	0.446445	0.000053
1693	1.6835e+02	-12.5836	-51.695523	0.000284	2.838100	0.961574	0.000114
1694	1.6845e+02	-12.5403	-51.550186	0.000365	3.648986	1.236310	0.000146
1695	1.6855e+02	-12.5082	-51.497703	0.000132	1.317689	0.446445	0.000053
1696	1.6865e+02	-12.4601	-51.384664	0.000284	2.838100	0.961574	0.000114
1697	1.6875e+02	-12.4280	-51.235290	0.000375	3.750346	1.270652	0.000150
1698	1.6885e+02	-12.3879	-51.162621	0.000182	1.824493	0.618155	0.000073
1699	1.6895e+02	-12.3462	-50.984987	0.000446	4.459871	1.511045	0.000179
1700	1.6905e+02	-12.3093	-50.884059	0.000253	2.534018	0.858548	0.000101
1701	1.6915e+02	-12.2644	-50.766982	0.000294	2.939461	0.995916	0.000118
1702	1.6925e+02	-12.2259	-50.649905	0.000294	2.939461	0.995916	0.000118
1703	1.6935e+02	-12.1793	-50.561088	0.000223	2.229936	0.755523	0.000089
1704	1.6945e+02	-12.1440	-50.452085	0.000274	2.736739	0.927232	0.000110
1705	1.6955e+02	-12.1104	-50.314823	0.000345	3.446264	1.167626	0.000138
1706	1.6965e+02	-12.0735	-50.213894	0.000253	2.534018	0.858548	0.000101
1707	1.6975e+02	-12.0189	-50.088743	0.000314	3.142182	1.064600	0.000126
1708	1.6985e+02	-11.9884	-49.979740	0.000274	2.736739	0.927232	0.000110
1709	1.6995e+02	-11.9419	-49.890923	0.000223	2.229936	0.755523	0.000089
1710	1.7005e+02	-11.9114	-49.753661	0.000345	3.446264	1.167626	0.000138
1711	1.7015e+02	-11.8585	-49.656770	0.000243	2.432657	0.824207	0.000097
1712	1.7024e+02	-11.8216	-49.551804	0.000264	2.635379	0.892890	0.000105
1713	1.7034e+02	-11.7895	-49.471061	0.000203	2.027214	0.686839	0.000081
1714	1.7044e+02	-11.7446	-49.321687	0.000375	3.750346	1.270652	0.000150
1715	1.7054e+02	-11.7173	-49.184425	0.000345	3.446264	1.167626	0.000138
1716	1.7064e+02	-11.6596	-49.079459	0.000264	2.635379	0.892890	0.000105
1717	1.7074e+02	-11.6275	-48.954308	0.000314	3.142182	1.064600	0.000126
1718	1.7084e+02	-11.5858	-48.833194	0.000304	3.040821	1.030258	0.000122
1719	1.7094e+02	-11.5457	-48.720154	0.000284	2.838100	0.961574	0.000114
1720	1.7104e+02	-11.5120	-48.578854	0.000355	3.547625	1.201968	0.000142
1721	1.7114e+02	-11.4687	-48.481963	0.000243	2.432657	0.824207	0.000097
1722	1.7124e+02	-11.4237	-48.360849	0.000304	3.040821	1.030258	0.000122
1723	1.7134e+02	-11.3820	-48.288181	0.000182	1.824493	0.618155	0.000073
1724	1.7144e+02	-11.3467	-48.102472	0.000466	4.662593	1.579729	0.000187
1725	1.7154e+02	-11.3114	-48.021730	0.000203	2.027214	0.686839	0.000081
1726	1.7164e+02	-11.2713	-47.912727	0.000274	2.736739	0.927232	0.000110
1727	1.7174e+02	-11.2296	-47.799687	0.000284	2.838100	0.961574	0.000114
1728	1.7184e+02	-11.1943	-47.686647	0.000284	2.838100	0.961574	0.000114
1729	1.7194e+02	-11.1542	-47.561496	0.000314	3.142182	1.064600	0.000126
1730	1.7204e+02	-11.1125	-47.452493	0.000274	2.736739	0.927232	0.000110
1731	1.7213e+02	-11.0740	-47.319268	0.000334	3.344904	1.133284	0.000134
1732	1.7223e+02	-11.0307	-47.258711	0.000152	1.520411	0.515129	0.000061
1733	1.7233e+02	-10.9906	-47.097226	0.000405	4.054429	1.373678	0.000162
1734	1.7243e+02	-10.9553	-46.947851	0.000375	3.750346	1.270652	0.000150
1735	1.7253e+02	-10.8992	-46.802515	0.000365	3.648986	1.236310	0.000146
1736	1.7263e+02	-10.8735	-46.713698	0.000223	2.229936	0.755523	0.000089
1737	1.7273e+02	-10.8350	-46.568361	0.000365	3.648986	1.236310	0.000146
1738	1.7283e+02	-10.7885	-46.423024	0.000365	3.648986	1.236310	0.000146
1739	1.7293e+02	-10.7500	-46.289798	0.000334	3.344904	1.133284	0.000134
1740	1.7303e+02	-10.7050	-46.200981	0.000223	2.229936	0.755523	0.000089
1741	1.7313e+02	-10.6714	-46.091979	0.000274	2.736739	0.927232	0.000110
1742	1.7323e+02	-10.6313	-45.978939	0.000284	2.838100	0.961574	0.000114
1743	1.7333e+02	-10.5960	-45.833602	0.000365	3.648986	1.236310	0.000146
1744	1.7343e+02	-10.5623	-45.716525	0.000294	2.939461	0.995916	0.000118
1745	1.7353e+02	-10.5109	-45.538891	0.000446	4.459871	1.511045	0.000179
1746	1.7363e+02	-10.4660	-45.478334	0.000152	1.520411	0.515129	0.000061
1747	1.7373e+02	-10.4339	-45.369331	0.000274	2.736739	0.927232	0.000110
1748	1.7383e+02	-10.3826	-45.240143	0.000324	3.243543	1.098942	0.000130
1749	1.7393e+02	-10.3473	-45.151326	0.000223	2.229936	0.755523	0.000089
1750	1.7403e+02	-10.3088	-45.074621	0.000193	1.925854	0.652497	0.000077
1751	1.7413e+02	-10.2703	-44.925246	0.000375	3.750346	1.270652	0.000150
1752	1.7422e+02	-10.2302	-44.739538	0.000466	4.662593	1.579729	0.000187
1753	1.7432e+02	-10.1917	-44.630536	0.000274	2.736739	0.927232	0.000110
1754	1.7442e+02	-10.1516	-44.501347	0.000324	3.243543	1.098942	0.000130
1755	1.7452e+02	-10.1131	-44.384270	0.000294	2.939461	0.995916	0.000118
1756	1.7462e+02	-10.0714	-44.255082	0.000324	3.243543	1.098942	0.000130
1757	1.7472e+02	-10.0249	-44.065337	0.000476	4.763954	1.614071	0.000191
1758	1.7482e+02	-9.9896	-43.992668	0.000182	1.824493	0.618155	0.000073
1759	1.7492e+02	-9.9591	-43.883665	0.000274	2.736739	0.927232	0.000110
1760	1.7502e+02	-9.9110	-43.762551	0.000304	3.040821	1.030258	0.000122
1761	1.7512e+02	-9.8757	-43.617215	0.000365	3.648986	1.236310	0.000146
1762	1.7522e+02	-9.8372	-43.512249	0.000264	2.635379	0.892890	0.000105
1763	1.7532e+02	-9.8051	-43.427469	0.000213	2.128575	0.721181	0.000085
1764	1.7542e+02	-9.7521	-43.306355	0.000304	3.040821	1.030258	0.000122
1765	1.7552e+02	-9.7184	-43.189278	0.000294	2.939461	0.995916	0.000118
1766	1.7562e+02	-9.6655	-43.052016	0.000345	3.446264	1.167626	0.000138
1767	1.7572e+02	-9.6222	-42.991458	0.000152	1.520411	0.515129	0.000061
1768	1.7582e+02	-9.5965	-42.838047	0.000385	3.851707	1.304994	0.000154
1769	1.7592e+02	-9.5548	-42.684636	0.000385	3.851707	1.304994	0.000154
1770	1.7602e+02	-9.5147	-42.599856	0.000213	2.128575	0.721181	0.000085
1771	1.7612e+02	-9.4810	-42.410111	0.000476	4.763954	1.614071	0.000191
1772	1.7621e+02	-9.4297	-42.321294	0.000223	2.229936	0.755523	0.000089
1773	1.7631e+02	-9.3928	-42.204217	0.000294	2.939461	0.995916	0.000118
1774	1.7641e+02	-9.3527	-42.066954	0.000345	3.446264	1.167626	0.000138
1775	1.7651e+02	-9.3222	-41.941803	0.000314	3.142182	1.064600	0.000126
1776	1.7661e+02	-9.2757	-41.808578	0.000334	3.344904	1.133284	0.000134
1777	1.7671e+02	-9.2275	-41.687464	0.000304	3.040821	1.030258	0.000122
1778	1.7681e+02	-9.1890	-41.566350	0.000304	3.040821	1.030258	0.000122
1779	1.7691e+02	-9.1618	-41.416976	0.000375	3.750346	1.270652	0.000150
1780	1.7701e+02	-9.1201	-41.279713	0.000345	3.446264	1.167626	0.000138
1781	1.7711e+02	-9.0816	-41.182822	0.000243	2.432657	0.824207	0.000097
1782	1.7721e+02	-9.0431	-41.102079	0.000203	2.027214	0.686839	0.000081
1783	1.7731e+02	-8.9981	-40.972891	0.000324	3.243543	1.098942	0.000130
1784	1.7741e+02	-8.9564	-40.847739	0.000314	3.142182	1.064600	0.000126
1785	1.7751e+02	-8.9179	-40.762960	0.000213	2.128575	0.721181	0.000085
1786	1.7761e+02	-8.8810	-40.641845	0.000304	3.040821	1.030258	0.000122
1787	1.7771e+02	-8.8393	-40.480360	0.000405	4.054429	1.373678	0.000162
1788	1.7781e+02	-8.8008	-40.355209	0.000314	3.142182	1.064600	0.000126
1789	1.7791e+02	-8.7559	-40.181612	0.000436	4.358511	1.476703	0.000174
1790	1.7801e+02	-8.7222	-40.076646	0.000264	2.635379	0.892890	0.000105
1791	1.7810e+02	-8.6789	-39.967644	0.000274	2.736739	0.927232	0.000110
1792	1.7820e+02	-8.6324	-39.830381	0.000345	3.446264	1.167626	0.000138
1793	1.7830e+02	-8.5987	-39.713304	0.000294	2.939461	0.995916	0.000118
1794	1.7840e+02	-8.5618	-39.584116	0.000324	3.243543	1.098942	0.000130
1795	1.7850e+02	-8.5233	-39.434742	0.000375	3.750346	1.270652	0.000150
1796	1.7860e+02	-8.4784	-39.333813	0.000253	2.534018	0.858548	0.000101
1797	1.7870e+02	-8.4351	-39.216737	0.000294	2.939461	0.995916	0.000118
1798	1.7880e+02	-8.4078	-39.075437	0.000355	3.547625	1.201968	0.000142
1799	1.7890e+02	-8.3581	-38.978546	0.000243	2.432657	0.824207	0.000097
1800	1.7900e+02	-8.3147	-38.869543	0.000274	2.736739	0.927232	0.000110
1801	1.7910e+02	-8.2746	-38.756503	0.000284	2.838100	0.961574	0.000114
1802	1.7920e+02	-8.2361	-38.635389	0.000304	3.040821	1.030258	0.000122
1803	1.7930e+02	-8.1992	-38.490052	0.000365	3.648986	1.236310	0.000146
1804	1.7940e+02	-8.1736	-38.368938	0.000304	3.040821	1.030258	0.000122
1805	1.7950e+02	-8.1206	-38.255898	0.000284	2.838100	0.961574	0.000114
1806	1.7960e+02	-8.0821	-38.094413	0.000405	4.054429	1.373678	0.000162
1807	1.7970e+02	-8.0452	-37.993484	0.000253	2.534018	0.858548	0.000101
1808	1.7980e+02	-7.9939	-37.807776	0.000466	4.662593	1.579729	0.000187
1809	1.7990e+02	-7.9650	-37.706848	0.000253	2.534018	0.858548	0.000101
1810	1.8000e+02	-7.9217	-37.597845	0.000274	2.736739	0.927232	0.000110
1811	1.8009e+02	-7.8864	-37.428285	0.000426	4.257150	1.442361	0.000170
1812	1.8019e+02	-7.8367	-37.303134	0.000314	3.142182	1.064600	0.000126
1813	1.8029e+02	-7.7966	-37.254689	0.000122	1.216329	0.412103	0.000049
1814	1.8039e+02	-7.7629	-37.093203	0.000405	4.054429	1.373678	0.000162
1815	1.8049e+02	-7.7260	-36.947866	0.000365	3.648986	1.236310	0.000146
1816	1.8059e+02	-7.6763	-36.871161	0.000193	1.925854	0.652497	0.000077
1817	1.8069e+02	-7.6329	-36.758121	0.000284	2.838100	0.961574	0.000114
1818	1.8079e+02	-7.5960	-36.572413	0.000466	4.662593	1.579729	0.000187
1819	1.8089e+02	-7.5527	-36.507818	0.000162	1.621771	0.549471	0.000065
1820	1.8099e+02	-7.5255	-36.386704	0.000304	3.040821	1.030258	0.000122
1821	1.8109e+02	-7.4757	-36.277702	0.000274	2.736739	0.927232	0.000110
1822	1.8119e+02	-7.4452	-36.120253	0.000395	3.953068	1.339336	0.000158
1823	1.8129e+02	-7.3987	-36.019325	0.000253	2.534018	0.858548	0.000101
1824	1.8139e+02	-7.3602	-35.853802	0.000416	4.155789	1.408020	0.000166
1825	1.8149e+02	-7.3281	-35.700391	0.000385	3.851707	1.304994	0.000154
1826	1.8159e+02	-7.2832	-35.542943	0.000395	3.953068	1.339336	0.000158
1827	1.8169e+02	-7.2431	-35.433940	0.000274	2.736739	0.927232	0.000110
1828	1.8179e+02	-7.2030	-35.288603	0.000365	3.648986	1.236310	0.000146
1829	1.8189e+02	-7.1581	-35.163452	0.000314	3.142182	1.064600	0.000126
1830	1.8199e+02	-7.1324	-35.050412	0.000284	2.838100	0.961574	0.000114
1831	1.8209e+02	-7.0779	-34.884890	0.000416	4.155789	1.408020	0.000166
1832	1.8218e+02	-7.0474	-34.828370	0.000142	1.419050	0.480787	0.000057
1833	1.8228e+02	-6.9945	-34.687070	0.000355	3.547625	1.201968	0.000142
1834	1.8238e+02	-6.9576	-34.537696	0.000375	3.750346	1.270652	0.000150
1835	1.8248e+02	-6.9271	-34.469065	0.000172	1.723132	0.583813	0.000069
1836	1.8258e+02	-6.8806	-34.339877	0.000324	3.243543	1.098942	0.000130
1837	1.8268e+02	-6.8437	-34.194540	0.000365	3.648986	1.236310	0.000146
1838	1.8278e+02	-6.8116	-34.073426	0.000304	3.040821	1.030258	0.000122
1839	1.8288e+02	-6.7634	-33.907903	0.000416	4.155789	1.408020	0.000166
1840	1.8298e+02	-6.7298	-33.802938	0.000264	2.635379	0.892890	0.000105
1841	1.8308e+02	-6.6929	-33.669712	0.000334	3.344904	1.133284	0.000134
1842	1.8318e+02	-6.6415	-33.540524	0.000324	3.243543	1.098942	0.000130
1843	1.8328e+02	-6.6110	-33.383075	0.000395	3.953068	1.339336	0.000158
1844	1.8338e+02	-6.5581	-33.209479	0.000436	4.358511	1.476703	0.000174
1845	1.8348e+02	-6.5340	-33.072216	0.000345	3.446264	1.167626	0.000138
1846	1.8358e+02	-6.4875	-32.967250	0.000264	2.635379	0.892890	0.000105
1847	1.8368e+02	-6.4442	-32.834025	0.000334	3.344904	1.133284	0.000134
1848	1.8378e+02	-6.4169	-32.692725	0.000355	3.547625	1.201968	0.000142
1849	1.8388e+02	-6.3688	-32.591797	0.000253	2.534018	0.858548	0.000101
1850	1.8398e+02	-6.3207	-32.442423	0.000375	3.750346	1.270652	0.000150
1851	1.8407e+02	-6.2822	-32.313234	0.000324	3.243543	1.098942	0.000130
1852	1.8417e+02	-6.2517	-32.244603	0.000172	1.723132	0.583813	0.000069
1853	1.8427e+02	-6.2196	-32.071006	0.000436	4.358511	1.476703	0.000174
1854	1.8437e+02	-6.1603	-31.949892	0.000304	3.040821	1.030258	0.000122
1855	1.8447e+02	-6.1378	-31.772258	0.000446	4.459871	1.511045	0.000179
1856	1.8457e+02	-6.0929	-31.707664	0.000162	1.621771	0.549471	0.000065
1857	1.8467e+02	-6.0528	-31.550216	0.000395	3.953068	1.339336	0.000158
1858	1.8477e+02	-6.0062	-31.404879	0.000365	3.648986	1.236310	0.000146
1859	1.8487e+02	-5.9726	-31.231282	0.000436	4.358511	1.476703	0.000174
1860	1.8497e+02	-5.9405	-31.098057	0.000334	3.344904	1.133284	0.000134
1861	1.8507e+02	-5.8875	-30.940608	0.000395	3.953068	1.339336	0.000158
1862	1.8517e+02	-5.8506	-30.799309	0.000355	3.547625	1.201968	0.000142
1863	1.8527e+02	-5.8089	-30.637823	0.000405	4.054429	1.373678	0.000162
1864	1.8537e+02	-5.7784	-30.553043	0.000213	2.128575	0.721181	0.000085
1865	1.8547e+02	-5.7383	-30.355224	0.000497	4.966675	1.682755	0.000199
1866	1.8557e+02	-5.6886	-30.254295	0.000253	2.534018	0.858548	0.000101
1867	1.8567e+02	-5.6469	-30.117033	0.000345	3.446264	1.167626	0.000138
1868	1.8577e+02	-5.6116	-30.008030	0.000274	2.736739	0.927232	0.000110
1869	1.8587e+02	-5.5747	-29.874804	0.000334	3.344904	1.133284	0.000134
1870	1.8597e+02	-5.5378	-29.717356	0.000395	3.953068	1.339336	0.000158
1871	1.8606e+02	-5.4913	-29.616428	0.000253	2.534018	0.858548	0.000101
1872	1.8616e+02	-5.4512	-29.463017	0.000385	3.851707	1.304994	0.000154
1873	1.8626e+02	-5.4143	-29.321717	0.000355	3.547625	1.201968	0.000142
1874	1.8636e+02	-5.3726	-29.172343	0.000375	3.750346	1.270652	0.000150
1875	1.8646e+02	-5.3309	-29.043154	0.000324	3.243543	1.098942	0.000130
1876	1.8656e+02	-5.2972	-28.877632	0.000416	4.155789	1.408020	0.000166
1877	1.8666e+02	-5.2587	-28.740369	0.000345	3.446264	1.167626	0.000138
1878	1.8676e+02	-5.2218	-28.586958	0.000385	3.851707	1.304994	0.000154
1879	1.8686e+02	-5.1801	-28.413361	0.000436	4.358511	1.476703	0.000174
1880	1.8696e+02	-5.1480	-28.263987	0.000375	3.750346	1.270652	0.000150
1881	1.8706e+02	-5.0950	-28.146910	0.000294	2.939461	0.995916	0.000118
1882	1.8716e+02	-5.0581	-27.989462	0.000395	3.953068	1.339336	0.000158
1883	1.8726e+02	-5.0084	-27.876422	0.000284	2.838100	0.961574	0.000114
1884	1.8736e+02	-4.9635	-27.739160	0.000345	3.446264	1.167626	0.000138
1885	1.8746e+02	-4.9362	-27.609971	0.000324	3.243543	1.098942	0.000130
1886	1.8756e+02	-4.8977	-27.464634	0.000365	3.648986	1.236310	0.000146
1887	1.8766e+02	-4.8608	-27.319298	0.000365	3.648986	1.236310	0.000146
1888	1.8776e+02	-4.8175	-27.190109	0.000324	3.243543	1.098942	0.000130
1889	1.8786e+02	-4.7678	-27.020549	0.000426	4.257150	1.442361	0.000170
1890	1.8796e+02	-4.7341	-26.903473	0.000294	2.939461	0.995916	0.000118
1891	1.8806e+02	-4.6988	-26.786396	0.000294	2.939461	0.995916	0.000118
1892	1.8815e+02	-4.6587	-26.649133	0.000345	3.446264	1.167626	0.000138
1893	1.8825e+02	-4.6234	-26.467462	0.000456	4.561232	1.545387	0.000183
1894	1.8835e+02	-4.5865	-26.305976	0.000405	4.054429	1.373678	0.000162
1895	1.8845e+02	-4.5368	-26.148528	0.000395	3.953068	1.339336	0.000158
1896	1.8855e+02	-4.4983	-26.019340	0.000324	3.243543	1.098942	0.000130
1897	1.8865e+02	-4.4485	-25.805372	0.000537	5.372118	1.820123	0.000215
1898	1.8875e+02	-4.4181	-25.660035	0.000365	3.648986	1.236310	0.000146
1899	1.8885e+02	-4.3763	-25.530846	0.000324	3.243543	1.098942	0.000130
1900	1.8895e+02	-4.3314	-25.381472	0.000375	3.750346	1.270652	0.000150
1901	1.8905e+02	-4.2961	-25.276507	0.000264	2.635379	0.892890	0.000105
1902	1.8915e+02	-4.2624	-25.098873	0.000446	4.459871	1.511045	0.000179
1903	1.8925e+02	-4.2223	-25.022167	0.000193	1.925854	0.652497	0.000077
1904	1.8935e+02	-4.1854	-24.840496	0.000456	4.561232	1.545387	0.000183
1905	1.8945e+02	-4.1341	-24.711308	0.000324	3.243543	1.098942	0.000130
1906	1.8955e+02	-4.0956	-24.529637	0.000456	4.561232	1.545387	0.000183
1907	1.8965e+02	-4.0523	-24.380263	0.000375	3.750346	1.270652	0.000150
1908	1.8975e+02	-4.0186	-24.238963	0.000355	3.547625	1.201968	0.000142
1909	1.8985e+02	-3.9865	-24.125923	0.000284	2.838100	0.961574	0.000114
1910	1.8995e+02	-3.9368	-23.952326	0.000436	4.358511	1.476703	0.000174
1911	1.9004e+02	-3.8951	-23.790841	0.000405	4.054429	1.373678	0.000162
1912	1.9014e+02	-3.8598	-23.617244	0.000436	4.358511	1.476703	0.000174
1913	1.9024e+02	-3.8181	-23.500167	0.000294	2.939461	0.995916	0.000118
1914	1.9034e+02	-3.7860	-23.302347	0.000497	4.966675	1.682755	0.000199
1915	1.9044e+02	-3.7363	-23.181233	0.000304	3.040821	1.030258	0.000122
1916	1.9054e+02	-3.7010	-23.007637	0.000436	4.358511	1.476703	0.000174
1917	1.9064e+02	-3.6673	-22.842114	0.000416	4.155789	1.408020	0.000166
1918	1.9074e+02	-3.6224	-22.733111	0.000274	2.736739	0.927232	0.000110
1919	1.9084e+02	-3.5774	-22.559515	0.000436	4.358511	1.476703	0.000174
1920	1.9094e+02	-3.5373	-22.446475	0.000284	2.838100	0.961574	0.000114
1921	1.9104e+02	-3.4972	-22.297101	0.000375	3.750346	1.270652	0.000150
1922	1.9114e+02	-3.4684	-22.147727	0.000375	3.750346	1.270652	0.000150
1923	1.9124e+02	-3.4234	-21.990278	0.000395	3.953068	1.339336	0.000158
1924	1.9134e+02	-3.3753	-21.877239	0.000284	2.838100	0.961574	0.000114
1925	1.9144e+02	-3.3416	-21.744013	0.000334	3.344904	1.133284	0.000134
1926	1.9154e+02	-3.3047	-21.566379	0.000446	4.459871	1.511045	0.000179
1927	1.9164e+02	-3.2646	-21.417005	0.000375	3.750346	1.270652	0.000150
1928	1.9174e+02	-3.2181	-21.263594	0.000385	3.851707	1.304994	0.000154
1929	1.9184e+02	-3.1812	-21.114220	0.000375	3.750346	1.270652	0.000150
1930	1.9194e+02	-3.1395	-20.972920	0.000355	3.547625	1.201968	0.000142
1931	1.9203e+02	-3.1058	-20.831620	0.000355	3.547625	1.201968	0.000142
1932	1.9213e+02	-3.0625	-20.662061	0.000426	4.257150	1.442361	0.000170
1933	1.9223e+02	-3.0256	-20.488464	0.000436	4.358511	1.476703	0.000174
1934	1.9233e+02	-2.9839	-20.326978	0.000405	4.054429	1.373678	0.000162
1935	1.9243e+02	-2.9406	-20.193753	0.000334	3.344904	1.133284	0.000134
1936	1.9253e+02	-2.9037	-20.012082	0.000456	4.561232	1.545387	0.000183
1937	1.9263e+02	-2.8620	-19.870782	0.000355	3.547625	1.201968	0.000142
1938	1.9273e+02	-2.8202	-19.709297	0.000405	4.054429	1.373678	0.000162
1939	1.9283e+02	-2.7866	-19.632591	0.000193	1.925854	0.652497	0.000077
1940	1.9293e+02	-2.7384	-19.471106	0.000405	4.054429	1.373678	0.000162
1941	1.9303e+02	-2.7031	-19.317695	0.000385	3.851707	1.304994	0.000154
1942	1.9313e+02	-2.6743	-19.188506	0.000324	3.243543	1.098942	0.000130
1943	1.9323e+02	-2.6245	-19.043169	0.000365	3.648986	1.236310	0.000146
1944	1.9333e+02	-2.5892	-18.833238	0.000527	5.270757	1.785781	0.000211
1945	1.9343e+02	-2.5427	-18.728273	0.000264	2.635379	0.892890	0.000105
1946	1.9353e+02	-2.5058	-18.570824	0.000395	3.953068	1.339336	0.000158
1947	1.9363e+02	-2.4657	-18.433562	0.000345	3.446264	1.167626	0.000138
1948	1.9373e+02	-2.4240	-18.292262	0.000355	3.547625	1.201968	0.000142
1949	1.9383e+02	-2.3839	-18.114628	0.000446	4.459871	1.511045	0.000179
1950	1.9393e+02	-2.3454	-17.961217	0.000385	3.851707	1.304994	0.000154
1951	1.9403e+02	-2.2924	-17.807806	0.000385	3.851707	1.304994	0.000154
1952	1.9412e+02	-2.2748	-17.646320	0.000405	4.054429	1.373678	0.000162
1953	1.9422e+02	-2.2299	-17.440426	0.000517	5.169396	1.751439	0.000207
1954	1.9432e+02	-2.1898	-17.311238	0.000324	3.243543	1.098942	0.000130
1955	1.9442e+02	-2.1384	-17.161864	0.000375	3.750346	1.270652	0.000150
1956	1.9452e+02	-2.1048	-17.069010	0.000233	2.331296	0.789865	0.000093
1957	1.9462e+02	-2.0630	-16.919636	0.000375	3.750346	1.270652	0.000150
1958	1.9472e+02	-2.0261	-16.750076	0.000426	4.257150	1.442361	0.000170
1959	1.9482e+02	-1.9812	-16.637036	0.000284	2.838100	0.961574	0.000114
1960	1.9492e+02	-1.9524	-16.467477	0.000426	4.257150	1.442361	0.000170
1961	1.9502e+02	-1.9138	-16.322140	0.000365	3.648986	1.236310	0.000146
1962	1.9512e+02	-1.8657	-16.148543	0.000436	4.358511	1.476703	0.000174
1963	1.9522e+02	-1.8256	-16.027429	0.000304	3.040821	1.030258	0.000122
1964	1.9532e+02	-1.7855	-15.833646	0.000487	4.865314	1.648413	0.000195
1965	1.9542e+02	-1.7518	-15.708495	0.000314	3.142182	1.064600	0.000126
1966	1.9552e+02	-1.7117	-15.571233	0.000345	3.446264	1.167626	0.000138
1967	1.9562e+02	-1.6620	-15.405710	0.000416	4.155789	1.408020	0.000166
1968	1.9572e+02	-1.6331	-15.260373	0.000365	3.648986	1.236310	0.000146
1969	1.9582e+02	-1.5930	-15.062553	0.000497	4.966675	1.682755	0.000199
1970	1.9592e+02	-1.5497	-14.876845	0.000466	4.662593	1.579729	0.000187
1971	1.9601e+02	-1.5080	-14.723434	0.000385	3.851707	1.304994	0.000154
1972	1.9611e+02	-1.4647	-14.578097	0.000365	3.648986	1.236310	0.000146
1973	1.9621e+02	-1.4342	-14.420649	0.000395	3.953068	1.339336	0.000158
1974	1.9631e+02	-1.3861	-14.287423	0.000334	3.344904	1.133284	0.000134
1975	1.9641e+02	-1.3524	-14.146124	0.000355	3.547625	1.201968	0.000142
1976	1.9651e+02	-1.3074	-14.016935	0.000324	3.243543	1.098942	0.000130
1977	1.9661e+02	-1.2706	-13.875636	0.000355	3.547625	1.201968	0.000142
1978	1.9671e+02	-1.2288	-13.742410	0.000334	3.344904	1.133284	0.000134
1979	1.9681e+02	-1.1839	-13.584962	0.000395	3.953068	1.339336	0.000158
1980	1.9691e+02	-1.1567	-13.370994	0.000537	5.372118	1.820123	0.000215
1981	1.9701e+02	-1.1117	-13.261991	0.000274	2.736739	0.927232	0.000110
1982	1.9711e+02	-1.0668	-13.116654	0.000365	3.648986	1.236310	0.000146
1983	1.9721e+02	-1.0315	-12.943057	0.000436	4.358511	1.476703	0.000174
1984	1.9731e+02	-0.9834	-12.809832	0.000334	3.344904	1.133284	0.000134
1985	1.9741e+02	-0.9561	-12.644309	0.000416	4.155789	1.408020	0.000166
1986	1.9751e+02	-0.9128	-12.458601	0.000466	4.662593	1.579729	0.000187
1987	1.9761e+02	-0.8711	-12.325375	0.000334	3.344904	1.133284	0.000134
1988	1.9771e+02	-0.8294	-12.196187	0.000324	3.243543	1.098942	0.000130
1989	1.9781e+02	-0.7925	-11.970107	0.000568	5.676200	1.923149	0.000227
1990	1.9791e+02	-0.7508	-11.832845	0.000345	3.446264	1.167626	0.000138
1991	1.9800e+02	-0.7123	-11.671359	0.000405	4.054429	1.373678	0.000162
1992	1.9810e+02	-0.6674	-11.521985	0.000375	3.750346	1.270652	0.000150
1993	1.9820e+02	-0.6224	-11.372611	0.000375	3.750346	1.270652	0.000150
1994	1.9830e+02	-0.5871	-11.251497	0.000304	3.040821	1.030258	0.000122
1995	1.9840e+02	-0.5454	-11.098086	0.000385	3.851707	1.304994	0.000154
1996	1.9850e+02	-0.5134	-10.993121	0.000264	2.635379	0.892890	0.000105
1997	1.9860e+02	-0.4716	-10.823561	0.000426	4.257150	1.442361	0.000170
1998	1.9870e+02	-0.4444	-10.621704	0.000507	5.068036	1.717097	0.000203
1999	1.9880e+02	-0.3866	-10.452144	0.000426	4.257150	1.442361	0.000170
2000	1.9890e+02	-0.3465	-10.339105	0.000284	2.838100	0.961574	0.000114
2001	1.9900e+02	-0.3144	-10.173582	0.000416	4.155789	1.408020	0.000166
2002	1.9910e+02	-0.2711	-10.044394	0.000324	3.243543	1.098942	0.000130
2003	1.9920e+02	-0.2390	-9.870797	0.000436	4.358511	1.476703	0.000174
2004	1.9930e+02	-0.1941	-9.733534	0.000345	3.446264	1.167626	0.000138
2005	1.9940e+02	-0.1524	-9.576086	0.000395	3.953068	1.339336	0.000158
2006	1.9950e+02	-0.1171	-9.394415	0.000456	4.561232	1.545387	0.000183
2007	1.9960e+02	-0.0834	-9.249078	0.000365	3.648986	1.236310	0.000146
2008	1.9970e+02	-0.0433	-9.022998	0.000568	5.676200	1.923149	0.000227
2009	1.9980e+02	0.0016	-8.889773	0.000568	5.676200	1.923149	0.000134

PMax (uC/cm2):	7.62e+01
Pr (uC/cm2):	5.93e+00
-Pr (uC/cm2):	-1.88e+00
PLoss (uC/cm2):	-1.84e+00
-Vc:	-1.52e+00
C (Max-Eff) (nF):	3.81e-01
K (Eff):	1.29e+03
Vert. (+/-Pr) Shift (uC/cm2):	2.03e+00
Offset (uC/cm2):	7.01e+00

A (Loop Area - uC/cm2·Volts):	2.44e-02



Hysteresis Version: 5.48.1 - Radiant Technologies, Inc., 1999 - 9/12/24

