»»»»»»»»»»»»»»»»»»»»»»»»»»»»»»»»»»»» Hysteresis ««««««««««««««««««««««««««««««««««««
»»»  Executed Version:	5.48.1
»»»  Vision Version:	5.48.4 (R)
»»»  Vision Compiled:	9/18/24
»»»  Driver Version:	5.47.0
»»»  Windows Version:	Windows 8 or 8.1
»»»  Processor Information:	x86 (AMD or Intel) - 32 Processors
»»»  Tester Name:	PMF21124-494 (100V)
»»»  Tester S/N:	PMF21124-494
»»»  Internal Amp Type:	100V RevK 270k
»»»  Internal Amp S/N:	iAB2-596/K     
»»»  Execution Count:	1
»»»»»»»»»»»»»»»»»»»»»»»»»»»»»»»»»»»»»»»»»»««««««««««««««««««««««««««««««««««««««««««

Stored:	6/19/2025 - 20:31:4
Configured:	06/19/25 10:04:32 AM
Executed:	06/19/25 08:30:34 PM

»»»»»»»»»»»»»»»»»»»»»»»»»»»»»»»»»»» Sample Info ««««««««««««««««««««««««««««««««««««
Sample Name:	
Lot Name:	
Wafer Name:	
Die Row/Column:	0/0
Capacitor Number:	0
Sample Area (cm2):	1.00e-04
Sample Thickness (microns):	3.00e-01

Amplifier:	Internal

»»»»»»»»»»»»»»»»»»»»»»»»»»»»»»»»»»» Tester Info «««««««««««««««««««««««««««««««««««
Tester Name:	PMF21124-494 (100V)
Tester Serial Number:	PMF21124-494
Return Signal Amp. Level:	0.19 [Index: 3]

»»»»»»»»»»»»»»»»»»»»»»»»»»»»»»»» Hysteresis Info ««««««««««««««««««««««««««««««««««
Task Name:	Hyst-1168
Volts:	20.00
Field:	666.67 (kV/cm)
DCBias:	0.00
DCField:	0.00 (kV/cm)
Hysteresis Period (ms):	2.00e+02
Preset:	Enabled
Preset Delay (ms):	1.00e+03
Profile:	Standard Bipolar

»»»»»»»»»»»»»»»»»»»»»»»»»»»»»»»»»»»»»» Data «««««««««««««««««««««««««««««««««««««««
Points:	2009

Valid Data

Point	Time (ms)	Drive Voltage	Measured Polarization (uC/cm2)	Capacitance (uF)	Normalized Capacitance (uF/cm2)	Dielectric Constant	Instantaneous Current (mA)
   1	0.0000e+00	0.0096	-7.000393	0.000213	2.128789	0.721253	0.000085
   2	9.9500e-02	0.0497	-6.915614	0.000213	2.128789	0.721253	0.000085
   3	1.9900e-01	0.0818	-6.790462	0.000314	3.142497	1.064707	0.000126
   4	2.9850e-01	0.1203	-6.677423	0.000284	2.838385	0.961671	0.000114
   5	3.9800e-01	0.1620	-6.511900	0.000416	4.156206	1.408161	0.000166
   6	4.9750e-01	0.2021	-6.322155	0.000476	4.764431	1.614233	0.000191
   7	5.9700e-01	0.2310	-6.201040	0.000304	3.041126	1.030362	0.000122
   8	6.9650e-01	0.2727	-6.059741	0.000355	3.547981	1.202088	0.000142
   9	7.9600e-01	0.3144	-5.922478	0.000345	3.446610	1.167743	0.000138
  10	8.9550e-01	0.3561	-5.736770	0.000466	4.663061	1.579888	0.000187
  11	9.9500e-01	0.3962	-5.615656	0.000304	3.041126	1.030362	0.000122
  12	1.0945e+00	0.4331	-5.446096	0.000426	4.257577	1.442506	0.000170
  13	1.1940e+00	0.4620	-5.292685	0.000385	3.852093	1.305125	0.000154
  14	1.2935e+00	0.5118	-5.151385	0.000355	3.547981	1.202088	0.000142
  15	1.3930e+00	0.5679	-4.957603	0.000487	4.865802	1.648578	0.000195
  16	1.4925e+00	0.5984	-4.779969	0.000446	4.460319	1.511197	0.000179
  17	1.5920e+00	0.6305	-4.634632	0.000365	3.649352	1.236434	0.000146
  18	1.6915e+00	0.6722	-4.452961	0.000456	4.561690	1.545542	0.000183
  19	1.7910e+00	0.7219	-4.335884	0.000294	2.939756	0.996016	0.000118
  20	1.8905e+00	0.7524	-4.218807	0.000294	2.939756	0.996016	0.000118
  21	1.9900e+00	0.7957	-4.093656	0.000314	3.142497	1.064707	0.000126
  22	2.0895e+00	0.8390	-3.920059	0.000436	4.358948	1.476852	0.000174
  23	2.1890e+00	0.8775	-3.762611	0.000395	3.953464	1.339470	0.000158
  24	2.2885e+00	0.9208	-3.637459	0.000314	3.142497	1.064707	0.000126
  25	2.3880e+00	0.9577	-3.467900	0.000426	4.257577	1.442506	0.000170
  26	2.4875e+00	0.9882	-3.330637	0.000345	3.446610	1.167743	0.000138
  27	2.5870e+00	1.0379	-3.153003	0.000446	4.460319	1.511197	0.000179
  28	2.6865e+00	1.0780	-3.027852	0.000314	3.142497	1.064707	0.000126
  29	2.7860e+00	1.1085	-2.834069	0.000487	4.865802	1.648578	0.000195
  30	2.8855e+00	1.1550	-2.676621	0.000395	3.953464	1.339470	0.000158
  31	2.9850e+00	1.1903	-2.515136	0.000405	4.054835	1.373815	0.000162
  32	3.0845e+00	1.2353	-2.361724	0.000385	3.852093	1.305125	0.000154
  33	3.1840e+00	1.2689	-2.208313	0.000385	3.852093	1.305125	0.000154
  34	3.2835e+00	1.3091	-1.982234	0.000568	5.676769	1.923342	0.000227
  35	3.3830e+00	1.3588	-1.844971	0.000345	3.446610	1.167743	0.000138
  36	3.4825e+00	1.3909	-1.671374	0.000436	4.358948	1.476852	0.000174
  37	3.5820e+00	1.4310	-1.546223	0.000314	3.142497	1.064707	0.000126
  38	3.6815e+00	1.4759	-1.368589	0.000446	4.460319	1.511197	0.000179
  39	3.7810e+00	1.5160	-1.259586	0.000274	2.737014	0.927325	0.000110
  40	3.8805e+00	1.5561	-1.122324	0.000345	3.446610	1.167743	0.000138
  41	3.9800e+00	1.5914	-0.964875	0.000395	3.953464	1.339470	0.000158
  42	4.0795e+00	1.6427	-0.799353	0.000416	4.156206	1.408161	0.000166
  43	4.1790e+00	1.6764	-0.625756	0.000436	4.358948	1.476852	0.000174
  44	4.2785e+00	1.7197	-0.484456	0.000355	3.547981	1.202088	0.000142
  45	4.3780e+00	1.7534	-0.331045	0.000385	3.852093	1.305125	0.000154
  46	4.4775e+00	1.7839	-0.185708	0.000365	3.649352	1.236434	0.000146
  47	4.5770e+00	1.8304	0.032297	0.000547	5.474028	1.854651	0.000219
  48	4.6765e+00	1.8737	0.161485	0.000324	3.243868	1.099052	0.000130
  49	4.7760e+00	1.9106	0.306822	0.000365	3.649352	1.236434	0.000146
  50	4.8755e+00	1.9475	0.460233	0.000385	3.852093	1.305125	0.000154
  51	4.9750e+00	1.9909	0.654016	0.000487	4.865802	1.648578	0.000195
  52	5.0745e+00	2.0294	0.872021	0.000547	5.474028	1.854651	0.000219
  53	5.1740e+00	2.0646	0.997173	0.000314	3.142497	1.064707	0.000126
  54	5.2735e+00	2.1096	1.158658	0.000405	4.054835	1.373815	0.000162
  55	5.3730e+00	2.1384	1.364552	0.000517	5.169915	1.751615	0.000207
  56	5.4725e+00	2.1850	1.526037	0.000405	4.054835	1.373815	0.000162
  57	5.5720e+00	2.2395	1.651189	0.000314	3.142497	1.064707	0.000126
  58	5.6715e+00	2.2700	1.764228	0.000284	2.838385	0.961671	0.000114
  59	5.7710e+00	2.3133	1.941862	0.000446	4.460319	1.511197	0.000179
  60	5.8705e+00	2.3502	2.095273	0.000385	3.852093	1.305125	0.000154
  61	5.9700e+00	2.3855	2.264833	0.000426	4.257577	1.442506	0.000170
  62	6.0695e+00	2.4272	2.414207	0.000375	3.750723	1.270779	0.000150
  63	6.1690e+00	2.4641	2.587804	0.000436	4.358948	1.476852	0.000174
  64	6.2685e+00	2.5074	2.789661	0.000507	5.068544	1.717269	0.000203
  65	6.3680e+00	2.5475	2.898663	0.000274	2.737014	0.927325	0.000110
  66	6.4675e+00	2.5796	3.100520	0.000507	5.068544	1.717269	0.000203
  67	6.5670e+00	2.6277	3.274117	0.000436	4.358948	1.476852	0.000174
  68	6.6665e+00	2.6582	3.423491	0.000375	3.750723	1.270779	0.000150
  69	6.7660e+00	2.7144	3.605162	0.000456	4.561690	1.545542	0.000183
  70	6.8655e+00	2.7497	3.823168	0.000547	5.474028	1.854651	0.000219
  71	6.9650e+00	2.7833	4.008876	0.000466	4.663061	1.579888	0.000187
  72	7.0645e+00	2.8234	4.121916	0.000284	2.838385	0.961671	0.000114
  73	7.1640e+00	2.8636	4.291475	0.000426	4.257577	1.442506	0.000170
  74	7.2635e+00	2.9149	4.465072	0.000436	4.358948	1.476852	0.000174
  75	7.3630e+00	2.9566	4.626558	0.000405	4.054835	1.373815	0.000162
  76	7.4625e+00	2.9919	4.711337	0.000213	2.128789	0.721253	0.000085
  77	7.5620e+00	3.0240	4.893009	0.000456	4.561690	1.545542	0.000183
  78	7.6615e+00	3.0689	5.070642	0.000446	4.460319	1.511197	0.000179
  79	7.7610e+00	3.1106	5.211942	0.000355	3.547981	1.202088	0.000142
  80	7.8605e+00	3.1475	5.393613	0.000456	4.561690	1.545542	0.000183
  81	7.9600e+00	3.1828	5.555099	0.000405	4.054835	1.373815	0.000162
  82	8.0595e+00	3.2181	5.760993	0.000517	5.169915	1.751615	0.000207
  83	8.1590e+00	3.2662	5.902292	0.000355	3.547981	1.202088	0.000142
  84	8.2585e+00	3.3079	6.083964	0.000456	4.561690	1.545542	0.000183
  85	8.3580e+00	3.3352	6.217189	0.000335	3.345239	1.133398	0.000134
  86	8.4575e+00	3.3913	6.358489	0.000355	3.547981	1.202088	0.000142
  87	8.5570e+00	3.4170	6.576494	0.000547	5.474028	1.854651	0.000219
  88	8.6565e+00	3.4635	6.778351	0.000507	5.068544	1.717269	0.000203
  89	8.7560e+00	3.5052	6.915614	0.000345	3.446610	1.167743	0.000138
  90	8.8555e+00	3.5405	7.085173	0.000426	4.257577	1.442506	0.000170
  91	8.9550e+00	3.5887	7.242622	0.000395	3.953464	1.339470	0.000158
  92	9.0545e+00	3.6368	7.387958	0.000365	3.649352	1.236434	0.000146
  93	9.1540e+00	3.6657	7.505035	0.000294	2.939756	0.996016	0.000118
  94	9.2535e+00	3.7026	7.698818	0.000487	4.865802	1.648578	0.000195
  95	9.3530e+00	3.7443	7.904712	0.000517	5.169915	1.751615	0.000207
  96	9.4525e+00	3.7796	8.017752	0.000284	2.838385	0.961671	0.000114
  97	9.5520e+00	3.8325	8.187311	0.000426	4.257577	1.442506	0.000170
  98	9.6515e+00	3.8662	8.348797	0.000405	4.054835	1.373815	0.000162
  99	9.7510e+00	3.9015	8.498171	0.000375	3.750723	1.270779	0.000150
 100	9.8505e+00	3.9464	8.655619	0.000395	3.953464	1.339470	0.000158
 101	9.9500e+00	3.9881	8.873624	0.000547	5.474028	1.854651	0.000219
 102	1.0050e+01	4.0282	9.022998	0.000375	3.750723	1.270779	0.000150
 103	1.0149e+01	4.0603	9.160261	0.000345	3.446610	1.167743	0.000138
 104	1.0248e+01	4.0972	9.321746	0.000405	4.054835	1.373815	0.000162
 105	1.0348e+01	4.1469	9.535715	0.000537	5.372657	1.820305	0.000215
 106	1.0447e+01	4.1806	9.709311	0.000436	4.358948	1.476852	0.000174
 107	1.0547e+01	4.2191	9.866760	0.000395	3.953464	1.339470	0.000158
 108	1.0646e+01	4.2576	10.072654	0.000517	5.169915	1.751615	0.000207
 109	1.0746e+01	4.3074	10.250288	0.000446	4.460319	1.511197	0.000179
 110	1.0845e+01	4.3491	10.399662	0.000375	3.750723	1.270779	0.000150
 111	1.0945e+01	4.3860	10.528850	0.000324	3.243868	1.099052	0.000130
 112	1.1044e+01	4.4197	10.662075	0.000335	3.345239	1.133398	0.000134
 113	1.1144e+01	4.4598	10.803375	0.000355	3.547981	1.202088	0.000142
 114	1.1243e+01	4.5047	11.017343	0.000537	5.372657	1.820305	0.000215
 115	1.1343e+01	4.5384	11.162680	0.000365	3.649352	1.236434	0.000146
 116	1.1443e+01	4.5817	11.356463	0.000487	4.865802	1.648578	0.000195
 117	1.1542e+01	4.6234	11.501800	0.000365	3.649352	1.236434	0.000146
 118	1.1642e+01	4.6635	11.630988	0.000324	3.243868	1.099052	0.000130
 119	1.1741e+01	4.6940	11.820733	0.000476	4.764431	1.614233	0.000191
 120	1.1841e+01	4.7357	11.998367	0.000446	4.460319	1.511197	0.000179
 121	1.1940e+01	4.7870	12.167927	0.000426	4.257577	1.442506	0.000170
 122	1.2040e+01	4.8239	12.333450	0.000416	4.156206	1.408161	0.000166
 123	1.2139e+01	4.8608	12.490898	0.000395	3.953464	1.339470	0.000158
 124	1.2239e+01	4.8993	12.672569	0.000456	4.561690	1.545542	0.000183
 125	1.2338e+01	4.9362	12.834055	0.000405	4.054835	1.373815	0.000162
 126	1.2438e+01	4.9779	13.027837	0.000487	4.865802	1.648578	0.000195
 127	1.2537e+01	5.0132	13.185285	0.000395	3.953464	1.339470	0.000158
 128	1.2636e+01	5.0565	13.354845	0.000426	4.257577	1.442506	0.000170
 129	1.2736e+01	5.0902	13.447699	0.000233	2.331530	0.789944	0.000093
 130	1.2835e+01	5.1432	13.621296	0.000436	4.358948	1.476852	0.000174
 131	1.2935e+01	5.1769	13.742410	0.000304	3.041126	1.030362	0.000122
 132	1.3034e+01	5.2234	13.988675	0.000618	6.183624	2.095068	0.000248
 133	1.3134e+01	5.2667	14.117864	0.000324	3.243868	1.099052	0.000130
 134	1.3233e+01	5.2988	14.255126	0.000345	3.446610	1.167743	0.000138
 135	1.3333e+01	5.3437	14.440835	0.000466	4.663061	1.579888	0.000187
 136	1.3432e+01	5.3726	14.634617	0.000487	4.865802	1.648578	0.000195
 137	1.3532e+01	5.4191	14.771880	0.000345	3.446610	1.167743	0.000138
 138	1.3632e+01	5.4560	14.917217	0.000365	3.649352	1.236434	0.000146
 139	1.3731e+01	5.4945	15.086776	0.000426	4.257577	1.442506	0.000170
 140	1.3831e+01	5.5378	15.256336	0.000426	4.257577	1.442506	0.000170
 141	1.3930e+01	5.5811	15.433970	0.000446	4.460319	1.511197	0.000179
 142	1.4030e+01	5.6116	15.591418	0.000395	3.953464	1.339470	0.000158
 143	1.4129e+01	5.6517	15.773089	0.000456	4.561690	1.545542	0.000183
 144	1.4229e+01	5.6950	15.970909	0.000497	4.967173	1.682924	0.000199
 145	1.4328e+01	5.7415	16.100097	0.000324	3.243868	1.099052	0.000130
 146	1.4428e+01	5.7656	16.237360	0.000345	3.446610	1.167743	0.000138
 147	1.4527e+01	5.8186	16.362511	0.000314	3.142497	1.064707	0.000126
 148	1.4627e+01	5.8426	16.540145	0.000446	4.460319	1.511197	0.000179
 149	1.4726e+01	5.8891	16.705668	0.000416	4.156206	1.408161	0.000166
 150	1.4825e+01	5.9405	16.879265	0.000436	4.358948	1.476852	0.000174
 151	1.4925e+01	5.9742	17.008453	0.000324	3.243868	1.099052	0.000130
 152	1.5024e+01	6.0207	17.169938	0.000405	4.054835	1.373815	0.000162
 153	1.5124e+01	6.0576	17.391981	0.000558	5.575398	1.888996	0.000223
 154	1.5223e+01	6.0881	17.488872	0.000243	2.432901	0.824289	0.000097
 155	1.5323e+01	6.1346	17.666506	0.000446	4.460319	1.511197	0.000179
 156	1.5422e+01	6.1731	17.827991	0.000405	4.054835	1.373815	0.000162
 157	1.5522e+01	6.2164	17.949105	0.000304	3.041126	1.030362	0.000122
 158	1.5621e+01	6.2549	18.154999	0.000517	5.169915	1.751615	0.000207
 159	1.5721e+01	6.2966	18.288225	0.000335	3.345239	1.133398	0.000134
 160	1.5820e+01	6.3319	18.522379	0.000588	5.879511	1.992032	0.000235
 161	1.5920e+01	6.3832	18.659641	0.000345	3.446610	1.167743	0.000138
 162	1.6020e+01	6.4121	18.800941	0.000355	3.547981	1.202088	0.000142
 163	1.6119e+01	6.4635	18.978575	0.000446	4.460319	1.511197	0.000179
 164	1.6218e+01	6.4875	19.083541	0.000264	2.635643	0.892980	0.000105
 165	1.6318e+01	6.5292	19.240989	0.000395	3.953464	1.339470	0.000158
 166	1.6418e+01	6.5677	19.406511	0.000416	4.156206	1.408161	0.000166
 167	1.6517e+01	6.6062	19.527626	0.000304	3.041126	1.030362	0.000122
 168	1.6616e+01	6.6672	19.741594	0.000537	5.372657	1.820305	0.000215
 169	1.6716e+01	6.6832	19.878856	0.000345	3.446610	1.167743	0.000138
 170	1.6816e+01	6.7217	20.052453	0.000436	4.358948	1.476852	0.000174
 171	1.6915e+01	6.7811	20.222013	0.000426	4.257577	1.442506	0.000170
 172	1.7015e+01	6.8068	20.331016	0.000274	2.737014	0.927325	0.000110
 173	1.7114e+01	6.8469	20.508650	0.000446	4.460319	1.511197	0.000179
 174	1.7213e+01	6.8950	20.710506	0.000507	5.068544	1.717269	0.000203
 175	1.7313e+01	6.9255	20.831620	0.000304	3.041126	1.030362	0.000122
 176	1.7413e+01	6.9752	21.061737	0.000578	5.778140	1.957687	0.000231
 177	1.7512e+01	7.0089	21.166703	0.000264	2.635643	0.892980	0.000105
 178	1.7611e+01	7.0426	21.364522	0.000497	4.967173	1.682924	0.000199
 179	1.7711e+01	7.0875	21.558305	0.000487	4.865802	1.648578	0.000195
 180	1.7811e+01	7.1356	21.735939	0.000446	4.460319	1.511197	0.000179
 181	1.7910e+01	7.1757	21.865127	0.000324	3.243868	1.099052	0.000130
 182	1.8009e+01	7.2110	21.982204	0.000294	2.939756	0.996016	0.000118
 183	1.8109e+01	7.2559	22.143690	0.000405	4.054835	1.373815	0.000162
 184	1.8209e+01	7.2848	22.301138	0.000395	3.953464	1.339470	0.000158
 185	1.8308e+01	7.3249	22.462623	0.000405	4.054835	1.373815	0.000162
 186	1.8407e+01	7.3618	22.591812	0.000324	3.243868	1.099052	0.000130
 187	1.8507e+01	7.4196	22.753297	0.000405	4.054835	1.373815	0.000162
 188	1.8607e+01	7.4565	22.991488	0.000598	5.980882	2.026378	0.000239
 189	1.8706e+01	7.4902	23.104528	0.000284	2.838385	0.961671	0.000114
 190	1.8805e+01	7.5255	23.245828	0.000355	3.547981	1.202088	0.000142
 191	1.8905e+01	7.5720	23.403276	0.000395	3.953464	1.339470	0.000158
 192	1.9005e+01	7.6009	23.580910	0.000446	4.460319	1.511197	0.000179
 193	1.9104e+01	7.6538	23.706061	0.000314	3.142497	1.064707	0.000126
 194	1.9203e+01	7.6811	23.911955	0.000517	5.169915	1.751615	0.000207
 195	1.9303e+01	7.7228	24.061329	0.000375	3.750723	1.270779	0.000150
 196	1.9402e+01	7.7725	24.251074	0.000476	4.764431	1.614233	0.000191
 197	1.9502e+01	7.8014	24.432745	0.000456	4.561690	1.545542	0.000183
 198	1.9602e+01	7.8495	24.598268	0.000416	4.156206	1.408161	0.000166
 199	1.9701e+01	7.8896	24.735531	0.000345	3.446610	1.167743	0.000138
 200	1.9800e+01	7.9281	24.828385	0.000233	2.331530	0.789944	0.000093
 201	1.9900e+01	7.9714	24.985833	0.000395	3.953464	1.339470	0.000158
 202	2.0000e+01	8.0035	25.151356	0.000416	4.156206	1.408161	0.000166
 203	2.0099e+01	8.0468	25.312841	0.000405	4.054835	1.373815	0.000162
 204	2.0198e+01	8.0805	25.458178	0.000365	3.649352	1.236434	0.000146
 205	2.0298e+01	8.1270	25.595441	0.000345	3.446610	1.167743	0.000138
 206	2.0398e+01	8.1623	25.769037	0.000436	4.358948	1.476852	0.000174
 207	2.0497e+01	8.2201	25.950709	0.000456	4.561690	1.545542	0.000183
 208	2.0596e+01	8.2458	26.096045	0.000365	3.649352	1.236434	0.000146
 209	2.0696e+01	8.2891	26.289828	0.000487	4.865802	1.648578	0.000195
 210	2.0796e+01	8.3179	26.435165	0.000365	3.649352	1.236434	0.000146
 211	2.0895e+01	8.3581	26.584539	0.000375	3.750723	1.270779	0.000150
 212	2.0994e+01	8.4062	26.741987	0.000395	3.953464	1.339470	0.000158
 213	2.1094e+01	8.4383	26.927695	0.000466	4.663061	1.579888	0.000187
 214	2.1194e+01	8.4848	27.097255	0.000426	4.257577	1.442506	0.000170
 215	2.1293e+01	8.5249	27.254703	0.000395	3.953464	1.339470	0.000158
 216	2.1392e+01	8.5650	27.444449	0.000476	4.764431	1.614233	0.000191
 217	2.1492e+01	8.6051	27.597860	0.000385	3.852093	1.305125	0.000154
 218	2.1591e+01	8.6548	27.735123	0.000345	3.446610	1.167743	0.000138
 219	2.1691e+01	8.6789	27.836051	0.000253	2.534272	0.858635	0.000101
 220	2.1791e+01	8.7302	28.033871	0.000497	4.967173	1.682924	0.000199
 221	2.1890e+01	8.7607	28.179207	0.000365	3.649352	1.236434	0.000146
 222	2.1989e+01	8.8072	28.332619	0.000385	3.852093	1.305125	0.000154
 223	2.2089e+01	8.8441	28.465844	0.000335	3.345239	1.133398	0.000134
 224	2.2189e+01	8.8907	28.667701	0.000507	5.068544	1.717269	0.000203
 225	2.2288e+01	8.9227	28.841298	0.000436	4.358948	1.476852	0.000174
 226	2.2387e+01	8.9564	28.986635	0.000365	3.649352	1.236434	0.000146
 227	2.2487e+01	8.9981	29.123897	0.000345	3.446610	1.167743	0.000138
 228	2.2587e+01	9.0382	29.305568	0.000456	4.561690	1.545542	0.000183
 229	2.2686e+01	9.0800	29.487239	0.000456	4.561690	1.545542	0.000183
 230	2.2785e+01	9.1233	29.672948	0.000466	4.663061	1.579888	0.000187
 231	2.2885e+01	9.1602	29.826359	0.000385	3.852093	1.305125	0.000154
 232	2.2985e+01	9.2019	29.979770	0.000385	3.852093	1.305125	0.000154
 233	2.3084e+01	9.2452	30.169515	0.000476	4.764431	1.614233	0.000191
 234	2.3183e+01	9.2869	30.351186	0.000456	4.561690	1.545542	0.000183
 235	2.3283e+01	9.3126	30.508635	0.000395	3.953464	1.339470	0.000158
 236	2.3383e+01	9.3591	30.613600	0.000264	2.635643	0.892980	0.000105
 237	2.3482e+01	9.4024	30.779123	0.000416	4.156206	1.408161	0.000166
 238	2.3581e+01	9.4393	30.916385	0.000345	3.446610	1.167743	0.000138
 239	2.3681e+01	9.4858	31.065760	0.000375	3.750723	1.270779	0.000150
 240	2.3780e+01	9.5195	31.275691	0.000527	5.271286	1.785960	0.000211
 241	2.3880e+01	9.5628	31.404879	0.000324	3.243868	1.099052	0.000130
 242	2.3980e+01	9.6029	31.566364	0.000405	4.054835	1.373815	0.000162
 243	2.4079e+01	9.6414	31.711701	0.000365	3.649352	1.236434	0.000146
 244	2.4178e+01	9.6864	31.877224	0.000416	4.156206	1.408161	0.000166
 245	2.4278e+01	9.7088	32.058895	0.000456	4.561690	1.545542	0.000183
 246	2.4378e+01	9.7650	32.204232	0.000365	3.649352	1.236434	0.000146
 247	2.4477e+01	9.8035	32.353606	0.000375	3.750723	1.270779	0.000150
 248	2.4576e+01	9.8436	32.575648	0.000558	5.575398	1.888996	0.000223
 249	2.4676e+01	9.8741	32.704837	0.000324	3.243868	1.099052	0.000130
 250	2.4776e+01	9.9254	32.898619	0.000487	4.865802	1.648578	0.000195
 251	2.4875e+01	9.9527	33.031845	0.000335	3.345239	1.133398	0.000134
 252	2.4974e+01	9.9976	33.229664	0.000497	4.967173	1.682924	0.000199
 253	2.5074e+01	10.0313	33.370964	0.000355	3.547981	1.202088	0.000142
 254	2.5174e+01	10.0762	33.528412	0.000395	3.953464	1.339470	0.000158
 255	2.5273e+01	10.1211	33.621266	0.000233	2.331530	0.789944	0.000093
 256	2.5372e+01	10.1548	33.766603	0.000365	3.649352	1.236434	0.000146
 257	2.5472e+01	10.1965	33.891755	0.000314	3.142497	1.064707	0.000126
 258	2.5572e+01	10.2334	34.085537	0.000487	4.865802	1.648578	0.000195
 259	2.5671e+01	10.2751	34.230874	0.000365	3.649352	1.236434	0.000146
 260	2.5770e+01	10.3184	34.408508	0.000446	4.460319	1.511197	0.000179
 261	2.5870e+01	10.3537	34.561919	0.000385	3.852093	1.305125	0.000154
 262	2.5970e+01	10.4018	34.703219	0.000355	3.547981	1.202088	0.000142
 263	2.6069e+01	10.4323	34.888927	0.000466	4.663061	1.579888	0.000187
 264	2.6169e+01	10.4740	35.014078	0.000314	3.142497	1.064707	0.000126
 265	2.6268e+01	10.5093	35.240158	0.000568	5.676769	1.923342	0.000227
 266	2.6367e+01	10.5591	35.393569	0.000385	3.852093	1.305125	0.000154
 267	2.6467e+01	10.5976	35.555054	0.000405	4.054835	1.373815	0.000162
 268	2.6567e+01	10.6377	35.712503	0.000395	3.953464	1.339470	0.000158
 269	2.6666e+01	10.6698	35.890137	0.000446	4.460319	1.511197	0.000179
 270	2.6765e+01	10.7227	36.039511	0.000375	3.750723	1.270779	0.000150
 271	2.6865e+01	10.7548	36.188885	0.000375	3.750723	1.270779	0.000150
 272	2.6965e+01	10.8013	36.366519	0.000446	4.460319	1.511197	0.000179
 273	2.7064e+01	10.8238	36.515893	0.000375	3.750723	1.270779	0.000150
 274	2.7163e+01	10.8767	36.637007	0.000304	3.041126	1.030362	0.000122
 275	2.7263e+01	10.9216	36.746009	0.000274	2.737014	0.927325	0.000110
 276	2.7363e+01	10.9553	36.907495	0.000405	4.054835	1.373815	0.000162
 277	2.7462e+01	10.9938	37.077055	0.000426	4.257577	1.442506	0.000170
 278	2.7561e+01	11.0371	37.230466	0.000385	3.852093	1.305125	0.000154
 279	2.7661e+01	11.0692	37.375803	0.000365	3.649352	1.236434	0.000146
 280	2.7761e+01	11.1157	37.529214	0.000385	3.852093	1.305125	0.000154
 281	2.7860e+01	11.1446	37.718959	0.000476	4.764431	1.614233	0.000191
 282	2.7959e+01	11.1943	37.880445	0.000405	4.054835	1.373815	0.000162
 283	2.8059e+01	11.2377	38.033856	0.000385	3.852093	1.305125	0.000154
 284	2.8159e+01	11.2745	38.239750	0.000517	5.169915	1.751615	0.000207
 285	2.8258e+01	11.3147	38.401235	0.000405	4.054835	1.373815	0.000162
 286	2.8358e+01	11.3516	38.554646	0.000385	3.852093	1.305125	0.000154
 287	2.8457e+01	11.3917	38.712095	0.000395	3.953464	1.339470	0.000158
 288	2.8556e+01	11.4286	38.857431	0.000365	3.649352	1.236434	0.000146
 289	2.8656e+01	11.4799	39.035065	0.000446	4.460319	1.511197	0.000179
 290	2.8756e+01	11.5136	39.140031	0.000264	2.635643	0.892980	0.000105
 291	2.8855e+01	11.5569	39.305554	0.000416	4.156206	1.408161	0.000166
 292	2.8954e+01	11.5890	39.398408	0.000233	2.331530	0.789944	0.000093
 293	2.9054e+01	11.6291	39.584116	0.000466	4.663061	1.579888	0.000187
 294	2.9154e+01	11.6724	39.741564	0.000395	3.953464	1.339470	0.000158
 295	2.9253e+01	11.7093	39.866715	0.000314	3.142497	1.064707	0.000126
 296	2.9352e+01	11.7526	40.016089	0.000375	3.750723	1.270779	0.000150
 297	2.9452e+01	11.7863	40.161426	0.000365	3.649352	1.236434	0.000146
 298	2.9552e+01	11.8296	40.330986	0.000426	4.257577	1.442506	0.000170
 299	2.9651e+01	11.8697	40.472286	0.000355	3.547981	1.202088	0.000142
 300	2.9750e+01	11.9146	40.674143	0.000507	5.068544	1.717269	0.000203
 301	2.9850e+01	11.9419	40.831591	0.000395	3.953464	1.339470	0.000158
 302	2.9950e+01	11.9932	40.972891	0.000355	3.547981	1.202088	0.000142
 303	3.0049e+01	12.0317	41.122265	0.000375	3.750723	1.270779	0.000150
 304	3.0148e+01	12.0670	41.336233	0.000537	5.372657	1.820305	0.000215
 305	3.0248e+01	12.1104	41.449273	0.000284	2.838385	0.961671	0.000114
 306	3.0348e+01	12.1473	41.634981	0.000466	4.663061	1.579888	0.000187
 307	3.0447e+01	12.1954	41.792429	0.000395	3.953464	1.339470	0.000158
 308	3.0547e+01	12.2098	41.945840	0.000385	3.852093	1.305125	0.000154
 309	3.0646e+01	12.2692	42.083103	0.000345	3.446610	1.167743	0.000138
 310	3.0745e+01	12.3141	42.208254	0.000314	3.142497	1.064707	0.000126
 311	3.0845e+01	12.3494	42.293034	0.000213	2.128789	0.721253	0.000085
 312	3.0945e+01	12.3959	42.442408	0.000375	3.750723	1.270779	0.000150
 313	3.1044e+01	12.4328	42.616005	0.000436	4.358948	1.476852	0.000174
 314	3.1143e+01	12.4713	42.733082	0.000294	2.939756	0.996016	0.000118
 315	3.1243e+01	12.5098	42.902641	0.000426	4.257577	1.442506	0.000170
 316	3.1343e+01	12.5579	43.060090	0.000395	3.953464	1.339470	0.000158
 317	3.1442e+01	12.5852	43.213501	0.000385	3.852093	1.305125	0.000154
 318	3.1541e+01	12.6317	43.379024	0.000416	4.156206	1.408161	0.000166
 319	3.1641e+01	12.6783	43.556657	0.000446	4.460319	1.511197	0.000179
 320	3.1741e+01	12.7087	43.718143	0.000405	4.054835	1.373815	0.000162
 321	3.1840e+01	12.7488	43.839257	0.000304	3.041126	1.030362	0.000122
 322	3.1939e+01	12.7922	44.049188	0.000527	5.271286	1.785960	0.000211
 323	3.2039e+01	12.8290	44.174339	0.000314	3.142497	1.064707	0.000126
 324	3.2139e+01	12.8579	44.372159	0.000497	4.967173	1.682924	0.000199
 325	3.2238e+01	12.9125	44.489236	0.000294	2.939756	0.996016	0.000118
 326	3.2337e+01	12.9526	44.630536	0.000355	3.547981	1.202088	0.000142
 327	3.2437e+01	12.9734	44.767798	0.000345	3.446610	1.167743	0.000138
 328	3.2536e+01	13.0232	44.868727	0.000253	2.534272	0.858635	0.000101
 329	3.2636e+01	13.0649	45.018101	0.000375	3.750723	1.270779	0.000150
 330	3.2736e+01	13.1034	45.135178	0.000294	2.939756	0.996016	0.000118
 331	3.2835e+01	13.1403	45.268403	0.000335	3.345239	1.133398	0.000134
 332	3.2934e+01	13.1836	45.446037	0.000446	4.460319	1.511197	0.000179
 333	3.3034e+01	13.2173	45.619634	0.000436	4.358948	1.476852	0.000174
 334	3.3133e+01	13.2638	45.736711	0.000294	2.939756	0.996016	0.000118
 335	3.3233e+01	13.3007	45.890122	0.000385	3.852093	1.305125	0.000154
 336	3.3333e+01	13.3312	46.071793	0.000456	4.561690	1.545542	0.000183
 337	3.3432e+01	13.3825	46.269613	0.000497	4.967173	1.682924	0.000199
 338	3.3532e+01	13.4242	46.427061	0.000395	3.953464	1.339470	0.000158
 339	3.3631e+01	13.4675	46.548175	0.000304	3.041126	1.030362	0.000122
 340	3.3730e+01	13.5012	46.729846	0.000456	4.561690	1.545542	0.000183
 341	3.3830e+01	13.5381	46.863072	0.000335	3.345239	1.133398	0.000134
 342	3.3929e+01	13.5718	47.028594	0.000416	4.156206	1.408161	0.000166
 343	3.4029e+01	13.6247	47.206228	0.000446	4.460319	1.511197	0.000179
 344	3.4129e+01	13.6681	47.319268	0.000284	2.838385	0.961671	0.000114
 345	3.4228e+01	13.6921	47.468642	0.000375	3.750723	1.270779	0.000150
 346	3.4328e+01	13.7451	47.601867	0.000335	3.345239	1.133398	0.000134
 347	3.4427e+01	13.7852	47.767390	0.000416	4.156206	1.408161	0.000166
 348	3.4526e+01	13.8237	47.912727	0.000365	3.649352	1.236434	0.000146
 349	3.4626e+01	13.8654	47.989433	0.000193	1.926047	0.652562	0.000077
 350	3.4725e+01	13.9007	48.183215	0.000487	4.865802	1.648578	0.000195
 351	3.4825e+01	13.9392	48.324515	0.000355	3.547981	1.202088	0.000142
 352	3.4925e+01	13.9857	48.441592	0.000294	2.939756	0.996016	0.000118
 353	3.5024e+01	14.0178	48.623263	0.000456	4.561690	1.545542	0.000183
 354	3.5123e+01	14.0563	48.772637	0.000375	3.750723	1.270779	0.000150
 355	3.5223e+01	14.0916	48.938159	0.000416	4.156206	1.408161	0.000166
 356	3.5322e+01	14.1317	49.127905	0.000476	4.764431	1.614233	0.000191
 357	3.5422e+01	14.1750	49.265167	0.000345	3.446610	1.167743	0.000138
 358	3.5522e+01	14.2167	49.398393	0.000335	3.345239	1.133398	0.000134
 359	3.5621e+01	14.2584	49.580064	0.000456	4.561690	1.545542	0.000183
 360	3.5721e+01	14.2921	49.693104	0.000284	2.838385	0.961671	0.000114
 361	3.5820e+01	14.3434	49.834404	0.000355	3.547981	1.202088	0.000142
 362	3.5919e+01	14.3852	50.016075	0.000456	4.561690	1.545542	0.000183
 363	3.6019e+01	14.4188	50.193709	0.000446	4.460319	1.511197	0.000179
 364	3.6118e+01	14.4590	50.330971	0.000345	3.446610	1.167743	0.000138
 365	3.6218e+01	14.4926	50.488420	0.000395	3.953464	1.339470	0.000158
 366	3.6318e+01	14.5408	50.593385	0.000264	2.635643	0.892980	0.000105
 367	3.6417e+01	14.5712	50.771019	0.000446	4.460319	1.511197	0.000179
 368	3.6517e+01	14.6242	50.884059	0.000284	2.838385	0.961671	0.000114
 369	3.6616e+01	14.6627	50.980950	0.000243	2.432901	0.824289	0.000097
 370	3.6715e+01	14.6996	51.154547	0.000436	4.358948	1.476852	0.000174
 371	3.6815e+01	14.7381	51.259512	0.000264	2.635643	0.892980	0.000105
 372	3.6914e+01	14.7830	51.465406	0.000517	5.169915	1.751615	0.000207
 373	3.7014e+01	14.8199	51.614780	0.000375	3.750723	1.270779	0.000150
 374	3.7114e+01	14.8520	51.840860	0.000568	5.676769	1.923342	0.000227
 375	3.7213e+01	14.9033	51.905454	0.000162	1.621934	0.549526	0.000065
 376	3.7313e+01	14.9370	52.095200	0.000476	4.764431	1.614233	0.000191
 377	3.7412e+01	14.9787	52.280908	0.000466	4.663061	1.579888	0.000187
 378	3.7511e+01	15.0156	52.393948	0.000284	2.838385	0.961671	0.000114
 379	3.7611e+01	15.0461	52.543322	0.000375	3.750723	1.270779	0.000150
 380	3.7711e+01	15.0942	52.688659	0.000365	3.649352	1.236434	0.000146
 381	3.7810e+01	15.1295	52.842070	0.000385	3.852093	1.305125	0.000154
 382	3.7910e+01	15.1793	52.983369	0.000355	3.547981	1.202088	0.000142
 383	3.8009e+01	15.2194	53.156966	0.000436	4.358948	1.476852	0.000174
 384	3.8108e+01	15.2498	53.306340	0.000375	3.750723	1.270779	0.000150
 385	3.8208e+01	15.3012	53.443603	0.000345	3.446610	1.167743	0.000138
 386	3.8307e+01	15.3493	53.588940	0.000365	3.649352	1.236434	0.000146
 387	3.8407e+01	15.3782	53.685831	0.000243	2.432901	0.824289	0.000097
 388	3.8507e+01	15.4119	53.835205	0.000375	3.750723	1.270779	0.000150
 389	3.8606e+01	15.4552	54.008802	0.000436	4.358948	1.476852	0.000174
 390	3.8706e+01	15.4873	54.154139	0.000365	3.649352	1.236434	0.000146
 391	3.8805e+01	15.5338	54.315624	0.000405	4.054835	1.373815	0.000162
 392	3.8904e+01	15.5819	54.501332	0.000466	4.663061	1.579888	0.000187
 393	3.9004e+01	15.6156	54.674929	0.000436	4.358948	1.476852	0.000174
 394	3.9103e+01	15.6493	54.804118	0.000324	3.243868	1.099052	0.000130
 395	3.9203e+01	15.6878	54.961566	0.000395	3.953464	1.339470	0.000158
 396	3.9303e+01	15.7359	55.131126	0.000426	4.257577	1.442506	0.000170
 397	3.9402e+01	15.7744	55.288574	0.000395	3.953464	1.339470	0.000158
 398	3.9502e+01	15.8129	55.401614	0.000284	2.838385	0.961671	0.000114
 399	3.9601e+01	15.8546	55.526765	0.000314	3.142497	1.064707	0.000126
 400	3.9700e+01	15.8931	55.704399	0.000446	4.460319	1.511197	0.000179
 401	3.9800e+01	15.9348	55.886070	0.000456	4.561690	1.545542	0.000183
 402	3.9900e+01	15.9717	56.027370	0.000355	3.547981	1.202088	0.000142
 403	3.9999e+01	16.0102	56.172707	0.000365	3.649352	1.236434	0.000146
 404	4.0099e+01	16.0536	56.289784	0.000294	2.939756	0.996016	0.000118
 405	4.0198e+01	16.0985	56.418972	0.000324	3.243868	1.099052	0.000130
 406	4.0297e+01	16.1257	56.523937	0.000264	2.635643	0.892980	0.000105
 407	4.0397e+01	16.1642	56.701571	0.000446	4.460319	1.511197	0.000179
 408	4.0496e+01	16.2108	56.846908	0.000365	3.649352	1.236434	0.000146
 409	4.0596e+01	16.2557	57.056839	0.000527	5.271286	1.785960	0.000211
 410	4.0696e+01	16.2974	57.169879	0.000284	2.838385	0.961671	0.000114
 411	4.0795e+01	16.3327	57.351550	0.000456	4.561690	1.545542	0.000183
 412	4.0895e+01	16.3712	57.496887	0.000365	3.649352	1.236434	0.000146
 413	4.0994e+01	16.4177	57.654335	0.000395	3.953464	1.339470	0.000158
 414	4.1093e+01	16.4530	57.823895	0.000426	4.257577	1.442506	0.000170
 415	4.1193e+01	16.4851	57.961158	0.000345	3.446610	1.167743	0.000138
 416	4.1292e+01	16.5284	58.110532	0.000375	3.750723	1.270779	0.000150
 417	4.1392e+01	16.5749	58.239720	0.000324	3.243868	1.099052	0.000130
 418	4.1492e+01	16.6166	58.421391	0.000456	4.561690	1.545542	0.000183
 419	4.1591e+01	16.6535	58.526357	0.000264	2.635643	0.892980	0.000105
 420	4.1691e+01	16.6920	58.691879	0.000416	4.156206	1.408161	0.000166
 421	4.1790e+01	16.7257	58.833179	0.000355	3.547981	1.202088	0.000142
 422	4.1889e+01	16.7706	59.018887	0.000466	4.663061	1.579888	0.000187
 423	4.1989e+01	16.8108	59.123853	0.000264	2.635643	0.892980	0.000105
 424	4.2089e+01	16.8525	59.249004	0.000314	3.142497	1.064707	0.000126
 425	4.2188e+01	16.8894	59.370118	0.000304	3.041126	1.030362	0.000122
 426	4.2288e+01	16.9263	59.527566	0.000395	3.953464	1.339470	0.000158
 427	4.2387e+01	16.9680	59.693089	0.000416	4.156206	1.408161	0.000166
 428	4.2486e+01	17.0145	59.882834	0.000476	4.764431	1.614233	0.000191
 429	4.2586e+01	17.0418	60.012023	0.000324	3.243868	1.099052	0.000130
 430	4.2685e+01	17.0835	60.173508	0.000405	4.054835	1.373815	0.000162
 431	4.2785e+01	17.1220	60.278474	0.000264	2.635643	0.892980	0.000105
 432	4.2885e+01	17.1589	60.460145	0.000456	4.561690	1.545542	0.000183
 433	4.2984e+01	17.2118	60.605482	0.000365	3.649352	1.236434	0.000146
 434	4.3084e+01	17.2471	60.762930	0.000395	3.953464	1.339470	0.000158
 435	4.3183e+01	17.2840	60.892118	0.000324	3.243868	1.099052	0.000130
 436	4.3282e+01	17.3241	61.033418	0.000355	3.547981	1.202088	0.000142
 437	4.3382e+01	17.3674	61.182792	0.000375	3.750723	1.270779	0.000150
 438	4.3481e+01	17.4091	61.328129	0.000365	3.649352	1.236434	0.000146
 439	4.3581e+01	17.4541	61.505763	0.000446	4.460319	1.511197	0.000179
 440	4.3681e+01	17.4765	61.618803	0.000284	2.838385	0.961671	0.000114
 441	4.3780e+01	17.5359	61.772214	0.000385	3.852093	1.305125	0.000154
 442	4.3880e+01	17.5744	61.865068	0.000233	2.331530	0.789944	0.000093
 443	4.3979e+01	17.6049	62.010405	0.000365	3.649352	1.236434	0.000146
 444	4.4078e+01	17.6450	62.151705	0.000355	3.547981	1.202088	0.000142
 445	4.4178e+01	17.6899	62.276856	0.000314	3.142497	1.064707	0.000126
 446	4.4278e+01	17.7364	62.502935	0.000568	5.676769	1.923342	0.000227
 447	4.4377e+01	17.7653	62.660384	0.000395	3.953464	1.339470	0.000158
 448	4.4477e+01	17.8086	62.821869	0.000405	4.054835	1.373815	0.000162
 449	4.4576e+01	17.8503	62.963169	0.000355	3.547981	1.202088	0.000142
 450	4.4675e+01	17.8872	63.104469	0.000355	3.547981	1.202088	0.000142
 451	4.4775e+01	17.9257	63.257880	0.000385	3.852093	1.305125	0.000154
 452	4.4874e+01	17.9690	63.395142	0.000345	3.446610	1.167743	0.000138
 453	4.4974e+01	18.0011	63.532405	0.000345	3.446610	1.167743	0.000138
 454	4.5074e+01	18.0508	63.685816	0.000385	3.852093	1.305125	0.000154
 455	4.5173e+01	18.0829	63.810967	0.000314	3.142497	1.064707	0.000126
 456	4.5273e+01	18.1294	63.968416	0.000395	3.953464	1.339470	0.000158
 457	4.5372e+01	18.1631	64.109716	0.000355	3.547981	1.202088	0.000142
 458	4.5471e+01	18.2096	64.242941	0.000335	3.345239	1.133398	0.000134
 459	4.5571e+01	18.2401	64.388278	0.000365	3.649352	1.236434	0.000146
 460	4.5670e+01	18.2883	64.481132	0.000233	2.331530	0.789944	0.000093
 461	4.5770e+01	18.3235	64.626469	0.000365	3.649352	1.236434	0.000146
 462	4.5870e+01	18.3637	64.767769	0.000355	3.547981	1.202088	0.000142
 463	4.5969e+01	18.3957	64.909068	0.000355	3.547981	1.202088	0.000142
 464	4.6069e+01	18.4455	65.078628	0.000426	4.257577	1.442506	0.000170
 465	4.6168e+01	18.4808	65.236076	0.000395	3.953464	1.339470	0.000158
 466	4.6267e+01	18.5337	65.393525	0.000395	3.953464	1.339470	0.000158
 467	4.6367e+01	18.5738	65.518676	0.000314	3.142497	1.064707	0.000126
 468	4.6467e+01	18.5947	65.680161	0.000405	4.054835	1.373815	0.000162
 469	4.6566e+01	18.6508	65.797238	0.000294	2.939756	0.996016	0.000118
 470	4.6666e+01	18.6845	65.962761	0.000416	4.156206	1.408161	0.000166
 471	4.6765e+01	18.7214	66.104061	0.000355	3.547981	1.202088	0.000142
 472	4.6864e+01	18.7583	66.241323	0.000345	3.446610	1.167743	0.000138
 473	4.6964e+01	18.8096	66.354363	0.000284	2.838385	0.961671	0.000114
 474	4.7063e+01	18.8449	66.511811	0.000395	3.953464	1.339470	0.000158
 475	4.7163e+01	18.8850	66.636962	0.000314	3.142497	1.064707	0.000126
 476	4.7263e+01	18.9171	66.802485	0.000416	4.156206	1.408161	0.000166
 477	4.7362e+01	18.9556	66.907451	0.000264	2.635643	0.892980	0.000105
 478	4.7462e+01	19.0070	67.020490	0.000284	2.838385	0.961671	0.000114
 479	4.7561e+01	19.0471	67.149679	0.000324	3.243868	1.099052	0.000130
 480	4.7660e+01	19.0872	67.274830	0.000314	3.142497	1.064707	0.000126
 481	4.7760e+01	19.1241	67.424204	0.000375	3.750723	1.270779	0.000150
 482	4.7859e+01	19.1594	67.549355	0.000314	3.142497	1.064707	0.000126
 483	4.7959e+01	19.2027	67.755249	0.000517	5.169915	1.751615	0.000207
 484	4.8059e+01	19.2396	67.892512	0.000345	3.446610	1.167743	0.000138
 485	4.8158e+01	19.2877	68.025737	0.000335	3.345239	1.133398	0.000134
 486	4.8258e+01	19.3278	68.199334	0.000436	4.358948	1.476852	0.000174
 487	4.8357e+01	19.3663	68.300262	0.000253	2.534272	0.858635	0.000101
 488	4.8456e+01	19.4000	68.425414	0.000314	3.142497	1.064707	0.000126
 489	4.8556e+01	19.4369	68.611122	0.000466	4.663061	1.579888	0.000187
 490	4.8656e+01	19.4738	68.699939	0.000223	2.230159	0.755598	0.000089
 491	4.8755e+01	19.5251	68.873536	0.000436	4.358948	1.476852	0.000174
 492	4.8855e+01	19.5604	68.962353	0.000223	2.230159	0.755598	0.000089
 493	4.8954e+01	19.6005	69.131912	0.000426	4.257577	1.442506	0.000170
 494	4.9053e+01	19.6422	69.277249	0.000365	3.649352	1.236434	0.000146
 495	4.9153e+01	19.6887	69.418549	0.000355	3.547981	1.202088	0.000142
 496	4.9252e+01	19.7096	69.535626	0.000294	2.939756	0.996016	0.000118
 497	4.9352e+01	19.7593	69.632517	0.000243	2.432901	0.824289	0.000097
 498	4.9452e+01	19.8026	69.729408	0.000243	2.432901	0.824289	0.000097
 499	4.9551e+01	19.8363	69.898968	0.000426	4.257577	1.442506	0.000170
 500	4.9651e+01	19.8797	70.048342	0.000375	3.750723	1.270779	0.000150
 501	4.9750e+01	19.9198	70.197716	0.000375	3.750723	1.270779	0.000150
 502	4.9849e+01	19.9486	70.339016	0.000355	3.547981	1.202088	0.000142
 503	4.9949e+01	19.9903	70.484353	0.000365	3.649352	1.236434	0.000146
 504	5.0048e+01	19.9615	70.407647	0.000193	1.926047	0.652562	-0.000077
 505	5.0148e+01	19.9246	70.262310	0.000365	3.649352	1.236434	-0.000146
 506	5.0248e+01	19.8748	70.197716	0.000162	1.621934	0.549526	-0.000065
 507	5.0347e+01	19.8347	70.100825	0.000243	2.432901	0.824289	-0.000097
 508	5.0447e+01	19.7962	69.963562	0.000345	3.446610	1.167743	-0.000138
 509	5.0546e+01	19.7609	69.862634	0.000253	2.534272	0.858635	-0.000101
 510	5.0645e+01	19.7064	69.745557	0.000294	2.939756	0.996016	-0.000118
 511	5.0745e+01	19.6839	69.640591	0.000264	2.635643	0.892980	-0.000105
 512	5.0844e+01	19.6358	69.519477	0.000304	3.041126	1.030362	-0.000122
 513	5.0944e+01	19.5973	69.422586	0.000243	2.432901	0.824289	-0.000097
 514	5.1044e+01	19.5556	69.321658	0.000253	2.534272	0.858635	-0.000101
 515	5.1143e+01	19.5283	69.192469	0.000324	3.243868	1.099052	-0.000130
 516	5.1242e+01	19.4818	69.035021	0.000395	3.953464	1.339470	-0.000158
 517	5.1342e+01	19.4337	68.897759	0.000345	3.446610	1.167743	-0.000138
 518	5.1441e+01	19.3920	68.784719	0.000284	2.838385	0.961671	-0.000114
 519	5.1541e+01	19.3519	68.716087	0.000172	1.723305	0.583872	-0.000069
 520	5.1641e+01	19.3230	68.594973	0.000304	3.041126	1.030362	-0.000122
 521	5.1740e+01	19.2749	68.481934	0.000284	2.838385	0.961671	-0.000114
 522	5.1840e+01	19.2508	68.385042	0.000243	2.432901	0.824289	-0.000097
 523	5.1939e+01	19.2043	68.255854	0.000324	3.243868	1.099052	-0.000130
 524	5.2038e+01	19.1674	68.118591	0.000345	3.446610	1.167743	-0.000138
 525	5.2138e+01	19.1241	68.017663	0.000253	2.534272	0.858635	-0.000101
 526	5.2237e+01	19.0727	67.904623	0.000284	2.838385	0.961671	-0.000114
 527	5.2337e+01	19.0406	67.783509	0.000304	3.041126	1.030362	-0.000122
 528	5.2437e+01	19.0005	67.650284	0.000335	3.345239	1.133398	-0.000134
 529	5.2536e+01	18.9588	67.508984	0.000355	3.547981	1.202088	-0.000142
 530	5.2636e+01	18.9235	67.440353	0.000172	1.723305	0.583872	-0.000069
 531	5.2735e+01	18.8738	67.311164	0.000324	3.243868	1.099052	-0.000130
 532	5.2834e+01	18.8449	67.202161	0.000274	2.737014	0.927325	-0.000110
 533	5.2934e+01	18.8016	67.036639	0.000416	4.156206	1.408161	-0.000166
 534	5.3033e+01	18.7663	66.911488	0.000314	3.142497	1.064707	-0.000126
 535	5.3133e+01	18.7230	66.774225	0.000345	3.446610	1.167743	-0.000138
 536	5.3233e+01	18.6861	66.653111	0.000304	3.041126	1.030362	-0.000122
 537	5.3332e+01	18.6492	66.531997	0.000304	3.041126	1.030362	-0.000122
 538	5.3431e+01	18.5979	66.406846	0.000314	3.142497	1.064707	-0.000126
 539	5.3531e+01	18.5546	66.309954	0.000243	2.432901	0.824289	-0.000097
 540	5.3630e+01	18.5337	66.180766	0.000324	3.243868	1.099052	-0.000130
 541	5.3730e+01	18.4727	66.055615	0.000314	3.142497	1.064707	-0.000126
 542	5.3830e+01	18.4535	65.946612	0.000274	2.737014	0.927325	-0.000110
 543	5.3929e+01	18.4054	65.829535	0.000294	2.939756	0.996016	-0.000118
 544	5.4029e+01	18.3685	65.700347	0.000324	3.243868	1.099052	-0.000130
 545	5.4128e+01	18.3203	65.559047	0.000355	3.547981	1.202088	-0.000142
 546	5.4227e+01	18.2706	65.413710	0.000365	3.649352	1.236434	-0.000146
 547	5.4327e+01	18.2433	65.312782	0.000253	2.534272	0.858635	-0.000101
 548	5.4426e+01	18.2016	65.236076	0.000193	1.926047	0.652562	-0.000077
 549	5.4526e+01	18.1631	65.078628	0.000395	3.953464	1.339470	-0.000158
 550	5.4626e+01	18.1310	64.949440	0.000324	3.243868	1.099052	-0.000130
 551	5.4725e+01	18.0925	64.860623	0.000223	2.230159	0.755598	-0.000089
 552	5.4825e+01	18.0444	64.719323	0.000355	3.547981	1.202088	-0.000142
 553	5.4924e+01	18.0171	64.610320	0.000274	2.737014	0.927325	-0.000110
 554	5.5023e+01	17.9642	64.460946	0.000375	3.750723	1.270779	-0.000150
 555	5.5123e+01	17.9257	64.347907	0.000284	2.838385	0.961671	-0.000114
 556	5.5222e+01	17.8904	64.218718	0.000324	3.243868	1.099052	-0.000130
 557	5.5322e+01	17.8567	64.137975	0.000203	2.027418	0.686908	-0.000081
 558	5.5422e+01	17.8054	63.948230	0.000476	4.764431	1.614233	-0.000191
 559	5.5521e+01	17.7749	63.859413	0.000223	2.230159	0.755598	-0.000089
 560	5.5620e+01	17.7268	63.726188	0.000335	3.345239	1.133398	-0.000134
 561	5.5720e+01	17.6802	63.588925	0.000345	3.446610	1.167743	-0.000138
 562	5.5819e+01	17.6369	63.504145	0.000213	2.128789	0.721253	-0.000085
 563	5.5919e+01	17.6000	63.378994	0.000314	3.142497	1.064707	-0.000126
 564	5.6019e+01	17.5615	63.265954	0.000284	2.838385	0.961671	-0.000114
 565	5.6118e+01	17.5262	63.132729	0.000335	3.345239	1.133398	-0.000134
 566	5.6218e+01	17.4765	63.023726	0.000274	2.737014	0.927325	-0.000110
 567	5.6317e+01	17.4364	62.898575	0.000314	3.142497	1.064707	-0.000126
 568	5.6416e+01	17.4059	62.781498	0.000294	2.939756	0.996016	-0.000118
 569	5.6516e+01	17.3642	62.660384	0.000304	3.041126	1.030362	-0.000122
 570	5.6615e+01	17.3257	62.527158	0.000335	3.345239	1.133398	-0.000134
 571	5.6715e+01	17.2920	62.369710	0.000395	3.953464	1.339470	-0.000158
 572	5.6815e+01	17.2567	62.276856	0.000233	2.331530	0.789944	-0.000093
 573	5.6914e+01	17.1990	62.151705	0.000314	3.142497	1.064707	-0.000126
 574	5.7014e+01	17.1669	62.022516	0.000324	3.243868	1.099052	-0.000130
 575	5.7113e+01	17.1268	61.897365	0.000314	3.142497	1.064707	-0.000126
 576	5.7212e+01	17.0803	61.792400	0.000264	2.635643	0.892980	-0.000105
 577	5.7312e+01	17.0530	61.655137	0.000345	3.446610	1.167743	-0.000138
 578	5.7411e+01	17.0097	61.505763	0.000375	3.750723	1.270779	-0.000150
 579	5.7511e+01	16.9760	61.396760	0.000274	2.737014	0.927325	-0.000110
 580	5.7611e+01	16.9311	61.271609	0.000314	3.142497	1.064707	-0.000126
 581	5.7710e+01	16.8846	61.142421	0.000324	3.243868	1.099052	-0.000130
 582	5.7809e+01	16.8477	61.041492	0.000253	2.534272	0.858635	-0.000101
 583	5.7909e+01	16.8092	60.944601	0.000243	2.432901	0.824289	-0.000097
 584	5.8008e+01	16.7723	60.771004	0.000436	4.358948	1.476852	-0.000174
 585	5.8108e+01	16.7289	60.662002	0.000274	2.737014	0.927325	-0.000110
 586	5.8208e+01	16.6888	60.504553	0.000395	3.953464	1.339470	-0.000158
 587	5.8307e+01	16.6455	60.403625	0.000253	2.534272	0.858635	-0.000101
 588	5.8407e+01	16.6006	60.310771	0.000233	2.331530	0.789944	-0.000093
 589	5.8506e+01	16.5701	60.181582	0.000324	3.243868	1.099052	-0.000130
 590	5.8605e+01	16.5236	60.040283	0.000355	3.547981	1.202088	-0.000142
 591	5.8705e+01	16.4915	59.915131	0.000314	3.142497	1.064707	-0.000126
 592	5.8804e+01	16.4530	59.777869	0.000345	3.446610	1.167743	-0.000138
 593	5.8904e+01	16.4113	59.640606	0.000345	3.446610	1.167743	-0.000138
 594	5.9004e+01	16.3664	59.450861	0.000476	4.764431	1.614233	-0.000191
 595	5.9103e+01	16.3295	59.402415	0.000122	1.216451	0.412145	-0.000049
 596	5.9203e+01	16.2942	59.236893	0.000416	4.156206	1.408161	-0.000166
 597	5.9302e+01	16.2509	59.111741	0.000314	3.142497	1.064707	-0.000126
 598	5.9401e+01	16.2076	59.002739	0.000274	2.737014	0.927325	-0.000110
 599	5.9501e+01	16.1675	58.877588	0.000314	3.142497	1.064707	-0.000126
 600	5.9600e+01	16.1257	58.744362	0.000335	3.345239	1.133398	-0.000134
 601	5.9700e+01	16.0953	58.603062	0.000355	3.547981	1.202088	-0.000142
 602	5.9800e+01	16.0536	58.473874	0.000324	3.243868	1.099052	-0.000130
 603	5.9899e+01	16.0086	58.356797	0.000294	2.939756	0.996016	-0.000118
 604	5.9998e+01	15.9669	58.215497	0.000355	3.547981	1.202088	-0.000142
 605	6.0098e+01	15.9332	58.106495	0.000274	2.737014	0.927325	-0.000110
 606	6.0197e+01	15.8963	58.013641	0.000233	2.331530	0.789944	-0.000093
 607	6.0297e+01	15.8530	57.892526	0.000304	3.041126	1.030362	-0.000122
 608	6.0397e+01	15.8225	57.747190	0.000365	3.649352	1.236434	-0.000146
 609	6.0496e+01	15.7824	57.593778	0.000385	3.852093	1.305125	-0.000154
 610	6.0596e+01	15.7295	57.472664	0.000304	3.041126	1.030362	-0.000122
 611	6.0695e+01	15.6958	57.347513	0.000314	3.142497	1.064707	-0.000126
 612	6.0794e+01	15.6493	57.190065	0.000395	3.953464	1.339470	-0.000158
 613	6.0894e+01	15.6188	57.077025	0.000284	2.838385	0.961671	-0.000114
 614	6.0993e+01	15.5723	56.959948	0.000294	2.939756	0.996016	-0.000118
 615	6.1093e+01	15.5354	56.818648	0.000355	3.547981	1.202088	-0.000142
 616	6.1193e+01	15.4889	56.709646	0.000274	2.737014	0.927325	-0.000110
 617	6.1292e+01	15.4520	56.568346	0.000355	3.547981	1.202088	-0.000142
 618	6.1392e+01	15.4167	56.423009	0.000365	3.649352	1.236434	-0.000146
 619	6.1491e+01	15.3734	56.314006	0.000274	2.737014	0.927325	-0.000110
 620	6.1590e+01	15.3397	56.160595	0.000385	3.852093	1.305125	-0.000154
 621	6.1690e+01	15.2883	56.059667	0.000253	2.534272	0.858635	-0.000101
 622	6.1789e+01	15.2563	55.886070	0.000436	4.358948	1.476852	-0.000174
 623	6.1889e+01	15.2113	55.793216	0.000233	2.331530	0.789944	-0.000093
 624	6.1989e+01	15.1776	55.704399	0.000223	2.230159	0.755598	-0.000089
 625	6.2088e+01	15.1343	55.542913	0.000405	4.054835	1.373815	-0.000162
 626	6.2188e+01	15.0990	55.462171	0.000203	2.027418	0.686908	-0.000081
 627	6.2287e+01	15.0541	55.260314	0.000507	5.068544	1.717269	-0.000203
 628	6.2386e+01	15.0252	55.110940	0.000375	3.750723	1.270779	-0.000150
 629	6.2486e+01	14.9803	54.981752	0.000324	3.243868	1.099052	-0.000130
 630	6.2586e+01	14.9402	54.864675	0.000294	2.939756	0.996016	-0.000118
 631	6.2685e+01	14.9001	54.739523	0.000314	3.142497	1.064707	-0.000126
 632	6.2785e+01	14.8520	54.561889	0.000446	4.460319	1.511197	-0.000179
 633	6.2884e+01	14.8103	54.464998	0.000243	2.432901	0.824289	-0.000097
 634	6.2983e+01	14.7782	54.331773	0.000335	3.345239	1.133398	-0.000134
 635	6.3083e+01	14.7365	54.186436	0.000365	3.649352	1.236434	-0.000146
 636	6.3182e+01	14.7012	54.081470	0.000264	2.635643	0.892980	-0.000105
 637	6.3282e+01	14.6611	53.960356	0.000304	3.041126	1.030362	-0.000122
 638	6.3382e+01	14.6130	53.778685	0.000456	4.561690	1.545542	-0.000183
 639	6.3481e+01	14.5761	53.673720	0.000264	2.635643	0.892980	-0.000105
 640	6.3581e+01	14.5424	53.548568	0.000314	3.142497	1.064707	-0.000126
 641	6.3680e+01	14.5023	53.379009	0.000426	4.257577	1.442506	-0.000170
 642	6.3779e+01	14.4573	53.290192	0.000223	2.230159	0.755598	-0.000089
 643	6.3879e+01	14.4237	53.140818	0.000375	3.750723	1.270779	-0.000150
 644	6.3978e+01	14.3852	53.011629	0.000324	3.243868	1.099052	-0.000130
 645	6.4078e+01	14.3386	52.842070	0.000426	4.257577	1.442506	-0.000170
 646	6.4177e+01	14.2969	52.700770	0.000355	3.547981	1.202088	-0.000142
 647	6.4277e+01	14.2552	52.571582	0.000324	3.243868	1.099052	-0.000130
 648	6.4376e+01	14.2295	52.422208	0.000375	3.750723	1.270779	-0.000150
 649	6.4476e+01	14.1814	52.276871	0.000365	3.649352	1.236434	-0.000146
 650	6.4576e+01	14.1381	52.171905	0.000264	2.635643	0.892980	-0.000105
 651	6.4675e+01	14.1044	52.010420	0.000405	4.054835	1.373815	-0.000162
 652	6.4775e+01	14.0659	51.869120	0.000355	3.547981	1.202088	-0.000142
 653	6.4874e+01	14.0162	51.748006	0.000304	3.041126	1.030362	-0.000122
 654	6.4974e+01	13.9809	51.594595	0.000385	3.852093	1.305125	-0.000154
 655	6.5073e+01	13.9376	51.509815	0.000213	2.128789	0.721253	-0.000085
 656	6.5172e+01	13.9023	51.340255	0.000426	4.257577	1.442506	-0.000170
 657	6.5272e+01	13.8606	51.215104	0.000314	3.142497	1.064707	-0.000126
 658	6.5371e+01	13.8205	51.069767	0.000365	3.649352	1.236434	-0.000146
 659	6.5471e+01	13.7820	50.932504	0.000345	3.446610	1.167743	-0.000138
 660	6.5570e+01	13.7435	50.795242	0.000345	3.446610	1.167743	-0.000138
 661	6.5670e+01	13.7066	50.662016	0.000335	3.345239	1.133398	-0.000134
 662	6.5769e+01	13.6713	50.520717	0.000355	3.547981	1.202088	-0.000142
 663	6.5869e+01	13.6215	50.403640	0.000294	2.939756	0.996016	-0.000118
 664	6.5969e+01	13.5895	50.221969	0.000456	4.561690	1.545542	-0.000183
 665	6.6068e+01	13.5413	50.068557	0.000385	3.852093	1.305125	-0.000154
 666	6.6168e+01	13.4916	49.959555	0.000274	2.737014	0.927325	-0.000110
 667	6.6267e+01	13.4547	49.830366	0.000324	3.243868	1.099052	-0.000130
 668	6.6367e+01	13.4226	49.717327	0.000284	2.838385	0.961671	-0.000114
 669	6.6466e+01	13.3873	49.519507	0.000497	4.967173	1.682924	-0.000199
 670	6.6566e+01	13.3424	49.394356	0.000314	3.142497	1.064707	-0.000126
 671	6.6665e+01	13.3007	49.257093	0.000345	3.446610	1.167743	-0.000138
 672	6.6764e+01	13.2558	49.091571	0.000416	4.156206	1.408161	-0.000166
 673	6.6864e+01	13.2189	48.974494	0.000294	2.939756	0.996016	-0.000118
 674	6.6963e+01	13.1788	48.877602	0.000243	2.432901	0.824289	-0.000097
 675	6.7063e+01	13.1515	48.728228	0.000375	3.750723	1.270779	-0.000150
 676	6.7162e+01	13.1018	48.562706	0.000416	4.156206	1.408161	-0.000166
 677	6.7262e+01	13.0585	48.425443	0.000345	3.446610	1.167743	-0.000138
 678	6.7362e+01	13.0296	48.340663	0.000213	2.128789	0.721253	-0.000085
 679	6.7461e+01	12.9911	48.191289	0.000375	3.750723	1.270779	-0.000150
 680	6.7561e+01	12.9510	48.070175	0.000304	3.041126	1.030362	-0.000122
 681	6.7660e+01	12.9012	47.924838	0.000365	3.649352	1.236434	-0.000146
 682	6.7760e+01	12.8595	47.771427	0.000385	3.852093	1.305125	-0.000154
 683	6.7859e+01	12.8290	47.634165	0.000345	3.446610	1.167743	-0.000138
 684	6.7959e+01	12.7938	47.529199	0.000264	2.635643	0.892980	-0.000105
 685	6.8058e+01	12.7488	47.331379	0.000497	4.967173	1.682924	-0.000199
 686	6.8157e+01	12.7119	47.169894	0.000405	4.054835	1.373815	-0.000162
 687	6.8257e+01	12.6686	47.040706	0.000324	3.243868	1.099052	-0.000130
 688	6.8356e+01	12.6349	46.891332	0.000375	3.750723	1.270779	-0.000150
 689	6.8456e+01	12.5916	46.762143	0.000324	3.243868	1.099052	-0.000130
 690	6.8555e+01	12.5515	46.616806	0.000365	3.649352	1.236434	-0.000146
 691	6.8655e+01	12.5082	46.499729	0.000294	2.939756	0.996016	-0.000118
 692	6.8754e+01	12.4713	46.346318	0.000385	3.852093	1.305125	-0.000154
 693	6.8854e+01	12.4280	46.205019	0.000355	3.547981	1.202088	-0.000142
 694	6.8954e+01	12.3863	46.063719	0.000355	3.547981	1.202088	-0.000142
 695	6.9053e+01	12.3462	45.930493	0.000335	3.345239	1.133398	-0.000134
 696	6.9153e+01	12.3125	45.817453	0.000284	2.838385	0.961671	-0.000114
 697	6.9252e+01	12.2756	45.696339	0.000304	3.041126	1.030362	-0.000122
 698	6.9352e+01	12.2339	45.563114	0.000335	3.345239	1.133398	-0.000134
 699	6.9451e+01	12.2002	45.413740	0.000375	3.750723	1.270779	-0.000150
 700	6.9550e+01	12.1505	45.256292	0.000395	3.953464	1.339470	-0.000158
 701	6.9650e+01	12.1120	45.086732	0.000426	4.257577	1.442506	-0.000170
 702	6.9749e+01	12.0702	44.933321	0.000385	3.852093	1.305125	-0.000154
 703	6.9849e+01	12.0317	44.787984	0.000365	3.649352	1.236434	-0.000146
 704	6.9948e+01	11.9932	44.614387	0.000436	4.358948	1.476852	-0.000174
 705	7.0048e+01	11.9499	44.505384	0.000274	2.737014	0.927325	-0.000110
 706	7.0147e+01	11.9114	44.376196	0.000324	3.243868	1.099052	-0.000130
 707	7.0247e+01	11.8681	44.275268	0.000253	2.534272	0.858635	-0.000101
 708	7.0347e+01	11.8312	44.069374	0.000517	5.169915	1.751615	-0.000207
 709	7.0446e+01	11.7943	43.891740	0.000446	4.460319	1.511197	-0.000179
 710	7.0546e+01	11.7478	43.790811	0.000253	2.534272	0.858635	-0.000101
 711	7.0645e+01	11.7173	43.689883	0.000253	2.534272	0.858635	-0.000101
 712	7.0745e+01	11.6708	43.508212	0.000456	4.561690	1.545542	-0.000183
 713	7.0844e+01	11.6323	43.431506	0.000193	1.926047	0.652562	-0.000077
 714	7.0944e+01	11.5906	43.282132	0.000375	3.750723	1.270779	-0.000150
 715	7.1043e+01	11.5409	43.213501	0.000172	1.723305	0.583872	-0.000069
 716	7.1142e+01	11.5232	42.999533	0.000537	5.372657	1.820305	-0.000215
 717	7.1242e+01	11.4783	42.874382	0.000314	3.142497	1.064707	-0.000126
 718	7.1341e+01	11.4398	42.692710	0.000456	4.561690	1.545542	-0.000183
 719	7.1441e+01	11.4013	42.555448	0.000345	3.446610	1.167743	-0.000138
 720	7.1540e+01	11.3516	42.418185	0.000345	3.446610	1.167743	-0.000138
 721	7.1640e+01	11.3130	42.260737	0.000395	3.953464	1.339470	-0.000158
 722	7.1740e+01	11.2858	42.139623	0.000304	3.041126	1.030362	-0.000122
 723	7.1839e+01	11.2296	41.957952	0.000456	4.561690	1.545542	-0.000183
 724	7.1939e+01	11.1911	41.869135	0.000223	2.230159	0.755598	-0.000089
 725	7.2038e+01	11.1542	41.719761	0.000375	3.750723	1.270779	-0.000150
 726	7.2138e+01	11.1157	41.574424	0.000365	3.649352	1.236434	-0.000146
 727	7.2237e+01	11.0756	41.441198	0.000335	3.345239	1.133398	-0.000134
 728	7.2337e+01	11.0323	41.316047	0.000314	3.142497	1.064707	-0.000126
 729	7.2436e+01	10.9954	41.170710	0.000365	3.649352	1.236434	-0.000146
 730	7.2535e+01	10.9489	41.017299	0.000385	3.852093	1.305125	-0.000154
 731	7.2635e+01	10.9136	40.920408	0.000243	2.432901	0.824289	-0.000097
 732	7.2734e+01	10.8687	40.795257	0.000314	3.142497	1.064707	-0.000126
 733	7.2834e+01	10.8350	40.637808	0.000395	3.953464	1.339470	-0.000158
 734	7.2933e+01	10.8045	40.504583	0.000335	3.345239	1.133398	-0.000134
 735	7.3033e+01	10.7660	40.326949	0.000446	4.460319	1.511197	-0.000179
 736	7.3132e+01	10.7195	40.161426	0.000416	4.156206	1.408161	-0.000166
 737	7.3232e+01	10.6794	40.008015	0.000385	3.852093	1.305125	-0.000154
 738	7.3332e+01	10.6441	39.894975	0.000284	2.838385	0.961671	-0.000114
 739	7.3431e+01	10.6040	39.737527	0.000395	3.953464	1.339470	-0.000158
 740	7.3531e+01	10.5510	39.620450	0.000294	2.939756	0.996016	-0.000118
 741	7.3630e+01	10.5157	39.467039	0.000385	3.852093	1.305125	-0.000154
 742	7.3730e+01	10.4821	39.321702	0.000365	3.649352	1.236434	-0.000146
 743	7.3829e+01	10.4307	39.196551	0.000314	3.142497	1.064707	-0.000126
 744	7.3928e+01	10.3986	39.035065	0.000405	4.054835	1.373815	-0.000162
 745	7.4028e+01	10.3649	38.934137	0.000253	2.534272	0.858635	-0.000101
 746	7.4127e+01	10.3104	38.829172	0.000264	2.635643	0.892980	-0.000105
 747	7.4227e+01	10.2735	38.627315	0.000507	5.068544	1.717269	-0.000203
 748	7.4326e+01	10.2302	38.498126	0.000324	3.243868	1.099052	-0.000130
 749	7.4426e+01	10.1949	38.344715	0.000385	3.852093	1.305125	-0.000154
 750	7.4525e+01	10.1532	38.227638	0.000294	2.939756	0.996016	-0.000118
 751	7.4625e+01	10.1115	38.118636	0.000274	2.737014	0.927325	-0.000110
 752	7.4725e+01	10.0698	37.989447	0.000324	3.243868	1.099052	-0.000130
 753	7.4824e+01	10.0393	37.811813	0.000446	4.460319	1.511197	-0.000179
 754	7.4924e+01	9.9896	37.613994	0.000497	4.967173	1.682924	-0.000199
 755	7.5023e+01	9.9575	37.484805	0.000324	3.243868	1.099052	-0.000130
 756	7.5123e+01	9.9206	37.359654	0.000314	3.142497	1.064707	-0.000126
 757	7.5222e+01	9.8708	37.230466	0.000324	3.243868	1.099052	-0.000130
 758	7.5322e+01	9.8356	37.048795	0.000456	4.561690	1.545542	-0.000183
 759	7.5421e+01	9.8019	36.903458	0.000365	3.649352	1.236434	-0.000146
 760	7.5520e+01	9.7618	36.766195	0.000345	3.446610	1.167743	-0.000138
 761	7.5620e+01	9.7168	36.641044	0.000314	3.142497	1.064707	-0.000126
 762	7.5719e+01	9.6799	36.439187	0.000507	5.068544	1.717269	-0.000203
 763	7.5819e+01	9.6382	36.358444	0.000203	2.027418	0.686908	-0.000081
 764	7.5918e+01	9.6029	36.229256	0.000324	3.243868	1.099052	-0.000130
 765	7.6018e+01	9.5596	36.083919	0.000365	3.649352	1.236434	-0.000146
 766	7.6118e+01	9.5131	35.914360	0.000426	4.257577	1.442506	-0.000170
 767	7.6217e+01	9.4762	35.793245	0.000304	3.041126	1.030362	-0.000122
 768	7.6317e+01	9.4377	35.639834	0.000385	3.852093	1.305125	-0.000154
 769	7.6416e+01	9.3992	35.498535	0.000355	3.547981	1.202088	-0.000142
 770	7.6516e+01	9.3591	35.409718	0.000223	2.230159	0.755598	-0.000089
 771	7.6615e+01	9.3222	35.224009	0.000466	4.663061	1.579888	-0.000187
 772	7.6715e+01	9.2837	35.078672	0.000365	3.649352	1.236434	-0.000146
 773	7.6814e+01	9.2532	34.913150	0.000416	4.156206	1.408161	-0.000166
 774	7.6913e+01	9.2003	34.775887	0.000345	3.446610	1.167743	-0.000138
 775	7.7013e+01	9.1554	34.618439	0.000395	3.953464	1.339470	-0.000158
 776	7.7112e+01	9.1217	34.481176	0.000345	3.446610	1.167743	-0.000138
 777	7.7212e+01	9.0816	34.343914	0.000345	3.446610	1.167743	-0.000138
 778	7.7311e+01	9.0495	34.186465	0.000395	3.953464	1.339470	-0.000158
 779	7.7411e+01	9.0030	34.053240	0.000335	3.345239	1.133398	-0.000134
 780	7.7510e+01	8.9564	33.915977	0.000345	3.446610	1.167743	-0.000138
 781	7.7610e+01	8.9163	33.766603	0.000375	3.750723	1.270779	-0.000150
 782	7.7710e+01	8.8842	33.605118	0.000405	4.054835	1.373815	-0.000162
 783	7.7809e+01	8.8425	33.451707	0.000385	3.852093	1.305125	-0.000154
 784	7.7909e+01	8.7992	33.298296	0.000385	3.852093	1.305125	-0.000154
 785	7.8008e+01	8.7623	33.177181	0.000304	3.041126	1.030362	-0.000122
 786	7.8108e+01	8.7222	33.072216	0.000264	2.635643	0.892980	-0.000105
 787	7.8207e+01	8.6837	32.938990	0.000335	3.345239	1.133398	-0.000134
 788	7.8306e+01	8.6516	32.801728	0.000345	3.446610	1.167743	-0.000138
 789	7.8406e+01	8.6019	32.664465	0.000345	3.446610	1.167743	-0.000138
 790	7.8505e+01	8.5698	32.515091	0.000375	3.750723	1.270779	-0.000150
 791	7.8605e+01	8.5137	32.264789	0.000628	6.284995	2.129414	-0.000252
 792	7.8704e+01	8.4832	32.167898	0.000243	2.432901	0.824289	-0.000097
 793	7.8804e+01	8.4399	32.034672	0.000335	3.345239	1.133398	-0.000134
 794	7.8903e+01	8.4142	31.844927	0.000476	4.764431	1.614233	-0.000191
 795	7.9003e+01	8.3629	31.723813	0.000304	3.041126	1.030362	-0.000122
 796	7.9103e+01	8.3340	31.578476	0.000365	3.649352	1.236434	-0.000146
 797	7.9202e+01	8.2794	31.457362	0.000304	3.041126	1.030362	-0.000122
 798	7.9302e+01	8.2490	31.263579	0.000487	4.865802	1.648578	-0.000195
 799	7.9401e+01	8.2169	31.134391	0.000324	3.243868	1.099052	-0.000130
 800	7.9501e+01	8.1655	30.968868	0.000416	4.156206	1.408161	-0.000166
 801	7.9600e+01	8.1286	30.843717	0.000314	3.142497	1.064707	-0.000126
 802	7.9700e+01	8.0853	30.678194	0.000416	4.156206	1.408161	-0.000166
 803	7.9799e+01	8.0452	30.553043	0.000314	3.142497	1.064707	-0.000126
 804	7.9898e+01	8.0067	30.407706	0.000365	3.649352	1.236434	-0.000146
 805	7.9998e+01	7.9666	30.254295	0.000385	3.852093	1.305125	-0.000154
 806	8.0097e+01	7.9121	30.108958	0.000365	3.649352	1.236434	-0.000146
 807	8.0197e+01	7.8912	29.975733	0.000335	3.345239	1.133398	-0.000134
 808	8.0296e+01	7.8431	29.830396	0.000365	3.649352	1.236434	-0.000146
 809	8.0396e+01	7.8030	29.681022	0.000375	3.750723	1.270779	-0.000150
 810	8.0496e+01	7.7677	29.499351	0.000456	4.561690	1.545542	-0.000183
 811	8.0595e+01	7.7292	29.345940	0.000385	3.852093	1.305125	-0.000154
 812	8.0695e+01	7.6939	29.184454	0.000405	4.054835	1.373815	-0.000162
 813	8.0794e+01	7.6458	29.039117	0.000365	3.649352	1.236434	-0.000146
 814	8.0894e+01	7.6089	28.877632	0.000405	4.054835	1.373815	-0.000162
 815	8.0993e+01	7.5720	28.740369	0.000345	3.446610	1.167743	-0.000138
 816	8.1093e+01	7.5271	28.595032	0.000365	3.649352	1.236434	-0.000146
 817	8.1192e+01	7.4821	28.413361	0.000456	4.561690	1.545542	-0.000183
 818	8.1291e+01	7.4501	28.255913	0.000395	3.953464	1.339470	-0.000158
 819	8.1391e+01	7.4083	28.122688	0.000335	3.345239	1.133398	-0.000134
 820	8.1490e+01	7.3714	27.985425	0.000345	3.446610	1.167743	-0.000138
 821	8.1590e+01	7.3233	27.832014	0.000385	3.852093	1.305125	-0.000154
 822	8.1689e+01	7.2944	27.654380	0.000446	4.460319	1.511197	-0.000179
 823	8.1789e+01	7.2543	27.525191	0.000324	3.243868	1.099052	-0.000130
 824	8.1888e+01	7.2046	27.432337	0.000233	2.331530	0.789944	-0.000093
 825	8.1988e+01	7.1629	27.242592	0.000476	4.764431	1.614233	-0.000191
 826	8.2088e+01	7.1356	27.077069	0.000416	4.156206	1.408161	-0.000166
 827	8.2187e+01	7.0843	26.907510	0.000426	4.257577	1.442506	-0.000170
 828	8.2287e+01	7.0506	26.750061	0.000395	3.953464	1.339470	-0.000158
 829	8.2386e+01	7.0105	26.588576	0.000405	4.054835	1.373815	-0.000162
 830	8.2486e+01	6.9752	26.402868	0.000466	4.663061	1.579888	-0.000187
 831	8.2585e+01	6.9287	26.253494	0.000375	3.750723	1.270779	-0.000150
 832	8.2684e+01	6.8934	26.144491	0.000274	2.737014	0.927325	-0.000110
 833	8.2784e+01	6.8565	25.950709	0.000487	4.865802	1.648578	-0.000195
 834	8.2883e+01	6.8132	25.841706	0.000274	2.737014	0.927325	-0.000110
 835	8.2983e+01	6.7715	25.672146	0.000426	4.257577	1.442506	-0.000170
 836	8.3082e+01	6.7362	25.530846	0.000355	3.547981	1.202088	-0.000142
 837	8.3182e+01	6.6864	25.328990	0.000507	5.068544	1.717269	-0.000203
 838	8.3281e+01	6.6399	25.203838	0.000314	3.142497	1.064707	-0.000126
 839	8.3381e+01	6.6143	25.026204	0.000446	4.460319	1.511197	-0.000179
 840	8.3481e+01	6.5661	24.933350	0.000233	2.331530	0.789944	-0.000093
 841	8.3580e+01	6.5292	24.763791	0.000426	4.257577	1.442506	-0.000170
 842	8.3680e+01	6.4875	24.618454	0.000365	3.649352	1.236434	-0.000146
 843	8.3779e+01	6.4538	24.473117	0.000365	3.649352	1.236434	-0.000146
 844	8.3879e+01	6.4169	24.311631	0.000405	4.054835	1.373815	-0.000162
 845	8.3978e+01	6.3720	24.162257	0.000375	3.750723	1.270779	-0.000150
 846	8.4078e+01	6.3303	23.976549	0.000466	4.663061	1.579888	-0.000187
 847	8.4177e+01	6.2934	23.847361	0.000324	3.243868	1.099052	-0.000130
 848	8.4276e+01	6.2565	23.665690	0.000456	4.561690	1.545542	-0.000183
 849	8.4376e+01	6.2180	23.560724	0.000264	2.635643	0.892980	-0.000105
 850	8.4475e+01	6.1795	23.379053	0.000456	4.561690	1.545542	-0.000183
 851	8.4575e+01	6.1394	23.213530	0.000416	4.156206	1.408161	-0.000166
 852	8.4674e+01	6.0961	23.072231	0.000355	3.547981	1.202088	-0.000142
 853	8.4774e+01	6.0560	22.926894	0.000365	3.649352	1.236434	-0.000146
 854	8.4874e+01	6.0159	22.749260	0.000446	4.460319	1.511197	-0.000179
 855	8.4973e+01	5.9758	22.603923	0.000365	3.649352	1.236434	-0.000146
 856	8.5073e+01	5.9373	22.414178	0.000476	4.764431	1.614233	-0.000191
 857	8.5172e+01	5.8875	22.297101	0.000294	2.939756	0.996016	-0.000118
 858	8.5272e+01	5.8554	22.155801	0.000355	3.547981	1.202088	-0.000142
 859	8.5371e+01	5.8121	22.010464	0.000365	3.649352	1.236434	-0.000146
 860	8.5471e+01	5.7768	21.901461	0.000274	2.737014	0.927325	-0.000110
 861	8.5570e+01	5.7383	21.735939	0.000416	4.156206	1.408161	-0.000166
 862	8.5669e+01	5.6966	21.570416	0.000416	4.156206	1.408161	-0.000166
 863	8.5769e+01	5.6533	21.392782	0.000446	4.460319	1.511197	-0.000179
 864	8.5868e+01	5.6068	21.243408	0.000375	3.750723	1.270779	-0.000150
 865	8.5968e+01	5.5715	21.098071	0.000365	3.649352	1.236434	-0.000146
 866	8.6067e+01	5.5410	20.908326	0.000476	4.764431	1.614233	-0.000191
 867	8.6167e+01	5.4977	20.771063	0.000345	3.446610	1.167743	-0.000138
 868	8.6266e+01	5.4640	20.589392	0.000456	4.561690	1.545542	-0.000183
 869	8.6366e+01	5.4207	20.411758	0.000446	4.460319	1.511197	-0.000179
 870	8.6466e+01	5.3758	20.278533	0.000335	3.345239	1.133398	-0.000134
 871	8.6565e+01	5.3405	20.121085	0.000395	3.953464	1.339470	-0.000158
 872	8.6665e+01	5.3052	19.951525	0.000426	4.257577	1.442506	-0.000170
 873	8.6764e+01	5.2587	19.830411	0.000304	3.041126	1.030362	-0.000122
 874	8.6864e+01	5.2105	19.640665	0.000476	4.764431	1.614233	-0.000191
 875	8.6963e+01	5.1849	19.511477	0.000324	3.243868	1.099052	-0.000130
 876	8.7063e+01	5.1368	19.309620	0.000507	5.068544	1.717269	-0.000203
 877	8.7162e+01	5.1015	19.200618	0.000274	2.737014	0.927325	-0.000110
 878	8.7261e+01	5.0533	19.055281	0.000365	3.649352	1.236434	-0.000146
 879	8.7361e+01	5.0116	18.918018	0.000345	3.446610	1.167743	-0.000138
 880	8.7460e+01	4.9811	18.748458	0.000426	4.257577	1.442506	-0.000170
 881	8.7560e+01	4.9282	18.574862	0.000436	4.358948	1.476852	-0.000174
 882	8.7659e+01	4.9025	18.425488	0.000375	3.750723	1.270779	-0.000150
 883	8.7759e+01	4.8528	18.284188	0.000355	3.547981	1.202088	-0.000142
 884	8.7859e+01	4.8175	18.110591	0.000436	4.358948	1.476852	-0.000174
 885	8.7958e+01	4.7870	17.928920	0.000456	4.561690	1.545542	-0.000183
 886	8.8058e+01	4.7421	17.819917	0.000274	2.737014	0.927325	-0.000110
 887	8.8157e+01	4.7004	17.682655	0.000345	3.446610	1.167743	-0.000138
 888	8.8257e+01	4.6603	17.500983	0.000456	4.561690	1.545542	-0.000183
 889	8.8356e+01	4.6266	17.347572	0.000385	3.852093	1.305125	-0.000154
 890	8.8456e+01	4.5721	17.157827	0.000476	4.764431	1.614233	-0.000191
 891	8.8555e+01	4.5448	17.056898	0.000253	2.534272	0.858635	-0.000101
 892	8.8654e+01	4.4999	16.875227	0.000456	4.561690	1.545542	-0.000183
 893	8.8754e+01	4.4630	16.742002	0.000335	3.345239	1.133398	-0.000134
 894	8.8853e+01	4.4245	16.608776	0.000335	3.345239	1.133398	-0.000134
 895	8.8953e+01	4.3812	16.378660	0.000578	5.778140	1.957687	-0.000231
 896	8.9052e+01	4.3427	16.326177	0.000132	1.317821	0.446490	-0.000053
 897	8.9152e+01	4.3009	16.213137	0.000284	2.838385	0.961671	-0.000114
 898	8.9251e+01	4.2592	16.043577	0.000426	4.257577	1.442506	-0.000170
 899	8.9351e+01	4.2272	15.853832	0.000476	4.764431	1.614233	-0.000191
 900	8.9451e+01	4.1822	15.684272	0.000426	4.257577	1.442506	-0.000170
 901	8.9550e+01	4.1437	15.518750	0.000416	4.156206	1.408161	-0.000166
 902	8.9650e+01	4.1036	15.349190	0.000426	4.257577	1.442506	-0.000170
 903	8.9749e+01	4.0635	15.183668	0.000416	4.156206	1.408161	-0.000166
 904	8.9849e+01	4.0170	15.058516	0.000314	3.142497	1.064707	-0.000126
 905	8.9948e+01	3.9913	14.892994	0.000416	4.156206	1.408161	-0.000166
 906	9.0047e+01	3.9416	14.751694	0.000355	3.547981	1.202088	-0.000142
 907	9.0147e+01	3.9031	14.622506	0.000324	3.243868	1.099052	-0.000130
 908	9.0246e+01	3.8694	14.440835	0.000456	4.561690	1.545542	-0.000183
 909	9.0346e+01	3.8261	14.315683	0.000314	3.142497	1.064707	-0.000126
 910	9.0445e+01	3.7780	14.158235	0.000395	3.953464	1.339470	-0.000158
 911	9.0545e+01	3.7395	13.972527	0.000466	4.663061	1.579888	-0.000187
 912	9.0644e+01	3.6962	13.802967	0.000426	4.257577	1.442506	-0.000170
 913	9.0744e+01	3.6673	13.689927	0.000284	2.838385	0.961671	-0.000114
 914	9.0844e+01	3.6256	13.528442	0.000405	4.054835	1.373815	-0.000162
 915	9.0943e+01	3.5871	13.439625	0.000223	2.230159	0.755598	-0.000089
 916	9.1043e+01	3.5357	13.249879	0.000476	4.764431	1.614233	-0.000191
 917	9.1142e+01	3.5052	13.100505	0.000375	3.750723	1.270779	-0.000150
 918	9.1242e+01	3.4716	12.951131	0.000375	3.750723	1.270779	-0.000150
 919	9.1341e+01	3.4250	12.773497	0.000446	4.460319	1.511197	-0.000179
 920	9.1441e+01	3.3865	12.599901	0.000436	4.358948	1.476852	-0.000174
 921	9.1540e+01	3.3448	12.454564	0.000365	3.649352	1.236434	-0.000146
 922	9.1639e+01	3.3111	12.268856	0.000466	4.663061	1.579888	-0.000187
 923	9.1739e+01	3.2662	12.127556	0.000355	3.547981	1.202088	-0.000142
 924	9.1838e+01	3.2213	11.982219	0.000365	3.649352	1.236434	-0.000146
 925	9.1938e+01	3.1876	11.812659	0.000426	4.257577	1.442506	-0.000170
 926	9.2037e+01	3.1539	11.626951	0.000466	4.663061	1.579888	-0.000187
 927	9.2137e+01	3.1058	11.477577	0.000375	3.750723	1.270779	-0.000150
 928	9.2237e+01	3.0673	11.344351	0.000335	3.345239	1.133398	-0.000134
 929	9.2336e+01	3.0240	11.194977	0.000375	3.750723	1.270779	-0.000150
 930	9.2436e+01	2.9887	11.053678	0.000355	3.547981	1.202088	-0.000142
 931	9.2535e+01	2.9470	10.912378	0.000355	3.547981	1.202088	-0.000142
 932	9.2635e+01	2.9069	10.763004	0.000375	3.750723	1.270779	-0.000150
 933	9.2734e+01	2.8748	10.613630	0.000375	3.750723	1.270779	-0.000150
 934	9.2834e+01	2.8234	10.476367	0.000345	3.446610	1.167743	-0.000138
 935	9.2933e+01	2.7882	10.310845	0.000416	4.156206	1.408161	-0.000166
 936	9.3032e+01	2.7416	10.145322	0.000416	4.156206	1.408161	-0.000166
 937	9.3132e+01	2.6919	9.951540	0.000487	4.865802	1.648578	-0.000195
 938	9.3231e+01	2.6678	9.818314	0.000335	3.345239	1.133398	-0.000134
 939	9.3331e+01	2.6309	9.656829	0.000405	4.054835	1.373815	-0.000162
 940	9.3430e+01	2.5908	9.459009	0.000497	4.967173	1.682924	-0.000199
 941	9.3530e+01	2.5491	9.329821	0.000324	3.243868	1.099052	-0.000130
 942	9.3629e+01	2.5106	9.148150	0.000456	4.561690	1.545542	-0.000183
 943	9.3729e+01	2.4673	8.982627	0.000416	4.156206	1.408161	-0.000166
 944	9.3829e+01	2.4336	8.849402	0.000335	3.345239	1.133398	-0.000134
 945	9.3928e+01	2.3807	8.691953	0.000395	3.953464	1.339470	-0.000158
 946	9.4028e+01	2.3518	8.538542	0.000385	3.852093	1.305125	-0.000154
 947	9.4127e+01	2.3101	8.368982	0.000426	4.257577	1.442506	-0.000170
 948	9.4227e+01	2.2684	8.219608	0.000375	3.750723	1.270779	-0.000150
 949	9.4326e+01	2.2251	8.066197	0.000385	3.852093	1.305125	-0.000154
 950	9.4425e+01	2.1898	7.949120	0.000294	2.939756	0.996016	-0.000118
 951	9.4525e+01	2.1449	7.828006	0.000304	3.041126	1.030362	-0.000122
 952	9.4624e+01	2.1080	7.630187	0.000497	4.967173	1.682924	-0.000199
 953	9.4724e+01	2.0663	7.513110	0.000294	2.939756	0.996016	-0.000118
 954	9.4823e+01	2.0326	7.311253	0.000507	5.068544	1.717269	-0.000203
 955	9.4923e+01	1.9973	7.137656	0.000436	4.358948	1.476852	-0.000174
 956	9.5022e+01	1.9507	6.976171	0.000405	4.054835	1.373815	-0.000162
 957	9.5122e+01	1.9106	6.842945	0.000335	3.345239	1.133398	-0.000134
 958	9.5222e+01	1.8770	6.673385	0.000426	4.257577	1.442506	-0.000170
 959	9.5321e+01	1.8272	6.503826	0.000426	4.257577	1.442506	-0.000170
 960	9.5421e+01	1.7855	6.342340	0.000405	4.054835	1.373815	-0.000162
 961	9.5520e+01	1.7518	6.188929	0.000385	3.852093	1.305125	-0.000154
 962	9.5620e+01	1.7085	6.011295	0.000446	4.460319	1.511197	-0.000179
 963	9.5719e+01	1.6668	5.865958	0.000365	3.649352	1.236434	-0.000146
 964	9.5819e+01	1.6315	5.716584	0.000375	3.750723	1.270779	-0.000150
 965	9.5918e+01	1.5866	5.530876	0.000466	4.663061	1.579888	-0.000187
 966	9.6017e+01	1.5625	5.397650	0.000335	3.345239	1.133398	-0.000134
 967	9.6117e+01	1.5064	5.215979	0.000456	4.561690	1.545542	-0.000183
 968	9.6216e+01	1.4647	5.086791	0.000324	3.243868	1.099052	-0.000130
 969	9.6316e+01	1.4358	4.949528	0.000345	3.446610	1.167743	-0.000138
 970	9.6415e+01	1.3909	4.804192	0.000365	3.649352	1.236434	-0.000146
 971	9.6515e+01	1.3556	4.626558	0.000446	4.460319	1.511197	-0.000179
 972	9.6615e+01	1.3010	4.497369	0.000324	3.243868	1.099052	-0.000130
 973	9.6714e+01	1.2770	4.343958	0.000385	3.852093	1.305125	-0.000154
 974	9.6814e+01	1.2417	4.154213	0.000476	4.764431	1.614233	-0.000191
 975	9.6913e+01	1.1919	3.968504	0.000466	4.663061	1.579888	-0.000187
 976	9.7013e+01	1.1534	3.786833	0.000456	4.561690	1.545542	-0.000183
 977	9.7112e+01	1.1053	3.625348	0.000405	4.054835	1.373815	-0.000162
 978	9.7212e+01	1.0796	3.475974	0.000375	3.750723	1.270779	-0.000150
 979	9.7311e+01	1.0299	3.298340	0.000446	4.460319	1.511197	-0.000179
 980	9.7410e+01	0.9978	3.157040	0.000355	3.547981	1.202088	-0.000142
 981	9.7510e+01	0.9593	2.983443	0.000436	4.358948	1.476852	-0.000174
 982	9.7609e+01	0.9144	2.821958	0.000405	4.054835	1.373815	-0.000162
 983	9.7709e+01	0.8727	2.668547	0.000385	3.852093	1.305125	-0.000154
 984	9.7808e+01	0.8278	2.482838	0.000466	4.663061	1.579888	-0.000187
 985	9.7908e+01	0.7941	2.305205	0.000446	4.460319	1.511197	-0.000179
 986	9.8007e+01	0.7508	2.180053	0.000314	3.142497	1.064707	-0.000126
 987	9.8107e+01	0.7155	2.010494	0.000426	4.257577	1.442506	-0.000170
 988	9.8207e+01	0.6690	1.921677	0.000223	2.230159	0.755598	-0.000089
 989	9.8306e+01	0.6465	1.731931	0.000476	4.764431	1.614233	-0.000191
 990	9.8406e+01	0.5952	1.574483	0.000395	3.953464	1.339470	-0.000158
 991	9.8505e+01	0.5599	1.421072	0.000385	3.852093	1.305125	-0.000154
 992	9.8605e+01	0.5134	1.219215	0.000507	5.068544	1.717269	-0.000203
 993	9.8704e+01	0.4749	1.057730	0.000405	4.054835	1.373815	-0.000162
 994	9.8803e+01	0.4396	0.904318	0.000385	3.852093	1.305125	-0.000154
 995	9.8903e+01	0.3978	0.734759	0.000426	4.257577	1.442506	-0.000170
 996	9.9002e+01	0.3610	0.540976	0.000487	4.865802	1.648578	-0.000195
 997	9.9102e+01	0.3096	0.367379	0.000436	4.358948	1.476852	-0.000174
 998	9.9201e+01	0.2839	0.189745	0.000446	4.460319	1.511197	-0.000179
 999	9.9301e+01	0.2406	0.060557	0.000324	3.243868	1.099052	-0.000130
1000	9.9400e+01	0.1893	-0.137263	0.000497	4.967173	1.682924	-0.000199
1001	9.9500e+01	0.1588	-0.290674	0.000385	3.852093	1.305125	-0.000154
1002	9.9600e+01	0.1139	-0.431974	0.000355	3.547981	1.202088	-0.000142
1003	9.9699e+01	0.0722	-0.589422	0.000395	3.953464	1.339470	-0.000158
1004	9.9799e+01	0.0321	-0.746870	0.000395	3.953464	1.339470	-0.000158
1005	9.9898e+01	0.0032	-0.863947	0.000294	2.939756	0.996016	-0.000118
1006	9.9998e+01	-0.0337	-1.005247	0.000355	3.547981	1.202088	-0.000142
1007	1.0010e+02	-0.0754	-1.110212	0.000264	2.635643	0.892980	-0.000105
1008	1.0020e+02	-0.1075	-1.316106	0.000517	5.169915	1.751615	-0.000207
1009	1.0030e+02	-0.1572	-1.433183	0.000294	2.939756	0.996016	-0.000118
1010	1.0040e+02	-0.1957	-1.635040	0.000507	5.068544	1.717269	-0.000203
1011	1.0050e+02	-0.2310	-1.812674	0.000446	4.460319	1.511197	-0.000179
1012	1.0059e+02	-0.2679	-1.970122	0.000395	3.953464	1.339470	-0.000158
1013	1.0069e+02	-0.3160	-2.176016	0.000517	5.169915	1.751615	-0.000207
1014	1.0079e+02	-0.3545	-2.341539	0.000416	4.156206	1.408161	-0.000166
1015	1.0089e+02	-0.3946	-2.515136	0.000436	4.358948	1.476852	-0.000174
1016	1.0099e+02	-0.4331	-2.668547	0.000385	3.852093	1.305125	-0.000154
1017	1.0109e+02	-0.4636	-2.854255	0.000466	4.663061	1.579888	-0.000187
1018	1.0119e+02	-0.5134	-2.987480	0.000335	3.345239	1.133398	-0.000134
1019	1.0129e+02	-0.5519	-3.112632	0.000314	3.142497	1.064707	-0.000126
1020	1.0139e+02	-0.5855	-3.257969	0.000365	3.649352	1.236434	-0.000146
1021	1.0149e+02	-0.6321	-3.439640	0.000456	4.561690	1.545542	-0.000183
1022	1.0159e+02	-0.6818	-3.605162	0.000416	4.156206	1.408161	-0.000166
1023	1.0169e+02	-0.7139	-3.726276	0.000304	3.041126	1.030362	-0.000122
1024	1.0179e+02	-0.7492	-3.883725	0.000395	3.953464	1.339470	-0.000158
1025	1.0189e+02	-0.7925	-4.053284	0.000426	4.257577	1.442506	-0.000170
1026	1.0199e+02	-0.8310	-4.202658	0.000375	3.750723	1.270779	-0.000150
1027	1.0209e+02	-0.8727	-4.347995	0.000365	3.649352	1.236434	-0.000146
1028	1.0219e+02	-0.9176	-4.533703	0.000466	4.663061	1.579888	-0.000187
1029	1.0229e+02	-0.9481	-4.715375	0.000456	4.561690	1.545542	-0.000183
1030	1.0239e+02	-0.9930	-4.917231	0.000507	5.068544	1.717269	-0.000203
1031	1.0248e+02	-1.0428	-5.062568	0.000365	3.649352	1.236434	-0.000146
1032	1.0258e+02	-1.0764	-5.236165	0.000436	4.358948	1.476852	-0.000174
1033	1.0268e+02	-1.1069	-5.401688	0.000416	4.156206	1.408161	-0.000166
1034	1.0278e+02	-1.1486	-5.571247	0.000426	4.257577	1.442506	-0.000170
1035	1.0288e+02	-1.1919	-5.732733	0.000405	4.054835	1.373815	-0.000162
1036	1.0298e+02	-1.2337	-5.882107	0.000375	3.750723	1.270779	-0.000150
1037	1.0308e+02	-1.2689	-6.027444	0.000365	3.649352	1.236434	-0.000146
1038	1.0318e+02	-1.3058	-6.148558	0.000304	3.041126	1.030362	-0.000122
1039	1.0328e+02	-1.3460	-6.378674	0.000578	5.778140	1.957687	-0.000231
1040	1.0338e+02	-1.3861	-6.503826	0.000314	3.142497	1.064707	-0.000126
1041	1.0348e+02	-1.4294	-6.653200	0.000375	3.750723	1.270779	-0.000150
1042	1.0358e+02	-1.4679	-6.778351	0.000314	3.142497	1.064707	-0.000126
1043	1.0368e+02	-1.5176	-6.968096	0.000476	4.764431	1.614233	-0.000191
1044	1.0378e+02	-1.5545	-7.121507	0.000385	3.852093	1.305125	-0.000154
1045	1.0388e+02	-1.5898	-7.250696	0.000324	3.243868	1.099052	-0.000130
1046	1.0398e+02	-1.6299	-7.424293	0.000436	4.358948	1.476852	-0.000174
1047	1.0408e+02	-1.6620	-7.593852	0.000426	4.257577	1.442506	-0.000170
1048	1.0418e+02	-1.7149	-7.771486	0.000446	4.460319	1.511197	-0.000179
1049	1.0428e+02	-1.7502	-7.957195	0.000466	4.663061	1.579888	-0.000187
1050	1.0438e+02	-1.7935	-8.126754	0.000426	4.257577	1.442506	-0.000170
1051	1.0447e+02	-1.8224	-8.255943	0.000324	3.243868	1.099052	-0.000130
1052	1.0457e+02	-1.8593	-8.429539	0.000436	4.358948	1.476852	-0.000174
1053	1.0467e+02	-1.9171	-8.607173	0.000446	4.460319	1.511197	-0.000179
1054	1.0477e+02	-1.9556	-8.772696	0.000416	4.156206	1.408161	-0.000166
1055	1.0487e+02	-1.9941	-8.869587	0.000243	2.432901	0.824289	-0.000097
1056	1.0497e+02	-2.0278	-9.107778	0.000598	5.980882	2.026378	-0.000239
1057	1.0507e+02	-2.0679	-9.249078	0.000355	3.547981	1.202088	-0.000142
1058	1.0517e+02	-2.1031	-9.345969	0.000243	2.432901	0.824289	-0.000097
1059	1.0527e+02	-2.1561	-9.523603	0.000446	4.460319	1.511197	-0.000179
1060	1.0537e+02	-2.1834	-9.620494	0.000243	2.432901	0.824289	-0.000097
1061	1.0547e+02	-2.2315	-9.794091	0.000436	4.358948	1.476852	-0.000174
1062	1.0557e+02	-2.2684	-9.943465	0.000375	3.750723	1.270779	-0.000150
1063	1.0567e+02	-2.3149	-10.088802	0.000365	3.649352	1.236434	-0.000146
1064	1.0577e+02	-2.3406	-10.242213	0.000385	3.852093	1.305125	-0.000154
1065	1.0587e+02	-2.3887	-10.423884	0.000456	4.561690	1.545542	-0.000183
1066	1.0597e+02	-2.4208	-10.593444	0.000426	4.257577	1.442506	-0.000170
1067	1.0607e+02	-2.4593	-10.754930	0.000405	4.054835	1.373815	-0.000162
1068	1.0617e+02	-2.5074	-10.940638	0.000466	4.663061	1.579888	-0.000187
1069	1.0627e+02	-2.5491	-11.094049	0.000385	3.852093	1.305125	-0.000154
1070	1.0637e+02	-2.5844	-11.243423	0.000375	3.750723	1.270779	-0.000150
1071	1.0647e+02	-2.6261	-11.364537	0.000304	3.041126	1.030362	-0.000122
1072	1.0656e+02	-2.6614	-11.546208	0.000456	4.561690	1.545542	-0.000183
1073	1.0666e+02	-2.7095	-11.691545	0.000365	3.649352	1.236434	-0.000146
1074	1.0676e+02	-2.7497	-11.869179	0.000446	4.460319	1.511197	-0.000179
1075	1.0686e+02	-2.7866	-12.006442	0.000345	3.446610	1.167743	-0.000138
1076	1.0696e+02	-2.8186	-12.139667	0.000335	3.345239	1.133398	-0.000134
1077	1.0706e+02	-2.8587	-12.285004	0.000365	3.649352	1.236434	-0.000146
1078	1.0716e+02	-2.9037	-12.474749	0.000476	4.764431	1.614233	-0.000191
1079	1.0726e+02	-2.9438	-12.603938	0.000324	3.243868	1.099052	-0.000130
1080	1.0736e+02	-2.9823	-12.733126	0.000324	3.243868	1.099052	-0.000130
1081	1.0746e+02	-3.0304	-12.894612	0.000405	4.054835	1.373815	-0.000162
1082	1.0756e+02	-3.0513	-13.048023	0.000385	3.852093	1.305125	-0.000154
1083	1.0766e+02	-3.1058	-13.185285	0.000345	3.446610	1.167743	-0.000138
1084	1.0776e+02	-3.1379	-13.330622	0.000365	3.649352	1.236434	-0.000146
1085	1.0786e+02	-3.1780	-13.508256	0.000446	4.460319	1.511197	-0.000179
1086	1.0796e+02	-3.2213	-13.726262	0.000547	5.474028	1.854651	-0.000219
1087	1.0806e+02	-3.2566	-13.871598	0.000365	3.649352	1.236434	-0.000146
1088	1.0816e+02	-3.3063	-14.000787	0.000324	3.243868	1.099052	-0.000130
1089	1.0826e+02	-3.3448	-14.134012	0.000335	3.345239	1.133398	-0.000134
1090	1.0836e+02	-3.3785	-14.303572	0.000426	4.257577	1.442506	-0.000170
1091	1.0845e+02	-3.4218	-14.493317	0.000476	4.764431	1.614233	-0.000191
1092	1.0855e+02	-3.4603	-14.666914	0.000436	4.358948	1.476852	-0.000174
1093	1.0865e+02	-3.5101	-14.759768	0.000233	2.331530	0.789944	-0.000093
1094	1.0875e+02	-3.5389	-14.909142	0.000375	3.750723	1.270779	-0.000150
1095	1.0885e+02	-3.5823	-15.090813	0.000456	4.561690	1.545542	-0.000183
1096	1.0895e+02	-3.6208	-15.244225	0.000385	3.852093	1.305125	-0.000154
1097	1.0905e+02	-3.6609	-15.292670	0.000122	1.216451	0.412145	-0.000049
1098	1.0915e+02	-3.7042	-15.502601	0.000527	5.271286	1.785960	-0.000211
1099	1.0925e+02	-3.7491	-15.664087	0.000405	4.054835	1.373815	-0.000162
1100	1.0935e+02	-3.7796	-15.817498	0.000385	3.852093	1.305125	-0.000154
1101	1.0945e+02	-3.8213	-15.991095	0.000436	4.358948	1.476852	-0.000174
1102	1.0955e+02	-3.8598	-16.164691	0.000436	4.358948	1.476852	-0.000174
1103	1.0965e+02	-3.8967	-16.305991	0.000355	3.547981	1.202088	-0.000142
1104	1.0975e+02	-3.9432	-16.479588	0.000436	4.358948	1.476852	-0.000174
1105	1.0985e+02	-3.9817	-16.620888	0.000355	3.547981	1.202088	-0.000142
1106	1.0995e+02	-4.0234	-16.766225	0.000365	3.649352	1.236434	-0.000146
1107	1.1005e+02	-4.0555	-16.927710	0.000405	4.054835	1.373815	-0.000162
1108	1.1015e+02	-4.1084	-17.089196	0.000405	4.054835	1.373815	-0.000162
1109	1.1025e+02	-4.1421	-17.246644	0.000395	3.953464	1.339470	-0.000158
1110	1.1035e+02	-4.1774	-17.355647	0.000274	2.737014	0.927325	-0.000110
1111	1.1044e+02	-4.2239	-17.525206	0.000426	4.257577	1.442506	-0.000170
1112	1.1054e+02	-4.2608	-17.706877	0.000456	4.561690	1.545542	-0.000183
1113	1.1064e+02	-4.3042	-17.840103	0.000335	3.345239	1.133398	-0.000134
1114	1.1074e+02	-4.3394	-17.941031	0.000253	2.534272	0.858635	-0.000101
1115	1.1084e+02	-4.3715	-18.094442	0.000385	3.852093	1.305125	-0.000154
1116	1.1094e+02	-4.4261	-18.227668	0.000335	3.345239	1.133398	-0.000134
1117	1.1104e+02	-4.4662	-18.381079	0.000385	3.852093	1.305125	-0.000154
1118	1.1114e+02	-4.4967	-18.554676	0.000436	4.358948	1.476852	-0.000174
1119	1.1124e+02	-4.5304	-18.732310	0.000446	4.460319	1.511197	-0.000179
1120	1.1134e+02	-4.5689	-18.853424	0.000304	3.041126	1.030362	-0.000122
1121	1.1144e+02	-4.6090	-19.043169	0.000476	4.764431	1.614233	-0.000191
1122	1.1154e+02	-4.6507	-19.192543	0.000375	3.750723	1.270779	-0.000150
1123	1.1164e+02	-4.6988	-19.345954	0.000385	3.852093	1.305125	-0.000154
1124	1.1174e+02	-4.7373	-19.503403	0.000395	3.953464	1.339470	-0.000158
1125	1.1184e+02	-4.7758	-19.624517	0.000304	3.041126	1.030362	-0.000122
1126	1.1194e+02	-4.8111	-19.818299	0.000487	4.865802	1.648578	-0.000195
1127	1.1204e+02	-4.8528	-19.955562	0.000345	3.446610	1.167743	-0.000138
1128	1.1214e+02	-4.9009	-20.113010	0.000395	3.953464	1.339470	-0.000158
1129	1.1224e+02	-4.9410	-20.242199	0.000324	3.243868	1.099052	-0.000130
1130	1.1234e+02	-4.9747	-20.399647	0.000395	3.953464	1.339470	-0.000158
1131	1.1244e+02	-5.0212	-20.577281	0.000446	4.460319	1.511197	-0.000179
1132	1.1253e+02	-5.0598	-20.649949	0.000182	1.824676	0.618217	-0.000073
1133	1.1263e+02	-5.0950	-20.819509	0.000426	4.257577	1.442506	-0.000170
1134	1.1273e+02	-5.1351	-20.936586	0.000294	2.939756	0.996016	-0.000118
1135	1.1283e+02	-5.1753	-21.118257	0.000456	4.561690	1.545542	-0.000183
1136	1.1293e+02	-5.2218	-21.235334	0.000294	2.939756	0.996016	-0.000118
1137	1.1303e+02	-5.2523	-21.404894	0.000426	4.257577	1.442506	-0.000170
1138	1.1313e+02	-5.2876	-21.574453	0.000426	4.257577	1.442506	-0.000170
1139	1.1323e+02	-5.3325	-21.780347	0.000517	5.169915	1.751615	-0.000207
1140	1.1333e+02	-5.3806	-21.925684	0.000365	3.649352	1.236434	-0.000146
1141	1.1343e+02	-5.4079	-22.071021	0.000365	3.649352	1.236434	-0.000146
1142	1.1353e+02	-5.4496	-22.196172	0.000314	3.142497	1.064707	-0.000126
1143	1.1363e+02	-5.4945	-22.381881	0.000466	4.663061	1.579888	-0.000187
1144	1.1373e+02	-5.5266	-22.535292	0.000385	3.852093	1.305125	-0.000154
1145	1.1383e+02	-5.5715	-22.656406	0.000304	3.041126	1.030362	-0.000122
1146	1.1393e+02	-5.6132	-22.850188	0.000487	4.865802	1.648578	-0.000195
1147	1.1403e+02	-5.6533	-22.955154	0.000264	2.635643	0.892980	-0.000105
1148	1.1413e+02	-5.6918	-23.116639	0.000405	4.054835	1.373815	-0.000162
1149	1.1423e+02	-5.7335	-23.282162	0.000416	4.156206	1.408161	-0.000166
1150	1.1433e+02	-5.7704	-23.439610	0.000395	3.953464	1.339470	-0.000158
1151	1.1442e+02	-5.8137	-23.588984	0.000375	3.750723	1.270779	-0.000150
1152	1.1452e+02	-5.8458	-23.722210	0.000335	3.345239	1.133398	-0.000134
1153	1.1462e+02	-5.9004	-23.839287	0.000294	2.939756	0.996016	-0.000118
1154	1.1472e+02	-5.9325	-23.984623	0.000365	3.649352	1.236434	-0.000146
1155	1.1482e+02	-5.9613	-24.129960	0.000365	3.649352	1.236434	-0.000146
1156	1.1492e+02	-6.0159	-24.339891	0.000527	5.271286	1.785960	-0.000211
1157	1.1502e+02	-6.0480	-24.513488	0.000436	4.358948	1.476852	-0.000174
1158	1.1512e+02	-6.0993	-24.658825	0.000365	3.649352	1.236434	-0.000146
1159	1.1522e+02	-6.1282	-24.824348	0.000416	4.156206	1.408161	-0.000166
1160	1.1532e+02	-6.1586	-24.949499	0.000314	3.142497	1.064707	-0.000126
1161	1.1542e+02	-6.2084	-25.082724	0.000335	3.345239	1.133398	-0.000134
1162	1.1552e+02	-6.2485	-25.276507	0.000487	4.865802	1.648578	-0.000195
1163	1.1562e+02	-6.2934	-25.389547	0.000284	2.838385	0.961671	-0.000114
1164	1.1572e+02	-6.3335	-25.575255	0.000466	4.663061	1.579888	-0.000187
1165	1.1582e+02	-6.3768	-25.708480	0.000335	3.345239	1.133398	-0.000134
1166	1.1592e+02	-6.4121	-25.882077	0.000436	4.358948	1.476852	-0.000174
1167	1.1602e+02	-6.4458	-25.995117	0.000284	2.838385	0.961671	-0.000114
1168	1.1612e+02	-6.4875	-26.152565	0.000395	3.953464	1.339470	-0.000158
1169	1.1622e+02	-6.5260	-26.241382	0.000223	2.230159	0.755598	-0.000089
1170	1.1632e+02	-6.5790	-26.455350	0.000537	5.372657	1.820305	-0.000215
1171	1.1642e+02	-6.5950	-26.548205	0.000233	2.331530	0.789944	-0.000093
1172	1.1651e+02	-6.6479	-26.681430	0.000335	3.345239	1.133398	-0.000134
1173	1.1661e+02	-6.6897	-26.842916	0.000405	4.054835	1.373815	-0.000162
1174	1.1671e+02	-6.7217	-27.008438	0.000416	4.156206	1.408161	-0.000166
1175	1.1681e+02	-6.7715	-27.173961	0.000416	4.156206	1.408161	-0.000166
1176	1.1691e+02	-6.8100	-27.327372	0.000385	3.852093	1.305125	-0.000154
1177	1.1701e+02	-6.8485	-27.468672	0.000355	3.547981	1.202088	-0.000142
1178	1.1711e+02	-6.8854	-27.618046	0.000375	3.750723	1.270779	-0.000150
1179	1.1721e+02	-6.9191	-27.763382	0.000365	3.649352	1.236434	-0.000146
1180	1.1731e+02	-6.9640	-27.936979	0.000436	4.358948	1.476852	-0.000174
1181	1.1741e+02	-7.0009	-28.090390	0.000385	3.852093	1.305125	-0.000154
1182	1.1751e+02	-7.0426	-28.255913	0.000416	4.156206	1.408161	-0.000166
1183	1.1761e+02	-7.0907	-28.385101	0.000324	3.243868	1.099052	-0.000130
1184	1.1771e+02	-7.1292	-28.506215	0.000304	3.041126	1.030362	-0.000122
1185	1.1781e+02	-7.1597	-28.643478	0.000345	3.446610	1.167743	-0.000138
1186	1.1791e+02	-7.2078	-28.788815	0.000365	3.649352	1.236434	-0.000146
1187	1.1801e+02	-7.2415	-28.905892	0.000294	2.939756	0.996016	-0.000118
1188	1.1811e+02	-7.2912	-29.031043	0.000314	3.142497	1.064707	-0.000126
1189	1.1821e+02	-7.3362	-29.184454	0.000385	3.852093	1.305125	-0.000154
1190	1.1831e+02	-7.3698	-29.349977	0.000416	4.156206	1.408161	-0.000166
1191	1.1841e+02	-7.4019	-29.491277	0.000355	3.547981	1.202088	-0.000142
1192	1.1850e+02	-7.4404	-29.652762	0.000405	4.054835	1.373815	-0.000162
1193	1.1860e+02	-7.4854	-29.798099	0.000365	3.649352	1.236434	-0.000146
1194	1.1870e+02	-7.5222	-29.943436	0.000365	3.649352	1.236434	-0.000146
1195	1.1880e+02	-7.5559	-30.084736	0.000355	3.547981	1.202088	-0.000142
1196	1.1890e+02	-7.6089	-30.270444	0.000466	4.663061	1.579888	-0.000187
1197	1.1900e+02	-7.6426	-30.383484	0.000284	2.838385	0.961671	-0.000114
1198	1.1910e+02	-7.6843	-30.553043	0.000426	4.257577	1.442506	-0.000170
1199	1.1920e+02	-7.7212	-30.686269	0.000335	3.345239	1.133398	-0.000134
1200	1.1930e+02	-7.7597	-30.863903	0.000446	4.460319	1.511197	-0.000179
1201	1.1940e+02	-7.8030	-31.001165	0.000345	3.446610	1.167743	-0.000138
1202	1.1950e+02	-7.8495	-31.130354	0.000324	3.243868	1.099052	-0.000130
1203	1.1960e+02	-7.8704	-31.271653	0.000355	3.547981	1.202088	-0.000142
1204	1.1970e+02	-7.9233	-31.416990	0.000365	3.649352	1.236434	-0.000146
1205	1.1980e+02	-7.9650	-31.517919	0.000253	2.534272	0.858635	-0.000101
1206	1.1990e+02	-7.9939	-31.671330	0.000385	3.852093	1.305125	-0.000154
1207	1.2000e+02	-8.0484	-31.784370	0.000284	2.838385	0.961671	-0.000114
1208	1.2010e+02	-8.0821	-31.949892	0.000416	4.156206	1.408161	-0.000166
1209	1.2020e+02	-8.1254	-32.083118	0.000335	3.345239	1.133398	-0.000134
1210	1.2030e+02	-8.1623	-32.284974	0.000507	5.068544	1.717269	-0.000203
1211	1.2039e+02	-8.1944	-32.418200	0.000335	3.345239	1.133398	-0.000134
1212	1.2049e+02	-8.2297	-32.583723	0.000416	4.156206	1.408161	-0.000166
1213	1.2059e+02	-8.2875	-32.716948	0.000335	3.345239	1.133398	-0.000134
1214	1.2069e+02	-8.3308	-32.870359	0.000385	3.852093	1.305125	-0.000154
1215	1.2079e+02	-8.3661	-33.019733	0.000375	3.750723	1.270779	-0.000150
1216	1.2089e+02	-8.4078	-33.140847	0.000304	3.041126	1.030362	-0.000122
1217	1.2099e+02	-8.4383	-33.278110	0.000345	3.446610	1.167743	-0.000138
1218	1.2109e+02	-8.4912	-33.451707	0.000436	4.358948	1.476852	-0.000174
1219	1.2119e+02	-8.5169	-33.588969	0.000345	3.446610	1.167743	-0.000138
1220	1.2129e+02	-8.5586	-33.669712	0.000203	2.027418	0.686908	-0.000081
1221	1.2139e+02	-8.6003	-33.835235	0.000416	4.156206	1.408161	-0.000166
1222	1.2149e+02	-8.6404	-33.980572	0.000365	3.649352	1.236434	-0.000146
1223	1.2159e+02	-8.6869	-34.109760	0.000324	3.243868	1.099052	-0.000130
1224	1.2169e+02	-8.7174	-34.214725	0.000264	2.635643	0.892980	-0.000105
1225	1.2179e+02	-8.7591	-34.319691	0.000264	2.635643	0.892980	-0.000105
1226	1.2189e+02	-8.8040	-34.493288	0.000436	4.358948	1.476852	-0.000174
1227	1.2199e+02	-8.8393	-34.610365	0.000294	2.939756	0.996016	-0.000118
1228	1.2209e+02	-8.8762	-34.779924	0.000426	4.257577	1.442506	-0.000170
1229	1.2219e+02	-8.9195	-34.961595	0.000456	4.561690	1.545542	-0.000183
1230	1.2229e+02	-8.9645	-35.090784	0.000324	3.243868	1.099052	-0.000130
1231	1.2239e+02	-9.0030	-35.211898	0.000304	3.041126	1.030362	-0.000122
1232	1.2248e+02	-9.0399	-35.361272	0.000375	3.750723	1.270779	-0.000150
1233	1.2258e+02	-9.0816	-35.494497	0.000335	3.345239	1.133398	-0.000134
1234	1.2268e+02	-9.1185	-35.623686	0.000324	3.243868	1.099052	-0.000130
1235	1.2278e+02	-9.1618	-35.777097	0.000385	3.852093	1.305125	-0.000154
1236	1.2288e+02	-9.2035	-35.938582	0.000405	4.054835	1.373815	-0.000162
1237	1.2298e+02	-9.2340	-36.063734	0.000314	3.142497	1.064707	-0.000126
1238	1.2308e+02	-9.2901	-36.209070	0.000365	3.649352	1.236434	-0.000146
1239	1.2318e+02	-9.3174	-36.305962	0.000243	2.432901	0.824289	-0.000097
1240	1.2328e+02	-9.3495	-36.439187	0.000335	3.345239	1.133398	-0.000134
1241	1.2338e+02	-9.3976	-36.572413	0.000335	3.345239	1.133398	-0.000134
1242	1.2348e+02	-9.4409	-36.685452	0.000284	2.838385	0.961671	-0.000114
1243	1.2358e+02	-9.4746	-36.790418	0.000264	2.635643	0.892980	-0.000105
1244	1.2368e+02	-9.5195	-36.923643	0.000335	3.345239	1.133398	-0.000134
1245	1.2378e+02	-9.5564	-37.089166	0.000416	4.156206	1.408161	-0.000166
1246	1.2388e+02	-9.6013	-37.202206	0.000284	2.838385	0.961671	-0.000114
1247	1.2398e+02	-9.6318	-37.343506	0.000355	3.547981	1.202088	-0.000142
1248	1.2408e+02	-9.6703	-37.488842	0.000365	3.649352	1.236434	-0.000146
1249	1.2418e+02	-9.7168	-37.658402	0.000426	4.257577	1.442506	-0.000170
1250	1.2428e+02	-9.7602	-37.811813	0.000385	3.852093	1.305125	-0.000154
1251	1.2438e+02	-9.7938	-37.908705	0.000243	2.432901	0.824289	-0.000097
1252	1.2447e+02	-9.8323	-38.078264	0.000426	4.257577	1.442506	-0.000170
1253	1.2457e+02	-9.8676	-38.235713	0.000395	3.953464	1.339470	-0.000158
1254	1.2467e+02	-9.9174	-38.352790	0.000294	2.939756	0.996016	-0.000118
1255	1.2477e+02	-9.9478	-38.477941	0.000314	3.142497	1.064707	-0.000126
1256	1.2487e+02	-9.9928	-38.603092	0.000314	3.142497	1.064707	-0.000126
1257	1.2497e+02	-10.0377	-38.744392	0.000355	3.547981	1.202088	-0.000142
1258	1.2507e+02	-10.0762	-38.897803	0.000385	3.852093	1.305125	-0.000154
1259	1.2517e+02	-10.1163	-39.026991	0.000324	3.243868	1.099052	-0.000130
1260	1.2527e+02	-10.1596	-39.115808	0.000223	2.230159	0.755598	-0.000089
1261	1.2537e+02	-10.1917	-39.244997	0.000324	3.243868	1.099052	-0.000130
1262	1.2547e+02	-10.2366	-39.366111	0.000304	3.041126	1.030362	-0.000122
1263	1.2557e+02	-10.2735	-39.507410	0.000355	3.547981	1.202088	-0.000142
1264	1.2567e+02	-10.3168	-39.636599	0.000324	3.243868	1.099052	-0.000130
1265	1.2577e+02	-10.3553	-39.757713	0.000304	3.041126	1.030362	-0.000122
1266	1.2587e+02	-10.3874	-39.959570	0.000507	5.068544	1.717269	-0.000203
1267	1.2597e+02	-10.4291	-40.088758	0.000324	3.243868	1.099052	-0.000130
1268	1.2607e+02	-10.4676	-40.238132	0.000375	3.750723	1.270779	-0.000150
1269	1.2617e+02	-10.5174	-40.391543	0.000385	3.852093	1.305125	-0.000154
1270	1.2627e+02	-10.5446	-40.456137	0.000162	1.621934	0.549526	-0.000065
1271	1.2636e+02	-10.5944	-40.625697	0.000426	4.257577	1.442506	-0.000170
1272	1.2646e+02	-10.6264	-40.775071	0.000375	3.750723	1.270779	-0.000150
1273	1.2656e+02	-10.6794	-40.900222	0.000314	3.142497	1.064707	-0.000126
1274	1.2666e+02	-10.7179	-41.013262	0.000284	2.838385	0.961671	-0.000114
1275	1.2676e+02	-10.7500	-41.166673	0.000385	3.852093	1.305125	-0.000154
1276	1.2686e+02	-10.7901	-41.299899	0.000335	3.345239	1.133398	-0.000134
1277	1.2696e+02	-10.8350	-41.404864	0.000264	2.635643	0.892980	-0.000105
1278	1.2706e+02	-10.8703	-41.521941	0.000294	2.939756	0.996016	-0.000118
1279	1.2716e+02	-10.9056	-41.610758	0.000223	2.230159	0.755598	-0.000089
1280	1.2726e+02	-10.9473	-41.727835	0.000294	2.939756	0.996016	-0.000118
1281	1.2736e+02	-10.9938	-41.905469	0.000446	4.460319	1.511197	-0.000179
1282	1.2746e+02	-11.0323	-42.030620	0.000314	3.142497	1.064707	-0.000126
1283	1.2756e+02	-11.0612	-42.188068	0.000395	3.953464	1.339470	-0.000158
1284	1.2766e+02	-11.1093	-42.337442	0.000375	3.750723	1.270779	-0.000150
1285	1.2776e+02	-11.1606	-42.454519	0.000294	2.939756	0.996016	-0.000118
1286	1.2786e+02	-11.1799	-42.579671	0.000314	3.142497	1.064707	-0.000126
1287	1.2796e+02	-11.2232	-42.729045	0.000375	3.750723	1.270779	-0.000150
1288	1.2806e+02	-11.2617	-42.850159	0.000304	3.041126	1.030362	-0.000122
1289	1.2816e+02	-11.3130	-42.963199	0.000284	2.838385	0.961671	-0.000114
1290	1.2826e+02	-11.3483	-43.112573	0.000375	3.750723	1.270779	-0.000150
1291	1.2835e+02	-11.3933	-43.257909	0.000365	3.649352	1.236434	-0.000146
1292	1.2845e+02	-11.4366	-43.354801	0.000243	2.432901	0.824289	-0.000097
1293	1.2855e+02	-11.4687	-43.512249	0.000395	3.953464	1.339470	-0.000158
1294	1.2865e+02	-11.5072	-43.689883	0.000446	4.460319	1.511197	-0.000179
1295	1.2875e+02	-11.5553	-43.778700	0.000223	2.230159	0.755598	-0.000089
1296	1.2885e+02	-11.5874	-43.911925	0.000335	3.345239	1.133398	-0.000134
1297	1.2895e+02	-11.6307	-43.980557	0.000172	1.723305	0.583872	-0.000069
1298	1.2905e+02	-11.6708	-44.097634	0.000294	2.939756	0.996016	-0.000118
1299	1.2915e+02	-11.7141	-44.275268	0.000446	4.460319	1.511197	-0.000179
1300	1.2925e+02	-11.7494	-44.416567	0.000355	3.547981	1.202088	-0.000142
1301	1.2935e+02	-11.7831	-44.578053	0.000405	4.054835	1.373815	-0.000162
1302	1.2945e+02	-11.8296	-44.695130	0.000294	2.939756	0.996016	-0.000118
1303	1.2955e+02	-11.8665	-44.808170	0.000284	2.838385	0.961671	-0.000114
1304	1.2965e+02	-11.9018	-44.977729	0.000426	4.257577	1.442506	-0.000170
1305	1.2975e+02	-11.9387	-45.086732	0.000274	2.737014	0.927325	-0.000110
1306	1.2985e+02	-11.9852	-45.228032	0.000355	3.547981	1.202088	-0.000142
1307	1.2995e+02	-12.0269	-45.393554	0.000416	4.156206	1.408161	-0.000166
1308	1.3005e+02	-12.0574	-45.506594	0.000284	2.838385	0.961671	-0.000114
1309	1.3015e+02	-12.1039	-45.603485	0.000243	2.432901	0.824289	-0.000097
1310	1.3025e+02	-12.1505	-45.773045	0.000426	4.257577	1.442506	-0.000170
1311	1.3034e+02	-12.1890	-45.841676	0.000172	1.723305	0.583872	-0.000069
1312	1.3044e+02	-12.2291	-45.995087	0.000385	3.852093	1.305125	-0.000154
1313	1.3054e+02	-12.2708	-46.152536	0.000395	3.953464	1.339470	-0.000158
1314	1.3064e+02	-12.3109	-46.293836	0.000355	3.547981	1.202088	-0.000142
1315	1.3074e+02	-12.3430	-46.366504	0.000182	1.824676	0.618217	-0.000073
1316	1.3084e+02	-12.3927	-46.499729	0.000335	3.345239	1.133398	-0.000134
1317	1.3094e+02	-12.4280	-46.661215	0.000405	4.054835	1.373815	-0.000162
1318	1.3104e+02	-12.4601	-46.770218	0.000274	2.737014	0.927325	-0.000110
1319	1.3114e+02	-12.5066	-46.935740	0.000416	4.156206	1.408161	-0.000166
1320	1.3124e+02	-12.5387	-47.044743	0.000274	2.737014	0.927325	-0.000110
1321	1.3134e+02	-12.5948	-47.210265	0.000416	4.156206	1.408161	-0.000166
1322	1.3144e+02	-12.6173	-47.339454	0.000324	3.243868	1.099052	-0.000130
1323	1.3154e+02	-12.6622	-47.472679	0.000335	3.345239	1.133398	-0.000134
1324	1.3164e+02	-12.7087	-47.597830	0.000314	3.142497	1.064707	-0.000126
1325	1.3174e+02	-12.7472	-47.710870	0.000284	2.838385	0.961671	-0.000114
1326	1.3184e+02	-12.7873	-47.896578	0.000466	4.663061	1.579888	-0.000187
1327	1.3194e+02	-12.8178	-48.009618	0.000284	2.838385	0.961671	-0.000114
1328	1.3204e+02	-12.8579	-48.122658	0.000284	2.838385	0.961671	-0.000114
1329	1.3214e+02	-12.9028	-48.272032	0.000375	3.750723	1.270779	-0.000150
1330	1.3224e+02	-12.9510	-48.409295	0.000345	3.446610	1.167743	-0.000138
1331	1.3234e+02	-12.9831	-48.514260	0.000264	2.635643	0.892980	-0.000105
1332	1.3243e+02	-13.0200	-48.611151	0.000243	2.432901	0.824289	-0.000097
1333	1.3253e+02	-13.0633	-48.748414	0.000345	3.446610	1.167743	-0.000138
1334	1.3263e+02	-13.1050	-48.877602	0.000324	3.243868	1.099052	-0.000130
1335	1.3273e+02	-13.1483	-49.018902	0.000355	3.547981	1.202088	-0.000142
1336	1.3283e+02	-13.1724	-49.148090	0.000324	3.243868	1.099052	-0.000130
1337	1.3293e+02	-13.2141	-49.317650	0.000426	4.257577	1.442506	-0.000170
1338	1.3303e+02	-13.2638	-49.438764	0.000304	3.041126	1.030362	-0.000122
1339	1.3313e+02	-13.3055	-49.576027	0.000345	3.446610	1.167743	-0.000138
1340	1.3323e+02	-13.3264	-49.680992	0.000264	2.635643	0.892980	-0.000105
1341	1.3333e+02	-13.3777	-49.818255	0.000345	3.446610	1.167743	-0.000138
1342	1.3343e+02	-13.4226	-49.951480	0.000335	3.345239	1.133398	-0.000134
1343	1.3353e+02	-13.4611	-50.072595	0.000304	3.041126	1.030362	-0.000122
1344	1.3363e+02	-13.4980	-50.193709	0.000304	3.041126	1.030362	-0.000122
1345	1.3373e+02	-13.5461	-50.367305	0.000436	4.358948	1.476852	-0.000174
1346	1.3383e+02	-13.5830	-50.464197	0.000243	2.432901	0.824289	-0.000097
1347	1.3393e+02	-13.6167	-50.593385	0.000324	3.243868	1.099052	-0.000130
1348	1.3403e+02	-13.6633	-50.722573	0.000324	3.243868	1.099052	-0.000130
1349	1.3413e+02	-13.7066	-50.831576	0.000274	2.737014	0.927325	-0.000110
1350	1.3423e+02	-13.7386	-50.972876	0.000355	3.547981	1.202088	-0.000142
1351	1.3432e+02	-13.7820	-51.069767	0.000243	2.432901	0.824289	-0.000097
1352	1.3442e+02	-13.8237	-51.182807	0.000284	2.838385	0.961671	-0.000114
1353	1.3452e+02	-13.8542	-51.295847	0.000284	2.838385	0.961671	-0.000114
1354	1.3462e+02	-13.8943	-51.493666	0.000497	4.967173	1.682924	-0.000199
1355	1.3472e+02	-13.9424	-51.647077	0.000385	3.852093	1.305125	-0.000154
1356	1.3482e+02	-13.9809	-51.752043	0.000264	2.635643	0.892980	-0.000105
1357	1.3492e+02	-14.0146	-51.852971	0.000253	2.534272	0.858635	-0.000101
1358	1.3502e+02	-14.0531	-51.994271	0.000355	3.547981	1.202088	-0.000142
1359	1.3512e+02	-14.0996	-52.147682	0.000385	3.852093	1.305125	-0.000154
1360	1.3522e+02	-14.1413	-52.297056	0.000375	3.750723	1.270779	-0.000150
1361	1.3532e+02	-14.1798	-52.418170	0.000304	3.041126	1.030362	-0.000122
1362	1.3542e+02	-14.2183	-52.498913	0.000203	2.027418	0.686908	-0.000081
1363	1.3552e+02	-14.2520	-52.668473	0.000426	4.257577	1.442506	-0.000170
1364	1.3562e+02	-14.3017	-52.773438	0.000264	2.635643	0.892980	-0.000105
1365	1.3572e+02	-14.3274	-52.866292	0.000233	2.331530	0.789944	-0.000093
1366	1.3582e+02	-14.3675	-53.007592	0.000355	3.547981	1.202088	-0.000142
1367	1.3592e+02	-14.4140	-53.096409	0.000223	2.230159	0.755598	-0.000089
1368	1.3602e+02	-14.4606	-53.217523	0.000304	3.041126	1.030362	-0.000122
1369	1.3612e+02	-14.4878	-53.391120	0.000436	4.358948	1.476852	-0.000174
1370	1.3622e+02	-14.5408	-53.488011	0.000243	2.432901	0.824289	-0.000097
1371	1.3631e+02	-14.5745	-53.689868	0.000507	5.068544	1.717269	-0.000203
1372	1.3641e+02	-14.6114	-53.798871	0.000274	2.737014	0.927325	-0.000110
1373	1.3651e+02	-14.6579	-53.907874	0.000274	2.737014	0.927325	-0.000110
1374	1.3661e+02	-14.6916	-54.041099	0.000335	3.345239	1.133398	-0.000134
1375	1.3671e+02	-14.7333	-54.113767	0.000182	1.824676	0.618217	-0.000073
1376	1.3681e+02	-14.7718	-54.287364	0.000436	4.358948	1.476852	-0.000174
1377	1.3691e+02	-14.8087	-54.444813	0.000395	3.953464	1.339470	-0.000158
1378	1.3701e+02	-14.8584	-54.529592	0.000213	2.128789	0.721253	-0.000085
1379	1.3711e+02	-14.8905	-54.683004	0.000385	3.852093	1.305125	-0.000154
1380	1.3721e+02	-14.9274	-54.775858	0.000233	2.331530	0.789944	-0.000093
1381	1.3731e+02	-14.9675	-54.929269	0.000385	3.852093	1.305125	-0.000154
1382	1.3741e+02	-15.0028	-55.014049	0.000213	2.128789	0.721253	-0.000085
1383	1.3751e+02	-15.0605	-55.159386	0.000365	3.649352	1.236434	-0.000146
1384	1.3761e+02	-15.0942	-55.256277	0.000243	2.432901	0.824289	-0.000097
1385	1.3771e+02	-15.1311	-55.361242	0.000264	2.635643	0.892980	-0.000105
1386	1.3781e+02	-15.1744	-55.498505	0.000345	3.446610	1.167743	-0.000138
1387	1.3791e+02	-15.2161	-55.651916	0.000385	3.852093	1.305125	-0.000154
1388	1.3801e+02	-15.2530	-55.773030	0.000304	3.041126	1.030362	-0.000122
1389	1.3811e+02	-15.2932	-55.894144	0.000304	3.041126	1.030362	-0.000122
1390	1.3821e+02	-15.3268	-56.031407	0.000345	3.446610	1.167743	-0.000138
1391	1.3831e+02	-15.3653	-56.160595	0.000324	3.243868	1.099052	-0.000130
1392	1.3840e+02	-15.4135	-56.257487	0.000243	2.432901	0.824289	-0.000097
1393	1.3850e+02	-15.4600	-56.398786	0.000355	3.547981	1.202088	-0.000142
1394	1.3860e+02	-15.4857	-56.495678	0.000243	2.432901	0.824289	-0.000097
1395	1.3870e+02	-15.5370	-56.649089	0.000385	3.852093	1.305125	-0.000154
1396	1.3880e+02	-15.5675	-56.750017	0.000253	2.534272	0.858635	-0.000101
1397	1.3890e+02	-15.6124	-56.859020	0.000274	2.737014	0.927325	-0.000110
1398	1.3900e+02	-15.6525	-57.044728	0.000466	4.663061	1.579888	-0.000187
1399	1.3910e+02	-15.6974	-57.113359	0.000172	1.723305	0.583872	-0.000069
1400	1.3920e+02	-15.7311	-57.250622	0.000345	3.446610	1.167743	-0.000138
1401	1.3930e+02	-15.7728	-57.319253	0.000172	1.723305	0.583872	-0.000069
1402	1.3940e+02	-15.8081	-57.452479	0.000335	3.345239	1.133398	-0.000134
1403	1.3950e+02	-15.8482	-57.545333	0.000233	2.331530	0.789944	-0.000093
1404	1.3960e+02	-15.8835	-57.682595	0.000345	3.446610	1.167743	-0.000138
1405	1.3970e+02	-15.9300	-57.791598	0.000274	2.737014	0.927325	-0.000110
1406	1.3980e+02	-15.9621	-57.908675	0.000294	2.939756	0.996016	-0.000118
1407	1.3990e+02	-16.0022	-58.082272	0.000436	4.358948	1.476852	-0.000174
1408	1.4000e+02	-16.0391	-58.187237	0.000264	2.635643	0.892980	-0.000105
1409	1.4010e+02	-16.0840	-58.312389	0.000314	3.142497	1.064707	-0.000126
1410	1.4020e+02	-16.1257	-58.437540	0.000314	3.142497	1.064707	-0.000126
1411	1.4029e+02	-16.1659	-58.518283	0.000203	2.027418	0.686908	-0.000081
1412	1.4039e+02	-16.2124	-58.663619	0.000365	3.649352	1.236434	-0.000146
1413	1.4049e+02	-16.2445	-58.784733	0.000304	3.041126	1.030362	-0.000122
1414	1.4059e+02	-16.2878	-58.917959	0.000335	3.345239	1.133398	-0.000134
1415	1.4069e+02	-16.3311	-58.978516	0.000152	1.520563	0.515181	-0.000061
1416	1.4079e+02	-16.3728	-59.148076	0.000426	4.257577	1.442506	-0.000170
1417	1.4089e+02	-16.4017	-59.253041	0.000264	2.635643	0.892980	-0.000105
1418	1.4099e+02	-16.4514	-59.329747	0.000193	1.926047	0.652562	-0.000077
1419	1.4109e+02	-16.4947	-59.438749	0.000274	2.737014	0.927325	-0.000110
1420	1.4119e+02	-16.5316	-59.580049	0.000355	3.547981	1.202088	-0.000142
1421	1.4129e+02	-16.5733	-59.668866	0.000223	2.230159	0.755598	-0.000089
1422	1.4139e+02	-16.6054	-59.838426	0.000426	4.257577	1.442506	-0.000170
1423	1.4149e+02	-16.6407	-59.923206	0.000213	2.128789	0.721253	-0.000085
1424	1.4159e+02	-16.6792	-60.076617	0.000385	3.852093	1.305125	-0.000154
1425	1.4169e+02	-16.7241	-60.217917	0.000355	3.547981	1.202088	-0.000142
1426	1.4179e+02	-16.7626	-60.363254	0.000365	3.649352	1.236434	-0.000146
1427	1.4189e+02	-16.8011	-60.464182	0.000253	2.534272	0.858635	-0.000101
1428	1.4199e+02	-16.8477	-60.561073	0.000243	2.432901	0.824289	-0.000097
1429	1.4209e+02	-16.8829	-60.722559	0.000405	4.054835	1.373815	-0.000162
1430	1.4219e+02	-16.9295	-60.835598	0.000284	2.838385	0.961671	-0.000114
1431	1.4228e+02	-16.9599	-60.944601	0.000274	2.737014	0.927325	-0.000110
1432	1.4238e+02	-17.0113	-61.021307	0.000193	1.926047	0.652562	-0.000077
1433	1.4248e+02	-17.0498	-61.182792	0.000405	4.054835	1.373815	-0.000162
1434	1.4258e+02	-17.0819	-61.320055	0.000345	3.446610	1.167743	-0.000138
1435	1.4268e+02	-17.1252	-61.420983	0.000253	2.534272	0.858635	-0.000101
1436	1.4278e+02	-17.1701	-61.534023	0.000284	2.838385	0.961671	-0.000114
1437	1.4288e+02	-17.2070	-61.630914	0.000243	2.432901	0.824289	-0.000097
1438	1.4298e+02	-17.2535	-61.735880	0.000264	2.635643	0.892980	-0.000105
1439	1.4308e+02	-17.2856	-61.840845	0.000264	2.635643	0.892980	-0.000105
1440	1.4318e+02	-17.3209	-62.018479	0.000446	4.460319	1.511197	-0.000179
1441	1.4328e+02	-17.3594	-62.139593	0.000304	3.041126	1.030362	-0.000122
1442	1.4338e+02	-17.4027	-62.224373	0.000213	2.128789	0.721253	-0.000085
1443	1.4348e+02	-17.4412	-62.402007	0.000446	4.460319	1.511197	-0.000179
1444	1.4358e+02	-17.4781	-62.462564	0.000152	1.520563	0.515181	-0.000061
1445	1.4368e+02	-17.5198	-62.583678	0.000304	3.041126	1.030362	-0.000122
1446	1.4378e+02	-17.5599	-62.753238	0.000426	4.257577	1.442506	-0.000170
1447	1.4388e+02	-17.6049	-62.874352	0.000304	3.041126	1.030362	-0.000122
1448	1.4398e+02	-17.6514	-62.959132	0.000213	2.128789	0.721253	-0.000085
1449	1.4408e+02	-17.6819	-63.096394	0.000345	3.446610	1.167743	-0.000138
1450	1.4418e+02	-17.7252	-63.225583	0.000324	3.243868	1.099052	-0.000130
1451	1.4428e+02	-17.7589	-63.318437	0.000233	2.331530	0.789944	-0.000093
1452	1.4437e+02	-17.7990	-63.447625	0.000324	3.243868	1.099052	-0.000130
1453	1.4447e+02	-17.8439	-63.564702	0.000294	2.939756	0.996016	-0.000118
1454	1.4457e+02	-17.8760	-63.641408	0.000193	1.926047	0.652562	-0.000077
1455	1.4467e+02	-17.9337	-63.782708	0.000355	3.547981	1.202088	-0.000142
1456	1.4477e+02	-17.9658	-63.887673	0.000264	2.635643	0.892980	-0.000105
1457	1.4487e+02	-17.9979	-64.016861	0.000324	3.243868	1.099052	-0.000130
1458	1.4497e+02	-18.0412	-64.129901	0.000284	2.838385	0.961671	-0.000114
1459	1.4507e+02	-18.0829	-64.307535	0.000446	4.460319	1.511197	-0.000179
1460	1.4517e+02	-18.1182	-64.404426	0.000243	2.432901	0.824289	-0.000097
1461	1.4527e+02	-18.1567	-64.533615	0.000324	3.243868	1.099052	-0.000130
1462	1.4537e+02	-18.1968	-64.614357	0.000203	2.027418	0.686908	-0.000081
1463	1.4547e+02	-18.2353	-64.763732	0.000375	3.750723	1.270779	-0.000150
1464	1.4557e+02	-18.2770	-64.888883	0.000314	3.142497	1.064707	-0.000126
1465	1.4567e+02	-18.3235	-64.989811	0.000253	2.534272	0.858635	-0.000101
1466	1.4577e+02	-18.3620	-65.159371	0.000426	4.257577	1.442506	-0.000170
1467	1.4587e+02	-18.4022	-65.284522	0.000314	3.142497	1.064707	-0.000126
1468	1.4597e+02	-18.4374	-65.425822	0.000355	3.547981	1.202088	-0.000142
1469	1.4607e+02	-18.4824	-65.526750	0.000253	2.534272	0.858635	-0.000101
1470	1.4617e+02	-18.5209	-65.619604	0.000233	2.331530	0.789944	-0.000093
1471	1.4626e+02	-18.5658	-65.740718	0.000304	3.041126	1.030362	-0.000122
1472	1.4636e+02	-18.5963	-65.890092	0.000375	3.750723	1.270779	-0.000150
1473	1.4646e+02	-18.6332	-66.027355	0.000345	3.446610	1.167743	-0.000138
1474	1.4656e+02	-18.6717	-66.136358	0.000274	2.737014	0.927325	-0.000110
1475	1.4666e+02	-18.7230	-66.249397	0.000284	2.838385	0.961671	-0.000114
1476	1.4676e+02	-18.7551	-66.386660	0.000345	3.446610	1.167743	-0.000138
1477	1.4686e+02	-18.7984	-66.556220	0.000426	4.257577	1.442506	-0.000170
1478	1.4696e+02	-18.8305	-66.604665	0.000122	1.216451	0.412145	-0.000049
1479	1.4706e+02	-18.8706	-66.741928	0.000345	3.446610	1.167743	-0.000138
1480	1.4716e+02	-18.9251	-66.907451	0.000416	4.156206	1.408161	-0.000166
1481	1.4726e+02	-18.9572	-67.012416	0.000264	2.635643	0.892980	-0.000105
1482	1.4736e+02	-18.9941	-67.125456	0.000284	2.838385	0.961671	-0.000114
1483	1.4746e+02	-19.0326	-67.286941	0.000405	4.054835	1.373815	-0.000162
1484	1.4756e+02	-19.0759	-67.416130	0.000324	3.243868	1.099052	-0.000130
1485	1.4766e+02	-19.1160	-67.553392	0.000345	3.446610	1.167743	-0.000138
1486	1.4776e+02	-19.1545	-67.674506	0.000304	3.041126	1.030362	-0.000122
1487	1.4786e+02	-19.2059	-67.787546	0.000284	2.838385	0.961671	-0.000114
1488	1.4796e+02	-19.2380	-67.973254	0.000466	4.663061	1.579888	-0.000187
1489	1.4806e+02	-19.2813	-68.074183	0.000253	2.534272	0.858635	-0.000101
1490	1.4816e+02	-19.3182	-68.195297	0.000304	3.041126	1.030362	-0.000122
1491	1.4825e+02	-19.3551	-68.308337	0.000284	2.838385	0.961671	-0.000114
1492	1.4835e+02	-19.3936	-68.441562	0.000335	3.345239	1.133398	-0.000134
1493	1.4845e+02	-19.4433	-68.574788	0.000335	3.345239	1.133398	-0.000134
1494	1.4855e+02	-19.4658	-68.703976	0.000324	3.243868	1.099052	-0.000130
1495	1.4865e+02	-19.5107	-68.837201	0.000335	3.345239	1.133398	-0.000134
1496	1.4875e+02	-19.5588	-68.962353	0.000314	3.142497	1.064707	-0.000126
1497	1.4885e+02	-19.5989	-69.099615	0.000345	3.446610	1.167743	-0.000138
1498	1.4895e+02	-19.6342	-69.253026	0.000385	3.852093	1.305125	-0.000154
1499	1.4905e+02	-19.6743	-69.374141	0.000304	3.041126	1.030362	-0.000122
1500	1.4915e+02	-19.7096	-69.527552	0.000385	3.852093	1.305125	-0.000154
1501	1.4925e+02	-19.7609	-69.652703	0.000314	3.142497	1.064707	-0.000126
1502	1.4935e+02	-19.7930	-69.753631	0.000253	2.534272	0.858635	-0.000101
1503	1.4945e+02	-19.8428	-69.898968	0.000365	3.649352	1.236434	-0.000146
1504	1.4955e+02	-19.8797	-70.064491	0.000416	4.156206	1.408161	-0.000166
1505	1.4965e+02	-19.9069	-70.177531	0.000284	2.838385	0.961671	-0.000114
1506	1.4975e+02	-19.9470	-70.306719	0.000324	3.243868	1.099052	-0.000130
1507	1.4985e+02	-19.9968	-70.484353	0.000446	4.460319	1.511197	-0.000179
1508	1.4995e+02	-19.9534	-70.443981	0.000101	1.013709	0.343454	0.000041
1509	1.5005e+02	-19.9117	-70.334979	0.000274	2.737014	0.927325	0.000110
1510	1.5015e+02	-19.8620	-70.286533	0.000122	1.216451	0.412145	0.000049
1511	1.5025e+02	-19.8299	-70.246162	0.000101	1.013709	0.343454	0.000041
1512	1.5034e+02	-19.7866	-70.157345	0.000223	2.230159	0.755598	0.000089
1513	1.5044e+02	-19.7593	-70.125048	0.000081	0.810967	0.274763	0.000032
1514	1.5054e+02	-19.7176	-70.012008	0.000284	2.838385	0.961671	0.000114
1515	1.5064e+02	-19.6759	-69.979711	0.000081	0.810967	0.274763	0.000032
1516	1.5074e+02	-19.6374	-69.915117	0.000162	1.621934	0.549526	0.000065
1517	1.5084e+02	-19.5909	-69.854560	0.000152	1.520563	0.515181	0.000061
1518	1.5094e+02	-19.5604	-69.725371	0.000324	3.243868	1.099052	0.000130
1519	1.5104e+02	-19.5139	-69.693074	0.000081	0.810967	0.274763	0.000032
1520	1.5114e+02	-19.4738	-69.628480	0.000162	1.621934	0.549526	0.000065
1521	1.5124e+02	-19.4369	-69.519477	0.000274	2.737014	0.927325	0.000110
1522	1.5134e+02	-19.4000	-69.499292	0.000051	0.506854	0.171727	0.000020
1523	1.5144e+02	-19.3551	-69.394326	0.000264	2.635643	0.892980	0.000105
1524	1.5154e+02	-19.3166	-69.357992	0.000091	0.912338	0.309108	0.000037
1525	1.5164e+02	-19.2781	-69.293398	0.000162	1.621934	0.549526	0.000065
1526	1.5174e+02	-19.2396	-69.244952	0.000122	1.216451	0.412145	0.000049
1527	1.5184e+02	-19.1946	-69.184395	0.000152	1.520563	0.515181	0.000061
1528	1.5194e+02	-19.1594	-69.091541	0.000233	2.331530	0.789944	0.000093
1529	1.5204e+02	-19.1112	-68.966390	0.000314	3.142497	1.064707	0.000126
1530	1.5214e+02	-19.0856	-68.897759	0.000172	1.723305	0.583872	0.000069
1531	1.5224e+02	-19.0262	-68.812979	0.000213	2.128789	0.721253	0.000085
1532	1.5233e+02	-19.0037	-68.712050	0.000253	2.534272	0.858635	0.000101
1533	1.5243e+02	-18.9508	-68.607085	0.000264	2.635643	0.892980	0.000105
1534	1.5253e+02	-18.9155	-68.538453	0.000172	1.723305	0.583872	0.000069
1535	1.5263e+02	-18.8818	-68.506156	0.000081	0.810967	0.274763	0.000032
1536	1.5273e+02	-18.8401	-68.381005	0.000314	3.142497	1.064707	0.000126
1537	1.5283e+02	-18.8016	-68.308337	0.000182	1.824676	0.618217	0.000073
1538	1.5293e+02	-18.7663	-68.219520	0.000223	2.230159	0.755598	0.000089
1539	1.5303e+02	-18.7278	-68.163000	0.000142	1.419192	0.480835	0.000057
1540	1.5313e+02	-18.6813	-68.126666	0.000091	0.912338	0.309108	0.000037
1541	1.5323e+02	-18.6364	-68.025737	0.000253	2.534272	0.858635	0.000101
1542	1.5333e+02	-18.5963	-67.920772	0.000264	2.635643	0.892980	0.000105
1543	1.5343e+02	-18.5594	-67.864252	0.000142	1.419192	0.480835	0.000057
1544	1.5353e+02	-18.5193	-67.759286	0.000264	2.635643	0.892980	0.000105
1545	1.5363e+02	-18.4759	-67.710841	0.000122	1.216451	0.412145	0.000049
1546	1.5373e+02	-18.4374	-67.577615	0.000335	3.345239	1.133398	0.000134
1547	1.5383e+02	-18.3925	-67.460538	0.000294	2.939756	0.996016	0.000118
1548	1.5393e+02	-18.3556	-67.379795	0.000203	2.027418	0.686908	0.000081
1549	1.5403e+02	-18.3203	-67.270793	0.000274	2.737014	0.927325	0.000110
1550	1.5413e+02	-18.2802	-67.181976	0.000223	2.230159	0.755598	0.000089
1551	1.5422e+02	-18.2417	-67.121419	0.000152	1.520563	0.515181	0.000061
1552	1.5432e+02	-18.2161	-67.044713	0.000193	1.926047	0.652562	0.000077
1553	1.5442e+02	-18.1679	-66.927636	0.000294	2.939756	0.996016	0.000118
1554	1.5452e+02	-18.1246	-66.838819	0.000223	2.230159	0.755598	0.000089
1555	1.5462e+02	-18.0893	-66.745965	0.000233	2.331530	0.789944	0.000093
1556	1.5472e+02	-18.0492	-66.665222	0.000203	2.027418	0.686908	0.000081
1557	1.5482e+02	-17.9931	-66.568331	0.000243	2.432901	0.824289	0.000097
1558	1.5492e+02	-17.9594	-66.507774	0.000152	1.520563	0.515181	0.000061
1559	1.5502e+02	-17.9161	-66.439143	0.000172	1.723305	0.583872	0.000069
1560	1.5512e+02	-17.8856	-66.358400	0.000203	2.027418	0.686908	0.000081
1561	1.5522e+02	-17.8407	-66.297843	0.000152	1.520563	0.515181	0.000061
1562	1.5532e+02	-17.8038	-66.148469	0.000375	3.750723	1.270779	0.000150
1563	1.5542e+02	-17.7621	-66.087912	0.000152	1.520563	0.515181	0.000061
1564	1.5552e+02	-17.7236	-65.938538	0.000375	3.750723	1.270779	0.000150
1565	1.5562e+02	-17.6867	-65.873944	0.000162	1.621934	0.549526	0.000065
1566	1.5572e+02	-17.6385	-65.760904	0.000284	2.838385	0.961671	0.000114
1567	1.5582e+02	-17.6016	-65.659976	0.000253	2.534272	0.858635	0.000101
1568	1.5592e+02	-17.5647	-65.522713	0.000345	3.446610	1.167743	0.000138
1569	1.5602e+02	-17.5182	-65.446007	0.000193	1.926047	0.652562	0.000077
1570	1.5612e+02	-17.4910	-65.324893	0.000304	3.041126	1.030362	0.000122
1571	1.5622e+02	-17.4476	-65.215891	0.000274	2.737014	0.927325	0.000110
1572	1.5631e+02	-17.4011	-65.163408	0.000132	1.317821	0.446490	0.000053
1573	1.5641e+02	-17.3658	-65.054405	0.000274	2.737014	0.927325	0.000110
1574	1.5651e+02	-17.3209	-64.965588	0.000223	2.230159	0.755598	0.000089
1575	1.5661e+02	-17.2888	-64.892920	0.000182	1.824676	0.618217	0.000073
1576	1.5671e+02	-17.2359	-64.828326	0.000162	1.621934	0.549526	0.000065
1577	1.5681e+02	-17.2102	-64.699137	0.000324	3.243868	1.099052	0.000130
1578	1.5691e+02	-17.1621	-64.630506	0.000172	1.723305	0.583872	0.000069
1579	1.5701e+02	-17.1107	-64.533615	0.000243	2.432901	0.824289	0.000097
1580	1.5711e+02	-17.0851	-64.432686	0.000253	2.534272	0.858635	0.000101
1581	1.5721e+02	-17.0450	-64.335795	0.000243	2.432901	0.824289	0.000097
1582	1.5731e+02	-17.0081	-64.234867	0.000253	2.534272	0.858635	0.000101
1583	1.5741e+02	-16.9648	-64.089530	0.000365	3.649352	1.236434	0.000146
1584	1.5751e+02	-16.9198	-63.956304	0.000335	3.345239	1.133398	0.000134
1585	1.5761e+02	-16.8781	-63.891710	0.000162	1.621934	0.549526	0.000065
1586	1.5771e+02	-16.8509	-63.778670	0.000284	2.838385	0.961671	0.000114
1587	1.5781e+02	-16.8108	-63.609111	0.000426	4.257577	1.442506	0.000170
1588	1.5791e+02	-16.7706	-63.588925	0.000051	0.506854	0.171727	0.000020
1589	1.5801e+02	-16.7338	-63.492034	0.000243	2.432901	0.824289	0.000097
1590	1.5811e+02	-16.6840	-63.399180	0.000233	2.331530	0.789944	0.000093
1591	1.5821e+02	-16.6471	-63.294214	0.000264	2.635643	0.892980	0.000105
1592	1.5830e+02	-16.5894	-63.225583	0.000172	1.723305	0.583872	0.000069
1593	1.5840e+02	-16.5621	-63.096394	0.000324	3.243868	1.099052	0.000130
1594	1.5850e+02	-16.5204	-63.023726	0.000182	1.824676	0.618217	0.000073
1595	1.5860e+02	-16.4835	-62.967206	0.000142	1.419192	0.480835	0.000057
1596	1.5870e+02	-16.4482	-62.850129	0.000294	2.939756	0.996016	0.000118
1597	1.5880e+02	-16.4097	-62.729015	0.000304	3.041126	1.030362	0.000122
1598	1.5890e+02	-16.3712	-62.644235	0.000213	2.128789	0.721253	0.000085
1599	1.5900e+02	-16.3311	-62.515047	0.000324	3.243868	1.099052	0.000130
1600	1.5910e+02	-16.2942	-62.434304	0.000203	2.027418	0.686908	0.000081
1601	1.5920e+02	-16.2493	-62.357599	0.000193	1.926047	0.652562	0.000077
1602	1.5930e+02	-16.2092	-62.236485	0.000304	3.041126	1.030362	0.000122
1603	1.5940e+02	-16.1675	-62.054813	0.000456	4.561690	1.545542	0.000183
1604	1.5950e+02	-16.1322	-61.986182	0.000172	1.723305	0.583872	0.000069
1605	1.5960e+02	-16.0872	-61.861031	0.000314	3.142497	1.064707	0.000126
1606	1.5970e+02	-16.0487	-61.735880	0.000314	3.142497	1.064707	0.000126
1607	1.5980e+02	-16.0054	-61.618803	0.000294	2.939756	0.996016	0.000118
1608	1.5990e+02	-15.9717	-61.586506	0.000081	0.810967	0.274763	0.000032
1609	1.6000e+02	-15.9332	-61.513837	0.000182	1.824676	0.618217	0.000073
1610	1.6010e+02	-15.8835	-61.408872	0.000264	2.635643	0.892980	0.000105
1611	1.6019e+02	-15.8482	-61.344278	0.000162	1.621934	0.549526	0.000065
1612	1.6029e+02	-15.8065	-61.158569	0.000466	4.663061	1.579888	0.000187
1613	1.6039e+02	-15.7776	-61.122235	0.000091	0.912338	0.309108	0.000037
1614	1.6049e+02	-15.7327	-61.025344	0.000243	2.432901	0.824289	0.000097
1615	1.6059e+02	-15.6846	-60.908267	0.000294	2.939756	0.996016	0.000118
1616	1.6069e+02	-15.6557	-60.799264	0.000274	2.737014	0.927325	0.000110
1617	1.6079e+02	-15.6060	-60.682187	0.000294	2.939756	0.996016	0.000118
1618	1.6089e+02	-15.5739	-60.585296	0.000243	2.432901	0.824289	0.000097
1619	1.6099e+02	-15.5258	-60.480330	0.000264	2.635643	0.892980	0.000105
1620	1.6109e+02	-15.4921	-60.375365	0.000264	2.635643	0.892980	0.000105
1621	1.6119e+02	-15.4552	-60.278474	0.000243	2.432901	0.824289	0.000097
1622	1.6129e+02	-15.4071	-60.125063	0.000385	3.852093	1.305125	0.000154
1623	1.6139e+02	-15.3750	-60.040283	0.000213	2.128789	0.721253	0.000085
1624	1.6149e+02	-15.3317	-59.882834	0.000395	3.953464	1.339470	0.000158
1625	1.6159e+02	-15.2932	-59.814203	0.000172	1.723305	0.583872	0.000069
1626	1.6169e+02	-15.2514	-59.717312	0.000243	2.432901	0.824289	0.000097
1627	1.6179e+02	-15.2081	-59.652718	0.000162	1.621934	0.549526	0.000065
1628	1.6189e+02	-15.1648	-59.535641	0.000294	2.939756	0.996016	0.000118
1629	1.6199e+02	-15.1343	-59.446824	0.000223	2.230159	0.755598	0.000089
1630	1.6209e+02	-15.0830	-59.329747	0.000294	2.939756	0.996016	0.000118
1631	1.6219e+02	-15.0605	-59.240930	0.000223	2.230159	0.755598	0.000089
1632	1.6228e+02	-15.0076	-59.119816	0.000304	3.041126	1.030362	0.000122
1633	1.6238e+02	-14.9707	-58.974479	0.000365	3.649352	1.236434	0.000146
1634	1.6248e+02	-14.9370	-58.921996	0.000132	1.317821	0.446490	0.000053
1635	1.6258e+02	-14.8921	-58.817031	0.000264	2.635643	0.892980	0.000105
1636	1.6268e+02	-14.8568	-58.683805	0.000335	3.345239	1.133398	0.000134
1637	1.6278e+02	-14.8183	-58.607100	0.000193	1.926047	0.652562	0.000077
1638	1.6288e+02	-14.7750	-58.449651	0.000395	3.953464	1.339470	0.000158
1639	1.6298e+02	-14.7349	-58.352760	0.000243	2.432901	0.824289	0.000097
1640	1.6308e+02	-14.7028	-58.247794	0.000264	2.635643	0.892980	0.000105
1641	1.6318e+02	-14.6611	-58.163015	0.000213	2.128789	0.721253	0.000085
1642	1.6328e+02	-14.6081	-58.029789	0.000335	3.345239	1.133398	0.000134
1643	1.6338e+02	-14.5696	-57.949046	0.000203	2.027418	0.686908	0.000081
1644	1.6348e+02	-14.5279	-57.904638	0.000112	1.115080	0.377799	0.000045
1645	1.6358e+02	-14.4975	-57.775450	0.000324	3.243868	1.099052	0.000130
1646	1.6368e+02	-14.4509	-57.674521	0.000253	2.534272	0.858635	0.000101
1647	1.6378e+02	-14.4076	-57.545333	0.000324	3.243868	1.099052	0.000130
1648	1.6388e+02	-14.3755	-57.468627	0.000193	1.926047	0.652562	0.000077
1649	1.6398e+02	-14.3306	-57.367699	0.000253	2.534272	0.858635	0.000101
1650	1.6408e+02	-14.2985	-57.254659	0.000284	2.838385	0.961671	0.000114
1651	1.6418e+02	-14.2600	-57.121434	0.000335	3.345239	1.133398	0.000134
1652	1.6427e+02	-14.2183	-57.024542	0.000243	2.432901	0.824289	0.000097
1653	1.6437e+02	-14.1798	-56.935725	0.000223	2.230159	0.755598	0.000089
1654	1.6447e+02	-14.1333	-56.838834	0.000243	2.432901	0.824289	0.000097
1655	1.6457e+02	-14.0900	-56.750017	0.000223	2.230159	0.755598	0.000089
1656	1.6467e+02	-14.0563	-56.616792	0.000335	3.345239	1.133398	0.000134
1657	1.6477e+02	-14.0146	-56.523937	0.000233	2.331530	0.789944	0.000093
1658	1.6487e+02	-13.9777	-56.358415	0.000416	4.156206	1.408161	0.000166
1659	1.6497e+02	-13.9408	-56.237301	0.000304	3.041126	1.030362	0.000122
1660	1.6507e+02	-13.8991	-56.168670	0.000172	1.723305	0.583872	0.000069
1661	1.6517e+02	-13.8574	-56.063704	0.000264	2.635643	0.892980	0.000105
1662	1.6527e+02	-13.8092	-55.982961	0.000203	2.027418	0.686908	0.000081
1663	1.6537e+02	-13.7691	-55.902219	0.000203	2.027418	0.686908	0.000081
1664	1.6547e+02	-13.7403	-55.797253	0.000264	2.635643	0.892980	0.000105
1665	1.6557e+02	-13.6985	-55.696325	0.000253	2.534272	0.858635	0.000101
1666	1.6567e+02	-13.6600	-55.571173	0.000314	3.142497	1.064707	0.000126
1667	1.6577e+02	-13.6167	-55.506579	0.000162	1.621934	0.549526	0.000065
1668	1.6587e+02	-13.5734	-55.385465	0.000304	3.041126	1.030362	0.000122
1669	1.6597e+02	-13.5477	-55.256277	0.000324	3.243868	1.099052	0.000130
1670	1.6607e+02	-13.4996	-55.155348	0.000253	2.534272	0.858635	0.000101
1671	1.6616e+02	-13.4611	-55.054420	0.000253	2.534272	0.858635	0.000101
1672	1.6626e+02	-13.4066	-54.905046	0.000375	3.750723	1.270779	0.000150
1673	1.6636e+02	-13.3777	-54.820266	0.000213	2.128789	0.721253	0.000085
1674	1.6646e+02	-13.3376	-54.711264	0.000274	2.737014	0.927325	0.000110
1675	1.6656e+02	-13.3055	-54.541704	0.000426	4.257577	1.442506	0.000170
1676	1.6666e+02	-13.2590	-54.517481	0.000061	0.608225	0.206072	0.000024
1677	1.6676e+02	-13.2221	-54.339847	0.000446	4.460319	1.511197	0.000179
1678	1.6686e+02	-13.1772	-54.251030	0.000223	2.230159	0.755598	0.000089
1679	1.6696e+02	-13.1371	-54.182399	0.000172	1.723305	0.583872	0.000069
1680	1.6706e+02	-13.0954	-54.053210	0.000324	3.243868	1.099052	0.000130
1681	1.6716e+02	-13.0520	-53.928059	0.000314	3.142497	1.064707	0.000126
1682	1.6726e+02	-13.0183	-53.831168	0.000243	2.432901	0.824289	0.000097
1683	1.6736e+02	-12.9750	-53.726202	0.000264	2.635643	0.892980	0.000105
1684	1.6746e+02	-12.9446	-53.633348	0.000233	2.331530	0.789944	0.000093
1685	1.6756e+02	-12.9012	-53.508197	0.000314	3.142497	1.064707	0.000126
1686	1.6766e+02	-12.8579	-53.415343	0.000233	2.331530	0.789944	0.000093
1687	1.6776e+02	-12.8162	-53.286155	0.000324	3.243868	1.099052	0.000130
1688	1.6786e+02	-12.7841	-53.209449	0.000193	1.926047	0.652562	0.000077
1689	1.6796e+02	-12.7456	-53.043926	0.000416	4.156206	1.408161	0.000166
1690	1.6806e+02	-12.7087	-52.942998	0.000253	2.534272	0.858635	0.000101
1691	1.6816e+02	-12.6686	-52.846107	0.000243	2.432901	0.824289	0.000097
1692	1.6825e+02	-12.6301	-52.692696	0.000385	3.852093	1.305125	0.000154
1693	1.6835e+02	-12.5884	-52.603879	0.000223	2.230159	0.755598	0.000089
1694	1.6845e+02	-12.5531	-52.458542	0.000365	3.649352	1.236434	0.000146
1695	1.6855e+02	-12.5034	-52.341465	0.000294	2.939756	0.996016	0.000118
1696	1.6865e+02	-12.4681	-52.248611	0.000233	2.331530	0.789944	0.000093
1697	1.6875e+02	-12.4264	-52.188054	0.000152	1.520563	0.515181	0.000061
1698	1.6885e+02	-12.3879	-52.042717	0.000365	3.649352	1.236434	0.000146
1699	1.6895e+02	-12.3414	-51.953900	0.000223	2.230159	0.755598	0.000089
1700	1.6905e+02	-12.3013	-51.897380	0.000142	1.419192	0.480835	0.000057
1701	1.6915e+02	-12.2483	-51.735894	0.000405	4.054835	1.373815	0.000162
1702	1.6925e+02	-12.2291	-51.655152	0.000203	2.027418	0.686908	0.000081
1703	1.6935e+02	-12.1825	-51.554223	0.000253	2.534272	0.858635	0.000101
1704	1.6945e+02	-12.1456	-51.368515	0.000466	4.663061	1.579888	0.000187
1705	1.6955e+02	-12.1104	-51.279698	0.000223	2.230159	0.755598	0.000089
1706	1.6965e+02	-12.0686	-51.190881	0.000223	2.230159	0.755598	0.000089
1707	1.6975e+02	-12.0221	-51.089953	0.000253	2.534272	0.858635	0.000101
1708	1.6985e+02	-11.9852	-50.944616	0.000365	3.649352	1.236434	0.000146
1709	1.6995e+02	-11.9531	-50.851762	0.000233	2.331530	0.789944	0.000093
1710	1.7005e+02	-11.9098	-50.682202	0.000426	4.257577	1.442506	0.000170
1711	1.7015e+02	-11.8745	-50.605496	0.000193	1.926047	0.652562	0.000077
1712	1.7024e+02	-11.8328	-50.427863	0.000446	4.460319	1.511197	0.000179
1713	1.7034e+02	-11.7815	-50.343083	0.000213	2.128789	0.721253	0.000085
1714	1.7044e+02	-11.7446	-50.226006	0.000294	2.939756	0.996016	0.000118
1715	1.7054e+02	-11.7077	-50.149300	0.000193	1.926047	0.652562	0.000077
1716	1.7064e+02	-11.6660	-50.048372	0.000253	2.534272	0.858635	0.000101
1717	1.7074e+02	-11.6243	-49.935332	0.000284	2.838385	0.961671	0.000114
1718	1.7084e+02	-11.5890	-49.822292	0.000284	2.838385	0.961671	0.000114
1719	1.7094e+02	-11.5457	-49.717327	0.000264	2.635643	0.892980	0.000105
1720	1.7104e+02	-11.5023	-49.539693	0.000446	4.460319	1.511197	0.000179
1721	1.7114e+02	-11.4719	-49.458950	0.000203	2.027418	0.686908	0.000081
1722	1.7124e+02	-11.4189	-49.349947	0.000274	2.737014	0.927325	0.000110
1723	1.7134e+02	-11.3852	-49.253056	0.000243	2.432901	0.824289	0.000097
1724	1.7144e+02	-11.3419	-49.051199	0.000507	5.068544	1.717269	0.000203
1725	1.7154e+02	-11.3130	-49.010828	0.000101	1.013709	0.343454	0.000041
1726	1.7164e+02	-11.2649	-48.869528	0.000355	3.547981	1.202088	0.000142
1727	1.7174e+02	-11.2328	-48.780711	0.000223	2.230159	0.755598	0.000089
1728	1.7184e+02	-11.2024	-48.623263	0.000395	3.953464	1.339470	0.000158
1729	1.7194e+02	-11.1494	-48.514260	0.000274	2.737014	0.927325	0.000110
1730	1.7204e+02	-11.1061	-48.356812	0.000395	3.953464	1.339470	0.000158
1731	1.7213e+02	-11.0676	-48.199364	0.000395	3.953464	1.339470	0.000158
1732	1.7223e+02	-11.0275	-48.114584	0.000213	2.128789	0.721253	0.000085
1733	1.7233e+02	-10.9922	-48.021730	0.000233	2.331530	0.789944	0.000093
1734	1.7243e+02	-10.9457	-47.916764	0.000264	2.635643	0.892980	0.000105
1735	1.7253e+02	-10.9024	-47.767390	0.000375	3.750723	1.270779	0.000150
1736	1.7263e+02	-10.8607	-47.678573	0.000223	2.230159	0.755598	0.000089
1737	1.7273e+02	-10.8286	-47.565533	0.000284	2.838385	0.961671	0.000114
1738	1.7283e+02	-10.7853	-47.432308	0.000335	3.345239	1.133398	0.000134
1739	1.7293e+02	-10.7468	-47.319268	0.000284	2.838385	0.961671	0.000114
1740	1.7303e+02	-10.7099	-47.177968	0.000355	3.547981	1.202088	0.000142
1741	1.7313e+02	-10.6762	-47.081077	0.000243	2.432901	0.824289	0.000097
1742	1.7323e+02	-10.6345	-46.923629	0.000395	3.953464	1.339470	0.000158
1743	1.7333e+02	-10.5911	-46.830775	0.000233	2.331530	0.789944	0.000093
1744	1.7343e+02	-10.5542	-46.693512	0.000345	3.446610	1.167743	0.000138
1745	1.7353e+02	-10.5125	-46.576435	0.000294	2.939756	0.996016	0.000118
1746	1.7363e+02	-10.4724	-46.418987	0.000395	3.953464	1.339470	0.000158
1747	1.7373e+02	-10.4323	-46.297873	0.000304	3.041126	1.030362	0.000122
1748	1.7383e+02	-10.3874	-46.156573	0.000355	3.547981	1.202088	0.000142
1749	1.7393e+02	-10.3473	-46.047570	0.000274	2.737014	0.927325	0.000110
1750	1.7403e+02	-10.3184	-45.922419	0.000314	3.142497	1.064707	0.000126
1751	1.7413e+02	-10.2671	-45.813416	0.000274	2.737014	0.927325	0.000110
1752	1.7422e+02	-10.2398	-45.704414	0.000274	2.737014	0.927325	0.000110
1753	1.7432e+02	-10.1949	-45.591374	0.000284	2.838385	0.961671	0.000114
1754	1.7442e+02	-10.1516	-45.454111	0.000345	3.446610	1.167743	0.000138
1755	1.7452e+02	-10.1163	-45.332997	0.000304	3.041126	1.030362	0.000122
1756	1.7462e+02	-10.0666	-45.191697	0.000355	3.547981	1.202088	0.000142
1757	1.7472e+02	-10.0313	-45.094806	0.000243	2.432901	0.824289	0.000097
1758	1.7482e+02	-9.9960	-44.953506	0.000355	3.547981	1.202088	0.000142
1759	1.7492e+02	-9.9575	-44.836430	0.000294	2.939756	0.996016	0.000118
1760	1.7502e+02	-9.9110	-44.719353	0.000294	2.939756	0.996016	0.000118
1761	1.7512e+02	-9.8708	-44.622461	0.000243	2.432901	0.824289	0.000097
1762	1.7522e+02	-9.8339	-44.469050	0.000385	3.852093	1.305125	0.000154
1763	1.7532e+02	-9.7987	-44.327750	0.000355	3.547981	1.202088	0.000142
1764	1.7542e+02	-9.7505	-44.182414	0.000365	3.649352	1.236434	0.000146
1765	1.7552e+02	-9.7104	-44.049188	0.000335	3.345239	1.133398	0.000134
1766	1.7562e+02	-9.6751	-43.911925	0.000345	3.446610	1.167743	0.000138
1767	1.7572e+02	-9.6366	-43.782737	0.000324	3.243868	1.099052	0.000130
1768	1.7582e+02	-9.5933	-43.718143	0.000162	1.621934	0.549526	0.000065
1769	1.7592e+02	-9.5580	-43.633363	0.000213	2.128789	0.721253	0.000085
1770	1.7602e+02	-9.5131	-43.488026	0.000365	3.649352	1.236434	0.000146
1771	1.7612e+02	-9.4778	-43.326541	0.000405	4.054835	1.373815	0.000162
1772	1.7621e+02	-9.4329	-43.221575	0.000264	2.635643	0.892980	0.000105
1773	1.7631e+02	-9.3912	-43.092387	0.000324	3.243868	1.099052	0.000130
1774	1.7641e+02	-9.3639	-42.971273	0.000304	3.041126	1.030362	0.000122
1775	1.7651e+02	-9.3206	-42.850159	0.000304	3.041126	1.030362	0.000122
1776	1.7661e+02	-9.2660	-42.733082	0.000294	2.939756	0.996016	0.000118
1777	1.7671e+02	-9.2452	-42.611968	0.000304	3.041126	1.030362	0.000122
1778	1.7681e+02	-9.1955	-42.470668	0.000355	3.547981	1.202088	0.000142
1779	1.7691e+02	-9.1586	-42.329368	0.000355	3.547981	1.202088	0.000142
1780	1.7701e+02	-9.1136	-42.228440	0.000253	2.534272	0.858635	0.000101
1781	1.7711e+02	-9.0735	-42.046769	0.000456	4.561690	1.545542	0.000183
1782	1.7721e+02	-9.0399	-41.949877	0.000243	2.432901	0.824289	0.000097
1783	1.7731e+02	-8.9933	-41.788392	0.000405	4.054835	1.373815	0.000162
1784	1.7741e+02	-8.9532	-41.634981	0.000385	3.852093	1.305125	0.000154
1785	1.7751e+02	-8.9147	-41.550201	0.000213	2.128789	0.721253	0.000085
1786	1.7761e+02	-8.8746	-41.404864	0.000365	3.649352	1.236434	0.000146
1787	1.7771e+02	-8.8409	-41.275676	0.000324	3.243868	1.099052	0.000130
1788	1.7781e+02	-8.7912	-41.178785	0.000243	2.432901	0.824289	0.000097
1789	1.7791e+02	-8.7607	-41.049596	0.000324	3.243868	1.099052	0.000130
1790	1.7801e+02	-8.7142	-40.912334	0.000345	3.446610	1.167743	0.000138
1791	1.7810e+02	-8.6869	-40.815442	0.000243	2.432901	0.824289	0.000097
1792	1.7820e+02	-8.6388	-40.666068	0.000375	3.750723	1.270779	0.000150
1793	1.7830e+02	-8.6051	-40.528806	0.000345	3.446610	1.167743	0.000138
1794	1.7840e+02	-8.5618	-40.371357	0.000395	3.953464	1.339470	0.000158
1795	1.7850e+02	-8.5056	-40.266392	0.000264	2.635643	0.892980	0.000105
1796	1.7860e+02	-8.4816	-40.125092	0.000355	3.547981	1.202088	0.000142
1797	1.7870e+02	-8.4367	-40.008015	0.000294	2.939756	0.996016	0.000118
1798	1.7880e+02	-8.3966	-39.899012	0.000274	2.737014	0.927325	0.000110
1799	1.7890e+02	-8.3597	-39.745601	0.000385	3.852093	1.305125	0.000154
1800	1.7900e+02	-8.3131	-39.636599	0.000274	2.737014	0.927325	0.000110
1801	1.7910e+02	-8.2698	-39.503373	0.000335	3.345239	1.133398	0.000134
1802	1.7920e+02	-8.2506	-39.353999	0.000375	3.750723	1.270779	0.000150
1803	1.7930e+02	-8.1960	-39.240959	0.000284	2.838385	0.961671	0.000114
1804	1.7940e+02	-8.1591	-39.127920	0.000284	2.838385	0.961671	0.000114
1805	1.7950e+02	-8.1078	-38.994694	0.000335	3.345239	1.133398	0.000134
1806	1.7960e+02	-8.0853	-38.881654	0.000284	2.838385	0.961671	0.000114
1807	1.7970e+02	-8.0420	-38.740355	0.000355	3.547981	1.202088	0.000142
1808	1.7980e+02	-8.0003	-38.586943	0.000385	3.852093	1.305125	0.000154
1809	1.7990e+02	-7.9650	-38.461792	0.000314	3.142497	1.064707	0.000126
1810	1.8000e+02	-7.9233	-38.340678	0.000304	3.041126	1.030362	0.000122
1811	1.8009e+02	-7.8816	-38.231675	0.000274	2.737014	0.927325	0.000110
1812	1.8019e+02	-7.8335	-38.041930	0.000476	4.764431	1.614233	0.000191
1813	1.8029e+02	-7.8094	-37.953113	0.000223	2.230159	0.755598	0.000089
1814	1.8039e+02	-7.7613	-37.856222	0.000243	2.432901	0.824289	0.000097
1815	1.8049e+02	-7.7244	-37.670514	0.000466	4.663061	1.579888	0.000187
1816	1.8059e+02	-7.6859	-37.581697	0.000223	2.230159	0.755598	0.000089
1817	1.8069e+02	-7.6570	-37.432323	0.000375	3.750723	1.270779	0.000150
1818	1.8079e+02	-7.6041	-37.258726	0.000436	4.358948	1.476852	0.000174
1819	1.8089e+02	-7.5575	-37.157797	0.000253	2.534272	0.858635	0.000101
1820	1.8099e+02	-7.5206	-37.024572	0.000335	3.345239	1.133398	0.000134
1821	1.8109e+02	-7.4821	-36.903458	0.000304	3.041126	1.030362	0.000122
1822	1.8119e+02	-7.4452	-36.782344	0.000304	3.041126	1.030362	0.000122
1823	1.8129e+02	-7.3987	-36.673341	0.000274	2.737014	0.927325	0.000110
1824	1.8139e+02	-7.3618	-36.519930	0.000385	3.852093	1.305125	0.000154
1825	1.8149e+02	-7.3281	-36.378630	0.000355	3.547981	1.202088	0.000142
1826	1.8159e+02	-7.2848	-36.281739	0.000243	2.432901	0.824289	0.000097
1827	1.8169e+02	-7.2399	-36.128328	0.000385	3.852093	1.305125	0.000154
1828	1.8179e+02	-7.2030	-35.966842	0.000405	4.054835	1.373815	0.000162
1829	1.8189e+02	-7.1741	-35.878025	0.000223	2.230159	0.755598	0.000089
1830	1.8199e+02	-7.1276	-35.708466	0.000426	4.257577	1.442506	0.000170
1831	1.8209e+02	-7.0875	-35.619649	0.000223	2.230159	0.755598	0.000089
1832	1.8218e+02	-7.0394	-35.510646	0.000274	2.737014	0.927325	0.000110
1833	1.8228e+02	-7.0089	-35.337049	0.000436	4.358948	1.476852	0.000174
1834	1.8238e+02	-6.9608	-35.207861	0.000324	3.243868	1.099052	0.000130
1835	1.8248e+02	-6.9271	-35.054450	0.000385	3.852093	1.305125	0.000154
1836	1.8258e+02	-6.8902	-34.941410	0.000284	2.838385	0.961671	0.000114
1837	1.8268e+02	-6.8437	-34.767813	0.000436	4.358948	1.476852	0.000174
1838	1.8278e+02	-6.8036	-34.662847	0.000264	2.635643	0.892980	0.000105
1839	1.8288e+02	-6.7650	-34.541733	0.000304	3.041126	1.030362	0.000122
1840	1.8298e+02	-6.7201	-34.420619	0.000304	3.041126	1.030362	0.000122
1841	1.8308e+02	-6.6880	-34.279320	0.000355	3.547981	1.202088	0.000142
1842	1.8318e+02	-6.6431	-34.146094	0.000335	3.345239	1.133398	0.000134
1843	1.8328e+02	-6.6030	-34.020943	0.000314	3.142497	1.064707	0.000126
1844	1.8338e+02	-6.5709	-33.899829	0.000304	3.041126	1.030362	0.000122
1845	1.8348e+02	-6.5292	-33.762566	0.000345	3.446610	1.167743	0.000138
1846	1.8358e+02	-6.4875	-33.609155	0.000385	3.852093	1.305125	0.000154
1847	1.8368e+02	-6.4298	-33.488041	0.000304	3.041126	1.030362	0.000122
1848	1.8378e+02	-6.4217	-33.387113	0.000253	2.534272	0.858635	0.000101
1849	1.8388e+02	-6.3672	-33.193330	0.000487	4.865802	1.648578	0.000195
1850	1.8398e+02	-6.3303	-33.100476	0.000233	2.331530	0.789944	0.000093
1851	1.8407e+02	-6.2934	-32.971288	0.000324	3.243868	1.099052	0.000130
1852	1.8417e+02	-6.2469	-32.793654	0.000446	4.460319	1.511197	0.000179
1853	1.8427e+02	-6.2148	-32.644280	0.000375	3.750723	1.270779	0.000150
1854	1.8437e+02	-6.1699	-32.523166	0.000304	3.041126	1.030362	0.000122
1855	1.8447e+02	-6.1298	-32.349569	0.000436	4.358948	1.476852	0.000174
1856	1.8457e+02	-6.1073	-32.260752	0.000223	2.230159	0.755598	0.000089
1857	1.8467e+02	-6.0592	-32.111378	0.000375	3.750723	1.270779	0.000150
1858	1.8477e+02	-6.0095	-31.937781	0.000436	4.358948	1.476852	0.000174
1859	1.8487e+02	-5.9661	-31.832815	0.000264	2.635643	0.892980	0.000105
1860	1.8497e+02	-5.9292	-31.719775	0.000284	2.838385	0.961671	0.000114
1861	1.8507e+02	-5.8956	-31.578476	0.000355	3.547981	1.202088	0.000142
1862	1.8517e+02	-5.8474	-31.416990	0.000405	4.054835	1.373815	0.000162
1863	1.8527e+02	-5.8234	-31.303951	0.000284	2.838385	0.961671	0.000114
1864	1.8537e+02	-5.7720	-31.130354	0.000436	4.358948	1.476852	0.000174
1865	1.8547e+02	-5.7287	-31.021351	0.000274	2.737014	0.927325	0.000110
1866	1.8557e+02	-5.6870	-30.863903	0.000395	3.953464	1.339470	0.000158
1867	1.8567e+02	-5.6565	-30.758937	0.000264	2.635643	0.892980	0.000105
1868	1.8577e+02	-5.6116	-30.609563	0.000375	3.750723	1.270779	0.000150
1869	1.8587e+02	-5.5699	-30.448078	0.000405	4.054835	1.373815	0.000162
1870	1.8597e+02	-5.5330	-30.322927	0.000314	3.142497	1.064707	0.000126
1871	1.8606e+02	-5.4913	-30.181627	0.000355	3.547981	1.202088	0.000142
1872	1.8616e+02	-5.4560	-30.032253	0.000375	3.750723	1.270779	0.000150
1873	1.8626e+02	-5.4111	-29.935361	0.000243	2.432901	0.824289	0.000097
1874	1.8636e+02	-5.3790	-29.753690	0.000456	4.561690	1.545542	0.000183
1875	1.8646e+02	-5.3389	-29.616428	0.000345	3.446610	1.167743	0.000138
1876	1.8656e+02	-5.2972	-29.467054	0.000375	3.750723	1.270779	0.000150
1877	1.8666e+02	-5.2571	-29.313643	0.000385	3.852093	1.305125	0.000154
1878	1.8676e+02	-5.2170	-29.224826	0.000223	2.230159	0.755598	0.000089
1879	1.8686e+02	-5.1720	-29.107749	0.000294	2.939756	0.996016	0.000118
1880	1.8696e+02	-5.1384	-28.913966	0.000487	4.865802	1.648578	0.000195
1881	1.8706e+02	-5.0822	-28.804963	0.000274	2.737014	0.927325	0.000110
1882	1.8716e+02	-5.0565	-28.651552	0.000385	3.852093	1.305125	0.000154
1883	1.8726e+02	-5.0132	-28.490067	0.000405	4.054835	1.373815	0.000162
1884	1.8736e+02	-4.9811	-28.360879	0.000324	3.243868	1.099052	0.000130
1885	1.8746e+02	-4.9426	-28.215542	0.000365	3.649352	1.236434	0.000146
1886	1.8756e+02	-4.8993	-28.086353	0.000324	3.243868	1.099052	0.000130
1887	1.8766e+02	-4.8528	-27.928905	0.000395	3.953464	1.339470	0.000158
1888	1.8776e+02	-4.8159	-27.779531	0.000375	3.750723	1.270779	0.000150
1889	1.8786e+02	-4.7822	-27.626120	0.000385	3.852093	1.305125	0.000154
1890	1.8796e+02	-4.7373	-27.480783	0.000365	3.649352	1.236434	0.000146
1891	1.8806e+02	-4.6940	-27.383892	0.000243	2.432901	0.824289	0.000097
1892	1.8815e+02	-4.6523	-27.230481	0.000385	3.852093	1.305125	0.000154
1893	1.8825e+02	-4.6154	-27.052847	0.000446	4.460319	1.511197	0.000179
1894	1.8835e+02	-4.5737	-26.911547	0.000355	3.547981	1.202088	0.000142
1895	1.8845e+02	-4.5400	-26.774284	0.000345	3.446610	1.167743	0.000138
1896	1.8855e+02	-4.5063	-26.641059	0.000335	3.345239	1.133398	0.000134
1897	1.8865e+02	-4.4550	-26.511870	0.000324	3.243868	1.099052	0.000130
1898	1.8875e+02	-4.4197	-26.350385	0.000405	4.054835	1.373815	0.000162
1899	1.8885e+02	-4.3780	-26.196974	0.000385	3.852093	1.305125	0.000154
1900	1.8895e+02	-4.3491	-26.043563	0.000385	3.852093	1.305125	0.000154
1901	1.8905e+02	-4.3074	-25.845743	0.000497	4.967173	1.682924	0.000199
1902	1.8915e+02	-4.2544	-25.732703	0.000284	2.838385	0.961671	0.000114
1903	1.8925e+02	-4.2207	-25.551032	0.000456	4.561690	1.545542	0.000183
1904	1.8935e+02	-4.1806	-25.429918	0.000304	3.041126	1.030362	0.000122
1905	1.8945e+02	-4.1437	-25.260358	0.000426	4.257577	1.442506	0.000170
1906	1.8955e+02	-4.1020	-25.147319	0.000284	2.838385	0.961671	0.000114
1907	1.8965e+02	-4.0571	-24.989870	0.000395	3.953464	1.339470	0.000158
1908	1.8975e+02	-4.0250	-24.828385	0.000405	4.054835	1.373815	0.000162
1909	1.8985e+02	-3.9833	-24.666899	0.000405	4.054835	1.373815	0.000162
1910	1.8995e+02	-3.9352	-24.545785	0.000304	3.041126	1.030362	0.000122
1911	1.9004e+02	-3.9047	-24.384300	0.000405	4.054835	1.373815	0.000162
1912	1.9014e+02	-3.8662	-24.230889	0.000385	3.852093	1.305125	0.000154
1913	1.9024e+02	-3.8133	-24.089589	0.000355	3.547981	1.202088	0.000142
1914	1.9034e+02	-3.7764	-23.887732	0.000507	5.068544	1.717269	0.000203
1915	1.9044e+02	-3.7395	-23.782767	0.000264	2.635643	0.892980	0.000105
1916	1.9054e+02	-3.7074	-23.580910	0.000507	5.068544	1.717269	0.000203
1917	1.9064e+02	-3.6560	-23.471907	0.000274	2.737014	0.927325	0.000110
1918	1.9074e+02	-3.6208	-23.306385	0.000416	4.156206	1.408161	0.000166
1919	1.9084e+02	-3.5903	-23.161048	0.000365	3.649352	1.236434	0.000146
1920	1.9094e+02	-3.5405	-23.011674	0.000375	3.750723	1.270779	0.000150
1921	1.9104e+02	-3.5036	-22.862300	0.000375	3.750723	1.270779	0.000150
1922	1.9114e+02	-3.4539	-22.684666	0.000446	4.460319	1.511197	0.000179
1923	1.9124e+02	-3.4170	-22.555477	0.000324	3.243868	1.099052	0.000130
1924	1.9134e+02	-3.3849	-22.406103	0.000375	3.750723	1.270779	0.000150
1925	1.9144e+02	-3.3384	-22.212321	0.000487	4.865802	1.648578	0.000195
1926	1.9154e+02	-3.2887	-22.111392	0.000253	2.534272	0.858635	0.000101
1927	1.9164e+02	-3.2598	-21.929721	0.000456	4.561690	1.545542	0.000183
1928	1.9174e+02	-3.2133	-21.772273	0.000395	3.953464	1.339470	0.000158
1929	1.9184e+02	-3.1812	-21.651159	0.000304	3.041126	1.030362	0.000122
1930	1.9194e+02	-3.1331	-21.481599	0.000426	4.257577	1.442506	0.000170
1931	1.9203e+02	-3.1090	-21.303965	0.000446	4.460319	1.511197	0.000179
1932	1.9213e+02	-3.0625	-21.182851	0.000304	3.041126	1.030362	0.000122
1933	1.9223e+02	-3.0320	-21.025403	0.000395	3.953464	1.339470	0.000158
1934	1.9233e+02	-2.9807	-20.839695	0.000466	4.663061	1.579888	0.000187
1935	1.9243e+02	-2.9518	-20.734729	0.000264	2.635643	0.892980	0.000105
1936	1.9253e+02	-2.9101	-20.553058	0.000456	4.561690	1.545542	0.000183
1937	1.9263e+02	-2.8603	-20.407721	0.000365	3.649352	1.236434	0.000146
1938	1.9273e+02	-2.8186	-20.254310	0.000385	3.852093	1.305125	0.000154
1939	1.9283e+02	-2.7817	-20.117047	0.000345	3.446610	1.167743	0.000138
1940	1.9293e+02	-2.7577	-19.935376	0.000456	4.561690	1.545542	0.000183
1941	1.9303e+02	-2.7079	-19.826374	0.000274	2.737014	0.927325	0.000110
1942	1.9313e+02	-2.6646	-19.668925	0.000395	3.953464	1.339470	0.000158
1943	1.9323e+02	-2.6165	-19.491291	0.000446	4.460319	1.511197	0.000179
1944	1.9333e+02	-2.5812	-19.317695	0.000436	4.358948	1.476852	0.000174
1945	1.9343e+02	-2.5363	-19.176395	0.000355	3.547981	1.202088	0.000142
1946	1.9353e+02	-2.4962	-19.043169	0.000335	3.345239	1.133398	0.000134
1947	1.9363e+02	-2.4545	-18.857461	0.000466	4.663061	1.579888	0.000187
1948	1.9373e+02	-2.4192	-18.679827	0.000446	4.460319	1.511197	0.000179
1949	1.9383e+02	-2.3871	-18.530453	0.000375	3.750723	1.270779	0.000150
1950	1.9393e+02	-2.3438	-18.433562	0.000243	2.432901	0.824289	0.000097
1951	1.9403e+02	-2.3069	-18.219594	0.000537	5.372657	1.820305	0.000215
1952	1.9412e+02	-2.2700	-18.086368	0.000335	3.345239	1.133398	0.000134
1953	1.9422e+02	-2.2235	-17.908734	0.000446	4.460319	1.511197	0.000179
1954	1.9432e+02	-2.1946	-17.747249	0.000405	4.054835	1.373815	0.000162
1955	1.9442e+02	-2.1545	-17.593838	0.000385	3.852093	1.305125	0.000154
1956	1.9452e+02	-2.1064	-17.460612	0.000335	3.345239	1.133398	0.000134
1957	1.9462e+02	-2.0743	-17.291052	0.000426	4.257577	1.442506	0.000170
1958	1.9472e+02	-2.0310	-17.121493	0.000426	4.257577	1.442506	0.000170
1959	1.9482e+02	-1.9909	-16.915599	0.000517	5.169915	1.751615	0.000207
1960	1.9492e+02	-1.9540	-16.810633	0.000264	2.635643	0.892980	0.000105
1961	1.9502e+02	-1.9171	-16.677408	0.000335	3.345239	1.133398	0.000134
1962	1.9512e+02	-1.8753	-16.499774	0.000446	4.460319	1.511197	0.000179
1963	1.9522e+02	-1.8256	-16.350400	0.000375	3.750723	1.270779	0.000150
1964	1.9532e+02	-1.7887	-16.192951	0.000395	3.953464	1.339470	0.000158
1965	1.9542e+02	-1.7406	-16.007243	0.000466	4.663061	1.579888	0.000187
1966	1.9552e+02	-1.7117	-15.878055	0.000324	3.243868	1.099052	0.000130
1967	1.9562e+02	-1.6668	-15.728681	0.000375	3.750723	1.270779	0.000150
1968	1.9572e+02	-1.6171	-15.538935	0.000476	4.764431	1.614233	0.000191
1969	1.9582e+02	-1.5834	-15.385524	0.000385	3.852093	1.305125	0.000154
1970	1.9592e+02	-1.5481	-15.260373	0.000314	3.142497	1.064707	0.000126
1971	1.9601e+02	-1.5112	-15.074665	0.000466	4.663061	1.579888	0.000187
1972	1.9611e+02	-1.4679	-14.892994	0.000456	4.561690	1.545542	0.000183
1973	1.9621e+02	-1.4326	-14.779954	0.000284	2.838385	0.961671	0.000114
1974	1.9631e+02	-1.3925	-14.610394	0.000426	4.257577	1.442506	0.000170
1975	1.9641e+02	-1.3556	-14.501392	0.000274	2.737014	0.927325	0.000110
1976	1.9651e+02	-1.3155	-14.291461	0.000527	5.271286	1.785960	0.000211
1977	1.9661e+02	-1.2770	-14.117864	0.000436	4.358948	1.476852	0.000174
1978	1.9671e+02	-1.2208	-13.984638	0.000335	3.345239	1.133398	0.000134
1979	1.9681e+02	-1.1952	-13.819116	0.000416	4.156206	1.408161	0.000166
1980	1.9691e+02	-1.1454	-13.673779	0.000365	3.649352	1.236434	0.000146
1981	1.9701e+02	-1.1085	-13.475959	0.000497	4.967173	1.682924	0.000199
1982	1.9711e+02	-1.0636	-13.366956	0.000274	2.737014	0.927325	0.000110
1983	1.9721e+02	-1.0347	-13.177211	0.000476	4.764431	1.614233	0.000191
1984	1.9731e+02	-0.9946	-13.023800	0.000385	3.852093	1.305125	0.000154
1985	1.9741e+02	-0.9529	-12.834055	0.000476	4.764431	1.614233	0.000191
1986	1.9751e+02	-0.9080	-12.688718	0.000365	3.649352	1.236434	0.000146
1987	1.9761e+02	-0.8647	-12.543381	0.000365	3.649352	1.236434	0.000146
1988	1.9771e+02	-0.8358	-12.389970	0.000385	3.852093	1.305125	0.000154
1989	1.9781e+02	-0.7909	-12.232521	0.000395	3.953464	1.339470	0.000158
1990	1.9791e+02	-0.7524	-12.079110	0.000385	3.852093	1.305125	0.000154
1991	1.9800e+02	-0.7075	-11.913588	0.000416	4.156206	1.408161	0.000166
1992	1.9810e+02	-0.6642	-11.784399	0.000324	3.243868	1.099052	0.000130
1993	1.9820e+02	-0.6449	-11.630988	0.000385	3.852093	1.305125	0.000154
1994	1.9830e+02	-0.5871	-11.469503	0.000405	4.054835	1.373815	0.000162
1995	1.9840e+02	-0.5470	-11.299943	0.000426	4.257577	1.442506	0.000170
1996	1.9850e+02	-0.5134	-11.158643	0.000355	3.547981	1.202088	0.000142
1997	1.9860e+02	-0.4684	-10.952749	0.000517	5.169915	1.751615	0.000207
1998	1.9870e+02	-0.4331	-10.823561	0.000324	3.243868	1.099052	0.000130
1999	1.9880e+02	-0.3962	-10.649964	0.000436	4.358948	1.476852	0.000174
2000	1.9890e+02	-0.3449	-10.484442	0.000416	4.156206	1.408161	0.000166
2001	1.9900e+02	-0.3192	-10.347179	0.000345	3.446610	1.167743	0.000138
2002	1.9910e+02	-0.2695	-10.205879	0.000355	3.547981	1.202088	0.000142
2003	1.9920e+02	-0.2310	-10.016134	0.000476	4.764431	1.614233	0.000191
2004	1.9930e+02	-0.1941	-9.886945	0.000324	3.243868	1.099052	0.000130
2005	1.9940e+02	-0.1492	-9.721423	0.000416	4.156206	1.408161	0.000166
2006	1.9950e+02	-0.1139	-9.539752	0.000456	4.561690	1.545542	0.000183
2007	1.9960e+02	-0.0754	-9.370192	0.000426	4.257577	1.442506	0.000170
2008	1.9970e+02	-0.0337	-9.220818	0.000375	3.750723	1.270779	0.000150
2009	1.9980e+02	0.0048	-9.055295	0.000375	3.750723	1.270779	0.000166

PMax (uC/cm2):	7.75e+01
Pr (uC/cm2):	6.18e+00
-Pr (uC/cm2):	-2.00e+00
PLoss (uC/cm2):	-2.05e+00
-Vc:	-1.54e+00
C (Max-Eff) (nF):	3.88e-01
K (Eff):	1.31e+03
Vert. (+/-Pr) Shift (uC/cm2):	2.09e+00
Offset (uC/cm2):	7.05e+00

A (Loop Area - uC/cm2·Volts):	-1.30e-02



Hysteresis Version: 5.48.1 - Radiant Technologies, Inc., 1999 - 9/12/24

