»»»»»»»»»»»»»»»»»»»»»»»»»»»»»»»»»»»» Hysteresis ««««««««««««««««««««««««««««««««««««
»»»  Executed Version:	5.48.1
»»»  Vision Version:	5.48.4 (R)
»»»  Vision Compiled:	9/18/24
»»»  Driver Version:	5.47.0
»»»  Windows Version:	Windows 8 or 8.1
»»»  Processor Information:	x86 (AMD or Intel) - 32 Processors
»»»  Tester Name:	PMF21124-494 (100V)
»»»  Tester S/N:	PMF21124-494
»»»  Internal Amp Type:	100V RevK 270k
»»»  Internal Amp S/N:	iAB2-596/K     
»»»  Execution Count:	1
»»»»»»»»»»»»»»»»»»»»»»»»»»»»»»»»»»»»»»»»»»««««««««««««««««««««««««««««««««««««««««««

Stored:	6/19/2025 - 20:10:47
Configured:	06/19/25 10:04:32 AM
Executed:	06/19/25 08:10:15 PM

»»»»»»»»»»»»»»»»»»»»»»»»»»»»»»»»»»» Sample Info ««««««««««««««««««««««««««««««««««««
Sample Name:	
Lot Name:	
Wafer Name:	
Die Row/Column:	0/0
Capacitor Number:	0
Sample Area (cm2):	1.00e-04
Sample Thickness (microns):	3.00e-01

Amplifier:	Internal

»»»»»»»»»»»»»»»»»»»»»»»»»»»»»»»»»»» Tester Info «««««««««««««««««««««««««««««««««««
Tester Name:	PMF21124-494 (100V)
Tester Serial Number:	PMF21124-494
Return Signal Amp. Level:	0.19 [Index: 3]

»»»»»»»»»»»»»»»»»»»»»»»»»»»»»»»» Hysteresis Info ««««««««««««««««««««««««««««««««««
Task Name:	Hyst-1168
Volts:	20.00
Field:	666.67 (kV/cm)
DCBias:	0.00
DCField:	0.00 (kV/cm)
Hysteresis Period (ms):	2.00e+02
Preset:	Enabled
Preset Delay (ms):	1.00e+03
Profile:	Standard Bipolar

»»»»»»»»»»»»»»»»»»»»»»»»»»»»»»»»»»»»»» Data «««««««««««««««««««««««««««««««««««««««
Points:	2009

Valid Data

Point	Time (ms)	Drive Voltage	Measured Polarization (uC/cm2)	Capacitance (uF)	Normalized Capacitance (uF/cm2)	Dielectric Constant	Instantaneous Current (mA)
   1	0.0000e+00	0.0160	-5.599507	0.000324	3.243998	1.099096	0.000130
   2	9.9500e-02	0.0305	-5.470319	0.000324	3.243998	1.099096	0.000130
   3	1.9900e-01	0.0754	-5.341131	0.000324	3.243998	1.099096	0.000130
   4	2.9850e-01	0.1171	-5.195794	0.000365	3.649498	1.236483	0.000146
   5	3.9800e-01	0.1556	-5.074680	0.000304	3.041248	1.030403	0.000122
   6	4.9750e-01	0.1941	-4.913194	0.000405	4.054998	1.373870	0.000162
   7	5.9700e-01	0.2406	-4.727486	0.000466	4.663248	1.579951	0.000187
   8	6.9650e-01	0.2807	-4.610409	0.000294	2.939874	0.996056	0.000118
   9	7.9600e-01	0.3160	-4.473146	0.000345	3.446748	1.167790	0.000138
  10	8.9550e-01	0.3690	-4.311661	0.000405	4.054998	1.373870	0.000162
  11	9.9500e-01	0.4043	-4.154213	0.000395	3.953623	1.339524	0.000158
  12	1.0945e+00	0.4347	-3.976579	0.000446	4.460498	1.511258	0.000179
  13	1.1940e+00	0.4845	-3.859502	0.000294	2.939874	0.996056	0.000118
  14	1.2935e+00	0.5230	-3.681868	0.000446	4.460498	1.511258	0.000179
  15	1.3930e+00	0.5470	-3.560754	0.000304	3.041248	1.030403	0.000122
  16	1.4925e+00	0.6016	-3.427528	0.000335	3.345373	1.133443	0.000134
  17	1.5920e+00	0.6369	-3.245857	0.000456	4.561873	1.545604	0.000183
  18	1.6915e+00	0.6818	-3.096483	0.000375	3.750873	1.270830	0.000150
  19	1.7910e+00	0.7123	-2.930961	0.000416	4.156373	1.408217	0.000166
  20	1.8905e+00	0.7556	-2.765438	0.000416	4.156373	1.408217	0.000166
  21	1.9900e+00	0.7941	-2.612027	0.000385	3.852248	1.305177	0.000154
  22	2.0895e+00	0.8390	-2.450541	0.000405	4.054998	1.373870	0.000162
  23	2.1890e+00	0.8663	-2.264833	0.000466	4.663248	1.579951	0.000187
  24	2.2885e+00	0.9144	-2.119496	0.000365	3.649498	1.236483	0.000146
  25	2.3880e+00	0.9529	-2.018568	0.000253	2.534374	0.858669	0.000101
  26	2.4875e+00	1.0026	-1.800563	0.000547	5.474247	1.854725	0.000219
  27	2.5870e+00	1.0411	-1.647151	0.000385	3.852248	1.305177	0.000154
  28	2.6865e+00	1.0684	-1.501814	0.000365	3.649498	1.236483	0.000146
  29	2.7860e+00	1.1037	-1.336292	0.000416	4.156373	1.408217	0.000166
  30	2.8855e+00	1.1631	-1.186918	0.000375	3.750873	1.270830	0.000150
  31	2.9850e+00	1.1952	-1.021395	0.000416	4.156373	1.408217	0.000166
  32	3.0845e+00	1.2321	-0.896244	0.000314	3.142623	1.064750	0.000126
  33	3.1840e+00	1.2754	-0.690350	0.000517	5.170122	1.751685	0.000207
  34	3.2835e+00	1.3107	-0.561162	0.000324	3.243998	1.099096	0.000130
  35	3.3830e+00	1.3476	-0.363342	0.000497	4.967372	1.682991	0.000199
  36	3.4825e+00	1.3877	-0.213968	0.000375	3.750873	1.270830	0.000150
  37	3.5820e+00	1.4262	-0.036334	0.000446	4.460498	1.511258	0.000179
  38	3.6815e+00	1.4679	0.117077	0.000385	3.852248	1.305177	0.000154
  39	3.7810e+00	1.5144	0.246265	0.000324	3.243998	1.099096	0.000130
  40	3.8805e+00	1.5497	0.419862	0.000436	4.359123	1.476911	0.000174
  41	3.9800e+00	1.5946	0.593459	0.000436	4.359123	1.476911	0.000174
  42	4.0795e+00	1.6347	0.758982	0.000416	4.156373	1.408217	0.000166
  43	4.1790e+00	1.6748	0.928541	0.000426	4.257748	1.442564	0.000170
  44	4.2785e+00	1.7149	1.122324	0.000487	4.865998	1.648645	0.000195
  45	4.3780e+00	1.7502	1.235364	0.000284	2.838499	0.961709	0.000114
  46	4.4775e+00	1.7855	1.388775	0.000385	3.852248	1.305177	0.000154
  47	4.5770e+00	1.8417	1.586594	0.000497	4.967372	1.682991	0.000199
  48	4.6765e+00	1.8737	1.711746	0.000314	3.142623	1.064750	0.000126
  49	4.7760e+00	1.9090	1.901491	0.000476	4.764623	1.614298	0.000191
  50	4.8755e+00	1.9540	2.075088	0.000436	4.359123	1.476911	0.000174
  51	4.9750e+00	1.9892	2.208313	0.000335	3.345373	1.133443	0.000134
  52	5.0745e+00	2.0245	2.414207	0.000517	5.170122	1.751685	0.000207
  53	5.1740e+00	2.0743	2.539358	0.000314	3.142623	1.064750	0.000126
  54	5.2735e+00	2.1048	2.729104	0.000476	4.764623	1.614298	0.000191
  55	5.3730e+00	2.1449	2.898663	0.000426	4.257748	1.442564	0.000170
  56	5.4725e+00	2.1914	3.088409	0.000476	4.764623	1.614298	0.000191
  57	5.5720e+00	2.2363	3.221634	0.000335	3.345373	1.133443	0.000134
  58	5.6715e+00	2.2716	3.423491	0.000507	5.068747	1.717338	0.000203
  59	5.7710e+00	2.3053	3.564791	0.000355	3.548123	1.202137	0.000142
  60	5.8705e+00	2.3518	3.742425	0.000446	4.460498	1.511258	0.000179
  61	5.9700e+00	2.3871	3.920059	0.000446	4.460498	1.511258	0.000179
  62	6.0695e+00	2.4368	4.049247	0.000324	3.243998	1.099096	0.000130
  63	6.1690e+00	2.4625	4.230918	0.000456	4.561873	1.545604	0.000183
  64	6.2685e+00	2.5090	4.384329	0.000385	3.852248	1.305177	0.000154
  65	6.3680e+00	2.5475	4.517555	0.000335	3.345373	1.133443	0.000134
  66	6.4675e+00	2.5908	4.719412	0.000507	5.068747	1.717338	0.000203
  67	6.5670e+00	2.6293	4.901083	0.000456	4.561873	1.545604	0.000183
  68	6.6665e+00	2.6662	5.050457	0.000375	3.750873	1.270830	0.000150
  69	6.7660e+00	2.7112	5.268462	0.000547	5.474247	1.854725	0.000219
  70	6.8655e+00	2.7432	5.409762	0.000355	3.548123	1.202137	0.000142
  71	6.9650e+00	2.7930	5.579322	0.000426	4.257748	1.442564	0.000170
  72	7.0645e+00	2.8299	5.712547	0.000335	3.345373	1.133443	0.000134
  73	7.1640e+00	2.8684	5.958812	0.000618	6.183872	2.095152	0.000248
  74	7.2635e+00	2.9069	6.075889	0.000294	2.939874	0.996056	0.000118
  75	7.3630e+00	2.9470	6.217189	0.000355	3.548123	1.202137	0.000142
  76	7.4625e+00	2.9871	6.394823	0.000446	4.460498	1.511258	0.000179
  77	7.5620e+00	3.0240	6.572457	0.000446	4.460498	1.511258	0.000179
  78	7.6615e+00	3.0737	6.737980	0.000416	4.156373	1.408217	0.000166
  79	7.7610e+00	3.1106	6.935799	0.000497	4.967372	1.682991	0.000199
  80	7.8605e+00	3.1363	7.089210	0.000385	3.852248	1.305177	0.000154
  81	7.9600e+00	3.1860	7.242622	0.000385	3.852248	1.305177	0.000154
  82	8.0595e+00	3.2229	7.416218	0.000436	4.359123	1.476911	0.000174
  83	8.1590e+00	3.2646	7.585778	0.000426	4.257748	1.442564	0.000170
  84	8.2585e+00	3.3047	7.747263	0.000405	4.054998	1.373870	0.000162
  85	8.3580e+00	3.3416	7.941046	0.000487	4.865998	1.648645	0.000195
  86	8.4575e+00	3.3801	8.082346	0.000355	3.548123	1.202137	0.000142
  87	8.5570e+00	3.4266	8.235757	0.000385	3.852248	1.305177	0.000154
  88	8.6565e+00	3.4635	8.453762	0.000547	5.474247	1.854725	0.000219
  89	8.7560e+00	3.5069	8.647545	0.000487	4.865998	1.648645	0.000195
  90	8.8555e+00	3.5454	8.772696	0.000314	3.142623	1.064750	0.000126
  91	8.9550e+00	3.5871	8.962441	0.000476	4.764623	1.614298	0.000191
  92	9.0545e+00	3.6208	9.156224	0.000487	4.865998	1.648645	0.000195
  93	9.1540e+00	3.6625	9.325784	0.000426	4.257748	1.442564	0.000170
  94	9.2535e+00	3.6962	9.483232	0.000395	3.953623	1.339524	0.000158
  95	9.3530e+00	3.7475	9.693163	0.000527	5.271497	1.786032	0.000211
  96	9.4525e+00	3.7764	9.790054	0.000243	2.432999	0.824322	0.000097
  97	9.5520e+00	3.8277	10.016134	0.000568	5.676997	1.923419	0.000227
  98	9.6515e+00	3.8614	10.173582	0.000395	3.953623	1.339524	0.000158
  99	9.7510e+00	3.9015	10.322956	0.000375	3.750873	1.270830	0.000150
 100	9.8505e+00	3.9368	10.504627	0.000456	4.561873	1.545604	0.000183
 101	9.9500e+00	3.9897	10.698410	0.000487	4.865998	1.648645	0.000195
 102	1.0050e+01	4.0154	10.884118	0.000466	4.663248	1.579951	0.000187
 103	1.0149e+01	4.0619	11.057715	0.000436	4.359123	1.476911	0.000174
 104	1.0248e+01	4.0956	11.199015	0.000355	3.548123	1.202137	0.000142
 105	1.0348e+01	4.1405	11.408946	0.000527	5.271497	1.786032	0.000211
 106	1.0447e+01	4.1854	11.538134	0.000324	3.243998	1.099096	0.000130
 107	1.0547e+01	4.2288	11.727879	0.000476	4.764623	1.614298	0.000191
 108	1.0646e+01	4.2544	11.877253	0.000375	3.750873	1.270830	0.000150
 109	1.0746e+01	4.3026	12.066999	0.000476	4.764623	1.614298	0.000191
 110	1.0845e+01	4.3459	12.268856	0.000507	5.068747	1.717338	0.000203
 111	1.0945e+01	4.3908	12.426304	0.000395	3.953623	1.339524	0.000158
 112	1.1044e+01	4.4213	12.575678	0.000375	3.750873	1.270830	0.000150
 113	1.1144e+01	4.4550	12.729089	0.000385	3.852248	1.305177	0.000154
 114	1.1243e+01	4.5111	12.934983	0.000517	5.170122	1.751685	0.000207
 115	1.1343e+01	4.5464	13.112617	0.000446	4.460498	1.511258	0.000179
 116	1.1443e+01	4.5881	13.225657	0.000284	2.838499	0.961709	0.000114
 117	1.1542e+01	4.6186	13.411365	0.000466	4.663248	1.579951	0.000187
 118	1.1642e+01	4.6555	13.560739	0.000375	3.750873	1.270830	0.000150
 119	1.1741e+01	4.7052	13.746447	0.000466	4.663248	1.579951	0.000187
 120	1.1841e+01	4.7437	13.899858	0.000385	3.852248	1.305177	0.000154
 121	1.1940e+01	4.7726	14.089604	0.000476	4.764623	1.614298	0.000191
 122	1.2040e+01	4.8239	14.238978	0.000375	3.750873	1.270830	0.000150
 123	1.2139e+01	4.8560	14.444872	0.000517	5.170122	1.751685	0.000207
 124	1.2239e+01	4.9106	14.610394	0.000416	4.156373	1.408217	0.000166
 125	1.2338e+01	4.9346	14.779954	0.000426	4.257748	1.442564	0.000170
 126	1.2438e+01	4.9779	14.929328	0.000375	3.750873	1.270830	0.000150
 127	1.2537e+01	5.0261	15.098888	0.000426	4.257748	1.442564	0.000170
 128	1.2636e+01	5.0646	15.288633	0.000476	4.764623	1.614298	0.000191
 129	1.2736e+01	5.0918	15.450118	0.000405	4.054998	1.373870	0.000162
 130	1.2835e+01	5.1416	15.595455	0.000365	3.649498	1.236483	0.000146
 131	1.2935e+01	5.1801	15.785201	0.000476	4.764623	1.614298	0.000191
 132	1.3034e+01	5.2266	15.946686	0.000405	4.054998	1.373870	0.000162
 133	1.3134e+01	5.2603	16.079912	0.000335	3.345373	1.133443	0.000134
 134	1.3233e+01	5.2940	16.249471	0.000426	4.257748	1.442564	0.000170
 135	1.3333e+01	5.3357	16.467477	0.000547	5.474247	1.854725	0.000219
 136	1.3432e+01	5.3886	16.596665	0.000324	3.243998	1.099096	0.000130
 137	1.3532e+01	5.4143	16.826782	0.000578	5.778372	1.957765	0.000231
 138	1.3632e+01	5.4528	16.923673	0.000243	2.432999	0.824322	0.000097
 139	1.3731e+01	5.4897	17.081121	0.000395	3.953623	1.339524	0.000158
 140	1.3831e+01	5.5394	17.266830	0.000466	4.663248	1.579951	0.000187
 141	1.3930e+01	5.5731	17.484835	0.000547	5.474247	1.854725	0.000219
 142	1.4030e+01	5.6180	17.658432	0.000436	4.359123	1.476911	0.000174
 143	1.4129e+01	5.6581	17.819917	0.000405	4.054998	1.373870	0.000162
 144	1.4229e+01	5.6934	17.936994	0.000294	2.939874	0.996056	0.000118
 145	1.4328e+01	5.7464	18.118665	0.000456	4.561873	1.545604	0.000183
 146	1.4428e+01	5.7720	18.268039	0.000375	3.750873	1.270830	0.000150
 147	1.4527e+01	5.8218	18.457785	0.000476	4.764623	1.614298	0.000191
 148	1.4627e+01	5.8619	18.611196	0.000385	3.852248	1.305177	0.000154
 149	1.4726e+01	5.8972	18.748458	0.000345	3.446748	1.167790	0.000138
 150	1.4825e+01	5.9244	18.950315	0.000507	5.068747	1.717338	0.000203
 151	1.4925e+01	5.9694	19.067392	0.000294	2.939874	0.996056	0.000118
 152	1.5024e+01	6.0095	19.277323	0.000527	5.271497	1.786032	0.000211
 153	1.5124e+01	6.0544	19.450920	0.000436	4.359123	1.476911	0.000174
 154	1.5223e+01	6.0961	19.608368	0.000395	3.953623	1.339524	0.000158
 155	1.5323e+01	6.1362	19.777928	0.000426	4.257748	1.442564	0.000170
 156	1.5422e+01	6.1827	19.927302	0.000375	3.750873	1.270830	0.000150
 157	1.5522e+01	6.2068	20.104936	0.000446	4.460498	1.511258	0.000179
 158	1.5621e+01	6.2517	20.294681	0.000476	4.764623	1.614298	0.000191
 159	1.5721e+01	6.2950	20.456167	0.000405	4.054998	1.373870	0.000162
 160	1.5820e+01	6.3303	20.585355	0.000324	3.243998	1.099096	0.000130
 161	1.5920e+01	6.3752	20.758952	0.000436	4.359123	1.476911	0.000174
 162	1.6020e+01	6.4105	20.948697	0.000476	4.764623	1.614298	0.000191
 163	1.6119e+01	6.4586	21.134406	0.000466	4.663248	1.579951	0.000187
 164	1.6218e+01	6.4875	21.239371	0.000264	2.635749	0.893016	0.000105
 165	1.6318e+01	6.5340	21.417005	0.000446	4.460498	1.511258	0.000179
 166	1.6418e+01	6.5645	21.614825	0.000497	4.967372	1.682991	0.000199
 167	1.6517e+01	6.6143	21.760162	0.000365	3.649498	1.236483	0.000146
 168	1.6616e+01	6.6576	21.897424	0.000345	3.446748	1.167790	0.000138
 169	1.6716e+01	6.7057	22.115430	0.000547	5.474247	1.854725	0.000219
 170	1.6816e+01	6.7282	22.252692	0.000345	3.446748	1.167790	0.000138
 171	1.6915e+01	6.7634	22.426289	0.000436	4.359123	1.476911	0.000174
 172	1.7015e+01	6.8100	22.571626	0.000365	3.649498	1.236483	0.000146
 173	1.7114e+01	6.8372	22.745223	0.000436	4.359123	1.476911	0.000174
 174	1.7213e+01	6.8966	22.910745	0.000416	4.156373	1.408217	0.000166
 175	1.7313e+01	6.9335	23.080305	0.000426	4.257748	1.442564	0.000170
 176	1.7413e+01	6.9656	23.229679	0.000375	3.750873	1.270830	0.000150
 177	1.7512e+01	7.0089	23.411350	0.000456	4.561873	1.545604	0.000183
 178	1.7611e+01	7.0474	23.560724	0.000375	3.750873	1.270830	0.000150
 179	1.7711e+01	7.0939	23.702024	0.000355	3.548123	1.202137	0.000142
 180	1.7811e+01	7.1244	23.831212	0.000324	3.243998	1.099096	0.000130
 181	1.7910e+01	7.1677	24.016921	0.000466	4.663248	1.579951	0.000187
 182	1.8009e+01	7.2030	24.146109	0.000324	3.243998	1.099096	0.000130
 183	1.8109e+01	7.2575	24.372188	0.000568	5.676997	1.923419	0.000227
 184	1.8209e+01	7.2880	24.485228	0.000284	2.838499	0.961709	0.000114
 185	1.8308e+01	7.3329	24.711308	0.000568	5.676997	1.923419	0.000227
 186	1.8407e+01	7.3682	24.844533	0.000335	3.345373	1.133443	0.000134
 187	1.8507e+01	7.4083	24.981796	0.000345	3.446748	1.167790	0.000138
 188	1.8607e+01	7.4565	25.151356	0.000426	4.257748	1.442564	0.000170
 189	1.8706e+01	7.4966	25.320915	0.000426	4.257748	1.442564	0.000170
 190	1.8805e+01	7.5239	25.474327	0.000385	3.852248	1.305177	0.000154
 191	1.8905e+01	7.5656	25.639849	0.000416	4.156373	1.408217	0.000166
 192	1.9005e+01	7.6041	25.821520	0.000456	4.561873	1.545604	0.000183
 193	1.9104e+01	7.6410	25.999154	0.000446	4.460498	1.511258	0.000179
 194	1.9203e+01	7.6923	26.136417	0.000345	3.446748	1.167790	0.000138
 195	1.9303e+01	7.7292	26.289828	0.000385	3.852248	1.305177	0.000154
 196	1.9402e+01	7.7709	26.463425	0.000436	4.359123	1.476911	0.000174
 197	1.9502e+01	7.8078	26.645096	0.000456	4.561873	1.545604	0.000183
 198	1.9602e+01	7.8495	26.794470	0.000375	3.750873	1.270830	0.000150
 199	1.9701e+01	7.8880	26.968067	0.000436	4.359123	1.476911	0.000174
 200	1.9800e+01	7.9249	27.133589	0.000416	4.156373	1.408217	0.000166
 201	1.9900e+01	7.9650	27.278926	0.000365	3.649498	1.236483	0.000146
 202	2.0000e+01	8.0083	27.452523	0.000436	4.359123	1.476911	0.000174
 203	2.0099e+01	8.0468	27.581711	0.000324	3.243998	1.099096	0.000130
 204	2.0198e+01	8.0934	27.803754	0.000558	5.575622	1.889072	0.000223
 205	2.0298e+01	8.1254	27.953128	0.000375	3.750873	1.270830	0.000150
 206	2.0398e+01	8.1543	28.150948	0.000497	4.967372	1.682991	0.000199
 207	2.0497e+01	8.2105	28.276099	0.000314	3.142623	1.064750	0.000126
 208	2.0596e+01	8.2425	28.409324	0.000335	3.345373	1.133443	0.000134
 209	2.0696e+01	8.2875	28.651552	0.000608	6.082497	2.060806	0.000243
 210	2.0796e+01	8.3244	28.821112	0.000426	4.257748	1.442564	0.000170
 211	2.0895e+01	8.3661	28.942226	0.000304	3.041248	1.030403	0.000122
 212	2.0994e+01	8.4126	29.119860	0.000446	4.460498	1.511258	0.000179
 213	2.1094e+01	8.4447	29.245011	0.000314	3.142623	1.064750	0.000126
 214	2.1194e+01	8.4848	29.434757	0.000476	4.764623	1.614298	0.000191
 215	2.1293e+01	8.5217	29.624502	0.000476	4.764623	1.614298	0.000191
 216	2.1392e+01	8.5554	29.757728	0.000335	3.345373	1.133443	0.000134
 217	2.1492e+01	8.5955	29.967659	0.000527	5.271497	1.786032	0.000211
 218	2.1591e+01	8.6356	30.088773	0.000304	3.041248	1.030403	0.000122
 219	2.1691e+01	8.6821	30.286592	0.000497	4.967372	1.682991	0.000199
 220	2.1791e+01	8.7350	30.472301	0.000466	4.663248	1.579951	0.000187
 221	2.1890e+01	8.7655	30.585340	0.000284	2.838499	0.961709	0.000114
 222	2.1989e+01	8.7960	30.779123	0.000487	4.865998	1.648645	0.000195
 223	2.2089e+01	8.8554	30.944645	0.000416	4.156373	1.408217	0.000166
 224	2.2189e+01	8.8810	31.102094	0.000395	3.953623	1.339524	0.000158
 225	2.2288e+01	8.9195	31.271653	0.000426	4.257748	1.442564	0.000170
 226	2.2387e+01	8.9661	31.425065	0.000385	3.852248	1.305177	0.000154
 227	2.2487e+01	9.0014	31.598661	0.000436	4.359123	1.476911	0.000174
 228	2.2587e+01	9.0527	31.776295	0.000446	4.460498	1.511258	0.000179
 229	2.2686e+01	9.0784	31.945855	0.000426	4.257748	1.442564	0.000170
 230	2.2785e+01	9.1233	32.095229	0.000375	3.750873	1.270830	0.000150
 231	2.2885e+01	9.1618	32.284974	0.000476	4.764623	1.614298	0.000191
 232	2.2985e+01	9.2003	32.398014	0.000284	2.838499	0.961709	0.000114
 233	2.3084e+01	9.2404	32.603908	0.000517	5.170122	1.751685	0.000207
 234	2.3183e+01	9.2853	32.745208	0.000355	3.548123	1.202137	0.000142
 235	2.3283e+01	9.3174	32.918805	0.000436	4.359123	1.476911	0.000174
 236	2.3383e+01	9.3623	33.080290	0.000405	4.054998	1.373870	0.000162
 237	2.3482e+01	9.3960	33.270036	0.000476	4.764623	1.614298	0.000191
 238	2.3581e+01	9.4457	33.395187	0.000314	3.142623	1.064750	0.000126
 239	2.3681e+01	9.4794	33.588969	0.000487	4.865998	1.648645	0.000195
 240	2.3780e+01	9.5195	33.774678	0.000466	4.663248	1.579951	0.000187
 241	2.3880e+01	9.5612	33.891755	0.000294	2.939874	0.996056	0.000118
 242	2.3980e+01	9.5885	34.053240	0.000405	4.054998	1.373870	0.000162
 243	2.4079e+01	9.6495	34.242985	0.000476	4.764623	1.614298	0.000191
 244	2.4178e+01	9.6815	34.408508	0.000416	4.156373	1.408217	0.000166
 245	2.4278e+01	9.7281	34.574030	0.000416	4.156373	1.408217	0.000166
 246	2.4378e+01	9.7585	34.763776	0.000476	4.764623	1.614298	0.000191
 247	2.4477e+01	9.7922	34.905076	0.000355	3.548123	1.202137	0.000142
 248	2.4576e+01	9.8323	35.066561	0.000405	4.054998	1.373870	0.000162
 249	2.4676e+01	9.8773	35.203824	0.000345	3.446748	1.167790	0.000138
 250	2.4776e+01	9.9142	35.361272	0.000395	3.953623	1.339524	0.000158
 251	2.4875e+01	9.9591	35.555054	0.000487	4.865998	1.648645	0.000195
 252	2.4974e+01	9.9960	35.732688	0.000446	4.460498	1.511258	0.000179
 253	2.5074e+01	10.0393	35.902248	0.000426	4.257748	1.442564	0.000170
 254	2.5174e+01	10.0794	36.067771	0.000416	4.156373	1.408217	0.000166
 255	2.5273e+01	10.1291	36.196959	0.000324	3.243998	1.099096	0.000130
 256	2.5372e+01	10.1516	36.374593	0.000446	4.460498	1.511258	0.000179
 257	2.5472e+01	10.1917	36.540116	0.000416	4.156373	1.408217	0.000166
 258	2.5572e+01	10.2382	36.685452	0.000365	3.649498	1.236483	0.000146
 259	2.5671e+01	10.2799	36.875198	0.000476	4.764623	1.614298	0.000191
 260	2.5770e+01	10.3152	37.008423	0.000335	3.345373	1.133443	0.000134
 261	2.5870e+01	10.3505	37.194132	0.000466	4.663248	1.579951	0.000187
 262	2.5970e+01	10.3954	37.391951	0.000497	4.967372	1.682991	0.000199
 263	2.6069e+01	10.4468	37.541325	0.000375	3.750873	1.270830	0.000150
 264	2.6169e+01	10.4740	37.710885	0.000426	4.257748	1.442564	0.000170
 265	2.6268e+01	10.5157	37.892556	0.000456	4.561873	1.545604	0.000183
 266	2.6367e+01	10.5575	38.013670	0.000304	3.041248	1.030403	0.000122
 267	2.6467e+01	10.5911	38.199378	0.000466	4.663248	1.579951	0.000187
 268	2.6567e+01	10.6377	38.413347	0.000537	5.372872	1.820378	0.000215
 269	2.6666e+01	10.6681	38.542535	0.000324	3.243998	1.099096	0.000130
 270	2.6765e+01	10.7099	38.667686	0.000314	3.142623	1.064750	0.000126
 271	2.6865e+01	10.7548	38.857431	0.000476	4.764623	1.614298	0.000191
 272	2.6965e+01	10.7869	39.026991	0.000426	4.257748	1.442564	0.000170
 273	2.7064e+01	10.8302	39.228848	0.000507	5.068747	1.717338	0.000203
 274	2.7163e+01	10.8767	39.374185	0.000365	3.649498	1.236483	0.000146
 275	2.7263e+01	10.9168	39.515485	0.000355	3.548123	1.202137	0.000142
 276	2.7363e+01	10.9537	39.725416	0.000527	5.271497	1.786032	0.000211
 277	2.7462e+01	10.9906	39.862678	0.000345	3.446748	1.167790	0.000138
 278	2.7561e+01	11.0339	39.975718	0.000284	2.838499	0.961709	0.000114
 279	2.7661e+01	11.0692	40.129129	0.000385	3.852248	1.305177	0.000154
 280	2.7761e+01	11.1205	40.363283	0.000588	5.879747	1.992112	0.000235
 281	2.7860e+01	11.1526	40.488434	0.000314	3.142623	1.064750	0.000126
 282	2.7959e+01	11.1943	40.637808	0.000375	3.750873	1.270830	0.000150
 283	2.8059e+01	11.2377	40.799294	0.000405	4.054998	1.373870	0.000162
 284	2.8159e+01	11.2762	40.972891	0.000436	4.359123	1.476911	0.000174
 285	2.8258e+01	11.3179	41.130339	0.000395	3.953623	1.339524	0.000158
 286	2.8358e+01	11.3516	41.283750	0.000385	3.852248	1.305177	0.000154
 287	2.8457e+01	11.3884	41.433124	0.000375	3.750873	1.270830	0.000150
 288	2.8556e+01	11.4286	41.614795	0.000456	4.561873	1.545604	0.000183
 289	2.8656e+01	11.4751	41.735909	0.000304	3.041248	1.030403	0.000122
 290	2.8756e+01	11.5184	41.925655	0.000476	4.764623	1.614298	0.000191
 291	2.8855e+01	11.5601	42.099251	0.000436	4.359123	1.476911	0.000174
 292	2.8954e+01	11.5906	42.252663	0.000385	3.852248	1.305177	0.000154
 293	2.9054e+01	11.6291	42.414148	0.000405	4.054998	1.373870	0.000162
 294	2.9154e+01	11.6820	42.555448	0.000355	3.548123	1.202137	0.000142
 295	2.9253e+01	11.7093	42.692710	0.000345	3.446748	1.167790	0.000138
 296	2.9352e+01	11.7494	42.846122	0.000385	3.852248	1.305177	0.000154
 297	2.9452e+01	11.8039	43.060090	0.000537	5.372872	1.820378	0.000215
 298	2.9552e+01	11.8248	43.189278	0.000324	3.243998	1.099096	0.000130
 299	2.9651e+01	11.8777	43.338652	0.000375	3.750873	1.270830	0.000150
 300	2.9750e+01	11.9130	43.479952	0.000355	3.548123	1.202137	0.000142
 301	2.9850e+01	11.9547	43.677772	0.000497	4.967372	1.682991	0.000199
 302	2.9950e+01	11.9884	43.802923	0.000314	3.142623	1.064750	0.000126
 303	3.0049e+01	12.0317	43.936148	0.000335	3.345373	1.133443	0.000134
 304	3.0148e+01	12.0654	44.113782	0.000446	4.460498	1.511258	0.000179
 305	3.0248e+01	12.1120	44.295453	0.000456	4.561873	1.545604	0.000183
 306	3.0348e+01	12.1505	44.428679	0.000335	3.345373	1.133443	0.000134
 307	3.0447e+01	12.1890	44.618424	0.000476	4.764623	1.614298	0.000191
 308	3.0547e+01	12.2307	44.759724	0.000355	3.548123	1.202137	0.000142
 309	3.0646e+01	12.2804	44.913135	0.000385	3.852248	1.305177	0.000154
 310	3.0745e+01	12.3205	45.062509	0.000375	3.750873	1.270830	0.000150
 311	3.0845e+01	12.3446	45.199772	0.000345	3.446748	1.167790	0.000138
 312	3.0945e+01	12.3895	45.377406	0.000446	4.460498	1.511258	0.000179
 313	3.1044e+01	12.4296	45.534854	0.000395	3.953623	1.339524	0.000158
 314	3.1143e+01	12.4729	45.696339	0.000405	4.054998	1.373870	0.000162
 315	3.1243e+01	12.5130	45.821491	0.000314	3.142623	1.064750	0.000126
 316	3.1343e+01	12.5499	46.003162	0.000456	4.561873	1.545604	0.000183
 317	3.1442e+01	12.5852	46.164647	0.000405	4.054998	1.373870	0.000162
 318	3.1541e+01	12.6173	46.322095	0.000395	3.953623	1.339524	0.000158
 319	3.1641e+01	12.6702	46.418987	0.000243	2.432999	0.824322	0.000097
 320	3.1741e+01	12.7007	46.572398	0.000385	3.852248	1.305177	0.000154
 321	3.1840e+01	12.7504	46.778292	0.000517	5.170122	1.751685	0.000207
 322	3.1939e+01	12.7841	46.976111	0.000497	4.967372	1.682991	0.000199
 323	3.2039e+01	12.8290	47.085114	0.000274	2.737124	0.927363	0.000110
 324	3.2139e+01	12.8676	47.222377	0.000345	3.446748	1.167790	0.000138
 325	3.2238e+01	12.9028	47.387899	0.000416	4.156373	1.408217	0.000166
 326	3.2337e+01	12.9526	47.541310	0.000385	3.852248	1.305177	0.000154
 327	3.2437e+01	12.9895	47.670499	0.000324	3.243998	1.099096	0.000130
 328	3.2536e+01	13.0232	47.827947	0.000395	3.953623	1.339524	0.000158
 329	3.2636e+01	13.0617	47.989433	0.000405	4.054998	1.373870	0.000162
 330	3.2736e+01	13.0954	48.163029	0.000436	4.359123	1.476911	0.000174
 331	3.2835e+01	13.1451	48.272032	0.000274	2.737124	0.927363	0.000110
 332	3.2934e+01	13.1740	48.469852	0.000497	4.967372	1.682991	0.000199
 333	3.3034e+01	13.2301	48.582891	0.000284	2.838499	0.961709	0.000114
 334	3.3133e+01	13.2654	48.760525	0.000446	4.460498	1.511258	0.000179
 335	3.3233e+01	13.3055	48.917974	0.000395	3.953623	1.339524	0.000158
 336	3.3333e+01	13.3456	49.014865	0.000243	2.432999	0.824322	0.000097
 337	3.3432e+01	13.3857	49.232870	0.000547	5.474247	1.854725	0.000219
 338	3.3532e+01	13.4290	49.358022	0.000314	3.142623	1.064750	0.000126
 339	3.3631e+01	13.4659	49.547767	0.000476	4.764623	1.614298	0.000191
 340	3.3730e+01	13.5028	49.672918	0.000314	3.142623	1.064750	0.000126
 341	3.3830e+01	13.5365	49.802106	0.000324	3.243998	1.099096	0.000130
 342	3.3929e+01	13.5798	49.987815	0.000466	4.663248	1.579951	0.000187
 343	3.4029e+01	13.6103	50.137189	0.000375	3.750873	1.270830	0.000150
 344	3.4129e+01	13.6681	50.294637	0.000395	3.953623	1.339524	0.000158
 345	3.4228e+01	13.7034	50.456122	0.000405	4.054998	1.373870	0.000162
 346	3.4328e+01	13.7419	50.553014	0.000243	2.432999	0.824322	0.000097
 347	3.4427e+01	13.7804	50.726611	0.000436	4.359123	1.476911	0.000174
 348	3.4526e+01	13.8140	50.855799	0.000324	3.243998	1.099096	0.000130
 349	3.4626e+01	13.8606	51.021321	0.000416	4.156373	1.408217	0.000166
 350	3.4725e+01	13.8975	51.162621	0.000355	3.548123	1.202137	0.000142
 351	3.4825e+01	13.9408	51.316032	0.000385	3.852248	1.305177	0.000154
 352	3.4925e+01	13.9713	51.457332	0.000355	3.548123	1.202137	0.000142
 353	3.5024e+01	14.0146	51.618818	0.000405	4.054998	1.373870	0.000162
 354	3.5123e+01	14.0563	51.776266	0.000395	3.953623	1.339524	0.000158
 355	3.5223e+01	14.0980	51.925640	0.000375	3.750873	1.270830	0.000150
 356	3.5322e+01	14.1349	52.103274	0.000446	4.460498	1.511258	0.000179
 357	3.5422e+01	14.1798	52.220351	0.000294	2.939874	0.996056	0.000118
 358	3.5522e+01	14.2167	52.393948	0.000436	4.359123	1.476911	0.000174
 359	3.5621e+01	14.2584	52.559470	0.000416	4.156373	1.408217	0.000166
 360	3.5721e+01	14.2985	52.700770	0.000355	3.548123	1.202137	0.000142
 361	3.5820e+01	14.3418	52.866292	0.000416	4.156373	1.408217	0.000166
 362	3.5919e+01	14.3803	52.991444	0.000314	3.142623	1.064750	0.000126
 363	3.6019e+01	14.4124	53.152929	0.000405	4.054998	1.373870	0.000162
 364	3.6118e+01	14.4606	53.278080	0.000314	3.142623	1.064750	0.000126
 365	3.6218e+01	14.5103	53.451677	0.000436	4.359123	1.476911	0.000174
 366	3.6318e+01	14.5456	53.617200	0.000416	4.156373	1.408217	0.000166
 367	3.6417e+01	14.5680	53.762537	0.000365	3.649498	1.236483	0.000146
 368	3.6517e+01	14.6322	53.907874	0.000365	3.649498	1.236483	0.000146
 369	3.6616e+01	14.6595	54.057248	0.000375	3.750873	1.270830	0.000150
 370	3.6715e+01	14.6996	54.263141	0.000517	5.170122	1.751685	0.000207
 371	3.6815e+01	14.7333	54.376181	0.000284	2.838499	0.961709	0.000114
 372	3.6914e+01	14.7750	54.541704	0.000416	4.156373	1.408217	0.000166
 373	3.7014e+01	14.8183	54.715301	0.000436	4.359123	1.476911	0.000174
 374	3.7114e+01	14.8552	54.820266	0.000264	2.635749	0.893016	0.000105
 375	3.7213e+01	14.9017	55.010012	0.000476	4.764623	1.614298	0.000191
 376	3.7313e+01	14.9338	55.175534	0.000416	4.156373	1.408217	0.000166
 377	3.7412e+01	14.9835	55.280500	0.000264	2.635749	0.893016	0.000105
 378	3.7511e+01	15.0252	55.462171	0.000456	4.561873	1.545604	0.000183
 379	3.7611e+01	15.0477	55.627693	0.000416	4.156373	1.408217	0.000166
 380	3.7711e+01	15.0926	55.760919	0.000335	3.345373	1.133443	0.000134
 381	3.7810e+01	15.1407	55.918367	0.000395	3.953623	1.339524	0.000158
 382	3.7910e+01	15.1760	56.071778	0.000385	3.852248	1.305177	0.000154
 383	3.8009e+01	15.2210	56.192892	0.000304	3.041248	1.030403	0.000122
 384	3.8108e+01	15.2546	56.362452	0.000426	4.257748	1.442564	0.000170
 385	3.8208e+01	15.2996	56.523937	0.000405	4.054998	1.373870	0.000162
 386	3.8307e+01	15.3445	56.673311	0.000375	3.750873	1.270830	0.000150
 387	3.8407e+01	15.3782	56.834797	0.000405	4.054998	1.373870	0.000162
 388	3.8507e+01	15.4151	57.012431	0.000446	4.460498	1.511258	0.000179
 389	3.8606e+01	15.4568	57.113359	0.000253	2.534374	0.858669	0.000101
 390	3.8706e+01	15.4857	57.319253	0.000517	5.170122	1.751685	0.000207
 391	3.8805e+01	15.5338	57.460553	0.000355	3.548123	1.202137	0.000142
 392	3.8904e+01	15.5851	57.622038	0.000405	4.054998	1.373870	0.000162
 393	3.9004e+01	15.6108	57.771412	0.000375	3.750873	1.270830	0.000150
 394	3.9103e+01	15.6573	57.888489	0.000294	2.939874	0.996056	0.000118
 395	3.9203e+01	15.6974	58.106495	0.000547	5.474247	1.854725	0.000219
 396	3.9303e+01	15.7311	58.243757	0.000345	3.446748	1.167790	0.000138
 397	3.9402e+01	15.7776	58.405243	0.000405	4.054998	1.373870	0.000162
 398	3.9502e+01	15.8033	58.578840	0.000436	4.359123	1.476911	0.000174
 399	3.9601e+01	15.8546	58.695916	0.000294	2.939874	0.996056	0.000118
 400	3.9700e+01	15.8963	58.881625	0.000466	4.663248	1.579951	0.000187
 401	3.9800e+01	15.9413	59.006776	0.000314	3.142623	1.064750	0.000126
 402	3.9900e+01	15.9766	59.148076	0.000355	3.548123	1.202137	0.000142
 403	3.9999e+01	16.0167	59.321673	0.000436	4.359123	1.476911	0.000174
 404	4.0099e+01	16.0520	59.418564	0.000243	2.432999	0.824322	0.000097
 405	4.0198e+01	16.0889	59.652718	0.000588	5.879747	1.992112	0.000235
 406	4.0297e+01	16.1450	59.745572	0.000233	2.331624	0.789976	0.000093
 407	4.0397e+01	16.1739	59.935317	0.000476	4.764623	1.614298	0.000191
 408	4.0496e+01	16.2188	60.088728	0.000385	3.852248	1.305177	0.000154
 409	4.0596e+01	16.2605	60.254251	0.000416	4.156373	1.408217	0.000166
 410	4.0696e+01	16.2894	60.363254	0.000274	2.737124	0.927363	0.000110
 411	4.0795e+01	16.3423	60.561073	0.000497	4.967372	1.682991	0.000199
 412	4.0895e+01	16.3680	60.666039	0.000264	2.635749	0.893016	0.000105
 413	4.0994e+01	16.4145	60.823487	0.000395	3.953623	1.339524	0.000158
 414	4.1093e+01	16.4578	60.984972	0.000405	4.054998	1.373870	0.000162
 415	4.1193e+01	16.4915	61.142421	0.000395	3.953623	1.339524	0.000158
 416	4.1292e+01	16.5300	61.307943	0.000416	4.156373	1.408217	0.000166
 417	4.1392e+01	16.5605	61.493652	0.000466	4.663248	1.579951	0.000187
 418	4.1492e+01	16.6118	61.638988	0.000365	3.649498	1.236483	0.000146
 419	4.1591e+01	16.6535	61.743954	0.000264	2.635749	0.893016	0.000105
 420	4.1691e+01	16.6888	61.897365	0.000385	3.852248	1.305177	0.000154
 421	4.1790e+01	16.7273	62.050776	0.000385	3.852248	1.305177	0.000154
 422	4.1889e+01	16.7739	62.208225	0.000395	3.953623	1.339524	0.000158
 423	4.1989e+01	16.8059	62.385859	0.000446	4.460498	1.511258	0.000179
 424	4.2089e+01	16.8557	62.535233	0.000375	3.750873	1.270830	0.000150
 425	4.2188e+01	16.8926	62.692681	0.000395	3.953623	1.339524	0.000158
 426	4.2288e+01	16.9279	62.846092	0.000385	3.852248	1.305177	0.000154
 427	4.2387e+01	16.9728	62.975280	0.000324	3.243998	1.099096	0.000130
 428	4.2486e+01	17.0113	63.152914	0.000446	4.460498	1.511258	0.000179
 429	4.2586e+01	17.0498	63.310363	0.000395	3.953623	1.339524	0.000158
 430	4.2685e+01	17.0899	63.487997	0.000446	4.460498	1.511258	0.000179
 431	4.2785e+01	17.1300	63.621222	0.000335	3.345373	1.133443	0.000134
 432	4.2885e+01	17.1701	63.794819	0.000436	4.359123	1.476911	0.000174
 433	4.2984e+01	17.2086	63.948230	0.000385	3.852248	1.305177	0.000154
 434	4.3084e+01	17.2535	64.069344	0.000304	3.041248	1.030403	0.000122
 435	4.3183e+01	17.2888	64.242941	0.000436	4.359123	1.476911	0.000174
 436	4.3282e+01	17.3193	64.408464	0.000416	4.156373	1.408217	0.000166
 437	4.3382e+01	17.3674	64.525541	0.000294	2.939874	0.996056	0.000118
 438	4.3481e+01	17.4091	64.687026	0.000405	4.054998	1.373870	0.000162
 439	4.3581e+01	17.4508	64.832363	0.000365	3.649498	1.236483	0.000146
 440	4.3681e+01	17.4877	65.001923	0.000426	4.257748	1.442564	0.000170
 441	4.3780e+01	17.5311	65.183594	0.000456	4.561873	1.545604	0.000183
 442	4.3880e+01	17.5663	65.316819	0.000335	3.345373	1.133443	0.000134
 443	4.3979e+01	17.6049	65.498490	0.000456	4.561873	1.545604	0.000183
 444	4.4078e+01	17.6514	65.623641	0.000314	3.142623	1.064750	0.000126
 445	4.4178e+01	17.6883	65.756867	0.000335	3.345373	1.133443	0.000134
 446	4.4278e+01	17.7204	65.882018	0.000314	3.142623	1.064750	0.000126
 447	4.4377e+01	17.7653	66.063689	0.000456	4.561873	1.545604	0.000183
 448	4.4477e+01	17.7958	66.217100	0.000385	3.852248	1.305177	0.000154
 449	4.4576e+01	17.8519	66.354363	0.000345	3.446748	1.167790	0.000138
 450	4.4675e+01	17.8856	66.511811	0.000395	3.953623	1.339524	0.000158
 451	4.4775e+01	17.9289	66.632925	0.000304	3.041248	1.030403	0.000122
 452	4.4874e+01	17.9642	66.814596	0.000456	4.561873	1.545604	0.000183
 453	4.4974e+01	18.0075	66.947822	0.000335	3.345373	1.133443	0.000134
 454	4.5074e+01	18.0396	67.133530	0.000466	4.663248	1.579951	0.000187
 455	4.5173e+01	18.0845	67.254644	0.000304	3.041248	1.030403	0.000122
 456	4.5273e+01	18.1230	67.408055	0.000385	3.852248	1.305177	0.000154
 457	4.5372e+01	18.1744	67.553392	0.000365	3.649498	1.236483	0.000146
 458	4.5471e+01	18.2129	67.710841	0.000395	3.953623	1.339524	0.000158
 459	4.5571e+01	18.2498	67.872326	0.000405	4.054998	1.373870	0.000162
 460	4.5670e+01	18.2866	68.017663	0.000365	3.649498	1.236483	0.000146
 461	4.5770e+01	18.3268	68.146851	0.000324	3.243998	1.099096	0.000130
 462	4.5870e+01	18.3685	68.304300	0.000395	3.953623	1.339524	0.000158
 463	4.5969e+01	18.4102	68.453674	0.000375	3.750873	1.270830	0.000150
 464	4.6069e+01	18.4374	68.574788	0.000304	3.041248	1.030403	0.000122
 465	4.6168e+01	18.4920	68.708013	0.000335	3.345373	1.133443	0.000134
 466	4.6267e+01	18.5321	68.881610	0.000436	4.359123	1.476911	0.000174
 467	4.6367e+01	18.5674	69.010798	0.000324	3.243998	1.099096	0.000130
 468	4.6467e+01	18.5995	69.192469	0.000456	4.561873	1.545604	0.000183
 469	4.6566e+01	18.6444	69.329732	0.000345	3.446748	1.167790	0.000138
 470	4.6666e+01	18.6797	69.458920	0.000324	3.243998	1.099096	0.000130
 471	4.6765e+01	18.7294	69.600220	0.000355	3.548123	1.202137	0.000142
 472	4.6864e+01	18.7663	69.769780	0.000426	4.257748	1.442564	0.000170
 473	4.6964e+01	18.7952	69.907042	0.000345	3.446748	1.167790	0.000138
 474	4.7063e+01	18.8433	70.016045	0.000274	2.737124	0.927363	0.000110
 475	4.7163e+01	18.8834	70.213865	0.000497	4.967372	1.682991	0.000199
 476	4.7263e+01	18.9203	70.339016	0.000314	3.142623	1.064750	0.000126
 477	4.7362e+01	18.9684	70.472241	0.000335	3.345373	1.133443	0.000134
 478	4.7462e+01	19.0037	70.609504	0.000345	3.446748	1.167790	0.000138
 479	4.7561e+01	19.0422	70.770989	0.000405	4.054998	1.373870	0.000162
 480	4.7660e+01	19.0904	70.916326	0.000365	3.649498	1.236483	0.000146
 481	4.7760e+01	19.1225	71.037440	0.000304	3.041248	1.030403	0.000122
 482	4.7859e+01	19.1610	71.194889	0.000395	3.953623	1.339524	0.000158
 483	4.7959e+01	19.1979	71.336188	0.000355	3.548123	1.202137	0.000142
 484	4.8059e+01	19.2315	71.497674	0.000405	4.054998	1.373870	0.000162
 485	4.8158e+01	19.2845	71.643011	0.000365	3.649498	1.236483	0.000146
 486	4.8258e+01	19.3230	71.796422	0.000385	3.852248	1.305177	0.000154
 487	4.8357e+01	19.3551	71.925610	0.000324	3.243998	1.099096	0.000130
 488	4.8456e+01	19.4096	72.062873	0.000345	3.446748	1.167790	0.000138
 489	4.8556e+01	19.4385	72.232433	0.000426	4.257748	1.442564	0.000170
 490	4.8656e+01	19.4786	72.357584	0.000314	3.142623	1.064750	0.000126
 491	4.8755e+01	19.5171	72.490809	0.000335	3.345373	1.133443	0.000134
 492	4.8855e+01	19.5572	72.636146	0.000365	3.649498	1.236483	0.000146
 493	4.8954e+01	19.5909	72.833966	0.000497	4.967372	1.682991	0.000199
 494	4.9053e+01	19.6422	72.914709	0.000203	2.027499	0.686935	0.000081
 495	4.9153e+01	19.6775	73.051971	0.000345	3.446748	1.167790	0.000138
 496	4.9252e+01	19.7192	73.197308	0.000365	3.649498	1.236483	0.000146
 497	4.9352e+01	19.7625	73.346682	0.000375	3.750873	1.270830	0.000150
 498	4.9452e+01	19.8010	73.524316	0.000446	4.460498	1.511258	0.000179
 499	4.9551e+01	19.8315	73.641393	0.000294	2.939874	0.996056	0.000118
 500	4.9651e+01	19.8748	73.810953	0.000426	4.257748	1.442564	0.000170
 501	4.9750e+01	19.9182	73.936104	0.000314	3.142623	1.064750	0.000126
 502	4.9849e+01	19.9583	74.077404	0.000355	3.548123	1.202137	0.000142
 503	4.9949e+01	19.9968	74.194481	0.000294	2.939874	0.996056	0.000118
 504	5.0048e+01	19.9615	74.105664	0.000223	2.230249	0.755629	-0.000089
 505	5.0148e+01	19.9182	74.000698	0.000264	2.635749	0.893016	-0.000105
 506	5.0248e+01	19.8764	73.875547	0.000314	3.142623	1.064750	-0.000126
 507	5.0347e+01	19.8379	73.774618	0.000253	2.534374	0.858669	-0.000101
 508	5.0447e+01	19.7930	73.677727	0.000243	2.432999	0.824322	-0.000097
 509	5.0546e+01	19.7593	73.560650	0.000294	2.939874	0.996056	-0.000118
 510	5.0645e+01	19.7176	73.431462	0.000324	3.243998	1.099096	-0.000130
 511	5.0745e+01	19.6743	73.314385	0.000294	2.939874	0.996056	-0.000118
 512	5.0844e+01	19.6438	73.189234	0.000314	3.142623	1.064750	-0.000126
 513	5.0944e+01	19.6021	73.080231	0.000274	2.737124	0.927363	-0.000110
 514	5.1044e+01	19.5620	72.959117	0.000304	3.041248	1.030403	-0.000122
 515	5.1143e+01	19.5107	72.821854	0.000345	3.446748	1.167790	-0.000138
 516	5.1242e+01	19.4834	72.704778	0.000294	2.939874	0.996056	-0.000118
 517	5.1342e+01	19.4353	72.591738	0.000284	2.838499	0.961709	-0.000114
 518	5.1441e+01	19.4000	72.474661	0.000294	2.939874	0.996056	-0.000118
 519	5.1541e+01	19.3615	72.333361	0.000355	3.548123	1.202137	-0.000142
 520	5.1641e+01	19.3182	72.196098	0.000345	3.446748	1.167790	-0.000138
 521	5.1740e+01	19.2861	72.107281	0.000223	2.230249	0.755629	-0.000089
 522	5.1840e+01	19.2412	71.990204	0.000294	2.939874	0.996056	-0.000118
 523	5.1939e+01	19.1946	71.885239	0.000264	2.635749	0.893016	-0.000105
 524	5.2038e+01	19.1577	71.743939	0.000355	3.548123	1.202137	-0.000142
 525	5.2138e+01	19.1160	71.610714	0.000335	3.345373	1.133443	-0.000134
 526	5.2237e+01	19.0856	71.509785	0.000253	2.534374	0.858669	-0.000101
 527	5.2337e+01	19.0455	71.388671	0.000304	3.041248	1.030403	-0.000122
 528	5.2437e+01	18.9973	71.251409	0.000345	3.446748	1.167790	-0.000138
 529	5.2536e+01	18.9572	71.150480	0.000253	2.534374	0.858669	-0.000101
 530	5.2636e+01	18.9203	71.029366	0.000304	3.041248	1.030403	-0.000122
 531	5.2735e+01	18.8818	70.888066	0.000355	3.548123	1.202137	-0.000142
 532	5.2834e+01	18.8433	70.791175	0.000243	2.432999	0.824322	-0.000097
 533	5.2934e+01	18.8080	70.621615	0.000426	4.257748	1.442564	-0.000170
 534	5.3033e+01	18.7615	70.561058	0.000152	1.520624	0.515201	-0.000061
 535	5.3133e+01	18.7198	70.359202	0.000507	5.068747	1.717338	-0.000203
 536	5.3233e+01	18.6733	70.286533	0.000182	1.824749	0.618242	-0.000073
 537	5.3332e+01	18.6524	70.149271	0.000345	3.446748	1.167790	-0.000138
 538	5.3431e+01	18.5963	70.044305	0.000264	2.635749	0.893016	-0.000105
 539	5.3531e+01	18.5513	69.919154	0.000314	3.142623	1.064750	-0.000126
 540	5.3630e+01	18.5273	69.798040	0.000304	3.041248	1.030403	-0.000122
 541	5.3730e+01	18.4872	69.668851	0.000324	3.243998	1.099096	-0.000130
 542	5.3830e+01	18.4439	69.539663	0.000324	3.243998	1.099096	-0.000130
 543	5.3929e+01	18.4070	69.438735	0.000253	2.534374	0.858669	-0.000101
 544	5.4029e+01	18.3685	69.301472	0.000345	3.446748	1.167790	-0.000138
 545	5.4128e+01	18.3268	69.164209	0.000345	3.446748	1.167790	-0.000138
 546	5.4227e+01	18.2834	69.026947	0.000345	3.446748	1.167790	-0.000138
 547	5.4327e+01	18.2417	68.893721	0.000335	3.345373	1.133443	-0.000134
 548	5.4426e+01	18.2016	68.796830	0.000243	2.432999	0.824322	-0.000097
 549	5.4526e+01	18.1615	68.655530	0.000355	3.548123	1.202137	-0.000142
 550	5.4626e+01	18.1294	68.546528	0.000274	2.737124	0.927363	-0.000110
 551	5.4725e+01	18.0797	68.401191	0.000365	3.649498	1.236483	-0.000146
 552	5.4825e+01	18.0412	68.263928	0.000345	3.446748	1.167790	-0.000138
 553	5.4924e+01	18.0091	68.183185	0.000203	2.027499	0.686935	-0.000081
 554	5.5023e+01	17.9658	68.049960	0.000335	3.345373	1.133443	-0.000134
 555	5.5123e+01	17.9257	67.916735	0.000335	3.345373	1.133443	-0.000134
 556	5.5222e+01	17.8888	67.831955	0.000213	2.128874	0.721282	-0.000085
 557	5.5322e+01	17.8487	67.674506	0.000395	3.953623	1.339524	-0.000158
 558	5.5422e+01	17.8054	67.545318	0.000324	3.243998	1.099096	-0.000130
 559	5.5521e+01	17.7605	67.420167	0.000314	3.142623	1.064750	-0.000126
 560	5.5620e+01	17.7236	67.274830	0.000365	3.649498	1.236483	-0.000146
 561	5.5720e+01	17.6915	67.169864	0.000264	2.635749	0.893016	-0.000105
 562	5.5819e+01	17.6401	67.032602	0.000345	3.446748	1.167790	-0.000138
 563	5.5919e+01	17.6081	66.923599	0.000274	2.737124	0.927363	-0.000110
 564	5.6019e+01	17.5696	66.778262	0.000365	3.649498	1.236483	-0.000146
 565	5.6118e+01	17.5278	66.661185	0.000294	2.939874	0.996056	-0.000118
 566	5.6218e+01	17.4877	66.491626	0.000426	4.257748	1.442564	-0.000170
 567	5.6317e+01	17.4573	66.398771	0.000233	2.331624	0.789976	-0.000093
 568	5.6416e+01	17.4027	66.285732	0.000284	2.838499	0.961709	-0.000114
 569	5.6516e+01	17.3722	66.144432	0.000355	3.548123	1.202137	-0.000142
 570	5.6615e+01	17.3305	65.999095	0.000365	3.649498	1.236483	-0.000146
 571	5.6715e+01	17.2936	65.886055	0.000284	2.838499	0.961709	-0.000114
 572	5.6815e+01	17.2535	65.768978	0.000294	2.939874	0.996056	-0.000118
 573	5.6914e+01	17.1990	65.659976	0.000274	2.737124	0.927363	-0.000110
 574	5.7014e+01	17.1685	65.510602	0.000375	3.750873	1.270830	-0.000150
 575	5.7113e+01	17.1300	65.377376	0.000335	3.345373	1.133443	-0.000134
 576	5.7212e+01	17.0931	65.256262	0.000304	3.041248	1.030403	-0.000122
 577	5.7312e+01	17.0514	65.098814	0.000395	3.953623	1.339524	-0.000158
 578	5.7411e+01	17.0129	64.977700	0.000304	3.041248	1.030403	-0.000122
 579	5.7511e+01	16.9616	64.876771	0.000253	2.534374	0.858669	-0.000101
 580	5.7611e+01	16.9231	64.747583	0.000324	3.243998	1.099096	-0.000130
 581	5.7710e+01	16.8813	64.638580	0.000274	2.737124	0.927363	-0.000110
 582	5.7809e+01	16.8477	64.481132	0.000395	3.953623	1.339524	-0.000158
 583	5.7909e+01	16.8011	64.372129	0.000274	2.737124	0.927363	-0.000110
 584	5.8008e+01	16.7690	64.234867	0.000345	3.446748	1.167790	-0.000138
 585	5.8108e+01	16.7321	64.065307	0.000426	4.257748	1.442564	-0.000170
 586	5.8208e+01	16.6920	63.980527	0.000213	2.128874	0.721282	-0.000085
 587	5.8307e+01	16.6519	63.851339	0.000324	3.243998	1.099096	-0.000130
 588	5.8407e+01	16.6118	63.742336	0.000274	2.737124	0.927363	-0.000110
 589	5.8506e+01	16.5669	63.596999	0.000365	3.649498	1.236483	-0.000146
 590	5.8605e+01	16.5300	63.423402	0.000436	4.359123	1.476911	-0.000174
 591	5.8705e+01	16.4803	63.350734	0.000182	1.824749	0.618242	-0.000073
 592	5.8804e+01	16.4482	63.261917	0.000223	2.230249	0.755629	-0.000089
 593	5.8904e+01	16.4177	63.100432	0.000405	4.054998	1.373870	-0.000162
 594	5.9004e+01	16.3776	62.963169	0.000345	3.446748	1.167790	-0.000138
 595	5.9103e+01	16.3279	62.842055	0.000304	3.041248	1.030403	-0.000122
 596	5.9203e+01	16.2958	62.708829	0.000335	3.345373	1.133443	-0.000134
 597	5.9302e+01	16.2541	62.579641	0.000324	3.243998	1.099096	-0.000130
 598	5.9401e+01	16.2076	62.438341	0.000355	3.548123	1.202137	-0.000142
 599	5.9501e+01	16.1691	62.361636	0.000193	1.926124	0.652588	-0.000077
 600	5.9600e+01	16.1322	62.204187	0.000395	3.953623	1.339524	-0.000158
 601	5.9700e+01	16.0937	62.062888	0.000355	3.548123	1.202137	-0.000142
 602	5.9800e+01	16.0520	61.961959	0.000253	2.534374	0.858669	-0.000101
 603	5.9899e+01	16.0118	61.808548	0.000385	3.852248	1.305177	-0.000154
 604	5.9998e+01	15.9798	61.667248	0.000355	3.548123	1.202137	-0.000142
 605	6.0098e+01	15.9348	61.602654	0.000162	1.621999	0.549548	-0.000065
 606	6.0197e+01	15.8931	61.412909	0.000476	4.764623	1.614298	-0.000191
 607	6.0297e+01	15.8578	61.303906	0.000274	2.737124	0.927363	-0.000110
 608	6.0397e+01	15.8193	61.166644	0.000345	3.446748	1.167790	-0.000138
 609	6.0496e+01	15.7696	61.033418	0.000335	3.345373	1.133443	-0.000134
 610	6.0596e+01	15.7279	60.940564	0.000233	2.331624	0.789976	-0.000093
 611	6.0695e+01	15.6910	60.758893	0.000456	4.561873	1.545604	-0.000183
 612	6.0794e+01	15.6509	60.633742	0.000314	3.142623	1.064750	-0.000126
 613	6.0894e+01	15.6124	60.504553	0.000324	3.243998	1.099096	-0.000130
 614	6.0993e+01	15.5675	60.347105	0.000395	3.953623	1.339524	-0.000158
 615	6.1093e+01	15.5338	60.258288	0.000223	2.230249	0.755629	-0.000089
 616	6.1193e+01	15.4985	60.112951	0.000365	3.649498	1.236483	-0.000146
 617	6.1292e+01	15.4648	59.947429	0.000416	4.156373	1.408217	-0.000166
 618	6.1392e+01	15.4183	59.814203	0.000335	3.345373	1.133443	-0.000134
 619	6.1491e+01	15.3734	59.701163	0.000284	2.838499	0.961709	-0.000114
 620	6.1590e+01	15.3349	59.567938	0.000335	3.345373	1.133443	-0.000134
 621	6.1690e+01	15.2899	59.426638	0.000355	3.548123	1.202137	-0.000142
 622	6.1789e+01	15.2498	59.289375	0.000345	3.446748	1.167790	-0.000138
 623	6.1889e+01	15.2210	59.123853	0.000416	4.156373	1.408217	-0.000166
 624	6.1989e+01	15.1825	59.035036	0.000223	2.230249	0.755629	-0.000089
 625	6.2088e+01	15.1279	58.861439	0.000436	4.359123	1.476911	-0.000174
 626	6.2188e+01	15.0910	58.736288	0.000314	3.142623	1.064750	-0.000126
 627	6.2287e+01	15.0605	58.603062	0.000335	3.345373	1.133443	-0.000134
 628	6.2386e+01	15.0188	58.485985	0.000294	2.939874	0.996056	-0.000118
 629	6.2486e+01	14.9739	58.372946	0.000284	2.838499	0.961709	-0.000114
 630	6.2586e+01	14.9258	58.203386	0.000426	4.257748	1.442564	-0.000170
 631	6.2685e+01	14.8953	58.058049	0.000365	3.649498	1.236483	-0.000146
 632	6.2785e+01	14.8632	57.949046	0.000274	2.737124	0.927363	-0.000110
 633	6.2884e+01	14.8135	57.803709	0.000365	3.649498	1.236483	-0.000146
 634	6.2983e+01	14.7734	57.666447	0.000345	3.446748	1.167790	-0.000138
 635	6.3083e+01	14.7317	57.513036	0.000385	3.852248	1.305177	-0.000154
 636	6.3182e+01	14.7028	57.391922	0.000304	3.041248	1.030403	-0.000122
 637	6.3282e+01	14.6482	57.258696	0.000335	3.345373	1.133443	-0.000134
 638	6.3382e+01	14.6162	57.089136	0.000426	4.257748	1.442564	-0.000170
 639	6.3481e+01	14.5841	56.972060	0.000294	2.939874	0.996056	-0.000118
 640	6.3581e+01	14.5376	56.842871	0.000324	3.243998	1.099096	-0.000130
 641	6.3680e+01	14.4975	56.685423	0.000395	3.953623	1.339524	-0.000158
 642	6.3779e+01	14.4606	56.527975	0.000395	3.953623	1.339524	-0.000158
 643	6.3879e+01	14.4204	56.402823	0.000314	3.142623	1.064750	-0.000126
 644	6.3978e+01	14.3771	56.253449	0.000375	3.750873	1.270830	-0.000150
 645	6.4078e+01	14.3418	56.152521	0.000253	2.534374	0.858669	-0.000101
 646	6.4177e+01	14.3049	55.995073	0.000395	3.953623	1.339524	-0.000158
 647	6.4277e+01	14.2632	55.857810	0.000345	3.446748	1.167790	-0.000138
 648	6.4376e+01	14.2039	55.724585	0.000335	3.345373	1.133443	-0.000134
 649	6.4476e+01	14.1814	55.575211	0.000375	3.750873	1.270830	-0.000150
 650	6.4576e+01	14.1477	55.454096	0.000304	3.041248	1.030403	-0.000122
 651	6.4675e+01	14.1012	55.268388	0.000466	4.663248	1.579951	-0.000187
 652	6.4775e+01	14.0643	55.123051	0.000365	3.649498	1.236483	-0.000146
 653	6.4874e+01	14.0210	55.001937	0.000304	3.041248	1.030403	-0.000122
 654	6.4974e+01	13.9841	54.880823	0.000304	3.041248	1.030403	-0.000122
 655	6.5073e+01	13.9408	54.703189	0.000446	4.460498	1.511258	-0.000179
 656	6.5172e+01	13.9007	54.561889	0.000355	3.548123	1.202137	-0.000142
 657	6.5272e+01	13.8606	54.436738	0.000314	3.142623	1.064750	-0.000126
 658	6.5371e+01	13.8285	54.327736	0.000274	2.737124	0.927363	-0.000110
 659	6.5471e+01	13.7788	54.170287	0.000395	3.953623	1.339524	-0.000158
 660	6.5570e+01	13.7467	54.020913	0.000375	3.750873	1.270830	-0.000150
 661	6.5670e+01	13.7066	53.863465	0.000395	3.953623	1.339524	-0.000158
 662	6.5769e+01	13.6649	53.726202	0.000345	3.446748	1.167790	-0.000138
 663	6.5869e+01	13.6231	53.605088	0.000304	3.041248	1.030403	-0.000122
 664	6.5969e+01	13.5830	53.431491	0.000436	4.359123	1.476911	-0.000174
 665	6.6068e+01	13.5477	53.314415	0.000294	2.939874	0.996056	-0.000118
 666	6.6168e+01	13.5044	53.152929	0.000405	4.054998	1.373870	-0.000162
 667	6.6267e+01	13.4659	53.043926	0.000274	2.737124	0.927363	-0.000110
 668	6.6367e+01	13.4226	52.842070	0.000507	5.068747	1.717338	-0.000203
 669	6.6466e+01	13.3857	52.765364	0.000193	1.926124	0.652588	-0.000077
 670	6.6566e+01	13.3472	52.551396	0.000537	5.372872	1.820378	-0.000215
 671	6.6665e+01	13.3023	52.458542	0.000233	2.331624	0.789976	-0.000093
 672	6.6764e+01	13.2606	52.284945	0.000436	4.359123	1.476911	-0.000174
 673	6.6864e+01	13.2317	52.159794	0.000314	3.142623	1.064750	-0.000126
 674	6.6963e+01	13.1804	51.998308	0.000405	4.054998	1.373870	-0.000162
 675	6.7063e+01	13.1419	51.893343	0.000264	2.635749	0.893016	-0.000105
 676	6.7162e+01	13.1002	51.699560	0.000487	4.865998	1.648645	-0.000195
 677	6.7262e+01	13.0617	51.582483	0.000294	2.939874	0.996056	-0.000118
 678	6.7362e+01	13.0216	51.441184	0.000355	3.548123	1.202137	-0.000142
 679	6.7461e+01	12.9895	51.231253	0.000527	5.271497	1.786032	-0.000211
 680	6.7561e+01	12.9430	51.154547	0.000193	1.926124	0.652588	-0.000077
 681	6.7660e+01	12.9028	50.989024	0.000416	4.156373	1.408217	-0.000166
 682	6.7760e+01	12.8708	50.839650	0.000375	3.750873	1.270830	-0.000150
 683	6.7859e+01	12.8242	50.698351	0.000355	3.548123	1.202137	-0.000142
 684	6.7959e+01	12.7922	50.544939	0.000385	3.852248	1.305177	-0.000154
 685	6.8058e+01	12.7553	50.391528	0.000385	3.852248	1.305177	-0.000154
 686	6.8157e+01	12.7071	50.238117	0.000385	3.852248	1.305177	-0.000154
 687	6.8257e+01	12.6718	50.100855	0.000345	3.446748	1.167790	-0.000138
 688	6.8356e+01	12.6205	49.967629	0.000335	3.345373	1.133443	-0.000134
 689	6.8456e+01	12.5884	49.830366	0.000345	3.446748	1.167790	-0.000138
 690	6.8555e+01	12.5451	49.680992	0.000375	3.750873	1.270830	-0.000150
 691	6.8655e+01	12.5082	49.503358	0.000446	4.460498	1.511258	-0.000179
 692	6.8754e+01	12.4649	49.374170	0.000324	3.243998	1.099096	-0.000130
 693	6.8854e+01	12.4360	49.212685	0.000405	4.054998	1.373870	-0.000162
 694	6.8954e+01	12.3991	49.091571	0.000304	3.041248	1.030403	-0.000122
 695	6.9053e+01	12.3494	48.942197	0.000375	3.750873	1.270830	-0.000150
 696	6.9153e+01	12.3077	48.772637	0.000426	4.257748	1.442564	-0.000170
 697	6.9252e+01	12.2676	48.639411	0.000335	3.345373	1.133443	-0.000134
 698	6.9352e+01	12.2371	48.498112	0.000355	3.548123	1.202137	-0.000142
 699	6.9451e+01	12.1922	48.340663	0.000395	3.953623	1.339524	-0.000158
 700	6.9550e+01	12.1440	48.158992	0.000456	4.561873	1.545604	-0.000183
 701	6.9650e+01	12.1039	48.033841	0.000314	3.142623	1.064750	-0.000126
 702	6.9749e+01	12.0783	47.920801	0.000284	2.838499	0.961709	-0.000114
 703	6.9849e+01	12.0285	47.787576	0.000335	3.345373	1.133443	-0.000134
 704	6.9948e+01	11.9900	47.682610	0.000264	2.635749	0.893016	-0.000105
 705	7.0048e+01	11.9547	47.476716	0.000517	5.170122	1.751685	-0.000207
 706	7.0147e+01	11.9082	47.319268	0.000395	3.953623	1.339524	-0.000158
 707	7.0247e+01	11.8697	47.173931	0.000365	3.649498	1.236483	-0.000146
 708	7.0347e+01	11.8264	47.064928	0.000274	2.737124	0.927363	-0.000110
 709	7.0446e+01	11.7943	46.935740	0.000324	3.243998	1.099096	-0.000130
 710	7.0546e+01	11.7542	46.786366	0.000375	3.750873	1.270830	-0.000150
 711	7.0645e+01	11.7173	46.568361	0.000547	5.474247	1.854725	-0.000219
 712	7.0745e+01	11.6724	46.479544	0.000223	2.230249	0.755629	-0.000089
 713	7.0844e+01	11.6355	46.346318	0.000335	3.345373	1.133443	-0.000134
 714	7.0944e+01	11.5954	46.136387	0.000527	5.271497	1.786032	-0.000211
 715	7.1043e+01	11.5505	46.067756	0.000172	1.723374	0.583895	-0.000069
 716	7.1142e+01	11.5184	45.922419	0.000365	3.649498	1.236483	-0.000146
 717	7.1242e+01	11.4735	45.748822	0.000436	4.359123	1.476911	-0.000174
 718	7.1341e+01	11.4237	45.607522	0.000355	3.548123	1.202137	-0.000142
 719	7.1441e+01	11.3965	45.446037	0.000405	4.054998	1.373870	-0.000162
 720	7.1540e+01	11.3516	45.328960	0.000294	2.939874	0.996056	-0.000118
 721	7.1640e+01	11.3211	45.179586	0.000375	3.750873	1.270830	-0.000150
 722	7.1740e+01	11.2778	45.034249	0.000365	3.649498	1.236483	-0.000146
 723	7.1839e+01	11.2312	44.884875	0.000375	3.750873	1.270830	-0.000150
 724	7.1939e+01	11.2008	44.792021	0.000233	2.331624	0.789976	-0.000093
 725	7.2038e+01	11.1590	44.586127	0.000517	5.170122	1.751685	-0.000207
 726	7.2138e+01	11.1141	44.469050	0.000294	2.939874	0.996056	-0.000118
 727	7.2237e+01	11.0692	44.283342	0.000466	4.663248	1.579951	-0.000187
 728	7.2337e+01	11.0435	44.158191	0.000314	3.142623	1.064750	-0.000126
 729	7.2436e+01	10.9890	44.004780	0.000385	3.852248	1.305177	-0.000154
 730	7.2535e+01	10.9585	43.871554	0.000335	3.345373	1.133443	-0.000134
 731	7.2635e+01	10.9056	43.681809	0.000476	4.764623	1.614298	-0.000191
 732	7.2734e+01	10.8735	43.560695	0.000304	3.041248	1.030403	-0.000122
 733	7.2834e+01	10.8350	43.419395	0.000355	3.548123	1.202137	-0.000142
 734	7.2933e+01	10.7965	43.270021	0.000375	3.750873	1.270830	-0.000150
 735	7.3033e+01	10.7564	43.181204	0.000223	2.230249	0.755629	-0.000089
 736	7.3132e+01	10.7211	42.995496	0.000466	4.663248	1.579951	-0.000187
 737	7.3232e+01	10.6778	42.862270	0.000335	3.345373	1.133443	-0.000134
 738	7.3332e+01	10.6313	42.712896	0.000375	3.750873	1.270830	-0.000150
 739	7.3431e+01	10.6008	42.539299	0.000436	4.359123	1.476911	-0.000174
 740	7.3531e+01	10.5526	42.426259	0.000284	2.838499	0.961709	-0.000114
 741	7.3630e+01	10.5093	42.276885	0.000375	3.750873	1.270830	-0.000150
 742	7.3730e+01	10.4724	42.111363	0.000416	4.156373	1.408217	-0.000166
 743	7.3829e+01	10.4436	41.961989	0.000375	3.750873	1.270830	-0.000150
 744	7.3928e+01	10.3922	41.861060	0.000253	2.534374	0.858669	-0.000101
 745	7.4028e+01	10.3505	41.643055	0.000547	5.474247	1.854725	-0.000219
 746	7.4127e+01	10.3136	41.501755	0.000355	3.548123	1.202137	-0.000142
 747	7.4227e+01	10.2799	41.360456	0.000355	3.548123	1.202137	-0.000142
 748	7.4326e+01	10.2430	41.223193	0.000345	3.446748	1.167790	-0.000138
 749	7.4426e+01	10.1933	41.102079	0.000304	3.041248	1.030403	-0.000122
 750	7.4525e+01	10.1548	40.948668	0.000385	3.852248	1.305177	-0.000154
 751	7.4625e+01	10.1227	40.787182	0.000405	4.054998	1.373870	-0.000162
 752	7.4725e+01	10.0762	40.641845	0.000365	3.649498	1.236483	-0.000146
 753	7.4824e+01	10.0377	40.520731	0.000304	3.041248	1.030403	-0.000122
 754	7.4924e+01	10.0056	40.343097	0.000446	4.460498	1.511258	-0.000179
 755	7.5023e+01	9.9607	40.201798	0.000355	3.548123	1.202137	-0.000142
 756	7.5123e+01	9.9222	40.060498	0.000355	3.548123	1.202137	-0.000142
 757	7.5222e+01	9.8789	39.931310	0.000324	3.243998	1.099096	-0.000130
 758	7.5322e+01	9.8404	39.773861	0.000395	3.953623	1.339524	-0.000158
 759	7.5421e+01	9.8003	39.640636	0.000335	3.345373	1.133443	-0.000134
 760	7.5520e+01	9.7618	39.483188	0.000395	3.953623	1.339524	-0.000158
 761	7.5620e+01	9.7200	39.297479	0.000466	4.663248	1.579951	-0.000187
 762	7.5719e+01	9.6751	39.188477	0.000274	2.737124	0.927363	-0.000110
 763	7.5819e+01	9.6446	39.026991	0.000405	4.054998	1.373870	-0.000162
 764	7.5918e+01	9.5997	38.917989	0.000274	2.737124	0.927363	-0.000110
 765	7.6018e+01	9.5548	38.752466	0.000416	4.156373	1.408217	-0.000166
 766	7.6118e+01	9.5195	38.627315	0.000314	3.142623	1.064750	-0.000126
 767	7.6217e+01	9.4858	38.441606	0.000466	4.663248	1.579951	-0.000187
 768	7.6317e+01	9.4361	38.336641	0.000264	2.635749	0.893016	-0.000105
 769	7.6416e+01	9.3976	38.211490	0.000314	3.142623	1.064750	-0.000126
 770	7.6516e+01	9.3591	38.017707	0.000487	4.865998	1.648645	-0.000195
 771	7.6615e+01	9.3190	37.872370	0.000365	3.649498	1.236483	-0.000146
 772	7.6715e+01	9.2869	37.755293	0.000294	2.939874	0.996056	-0.000118
 773	7.6814e+01	9.2372	37.601882	0.000385	3.852248	1.305177	-0.000154
 774	7.6913e+01	9.2019	37.444434	0.000395	3.953623	1.339524	-0.000158
 775	7.7013e+01	9.1586	37.315246	0.000324	3.243998	1.099096	-0.000130
 776	7.7112e+01	9.1201	37.141649	0.000436	4.359123	1.476911	-0.000174
 777	7.7212e+01	9.0816	36.984200	0.000395	3.953623	1.339524	-0.000158
 778	7.7311e+01	9.0415	36.871161	0.000284	2.838499	0.961709	-0.000114
 779	7.7411e+01	8.9933	36.709675	0.000405	4.054998	1.373870	-0.000162
 780	7.7510e+01	8.9645	36.556264	0.000385	3.852248	1.305177	-0.000154
 781	7.7610e+01	8.9340	36.386704	0.000426	4.257748	1.442564	-0.000170
 782	7.7710e+01	8.8794	36.265590	0.000304	3.041248	1.030403	-0.000122
 783	7.7809e+01	8.8457	36.067771	0.000497	4.967372	1.682991	-0.000199
 784	7.7909e+01	8.8072	35.982991	0.000213	2.128874	0.721282	-0.000085
 785	7.8008e+01	8.7671	35.773060	0.000527	5.271497	1.786032	-0.000211
 786	7.8108e+01	8.7254	35.655983	0.000294	2.939874	0.996056	-0.000118
 787	7.8207e+01	8.6853	35.498535	0.000395	3.953623	1.339524	-0.000158
 788	7.8306e+01	8.6452	35.353198	0.000365	3.649498	1.236483	-0.000146
 789	7.8406e+01	8.6019	35.131155	0.000558	5.575622	1.889072	-0.000223
 790	7.8505e+01	8.5634	35.022153	0.000274	2.737124	0.927363	-0.000110
 791	7.8605e+01	8.5233	34.872779	0.000375	3.750873	1.270830	-0.000150
 792	7.8704e+01	8.4864	34.715330	0.000395	3.953623	1.339524	-0.000158
 793	7.8804e+01	8.4447	34.578068	0.000345	3.446748	1.167790	-0.000138
 794	7.8903e+01	8.4046	34.444842	0.000335	3.345373	1.133443	-0.000134
 795	7.9003e+01	8.3661	34.255097	0.000476	4.764623	1.614298	-0.000191
 796	7.9103e+01	8.3228	34.121871	0.000335	3.345373	1.133443	-0.000134
 797	7.9202e+01	8.2939	33.944237	0.000446	4.460498	1.511258	-0.000179
 798	7.9302e+01	8.2393	33.782752	0.000405	4.054998	1.373870	-0.000162
 799	7.9401e+01	8.2024	33.645489	0.000345	3.446748	1.167790	-0.000138
 800	7.9501e+01	8.1704	33.496115	0.000375	3.750873	1.270830	-0.000150
 801	7.9600e+01	8.1254	33.354815	0.000355	3.548123	1.202137	-0.000142
 802	7.9700e+01	8.0869	33.177181	0.000446	4.460498	1.511258	-0.000179
 803	7.9799e+01	8.0452	32.979362	0.000497	4.967372	1.682991	-0.000199
 804	7.9898e+01	8.0035	32.846136	0.000335	3.345373	1.133443	-0.000134
 805	7.9998e+01	7.9698	32.729059	0.000294	2.939874	0.996056	-0.000118
 806	8.0097e+01	7.9297	32.579685	0.000375	3.750873	1.270830	-0.000150
 807	8.0197e+01	7.8928	32.410126	0.000426	4.257748	1.442564	-0.000170
 808	8.0296e+01	7.8479	32.272863	0.000345	3.446748	1.167790	-0.000138
 809	8.0396e+01	7.7998	32.087155	0.000466	4.663248	1.579951	-0.000187
 810	8.0496e+01	7.7597	31.925669	0.000405	4.054998	1.373870	-0.000162
 811	8.0595e+01	7.7212	31.788407	0.000345	3.446748	1.167790	-0.000138
 812	8.0695e+01	7.6795	31.594624	0.000487	4.865998	1.648645	-0.000195
 813	8.0794e+01	7.6538	31.449287	0.000365	3.649498	1.236483	-0.000146
 814	8.0894e+01	7.6025	31.303951	0.000365	3.649498	1.236483	-0.000146
 815	8.0993e+01	7.5704	31.142465	0.000405	4.054998	1.373870	-0.000162
 816	8.1093e+01	7.5287	31.021351	0.000304	3.041248	1.030403	-0.000122
 817	8.1192e+01	7.4805	30.847754	0.000436	4.359123	1.476911	-0.000174
 818	8.1291e+01	7.4485	30.674157	0.000436	4.359123	1.476911	-0.000174
 819	8.1391e+01	7.4100	30.500561	0.000436	4.359123	1.476911	-0.000174
 820	8.1490e+01	7.3634	30.375409	0.000314	3.142623	1.064750	-0.000126
 821	8.1590e+01	7.3265	30.234110	0.000355	3.548123	1.202137	-0.000142
 822	8.1689e+01	7.2848	30.052438	0.000456	4.561873	1.545604	-0.000183
 823	8.1789e+01	7.2495	29.886916	0.000416	4.156373	1.408217	-0.000166
 824	8.1888e+01	7.2126	29.733505	0.000385	3.852248	1.305177	-0.000154
 825	8.1988e+01	7.1693	29.555871	0.000446	4.460498	1.511258	-0.000179
 826	8.2088e+01	7.1356	29.410534	0.000365	3.649498	1.236483	-0.000146
 827	8.2187e+01	7.0891	29.273271	0.000345	3.446748	1.167790	-0.000138
 828	8.2287e+01	7.0506	29.111786	0.000405	4.054998	1.373870	-0.000162
 829	8.2386e+01	7.0057	28.918003	0.000487	4.865998	1.648645	-0.000195
 830	8.2486e+01	6.9720	28.817075	0.000253	2.534374	0.858669	-0.000101
 831	8.2585e+01	6.9255	28.615218	0.000507	5.068747	1.717338	-0.000203
 832	8.2684e+01	6.8870	28.445658	0.000426	4.257748	1.442564	-0.000170
 833	8.2784e+01	6.8485	28.308396	0.000345	3.446748	1.167790	-0.000138
 834	8.2883e+01	6.8148	28.098465	0.000527	5.271497	1.786032	-0.000211
 835	8.2983e+01	6.7731	27.945054	0.000385	3.852248	1.305177	-0.000154
 836	8.3082e+01	6.7298	27.840088	0.000264	2.635749	0.893016	-0.000105
 837	8.3182e+01	6.6945	27.646306	0.000487	4.865998	1.648645	-0.000195
 838	8.3281e+01	6.6495	27.513080	0.000335	3.345373	1.133443	-0.000134
 839	8.3381e+01	6.6062	27.375817	0.000345	3.446748	1.167790	-0.000138
 840	8.3481e+01	6.5709	27.190109	0.000466	4.663248	1.579951	-0.000187
 841	8.3580e+01	6.5308	26.996327	0.000487	4.865998	1.648645	-0.000195
 842	8.3680e+01	6.4939	26.863101	0.000335	3.345373	1.133443	-0.000134
 843	8.3779e+01	6.4506	26.717764	0.000365	3.649498	1.236483	-0.000146
 844	8.3879e+01	6.4121	26.536093	0.000456	4.561873	1.545604	-0.000183
 845	8.3978e+01	6.3752	26.394793	0.000355	3.548123	1.202137	-0.000142
 846	8.4078e+01	6.3351	26.196974	0.000497	4.967372	1.682991	-0.000199
 847	8.4177e+01	6.2966	26.059711	0.000345	3.446748	1.167790	-0.000138
 848	8.4276e+01	6.2581	25.902263	0.000395	3.953623	1.339524	-0.000158
 849	8.4376e+01	6.2212	25.704443	0.000497	4.967372	1.682991	-0.000199
 850	8.4475e+01	6.1843	25.546995	0.000395	3.953623	1.339524	-0.000158
 851	8.4575e+01	6.1394	25.417807	0.000324	3.243998	1.099096	-0.000130
 852	8.4674e+01	6.1009	25.195764	0.000558	5.575622	1.889072	-0.000223
 853	8.4774e+01	6.0512	25.074650	0.000304	3.041248	1.030403	-0.000122
 854	8.4874e+01	6.0159	24.905090	0.000426	4.257748	1.442564	-0.000170
 855	8.4973e+01	5.9790	24.731494	0.000436	4.359123	1.476911	-0.000174
 856	8.5073e+01	5.9389	24.598268	0.000335	3.345373	1.133443	-0.000134
 857	8.5172e+01	5.8988	24.436783	0.000405	4.054998	1.373870	-0.000162
 858	8.5272e+01	5.8603	24.267223	0.000426	4.257748	1.442564	-0.000170
 859	8.5371e+01	5.8169	24.045180	0.000558	5.575622	1.889072	-0.000223
 860	8.5471e+01	5.7688	23.899844	0.000365	3.649498	1.236483	-0.000146
 861	8.5570e+01	5.7303	23.778729	0.000304	3.041248	1.030403	-0.000122
 862	8.5669e+01	5.6998	23.588984	0.000476	4.764623	1.614298	-0.000191
 863	8.5769e+01	5.6581	23.447684	0.000355	3.548123	1.202137	-0.000142
 864	8.5868e+01	5.6180	23.253902	0.000487	4.865998	1.648645	-0.000195
 865	8.5968e+01	5.5827	23.157011	0.000243	2.432999	0.824322	-0.000097
 866	8.6067e+01	5.5426	22.955154	0.000507	5.068747	1.717338	-0.000203
 867	8.6167e+01	5.4913	22.797706	0.000395	3.953623	1.339524	-0.000158
 868	8.6266e+01	5.4480	22.684666	0.000284	2.838499	0.961709	-0.000114
 869	8.6366e+01	5.4159	22.454549	0.000578	5.778372	1.957765	-0.000231
 870	8.6466e+01	5.3838	22.309212	0.000365	3.649498	1.236483	-0.000146
 871	8.6565e+01	5.3437	22.159838	0.000375	3.750873	1.270830	-0.000150
 872	8.6665e+01	5.2940	21.986241	0.000436	4.359123	1.476911	-0.000174
 873	8.6764e+01	5.2587	21.832830	0.000385	3.852248	1.305177	-0.000154
 874	8.6864e+01	5.2122	21.703642	0.000324	3.243998	1.099096	-0.000130
 875	8.6963e+01	5.1849	21.530045	0.000436	4.359123	1.476911	-0.000174
 876	8.7063e+01	5.1368	21.356448	0.000436	4.359123	1.476911	-0.000174
 877	8.7162e+01	5.0886	21.170740	0.000466	4.663248	1.579951	-0.000187
 878	8.7261e+01	5.0565	21.029440	0.000355	3.548123	1.202137	-0.000142
 879	8.7361e+01	5.0068	20.867955	0.000405	4.054998	1.373870	-0.000162
 880	8.7460e+01	4.9779	20.702432	0.000416	4.156373	1.408217	-0.000166
 881	8.7560e+01	4.9346	20.569207	0.000335	3.345373	1.133443	-0.000134
 882	8.7659e+01	4.8945	20.395610	0.000436	4.359123	1.476911	-0.000174
 883	8.7759e+01	4.8592	20.213939	0.000456	4.561873	1.545604	-0.000183
 884	8.7859e+01	4.8175	20.072639	0.000355	3.548123	1.202137	-0.000142
 885	8.7958e+01	4.7774	19.919228	0.000385	3.852248	1.305177	-0.000154
 886	8.8058e+01	4.7389	19.737557	0.000456	4.561873	1.545604	-0.000183
 887	8.8157e+01	4.6924	19.608368	0.000324	3.243998	1.099096	-0.000130
 888	8.8257e+01	4.6635	19.418623	0.000476	4.764623	1.614298	-0.000191
 889	8.8356e+01	4.6138	19.293472	0.000314	3.142623	1.064750	-0.000126
 890	8.8456e+01	4.5753	19.111801	0.000456	4.561873	1.545604	-0.000183
 891	8.8555e+01	4.5287	18.978575	0.000335	3.345373	1.133443	-0.000134
 892	8.8654e+01	4.5047	18.772681	0.000517	5.170122	1.751685	-0.000207
 893	8.8754e+01	4.4534	18.619270	0.000385	3.852248	1.305177	-0.000154
 894	8.8853e+01	4.4277	18.486045	0.000335	3.345373	1.133443	-0.000134
 895	8.8953e+01	4.3812	18.312448	0.000436	4.359123	1.476911	-0.000174
 896	8.9052e+01	4.3427	18.138851	0.000436	4.359123	1.476911	-0.000174
 897	8.9152e+01	4.2977	17.977365	0.000405	4.054998	1.373870	-0.000162
 898	8.9251e+01	4.2624	17.807806	0.000426	4.257748	1.442564	-0.000170
 899	8.9351e+01	4.2239	17.646320	0.000405	4.054998	1.373870	-0.000162
 900	8.9451e+01	4.1822	17.529243	0.000294	2.939874	0.996056	-0.000118
 901	8.9550e+01	4.1421	17.375832	0.000385	3.852248	1.305177	-0.000154
 902	8.9650e+01	4.1068	17.190124	0.000466	4.663248	1.579951	-0.000187
 903	8.9749e+01	4.0683	17.020564	0.000426	4.257748	1.442564	-0.000170
 904	8.9849e+01	4.0186	16.879265	0.000355	3.548123	1.202137	-0.000142
 905	8.9948e+01	3.9769	16.709705	0.000426	4.257748	1.442564	-0.000170
 906	9.0047e+01	3.9352	16.548219	0.000405	4.054998	1.373870	-0.000162
 907	9.0147e+01	3.9015	16.394808	0.000385	3.852248	1.305177	-0.000154
 908	9.0246e+01	3.8662	16.225249	0.000426	4.257748	1.442564	-0.000170
 909	9.0346e+01	3.8261	16.120283	0.000264	2.635749	0.893016	-0.000105
 910	9.0445e+01	3.7796	15.918426	0.000507	5.068747	1.717338	-0.000203
 911	9.0545e+01	3.7411	15.756941	0.000405	4.054998	1.373870	-0.000162
 912	9.0644e+01	3.7026	15.555084	0.000507	5.068747	1.717338	-0.000203
 913	9.0744e+01	3.6657	15.401673	0.000385	3.852248	1.305177	-0.000154
 914	9.0844e+01	3.6288	15.232113	0.000426	4.257748	1.442564	-0.000170
 915	9.0943e+01	3.5855	15.082739	0.000375	3.750873	1.270830	-0.000150
 916	9.1043e+01	3.5470	14.921254	0.000405	4.054998	1.373870	-0.000162
 917	9.1142e+01	3.5052	14.804177	0.000294	2.939874	0.996056	-0.000118
 918	9.1242e+01	3.4716	14.602320	0.000507	5.068747	1.717338	-0.000203
 919	9.1341e+01	3.4234	14.444872	0.000395	3.953623	1.339524	-0.000158
 920	9.1441e+01	3.3897	14.287423	0.000395	3.953623	1.339524	-0.000158
 921	9.1540e+01	3.3496	14.125938	0.000405	4.054998	1.373870	-0.000162
 922	9.1639e+01	3.2999	13.960415	0.000416	4.156373	1.408217	-0.000166
 923	9.1739e+01	3.2630	13.794893	0.000416	4.156373	1.408217	-0.000166
 924	9.1838e+01	3.2341	13.689927	0.000264	2.635749	0.893016	-0.000105
 925	9.1938e+01	3.1860	13.496145	0.000487	4.865998	1.648645	-0.000195
 926	9.2037e+01	3.1379	13.383105	0.000284	2.838499	0.961709	-0.000114
 927	9.2137e+01	3.1122	13.205471	0.000446	4.460498	1.511258	-0.000179
 928	9.2237e+01	3.0657	13.035911	0.000426	4.257748	1.442564	-0.000170
 929	9.2336e+01	3.0240	12.866352	0.000426	4.257748	1.442564	-0.000170
 930	9.2436e+01	2.9791	12.708903	0.000395	3.953623	1.339524	-0.000158
 931	9.2535e+01	2.9422	12.555492	0.000385	3.852248	1.305177	-0.000154
 932	9.2635e+01	2.9117	12.414192	0.000355	3.548123	1.202137	-0.000142
 933	9.2734e+01	2.8780	12.236558	0.000446	4.460498	1.511258	-0.000179
 934	9.2834e+01	2.8299	12.079110	0.000395	3.953623	1.339524	-0.000158
 935	9.2933e+01	2.7898	11.913588	0.000416	4.156373	1.408217	-0.000166
 936	9.3032e+01	2.7448	11.768251	0.000365	3.649498	1.236483	-0.000146
 937	9.3132e+01	2.7047	11.586580	0.000456	4.561873	1.545604	-0.000183
 938	9.3231e+01	2.6646	11.461428	0.000314	3.142623	1.064750	-0.000126
 939	9.3331e+01	2.6261	11.271683	0.000476	4.764623	1.614298	-0.000191
 940	9.3430e+01	2.5892	11.150569	0.000304	3.041248	1.030403	-0.000122
 941	9.3530e+01	2.5491	11.021381	0.000324	3.243998	1.099096	-0.000130
 942	9.3629e+01	2.5074	10.819524	0.000507	5.068747	1.717338	-0.000203
 943	9.3729e+01	2.4705	10.617667	0.000507	5.068747	1.717338	-0.000203
 944	9.3829e+01	2.4288	10.484442	0.000335	3.345373	1.133443	-0.000134
 945	9.3928e+01	2.3887	10.318919	0.000416	4.156373	1.408217	-0.000166
 946	9.4028e+01	2.3454	10.173582	0.000365	3.649498	1.236483	-0.000146
 947	9.4127e+01	2.3085	10.012097	0.000405	4.054998	1.373870	-0.000162
 948	9.4227e+01	2.2668	9.850611	0.000405	4.054998	1.373870	-0.000162
 949	9.4326e+01	2.2219	9.681051	0.000426	4.257748	1.442564	-0.000170
 950	9.4425e+01	2.1978	9.515529	0.000416	4.156373	1.408217	-0.000166
 951	9.4525e+01	2.1481	9.293486	0.000558	5.575622	1.889072	-0.000223
 952	9.4624e+01	2.1192	9.156224	0.000345	3.446748	1.167790	-0.000138
 953	9.4724e+01	2.0711	8.998776	0.000395	3.953623	1.339524	-0.000158
 954	9.4823e+01	2.0342	8.865550	0.000335	3.345373	1.133443	-0.000134
 955	9.4923e+01	1.9796	8.639470	0.000568	5.676997	1.923419	-0.000227
 956	9.5022e+01	1.9507	8.506245	0.000335	3.345373	1.133443	-0.000134
 957	9.5122e+01	1.9203	8.385131	0.000304	3.041248	1.030403	-0.000122
 958	9.5222e+01	1.8705	8.183274	0.000507	5.068747	1.717338	-0.000203
 959	9.5321e+01	1.8256	8.033900	0.000375	3.750873	1.270830	-0.000150
 960	9.5421e+01	1.7919	7.896638	0.000345	3.446748	1.167790	-0.000138
 961	9.5520e+01	1.7631	7.706892	0.000476	4.764623	1.614298	-0.000191
 962	9.5620e+01	1.7117	7.545407	0.000405	4.054998	1.373870	-0.000162
 963	9.5719e+01	1.6764	7.371810	0.000436	4.359123	1.476911	-0.000174
 964	9.5819e+01	1.6363	7.202250	0.000426	4.257748	1.442564	-0.000170
 965	9.5918e+01	1.5898	7.008468	0.000487	4.865998	1.648645	-0.000195
 966	9.6017e+01	1.5481	6.903502	0.000264	2.635749	0.893016	-0.000105
 967	9.6117e+01	1.5272	6.721831	0.000456	4.561873	1.545604	-0.000183
 968	9.6216e+01	1.4743	6.524011	0.000497	4.967372	1.682991	-0.000199
 969	9.6316e+01	1.4374	6.386749	0.000345	3.446748	1.167790	-0.000138
 970	9.6415e+01	1.3957	6.245449	0.000355	3.548123	1.202137	-0.000142
 971	9.6515e+01	1.3604	6.047629	0.000497	4.967372	1.682991	-0.000199
 972	9.6615e+01	1.3091	5.853847	0.000487	4.865998	1.648645	-0.000195
 973	9.6714e+01	1.2754	5.736770	0.000294	2.939874	0.996056	-0.000118
 974	9.6814e+01	1.2369	5.571247	0.000416	4.156373	1.408217	-0.000166
 975	9.6913e+01	1.1887	5.337093	0.000588	5.879747	1.992112	-0.000235
 976	9.7013e+01	1.1502	5.207905	0.000324	3.243998	1.099096	-0.000130
 977	9.7112e+01	1.1085	5.030271	0.000446	4.460498	1.511258	-0.000179
 978	9.7212e+01	1.0700	4.884934	0.000365	3.649498	1.236483	-0.000146
 979	9.7311e+01	1.0299	4.731523	0.000385	3.852248	1.305177	-0.000154
 980	9.7410e+01	1.0010	4.545815	0.000466	4.663248	1.579951	-0.000187
 981	9.7510e+01	0.9513	4.420664	0.000314	3.142623	1.064750	-0.000126
 982	9.7609e+01	0.9096	4.210733	0.000527	5.271497	1.786032	-0.000211
 983	9.7709e+01	0.8759	4.041173	0.000426	4.257748	1.442564	-0.000170
 984	9.7808e+01	0.8422	3.871613	0.000426	4.257748	1.442564	-0.000170
 985	9.7908e+01	0.7909	3.742425	0.000324	3.243998	1.099096	-0.000130
 986	9.8007e+01	0.7620	3.564791	0.000446	4.460498	1.511258	-0.000179
 987	9.8107e+01	0.7155	3.383120	0.000456	4.561873	1.545604	-0.000183
 988	9.8207e+01	0.6770	3.205486	0.000446	4.460498	1.511258	-0.000179
 989	9.8306e+01	0.6369	3.035926	0.000426	4.257748	1.442564	-0.000170
 990	9.8406e+01	0.5904	2.874441	0.000405	4.054998	1.373870	-0.000162
 991	9.8505e+01	0.5583	2.680658	0.000487	4.865998	1.648645	-0.000195
 992	9.8605e+01	0.5198	2.531284	0.000375	3.750873	1.270830	-0.000150
 993	9.8704e+01	0.4877	2.377873	0.000385	3.852248	1.305177	-0.000154
 994	9.8803e+01	0.4283	2.220425	0.000395	3.953623	1.339524	-0.000158
 995	9.8903e+01	0.3930	2.050865	0.000426	4.257748	1.442564	-0.000170
 996	9.9002e+01	0.3529	1.865157	0.000466	4.663248	1.579951	-0.000187
 997	9.9102e+01	0.3160	1.691560	0.000436	4.359123	1.476911	-0.000174
 998	9.9201e+01	0.2775	1.574483	0.000294	2.939874	0.996056	-0.000118
 999	9.9301e+01	0.2374	1.372626	0.000507	5.068747	1.717338	-0.000203
1000	9.9400e+01	0.2037	1.199029	0.000436	4.359123	1.476911	-0.000174
1001	9.9500e+01	0.1604	0.997173	0.000507	5.068747	1.717338	-0.000203
1002	9.9600e+01	0.1139	0.811464	0.000466	4.663248	1.579951	-0.000187
1003	9.9699e+01	0.0834	0.666127	0.000365	3.649498	1.236483	-0.000146
1004	9.9799e+01	0.0321	0.536939	0.000324	3.243998	1.099096	-0.000130
1005	9.9898e+01	0.0016	0.391602	0.000365	3.649498	1.236483	-0.000146
1006	9.9998e+01	-0.0385	0.230117	0.000405	4.054998	1.373870	-0.000162
1007	1.0010e+02	-0.0738	0.060557	0.000426	4.257748	1.442564	-0.000170
1008	1.0020e+02	-0.1091	-0.129188	0.000476	4.764623	1.614298	-0.000191
1009	1.0030e+02	-0.1556	-0.290674	0.000405	4.054998	1.373870	-0.000162
1010	1.0040e+02	-0.1861	-0.423899	0.000335	3.345373	1.133443	-0.000134
1011	1.0050e+02	-0.2422	-0.637867	0.000537	5.372872	1.820378	-0.000215
1012	1.0059e+02	-0.2759	-0.803390	0.000416	4.156373	1.408217	-0.000166
1013	1.0069e+02	-0.3225	-0.924504	0.000304	3.041248	1.030403	-0.000122
1014	1.0079e+02	-0.3577	-1.130398	0.000517	5.170122	1.751685	-0.000207
1015	1.0089e+02	-0.3930	-1.295921	0.000416	4.156373	1.408217	-0.000166
1016	1.0099e+02	-0.4364	-1.477592	0.000456	4.561873	1.545604	-0.000183
1017	1.0109e+02	-0.4797	-1.651189	0.000436	4.359123	1.476911	-0.000174
1018	1.0119e+02	-0.5118	-1.824785	0.000436	4.359123	1.476911	-0.000174
1019	1.0129e+02	-0.5503	-1.998382	0.000436	4.359123	1.476911	-0.000174
1020	1.0139e+02	-0.5904	-2.184090	0.000466	4.663248	1.579951	-0.000187
1021	1.0149e+02	-0.6433	-2.341539	0.000395	3.953623	1.339524	-0.000158
1022	1.0159e+02	-0.6770	-2.482838	0.000355	3.548123	1.202137	-0.000142
1023	1.0169e+02	-0.7107	-2.672584	0.000476	4.764623	1.614298	-0.000191
1024	1.0179e+02	-0.7524	-2.866366	0.000487	4.865998	1.648645	-0.000195
1025	1.0189e+02	-0.7941	-3.003629	0.000345	3.446748	1.167790	-0.000138
1026	1.0199e+02	-0.8342	-3.197412	0.000487	4.865998	1.648645	-0.000195
1027	1.0209e+02	-0.8583	-3.330637	0.000335	3.345373	1.133443	-0.000134
1028	1.0219e+02	-0.9224	-3.516345	0.000466	4.663248	1.579951	-0.000187
1029	1.0229e+02	-0.9497	-3.689942	0.000436	4.359123	1.476911	-0.000174
1030	1.0239e+02	-0.9882	-3.843353	0.000385	3.852248	1.305177	-0.000154
1031	1.0248e+02	-1.0315	-4.037136	0.000487	4.865998	1.648645	-0.000195
1032	1.0258e+02	-1.0652	-4.150176	0.000284	2.838499	0.961709	-0.000114
1033	1.0268e+02	-1.1037	-4.339921	0.000476	4.764623	1.614298	-0.000191
1034	1.0278e+02	-1.1518	-4.525629	0.000466	4.663248	1.579951	-0.000187
1035	1.0288e+02	-1.1871	-4.650780	0.000314	3.142623	1.064750	-0.000126
1036	1.0298e+02	-1.2224	-4.828414	0.000446	4.460498	1.511258	-0.000179
1037	1.0308e+02	-1.2657	-4.989900	0.000405	4.054998	1.373870	-0.000162
1038	1.0318e+02	-1.3074	-5.143311	0.000385	3.852248	1.305177	-0.000154
1039	1.0328e+02	-1.3604	-5.377465	0.000588	5.879747	1.992112	-0.000235
1040	1.0338e+02	-1.3861	-5.474356	0.000243	2.432999	0.824322	-0.000097
1041	1.0348e+02	-1.4358	-5.700436	0.000568	5.676997	1.923419	-0.000227
1042	1.0358e+02	-1.4679	-5.817513	0.000294	2.939874	0.996056	-0.000118
1043	1.0368e+02	-1.5000	-5.987072	0.000426	4.257748	1.442564	-0.000170
1044	1.0378e+02	-1.5513	-6.128372	0.000355	3.548123	1.202137	-0.000142
1045	1.0388e+02	-1.5866	-6.322155	0.000487	4.865998	1.648645	-0.000195
1046	1.0398e+02	-1.6235	-6.455380	0.000335	3.345373	1.133443	-0.000134
1047	1.0408e+02	-1.6652	-6.669348	0.000537	5.372872	1.820378	-0.000215
1048	1.0418e+02	-1.7117	-6.838908	0.000426	4.257748	1.442564	-0.000170
1049	1.0428e+02	-1.7390	-6.980208	0.000355	3.548123	1.202137	-0.000142
1050	1.0438e+02	-1.7791	-7.137656	0.000395	3.953623	1.339524	-0.000158
1051	1.0447e+02	-1.8304	-7.295104	0.000395	3.953623	1.339524	-0.000158
1052	1.0457e+02	-1.8657	-7.472738	0.000446	4.460498	1.511258	-0.000179
1053	1.0467e+02	-1.9074	-7.601927	0.000324	3.243998	1.099096	-0.000130
1054	1.0477e+02	-1.9475	-7.779561	0.000446	4.460498	1.511258	-0.000179
1055	1.0487e+02	-1.9876	-7.932972	0.000385	3.852248	1.305177	-0.000154
1056	1.0497e+02	-2.0229	-8.090420	0.000395	3.953623	1.339524	-0.000158
1057	1.0507e+02	-2.0711	-8.264017	0.000436	4.359123	1.476911	-0.000174
1058	1.0517e+02	-2.1096	-8.421465	0.000395	3.953623	1.339524	-0.000158
1059	1.0527e+02	-2.1465	-8.586988	0.000416	4.156373	1.408217	-0.000166
1060	1.0537e+02	-2.1930	-8.756547	0.000426	4.257748	1.442564	-0.000170
1061	1.0547e+02	-2.2299	-8.909959	0.000385	3.852248	1.305177	-0.000154
1062	1.0557e+02	-2.2732	-9.115852	0.000517	5.170122	1.751685	-0.000207
1063	1.0567e+02	-2.3053	-9.232929	0.000294	2.939874	0.996056	-0.000118
1064	1.0577e+02	-2.3486	-9.398452	0.000416	4.156373	1.408217	-0.000166
1065	1.0587e+02	-2.3839	-9.559937	0.000405	4.054998	1.373870	-0.000162
1066	1.0597e+02	-2.4288	-9.717386	0.000395	3.953623	1.339524	-0.000158
1067	1.0607e+02	-2.4545	-9.874834	0.000395	3.953623	1.339524	-0.000158
1068	1.0617e+02	-2.5090	-10.056505	0.000456	4.561873	1.545604	-0.000183
1069	1.0627e+02	-2.5475	-10.193768	0.000345	3.446748	1.167790	-0.000138
1070	1.0637e+02	-2.5876	-10.363327	0.000426	4.257748	1.442564	-0.000170
1071	1.0647e+02	-2.6277	-10.516739	0.000385	3.852248	1.305177	-0.000154
1072	1.0656e+02	-2.6598	-10.658038	0.000355	3.548123	1.202137	-0.000142
1073	1.0666e+02	-2.7112	-10.823561	0.000416	4.156373	1.408217	-0.000166
1074	1.0676e+02	-2.7416	-10.964861	0.000355	3.548123	1.202137	-0.000142
1075	1.0686e+02	-2.7801	-11.158643	0.000487	4.865998	1.648645	-0.000195
1076	1.0696e+02	-2.8202	-11.352426	0.000487	4.865998	1.648645	-0.000195
1077	1.0706e+02	-2.8571	-11.517948	0.000416	4.156373	1.408217	-0.000166
1078	1.0716e+02	-2.9053	-11.643099	0.000314	3.142623	1.064750	-0.000126
1079	1.0726e+02	-2.9454	-11.788436	0.000365	3.649498	1.236483	-0.000146
1080	1.0736e+02	-2.9791	-11.998367	0.000527	5.271497	1.786032	-0.000211
1081	1.0746e+02	-3.0224	-12.123519	0.000314	3.142623	1.064750	-0.000126
1082	1.0756e+02	-3.0609	-12.309227	0.000466	4.663248	1.579951	-0.000187
1083	1.0766e+02	-3.1154	-12.438415	0.000324	3.243998	1.099096	-0.000130
1084	1.0776e+02	-3.1459	-12.595864	0.000395	3.953623	1.339524	-0.000158
1085	1.0786e+02	-3.1828	-12.793683	0.000497	4.967372	1.682991	-0.000199
1086	1.0796e+02	-3.2229	-12.902686	0.000274	2.737124	0.927363	-0.000110
1087	1.0806e+02	-3.2598	-13.088394	0.000466	4.663248	1.579951	-0.000187
1088	1.0816e+02	-3.2951	-13.225657	0.000345	3.446748	1.167790	-0.000138
1089	1.0826e+02	-3.3400	-13.362919	0.000345	3.446748	1.167790	-0.000138
1090	1.0836e+02	-3.3769	-13.544590	0.000456	4.561873	1.545604	-0.000183
1091	1.0845e+02	-3.4106	-13.673779	0.000324	3.243998	1.099096	-0.000130
1092	1.0855e+02	-3.4635	-13.867561	0.000487	4.865998	1.648645	-0.000195
1093	1.0865e+02	-3.5004	-13.968490	0.000253	2.534374	0.858669	-0.000101
1094	1.0875e+02	-3.5438	-14.194569	0.000568	5.676997	1.923419	-0.000227
1095	1.0885e+02	-3.5919	-14.275312	0.000203	2.027499	0.686935	-0.000081
1096	1.0895e+02	-3.6208	-14.493317	0.000547	5.474247	1.854725	-0.000219
1097	1.0905e+02	-3.6577	-14.634617	0.000355	3.548123	1.202137	-0.000142
1098	1.0915e+02	-3.7058	-14.820325	0.000466	4.663248	1.579951	-0.000187
1099	1.0925e+02	-3.7427	-14.941439	0.000304	3.041248	1.030403	-0.000122
1100	1.0935e+02	-3.7764	-15.086776	0.000365	3.649498	1.236483	-0.000146
1101	1.0945e+02	-3.8133	-15.268447	0.000456	4.561873	1.545604	-0.000183
1102	1.0955e+02	-3.8566	-15.397636	0.000324	3.243998	1.099096	-0.000130
1103	1.0965e+02	-3.8967	-15.498564	0.000253	2.534374	0.858669	-0.000101
1104	1.0975e+02	-3.9352	-15.732718	0.000588	5.879747	1.992112	-0.000235
1105	1.0985e+02	-3.9833	-15.853832	0.000304	3.041248	1.030403	-0.000122
1106	1.0995e+02	-4.0122	-16.039540	0.000466	4.663248	1.579951	-0.000187
1107	1.1005e+02	-4.0635	-16.213137	0.000436	4.359123	1.476911	-0.000174
1108	1.1015e+02	-4.0972	-16.305991	0.000233	2.331624	0.789976	-0.000093
1109	1.1025e+02	-4.1502	-16.499774	0.000487	4.865998	1.648645	-0.000195
1110	1.1035e+02	-4.1854	-16.641074	0.000355	3.548123	1.202137	-0.000142
1111	1.1044e+02	-4.2191	-16.818707	0.000446	4.460498	1.511258	-0.000179
1112	1.1054e+02	-4.2641	-16.968082	0.000375	3.750873	1.270830	-0.000150
1113	1.1064e+02	-4.3042	-17.117456	0.000375	3.750873	1.270830	-0.000150
1114	1.1074e+02	-4.3411	-17.250681	0.000335	3.345373	1.133443	-0.000134
1115	1.1084e+02	-4.3715	-17.452538	0.000507	5.068747	1.717338	-0.000203
1116	1.1094e+02	-4.4181	-17.605949	0.000385	3.852248	1.305177	-0.000154
1117	1.1104e+02	-4.4550	-17.723026	0.000294	2.939874	0.996056	-0.000118
1118	1.1114e+02	-4.4983	-17.896623	0.000436	4.359123	1.476911	-0.000174
1119	1.1124e+02	-4.5352	-18.050034	0.000385	3.852248	1.305177	-0.000154
1120	1.1134e+02	-4.5705	-18.239779	0.000476	4.764623	1.614298	-0.000191
1121	1.1144e+02	-4.6186	-18.344745	0.000264	2.635749	0.893016	-0.000105
1122	1.1154e+02	-4.6603	-18.538527	0.000487	4.865998	1.648645	-0.000195
1123	1.1164e+02	-4.6972	-18.691938	0.000385	3.852248	1.305177	-0.000154
1124	1.1174e+02	-4.7341	-18.841312	0.000375	3.750873	1.270830	-0.000150
1125	1.1184e+02	-4.7790	-18.990687	0.000375	3.750873	1.270830	-0.000150
1126	1.1194e+02	-4.8207	-19.160246	0.000426	4.257748	1.442564	-0.000170
1127	1.1204e+02	-4.8592	-19.305583	0.000365	3.649498	1.236483	-0.000146
1128	1.1214e+02	-4.8977	-19.499366	0.000487	4.865998	1.648645	-0.000195
1129	1.1224e+02	-4.9346	-19.624517	0.000314	3.142623	1.064750	-0.000126
1130	1.1234e+02	-4.9747	-19.810225	0.000466	4.663248	1.579951	-0.000187
1131	1.1244e+02	-5.0196	-19.979785	0.000426	4.257748	1.442564	-0.000170
1132	1.1253e+02	-5.0581	-20.092825	0.000284	2.838499	0.961709	-0.000114
1133	1.1263e+02	-5.0999	-20.250273	0.000395	3.953623	1.339524	-0.000158
1134	1.1273e+02	-5.1351	-20.387535	0.000345	3.446748	1.167790	-0.000138
1135	1.1283e+02	-5.1785	-20.557095	0.000426	4.257748	1.442564	-0.000170
1136	1.1293e+02	-5.2105	-20.694358	0.000345	3.446748	1.167790	-0.000138
1137	1.1303e+02	-5.2587	-20.892177	0.000497	4.967372	1.682991	-0.000199
1138	1.1313e+02	-5.2924	-21.053663	0.000405	4.054998	1.373870	-0.000162
1139	1.1323e+02	-5.3357	-21.219185	0.000416	4.156373	1.408217	-0.000166
1140	1.1333e+02	-5.3726	-21.356448	0.000345	3.446748	1.167790	-0.000138
1141	1.1343e+02	-5.4127	-21.542156	0.000466	4.663248	1.579951	-0.000187
1142	1.1353e+02	-5.4496	-21.675382	0.000335	3.345373	1.133443	-0.000134
1143	1.1363e+02	-5.4929	-21.820719	0.000365	3.649498	1.236483	-0.000146
1144	1.1373e+02	-5.5378	-21.978167	0.000395	3.953623	1.339524	-0.000158
1145	1.1383e+02	-5.5683	-22.155801	0.000446	4.460498	1.511258	-0.000179
1146	1.1393e+02	-5.6132	-22.284989	0.000324	3.243998	1.099096	-0.000130
1147	1.1403e+02	-5.6421	-22.438400	0.000385	3.852248	1.305177	-0.000154
1148	1.1413e+02	-5.6902	-22.632183	0.000487	4.865998	1.648645	-0.000195
1149	1.1423e+02	-5.7351	-22.741186	0.000274	2.737124	0.927363	-0.000110
1150	1.1433e+02	-5.7768	-22.943042	0.000507	5.068747	1.717338	-0.000203
1151	1.1442e+02	-5.8169	-23.048008	0.000264	2.635749	0.893016	-0.000105
1152	1.1452e+02	-5.8506	-23.225642	0.000446	4.460498	1.511258	-0.000179
1153	1.1462e+02	-5.8843	-23.370979	0.000365	3.649498	1.236483	-0.000146
1154	1.1472e+02	-5.9373	-23.528427	0.000395	3.953623	1.339524	-0.000158
1155	1.1482e+02	-5.9742	-23.718172	0.000476	4.764623	1.614298	-0.000191
1156	1.1492e+02	-6.0159	-23.867546	0.000375	3.750873	1.270830	-0.000150
1157	1.1502e+02	-6.0544	-24.016921	0.000375	3.750873	1.270830	-0.000150
1158	1.1512e+02	-6.0977	-24.194554	0.000446	4.460498	1.511258	-0.000179
1159	1.1522e+02	-6.1298	-24.335854	0.000355	3.548123	1.202137	-0.000142
1160	1.1532e+02	-6.1715	-24.428708	0.000233	2.331624	0.789976	-0.000093
1161	1.1542e+02	-6.2100	-24.646714	0.000547	5.474247	1.854725	-0.000219
1162	1.1552e+02	-6.2485	-24.783976	0.000345	3.446748	1.167790	-0.000138
1163	1.1562e+02	-6.2918	-24.941425	0.000395	3.953623	1.339524	-0.000158
1164	1.1572e+02	-6.3319	-25.074650	0.000335	3.345373	1.133443	-0.000134
1165	1.1582e+02	-6.3592	-25.280544	0.000517	5.170122	1.751685	-0.000207
1166	1.1592e+02	-6.4121	-25.373398	0.000233	2.331624	0.789976	-0.000093
1167	1.1602e+02	-6.4490	-25.546995	0.000436	4.359123	1.476911	-0.000174
1168	1.1612e+02	-6.4907	-25.708480	0.000405	4.054998	1.373870	-0.000162
1169	1.1622e+02	-6.5340	-25.857854	0.000375	3.750873	1.270830	-0.000150
1170	1.1632e+02	-6.5581	-25.991080	0.000335	3.345373	1.133443	-0.000134
1171	1.1642e+02	-6.6046	-26.144491	0.000385	3.852248	1.305177	-0.000154
1172	1.1651e+02	-6.6431	-26.297902	0.000385	3.852248	1.305177	-0.000154
1173	1.1661e+02	-6.6816	-26.475536	0.000446	4.460498	1.511258	-0.000179
1174	1.1671e+02	-6.7185	-26.653170	0.000446	4.460498	1.511258	-0.000179
1175	1.1681e+02	-6.7699	-26.770247	0.000294	2.939874	0.996056	-0.000118
1176	1.1691e+02	-6.8164	-26.939807	0.000426	4.257748	1.442564	-0.000170
1177	1.1701e+02	-6.8485	-27.089181	0.000375	3.750873	1.270830	-0.000150
1178	1.1711e+02	-6.8934	-27.242592	0.000385	3.852248	1.305177	-0.000154
1179	1.1721e+02	-6.9191	-27.391966	0.000375	3.750873	1.270830	-0.000150
1180	1.1731e+02	-6.9640	-27.565563	0.000436	4.359123	1.476911	-0.000174
1181	1.1741e+02	-7.0105	-27.731085	0.000416	4.156373	1.408217	-0.000166
1182	1.1751e+02	-7.0426	-27.892571	0.000405	4.054998	1.373870	-0.000162
1183	1.1761e+02	-7.0811	-28.009648	0.000294	2.939874	0.996056	-0.000118
1184	1.1771e+02	-7.1276	-28.219579	0.000527	5.271497	1.786032	-0.000211
1185	1.1781e+02	-7.1645	-28.328581	0.000274	2.737124	0.927363	-0.000110
1186	1.1791e+02	-7.2062	-28.473918	0.000365	3.649498	1.236483	-0.000146
1187	1.1801e+02	-7.2447	-28.635404	0.000405	4.054998	1.373870	-0.000162
1188	1.1811e+02	-7.2848	-28.821112	0.000466	4.663248	1.579951	-0.000187
1189	1.1821e+02	-7.3265	-28.950300	0.000324	3.243998	1.099096	-0.000130
1190	1.1831e+02	-7.3666	-29.148120	0.000497	4.967372	1.682991	-0.000199
1191	1.1841e+02	-7.4019	-29.277308	0.000324	3.243998	1.099096	-0.000130
1192	1.1850e+02	-7.4468	-29.426682	0.000375	3.750873	1.270830	-0.000150
1193	1.1860e+02	-7.4854	-29.608354	0.000456	4.561873	1.545604	-0.000183
1194	1.1870e+02	-7.5206	-29.749653	0.000355	3.548123	1.202137	-0.000142
1195	1.1880e+02	-7.5591	-29.890953	0.000355	3.548123	1.202137	-0.000142
1196	1.1890e+02	-7.6089	-30.024178	0.000335	3.345373	1.133443	-0.000134
1197	1.1900e+02	-7.6394	-30.197775	0.000436	4.359123	1.476911	-0.000174
1198	1.1910e+02	-7.6763	-30.326964	0.000324	3.243998	1.099096	-0.000130
1199	1.1920e+02	-7.7180	-30.492486	0.000416	4.156373	1.408217	-0.000166
1200	1.1930e+02	-7.7517	-30.629749	0.000345	3.446748	1.167790	-0.000138
1201	1.1940e+02	-7.8110	-30.787197	0.000395	3.953623	1.339524	-0.000158
1202	1.1950e+02	-7.8383	-30.944645	0.000395	3.953623	1.339524	-0.000158
1203	1.1960e+02	-7.8784	-31.045574	0.000253	2.534374	0.858669	-0.000101
1204	1.1970e+02	-7.9201	-31.182836	0.000345	3.446748	1.167790	-0.000138
1205	1.1980e+02	-7.9634	-31.344322	0.000405	4.054998	1.373870	-0.000162
1206	1.1990e+02	-8.0035	-31.525993	0.000456	4.561873	1.545604	-0.000183
1207	1.2000e+02	-8.0452	-31.675367	0.000375	3.750873	1.270830	-0.000150
1208	1.2010e+02	-8.0757	-31.792444	0.000294	2.939874	0.996056	-0.000118
1209	1.2020e+02	-8.1238	-31.941818	0.000375	3.750873	1.270830	-0.000150
1210	1.2030e+02	-8.1720	-32.091192	0.000375	3.750873	1.270830	-0.000150
1211	1.2039e+02	-8.1960	-32.260752	0.000426	4.257748	1.442564	-0.000170
1212	1.2049e+02	-8.2361	-32.389940	0.000324	3.243998	1.099096	-0.000130
1213	1.2059e+02	-8.2794	-32.527203	0.000345	3.446748	1.167790	-0.000138
1214	1.2069e+02	-8.3260	-32.664465	0.000345	3.446748	1.167790	-0.000138
1215	1.2079e+02	-8.3613	-32.825951	0.000405	4.054998	1.373870	-0.000162
1216	1.2089e+02	-8.4046	-32.955139	0.000324	3.243998	1.099096	-0.000130
1217	1.2099e+02	-8.4431	-33.132773	0.000446	4.460498	1.511258	-0.000179
1218	1.2109e+02	-8.4800	-33.261961	0.000324	3.243998	1.099096	-0.000130
1219	1.2119e+02	-8.5297	-33.419410	0.000395	3.953623	1.339524	-0.000158
1220	1.2129e+02	-8.5554	-33.560709	0.000355	3.548123	1.202137	-0.000142
1221	1.2139e+02	-8.5987	-33.685861	0.000314	3.142623	1.064750	-0.000126
1222	1.2149e+02	-8.6372	-33.843309	0.000395	3.953623	1.339524	-0.000158
1223	1.2159e+02	-8.6773	-33.956349	0.000284	2.838499	0.961709	-0.000114
1224	1.2169e+02	-8.7158	-34.142057	0.000466	4.663248	1.579951	-0.000187
1225	1.2179e+02	-8.7495	-34.263171	0.000304	3.041248	1.030403	-0.000122
1226	1.2189e+02	-8.8121	-34.428694	0.000416	4.156373	1.408217	-0.000166
1227	1.2199e+02	-8.8313	-34.557882	0.000324	3.243998	1.099096	-0.000130
1228	1.2209e+02	-8.8762	-34.683033	0.000314	3.142623	1.064750	-0.000126
1229	1.2219e+02	-8.9243	-34.812221	0.000324	3.243998	1.099096	-0.000130
1230	1.2229e+02	-8.9580	-34.965633	0.000385	3.852248	1.305177	-0.000154
1231	1.2239e+02	-9.0030	-35.131155	0.000416	4.156373	1.408217	-0.000166
1232	1.2248e+02	-9.0431	-35.260344	0.000324	3.243998	1.099096	-0.000130
1233	1.2258e+02	-9.0751	-35.381458	0.000304	3.041248	1.030403	-0.000122
1234	1.2268e+02	-9.1233	-35.538906	0.000395	3.953623	1.339524	-0.000158
1235	1.2278e+02	-9.1586	-35.704428	0.000416	4.156373	1.408217	-0.000166
1236	1.2288e+02	-9.1906	-35.845728	0.000355	3.548123	1.202137	-0.000142
1237	1.2298e+02	-9.2372	-36.031436	0.000466	4.663248	1.579951	-0.000187
1238	1.2308e+02	-9.2693	-36.128328	0.000243	2.432999	0.824322	-0.000097
1239	1.2318e+02	-9.3190	-36.237330	0.000274	2.737124	0.927363	-0.000110
1240	1.2328e+02	-9.3527	-36.398816	0.000405	4.054998	1.373870	-0.000162
1241	1.2338e+02	-9.4088	-36.560301	0.000405	4.054998	1.373870	-0.000162
1242	1.2348e+02	-9.4329	-36.653155	0.000233	2.331624	0.789976	-0.000093
1243	1.2358e+02	-9.4826	-36.794455	0.000355	3.548123	1.202137	-0.000142
1244	1.2368e+02	-9.5115	-36.972089	0.000446	4.460498	1.511258	-0.000179
1245	1.2378e+02	-9.5452	-37.109352	0.000345	3.446748	1.167790	-0.000138
1246	1.2388e+02	-9.5885	-37.238540	0.000324	3.243998	1.099096	-0.000130
1247	1.2398e+02	-9.6270	-37.379840	0.000355	3.548123	1.202137	-0.000142
1248	1.2408e+02	-9.6671	-37.509028	0.000324	3.243998	1.099096	-0.000130
1249	1.2418e+02	-9.7217	-37.674551	0.000416	4.156373	1.408217	-0.000166
1250	1.2428e+02	-9.7521	-37.783553	0.000274	2.737124	0.927363	-0.000110
1251	1.2438e+02	-9.7970	-37.928890	0.000365	3.649498	1.236483	-0.000146
1252	1.2447e+02	-9.8372	-38.078264	0.000375	3.750873	1.270830	-0.000150
1253	1.2457e+02	-9.8773	-38.203415	0.000314	3.142623	1.064750	-0.000126
1254	1.2467e+02	-9.9126	-38.377012	0.000436	4.359123	1.476911	-0.000174
1255	1.2477e+02	-9.9543	-38.502164	0.000314	3.142623	1.064750	-0.000126
1256	1.2487e+02	-9.9928	-38.639426	0.000345	3.446748	1.167790	-0.000138
1257	1.2497e+02	-10.0265	-38.804949	0.000416	4.156373	1.408217	-0.000166
1258	1.2507e+02	-10.0714	-38.861469	0.000142	1.419249	0.480855	-0.000057
1259	1.2517e+02	-10.1067	-39.043140	0.000456	4.561873	1.545604	-0.000183
1260	1.2527e+02	-10.1452	-39.184439	0.000355	3.548123	1.202137	-0.000142
1261	1.2537e+02	-10.1981	-39.349962	0.000416	4.156373	1.408217	-0.000166
1262	1.2547e+02	-10.2302	-39.467039	0.000294	2.939874	0.996056	-0.000118
1263	1.2557e+02	-10.2687	-39.576042	0.000274	2.737124	0.927363	-0.000110
1264	1.2567e+02	-10.3136	-39.733490	0.000395	3.953623	1.339524	-0.000158
1265	1.2577e+02	-10.3409	-39.862678	0.000324	3.243998	1.099096	-0.000130
1266	1.2587e+02	-10.3954	-39.967644	0.000264	2.635749	0.893016	-0.000105
1267	1.2597e+02	-10.4291	-40.121055	0.000385	3.852248	1.305177	-0.000154
1268	1.2607e+02	-10.4660	-40.234095	0.000284	2.838499	0.961709	-0.000114
1269	1.2617e+02	-10.5206	-40.339060	0.000264	2.635749	0.893016	-0.000105
1270	1.2627e+02	-10.5494	-40.480360	0.000355	3.548123	1.202137	-0.000142
1271	1.2636e+02	-10.5927	-40.641845	0.000405	4.054998	1.373870	-0.000162
1272	1.2646e+02	-10.6280	-40.823517	0.000456	4.561873	1.545604	-0.000183
1273	1.2656e+02	-10.6633	-40.928482	0.000264	2.635749	0.893016	-0.000105
1274	1.2666e+02	-10.7147	-41.045559	0.000294	2.939874	0.996056	-0.000118
1275	1.2676e+02	-10.7484	-41.198970	0.000385	3.852248	1.305177	-0.000154
1276	1.2686e+02	-10.7965	-41.332196	0.000335	3.345373	1.133443	-0.000134
1277	1.2696e+02	-10.8270	-41.465421	0.000335	3.345373	1.133443	-0.000134
1278	1.2706e+02	-10.8655	-41.594610	0.000324	3.243998	1.099096	-0.000130
1279	1.2716e+02	-10.9104	-41.711686	0.000294	2.939874	0.996056	-0.000118
1280	1.2726e+02	-10.9569	-41.893358	0.000456	4.561873	1.545604	-0.000183
1281	1.2736e+02	-10.9858	-42.022546	0.000324	3.243998	1.099096	-0.000130
1282	1.2746e+02	-11.0323	-42.159809	0.000345	3.446748	1.167790	-0.000138
1283	1.2756e+02	-11.0692	-42.256700	0.000243	2.432999	0.824322	-0.000097
1284	1.2766e+02	-11.1109	-42.377814	0.000304	3.041248	1.030403	-0.000122
1285	1.2776e+02	-11.1526	-42.551411	0.000436	4.359123	1.476911	-0.000174
1286	1.2786e+02	-11.1815	-42.696748	0.000365	3.649498	1.236483	-0.000146
1287	1.2796e+02	-11.2200	-42.825936	0.000324	3.243998	1.099096	-0.000130
1288	1.2806e+02	-11.2729	-42.963199	0.000345	3.446748	1.167790	-0.000138
1289	1.2816e+02	-11.3082	-43.092387	0.000324	3.243998	1.099096	-0.000130
1290	1.2826e+02	-11.3564	-43.217538	0.000314	3.142623	1.064750	-0.000126
1291	1.2835e+02	-11.3901	-43.370949	0.000385	3.852248	1.305177	-0.000154
1292	1.2845e+02	-11.4173	-43.496100	0.000314	3.142623	1.064750	-0.000126
1293	1.2855e+02	-11.4687	-43.657586	0.000405	4.054998	1.373870	-0.000162
1294	1.2865e+02	-11.5007	-43.750440	0.000233	2.331624	0.789976	-0.000093
1295	1.2875e+02	-11.5473	-43.924037	0.000436	4.359123	1.476911	-0.000174
1296	1.2885e+02	-11.5777	-44.029002	0.000264	2.635749	0.893016	-0.000105
1297	1.2895e+02	-11.6243	-44.194525	0.000416	4.156373	1.408217	-0.000166
1298	1.2905e+02	-11.6564	-44.323713	0.000324	3.243998	1.099096	-0.000130
1299	1.2915e+02	-11.6997	-44.481162	0.000395	3.953623	1.339524	-0.000158
1300	1.2925e+02	-11.7462	-44.606313	0.000314	3.142623	1.064750	-0.000126
1301	1.2935e+02	-11.7879	-44.727427	0.000304	3.041248	1.030403	-0.000122
1302	1.2945e+02	-11.8296	-44.880838	0.000385	3.852248	1.305177	-0.000154
1303	1.2955e+02	-11.8665	-45.005989	0.000314	3.142623	1.064750	-0.000126
1304	1.2965e+02	-11.9082	-45.151326	0.000365	3.649498	1.236483	-0.000146
1305	1.2975e+02	-11.9483	-45.272440	0.000304	3.041248	1.030403	-0.000122
1306	1.2985e+02	-11.9788	-45.405666	0.000335	3.345373	1.133443	-0.000134
1307	1.2995e+02	-12.0334	-45.542928	0.000345	3.446748	1.167790	-0.000138
1308	1.3005e+02	-12.0719	-45.696339	0.000385	3.852248	1.305177	-0.000154
1309	1.3015e+02	-12.0991	-45.861862	0.000416	4.156373	1.408217	-0.000166
1310	1.3025e+02	-12.1456	-45.974902	0.000284	2.838499	0.961709	-0.000114
1311	1.3034e+02	-12.1906	-46.096016	0.000304	3.041248	1.030403	-0.000122
1312	1.3044e+02	-12.2275	-46.229241	0.000335	3.345373	1.133443	-0.000134
1313	1.3054e+02	-12.2612	-46.334207	0.000264	2.635749	0.893016	-0.000105
1314	1.3064e+02	-12.3029	-46.507804	0.000436	4.359123	1.476911	-0.000174
1315	1.3074e+02	-12.3478	-46.616806	0.000274	2.737124	0.927363	-0.000110
1316	1.3084e+02	-12.3847	-46.798477	0.000456	4.561873	1.545604	-0.000183
1317	1.3094e+02	-12.4296	-46.895369	0.000243	2.432999	0.824322	-0.000097
1318	1.3104e+02	-12.4665	-47.008409	0.000284	2.838499	0.961709	-0.000114
1319	1.3114e+02	-12.5034	-47.177968	0.000426	4.257748	1.442564	-0.000170
1320	1.3124e+02	-12.5387	-47.323305	0.000365	3.649498	1.236483	-0.000146
1321	1.3134e+02	-12.5900	-47.444419	0.000304	3.041248	1.030403	-0.000122
1322	1.3144e+02	-12.6221	-47.609942	0.000416	4.156373	1.408217	-0.000166
1323	1.3154e+02	-12.6670	-47.694722	0.000213	2.128874	0.721282	-0.000085
1324	1.3164e+02	-12.6991	-47.831984	0.000345	3.446748	1.167790	-0.000138
1325	1.3174e+02	-12.7376	-47.989433	0.000395	3.953623	1.339524	-0.000158
1326	1.3184e+02	-12.7809	-48.142844	0.000385	3.852248	1.305177	-0.000154
1327	1.3194e+02	-12.8098	-48.231661	0.000223	2.230249	0.755629	-0.000089
1328	1.3204e+02	-12.8659	-48.376998	0.000365	3.649498	1.236483	-0.000146
1329	1.3214e+02	-12.8900	-48.534446	0.000395	3.953623	1.339524	-0.000158
1330	1.3224e+02	-12.9349	-48.623263	0.000223	2.230249	0.755629	-0.000089
1331	1.3234e+02	-12.9959	-48.784748	0.000405	4.054998	1.373870	-0.000162
1332	1.3243e+02	-13.0183	-48.942197	0.000395	3.953623	1.339524	-0.000158
1333	1.3253e+02	-13.0569	-49.079459	0.000345	3.446748	1.167790	-0.000138
1334	1.3263e+02	-13.0954	-49.244982	0.000416	4.156373	1.408217	-0.000166
1335	1.3273e+02	-13.1355	-49.305539	0.000152	1.520624	0.515201	-0.000061
1336	1.3283e+02	-13.1740	-49.450876	0.000365	3.649498	1.236483	-0.000146
1337	1.3293e+02	-13.2221	-49.624472	0.000436	4.359123	1.476911	-0.000174
1338	1.3303e+02	-13.2494	-49.701178	0.000193	1.926124	0.652588	-0.000077
1339	1.3313e+02	-13.3039	-49.874775	0.000436	4.359123	1.476911	-0.000174
1340	1.3323e+02	-13.3408	-49.967629	0.000233	2.331624	0.789976	-0.000093
1341	1.3333e+02	-13.3841	-50.133152	0.000416	4.156373	1.408217	-0.000166
1342	1.3343e+02	-13.4114	-50.262340	0.000324	3.243998	1.099096	-0.000130
1343	1.3353e+02	-13.4563	-50.411714	0.000375	3.750873	1.270830	-0.000150
1344	1.3363e+02	-13.4980	-50.540902	0.000324	3.243998	1.099096	-0.000130
1345	1.3373e+02	-13.5413	-50.678165	0.000345	3.446748	1.167790	-0.000138
1346	1.3383e+02	-13.5782	-50.803316	0.000314	3.142623	1.064750	-0.000126
1347	1.3393e+02	-13.6231	-50.972876	0.000426	4.257748	1.442564	-0.000170
1348	1.3403e+02	-13.6633	-51.110138	0.000345	3.446748	1.167790	-0.000138
1349	1.3413e+02	-13.6969	-51.207030	0.000243	2.432999	0.824322	-0.000097
1350	1.3423e+02	-13.7370	-51.348329	0.000355	3.548123	1.202137	-0.000142
1351	1.3432e+02	-13.7707	-51.513852	0.000416	4.156373	1.408217	-0.000166
1352	1.3442e+02	-13.8140	-51.626892	0.000284	2.838499	0.961709	-0.000114
1353	1.3452e+02	-13.8542	-51.735894	0.000274	2.737124	0.927363	-0.000110
1354	1.3462e+02	-13.8878	-51.937751	0.000507	5.068747	1.717338	-0.000203
1355	1.3472e+02	-13.9392	-52.062902	0.000314	3.142623	1.064750	-0.000126
1356	1.3482e+02	-13.9729	-52.220351	0.000395	3.953623	1.339524	-0.000158
1357	1.3492e+02	-14.0194	-52.297056	0.000193	1.926124	0.652588	-0.000077
1358	1.3502e+02	-14.0338	-52.466616	0.000426	4.257748	1.442564	-0.000170
1359	1.3512e+02	-14.0948	-52.595804	0.000324	3.243998	1.099096	-0.000130
1360	1.3522e+02	-14.1365	-52.704807	0.000274	2.737124	0.927363	-0.000110
1361	1.3532e+02	-14.1814	-52.862255	0.000395	3.953623	1.339524	-0.000158
1362	1.3542e+02	-14.2055	-52.987407	0.000314	3.142623	1.064750	-0.000126
1363	1.3552e+02	-14.2584	-53.140818	0.000385	3.852248	1.305177	-0.000154
1364	1.3562e+02	-14.2985	-53.261932	0.000304	3.041248	1.030403	-0.000122
1365	1.3572e+02	-14.3274	-53.387083	0.000314	3.142623	1.064750	-0.000126
1366	1.3582e+02	-14.3787	-53.512234	0.000314	3.142623	1.064750	-0.000126
1367	1.3592e+02	-14.4172	-53.641423	0.000324	3.243998	1.099096	-0.000130
1368	1.3602e+02	-14.4509	-53.819057	0.000446	4.460498	1.511258	-0.000179
1369	1.3612e+02	-14.4926	-53.919985	0.000253	2.534374	0.858669	-0.000101
1370	1.3622e+02	-14.5295	-54.097619	0.000446	4.460498	1.511258	-0.000179
1371	1.3631e+02	-14.5696	-54.125879	0.000071	0.709625	0.240427	-0.000028
1372	1.3641e+02	-14.6097	-54.360033	0.000588	5.879747	1.992112	-0.000235
1373	1.3651e+02	-14.6579	-54.444813	0.000213	2.128874	0.721282	-0.000085
1374	1.3661e+02	-14.6948	-54.594187	0.000375	3.750873	1.270830	-0.000150
1375	1.3671e+02	-14.7204	-54.687041	0.000233	2.331624	0.789976	-0.000093
1376	1.3681e+02	-14.7718	-54.771821	0.000213	2.128874	0.721282	-0.000085
1377	1.3691e+02	-14.8183	-54.929269	0.000395	3.953623	1.339524	-0.000158
1378	1.3701e+02	-14.8504	-55.074606	0.000365	3.649498	1.236483	-0.000146
1379	1.3711e+02	-14.8953	-55.187646	0.000284	2.838499	0.961709	-0.000114
1380	1.3721e+02	-14.9370	-55.312797	0.000314	3.142623	1.064750	-0.000126
1381	1.3731e+02	-14.9707	-55.425837	0.000284	2.838499	0.961709	-0.000114
1382	1.3741e+02	-15.0124	-55.603471	0.000446	4.460498	1.511258	-0.000179
1383	1.3751e+02	-15.0589	-55.720547	0.000294	2.939874	0.996056	-0.000118
1384	1.3761e+02	-15.0926	-55.849736	0.000324	3.243998	1.099096	-0.000130
1385	1.3771e+02	-15.1375	-55.999110	0.000375	3.750873	1.270830	-0.000150
1386	1.3781e+02	-15.1744	-56.112150	0.000284	2.838499	0.961709	-0.000114
1387	1.3791e+02	-15.2081	-56.225189	0.000284	2.838499	0.961709	-0.000114
1388	1.3801e+02	-15.2530	-56.338229	0.000284	2.838499	0.961709	-0.000114
1389	1.3811e+02	-15.2996	-56.487603	0.000375	3.750873	1.270830	-0.000150
1390	1.3821e+02	-15.3252	-56.632940	0.000365	3.649498	1.236483	-0.000146
1391	1.3831e+02	-15.3782	-56.786351	0.000385	3.852248	1.305177	-0.000154
1392	1.3840e+02	-15.4151	-56.871131	0.000213	2.128874	0.721282	-0.000085
1393	1.3850e+02	-15.4456	-57.036654	0.000416	4.156373	1.408217	-0.000166
1394	1.3860e+02	-15.4873	-57.181991	0.000365	3.649498	1.236483	-0.000146
1395	1.3870e+02	-15.5306	-57.250622	0.000172	1.723374	0.583895	-0.000069
1396	1.3880e+02	-15.5755	-57.420182	0.000426	4.257748	1.442564	-0.000170
1397	1.3890e+02	-15.6012	-57.517073	0.000243	2.432999	0.824322	-0.000097
1398	1.3900e+02	-15.6509	-57.630113	0.000284	2.838499	0.961709	-0.000114
1399	1.3910e+02	-15.6926	-57.763338	0.000335	3.345373	1.133443	-0.000134
1400	1.3920e+02	-15.7247	-57.900601	0.000345	3.446748	1.167790	-0.000138
1401	1.3930e+02	-15.7712	-58.041901	0.000355	3.548123	1.202137	-0.000142
1402	1.3940e+02	-15.8097	-58.146866	0.000264	2.635749	0.893016	-0.000105
1403	1.3950e+02	-15.8514	-58.288166	0.000355	3.548123	1.202137	-0.000142
1404	1.3960e+02	-15.8867	-58.405243	0.000294	2.939874	0.996056	-0.000118
1405	1.3970e+02	-15.9364	-58.566728	0.000405	4.054998	1.373870	-0.000162
1406	1.3980e+02	-15.9669	-58.663619	0.000243	2.432999	0.824322	-0.000097
1407	1.3990e+02	-16.0038	-58.800882	0.000345	3.446748	1.167790	-0.000138
1408	1.4000e+02	-16.0391	-58.905848	0.000264	2.635749	0.893016	-0.000105
1409	1.4010e+02	-16.0937	-59.071370	0.000416	4.156373	1.408217	-0.000166
1410	1.4020e+02	-16.1225	-59.220744	0.000375	3.750873	1.270830	-0.000150
1411	1.4029e+02	-16.1723	-59.313598	0.000233	2.331624	0.789976	-0.000093
1412	1.4039e+02	-16.2124	-59.462972	0.000375	3.750873	1.270830	-0.000150
1413	1.4049e+02	-16.2477	-59.567938	0.000264	2.635749	0.893016	-0.000105
1414	1.4059e+02	-16.2846	-59.685015	0.000294	2.939874	0.996056	-0.000118
1415	1.4069e+02	-16.3231	-59.870723	0.000466	4.663248	1.579951	-0.000187
1416	1.4079e+02	-16.3648	-59.991837	0.000304	3.041248	1.030403	-0.000122
1417	1.4089e+02	-16.4081	-60.088728	0.000243	2.432999	0.824322	-0.000097
1418	1.4099e+02	-16.4450	-60.209842	0.000304	3.041248	1.030403	-0.000122
1419	1.4109e+02	-16.4835	-60.355179	0.000365	3.649498	1.236483	-0.000146
1420	1.4119e+02	-16.5236	-60.460145	0.000264	2.635749	0.893016	-0.000105
1421	1.4129e+02	-16.5669	-60.621630	0.000405	4.054998	1.373870	-0.000162
1422	1.4139e+02	-16.6086	-60.799264	0.000446	4.460498	1.511258	-0.000179
1423	1.4149e+02	-16.6455	-60.859821	0.000152	1.520624	0.515201	-0.000061
1424	1.4159e+02	-16.6840	-61.017270	0.000395	3.953623	1.339524	-0.000158
1425	1.4169e+02	-16.7225	-61.154532	0.000345	3.446748	1.167790	-0.000138
1426	1.4179e+02	-16.7658	-61.255461	0.000253	2.534374	0.858669	-0.000101
1427	1.4189e+02	-16.8075	-61.404835	0.000375	3.750873	1.270830	-0.000150
1428	1.4199e+02	-16.8332	-61.501726	0.000243	2.432999	0.824322	-0.000097
1429	1.4209e+02	-16.8878	-61.667248	0.000416	4.156373	1.408217	-0.000166
1430	1.4219e+02	-16.9214	-61.788362	0.000304	3.041248	1.030403	-0.000122
1431	1.4228e+02	-16.9599	-61.889291	0.000253	2.534374	0.858669	-0.000101
1432	1.4238e+02	-17.0049	-62.058851	0.000426	4.257748	1.442564	-0.000170
1433	1.4248e+02	-17.0386	-62.143630	0.000213	2.128874	0.721282	-0.000085
1434	1.4258e+02	-17.0835	-62.305116	0.000405	4.054998	1.373870	-0.000162
1435	1.4268e+02	-17.1204	-62.414119	0.000274	2.737124	0.927363	-0.000110
1436	1.4278e+02	-17.1653	-62.555418	0.000355	3.548123	1.202137	-0.000142
1437	1.4288e+02	-17.2102	-62.672495	0.000294	2.939874	0.996056	-0.000118
1438	1.4298e+02	-17.2487	-62.813795	0.000355	3.548123	1.202137	-0.000142
1439	1.4308e+02	-17.2856	-62.951058	0.000345	3.446748	1.167790	-0.000138
1440	1.4318e+02	-17.3225	-63.116580	0.000416	4.156373	1.408217	-0.000166
1441	1.4328e+02	-17.3610	-63.241731	0.000314	3.142623	1.064750	-0.000126
1442	1.4338e+02	-17.4027	-63.378994	0.000345	3.446748	1.167790	-0.000138
1443	1.4348e+02	-17.4380	-63.504145	0.000314	3.142623	1.064750	-0.000126
1444	1.4358e+02	-17.4829	-63.596999	0.000233	2.331624	0.789976	-0.000093
1445	1.4368e+02	-17.5246	-63.758485	0.000405	4.054998	1.373870	-0.000162
1446	1.4378e+02	-17.5663	-63.915933	0.000395	3.953623	1.339524	-0.000158
1447	1.4388e+02	-17.6049	-64.069344	0.000385	3.852248	1.305177	-0.000154
1448	1.4398e+02	-17.6369	-64.222755	0.000385	3.852248	1.305177	-0.000154
1449	1.4408e+02	-17.6819	-64.360018	0.000345	3.446748	1.167790	-0.000138
1450	1.4418e+02	-17.7139	-64.464983	0.000264	2.635749	0.893016	-0.000105
1451	1.4428e+02	-17.7701	-64.646655	0.000456	4.561873	1.545604	-0.000183
1452	1.4437e+02	-17.7925	-64.743546	0.000243	2.432999	0.824322	-0.000097
1453	1.4447e+02	-17.8343	-64.880808	0.000345	3.446748	1.167790	-0.000138
1454	1.4457e+02	-17.8712	-65.050368	0.000426	4.257748	1.442564	-0.000170
1455	1.4467e+02	-17.9161	-65.252225	0.000507	5.068747	1.717338	-0.000203
1456	1.4477e+02	-17.9626	-65.353153	0.000253	2.534374	0.858669	-0.000101
1457	1.4487e+02	-18.0075	-65.494453	0.000355	3.548123	1.202137	-0.000142
1458	1.4497e+02	-18.0332	-65.676124	0.000456	4.561873	1.545604	-0.000183
1459	1.4507e+02	-18.0845	-65.829535	0.000385	3.852248	1.305177	-0.000154
1460	1.4517e+02	-18.1166	-65.934501	0.000264	2.635749	0.893016	-0.000105
1461	1.4527e+02	-18.1647	-66.116172	0.000456	4.561873	1.545604	-0.000183
1462	1.4537e+02	-18.1952	-66.261509	0.000365	3.649498	1.236483	-0.000146
1463	1.4547e+02	-18.2449	-66.366474	0.000264	2.635749	0.893016	-0.000105
1464	1.4557e+02	-18.2834	-66.600628	0.000588	5.879747	1.992112	-0.000235
1465	1.4567e+02	-18.3219	-66.701557	0.000253	2.534374	0.858669	-0.000101
1466	1.4577e+02	-18.3508	-66.871116	0.000426	4.257748	1.442564	-0.000170
1467	1.4587e+02	-18.3973	-66.980119	0.000274	2.737124	0.927363	-0.000110
1468	1.4597e+02	-18.4374	-67.157753	0.000446	4.460498	1.511258	-0.000179
1469	1.4607e+02	-18.4808	-67.327313	0.000426	4.257748	1.442564	-0.000170
1470	1.4617e+02	-18.5112	-67.484761	0.000395	3.953623	1.339524	-0.000158
1471	1.4626e+02	-18.5594	-67.666432	0.000456	4.561873	1.545604	-0.000183
1472	1.4636e+02	-18.5979	-67.787546	0.000304	3.041248	1.030403	-0.000122
1473	1.4646e+02	-18.6364	-67.957106	0.000426	4.257748	1.442564	-0.000170
1474	1.4656e+02	-18.6685	-68.126666	0.000426	4.257748	1.442564	-0.000170
1475	1.4666e+02	-18.7198	-68.288151	0.000405	4.054998	1.373870	-0.000162
1476	1.4676e+02	-18.7615	-68.425414	0.000345	3.446748	1.167790	-0.000138
1477	1.4686e+02	-18.7888	-68.675716	0.000629	6.285247	2.129499	-0.000252
1478	1.4696e+02	-18.8353	-68.817016	0.000355	3.548123	1.202137	-0.000142
1479	1.4706e+02	-18.8786	-69.002724	0.000466	4.663248	1.579951	-0.000187
1480	1.4716e+02	-18.9155	-69.148061	0.000365	3.649498	1.236483	-0.000146
1481	1.4726e+02	-18.9492	-69.297435	0.000375	3.750873	1.270830	-0.000150
1482	1.4736e+02	-19.0021	-69.454883	0.000395	3.953623	1.339524	-0.000158
1483	1.4746e+02	-19.0406	-69.685000	0.000578	5.778372	1.957765	-0.000231
1484	1.4756e+02	-19.0759	-69.806114	0.000304	3.041248	1.030403	-0.000122
1485	1.4766e+02	-19.1160	-69.995859	0.000476	4.764623	1.614298	-0.000191
1486	1.4776e+02	-19.1577	-70.173493	0.000446	4.460498	1.511258	-0.000179
1487	1.4786e+02	-19.1946	-70.322867	0.000375	3.750873	1.270830	-0.000150
1488	1.4796e+02	-19.2380	-70.540873	0.000547	5.474247	1.854725	-0.000219
1489	1.4806e+02	-19.2716	-70.682173	0.000355	3.548123	1.202137	-0.000142
1490	1.4816e+02	-19.3182	-70.867881	0.000466	4.663248	1.579951	-0.000187
1491	1.4825e+02	-19.3631	-71.081849	0.000537	5.372872	1.820378	-0.000215
1492	1.4835e+02	-19.3936	-71.251409	0.000426	4.257748	1.442564	-0.000170
1493	1.4845e+02	-19.4337	-71.453265	0.000507	5.068747	1.717338	-0.000203
1494	1.4855e+02	-19.4658	-71.554194	0.000253	2.534374	0.858669	-0.000101
1495	1.4865e+02	-19.5123	-71.836793	0.000710	7.096246	2.404273	-0.000284
1496	1.4875e+02	-19.5492	-71.945796	0.000274	2.737124	0.927363	-0.000110
1497	1.4885e+02	-19.5813	-72.163801	0.000547	5.474247	1.854725	-0.000219
1498	1.4895e+02	-19.6294	-72.377770	0.000537	5.372872	1.820378	-0.000215
1499	1.4905e+02	-19.6727	-72.555403	0.000446	4.460498	1.511258	-0.000179
1500	1.4915e+02	-19.7208	-72.733037	0.000446	4.460498	1.511258	-0.000179
1501	1.4925e+02	-19.7593	-72.938931	0.000517	5.170122	1.751685	-0.000207
1502	1.4935e+02	-19.7962	-73.128677	0.000476	4.764623	1.614298	-0.000191
1503	1.4945e+02	-19.8299	-73.306311	0.000446	4.460498	1.511258	-0.000179
1504	1.4955e+02	-19.8780	-73.540465	0.000588	5.879747	1.992112	-0.000235
1505	1.4965e+02	-19.9133	-73.734247	0.000487	4.865998	1.648645	-0.000195
1506	1.4975e+02	-19.9567	-73.940141	0.000517	5.170122	1.751685	-0.000207
1507	1.4985e+02	-19.9936	-74.154109	0.000537	5.372872	1.820378	-0.000215
1508	1.4995e+02	-19.9534	-74.170258	-0.000041	-0.405500	-0.137387	-0.000016
1509	1.5005e+02	-19.9166	-74.166221	0.000010	0.101375	0.034347	0.000004
1510	1.5015e+02	-19.8700	-74.190443	-0.000061	-0.608250	-0.206081	-0.000024
1511	1.5025e+02	-19.8331	-74.194481	-0.000010	-0.101375	-0.034347	-0.000004
1512	1.5034e+02	-19.7994	-74.182369	0.000030	0.304125	0.103040	0.000012
1513	1.5044e+02	-19.7513	-74.141998	0.000101	1.013749	0.343468	0.000041
1514	1.5054e+02	-19.7080	-74.162184	-0.000051	-0.506875	-0.171734	-0.000020
1515	1.5064e+02	-19.6759	-74.125849	0.000091	0.912375	0.309121	0.000037
1516	1.5074e+02	-19.6278	-74.113738	0.000030	0.304125	0.103040	0.000012
1517	1.5084e+02	-19.5925	-74.065292	0.000122	1.216499	0.412161	0.000049
1518	1.5094e+02	-19.5572	-74.041069	0.000061	0.608250	0.206081	0.000024
1519	1.5104e+02	-19.5203	-74.065292	-0.000061	-0.608250	-0.206081	-0.000024
1520	1.5114e+02	-19.4658	-74.004735	0.000152	1.520624	0.515201	0.000061
1521	1.5124e+02	-19.4369	-73.968401	0.000091	0.912375	0.309121	0.000037
1522	1.5134e+02	-19.3936	-73.952252	0.000041	0.405500	0.137387	0.000016
1523	1.5144e+02	-19.3519	-73.879584	0.000182	1.824749	0.618242	0.000073
1524	1.5154e+02	-19.3134	-73.859398	0.000051	0.506875	0.171734	0.000020
1525	1.5164e+02	-19.2797	-73.794804	0.000162	1.621999	0.549548	0.000065
1526	1.5174e+02	-19.2380	-73.770581	0.000061	0.608250	0.206081	0.000024
1527	1.5184e+02	-19.1946	-73.693876	0.000193	1.926124	0.652588	0.000077
1528	1.5194e+02	-19.1529	-73.621207	0.000182	1.824749	0.618242	0.000073
1529	1.5204e+02	-19.1096	-73.572762	0.000122	1.216499	0.412161	0.000049
1530	1.5214e+02	-19.0791	-73.572762	0.000000	0.000000	0.000000	0.000000
1531	1.5224e+02	-19.0406	-73.463759	0.000274	2.737124	0.927363	0.000110
1532	1.5233e+02	-18.9925	-73.447610	0.000041	0.405500	0.137387	0.000016
1533	1.5243e+02	-18.9508	-73.387053	0.000152	1.520624	0.515201	0.000061
1534	1.5253e+02	-18.9107	-73.282088	0.000264	2.635749	0.893016	0.000105
1535	1.5263e+02	-18.8738	-73.253828	0.000071	0.709625	0.240427	0.000028
1536	1.5273e+02	-18.8369	-73.193271	0.000152	1.520624	0.515201	0.000061
1537	1.5283e+02	-18.7952	-73.112528	0.000203	2.027499	0.686935	0.000081
1538	1.5293e+02	-18.7583	-73.003526	0.000274	2.737124	0.927363	0.000110
1539	1.5303e+02	-18.7118	-72.938931	0.000162	1.621999	0.549548	0.000065
1540	1.5313e+02	-18.6797	-72.878374	0.000152	1.520624	0.515201	0.000061
1541	1.5323e+02	-18.6460	-72.842040	0.000091	0.912375	0.309121	0.000037
1542	1.5333e+02	-18.5898	-72.753223	0.000223	2.230249	0.755629	0.000089
1543	1.5343e+02	-18.5658	-72.644220	0.000274	2.737124	0.927363	0.000110
1544	1.5353e+02	-18.5177	-72.563478	0.000203	2.027499	0.686935	0.000081
1545	1.5363e+02	-18.4759	-72.498884	0.000162	1.621999	0.549548	0.000065
1546	1.5373e+02	-18.4326	-72.438327	0.000152	1.520624	0.515201	0.000061
1547	1.5383e+02	-18.4022	-72.357584	0.000203	2.027499	0.686935	0.000081
1548	1.5393e+02	-18.3588	-72.317212	0.000101	1.013749	0.343468	0.000041
1549	1.5403e+02	-18.3139	-72.188024	0.000324	3.243998	1.099096	0.000130
1550	1.5413e+02	-18.2754	-72.103244	0.000213	2.128874	0.721282	0.000085
1551	1.5422e+02	-18.2353	-72.010390	0.000233	2.331624	0.789976	0.000093
1552	1.5432e+02	-18.1984	-71.949833	0.000152	1.520624	0.515201	0.000061
1553	1.5442e+02	-18.1567	-71.828719	0.000304	3.041248	1.030403	0.000122
1554	1.5452e+02	-18.1182	-71.780273	0.000122	1.216499	0.412161	0.000049
1555	1.5462e+02	-18.0797	-71.707605	0.000182	1.824749	0.618242	0.000073
1556	1.5472e+02	-18.0364	-71.618788	0.000223	2.230249	0.755629	0.000089
1557	1.5482e+02	-18.0075	-71.505748	0.000284	2.838499	0.961709	0.000114
1558	1.5492e+02	-17.9562	-71.429043	0.000193	1.926124	0.652588	0.000077
1559	1.5502e+02	-17.9209	-71.356374	0.000182	1.824749	0.618242	0.000073
1560	1.5512e+02	-17.8744	-71.247372	0.000274	2.737124	0.927363	0.000110
1561	1.5522e+02	-17.8359	-71.134332	0.000284	2.838499	0.961709	0.000114
1562	1.5532e+02	-17.7974	-71.102035	0.000081	0.811000	0.274774	0.000032
1563	1.5542e+02	-17.7669	-70.976883	0.000314	3.142623	1.064750	0.000126
1564	1.5552e+02	-17.7155	-70.863844	0.000284	2.838499	0.961709	0.000114
1565	1.5562e+02	-17.6915	-70.803287	0.000152	1.520624	0.515201	0.000061
1566	1.5572e+02	-17.6434	-70.746767	0.000142	1.419249	0.480855	0.000057
1567	1.5582e+02	-17.5968	-70.585281	0.000405	4.054998	1.373870	0.000162
1568	1.5592e+02	-17.5647	-70.532798	0.000132	1.317874	0.446508	0.000053
1569	1.5602e+02	-17.5262	-70.411684	0.000304	3.041248	1.030403	0.000122
1570	1.5612e+02	-17.4910	-70.367276	0.000112	1.115124	0.377814	0.000045
1571	1.5622e+02	-17.4444	-70.242125	0.000314	3.142623	1.064750	0.000126
1572	1.5631e+02	-17.4027	-70.185605	0.000142	1.419249	0.480855	0.000057
1573	1.5641e+02	-17.3690	-70.068528	0.000294	2.939874	0.996056	0.000118
1574	1.5651e+02	-17.3273	-69.967599	0.000253	2.534374	0.858669	0.000101
1575	1.5661e+02	-17.2840	-69.846485	0.000304	3.041248	1.030403	0.000122
1576	1.5671e+02	-17.2391	-69.785928	0.000152	1.520624	0.515201	0.000061
1577	1.5681e+02	-17.2038	-69.628480	0.000395	3.953623	1.339524	0.000158
1578	1.5691e+02	-17.1637	-69.567923	0.000152	1.520624	0.515201	0.000061
1579	1.5701e+02	-17.1348	-69.471032	0.000243	2.432999	0.824322	0.000097
1580	1.5711e+02	-17.0819	-69.386252	0.000213	2.128874	0.721282	0.000085
1581	1.5721e+02	-17.0498	-69.281286	0.000264	2.635749	0.893016	0.000105
1582	1.5731e+02	-17.0033	-69.172284	0.000274	2.737124	0.927363	0.000110
1583	1.5741e+02	-16.9599	-69.063281	0.000274	2.737124	0.927363	0.000110
1584	1.5751e+02	-16.9327	-68.974464	0.000223	2.230249	0.755629	0.000089
1585	1.5761e+02	-16.8797	-68.926018	0.000122	1.216499	0.412161	0.000049
1586	1.5771e+02	-16.8444	-68.772607	0.000385	3.852248	1.305177	0.000154
1587	1.5781e+02	-16.7963	-68.651493	0.000304	3.041248	1.030403	0.000122
1588	1.5791e+02	-16.7578	-68.582862	0.000172	1.723374	0.583895	0.000069
1589	1.5801e+02	-16.7273	-68.457711	0.000314	3.142623	1.064750	0.000126
1590	1.5811e+02	-16.6792	-68.381005	0.000193	1.926124	0.652588	0.000077
1591	1.5821e+02	-16.6439	-68.284114	0.000243	2.432999	0.824322	0.000097
1592	1.5830e+02	-16.6134	-68.167037	0.000294	2.939874	0.996056	0.000118
1593	1.5840e+02	-16.5653	-68.078220	0.000223	2.230249	0.755629	0.000089
1594	1.5850e+02	-16.5364	-67.973254	0.000264	2.635749	0.893016	0.000105
1595	1.5860e+02	-16.4883	-67.848103	0.000314	3.142623	1.064750	0.000126
1596	1.5870e+02	-16.4482	-67.763323	0.000213	2.128874	0.721282	0.000085
1597	1.5880e+02	-16.4001	-67.678544	0.000213	2.128874	0.721282	0.000085
1598	1.5890e+02	-16.3568	-67.541281	0.000345	3.446748	1.167790	0.000138
1599	1.5900e+02	-16.3279	-67.428241	0.000284	2.838499	0.961709	0.000114
1600	1.5910e+02	-16.2926	-67.307127	0.000304	3.041248	1.030403	0.000122
1601	1.5920e+02	-16.2525	-67.222347	0.000213	2.128874	0.721282	0.000085
1602	1.5930e+02	-16.2108	-67.117382	0.000264	2.635749	0.893016	0.000105
1603	1.5940e+02	-16.1659	-66.976082	0.000355	3.548123	1.202137	0.000142
1604	1.5950e+02	-16.1306	-66.863042	0.000284	2.838499	0.961709	0.000114
1605	1.5960e+02	-16.0824	-66.778262	0.000213	2.128874	0.721282	0.000085
1606	1.5970e+02	-16.0536	-66.665222	0.000284	2.838499	0.961709	0.000114
1607	1.5980e+02	-16.0054	-66.584480	0.000203	2.027499	0.686935	0.000081
1608	1.5990e+02	-15.9621	-66.459329	0.000314	3.142623	1.064750	0.000126
1609	1.6000e+02	-15.9316	-66.378586	0.000203	2.027499	0.686935	0.000081
1610	1.6010e+02	-15.8899	-66.241323	0.000345	3.446748	1.167790	0.000138
1611	1.6019e+02	-15.8546	-66.148469	0.000233	2.331624	0.789976	0.000093
1612	1.6029e+02	-15.8081	-66.039466	0.000274	2.737124	0.927363	0.000110
1613	1.6039e+02	-15.7712	-65.962761	0.000193	1.926124	0.652588	0.000077
1614	1.6049e+02	-15.7311	-65.801275	0.000405	4.054998	1.373870	0.000162
1615	1.6059e+02	-15.6894	-65.748793	0.000132	1.317874	0.446508	0.000053
1616	1.6069e+02	-15.6541	-65.647864	0.000253	2.534374	0.858669	0.000101
1617	1.6079e+02	-15.6076	-65.510602	0.000345	3.446748	1.167790	0.000138
1618	1.6089e+02	-15.5707	-65.397562	0.000284	2.838499	0.961709	0.000114
1619	1.6099e+02	-15.5306	-65.288559	0.000274	2.737124	0.927363	0.000110
1620	1.6109e+02	-15.4937	-65.179556	0.000274	2.737124	0.927363	0.000110
1621	1.6119e+02	-15.4600	-65.058442	0.000304	3.041248	1.030403	0.000122
1622	1.6129e+02	-15.4054	-64.993848	0.000162	1.621999	0.549548	0.000065
1623	1.6139e+02	-15.3702	-64.880808	0.000284	2.838499	0.961709	0.000114
1624	1.6149e+02	-15.3268	-64.787954	0.000233	2.331624	0.789976	0.000093
1625	1.6159e+02	-15.2883	-64.654729	0.000335	3.345373	1.133443	0.000134
1626	1.6169e+02	-15.2434	-64.553800	0.000253	2.534374	0.858669	0.000101
1627	1.6179e+02	-15.2033	-64.436724	0.000294	2.939874	0.996056	0.000118
1628	1.6189e+02	-15.1712	-64.343869	0.000233	2.331624	0.789976	0.000093
1629	1.6199e+02	-15.1359	-64.255052	0.000223	2.230249	0.755629	0.000089
1630	1.6209e+02	-15.0862	-64.101641	0.000385	3.852248	1.305177	0.000154
1631	1.6219e+02	-15.0477	-64.053196	0.000122	1.216499	0.412161	0.000049
1632	1.6228e+02	-15.0172	-63.899784	0.000385	3.852248	1.305177	0.000154
1633	1.6238e+02	-14.9707	-63.823079	0.000193	1.926124	0.652588	0.000077
1634	1.6248e+02	-14.9242	-63.665631	0.000395	3.953623	1.339524	0.000158
1635	1.6258e+02	-14.8889	-63.588925	0.000193	1.926124	0.652588	0.000077
1636	1.6268e+02	-14.8600	-63.496071	0.000233	2.331624	0.789976	0.000093
1637	1.6278e+02	-14.8119	-63.391105	0.000264	2.635749	0.893016	0.000105
1638	1.6288e+02	-14.7750	-63.269991	0.000304	3.041248	1.030403	0.000122
1639	1.6298e+02	-14.7301	-63.152914	0.000294	2.939874	0.996056	0.000118
1640	1.6308e+02	-14.6948	-63.076209	0.000193	1.926124	0.652588	0.000077
1641	1.6318e+02	-14.6643	-62.926835	0.000375	3.750873	1.270830	0.000150
1642	1.6328e+02	-14.6146	-62.825906	0.000253	2.534374	0.858669	0.000101
1643	1.6338e+02	-14.5712	-62.741127	0.000213	2.128874	0.721282	0.000085
1644	1.6348e+02	-14.5360	-62.640198	0.000253	2.534374	0.858669	0.000101
1645	1.6358e+02	-14.4958	-62.490824	0.000375	3.750873	1.270830	0.000150
1646	1.6368e+02	-14.4477	-62.389896	0.000253	2.534374	0.858669	0.000101
1647	1.6378e+02	-14.4188	-62.305116	0.000213	2.128874	0.721282	0.000085
1648	1.6388e+02	-14.3787	-62.184002	0.000304	3.041248	1.030403	0.000122
1649	1.6398e+02	-14.3354	-62.054813	0.000324	3.243998	1.099096	0.000130
1650	1.6408e+02	-14.2969	-61.953885	0.000253	2.534374	0.858669	0.000101
1651	1.6418e+02	-14.2504	-61.877179	0.000193	1.926124	0.652588	0.000077
1652	1.6427e+02	-14.2183	-61.727805	0.000375	3.750873	1.270830	0.000150
1653	1.6437e+02	-14.1686	-61.647063	0.000203	2.027499	0.686935	0.000081
1654	1.6447e+02	-14.1365	-61.542097	0.000264	2.635749	0.893016	0.000105
1655	1.6457e+02	-14.0964	-61.437132	0.000264	2.635749	0.893016	0.000105
1656	1.6467e+02	-14.0467	-61.291795	0.000365	3.649498	1.236483	0.000146
1657	1.6477e+02	-14.0210	-61.215089	0.000193	1.926124	0.652588	0.000077
1658	1.6487e+02	-13.9745	-61.081864	0.000335	3.345373	1.133443	0.000134
1659	1.6497e+02	-13.9296	-60.964787	0.000294	2.939874	0.996056	0.000118
1660	1.6507e+02	-13.8927	-60.831561	0.000335	3.345373	1.133443	0.000134
1661	1.6517e+02	-13.8606	-60.746781	0.000213	2.128874	0.721282	0.000085
1662	1.6527e+02	-13.8157	-60.629705	0.000294	2.939874	0.996056	0.000118
1663	1.6537e+02	-13.7772	-60.548962	0.000203	2.027499	0.686935	0.000081
1664	1.6547e+02	-13.7451	-60.403625	0.000365	3.649498	1.236483	0.000146
1665	1.6557e+02	-13.7001	-60.314808	0.000223	2.230249	0.755629	0.000089
1666	1.6567e+02	-13.6504	-60.185620	0.000324	3.243998	1.099096	0.000130
1667	1.6577e+02	-13.6151	-60.076617	0.000274	2.737124	0.927363	0.000110
1668	1.6587e+02	-13.5686	-59.963577	0.000284	2.838499	0.961709	0.000114
1669	1.6597e+02	-13.5381	-59.907057	0.000142	1.419249	0.480855	0.000057
1670	1.6607e+02	-13.4996	-59.725386	0.000456	4.561873	1.545604	0.000183
1671	1.6616e+02	-13.4627	-59.652718	0.000182	1.824749	0.618242	0.000073
1672	1.6626e+02	-13.4162	-59.531604	0.000304	3.041248	1.030403	0.000122
1673	1.6636e+02	-13.3825	-59.450861	0.000203	2.027499	0.686935	0.000081
1674	1.6646e+02	-13.3376	-59.329747	0.000304	3.041248	1.030403	0.000122
1675	1.6656e+02	-13.3023	-59.172299	0.000395	3.953623	1.339524	0.000158
1676	1.6666e+02	-13.2558	-59.079444	0.000233	2.331624	0.789976	0.000093
1677	1.6676e+02	-13.2205	-58.986590	0.000233	2.331624	0.789976	0.000093
1678	1.6686e+02	-13.1740	-58.869513	0.000294	2.939874	0.996056	0.000118
1679	1.6696e+02	-13.1563	-58.740325	0.000324	3.243998	1.099096	0.000130
1680	1.6706e+02	-13.1082	-58.651508	0.000223	2.230249	0.755629	0.000089
1681	1.6716e+02	-13.0617	-58.546542	0.000264	2.635749	0.893016	0.000105
1682	1.6726e+02	-13.0183	-58.437540	0.000274	2.737124	0.927363	0.000110
1683	1.6736e+02	-12.9831	-58.328537	0.000274	2.737124	0.927363	0.000110
1684	1.6746e+02	-12.9365	-58.187237	0.000355	3.548123	1.202137	0.000142
1685	1.6756e+02	-12.8996	-58.086309	0.000253	2.534374	0.858669	0.000101
1686	1.6766e+02	-12.8659	-57.953084	0.000335	3.345373	1.133443	0.000134
1687	1.6776e+02	-12.8226	-57.872341	0.000203	2.027499	0.686935	0.000081
1688	1.6786e+02	-12.7761	-57.731041	0.000355	3.548123	1.202137	0.000142
1689	1.6796e+02	-12.7456	-57.662410	0.000172	1.723374	0.583895	0.000069
1690	1.6806e+02	-12.6991	-57.573593	0.000223	2.230249	0.755629	0.000089
1691	1.6816e+02	-12.6718	-57.408070	0.000416	4.156373	1.408217	0.000166
1692	1.6825e+02	-12.6253	-57.355587	0.000132	1.317874	0.446508	0.000053
1693	1.6835e+02	-12.5884	-57.165842	0.000476	4.764623	1.614298	0.000191
1694	1.6845e+02	-12.5483	-57.121434	0.000112	1.115124	0.377814	0.000045
1695	1.6855e+02	-12.4986	-56.972060	0.000375	3.750873	1.270830	0.000150
1696	1.6865e+02	-12.4665	-56.863057	0.000274	2.737124	0.927363	0.000110
1697	1.6875e+02	-12.4232	-56.766166	0.000243	2.432999	0.824322	0.000097
1698	1.6885e+02	-12.3815	-56.641014	0.000314	3.142623	1.064750	0.000126
1699	1.6895e+02	-12.3349	-56.527975	0.000284	2.838499	0.961709	0.000114
1700	1.6905e+02	-12.3109	-56.394749	0.000335	3.345373	1.133443	0.000134
1701	1.6915e+02	-12.2724	-56.265561	0.000324	3.243998	1.099096	0.000130
1702	1.6925e+02	-12.2210	-56.180781	0.000213	2.128874	0.721282	0.000085
1703	1.6935e+02	-12.1858	-56.063704	0.000294	2.939874	0.996056	0.000118
1704	1.6945e+02	-12.1344	-55.966813	0.000243	2.432999	0.824322	0.000097
1705	1.6955e+02	-12.0943	-55.801290	0.000416	4.156373	1.408217	0.000166
1706	1.6965e+02	-12.0751	-55.700362	0.000253	2.534374	0.858669	0.000101
1707	1.6975e+02	-12.0253	-55.575211	0.000314	3.142623	1.064750	0.000126
1708	1.6985e+02	-11.9868	-55.466208	0.000274	2.737124	0.927363	0.000110
1709	1.6995e+02	-11.9467	-55.361242	0.000264	2.635749	0.893016	0.000105
1710	1.7005e+02	-11.9114	-55.252240	0.000274	2.737124	0.927363	0.000110
1711	1.7015e+02	-11.8649	-55.086717	0.000416	4.156373	1.408217	0.000166
1712	1.7024e+02	-11.8344	-54.997900	0.000223	2.230249	0.755629	0.000089
1713	1.7034e+02	-11.7879	-54.828340	0.000426	4.257748	1.442564	0.000170
1714	1.7044e+02	-11.7414	-54.739523	0.000223	2.230249	0.755629	0.000089
1715	1.7054e+02	-11.7061	-54.622447	0.000294	2.939874	0.996056	0.000118
1716	1.7064e+02	-11.6596	-54.473073	0.000375	3.750873	1.270830	0.000150
1717	1.7074e+02	-11.6291	-54.347921	0.000314	3.142623	1.064750	0.000126
1718	1.7084e+02	-11.5826	-54.242956	0.000264	2.635749	0.893016	0.000105
1719	1.7094e+02	-11.5537	-54.101656	0.000355	3.548123	1.202137	0.000142
1720	1.7104e+02	-11.5072	-54.020913	0.000203	2.027499	0.686935	0.000081
1721	1.7114e+02	-11.4687	-53.891725	0.000324	3.243998	1.099096	0.000130
1722	1.7124e+02	-11.4334	-53.778685	0.000284	2.838499	0.961709	0.000114
1723	1.7134e+02	-11.3852	-53.665645	0.000284	2.838499	0.961709	0.000114
1724	1.7144e+02	-11.3532	-53.548568	0.000294	2.939874	0.996056	0.000118
1725	1.7154e+02	-11.3082	-53.399194	0.000375	3.750873	1.270830	0.000150
1726	1.7164e+02	-11.2617	-53.261932	0.000345	3.446748	1.167790	0.000138
1727	1.7174e+02	-11.2312	-53.104483	0.000395	3.953623	1.339524	0.000158
1728	1.7184e+02	-11.1879	-53.007592	0.000243	2.432999	0.824322	0.000097
1729	1.7194e+02	-11.1462	-52.914738	0.000233	2.331624	0.789976	0.000093
1730	1.7204e+02	-11.1077	-52.761327	0.000385	3.852248	1.305177	0.000154
1731	1.7213e+02	-11.0772	-52.607916	0.000385	3.852248	1.305177	0.000154
1732	1.7223e+02	-11.0259	-52.523136	0.000213	2.128874	0.721282	0.000085
1733	1.7233e+02	-10.9970	-52.377799	0.000365	3.649498	1.236483	0.000146
1734	1.7243e+02	-10.9457	-52.240536	0.000345	3.446748	1.167790	0.000138
1735	1.7253e+02	-10.9072	-52.163831	0.000193	1.926124	0.652588	0.000077
1736	1.7263e+02	-10.8671	-52.010420	0.000385	3.852248	1.305177	0.000154
1737	1.7273e+02	-10.8334	-51.901417	0.000274	2.737124	0.927363	0.000110
1738	1.7283e+02	-10.7853	-51.776266	0.000314	3.142623	1.064750	0.000126
1739	1.7293e+02	-10.7484	-51.691486	0.000213	2.128874	0.721282	0.000085
1740	1.7303e+02	-10.7115	-51.513852	0.000446	4.460498	1.511258	0.000179
1741	1.7313e+02	-10.6681	-51.400812	0.000284	2.838499	0.961709	0.000114
1742	1.7323e+02	-10.6329	-51.231253	0.000426	4.257748	1.442564	0.000170
1743	1.7333e+02	-10.5960	-51.150510	0.000203	2.027499	0.686935	0.000081
1744	1.7343e+02	-10.5510	-51.025359	0.000314	3.142623	1.064750	0.000126
1745	1.7353e+02	-10.5077	-50.892133	0.000335	3.345373	1.133443	0.000134
1746	1.7363e+02	-10.4708	-50.746796	0.000365	3.649498	1.236483	0.000146
1747	1.7373e+02	-10.4275	-50.621645	0.000314	3.142623	1.064750	0.000126
1748	1.7383e+02	-10.3906	-50.500531	0.000304	3.041248	1.030403	0.000122
1749	1.7393e+02	-10.3473	-50.387491	0.000284	2.838499	0.961709	0.000114
1750	1.7403e+02	-10.3120	-50.238117	0.000375	3.750873	1.270830	0.000150
1751	1.7413e+02	-10.2751	-50.125077	0.000284	2.838499	0.961709	0.000114
1752	1.7422e+02	-10.2318	-49.979740	0.000365	3.649498	1.236483	0.000146
1753	1.7432e+02	-10.1965	-49.838441	0.000355	3.548123	1.202137	0.000142
1754	1.7442e+02	-10.1580	-49.709252	0.000324	3.243998	1.099096	0.000130
1755	1.7452e+02	-10.1195	-49.584101	0.000314	3.142623	1.064750	0.000126
1756	1.7462e+02	-10.0714	-49.462987	0.000304	3.041248	1.030403	0.000122
1757	1.7472e+02	-10.0361	-49.333799	0.000324	3.243998	1.099096	0.000130
1758	1.7482e+02	-9.9847	-49.224796	0.000274	2.737124	0.927363	0.000110
1759	1.7492e+02	-9.9527	-49.123868	0.000253	2.534374	0.858669	0.000101
1760	1.7502e+02	-9.9174	-48.938159	0.000466	4.663248	1.579951	0.000187
1761	1.7512e+02	-9.8837	-48.821082	0.000294	2.939874	0.996056	0.000118
1762	1.7522e+02	-9.8259	-48.712080	0.000274	2.737124	0.927363	0.000110
1763	1.7532e+02	-9.7906	-48.522334	0.000476	4.764623	1.614298	0.000191
1764	1.7542e+02	-9.7553	-48.441592	0.000203	2.027499	0.686935	0.000081
1765	1.7552e+02	-9.7217	-48.292218	0.000375	3.750873	1.270830	0.000150
1766	1.7562e+02	-9.6703	-48.142844	0.000375	3.750873	1.270830	0.000150
1767	1.7572e+02	-9.6414	-47.993470	0.000375	3.750873	1.270830	0.000150
1768	1.7582e+02	-9.5981	-47.856207	0.000345	3.446748	1.167790	0.000138
1769	1.7592e+02	-9.5612	-47.763353	0.000233	2.331624	0.789976	0.000093
1770	1.7602e+02	-9.5131	-47.589756	0.000436	4.359123	1.476911	0.000174
1771	1.7612e+02	-9.4794	-47.464605	0.000314	3.142623	1.064750	0.000126
1772	1.7621e+02	-9.4249	-47.339454	0.000314	3.142623	1.064750	0.000126
1773	1.7631e+02	-9.4024	-47.234488	0.000264	2.635749	0.893016	0.000105
1774	1.7641e+02	-9.3511	-47.081077	0.000385	3.852248	1.305177	0.000154
1775	1.7651e+02	-9.3046	-46.959963	0.000304	3.041248	1.030403	0.000122
1776	1.7661e+02	-9.2789	-46.774255	0.000466	4.663248	1.579951	0.000187
1777	1.7671e+02	-9.2340	-46.677363	0.000243	2.432999	0.824322	0.000097
1778	1.7681e+02	-9.2003	-46.556249	0.000304	3.041248	1.030403	0.000122
1779	1.7691e+02	-9.1618	-46.414950	0.000355	3.548123	1.202137	0.000142
1780	1.7701e+02	-9.1153	-46.314021	0.000253	2.534374	0.858669	0.000101
1781	1.7711e+02	-9.0784	-46.132350	0.000456	4.561873	1.545604	0.000183
1782	1.7721e+02	-9.0382	-46.007199	0.000314	3.142623	1.064750	0.000126
1783	1.7731e+02	-9.0030	-45.886085	0.000304	3.041248	1.030403	0.000122
1784	1.7741e+02	-8.9693	-45.748822	0.000345	3.446748	1.167790	0.000138
1785	1.7751e+02	-8.9131	-45.575225	0.000436	4.359123	1.476911	0.000174
1786	1.7761e+02	-8.8778	-45.458148	0.000294	2.939874	0.996056	0.000118
1787	1.7771e+02	-8.8329	-45.365294	0.000233	2.331624	0.789976	0.000093
1788	1.7781e+02	-8.7944	-45.199772	0.000416	4.156373	1.408217	0.000166
1789	1.7791e+02	-8.7591	-45.042323	0.000395	3.953623	1.339524	0.000158
1790	1.7801e+02	-8.7206	-44.965618	0.000193	1.926124	0.652588	0.000077
1791	1.7810e+02	-8.6789	-44.792021	0.000436	4.359123	1.476911	0.000174
1792	1.7820e+02	-8.6420	-44.654758	0.000345	3.446748	1.167790	0.000138
1793	1.7830e+02	-8.5939	-44.537681	0.000294	2.939874	0.996056	0.000118
1794	1.7840e+02	-8.5570	-44.408493	0.000324	3.243998	1.099096	0.000130
1795	1.7850e+02	-8.5121	-44.283342	0.000314	3.142623	1.064750	0.000126
1796	1.7860e+02	-8.4784	-44.138005	0.000365	3.649498	1.236483	0.000146
1797	1.7870e+02	-8.4351	-43.980557	0.000395	3.953623	1.339524	0.000158
1798	1.7880e+02	-8.3982	-43.895777	0.000213	2.128874	0.721282	0.000085
1799	1.7890e+02	-8.3597	-43.722180	0.000436	4.359123	1.476911	0.000174
1800	1.7900e+02	-8.3228	-43.613177	0.000274	2.737124	0.927363	0.000110
1801	1.7910e+02	-8.2810	-43.467840	0.000365	3.649498	1.236483	0.000146
1802	1.7920e+02	-8.2297	-43.334615	0.000335	3.345373	1.133443	0.000134
1803	1.7930e+02	-8.2008	-43.213501	0.000304	3.041248	1.030403	0.000122
1804	1.7940e+02	-8.1655	-43.116610	0.000243	2.432999	0.824322	0.000097
1805	1.7950e+02	-8.1270	-42.894567	0.000558	5.575622	1.889072	0.000223
1806	1.7960e+02	-8.0869	-42.805750	0.000223	2.230249	0.755629	0.000089
1807	1.7970e+02	-8.0420	-42.684636	0.000304	3.041248	1.030403	0.000122
1808	1.7980e+02	-8.0035	-42.519114	0.000416	4.156373	1.408217	0.000166
1809	1.7990e+02	-7.9618	-42.418185	0.000253	2.534374	0.858669	0.000101
1810	1.8000e+02	-7.9217	-42.284960	0.000335	3.345373	1.133443	0.000134
1811	1.8009e+02	-7.8848	-42.147697	0.000345	3.446748	1.167790	0.000138
1812	1.8019e+02	-7.8431	-42.010434	0.000345	3.446748	1.167790	0.000138
1813	1.8029e+02	-7.8014	-41.861060	0.000375	3.750873	1.270830	0.000150
1814	1.8039e+02	-7.7677	-41.715724	0.000365	3.649498	1.236483	0.000146
1815	1.8049e+02	-7.7196	-41.598647	0.000294	2.939874	0.996056	0.000118
1816	1.8059e+02	-7.6859	-41.441198	0.000395	3.953623	1.339524	0.000158
1817	1.8069e+02	-7.6458	-41.340270	0.000253	2.534374	0.858669	0.000101
1818	1.8079e+02	-7.6025	-41.170710	0.000426	4.257748	1.442564	0.000170
1819	1.8089e+02	-7.5591	-41.057670	0.000284	2.838499	0.961709	0.000114
1820	1.8099e+02	-7.5271	-40.968853	0.000223	2.230249	0.755629	0.000089
1821	1.8109e+02	-7.4870	-40.791219	0.000446	4.460498	1.511258	0.000179
1822	1.8119e+02	-7.4420	-40.674143	0.000294	2.939874	0.996056	0.000118
1823	1.8129e+02	-7.4035	-40.508620	0.000416	4.156373	1.408217	0.000166
1824	1.8139e+02	-7.3586	-40.379432	0.000324	3.243998	1.099096	0.000130
1825	1.8149e+02	-7.3233	-40.221983	0.000395	3.953623	1.339524	0.000158
1826	1.8159e+02	-7.2784	-40.096832	0.000314	3.142623	1.064750	0.000126
1827	1.8169e+02	-7.2447	-39.983792	0.000284	2.838499	0.961709	0.000114
1828	1.8179e+02	-7.2014	-39.842493	0.000355	3.548123	1.202137	0.000142
1829	1.8189e+02	-7.1693	-39.709267	0.000335	3.345373	1.133443	0.000134
1830	1.8199e+02	-7.1196	-39.572005	0.000345	3.446748	1.167790	0.000138
1831	1.8209e+02	-7.0875	-39.422630	0.000375	3.750873	1.270830	0.000150
1832	1.8218e+02	-7.0506	-39.277294	0.000365	3.649498	1.236483	0.000146
1833	1.8228e+02	-7.0041	-39.135994	0.000355	3.548123	1.202137	0.000142
1834	1.8238e+02	-6.9576	-38.994694	0.000355	3.548123	1.202137	0.000142
1835	1.8248e+02	-6.9255	-38.829172	0.000416	4.156373	1.408217	0.000166
1836	1.8258e+02	-6.8806	-38.720169	0.000274	2.737124	0.927363	0.000110
1837	1.8268e+02	-6.8421	-38.586943	0.000335	3.345373	1.133443	0.000134
1838	1.8278e+02	-6.8068	-38.449681	0.000345	3.446748	1.167790	0.000138
1839	1.8288e+02	-6.7650	-38.336641	0.000284	2.838499	0.961709	0.000114
1840	1.8298e+02	-6.7282	-38.187267	0.000375	3.750873	1.270830	0.000150
1841	1.8308e+02	-6.6832	-38.005596	0.000456	4.561873	1.545604	0.000183
1842	1.8318e+02	-6.6511	-37.880445	0.000314	3.142623	1.064750	0.000126
1843	1.8328e+02	-6.6110	-37.775479	0.000264	2.635749	0.893016	0.000105
1844	1.8338e+02	-6.5661	-37.626105	0.000375	3.750873	1.270830	0.000150
1845	1.8348e+02	-6.5196	-37.492880	0.000335	3.345373	1.133443	0.000134
1846	1.8358e+02	-6.4891	-37.404063	0.000223	2.230249	0.755629	0.000089
1847	1.8368e+02	-6.4442	-37.202206	0.000507	5.068747	1.717338	0.000203
1848	1.8378e+02	-6.4089	-37.093203	0.000274	2.737124	0.927363	0.000110
1849	1.8388e+02	-6.3752	-36.923643	0.000426	4.257748	1.442564	0.000170
1850	1.8398e+02	-6.3335	-36.774269	0.000375	3.750873	1.270830	0.000150
1851	1.8407e+02	-6.2918	-36.669304	0.000264	2.635749	0.893016	0.000105
1852	1.8417e+02	-6.2517	-36.564338	0.000264	2.635749	0.893016	0.000105
1853	1.8427e+02	-6.2196	-36.410927	0.000385	3.852248	1.305177	0.000154
1854	1.8437e+02	-6.1683	-36.285776	0.000314	3.142623	1.064750	0.000126
1855	1.8447e+02	-6.1266	-36.144476	0.000355	3.548123	1.202137	0.000142
1856	1.8457e+02	-6.0865	-35.987028	0.000395	3.953623	1.339524	0.000158
1857	1.8467e+02	-6.0512	-35.845728	0.000355	3.548123	1.202137	0.000142
1858	1.8477e+02	-6.0111	-35.724614	0.000304	3.041248	1.030403	0.000122
1859	1.8487e+02	-5.9742	-35.595426	0.000324	3.243998	1.099096	0.000130
1860	1.8497e+02	-5.9357	-35.446052	0.000375	3.750873	1.270830	0.000150
1861	1.8507e+02	-5.8956	-35.316863	0.000324	3.243998	1.099096	0.000130
1862	1.8517e+02	-5.8619	-35.159415	0.000395	3.953623	1.339524	0.000158
1863	1.8527e+02	-5.8153	-35.022153	0.000345	3.446748	1.167790	0.000138
1864	1.8537e+02	-5.7672	-34.876816	0.000365	3.649498	1.236483	0.000146
1865	1.8547e+02	-5.7335	-34.723404	0.000385	3.852248	1.305177	0.000154
1866	1.8557e+02	-5.6950	-34.565956	0.000395	3.953623	1.339524	0.000158
1867	1.8567e+02	-5.6469	-34.465028	0.000253	2.534374	0.858669	0.000101
1868	1.8577e+02	-5.6036	-34.311617	0.000385	3.852248	1.305177	0.000154
1869	1.8587e+02	-5.5715	-34.190503	0.000304	3.041248	1.030403	0.000122
1870	1.8597e+02	-5.5362	-34.029017	0.000405	4.054998	1.373870	0.000162
1871	1.8606e+02	-5.4961	-33.915977	0.000284	2.838499	0.961709	0.000114
1872	1.8616e+02	-5.4560	-33.738343	0.000446	4.460498	1.511258	0.000179
1873	1.8626e+02	-5.4175	-33.597044	0.000355	3.548123	1.202137	0.000142
1874	1.8636e+02	-5.3710	-33.451707	0.000365	3.649498	1.236483	0.000146
1875	1.8646e+02	-5.3277	-33.306370	0.000365	3.649498	1.236483	0.000146
1876	1.8656e+02	-5.2972	-33.161033	0.000365	3.649498	1.236483	0.000146
1877	1.8666e+02	-5.2587	-33.015696	0.000365	3.649498	1.236483	0.000146
1878	1.8676e+02	-5.2170	-32.846136	0.000426	4.257748	1.442564	0.000170
1879	1.8686e+02	-5.1785	-32.737134	0.000274	2.737124	0.927363	0.000110
1880	1.8696e+02	-5.1416	-32.595834	0.000355	3.548123	1.202137	0.000142
1881	1.8706e+02	-5.0934	-32.369754	0.000568	5.676997	1.923419	0.000227
1882	1.8716e+02	-5.0501	-32.248640	0.000304	3.041248	1.030403	0.000122
1883	1.8726e+02	-5.0293	-32.131563	0.000294	2.939874	0.996056	0.000118
1884	1.8736e+02	-4.9860	-31.962004	0.000426	4.257748	1.442564	0.000170
1885	1.8746e+02	-4.9410	-31.812630	0.000375	3.750873	1.270830	0.000150
1886	1.8756e+02	-4.9009	-31.647107	0.000416	4.156373	1.408217	0.000166
1887	1.8766e+02	-4.8560	-31.546179	0.000253	2.534374	0.858669	0.000101
1888	1.8776e+02	-4.8079	-31.368545	0.000446	4.460498	1.511258	0.000179
1889	1.8786e+02	-4.7710	-31.203022	0.000416	4.156373	1.408217	0.000166
1890	1.8796e+02	-4.7229	-31.065760	0.000345	3.446748	1.167790	0.000138
1891	1.8806e+02	-4.6988	-30.932534	0.000335	3.345373	1.133443	0.000134
1892	1.8815e+02	-4.6603	-30.754900	0.000446	4.460498	1.511258	0.000179
1893	1.8825e+02	-4.6186	-30.633786	0.000304	3.041248	1.030403	0.000122
1894	1.8835e+02	-4.5833	-30.472301	0.000405	4.054998	1.373870	0.000162
1895	1.8845e+02	-4.5416	-30.314852	0.000395	3.953623	1.339524	0.000158
1896	1.8855e+02	-4.4967	-30.185664	0.000324	3.243998	1.099096	0.000130
1897	1.8865e+02	-4.4582	-30.036290	0.000375	3.750873	1.270830	0.000150
1898	1.8875e+02	-4.4197	-29.866730	0.000426	4.257748	1.442564	0.000170
1899	1.8885e+02	-4.3828	-29.705245	0.000405	4.054998	1.373870	0.000162
1900	1.8895e+02	-4.3362	-29.584131	0.000304	3.041248	1.030403	0.000122
1901	1.8905e+02	-4.2913	-29.422645	0.000405	4.054998	1.373870	0.000162
1902	1.8915e+02	-4.2560	-29.245011	0.000446	4.460498	1.511258	0.000179
1903	1.8925e+02	-4.2143	-29.099674	0.000365	3.649498	1.236483	0.000146
1904	1.8935e+02	-4.1854	-28.978560	0.000304	3.041248	1.030403	0.000122
1905	1.8945e+02	-4.1341	-28.784778	0.000487	4.865998	1.648645	0.000195
1906	1.8955e+02	-4.1020	-28.631367	0.000385	3.852248	1.305177	0.000154
1907	1.8965e+02	-4.0651	-28.530438	0.000253	2.534374	0.858669	0.000101
1908	1.8975e+02	-4.0202	-28.344730	0.000466	4.663248	1.579951	0.000187
1909	1.8985e+02	-3.9801	-28.211505	0.000335	3.345373	1.133443	0.000134
1910	1.8995e+02	-3.9384	-28.070205	0.000355	3.548123	1.202137	0.000142
1911	1.9004e+02	-3.8935	-27.856237	0.000537	5.372872	1.820378	0.000215
1912	1.9014e+02	-3.8582	-27.698788	0.000395	3.953623	1.339524	0.000158
1913	1.9024e+02	-3.8229	-27.537303	0.000405	4.054998	1.373870	0.000162
1914	1.9034e+02	-3.7876	-27.408115	0.000324	3.243998	1.099096	0.000130
1915	1.9044e+02	-3.7443	-27.282963	0.000314	3.142623	1.064750	0.000126
1916	1.9054e+02	-3.7026	-27.097255	0.000466	4.663248	1.579951	0.000187
1917	1.9064e+02	-3.6673	-26.968067	0.000324	3.243998	1.099096	0.000130
1918	1.9074e+02	-3.6256	-26.762173	0.000517	5.170122	1.751685	0.000207
1919	1.9084e+02	-3.5855	-26.661244	0.000253	2.534374	0.858669	0.000101
1920	1.9094e+02	-3.5421	-26.495722	0.000416	4.156373	1.408217	0.000166
1921	1.9104e+02	-3.5036	-26.297902	0.000497	4.967372	1.682991	0.000199
1922	1.9114e+02	-3.4732	-26.172751	0.000314	3.142623	1.064750	0.000126
1923	1.9124e+02	-3.4218	-25.999154	0.000436	4.359123	1.476911	0.000174
1924	1.9134e+02	-3.3833	-25.857854	0.000355	3.548123	1.202137	0.000142
1925	1.9144e+02	-3.3480	-25.680220	0.000446	4.460498	1.511258	0.000179
1926	1.9154e+02	-3.3031	-25.506624	0.000436	4.359123	1.476911	0.000174
1927	1.9164e+02	-3.2630	-25.405695	0.000253	2.534374	0.858669	0.000101
1928	1.9174e+02	-3.2309	-25.248247	0.000395	3.953623	1.339524	0.000158
1929	1.9184e+02	-3.1796	-25.078687	0.000426	4.257748	1.442564	0.000170
1930	1.9194e+02	-3.1459	-24.913165	0.000416	4.156373	1.408217	0.000166
1931	1.9203e+02	-3.1106	-24.747642	0.000416	4.156373	1.408217	0.000166
1932	1.9213e+02	-3.0641	-24.614417	0.000335	3.345373	1.133443	0.000134
1933	1.9223e+02	-3.0192	-24.408523	0.000517	5.170122	1.751685	0.000207
1934	1.9233e+02	-2.9839	-24.267223	0.000355	3.548123	1.202137	0.000142
1935	1.9243e+02	-2.9438	-24.077478	0.000476	4.764623	1.614298	0.000191
1936	1.9253e+02	-2.9021	-23.924066	0.000385	3.852248	1.305177	0.000154
1937	1.9263e+02	-2.8732	-23.794878	0.000324	3.243998	1.099096	0.000130
1938	1.9273e+02	-2.8202	-23.617244	0.000446	4.460498	1.511258	0.000179
1939	1.9283e+02	-2.7849	-23.435573	0.000456	4.561873	1.545604	0.000183
1940	1.9293e+02	-2.7464	-23.298310	0.000345	3.446748	1.167790	0.000138
1941	1.9303e+02	-2.7144	-23.124714	0.000436	4.359123	1.476911	0.000174
1942	1.9313e+02	-2.6582	-22.959191	0.000416	4.156373	1.408217	0.000166
1943	1.9323e+02	-2.6213	-22.805780	0.000385	3.852248	1.305177	0.000154
1944	1.9333e+02	-2.5940	-22.656406	0.000375	3.750873	1.270830	0.000150
1945	1.9343e+02	-2.5475	-22.507032	0.000375	3.750873	1.270830	0.000150
1946	1.9353e+02	-2.5010	-22.309212	0.000497	4.967372	1.682991	0.000199
1947	1.9363e+02	-2.4625	-22.131578	0.000446	4.460498	1.511258	0.000179
1948	1.9373e+02	-2.4288	-22.014501	0.000294	2.939874	0.996056	0.000118
1949	1.9383e+02	-2.3823	-21.848979	0.000416	4.156373	1.408217	0.000166
1950	1.9393e+02	-2.3454	-21.643085	0.000517	5.170122	1.751685	0.000207
1951	1.9403e+02	-2.3069	-21.509859	0.000335	3.345373	1.133443	0.000134
1952	1.9412e+02	-2.2668	-21.348374	0.000405	4.054998	1.373870	0.000162
1953	1.9422e+02	-2.2251	-21.194963	0.000385	3.852248	1.305177	0.000154
1954	1.9432e+02	-2.1866	-21.057700	0.000345	3.446748	1.167790	0.000138
1955	1.9442e+02	-2.1368	-20.839695	0.000547	5.474247	1.854725	0.000219
1956	1.9452e+02	-2.1096	-20.714543	0.000314	3.142623	1.064750	0.000126
1957	1.9462e+02	-2.0566	-20.540947	0.000436	4.359123	1.476911	0.000174
1958	1.9472e+02	-2.0278	-20.395610	0.000365	3.649498	1.236483	0.000146
1959	1.9482e+02	-1.9909	-20.234124	0.000405	4.054998	1.373870	0.000162
1960	1.9492e+02	-1.9507	-20.068602	0.000416	4.156373	1.408217	0.000166
1961	1.9502e+02	-1.9090	-19.915191	0.000385	3.852248	1.305177	0.000154
1962	1.9512e+02	-1.8673	-19.745631	0.000426	4.257748	1.442564	0.000170
1963	1.9522e+02	-1.8368	-19.596257	0.000375	3.750873	1.270830	0.000150
1964	1.9532e+02	-1.7855	-19.434771	0.000405	4.054998	1.373870	0.000162
1965	1.9542e+02	-1.7422	-19.245026	0.000476	4.764623	1.614298	0.000191
1966	1.9552e+02	-1.7117	-19.127949	0.000294	2.939874	0.996056	0.000118
1967	1.9562e+02	-1.6716	-18.962427	0.000416	4.156373	1.408217	0.000166
1968	1.9572e+02	-1.6347	-18.809015	0.000385	3.852248	1.305177	0.000154
1969	1.9582e+02	-1.5850	-18.663679	0.000365	3.649498	1.236483	0.000146
1970	1.9592e+02	-1.5433	-18.494119	0.000426	4.257748	1.442564	0.000170
1971	1.9601e+02	-1.5144	-18.316485	0.000446	4.460498	1.511258	0.000179
1972	1.9611e+02	-1.4711	-18.126739	0.000476	4.764623	1.614298	0.000191
1973	1.9621e+02	-1.4278	-17.969291	0.000395	3.953623	1.339524	0.000158
1974	1.9631e+02	-1.3877	-17.823954	0.000365	3.649498	1.236483	0.000146
1975	1.9641e+02	-1.3524	-17.682655	0.000355	3.548123	1.202137	0.000142
1976	1.9651e+02	-1.3010	-17.509058	0.000436	4.359123	1.476911	0.000174
1977	1.9661e+02	-1.2657	-17.363721	0.000365	3.649498	1.236483	0.000146
1978	1.9671e+02	-1.2240	-17.165901	0.000497	4.967372	1.682991	0.000199
1979	1.9681e+02	-1.1919	-17.036713	0.000324	3.243998	1.099096	0.000130
1980	1.9691e+02	-1.1518	-16.883302	0.000385	3.852248	1.305177	0.000154
1981	1.9701e+02	-1.1085	-16.697593	0.000466	4.663248	1.579951	0.000187
1982	1.9711e+02	-1.0732	-16.552257	0.000365	3.649498	1.236483	0.000146
1983	1.9721e+02	-1.0444	-16.419031	0.000335	3.345373	1.133443	0.000134
1984	1.9731e+02	-0.9882	-16.241397	0.000446	4.460498	1.511258	0.000179
1985	1.9741e+02	-0.9529	-16.043577	0.000497	4.967372	1.682991	0.000199
1986	1.9751e+02	-0.9192	-15.902278	0.000355	3.548123	1.202137	0.000142
1987	1.9761e+02	-0.8679	-15.708495	0.000487	4.865998	1.648645	0.000195
1988	1.9771e+02	-0.8326	-15.579307	0.000324	3.243998	1.099096	0.000130
1989	1.9781e+02	-0.7909	-15.405710	0.000436	4.359123	1.476911	0.000174
1990	1.9791e+02	-0.7476	-15.284596	0.000304	3.041248	1.030403	0.000122
1991	1.9800e+02	-0.7107	-15.102925	0.000456	4.561873	1.545604	0.000183
1992	1.9810e+02	-0.6770	-14.929328	0.000436	4.359123	1.476911	0.000174
1993	1.9820e+02	-0.6240	-14.763805	0.000416	4.156373	1.408217	0.000166
1994	1.9830e+02	-0.5968	-14.618469	0.000365	3.649498	1.236483	0.000146
1995	1.9840e+02	-0.5535	-14.444872	0.000436	4.359123	1.476911	0.000174
1996	1.9850e+02	-0.5053	-14.271275	0.000436	4.359123	1.476911	0.000174
1997	1.9860e+02	-0.4716	-14.089604	0.000456	4.561873	1.545604	0.000183
1998	1.9870e+02	-0.4331	-13.960415	0.000324	3.243998	1.099096	0.000130
1999	1.9880e+02	-0.3946	-13.750484	0.000527	5.271497	1.786032	0.000211
2000	1.9890e+02	-0.3577	-13.637445	0.000284	2.838499	0.961709	0.000114
2001	1.9900e+02	-0.3225	-13.479996	0.000395	3.953623	1.339524	0.000158
2002	1.9910e+02	-0.2759	-13.314474	0.000416	4.156373	1.408217	0.000166
2003	1.9920e+02	-0.2406	-13.112617	0.000507	5.068747	1.717338	0.000203
2004	1.9930e+02	-0.2053	-12.955169	0.000395	3.953623	1.339524	0.000158
2005	1.9940e+02	-0.1508	-12.793683	0.000405	4.054998	1.373870	0.000162
2006	1.9950e+02	-0.1123	-12.656421	0.000345	3.446748	1.167790	0.000138
2007	1.9960e+02	-0.0754	-12.482824	0.000436	4.359123	1.476911	0.000174
2008	1.9970e+02	-0.0305	-12.317301	0.000416	4.156373	1.408217	0.000166
2009	1.9980e+02	0.0016	-12.163890	0.000416	4.156373	1.408217	0.000154

PMax (uC/cm2):	7.98e+01
Pr (uC/cm2):	5.96e+00
-Pr (uC/cm2):	-6.58e+00
PLoss (uC/cm2):	-6.56e+00
-Vc:	-1.41e+00
C (Max-Eff) (nF):	3.99e-01
K (Eff):	1.35e+03
Vert. (+/-Pr) Shift (uC/cm2):	-3.10e-01
Offset (uC/cm2):	5.58e+00

A (Loop Area - uC/cm2·Volts):	6.56e-02



Hysteresis Version: 5.48.1 - Radiant Technologies, Inc., 1999 - 9/12/24

