»»»»»»»»»»»»»»»»»»»»»»»»»»»»»»»»»»»» Hysteresis ««««««««««««««««««««««««««««««««««««
»»»  Executed Version:	5.48.1
»»»  Vision Version:	5.48.4 (R)
»»»  Vision Compiled:	9/18/24
»»»  Driver Version:	5.47.0
»»»  Windows Version:	Windows 8 or 8.1
»»»  Processor Information:	x86 (AMD or Intel) - 32 Processors
»»»  Tester Name:	PMF21124-494 (100V)
»»»  Tester S/N:	PMF21124-494
»»»  Internal Amp Type:	100V RevK 270k
»»»  Internal Amp S/N:	iAB2-596/K     
»»»  Execution Count:	1
»»»»»»»»»»»»»»»»»»»»»»»»»»»»»»»»»»»»»»»»»»««««««««««««««««««««««««««««««««««««««««««

Stored:	6/19/2025 - 20:15:10
Configured:	06/19/25 10:04:32 AM
Executed:	06/19/25 08:13:58 PM

»»»»»»»»»»»»»»»»»»»»»»»»»»»»»»»»»»» Sample Info ««««««««««««««««««««««««««««««««««««
Sample Name:	
Lot Name:	
Wafer Name:	
Die Row/Column:	0/0
Capacitor Number:	0
Sample Area (cm2):	1.00e-04
Sample Thickness (microns):	3.00e-01

Amplifier:	Internal

»»»»»»»»»»»»»»»»»»»»»»»»»»»»»»»»»»» Tester Info «««««««««««««««««««««««««««««««««««
Tester Name:	PMF21124-494 (100V)
Tester Serial Number:	PMF21124-494
Return Signal Amp. Level:	0.19 [Index: 3]

»»»»»»»»»»»»»»»»»»»»»»»»»»»»»»»» Hysteresis Info ««««««««««««««««««««««««««««««««««
Task Name:	Hyst-1168
Volts:	20.00
Field:	666.67 (kV/cm)
DCBias:	0.00
DCField:	0.00 (kV/cm)
Hysteresis Period (ms):	2.00e+02
Preset:	Enabled
Preset Delay (ms):	1.00e+03
Profile:	Standard Bipolar

»»»»»»»»»»»»»»»»»»»»»»»»»»»»»»»»»»»»»» Data «««««««««««««««««««««««««««««««««««««««
Points:	2009

Valid Data

Point	Time (ms)	Drive Voltage	Measured Polarization (uC/cm2)	Capacitance (uF)	Normalized Capacitance (uF/cm2)	Dielectric Constant	Instantaneous Current (mA)
   1	0.0000e+00	-0.0016	-6.144521	0.000345	3.446333	1.167649	0.000138
   2	9.9500e-02	0.0417	-6.007258	0.000345	3.446333	1.167649	0.000138
   3	1.9900e-01	0.0802	-5.865958	0.000355	3.547696	1.201992	0.000142
   4	2.9850e-01	0.1123	-5.688324	0.000446	4.459961	1.511076	0.000179
   5	3.9800e-01	0.1668	-5.547025	0.000355	3.547696	1.201992	0.000142
   6	4.9750e-01	0.1973	-5.369391	0.000446	4.459961	1.511076	0.000179
   7	5.9700e-01	0.2342	-5.240202	0.000324	3.243608	1.098964	0.000130
   8	6.9650e-01	0.2759	-5.058531	0.000456	4.561324	1.545418	0.000183
   9	7.9600e-01	0.3112	-4.929343	0.000324	3.243608	1.098964	0.000130
  10	8.9550e-01	0.3577	-4.751709	0.000446	4.459961	1.511076	0.000179
  11	9.9500e-01	0.4027	-4.590223	0.000405	4.054510	1.373705	0.000162
  12	1.0945e+00	0.4380	-4.448924	0.000355	3.547696	1.201992	0.000142
  13	1.1940e+00	0.4732	-4.267252	0.000456	4.561324	1.545418	0.000183
  14	1.2935e+00	0.5214	-4.109804	0.000395	3.953147	1.339363	0.000158
  15	1.3930e+00	0.5503	-3.976579	0.000334	3.344971	1.133307	0.000134
  16	1.4925e+00	0.5968	-3.807019	0.000426	4.257235	1.442390	0.000170
  17	1.5920e+00	0.6337	-3.661682	0.000365	3.649059	1.236335	0.000146
  18	1.6915e+00	0.6722	-3.471937	0.000476	4.764049	1.614104	0.000191
  19	1.7910e+00	0.7155	-3.338711	0.000334	3.344971	1.133307	0.000134
  20	1.8905e+00	0.7556	-3.177226	0.000405	4.054510	1.373705	0.000162
  21	1.9900e+00	0.7893	-3.035926	0.000355	3.547696	1.201992	0.000142
  22	2.0895e+00	0.8358	-2.858292	0.000446	4.459961	1.511076	0.000179
  23	2.1890e+00	0.8727	-2.700844	0.000395	3.953147	1.339363	0.000158
  24	2.2885e+00	0.9080	-2.527247	0.000436	4.358598	1.476733	0.000174
  25	2.3880e+00	0.9625	-2.373836	0.000385	3.851784	1.305020	0.000154
  26	2.4875e+00	0.9914	-2.240610	0.000334	3.344971	1.133307	0.000134
  27	2.5870e+00	1.0428	-2.075088	0.000416	4.155873	1.408048	0.000166
  28	2.6865e+00	1.0893	-1.901491	0.000436	4.358598	1.476733	0.000174
  29	2.7860e+00	1.1133	-1.719820	0.000456	4.561324	1.545418	0.000183
  30	2.8855e+00	1.1599	-1.546223	0.000436	4.358598	1.476733	0.000174
  31	2.9850e+00	1.1952	-1.384738	0.000405	4.054510	1.373705	0.000162
  32	3.0845e+00	1.2321	-1.267661	0.000294	2.939520	0.995936	0.000118
  33	3.1840e+00	1.2754	-1.102138	0.000416	4.155873	1.408048	0.000166
  34	3.2835e+00	1.3155	-0.920467	0.000456	4.561324	1.545418	0.000183
  35	3.3830e+00	1.3588	-0.754944	0.000416	4.155873	1.408048	0.000166
  36	3.4825e+00	1.3909	-0.601533	0.000385	3.851784	1.305020	0.000154
  37	3.5820e+00	1.4406	-0.452159	0.000375	3.750422	1.270677	0.000150
  38	3.6815e+00	1.4711	-0.262414	0.000476	4.764049	1.614104	0.000191
  39	3.7810e+00	1.5160	-0.092854	0.000426	4.257235	1.442390	0.000170
  40	3.8805e+00	1.5449	0.052483	0.000365	3.649059	1.236335	0.000146
  41	3.9800e+00	1.5882	0.213968	0.000405	4.054510	1.373705	0.000162
  42	4.0795e+00	1.6267	0.387565	0.000436	4.358598	1.476733	0.000174
  43	4.1790e+00	1.6732	0.536939	0.000375	3.750422	1.270677	0.000150
  44	4.2785e+00	1.7165	0.734759	0.000497	4.966775	1.682789	0.000199
  45	4.3780e+00	1.7566	0.888170	0.000385	3.851784	1.305020	0.000154
  46	4.4775e+00	1.7935	1.045618	0.000395	3.953147	1.339363	0.000158
  47	4.5770e+00	1.8272	1.207104	0.000405	4.054510	1.373705	0.000162
  48	4.6765e+00	1.8689	1.384738	0.000446	4.459961	1.511076	0.000179
  49	4.7760e+00	1.9042	1.558334	0.000436	4.358598	1.476733	0.000174
  50	4.8755e+00	1.9507	1.731931	0.000436	4.358598	1.476733	0.000174
  51	4.9750e+00	1.9812	1.853045	0.000304	3.040882	1.030279	0.000122
  52	5.0745e+00	2.0310	2.058939	0.000517	5.169500	1.751474	0.000207
  53	5.1740e+00	2.0727	2.248685	0.000476	4.764049	1.614104	0.000191
  54	5.2735e+00	2.1080	2.381910	0.000334	3.344971	1.133307	0.000134
  55	5.3730e+00	2.1593	2.543396	0.000405	4.054510	1.373705	0.000162
  56	5.4725e+00	2.1882	2.757364	0.000537	5.372226	1.820159	0.000215
  57	5.5720e+00	2.2315	2.930961	0.000436	4.358598	1.476733	0.000174
  58	5.6715e+00	2.2668	3.064186	0.000334	3.344971	1.133307	0.000134
  59	5.7710e+00	2.3101	3.233746	0.000426	4.257235	1.442390	0.000170
  60	5.8705e+00	2.3454	3.431565	0.000497	4.966775	1.682789	0.000199
  61	5.9700e+00	2.3967	3.552679	0.000304	3.040882	1.030279	0.000122
  62	6.0695e+00	2.4288	3.742425	0.000476	4.764049	1.614104	0.000191
  63	6.1690e+00	2.4721	3.932170	0.000476	4.764049	1.614104	0.000191
  64	6.2685e+00	2.5154	4.085581	0.000385	3.851784	1.305020	0.000154
  65	6.3680e+00	2.5523	4.255141	0.000426	4.257235	1.442390	0.000170
  66	6.4675e+00	2.5828	4.432775	0.000446	4.459961	1.511076	0.000179
  67	6.5670e+00	2.6309	4.566001	0.000334	3.344971	1.133307	0.000134
  68	6.6665e+00	2.6662	4.699226	0.000334	3.344971	1.133307	0.000134
  69	6.7660e+00	2.7079	4.888971	0.000476	4.764049	1.614104	0.000191
  70	6.8655e+00	2.7432	5.094865	0.000517	5.169500	1.751474	0.000207
  71	6.9650e+00	2.7882	5.228091	0.000334	3.344971	1.133307	0.000134
  72	7.0645e+00	2.8283	5.397650	0.000426	4.257235	1.442390	0.000170
  73	7.1640e+00	2.8700	5.551062	0.000385	3.851784	1.305020	0.000154
  74	7.2635e+00	2.9037	5.724658	0.000436	4.358598	1.476733	0.000174
  75	7.3630e+00	2.9486	5.890181	0.000416	4.155873	1.408048	0.000166
  76	7.4625e+00	2.9839	6.055704	0.000416	4.155873	1.408048	0.000166
  77	7.5620e+00	3.0240	6.205078	0.000375	3.750422	1.270677	0.000150
  78	7.6615e+00	3.0657	6.374637	0.000426	4.257235	1.442390	0.000170
  79	7.7610e+00	3.1010	6.544197	0.000426	4.257235	1.442390	0.000170
  80	7.8605e+00	3.1379	6.725868	0.000456	4.561324	1.545418	0.000183
  81	7.9600e+00	3.1812	6.907539	0.000456	4.561324	1.545418	0.000183
  82	8.0595e+00	3.2181	7.052876	0.000365	3.649059	1.236335	0.000146
  83	8.1590e+00	3.2710	7.254733	0.000507	5.068137	1.717131	0.000203
  84	8.2585e+00	3.3015	7.355661	0.000253	2.534069	0.858566	0.000101
  85	8.3580e+00	3.3464	7.565592	0.000527	5.270863	1.785817	0.000211
  86	8.4575e+00	3.3785	7.670558	0.000264	2.635431	0.892908	0.000105
  87	8.5570e+00	3.4315	7.852229	0.000456	4.561324	1.545418	0.000183
  88	8.6565e+00	3.4603	8.025826	0.000436	4.358598	1.476733	0.000174
  89	8.7560e+00	3.5149	8.215571	0.000476	4.764049	1.614104	0.000191
  90	8.8555e+00	3.5405	8.344760	0.000324	3.243608	1.098964	0.000130
  91	8.9550e+00	3.5855	8.546616	0.000507	5.068137	1.717131	0.000203
  92	9.0545e+00	3.6224	8.691953	0.000365	3.649059	1.236335	0.000146
  93	9.1540e+00	3.6705	8.845364	0.000385	3.851784	1.305020	0.000154
  94	9.2535e+00	3.7090	9.039147	0.000487	4.865412	1.648446	0.000195
  95	9.3530e+00	3.7395	9.172372	0.000334	3.344971	1.133307	0.000134
  96	9.4525e+00	3.7812	9.305598	0.000334	3.344971	1.133307	0.000134
  97	9.5520e+00	3.8261	9.487269	0.000456	4.561324	1.545418	0.000183
  98	9.6515e+00	3.8630	9.681051	0.000487	4.865412	1.648446	0.000195
  99	9.7510e+00	3.9015	9.846574	0.000416	4.155873	1.408048	0.000166
 100	9.8505e+00	3.9368	9.991911	0.000365	3.649059	1.236335	0.000146
 101	9.9500e+00	3.9849	10.149359	0.000395	3.953147	1.339363	0.000158
 102	1.0050e+01	4.0218	10.326993	0.000446	4.459961	1.511076	0.000179
 103	1.0149e+01	4.0683	10.496553	0.000426	4.257235	1.442390	0.000170
 104	1.0248e+01	4.1036	10.658038	0.000405	4.054510	1.373705	0.000162
 105	1.0348e+01	4.1469	10.859895	0.000507	5.068137	1.717131	0.000203
 106	1.0447e+01	4.1838	10.972935	0.000284	2.838157	0.961594	0.000114
 107	1.0547e+01	4.2143	11.154606	0.000456	4.561324	1.545418	0.000183
 108	1.0646e+01	4.2657	11.340314	0.000466	4.662686	1.579761	0.000187
 109	1.0746e+01	4.3009	11.517948	0.000446	4.459961	1.511076	0.000179
 110	1.0845e+01	4.3362	11.667322	0.000375	3.750422	1.270677	0.000150
 111	1.0945e+01	4.3908	11.816696	0.000375	3.750422	1.270677	0.000150
 112	1.1044e+01	4.4197	11.957996	0.000355	3.547696	1.201992	0.000142
 113	1.1144e+01	4.4694	12.163890	0.000517	5.169500	1.751474	0.000207
 114	1.1243e+01	4.5031	12.305190	0.000355	3.547696	1.201992	0.000142
 115	1.1343e+01	4.5464	12.458601	0.000385	3.851784	1.305020	0.000154
 116	1.1443e+01	4.5769	12.640272	0.000456	4.561324	1.545418	0.000183
 117	1.1542e+01	4.6186	12.793683	0.000385	3.851784	1.305020	0.000154
 118	1.1642e+01	4.6555	12.947094	0.000385	3.851784	1.305020	0.000154
 119	1.1741e+01	4.6972	13.157025	0.000527	5.270863	1.785817	0.000211
 120	1.1841e+01	4.7373	13.302362	0.000365	3.649059	1.236335	0.000146
 121	1.1940e+01	4.7726	13.443662	0.000355	3.547696	1.201992	0.000142
 122	1.2040e+01	4.8223	13.637445	0.000487	4.865412	1.648446	0.000195
 123	1.2139e+01	4.8544	13.794893	0.000395	3.953147	1.339363	0.000158
 124	1.2239e+01	4.8977	13.952341	0.000395	3.953147	1.339363	0.000158
 125	1.2338e+01	4.9298	14.121901	0.000426	4.257235	1.442390	0.000170
 126	1.2438e+01	4.9763	14.267238	0.000365	3.649059	1.236335	0.000146
 127	1.2537e+01	5.0164	14.456983	0.000476	4.764049	1.614104	0.000191
 128	1.2636e+01	5.0630	14.598283	0.000355	3.547696	1.201992	0.000142
 129	1.2736e+01	5.0999	14.775917	0.000446	4.459961	1.511076	0.000179
 130	1.2835e+01	5.1335	14.941439	0.000416	4.155873	1.408048	0.000166
 131	1.2935e+01	5.1785	15.094851	0.000385	3.851784	1.305020	0.000154
 132	1.3034e+01	5.2186	15.232113	0.000345	3.446333	1.167649	0.000138
 133	1.3134e+01	5.2507	15.433970	0.000507	5.068137	1.717131	0.000203
 134	1.3233e+01	5.3036	15.563158	0.000324	3.243608	1.098964	0.000130
 135	1.3333e+01	5.3421	15.736755	0.000436	4.358598	1.476733	0.000174
 136	1.3432e+01	5.3710	15.922463	0.000466	4.662686	1.579761	0.000187
 137	1.3532e+01	5.4111	16.055689	0.000334	3.344971	1.133307	0.000134
 138	1.3632e+01	5.4544	16.221211	0.000416	4.155873	1.408048	0.000166
 139	1.3731e+01	5.4945	16.386734	0.000416	4.155873	1.408048	0.000166
 140	1.3831e+01	5.5346	16.544182	0.000395	3.953147	1.339363	0.000158
 141	1.3930e+01	5.5779	16.701631	0.000395	3.953147	1.339363	0.000158
 142	1.4030e+01	5.6116	16.871190	0.000426	4.257235	1.442390	0.000170
 143	1.4129e+01	5.6597	17.016527	0.000365	3.649059	1.236335	0.000146
 144	1.4229e+01	5.6950	17.210310	0.000487	4.865412	1.648446	0.000195
 145	1.4328e+01	5.7367	17.339498	0.000324	3.243608	1.098964	0.000130
 146	1.4428e+01	5.7752	17.533281	0.000487	4.865412	1.648446	0.000195
 147	1.4527e+01	5.8186	17.682655	0.000375	3.750422	1.270677	0.000150
 148	1.4627e+01	5.8506	17.827991	0.000365	3.649059	1.236335	0.000146
 149	1.4726e+01	5.8988	18.005625	0.000446	4.459961	1.511076	0.000179
 150	1.4825e+01	5.9357	18.154999	0.000375	3.750422	1.270677	0.000150
 151	1.4925e+01	5.9774	18.284188	0.000324	3.243608	1.098964	0.000130
 152	1.5024e+01	6.0175	18.461822	0.000446	4.459961	1.511076	0.000179
 153	1.5124e+01	6.0592	18.671753	0.000527	5.270863	1.785817	0.000211
 154	1.5223e+01	6.0961	18.833238	0.000405	4.054510	1.373705	0.000162
 155	1.5323e+01	6.1330	19.018946	0.000466	4.662686	1.579761	0.000187
 156	1.5422e+01	6.1747	19.156209	0.000345	3.446333	1.167649	0.000138
 157	1.5522e+01	6.2116	19.329806	0.000436	4.358598	1.476733	0.000174
 158	1.5621e+01	6.2517	19.511477	0.000456	4.561324	1.545418	0.000183
 159	1.5721e+01	6.2918	19.636628	0.000314	3.142245	1.064621	0.000126
 160	1.5820e+01	6.3351	19.818299	0.000456	4.561324	1.545418	0.000183
 161	1.5920e+01	6.3768	19.987859	0.000426	4.257235	1.442390	0.000170
 162	1.6020e+01	6.4153	20.149344	0.000405	4.054510	1.373705	0.000162
 163	1.6119e+01	6.4490	20.290644	0.000355	3.547696	1.201992	0.000142
 164	1.6218e+01	6.4875	20.444055	0.000385	3.851784	1.305020	0.000154
 165	1.6318e+01	6.5276	20.637838	0.000487	4.865412	1.648446	0.000195
 166	1.6418e+01	6.5741	20.791249	0.000385	3.851784	1.305020	0.000154
 167	1.6517e+01	6.6126	20.952734	0.000405	4.054510	1.373705	0.000162
 168	1.6616e+01	6.6511	21.126331	0.000436	4.358598	1.476733	0.000174
 169	1.6716e+01	6.6800	21.295891	0.000426	4.257235	1.442390	0.000170
 170	1.6816e+01	6.7298	21.445265	0.000375	3.750422	1.270677	0.000150
 171	1.6915e+01	6.7699	21.651159	0.000517	5.169500	1.751474	0.000207
 172	1.7015e+01	6.8180	21.808607	0.000395	3.953147	1.339363	0.000158
 173	1.7114e+01	6.8501	21.929721	0.000304	3.040882	1.030279	0.000122
 174	1.7213e+01	6.8886	22.143690	0.000537	5.372226	1.820159	0.000215
 175	1.7313e+01	6.9335	22.309212	0.000416	4.155873	1.408048	0.000166
 176	1.7413e+01	6.9752	22.458586	0.000375	3.750422	1.270677	0.000150
 177	1.7512e+01	7.0121	22.611997	0.000385	3.851784	1.305020	0.000154
 178	1.7611e+01	7.0522	22.781557	0.000426	4.257235	1.442390	0.000170
 179	1.7711e+01	7.0843	22.939005	0.000395	3.953147	1.339363	0.000158
 180	1.7811e+01	7.1260	23.165085	0.000568	5.676314	1.923187	0.000227
 181	1.7910e+01	7.1661	23.326570	0.000405	4.054510	1.373705	0.000162
 182	1.8009e+01	7.2126	23.431536	0.000264	2.635431	0.892908	0.000105
 183	1.8109e+01	7.2447	23.609170	0.000446	4.459961	1.511076	0.000179
 184	1.8209e+01	7.2768	23.782767	0.000436	4.358598	1.476733	0.000174
 185	1.8308e+01	7.3265	23.968475	0.000466	4.662686	1.579761	0.000187
 186	1.8407e+01	7.3747	24.105737	0.000345	3.446333	1.167649	0.000138
 187	1.8507e+01	7.4148	24.255112	0.000375	3.750422	1.270677	0.000150
 188	1.8607e+01	7.4420	24.448894	0.000487	4.865412	1.648446	0.000195
 189	1.8706e+01	7.4821	24.634602	0.000466	4.662686	1.579761	0.000187
 190	1.8805e+01	7.5383	24.779939	0.000365	3.649059	1.236335	0.000146
 191	1.8905e+01	7.5640	24.921239	0.000355	3.547696	1.201992	0.000142
 192	1.9005e+01	7.6057	25.135207	0.000537	5.372226	1.820159	0.000215
 193	1.9104e+01	7.6506	25.296693	0.000405	4.054510	1.373705	0.000162
 194	1.9203e+01	7.6939	25.421844	0.000314	3.142245	1.064621	0.000126
 195	1.9303e+01	7.7324	25.631775	0.000527	5.270863	1.785817	0.000211
 196	1.9402e+01	7.7645	25.760963	0.000324	3.243608	1.098964	0.000130
 197	1.9502e+01	7.8110	25.962820	0.000507	5.068137	1.717131	0.000203
 198	1.9602e+01	7.8527	26.096045	0.000334	3.344971	1.133307	0.000134
 199	1.9701e+01	7.8880	26.273679	0.000446	4.459961	1.511076	0.000179
 200	1.9800e+01	7.9233	26.439202	0.000416	4.155873	1.408048	0.000166
 201	1.9900e+01	7.9698	26.604725	0.000416	4.155873	1.408048	0.000166
 202	2.0000e+01	8.0051	26.802544	0.000497	4.966775	1.682789	0.000199
 203	2.0099e+01	8.0468	26.968067	0.000416	4.155873	1.408048	0.000166
 204	2.0198e+01	8.0789	27.109366	0.000355	3.547696	1.201992	0.000142
 205	2.0298e+01	8.1174	27.238555	0.000324	3.243608	1.098964	0.000130
 206	2.0398e+01	8.1559	27.428300	0.000476	4.764049	1.614104	0.000191
 207	2.0497e+01	8.1976	27.581711	0.000385	3.851784	1.305020	0.000154
 208	2.0596e+01	8.2409	27.731085	0.000375	3.750422	1.270677	0.000150
 209	2.0696e+01	8.2794	27.945054	0.000537	5.372226	1.820159	0.000215
 210	2.0796e+01	8.3260	28.102502	0.000395	3.953147	1.339363	0.000158
 211	2.0895e+01	8.3805	28.288210	0.000466	4.662686	1.579761	0.000187
 212	2.0994e+01	8.4046	28.457770	0.000426	4.257235	1.442390	0.000170
 213	2.1094e+01	8.4447	28.611181	0.000385	3.851784	1.305020	0.000154
 214	2.1194e+01	8.4848	28.768629	0.000395	3.953147	1.339363	0.000158
 215	2.1293e+01	8.5201	28.962412	0.000487	4.865412	1.648446	0.000195
 216	2.1392e+01	8.5618	29.111786	0.000375	3.750422	1.270677	0.000150
 217	2.1492e+01	8.5971	29.249048	0.000345	3.446333	1.167649	0.000138
 218	2.1591e+01	8.6372	29.426682	0.000446	4.459961	1.511076	0.000179
 219	2.1691e+01	8.6853	29.624502	0.000497	4.966775	1.682789	0.000199
 220	2.1791e+01	8.7142	29.777913	0.000385	3.851784	1.305020	0.000154
 221	2.1890e+01	8.7607	29.943436	0.000416	4.155873	1.408048	0.000166
 222	2.1989e+01	8.7976	30.104921	0.000405	4.054510	1.373705	0.000162
 223	2.2089e+01	8.8377	30.278518	0.000436	4.358598	1.476733	0.000174
 224	2.2189e+01	8.8874	30.468263	0.000476	4.764049	1.614104	0.000191
 225	2.2288e+01	8.9211	30.633786	0.000416	4.155873	1.408048	0.000166
 226	2.2387e+01	8.9612	30.775086	0.000355	3.547696	1.201992	0.000142
 227	2.2487e+01	8.9981	30.964831	0.000476	4.764049	1.614104	0.000191
 228	2.2587e+01	9.0479	31.122279	0.000395	3.953147	1.339363	0.000158
 229	2.2686e+01	9.0784	31.291839	0.000426	4.257235	1.442390	0.000170
 230	2.2785e+01	9.1136	31.425065	0.000334	3.344971	1.133307	0.000134
 231	2.2885e+01	9.1650	31.610773	0.000466	4.662686	1.579761	0.000187
 232	2.2985e+01	9.2035	31.776295	0.000416	4.155873	1.408048	0.000166
 233	2.3084e+01	9.2452	31.982189	0.000517	5.169500	1.751474	0.000207
 234	2.3183e+01	9.2773	32.099266	0.000294	2.939520	0.995936	0.000118
 235	2.3283e+01	9.3302	32.276900	0.000446	4.459961	1.511076	0.000179
 236	2.3383e+01	9.3575	32.406089	0.000324	3.243608	1.098964	0.000130
 237	2.3482e+01	9.3960	32.624094	0.000547	5.473588	1.854502	0.000219
 238	2.3581e+01	9.4473	32.765394	0.000355	3.547696	1.201992	0.000142
 239	2.3681e+01	9.4730	32.951102	0.000466	4.662686	1.579761	0.000187
 240	2.3780e+01	9.5115	33.080290	0.000324	3.243608	1.098964	0.000130
 241	2.3880e+01	9.5580	33.261961	0.000456	4.561324	1.545418	0.000183
 242	2.3980e+01	9.5981	33.403261	0.000355	3.547696	1.201992	0.000142
 243	2.4079e+01	9.6398	33.568784	0.000416	4.155873	1.408048	0.000166
 244	2.4178e+01	9.6815	33.730269	0.000405	4.054510	1.373705	0.000162
 245	2.4278e+01	9.7200	33.879643	0.000375	3.750422	1.270677	0.000150
 246	2.4378e+01	9.7634	34.065351	0.000466	4.662686	1.579761	0.000187
 247	2.4477e+01	9.7954	34.194540	0.000324	3.243608	1.098964	0.000130
 248	2.4576e+01	9.8372	34.376211	0.000456	4.561324	1.545418	0.000183
 249	2.4676e+01	9.8805	34.513473	0.000345	3.446333	1.167649	0.000138
 250	2.4776e+01	9.9093	34.662847	0.000375	3.750422	1.270677	0.000150
 251	2.4875e+01	9.9607	34.804147	0.000355	3.547696	1.201992	0.000142
 252	2.4974e+01	9.9896	34.973707	0.000426	4.257235	1.442390	0.000170
 253	2.5074e+01	10.0313	35.143267	0.000426	4.257235	1.442390	0.000170
 254	2.5174e+01	10.0730	35.341086	0.000497	4.966775	1.682789	0.000199
 255	2.5273e+01	10.1275	35.506609	0.000416	4.155873	1.408048	0.000166
 256	2.5372e+01	10.1500	35.639834	0.000334	3.344971	1.133307	0.000134
 257	2.5472e+01	10.2029	35.801320	0.000405	4.054510	1.373705	0.000162
 258	2.5572e+01	10.2334	35.950694	0.000375	3.750422	1.270677	0.000150
 259	2.5671e+01	10.2863	36.112179	0.000405	4.054510	1.373705	0.000162
 260	2.5770e+01	10.3072	36.249442	0.000345	3.446333	1.167649	0.000138
 261	2.5870e+01	10.3521	36.423039	0.000436	4.358598	1.476733	0.000174
 262	2.5970e+01	10.3986	36.568376	0.000365	3.649059	1.236335	0.000146
 263	2.6069e+01	10.4355	36.701601	0.000334	3.344971	1.133307	0.000134
 264	2.6169e+01	10.4724	36.911532	0.000527	5.270863	1.785817	0.000211
 265	2.6268e+01	10.5206	37.073017	0.000405	4.054510	1.373705	0.000162
 266	2.6367e+01	10.5591	37.177983	0.000264	2.635431	0.892908	0.000105
 267	2.6467e+01	10.5911	37.387914	0.000527	5.270863	1.785817	0.000211
 268	2.6567e+01	10.6441	37.513065	0.000314	3.142245	1.064621	0.000126
 269	2.6666e+01	10.6714	37.666476	0.000385	3.851784	1.305020	0.000154
 270	2.6765e+01	10.7195	37.815850	0.000375	3.750422	1.270677	0.000150
 271	2.6865e+01	10.7564	37.989447	0.000436	4.358598	1.476733	0.000174
 272	2.6965e+01	10.7901	38.150933	0.000405	4.054510	1.373705	0.000162
 273	2.7064e+01	10.8302	38.304344	0.000385	3.851784	1.305020	0.000154
 274	2.7163e+01	10.8751	38.441606	0.000345	3.446333	1.167649	0.000138
 275	2.7263e+01	10.9168	38.607129	0.000416	4.155873	1.408048	0.000166
 276	2.7363e+01	10.9601	38.760540	0.000385	3.851784	1.305020	0.000154
 277	2.7462e+01	10.9954	38.905877	0.000365	3.649059	1.236335	0.000146
 278	2.7561e+01	11.0355	39.091585	0.000466	4.662686	1.579761	0.000187
 279	2.7661e+01	11.0740	39.240959	0.000375	3.750422	1.270677	0.000150
 280	2.7761e+01	11.1125	39.402445	0.000405	4.054510	1.373705	0.000162
 281	2.7860e+01	11.1526	39.539707	0.000345	3.446333	1.167649	0.000138
 282	2.7959e+01	11.1847	39.693119	0.000385	3.851784	1.305020	0.000154
 283	2.8059e+01	11.2232	39.866715	0.000436	4.358598	1.476733	0.000174
 284	2.8159e+01	11.2697	40.012052	0.000365	3.649059	1.236335	0.000146
 285	2.8258e+01	11.3114	40.165463	0.000385	3.851784	1.305020	0.000154
 286	2.8358e+01	11.3499	40.330986	0.000416	4.155873	1.408048	0.000166
 287	2.8457e+01	11.3965	40.468249	0.000345	3.446333	1.167649	0.000138
 288	2.8556e+01	11.4318	40.617623	0.000375	3.750422	1.270677	0.000150
 289	2.8656e+01	11.4799	40.847739	0.000578	5.777677	1.957530	0.000231
 290	2.8756e+01	11.5136	40.920408	0.000182	1.824529	0.618167	0.000073
 291	2.8855e+01	11.5553	41.110153	0.000476	4.764049	1.614104	0.000191
 292	2.8954e+01	11.5906	41.235304	0.000314	3.142245	1.064621	0.000126
 293	2.9054e+01	11.6339	41.412938	0.000446	4.459961	1.511076	0.000179
 294	2.9154e+01	11.6708	41.525978	0.000284	2.838157	0.961594	0.000114
 295	2.9253e+01	11.7141	41.727835	0.000507	5.068137	1.717131	0.000203
 296	2.9352e+01	11.7478	41.852986	0.000314	3.142245	1.064621	0.000126
 297	2.9452e+01	11.7831	41.966026	0.000284	2.838157	0.961594	0.000114
 298	2.9552e+01	11.8232	42.151734	0.000466	4.662686	1.579761	0.000187
 299	2.9651e+01	11.8697	42.325331	0.000436	4.358598	1.476733	0.000174
 300	2.9750e+01	11.9082	42.454519	0.000324	3.243608	1.098964	0.000130
 301	2.9850e+01	11.9531	42.595819	0.000355	3.547696	1.201992	0.000142
 302	2.9950e+01	11.9884	42.757305	0.000405	4.054510	1.373705	0.000162
 303	3.0049e+01	12.0350	42.914753	0.000395	3.953147	1.339363	0.000158
 304	3.0148e+01	12.0622	43.047978	0.000334	3.344971	1.133307	0.000134
 305	3.0248e+01	12.1248	43.193315	0.000365	3.649059	1.236335	0.000146
 306	3.0348e+01	12.1537	43.370949	0.000446	4.459961	1.511076	0.000179
 307	3.0447e+01	12.1874	43.516286	0.000365	3.649059	1.236335	0.000146
 308	3.0547e+01	12.2291	43.665660	0.000375	3.750422	1.270677	0.000150
 309	3.0646e+01	12.2579	43.798886	0.000334	3.344971	1.133307	0.000134
 310	3.0745e+01	12.2948	43.952297	0.000385	3.851784	1.305020	0.000154
 311	3.0845e+01	12.3462	44.089559	0.000345	3.446333	1.167649	0.000138
 312	3.0945e+01	12.3895	44.271231	0.000456	4.561324	1.545418	0.000183
 313	3.1044e+01	12.4296	44.452902	0.000456	4.561324	1.545418	0.000183
 314	3.1143e+01	12.4745	44.557867	0.000264	2.635431	0.892908	0.000105
 315	3.1243e+01	12.5082	44.719353	0.000405	4.054510	1.373705	0.000162
 316	3.1343e+01	12.5547	44.880838	0.000405	4.054510	1.373705	0.000162
 317	3.1442e+01	12.5916	45.005989	0.000314	3.142245	1.064621	0.000126
 318	3.1541e+01	12.6285	45.159400	0.000385	3.851784	1.305020	0.000154
 319	3.1641e+01	12.6686	45.337034	0.000446	4.459961	1.511076	0.000179
 320	3.1741e+01	12.6991	45.486408	0.000375	3.750422	1.270677	0.000150
 321	3.1840e+01	12.7488	45.643857	0.000395	3.953147	1.339363	0.000158
 322	3.1939e+01	12.7905	45.781119	0.000345	3.446333	1.167649	0.000138
 323	3.2039e+01	12.8274	45.962790	0.000456	4.561324	1.545418	0.000183
 324	3.2139e+01	12.8772	46.108127	0.000365	3.649059	1.236335	0.000146
 325	3.2238e+01	12.9061	46.196944	0.000223	2.229980	0.755538	0.000089
 326	3.2337e+01	12.9413	46.402838	0.000517	5.169500	1.751474	0.000207
 327	3.2437e+01	12.9782	46.523952	0.000304	3.040882	1.030279	0.000122
 328	3.2536e+01	13.0200	46.721772	0.000497	4.966775	1.682789	0.000199
 329	3.2636e+01	13.0649	46.867109	0.000365	3.649059	1.236335	0.000146
 330	3.2736e+01	13.1050	47.052817	0.000466	4.662686	1.579761	0.000187
 331	3.2835e+01	13.1451	47.157783	0.000264	2.635431	0.892908	0.000105
 332	3.2934e+01	13.1868	47.323305	0.000416	4.155873	1.408048	0.000166
 333	3.3034e+01	13.2237	47.448456	0.000314	3.142245	1.064621	0.000126
 334	3.3133e+01	13.2718	47.626090	0.000446	4.459961	1.511076	0.000179
 335	3.3233e+01	13.3055	47.815836	0.000476	4.764049	1.614104	0.000191
 336	3.3333e+01	13.3408	47.953098	0.000345	3.446333	1.167649	0.000138
 337	3.3432e+01	13.3857	48.086324	0.000334	3.344971	1.133307	0.000134
 338	3.3532e+01	13.4242	48.251846	0.000416	4.155873	1.408048	0.000166
 339	3.3631e+01	13.4563	48.405257	0.000385	3.851784	1.305020	0.000154
 340	3.3730e+01	13.5044	48.534446	0.000324	3.243608	1.098964	0.000130
 341	3.3830e+01	13.5477	48.728228	0.000487	4.865412	1.648446	0.000195
 342	3.3929e+01	13.5895	48.869528	0.000355	3.547696	1.201992	0.000142
 343	3.4029e+01	13.6312	49.035051	0.000416	4.155873	1.408048	0.000166
 344	3.4129e+01	13.6649	49.152128	0.000294	2.939520	0.995936	0.000118
 345	3.4228e+01	13.7066	49.321687	0.000426	4.257235	1.442390	0.000170
 346	3.4328e+01	13.7370	49.503358	0.000456	4.561324	1.545418	0.000183
 347	3.4427e+01	13.7836	49.644658	0.000355	3.547696	1.201992	0.000142
 348	3.4526e+01	13.8221	49.777884	0.000334	3.344971	1.133307	0.000134
 349	3.4626e+01	13.8606	49.975703	0.000497	4.966775	1.682789	0.000199
 350	3.4725e+01	13.9071	50.133152	0.000395	3.953147	1.339363	0.000158
 351	3.4825e+01	13.9360	50.270414	0.000345	3.446333	1.167649	0.000138
 352	3.4925e+01	13.9761	50.407677	0.000345	3.446333	1.167649	0.000138
 353	3.5024e+01	14.0274	50.561088	0.000385	3.851784	1.305020	0.000154
 354	3.5123e+01	14.0531	50.698351	0.000345	3.446333	1.167649	0.000138
 355	3.5223e+01	14.0980	50.888096	0.000476	4.764049	1.614104	0.000191
 356	3.5322e+01	14.1397	51.029396	0.000355	3.547696	1.201992	0.000142
 357	3.5422e+01	14.1830	51.162621	0.000334	3.344971	1.133307	0.000134
 358	3.5522e+01	14.2119	51.344292	0.000456	4.561324	1.545418	0.000183
 359	3.5621e+01	14.2648	51.477518	0.000334	3.344971	1.133307	0.000134
 360	3.5721e+01	14.3017	51.647077	0.000426	4.257235	1.442390	0.000170
 361	3.5820e+01	14.3418	51.828749	0.000456	4.561324	1.545418	0.000183
 362	3.5919e+01	14.3787	51.953900	0.000314	3.142245	1.064621	0.000126
 363	3.6019e+01	14.4140	52.095200	0.000355	3.547696	1.201992	0.000142
 364	3.6118e+01	14.4622	52.272834	0.000446	4.459961	1.511076	0.000179
 365	3.6218e+01	14.5023	52.426245	0.000385	3.851784	1.305020	0.000154
 366	3.6318e+01	14.5456	52.607916	0.000456	4.561324	1.545418	0.000183
 367	3.6417e+01	14.5777	52.708844	0.000253	2.534069	0.858566	0.000101
 368	3.6517e+01	14.6210	52.902627	0.000487	4.865412	1.648446	0.000195
 369	3.6616e+01	14.6531	53.031815	0.000324	3.243608	1.098964	0.000130
 370	3.6715e+01	14.6900	53.209449	0.000446	4.459961	1.511076	0.000179
 371	3.6815e+01	14.7236	53.338637	0.000324	3.243608	1.098964	0.000130
 372	3.6914e+01	14.7766	53.475900	0.000345	3.446333	1.167649	0.000138
 373	3.7014e+01	14.8119	53.633348	0.000395	3.953147	1.339363	0.000158
 374	3.7114e+01	14.8648	53.810982	0.000446	4.459961	1.511076	0.000179
 375	3.7213e+01	14.8953	53.968431	0.000395	3.953147	1.339363	0.000158
 376	3.7313e+01	14.9370	54.105693	0.000345	3.446333	1.167649	0.000138
 377	3.7412e+01	14.9755	54.295439	0.000476	4.764049	1.614104	0.000191
 378	3.7511e+01	15.0156	54.464998	0.000426	4.257235	1.442390	0.000170
 379	3.7611e+01	15.0589	54.594187	0.000324	3.243608	1.098964	0.000130
 380	3.7711e+01	15.1055	54.743561	0.000375	3.750422	1.270677	0.000150
 381	3.7810e+01	15.1327	54.917157	0.000436	4.358598	1.476733	0.000174
 382	3.7910e+01	15.1809	55.086717	0.000426	4.257235	1.442390	0.000170
 383	3.8009e+01	15.2129	55.236091	0.000375	3.750422	1.270677	0.000150
 384	3.8108e+01	15.2546	55.353168	0.000294	2.939520	0.995936	0.000118
 385	3.8208e+01	15.2980	55.538876	0.000466	4.662686	1.579761	0.000187
 386	3.8307e+01	15.3317	55.688250	0.000375	3.750422	1.270677	0.000150
 387	3.8407e+01	15.3782	55.829550	0.000355	3.547696	1.201992	0.000142
 388	3.8507e+01	15.4071	56.015258	0.000466	4.662686	1.579761	0.000187
 389	3.8606e+01	15.4568	56.196929	0.000456	4.561324	1.545418	0.000183
 390	3.8706e+01	15.4969	56.265561	0.000172	1.723167	0.583825	0.000069
 391	3.8805e+01	15.5354	56.451269	0.000466	4.662686	1.579761	0.000187
 392	3.8904e+01	15.5755	56.624866	0.000436	4.358598	1.476733	0.000174
 393	3.9004e+01	15.6108	56.741943	0.000294	2.939520	0.995936	0.000118
 394	3.9103e+01	15.6525	56.907465	0.000416	4.155873	1.408048	0.000166
 395	3.9203e+01	15.6830	57.085099	0.000446	4.459961	1.511076	0.000179
 396	3.9303e+01	15.7247	57.266770	0.000456	4.561324	1.545418	0.000183
 397	3.9402e+01	15.7776	57.428256	0.000405	4.054510	1.373705	0.000162
 398	3.9502e+01	15.8161	57.561481	0.000334	3.344971	1.133307	0.000134
 399	3.9601e+01	15.8562	57.686633	0.000314	3.142245	1.064621	0.000126
 400	3.9700e+01	15.8867	57.836007	0.000375	3.750422	1.270677	0.000150
 401	3.9800e+01	15.9461	58.045938	0.000527	5.270863	1.785817	0.000211
 402	3.9900e+01	15.9685	58.171089	0.000314	3.142245	1.064621	0.000126
 403	3.9999e+01	16.0102	58.312389	0.000355	3.547696	1.201992	0.000142
 404	4.0099e+01	16.0455	58.477911	0.000416	4.155873	1.408048	0.000166
 405	4.0198e+01	16.0905	58.639397	0.000405	4.054510	1.373705	0.000162
 406	4.0297e+01	16.1257	58.744362	0.000264	2.635431	0.892908	0.000105
 407	4.0397e+01	16.1755	58.917959	0.000436	4.358598	1.476733	0.000174
 408	4.0496e+01	16.2172	59.051184	0.000334	3.344971	1.133307	0.000134
 409	4.0596e+01	16.2525	59.224781	0.000436	4.358598	1.476733	0.000174
 410	4.0696e+01	16.2942	59.374155	0.000375	3.750422	1.270677	0.000150
 411	4.0795e+01	16.3359	59.535641	0.000405	4.054510	1.373705	0.000162
 412	4.0895e+01	16.3808	59.672903	0.000345	3.446333	1.167649	0.000138
 413	4.0994e+01	16.4145	59.810166	0.000345	3.446333	1.167649	0.000138
 414	4.1093e+01	16.4530	59.987800	0.000446	4.459961	1.511076	0.000179
 415	4.1193e+01	16.4835	60.133137	0.000365	3.649059	1.236335	0.000146
 416	4.1292e+01	16.5348	60.225991	0.000233	2.331343	0.789880	0.000093
 417	4.1392e+01	16.5765	60.415736	0.000476	4.764049	1.614104	0.000191
 418	4.1492e+01	16.6038	60.601445	0.000466	4.662686	1.579761	0.000187
 419	4.1591e+01	16.6455	60.702373	0.000253	2.534069	0.858566	0.000101
 420	4.1691e+01	16.6856	60.880007	0.000446	4.459961	1.511076	0.000179
 421	4.1790e+01	16.7273	61.025344	0.000365	3.649059	1.236335	0.000146
 422	4.1889e+01	16.7610	61.178755	0.000385	3.851784	1.305020	0.000154
 423	4.1989e+01	16.8011	61.279683	0.000253	2.534069	0.858566	0.000101
 424	4.2089e+01	16.8444	61.441169	0.000405	4.054510	1.373705	0.000162
 425	4.2188e+01	16.8894	61.586506	0.000365	3.649059	1.236335	0.000146
 426	4.2288e+01	16.9279	61.768177	0.000456	4.561324	1.545418	0.000183
 427	4.2387e+01	16.9744	61.905439	0.000345	3.446333	1.167649	0.000138
 428	4.2486e+01	17.0113	62.014442	0.000274	2.736794	0.927251	0.000110
 429	4.2586e+01	17.0498	62.147668	0.000334	3.344971	1.133307	0.000134
 430	4.2685e+01	17.0915	62.381821	0.000588	5.879039	1.991872	0.000235
 431	4.2785e+01	17.1268	62.462564	0.000203	2.027255	0.686853	0.000081
 432	4.2885e+01	17.1669	62.583678	0.000304	3.040882	1.030279	0.000122
 433	4.2984e+01	17.1990	62.720941	0.000345	3.446333	1.167649	0.000138
 434	4.3084e+01	17.2567	62.910686	0.000476	4.764049	1.614104	0.000191
 435	4.3183e+01	17.2904	63.076209	0.000416	4.155873	1.408048	0.000166
 436	4.3282e+01	17.3273	63.225583	0.000375	3.750422	1.270677	0.000150
 437	4.3382e+01	17.3690	63.334585	0.000274	2.736794	0.927251	0.000110
 438	4.3481e+01	17.4027	63.483959	0.000375	3.750422	1.270677	0.000150
 439	4.3581e+01	17.4460	63.649482	0.000416	4.155873	1.408048	0.000166
 440	4.3681e+01	17.4926	63.758485	0.000274	2.736794	0.927251	0.000110
 441	4.3780e+01	17.5327	63.915933	0.000395	3.953147	1.339363	0.000158
 442	4.3880e+01	17.5647	64.057233	0.000355	3.547696	1.201992	0.000142
 443	4.3979e+01	17.6145	64.210644	0.000385	3.851784	1.305020	0.000154
 444	4.4078e+01	17.6482	64.347907	0.000345	3.446333	1.167649	0.000138
 445	4.4178e+01	17.6851	64.497281	0.000375	3.750422	1.270677	0.000150
 446	4.4278e+01	17.7220	64.666840	0.000426	4.257235	1.442390	0.000170
 447	4.4377e+01	17.7589	64.759694	0.000233	2.331343	0.789880	0.000093
 448	4.4477e+01	17.7974	64.917143	0.000395	3.953147	1.339363	0.000158
 449	4.4576e+01	17.8487	65.086702	0.000426	4.257235	1.442390	0.000170
 450	4.4675e+01	17.8776	65.219928	0.000334	3.344971	1.133307	0.000134
 451	4.4775e+01	17.9289	65.365265	0.000365	3.649059	1.236335	0.000146
 452	4.4874e+01	17.9674	65.518676	0.000385	3.851784	1.305020	0.000154
 453	4.4974e+01	18.0091	65.659976	0.000355	3.547696	1.201992	0.000142
 454	4.5074e+01	18.0508	65.789164	0.000324	3.243608	1.098964	0.000130
 455	4.5173e+01	18.0797	65.974872	0.000466	4.662686	1.579761	0.000187
 456	4.5273e+01	18.1214	66.091949	0.000294	2.939520	0.995936	0.000118
 457	4.5372e+01	18.1663	66.233249	0.000355	3.547696	1.201992	0.000142
 458	4.5471e+01	18.2080	66.390697	0.000395	3.953147	1.339363	0.000158
 459	4.5571e+01	18.2498	66.548146	0.000395	3.953147	1.339363	0.000158
 460	4.5670e+01	18.2883	66.665222	0.000294	2.939520	0.995936	0.000118
 461	4.5770e+01	18.3235	66.834782	0.000426	4.257235	1.442390	0.000170
 462	4.5870e+01	18.3637	66.972045	0.000345	3.446333	1.167649	0.000138
 463	4.5969e+01	18.4006	67.085085	0.000284	2.838157	0.961594	0.000114
 464	4.6069e+01	18.4407	67.206199	0.000304	3.040882	1.030279	0.000122
 465	4.6168e+01	18.4824	67.351536	0.000365	3.649059	1.236335	0.000146
 466	4.6267e+01	18.5257	67.500910	0.000375	3.750422	1.270677	0.000150
 467	4.6367e+01	18.5642	67.670469	0.000426	4.257235	1.442390	0.000170
 468	4.6467e+01	18.6027	67.791583	0.000304	3.040882	1.030279	0.000122
 469	4.6566e+01	18.6444	67.920772	0.000324	3.243608	1.098964	0.000130
 470	4.6666e+01	18.6813	68.070146	0.000375	3.750422	1.270677	0.000150
 471	4.6765e+01	18.7278	68.195297	0.000314	3.142245	1.064621	0.000126
 472	4.6864e+01	18.7631	68.336597	0.000355	3.547696	1.201992	0.000142
 473	4.6964e+01	18.7984	68.473859	0.000345	3.446333	1.167649	0.000138
 474	4.7063e+01	18.8497	68.643419	0.000426	4.257235	1.442390	0.000170
 475	4.7163e+01	18.8802	68.760496	0.000294	2.939520	0.995936	0.000118
 476	4.7263e+01	18.9380	68.893721	0.000334	3.344971	1.133307	0.000134
 477	4.7362e+01	18.9636	69.039058	0.000365	3.649059	1.236335	0.000146
 478	4.7462e+01	19.0037	69.172284	0.000334	3.344971	1.133307	0.000134
 479	4.7561e+01	19.0455	69.297435	0.000314	3.142245	1.064621	0.000126
 480	4.7660e+01	19.0759	69.458920	0.000405	4.054510	1.373705	0.000162
 481	4.7760e+01	19.1257	69.596183	0.000345	3.446333	1.167649	0.000138
 482	4.7859e+01	19.1610	69.725371	0.000324	3.243608	1.098964	0.000130
 483	4.7959e+01	19.2059	69.870708	0.000365	3.649059	1.236335	0.000146
 484	4.8059e+01	19.2396	70.040268	0.000426	4.257235	1.442390	0.000170
 485	4.8158e+01	19.2797	70.177531	0.000345	3.446333	1.167649	0.000138
 486	4.8258e+01	19.3069	70.322867	0.000365	3.649059	1.236335	0.000146
 487	4.8357e+01	19.3599	70.443981	0.000304	3.040882	1.030279	0.000122
 488	4.8456e+01	19.4000	70.557021	0.000284	2.838157	0.961594	0.000114
 489	4.8556e+01	19.4273	70.750804	0.000487	4.865412	1.648446	0.000195
 490	4.8656e+01	19.4738	70.835584	0.000213	2.128618	0.721195	0.000085
 491	4.8755e+01	19.5267	71.013218	0.000446	4.459961	1.511076	0.000179
 492	4.8855e+01	19.5556	71.174703	0.000405	4.054510	1.373705	0.000162
 493	4.8954e+01	19.5973	71.271594	0.000243	2.432706	0.824223	0.000097
 494	4.9053e+01	19.6390	71.453265	0.000456	4.561324	1.545418	0.000183
 495	4.9153e+01	19.6855	71.578417	0.000314	3.142245	1.064621	0.000126
 496	4.9252e+01	19.7128	71.752013	0.000436	4.358598	1.476733	0.000174
 497	4.9352e+01	19.7625	71.861016	0.000274	2.736794	0.927251	0.000110
 498	4.9452e+01	19.8026	72.026539	0.000416	4.155873	1.408048	0.000166
 499	4.9551e+01	19.8331	72.135541	0.000274	2.736794	0.927251	0.000110
 500	4.9651e+01	19.8764	72.345472	0.000527	5.270863	1.785817	0.000211
 501	4.9750e+01	19.9246	72.442364	0.000243	2.432706	0.824223	0.000097
 502	4.9849e+01	19.9663	72.571552	0.000324	3.243608	1.098964	0.000130
 503	4.9949e+01	19.9968	72.704778	0.000334	3.344971	1.133307	0.000134
 504	5.0048e+01	19.9647	72.644220	0.000152	1.520441	0.515139	-0.000061
 505	5.0148e+01	19.9133	72.555403	0.000223	2.229980	0.755538	-0.000089
 506	5.0248e+01	19.8764	72.426215	0.000324	3.243608	1.098964	-0.000130
 507	5.0347e+01	19.8412	72.325287	0.000253	2.534069	0.858566	-0.000101
 508	5.0447e+01	19.7994	72.216284	0.000274	2.736794	0.927251	-0.000110
 509	5.0546e+01	19.7593	72.119393	0.000243	2.432706	0.824223	-0.000097
 510	5.0645e+01	19.7289	72.030576	0.000223	2.229980	0.755538	-0.000089
 511	5.0745e+01	19.6711	71.893313	0.000345	3.446333	1.167649	-0.000138
 512	5.0844e+01	19.6422	71.752013	0.000355	3.547696	1.201992	-0.000142
 513	5.0944e+01	19.5893	71.667234	0.000213	2.128618	0.721195	-0.000085
 514	5.1044e+01	19.5556	71.550157	0.000294	2.939520	0.995936	-0.000118
 515	5.1143e+01	19.5203	71.449228	0.000253	2.534069	0.858566	-0.000101
 516	5.1242e+01	19.4738	71.348300	0.000253	2.534069	0.858566	-0.000101
 517	5.1342e+01	19.4433	71.251409	0.000243	2.432706	0.824223	-0.000097
 518	5.1441e+01	19.3968	71.110109	0.000355	3.547696	1.201992	-0.000142
 519	5.1541e+01	19.3583	70.988995	0.000304	3.040882	1.030279	-0.000122
 520	5.1641e+01	19.3278	70.912289	0.000193	1.925892	0.652510	-0.000077
 521	5.1740e+01	19.2829	70.779064	0.000334	3.344971	1.133307	-0.000134
 522	5.1840e+01	19.2348	70.661987	0.000294	2.939520	0.995936	-0.000118
 523	5.1939e+01	19.1995	70.536836	0.000314	3.142245	1.064621	-0.000126
 524	5.2038e+01	19.1610	70.399573	0.000345	3.446333	1.167649	-0.000138
 525	5.2138e+01	19.1128	70.278459	0.000304	3.040882	1.030279	-0.000122
 526	5.2237e+01	19.0807	70.197716	0.000203	2.027255	0.686853	-0.000081
 527	5.2337e+01	19.0455	70.096788	0.000253	2.534069	0.858566	-0.000101
 528	5.2437e+01	18.9973	69.955488	0.000355	3.547696	1.201992	-0.000142
 529	5.2536e+01	18.9588	69.822263	0.000334	3.344971	1.133307	-0.000134
 530	5.2636e+01	18.9203	69.737483	0.000213	2.128618	0.721195	-0.000085
 531	5.2735e+01	18.8786	69.604257	0.000334	3.344971	1.133307	-0.000134
 532	5.2834e+01	18.8481	69.479106	0.000314	3.142245	1.064621	-0.000126
 533	5.2934e+01	18.7984	69.353955	0.000314	3.142245	1.064621	-0.000126
 534	5.3033e+01	18.7631	69.277249	0.000193	1.925892	0.652510	-0.000077
 535	5.3133e+01	18.7214	69.127875	0.000375	3.750422	1.270677	-0.000150
 536	5.3233e+01	18.6861	69.014835	0.000284	2.838157	0.961594	-0.000114
 537	5.3332e+01	18.6412	68.909870	0.000264	2.635431	0.892908	-0.000105
 538	5.3431e+01	18.6091	68.776644	0.000334	3.344971	1.133307	-0.000134
 539	5.3531e+01	18.5658	68.627270	0.000375	3.750422	1.270677	-0.000150
 540	5.3630e+01	18.5289	68.534416	0.000233	2.331343	0.789880	-0.000093
 541	5.3730e+01	18.4840	68.397154	0.000345	3.446333	1.167649	-0.000138
 542	5.3830e+01	18.4519	68.276040	0.000304	3.040882	1.030279	-0.000122
 543	5.3929e+01	18.4006	68.179148	0.000243	2.432706	0.824223	-0.000097
 544	5.4029e+01	18.3604	68.041886	0.000345	3.446333	1.167649	-0.000138
 545	5.4128e+01	18.3268	67.940957	0.000253	2.534069	0.858566	-0.000101
 546	5.4227e+01	18.2754	67.819843	0.000304	3.040882	1.030279	-0.000122
 547	5.4327e+01	18.2401	67.662395	0.000395	3.953147	1.339363	-0.000158
 548	5.4426e+01	18.2113	67.545318	0.000294	2.939520	0.995936	-0.000118
 549	5.4526e+01	18.1615	67.456501	0.000223	2.229980	0.755538	-0.000089
 550	5.4626e+01	18.1230	67.339424	0.000294	2.939520	0.995936	-0.000118
 551	5.4725e+01	18.0813	67.242533	0.000243	2.432706	0.824223	-0.000097
 552	5.4825e+01	18.0412	67.125456	0.000294	2.939520	0.995936	-0.000118
 553	5.4924e+01	18.0027	67.012416	0.000284	2.838157	0.961594	-0.000114
 554	5.5023e+01	17.9658	66.875154	0.000345	3.446333	1.167649	-0.000138
 555	5.5123e+01	17.9273	66.766151	0.000274	2.736794	0.927251	-0.000110
 556	5.5222e+01	17.8872	66.608703	0.000395	3.953147	1.339363	-0.000158
 557	5.5322e+01	17.8503	66.491626	0.000294	2.939520	0.995936	-0.000118
 558	5.5422e+01	17.8054	66.362437	0.000324	3.243608	1.098964	-0.000130
 559	5.5521e+01	17.7717	66.277657	0.000213	2.128618	0.721195	-0.000085
 560	5.5620e+01	17.7236	66.132321	0.000365	3.649059	1.236335	-0.000146
 561	5.5720e+01	17.6835	66.031392	0.000253	2.534069	0.858566	-0.000101
 562	5.5819e+01	17.6498	65.890092	0.000355	3.547696	1.201992	-0.000142
 563	5.5919e+01	17.6049	65.797238	0.000233	2.331343	0.789880	-0.000093
 564	5.6019e+01	17.5631	65.655939	0.000355	3.547696	1.201992	-0.000142
 565	5.6118e+01	17.5278	65.526750	0.000324	3.243608	1.098964	-0.000130
 566	5.6218e+01	17.4990	65.397562	0.000324	3.243608	1.098964	-0.000130
 567	5.6317e+01	17.4380	65.260299	0.000345	3.446333	1.167649	-0.000138
 568	5.6416e+01	17.4091	65.135148	0.000314	3.142245	1.064621	-0.000126
 569	5.6516e+01	17.3658	65.034220	0.000253	2.534069	0.858566	-0.000101
 570	5.6615e+01	17.3289	64.892920	0.000355	3.547696	1.201992	-0.000142
 571	5.6715e+01	17.2824	64.800066	0.000233	2.331343	0.789880	-0.000093
 572	5.6815e+01	17.2455	64.682989	0.000294	2.939520	0.995936	-0.000118
 573	5.6914e+01	17.2102	64.525541	0.000395	3.953147	1.339363	-0.000158
 574	5.7014e+01	17.1669	64.412501	0.000284	2.838157	0.961594	-0.000114
 575	5.7113e+01	17.1348	64.271201	0.000355	3.547696	1.201992	-0.000142
 576	5.7212e+01	17.0803	64.101641	0.000426	4.257235	1.442390	-0.000170
 577	5.7312e+01	17.0562	64.020899	0.000203	2.027255	0.686853	-0.000081
 578	5.7411e+01	17.0081	63.919970	0.000253	2.534069	0.858566	-0.000101
 579	5.7511e+01	16.9744	63.766559	0.000385	3.851784	1.305020	-0.000154
 580	5.7611e+01	16.9279	63.633334	0.000334	3.344971	1.133307	-0.000134
 581	5.7710e+01	16.8926	63.492034	0.000355	3.547696	1.201992	-0.000142
 582	5.7809e+01	16.8541	63.358808	0.000334	3.344971	1.133307	-0.000134
 583	5.7909e+01	16.7995	63.221546	0.000345	3.446333	1.167649	-0.000138
 584	5.8008e+01	16.7706	63.124654	0.000243	2.432706	0.824223	-0.000097
 585	5.8108e+01	16.7289	63.019689	0.000264	2.635431	0.892908	-0.000105
 586	5.8208e+01	16.6953	62.825906	0.000487	4.865412	1.648446	-0.000195
 587	5.8307e+01	16.6519	62.737089	0.000223	2.229980	0.755538	-0.000089
 588	5.8407e+01	16.6118	62.599827	0.000345	3.446333	1.167649	-0.000138
 589	5.8506e+01	16.5733	62.446416	0.000385	3.851784	1.305020	-0.000154
 590	5.8605e+01	16.5332	62.305116	0.000355	3.547696	1.201992	-0.000142
 591	5.8705e+01	16.4899	62.159779	0.000365	3.649059	1.236335	-0.000146
 592	5.8804e+01	16.4498	62.079036	0.000203	2.027255	0.686853	-0.000081
 593	5.8904e+01	16.4113	61.945811	0.000334	3.344971	1.133307	-0.000134
 594	5.9004e+01	16.3664	61.784325	0.000405	4.054510	1.373705	-0.000162
 595	5.9103e+01	16.3215	61.643026	0.000355	3.547696	1.201992	-0.000142
 596	5.9203e+01	16.2974	61.542097	0.000253	2.534069	0.858566	-0.000101
 597	5.9302e+01	16.2525	61.429057	0.000284	2.838157	0.961594	-0.000114
 598	5.9401e+01	16.2156	61.279683	0.000375	3.750422	1.270677	-0.000150
 599	5.9501e+01	16.1707	61.138384	0.000355	3.547696	1.201992	-0.000142
 600	5.9600e+01	16.1370	61.013232	0.000314	3.142245	1.064621	-0.000126
 601	5.9700e+01	16.0889	60.880007	0.000334	3.344971	1.133307	-0.000134
 602	5.9800e+01	16.0455	60.734670	0.000365	3.649059	1.236335	-0.000146
 603	5.9899e+01	16.0135	60.621630	0.000284	2.838157	0.961594	-0.000114
 604	5.9998e+01	15.9782	60.496479	0.000314	3.142245	1.064621	-0.000126
 605	6.0098e+01	15.9284	60.351142	0.000365	3.649059	1.236335	-0.000146
 606	6.0197e+01	15.8915	60.217917	0.000334	3.344971	1.133307	-0.000134
 607	6.0297e+01	15.8530	60.088728	0.000324	3.243608	1.098964	-0.000130
 608	6.0397e+01	15.8145	59.951466	0.000345	3.446333	1.167649	-0.000138
 609	6.0496e+01	15.7728	59.846500	0.000264	2.635431	0.892908	-0.000105
 610	6.0596e+01	15.7311	59.693089	0.000385	3.851784	1.305020	-0.000154
 611	6.0695e+01	15.6974	59.507381	0.000466	4.662686	1.579761	-0.000187
 612	6.0794e+01	15.6573	59.410490	0.000243	2.432706	0.824223	-0.000097
 613	6.0894e+01	15.6204	59.289375	0.000304	3.040882	1.030279	-0.000122
 614	6.0993e+01	15.5835	59.140001	0.000375	3.750422	1.270677	-0.000150
 615	6.1093e+01	15.5338	59.006776	0.000334	3.344971	1.133307	-0.000134
 616	6.1193e+01	15.4953	58.861439	0.000365	3.649059	1.236335	-0.000146
 617	6.1292e+01	15.4520	58.699954	0.000405	4.054510	1.373705	-0.000162
 618	6.1392e+01	15.4103	58.594988	0.000264	2.635431	0.892908	-0.000105
 619	6.1491e+01	15.3766	58.441577	0.000385	3.851784	1.305020	-0.000154
 620	6.1590e+01	15.3333	58.324500	0.000294	2.939520	0.995936	-0.000118
 621	6.1690e+01	15.2915	58.195312	0.000324	3.243608	1.098964	-0.000130
 622	6.1789e+01	15.2482	58.049975	0.000365	3.649059	1.236335	-0.000146
 623	6.1889e+01	15.2145	57.908675	0.000355	3.547696	1.201992	-0.000142
 624	6.1989e+01	15.1793	57.759301	0.000375	3.750422	1.270677	-0.000150
 625	6.2088e+01	15.1343	57.686633	0.000182	1.824529	0.618167	-0.000073
 626	6.2188e+01	15.0942	57.480739	0.000517	5.169500	1.751474	-0.000207
 627	6.2287e+01	15.0557	57.387885	0.000233	2.331343	0.789880	-0.000093
 628	6.2386e+01	15.0108	57.214288	0.000436	4.358598	1.476733	-0.000174
 629	6.2486e+01	14.9771	57.097211	0.000294	2.939520	0.995936	-0.000118
 630	6.2586e+01	14.9354	56.959948	0.000345	3.446333	1.167649	-0.000138
 631	6.2685e+01	14.9017	56.822686	0.000345	3.446333	1.167649	-0.000138
 632	6.2785e+01	14.8552	56.673311	0.000375	3.750422	1.270677	-0.000150
 633	6.2884e+01	14.8167	56.556235	0.000294	2.939520	0.995936	-0.000118
 634	6.2983e+01	14.7814	56.398786	0.000395	3.953147	1.339363	-0.000158
 635	6.3083e+01	14.7445	56.233264	0.000416	4.155873	1.408048	-0.000166
 636	6.3182e+01	14.6948	56.116187	0.000294	2.939520	0.995936	-0.000118
 637	6.3282e+01	14.6434	55.982961	0.000334	3.344971	1.133307	-0.000134
 638	6.3382e+01	14.6162	55.845699	0.000345	3.446333	1.167649	-0.000138
 639	6.3481e+01	14.5777	55.688250	0.000395	3.953147	1.339363	-0.000158
 640	6.3581e+01	14.5360	55.559062	0.000324	3.243608	1.098964	-0.000130
 641	6.3680e+01	14.4958	55.389502	0.000426	4.257235	1.442390	-0.000170
 642	6.3779e+01	14.4573	55.264351	0.000314	3.142245	1.064621	-0.000126
 643	6.3879e+01	14.4108	55.106903	0.000395	3.953147	1.339363	-0.000158
 644	6.3978e+01	14.3755	54.981752	0.000314	3.142245	1.064621	-0.000126
 645	6.4078e+01	14.3386	54.792006	0.000476	4.764049	1.614104	-0.000191
 646	6.4177e+01	14.2969	54.695115	0.000243	2.432706	0.824223	-0.000097
 647	6.4277e+01	14.2616	54.541704	0.000385	3.851784	1.305020	-0.000154
 648	6.4376e+01	14.2119	54.440775	0.000253	2.534069	0.858566	-0.000101
 649	6.4476e+01	14.1846	54.263141	0.000446	4.459961	1.511076	-0.000179
 650	6.4576e+01	14.1429	54.146065	0.000294	2.939520	0.995936	-0.000118
 651	6.4675e+01	14.0980	53.976505	0.000426	4.257235	1.442390	-0.000170
 652	6.4775e+01	14.0675	53.835205	0.000355	3.547696	1.201992	-0.000142
 653	6.4874e+01	14.0178	53.697942	0.000345	3.446333	1.167649	-0.000138
 654	6.4974e+01	13.9825	53.560680	0.000345	3.446333	1.167649	-0.000138
 655	6.5073e+01	13.9440	53.467826	0.000233	2.331343	0.789880	-0.000093
 656	6.5172e+01	13.9039	53.322489	0.000365	3.649059	1.236335	-0.000146
 657	6.5272e+01	13.8734	53.165041	0.000395	3.953147	1.339363	-0.000158
 658	6.5371e+01	13.8301	53.019704	0.000365	3.649059	1.236335	-0.000146
 659	6.5471e+01	13.7755	52.898590	0.000304	3.040882	1.030279	-0.000122
 660	6.5570e+01	13.7435	52.745178	0.000385	3.851784	1.305020	-0.000154
 661	6.5670e+01	13.6937	52.611953	0.000334	3.344971	1.133307	-0.000134
 662	6.5769e+01	13.6633	52.474690	0.000345	3.446333	1.167649	-0.000138
 663	6.5869e+01	13.6264	52.325316	0.000375	3.750422	1.270677	-0.000150
 664	6.5969e+01	13.5879	52.179979	0.000365	3.649059	1.236335	-0.000146
 665	6.6068e+01	13.5477	52.066940	0.000284	2.838157	0.961594	-0.000114
 666	6.6168e+01	13.4964	51.897380	0.000426	4.257235	1.442390	-0.000170
 667	6.6267e+01	13.4740	51.788377	0.000274	2.736794	0.927251	-0.000110
 668	6.6367e+01	13.4242	51.647077	0.000355	3.547696	1.201992	-0.000142
 669	6.6466e+01	13.3841	51.493666	0.000385	3.851784	1.305020	-0.000154
 670	6.6566e+01	13.3408	51.384664	0.000274	2.736794	0.927251	-0.000110
 671	6.6665e+01	13.2959	51.202993	0.000456	4.561324	1.545418	-0.000183
 672	6.6764e+01	13.2590	51.085916	0.000294	2.939520	0.995936	-0.000118
 673	6.6864e+01	13.2349	50.952690	0.000334	3.344971	1.133307	-0.000134
 674	6.6963e+01	13.1820	50.795242	0.000395	3.953147	1.339363	-0.000158
 675	6.7063e+01	13.1403	50.674128	0.000304	3.040882	1.030279	-0.000122
 676	6.7162e+01	13.1130	50.532828	0.000355	3.547696	1.201992	-0.000142
 677	6.7262e+01	13.0617	50.355194	0.000446	4.459961	1.511076	-0.000179
 678	6.7362e+01	13.0183	50.266377	0.000223	2.229980	0.755538	-0.000089
 679	6.7461e+01	12.9831	50.096817	0.000426	4.257235	1.442390	-0.000170
 680	6.7561e+01	12.9381	49.991852	0.000264	2.635431	0.892908	-0.000105
 681	6.7660e+01	12.9061	49.866701	0.000314	3.142245	1.064621	-0.000126
 682	6.7760e+01	12.8724	49.737512	0.000324	3.243608	1.098964	-0.000130
 683	6.7859e+01	12.8226	49.555841	0.000456	4.561324	1.545418	-0.000183
 684	6.7959e+01	12.7873	49.414541	0.000355	3.547696	1.201992	-0.000142
 685	6.8058e+01	12.7520	49.265167	0.000375	3.750422	1.270677	-0.000150
 686	6.8157e+01	12.7232	49.148090	0.000294	2.939520	0.995936	-0.000118
 687	6.8257e+01	12.6686	49.006791	0.000355	3.547696	1.201992	-0.000142
 688	6.8356e+01	12.6349	48.893751	0.000284	2.838157	0.961594	-0.000114
 689	6.8456e+01	12.5868	48.736303	0.000395	3.953147	1.339363	-0.000158
 690	6.8555e+01	12.5419	48.615189	0.000304	3.040882	1.030279	-0.000122
 691	6.8655e+01	12.5050	48.473889	0.000355	3.547696	1.201992	-0.000142
 692	6.8754e+01	12.4649	48.340663	0.000334	3.344971	1.133307	-0.000134
 693	6.8854e+01	12.4376	48.175141	0.000416	4.155873	1.408048	-0.000166
 694	6.8954e+01	12.3959	48.062101	0.000284	2.838157	0.961594	-0.000114
 695	6.9053e+01	12.3526	47.896578	0.000416	4.155873	1.408048	-0.000166
 696	6.9153e+01	12.3093	47.751242	0.000365	3.649059	1.236335	-0.000146
 697	6.9252e+01	12.2820	47.609942	0.000355	3.547696	1.201992	-0.000142
 698	6.9352e+01	12.2355	47.448456	0.000405	4.054510	1.373705	-0.000162
 699	6.9451e+01	12.1906	47.295045	0.000385	3.851784	1.305020	-0.000154
 700	6.9550e+01	12.1456	47.169894	0.000314	3.142245	1.064621	-0.000126
 701	6.9650e+01	12.1087	47.073003	0.000243	2.432706	0.824223	-0.000097
 702	6.9749e+01	12.0686	46.911517	0.000405	4.054510	1.373705	-0.000162
 703	6.9849e+01	12.0301	46.790403	0.000304	3.040882	1.030279	-0.000122
 704	6.9948e+01	11.9900	46.641029	0.000375	3.750422	1.270677	-0.000150
 705	7.0048e+01	11.9515	46.491655	0.000375	3.750422	1.270677	-0.000150
 706	7.0147e+01	11.9178	46.362467	0.000324	3.243608	1.098964	-0.000130
 707	7.0247e+01	11.8713	46.217130	0.000365	3.649059	1.236335	-0.000146
 708	7.0347e+01	11.8264	46.055644	0.000405	4.054510	1.373705	-0.000162
 709	7.0446e+01	11.7943	45.934530	0.000304	3.040882	1.030279	-0.000122
 710	7.0546e+01	11.7558	45.801305	0.000334	3.344971	1.133307	-0.000134
 711	7.0645e+01	11.7141	45.639820	0.000405	4.054510	1.373705	-0.000162
 712	7.0745e+01	11.6660	45.514668	0.000314	3.142245	1.064621	-0.000126
 713	7.0844e+01	11.6291	45.377406	0.000345	3.446333	1.167649	-0.000138
 714	7.0944e+01	11.5938	45.260329	0.000294	2.939520	0.995936	-0.000118
 715	7.1043e+01	11.5521	45.094806	0.000416	4.155873	1.408048	-0.000166
 716	7.1142e+01	11.5023	44.957544	0.000345	3.446333	1.167649	-0.000138
 717	7.1242e+01	11.4687	44.820281	0.000345	3.446333	1.167649	-0.000138
 718	7.1341e+01	11.4366	44.711278	0.000274	2.736794	0.927251	-0.000110
 719	7.1441e+01	11.3965	44.541719	0.000426	4.257235	1.442390	-0.000170
 720	7.1540e+01	11.3580	44.396382	0.000365	3.649059	1.236335	-0.000146
 721	7.1640e+01	11.3098	44.259119	0.000345	3.446333	1.167649	-0.000138
 722	7.1740e+01	11.2713	44.121856	0.000345	3.446333	1.167649	-0.000138
 723	7.1839e+01	11.2296	44.008817	0.000284	2.838157	0.961594	-0.000114
 724	7.1939e+01	11.1847	43.847331	0.000405	4.054510	1.373705	-0.000162
 725	7.2038e+01	11.1526	43.730254	0.000294	2.939520	0.995936	-0.000118
 726	7.2138e+01	11.1141	43.576843	0.000385	3.851784	1.305020	-0.000154
 727	7.2237e+01	11.0676	43.415358	0.000405	4.054510	1.373705	-0.000162
 728	7.2337e+01	11.0387	43.298281	0.000294	2.939520	0.995936	-0.000118
 729	7.2436e+01	10.9874	43.152944	0.000365	3.649059	1.236335	-0.000146
 730	7.2535e+01	10.9505	43.007607	0.000365	3.649059	1.236335	-0.000146
 731	7.2635e+01	10.9056	42.918790	0.000223	2.229980	0.755538	-0.000089
 732	7.2734e+01	10.8751	42.725008	0.000487	4.865412	1.648446	-0.000195
 733	7.2834e+01	10.8366	42.567559	0.000395	3.953147	1.339363	-0.000158
 734	7.2933e+01	10.7933	42.466631	0.000253	2.534069	0.858566	-0.000101
 735	7.3033e+01	10.7564	42.325331	0.000355	3.547696	1.201992	-0.000142
 736	7.3132e+01	10.7083	42.204217	0.000304	3.040882	1.030279	-0.000122
 737	7.3232e+01	10.6778	42.022546	0.000456	4.561324	1.545418	-0.000183
 738	7.3332e+01	10.6393	41.897395	0.000314	3.142245	1.064621	-0.000126
 739	7.3431e+01	10.5863	41.735909	0.000405	4.054510	1.373705	-0.000162
 740	7.3531e+01	10.5575	41.590572	0.000365	3.649059	1.236335	-0.000146
 741	7.3630e+01	10.5174	41.425050	0.000416	4.155873	1.408048	-0.000166
 742	7.3730e+01	10.4788	41.299899	0.000314	3.142245	1.064621	-0.000126
 743	7.3829e+01	10.4339	41.182822	0.000294	2.939520	0.995936	-0.000118
 744	7.3928e+01	10.3986	41.017299	0.000416	4.155873	1.408048	-0.000166
 745	7.4028e+01	10.3553	40.859851	0.000395	3.953147	1.339363	-0.000158
 746	7.4127e+01	10.3120	40.710477	0.000375	3.750422	1.270677	-0.000150
 747	7.4227e+01	10.2671	40.544954	0.000416	4.155873	1.408048	-0.000166
 748	7.4326e+01	10.2366	40.395580	0.000375	3.750422	1.270677	-0.000150
 749	7.4426e+01	10.2013	40.266392	0.000324	3.243608	1.098964	-0.000130
 750	7.4525e+01	10.1516	40.121055	0.000365	3.649059	1.236335	-0.000146
 751	7.4625e+01	10.1195	39.979755	0.000355	3.547696	1.201992	-0.000142
 752	7.4725e+01	10.0826	39.810196	0.000426	4.257235	1.442390	-0.000170
 753	7.4824e+01	10.0345	39.705230	0.000264	2.635431	0.892908	-0.000105
 754	7.4924e+01	9.9944	39.515485	0.000476	4.764049	1.614104	-0.000191
 755	7.5023e+01	9.9591	39.402445	0.000284	2.838157	0.961594	-0.000114
 756	7.5123e+01	9.9286	39.228848	0.000436	4.358598	1.476733	-0.000174
 757	7.5222e+01	9.8837	39.087548	0.000355	3.547696	1.201992	-0.000142
 758	7.5322e+01	9.8307	38.958360	0.000324	3.243608	1.098964	-0.000130
 759	7.5421e+01	9.8083	38.780726	0.000446	4.459961	1.511076	-0.000179
 760	7.5520e+01	9.7634	38.627315	0.000385	3.851784	1.305020	-0.000154
 761	7.5620e+01	9.7072	38.469866	0.000395	3.953147	1.339363	-0.000158
 762	7.5719e+01	9.6831	38.352790	0.000294	2.939520	0.995936	-0.000118
 763	7.5819e+01	9.6398	38.195341	0.000395	3.953147	1.339363	-0.000158
 764	7.5918e+01	9.5997	38.025782	0.000426	4.257235	1.442390	-0.000170
 765	7.6018e+01	9.5628	37.908705	0.000294	2.939520	0.995936	-0.000118
 766	7.6118e+01	9.5211	37.714922	0.000487	4.865412	1.648446	-0.000195
 767	7.6217e+01	9.4810	37.577659	0.000345	3.446333	1.167649	-0.000138
 768	7.6317e+01	9.4425	37.448471	0.000324	3.243608	1.098964	-0.000130
 769	7.6416e+01	9.4056	37.274874	0.000436	4.358598	1.476733	-0.000174
 770	7.6516e+01	9.3543	37.097240	0.000446	4.459961	1.511076	-0.000179
 771	7.6615e+01	9.3190	37.004386	0.000233	2.331343	0.789880	-0.000093
 772	7.6715e+01	9.2901	36.842901	0.000405	4.054510	1.373705	-0.000162
 773	7.6814e+01	9.2388	36.673341	0.000426	4.257235	1.442390	-0.000170
 774	7.6913e+01	9.2067	36.515893	0.000395	3.953147	1.339363	-0.000158
 775	7.7013e+01	9.1666	36.378630	0.000345	3.446333	1.167649	-0.000138
 776	7.7112e+01	9.1217	36.241368	0.000345	3.446333	1.167649	-0.000138
 777	7.7212e+01	9.0784	36.071808	0.000426	4.257235	1.442390	-0.000170
 778	7.7311e+01	9.0366	35.958768	0.000284	2.838157	0.961594	-0.000114
 779	7.7411e+01	8.9965	35.769023	0.000476	4.764049	1.614104	-0.000191
 780	7.7510e+01	8.9596	35.623686	0.000365	3.649059	1.236335	-0.000146
 781	7.7610e+01	8.9260	35.458163	0.000416	4.155873	1.408048	-0.000166
 782	7.7710e+01	8.8778	35.328975	0.000324	3.243608	1.098964	-0.000130
 783	7.7809e+01	8.8361	35.199786	0.000324	3.243608	1.098964	-0.000130
 784	7.7909e+01	8.8056	35.050412	0.000375	3.750422	1.270677	-0.000150
 785	7.8008e+01	8.7543	34.872779	0.000446	4.459961	1.511076	-0.000179
 786	7.8108e+01	8.7238	34.674959	0.000497	4.966775	1.682789	-0.000199
 787	7.8207e+01	8.6821	34.541733	0.000334	3.344971	1.133307	-0.000134
 788	7.8306e+01	8.6436	34.412545	0.000324	3.243608	1.098964	-0.000130
 789	7.8406e+01	8.5987	34.226837	0.000466	4.662686	1.579761	-0.000187
 790	7.8505e+01	8.5618	34.125908	0.000253	2.534069	0.858566	-0.000101
 791	7.8605e+01	8.5185	33.920014	0.000517	5.169500	1.751474	-0.000207
 792	7.8704e+01	8.4880	33.819086	0.000253	2.534069	0.858566	-0.000101
 793	7.8804e+01	8.4383	33.649526	0.000426	4.257235	1.442390	-0.000170
 794	7.8903e+01	8.4110	33.508227	0.000355	3.547696	1.201992	-0.000142
 795	7.9003e+01	8.3677	33.306370	0.000507	5.068137	1.717131	-0.000203
 796	7.9103e+01	8.3260	33.181219	0.000314	3.142245	1.064621	-0.000126
 797	7.9202e+01	8.2875	33.011659	0.000426	4.257235	1.442390	-0.000170
 798	7.9302e+01	8.2409	32.821914	0.000476	4.764049	1.614104	-0.000191
 799	7.9401e+01	8.2089	32.692725	0.000324	3.243608	1.098964	-0.000130
 800	7.9501e+01	8.1655	32.567574	0.000314	3.142245	1.064621	-0.000126
 801	7.9600e+01	8.1174	32.373791	0.000487	4.865412	1.648446	-0.000195
 802	7.9700e+01	8.0789	32.256715	0.000294	2.939520	0.995936	-0.000118
 803	7.9799e+01	8.0581	32.058895	0.000497	4.966775	1.682789	-0.000199
 804	7.9898e+01	8.0083	31.917595	0.000355	3.547696	1.201992	-0.000142
 805	7.9998e+01	7.9634	31.731887	0.000466	4.662686	1.579761	-0.000187
 806	8.0097e+01	7.9265	31.610773	0.000304	3.040882	1.030279	-0.000122
 807	8.0197e+01	7.8896	31.441213	0.000426	4.257235	1.442390	-0.000170
 808	8.0296e+01	7.8527	31.291839	0.000375	3.750422	1.270677	-0.000150
 809	8.0396e+01	7.8094	31.130354	0.000405	4.054510	1.373705	-0.000162
 810	8.0496e+01	7.7645	30.916385	0.000537	5.372226	1.820159	-0.000215
 811	8.0595e+01	7.7276	30.783160	0.000334	3.344971	1.133307	-0.000134
 812	8.0695e+01	7.6875	30.617637	0.000416	4.155873	1.408048	-0.000166
 813	8.0794e+01	7.6442	30.492486	0.000314	3.142245	1.064621	-0.000126
 814	8.0894e+01	7.6137	30.302741	0.000476	4.764049	1.614104	-0.000191
 815	8.0993e+01	7.5720	30.157404	0.000365	3.649059	1.236335	-0.000146
 816	8.1093e+01	7.5335	29.991881	0.000416	4.155873	1.408048	-0.000166
 817	8.1192e+01	7.4854	29.846545	0.000365	3.649059	1.236335	-0.000146
 818	8.1291e+01	7.4485	29.697170	0.000375	3.750422	1.270677	-0.000150
 819	8.1391e+01	7.4051	29.563945	0.000334	3.344971	1.133307	-0.000134
 820	8.1490e+01	7.3650	29.402460	0.000405	4.054510	1.373705	-0.000162
 821	8.1590e+01	7.3346	29.208677	0.000487	4.865412	1.648446	-0.000195
 822	8.1689e+01	7.2928	29.083526	0.000314	3.142245	1.064621	-0.000126
 823	8.1789e+01	7.2479	28.918003	0.000416	4.155873	1.408048	-0.000166
 824	8.1888e+01	7.2174	28.780741	0.000345	3.446333	1.167649	-0.000138
 825	8.1988e+01	7.1677	28.603107	0.000446	4.459961	1.511076	-0.000179
 826	8.2088e+01	7.1212	28.449696	0.000385	3.851784	1.305020	-0.000154
 827	8.2187e+01	7.0859	28.296284	0.000385	3.851784	1.305020	-0.000154
 828	8.2287e+01	7.0442	28.154985	0.000355	3.547696	1.201992	-0.000142
 829	8.2386e+01	7.0041	28.009648	0.000365	3.649059	1.236335	-0.000146
 830	8.2486e+01	6.9784	27.848162	0.000405	4.054510	1.373705	-0.000162
 831	8.2585e+01	6.9351	27.646306	0.000507	5.068137	1.717131	-0.000203
 832	8.2684e+01	6.8918	27.525191	0.000304	3.040882	1.030279	-0.000122
 833	8.2784e+01	6.8501	27.355632	0.000426	4.257235	1.442390	-0.000170
 834	8.2883e+01	6.8116	27.210295	0.000365	3.649059	1.236335	-0.000146
 835	8.2983e+01	6.7699	27.048809	0.000405	4.054510	1.373705	-0.000162
 836	8.3082e+01	6.7298	26.891361	0.000395	3.953147	1.339363	-0.000158
 837	8.3182e+01	6.6929	26.778321	0.000284	2.838157	0.961594	-0.000114
 838	8.3281e+01	6.6463	26.588576	0.000476	4.764049	1.614104	-0.000191
 839	8.3381e+01	6.6143	26.443239	0.000365	3.649059	1.236335	-0.000146
 840	8.3481e+01	6.5645	26.261568	0.000456	4.561324	1.545418	-0.000183
 841	8.3580e+01	6.5244	26.136417	0.000314	3.142245	1.064621	-0.000126
 842	8.3680e+01	6.4923	25.991080	0.000365	3.649059	1.236335	-0.000146
 843	8.3779e+01	6.4554	25.821520	0.000426	4.257235	1.442390	-0.000170
 844	8.3879e+01	6.4153	25.651960	0.000426	4.257235	1.442390	-0.000170
 845	8.3978e+01	6.3784	25.510661	0.000355	3.547696	1.201992	-0.000142
 846	8.4078e+01	6.3335	25.353212	0.000395	3.953147	1.339363	-0.000158
 847	8.4177e+01	6.2934	25.183653	0.000426	4.257235	1.442390	-0.000170
 848	8.4276e+01	6.2597	25.070613	0.000284	2.838157	0.961594	-0.000114
 849	8.4376e+01	6.2164	24.901053	0.000426	4.257235	1.442390	-0.000170
 850	8.4475e+01	6.1731	24.767828	0.000334	3.344971	1.133307	-0.000134
 851	8.4575e+01	6.1346	24.634602	0.000334	3.344971	1.133307	-0.000134
 852	8.4674e+01	6.1041	24.424671	0.000527	5.270863	1.785817	-0.000211
 853	8.4774e+01	6.0512	24.299520	0.000314	3.142245	1.064621	-0.000126
 854	8.4874e+01	6.0175	24.125923	0.000436	4.358598	1.476733	-0.000174
 855	8.4973e+01	5.9790	23.952326	0.000436	4.358598	1.476733	-0.000174
 856	8.5073e+01	5.9405	23.798915	0.000385	3.851784	1.305020	-0.000154
 857	8.5172e+01	5.8940	23.661653	0.000345	3.446333	1.167649	-0.000138
 858	8.5272e+01	5.8587	23.504204	0.000395	3.953147	1.339363	-0.000158
 859	8.5371e+01	5.8218	23.366942	0.000345	3.446333	1.167649	-0.000138
 860	8.5471e+01	5.7801	23.173159	0.000487	4.865412	1.648446	-0.000195
 861	8.5570e+01	5.7335	23.048008	0.000314	3.142245	1.064621	-0.000126
 862	8.5669e+01	5.6902	22.870374	0.000446	4.459961	1.511076	-0.000179
 863	8.5769e+01	5.6533	22.700814	0.000426	4.257235	1.442390	-0.000170
 864	8.5868e+01	5.6212	22.567589	0.000334	3.344971	1.133307	-0.000134
 865	8.5968e+01	5.5715	22.442438	0.000314	3.142245	1.064621	-0.000126
 866	8.6067e+01	5.5410	22.236544	0.000517	5.169500	1.751474	-0.000207
 867	8.6167e+01	5.4945	22.155801	0.000203	2.027255	0.686853	-0.000081
 868	8.6266e+01	5.4560	21.962018	0.000487	4.865412	1.648446	-0.000195
 869	8.6366e+01	5.4175	21.800533	0.000405	4.054510	1.373705	-0.000162
 870	8.6466e+01	5.3758	21.643085	0.000395	3.953147	1.339363	-0.000158
 871	8.6565e+01	5.3453	21.497748	0.000365	3.649059	1.236335	-0.000146
 872	8.6665e+01	5.2956	21.336262	0.000405	4.054510	1.373705	-0.000162
 873	8.6764e+01	5.2667	21.178814	0.000395	3.953147	1.339363	-0.000158
 874	8.6864e+01	5.2138	21.013292	0.000416	4.155873	1.408048	-0.000166
 875	8.6963e+01	5.1688	20.880066	0.000334	3.344971	1.133307	-0.000134
 876	8.7063e+01	5.1480	20.698395	0.000456	4.561324	1.545418	-0.000183
 877	8.7162e+01	5.1015	20.496538	0.000507	5.068137	1.717131	-0.000203
 878	8.7261e+01	5.0694	20.391573	0.000264	2.635431	0.892908	-0.000105
 879	8.7361e+01	5.0148	20.254310	0.000345	3.446333	1.167649	-0.000138
 880	8.7460e+01	4.9827	20.068602	0.000466	4.662686	1.579761	-0.000187
 881	8.7560e+01	4.9394	19.903079	0.000416	4.155873	1.408048	-0.000166
 882	8.7659e+01	4.8977	19.745631	0.000395	3.953147	1.339363	-0.000158
 883	8.7759e+01	4.8528	19.636628	0.000274	2.736794	0.927251	-0.000110
 884	8.7859e+01	4.8271	19.442846	0.000487	4.865412	1.648446	-0.000195
 885	8.7958e+01	4.7822	19.333843	0.000274	2.736794	0.927251	-0.000110
 886	8.8058e+01	4.7309	19.140061	0.000487	4.865412	1.648446	-0.000195
 887	8.8157e+01	4.7020	18.990687	0.000375	3.750422	1.270677	-0.000150
 888	8.8257e+01	4.6603	18.873610	0.000294	2.939520	0.995936	-0.000118
 889	8.8356e+01	4.6202	18.679827	0.000487	4.865412	1.648446	-0.000195
 890	8.8456e+01	4.5833	18.522379	0.000395	3.953147	1.339363	-0.000158
 891	8.8555e+01	4.5352	18.377042	0.000365	3.649059	1.236335	-0.000146
 892	8.8654e+01	4.4999	18.231705	0.000365	3.649059	1.236335	-0.000146
 893	8.8754e+01	4.4630	18.078294	0.000385	3.851784	1.305020	-0.000154
 894	8.8853e+01	4.4213	17.936994	0.000355	3.547696	1.201992	-0.000142
 895	8.8953e+01	4.3763	17.739174	0.000497	4.966775	1.682789	-0.000199
 896	8.9052e+01	4.3443	17.622097	0.000294	2.939520	0.995936	-0.000118
 897	8.9152e+01	4.2977	17.440426	0.000456	4.561324	1.545418	-0.000183
 898	8.9251e+01	4.2641	17.315275	0.000314	3.142245	1.064621	-0.000126
 899	8.9351e+01	4.2207	17.137641	0.000446	4.459961	1.511076	-0.000179
 900	8.9451e+01	4.1790	16.984230	0.000385	3.851784	1.305020	-0.000154
 901	8.9550e+01	4.1534	16.838893	0.000365	3.649059	1.236335	-0.000146
 902	8.9650e+01	4.0988	16.701631	0.000345	3.446333	1.167649	-0.000138
 903	8.9749e+01	4.0619	16.519959	0.000456	4.561324	1.545418	-0.000183
 904	8.9849e+01	4.0250	16.374623	0.000365	3.649059	1.236335	-0.000146
 905	8.9948e+01	3.9817	16.209100	0.000416	4.155873	1.408048	-0.000166
 906	9.0047e+01	3.9288	16.047615	0.000405	4.054510	1.373705	-0.000162
 907	9.0147e+01	3.9063	15.894203	0.000385	3.851784	1.305020	-0.000154
 908	9.0246e+01	3.8614	15.720607	0.000436	4.358598	1.476733	-0.000174
 909	9.0346e+01	3.8277	15.547010	0.000436	4.358598	1.476733	-0.000174
 910	9.0445e+01	3.7876	15.409747	0.000345	3.446333	1.167649	-0.000138
 911	9.0545e+01	3.7363	15.280559	0.000324	3.243608	1.098964	-0.000130
 912	9.0644e+01	3.7010	15.135222	0.000365	3.649059	1.236335	-0.000146
 913	9.0744e+01	3.6673	14.949514	0.000466	4.662686	1.579761	-0.000187
 914	9.0844e+01	3.6224	14.800140	0.000375	3.750422	1.270677	-0.000150
 915	9.0943e+01	3.5871	14.586171	0.000537	5.372226	1.820159	-0.000215
 916	9.1043e+01	3.5373	14.452946	0.000334	3.344971	1.133307	-0.000134
 917	9.1142e+01	3.5020	14.307609	0.000365	3.649059	1.236335	-0.000146
 918	9.1242e+01	3.4651	14.129975	0.000446	4.459961	1.511076	-0.000179
 919	9.1341e+01	3.4234	13.984638	0.000365	3.649059	1.236335	-0.000146
 920	9.1441e+01	3.3897	13.819116	0.000416	4.155873	1.408048	-0.000166
 921	9.1540e+01	3.3416	13.609185	0.000527	5.270863	1.785817	-0.000211
 922	9.1639e+01	3.3127	13.463848	0.000365	3.649059	1.236335	-0.000146
 923	9.1739e+01	3.2646	13.326585	0.000345	3.446333	1.167649	-0.000138
 924	9.1838e+01	3.2213	13.177211	0.000375	3.750422	1.270677	-0.000150
 925	9.1938e+01	3.1844	13.027837	0.000375	3.750422	1.270677	-0.000150
 926	9.2037e+01	3.1459	12.862314	0.000416	4.155873	1.408048	-0.000166
 927	9.2137e+01	3.1026	12.676606	0.000466	4.662686	1.579761	-0.000187
 928	9.2237e+01	3.0689	12.515121	0.000405	4.054510	1.373705	-0.000162
 929	9.2336e+01	3.0160	12.341524	0.000436	4.358598	1.476733	-0.000174
 930	9.2436e+01	2.9871	12.184076	0.000395	3.953147	1.339363	-0.000158
 931	9.2535e+01	2.9438	12.022590	0.000405	4.054510	1.373705	-0.000162
 932	9.2635e+01	2.9053	11.889365	0.000334	3.344971	1.133307	-0.000134
 933	9.2734e+01	2.8748	11.719805	0.000426	4.257235	1.442390	-0.000170
 934	9.2834e+01	2.8299	11.538134	0.000456	4.561324	1.545418	-0.000183
 935	9.2933e+01	2.7849	11.388760	0.000375	3.750422	1.270677	-0.000150
 936	9.3032e+01	2.7448	11.227274	0.000405	4.054510	1.373705	-0.000162
 937	9.3132e+01	2.7063	11.033492	0.000487	4.865412	1.648446	-0.000195
 938	9.3231e+01	2.6694	10.872007	0.000405	4.054510	1.373705	-0.000162
 939	9.3331e+01	2.6293	10.722633	0.000375	3.750422	1.270677	-0.000150
 940	9.3430e+01	2.5796	10.561147	0.000405	4.054510	1.373705	-0.000162
 941	9.3530e+01	2.5395	10.419847	0.000355	3.547696	1.201992	-0.000142
 942	9.3629e+01	2.5058	10.238176	0.000456	4.561324	1.545418	-0.000183
 943	9.3729e+01	2.4753	10.036319	0.000507	5.068137	1.717131	-0.000203
 944	9.3829e+01	2.4304	9.911168	0.000314	3.142245	1.064621	-0.000126
 945	9.3928e+01	2.3823	9.741609	0.000426	4.257235	1.442390	-0.000170
 946	9.4028e+01	2.3534	9.539752	0.000507	5.068137	1.717131	-0.000203
 947	9.4127e+01	2.3165	9.398452	0.000355	3.547696	1.201992	-0.000142
 948	9.4227e+01	2.2732	9.249078	0.000375	3.750422	1.270677	-0.000150
 949	9.4326e+01	2.2251	9.091630	0.000395	3.953147	1.339363	-0.000158
 950	9.4425e+01	2.1962	8.901884	0.000476	4.764049	1.614104	-0.000191
 951	9.4525e+01	2.1449	8.748473	0.000385	3.851784	1.305020	-0.000154
 952	9.4624e+01	2.1128	8.542579	0.000517	5.169500	1.751474	-0.000207
 953	9.4724e+01	2.0727	8.441651	0.000253	2.534069	0.858566	-0.000101
 954	9.4823e+01	2.0310	8.255943	0.000466	4.662686	1.579761	-0.000187
 955	9.4923e+01	1.9860	8.082346	0.000436	4.358598	1.476733	-0.000174
 956	9.5022e+01	1.9459	7.916823	0.000416	4.155873	1.408048	-0.000166
 957	9.5122e+01	1.9090	7.775523	0.000355	3.547696	1.201992	-0.000142
 958	9.5222e+01	1.8721	7.581741	0.000487	4.865412	1.648446	-0.000195
 959	9.5321e+01	1.8352	7.460627	0.000304	3.040882	1.030279	-0.000122
 960	9.5421e+01	1.7919	7.230510	0.000578	5.777677	1.957530	-0.000231
 961	9.5520e+01	1.7582	7.081136	0.000375	3.750422	1.270677	-0.000150
 962	9.5620e+01	1.7005	6.947911	0.000334	3.344971	1.133307	-0.000134
 963	9.5719e+01	1.6732	6.782388	0.000416	4.155873	1.408048	-0.000166
 964	9.5819e+01	1.6347	6.604754	0.000446	4.459961	1.511076	-0.000179
 965	9.5918e+01	1.5930	6.439232	0.000416	4.155873	1.408048	-0.000166
 966	9.6017e+01	1.5497	6.261598	0.000446	4.459961	1.511076	-0.000179
 967	9.6117e+01	1.5096	6.112224	0.000375	3.750422	1.270677	-0.000150
 968	9.6216e+01	1.4775	5.930552	0.000456	4.561324	1.545418	-0.000183
 969	9.6316e+01	1.4358	5.744844	0.000466	4.662686	1.579761	-0.000187
 970	9.6415e+01	1.3989	5.591433	0.000385	3.851784	1.305020	-0.000154
 971	9.6515e+01	1.3572	5.454170	0.000345	3.446333	1.167649	-0.000138
 972	9.6615e+01	1.3171	5.240202	0.000537	5.372226	1.820159	-0.000215
 973	9.6714e+01	1.2802	5.106977	0.000334	3.344971	1.133307	-0.000134
 974	9.6814e+01	1.2321	4.925306	0.000456	4.561324	1.545418	-0.000183
 975	9.6913e+01	1.1903	4.775932	0.000375	3.750422	1.270677	-0.000150
 976	9.7013e+01	1.1550	4.586186	0.000476	4.764049	1.614104	-0.000191
 977	9.7112e+01	1.1085	4.404515	0.000456	4.561324	1.545418	-0.000183
 978	9.7212e+01	1.0668	4.226881	0.000446	4.459961	1.511076	-0.000179
 979	9.7311e+01	1.0347	4.105767	0.000304	3.040882	1.030279	-0.000122
 980	9.7410e+01	1.0010	3.928133	0.000446	4.459961	1.511076	-0.000179
 981	9.7510e+01	0.9561	3.722239	0.000517	5.169500	1.751474	-0.000207
 982	9.7609e+01	0.9176	3.564791	0.000395	3.953147	1.339363	-0.000158
 983	9.7709e+01	0.8679	3.399268	0.000416	4.155873	1.408048	-0.000166
 984	9.7808e+01	0.8470	3.257969	0.000355	3.547696	1.201992	-0.000142
 985	9.7908e+01	0.7941	3.092446	0.000416	4.155873	1.408048	-0.000166
 986	9.8007e+01	0.7620	2.882515	0.000527	5.270863	1.785817	-0.000211
 987	9.8107e+01	0.7139	2.753327	0.000324	3.243608	1.098964	-0.000130
 988	9.8207e+01	0.6722	2.595878	0.000395	3.953147	1.339363	-0.000158
 989	9.8306e+01	0.6321	2.398059	0.000497	4.966775	1.682789	-0.000199
 990	9.8406e+01	0.5871	2.232536	0.000416	4.155873	1.408048	-0.000166
 991	9.8505e+01	0.5583	2.062976	0.000426	4.257235	1.442390	-0.000170
 992	9.8605e+01	0.5150	1.921677	0.000355	3.547696	1.201992	-0.000142
 993	9.8704e+01	0.4781	1.752117	0.000426	4.257235	1.442390	-0.000170
 994	9.8803e+01	0.4299	1.566409	0.000466	4.662686	1.579761	-0.000187
 995	9.8903e+01	0.3946	1.429146	0.000345	3.446333	1.167649	-0.000138
 996	9.9002e+01	0.3610	1.243438	0.000466	4.662686	1.579761	-0.000187
 997	9.9102e+01	0.3096	1.094064	0.000375	3.750422	1.270677	-0.000150
 998	9.9201e+01	0.2775	0.948727	0.000365	3.649059	1.236335	-0.000146
 999	9.9301e+01	0.2358	0.775130	0.000436	4.358598	1.476733	-0.000174
1000	9.9400e+01	0.1941	0.637867	0.000345	3.446333	1.167649	-0.000138
1001	9.9500e+01	0.1556	0.419862	0.000547	5.473588	1.854502	-0.000219
1002	9.9600e+01	0.1219	0.290674	0.000324	3.243608	1.098964	-0.000130
1003	9.9699e+01	0.0818	0.157448	0.000334	3.344971	1.133307	-0.000134
1004	9.9799e+01	0.0337	-0.068631	0.000568	5.676314	1.923187	-0.000227
1005	9.9898e+01	0.0176	-0.157448	0.000223	2.229980	0.755538	-0.000089
1006	9.9998e+01	-0.0321	-0.298748	0.000355	3.547696	1.201992	-0.000142
1007	1.0010e+02	-0.0914	-0.500605	0.000507	5.068137	1.717131	-0.000203
1008	1.0020e+02	-0.1107	-0.698424	0.000497	4.966775	1.682789	-0.000199
1009	1.0030e+02	-0.1652	-0.835687	0.000345	3.446333	1.167649	-0.000138
1010	1.0040e+02	-0.2037	-0.989098	0.000385	3.851784	1.305020	-0.000154
1011	1.0050e+02	-0.2326	-1.150584	0.000405	4.054510	1.373705	-0.000162
1012	1.0059e+02	-0.2759	-1.332255	0.000456	4.561324	1.545418	-0.000183
1013	1.0069e+02	-0.3048	-1.497777	0.000416	4.155873	1.408048	-0.000166
1014	1.0079e+02	-0.3497	-1.622929	0.000314	3.142245	1.064621	-0.000126
1015	1.0089e+02	-0.3962	-1.808637	0.000466	4.662686	1.579761	-0.000187
1016	1.0099e+02	-0.4315	-1.978197	0.000426	4.257235	1.442390	-0.000170
1017	1.0109e+02	-0.4700	-2.147756	0.000426	4.257235	1.442390	-0.000170
1018	1.0119e+02	-0.5182	-2.293093	0.000365	3.649059	1.236335	-0.000146
1019	1.0129e+02	-0.5454	-2.414207	0.000304	3.040882	1.030279	-0.000122
1020	1.0139e+02	-0.5888	-2.607990	0.000487	4.865412	1.648446	-0.000195
1021	1.0149e+02	-0.6353	-2.757364	0.000375	3.750422	1.270677	-0.000150
1022	1.0159e+02	-0.6625	-2.902701	0.000365	3.649059	1.236335	-0.000146
1023	1.0169e+02	-0.7043	-3.092446	0.000476	4.764049	1.614104	-0.000191
1024	1.0179e+02	-0.7524	-3.274117	0.000456	4.561324	1.545418	-0.000183
1025	1.0189e+02	-0.7893	-3.411380	0.000345	3.446333	1.167649	-0.000138
1026	1.0199e+02	-0.8342	-3.564791	0.000385	3.851784	1.305020	-0.000154
1027	1.0209e+02	-0.8775	-3.718202	0.000385	3.851784	1.305020	-0.000154
1028	1.0219e+02	-0.9160	-3.887762	0.000426	4.257235	1.442390	-0.000170
1029	1.0229e+02	-0.9513	-4.025024	0.000345	3.446333	1.167649	-0.000138
1030	1.0239e+02	-0.9898	-4.226881	0.000507	5.068137	1.717131	-0.000203
1031	1.0248e+02	-1.0283	-4.384329	0.000395	3.953147	1.339363	-0.000158
1032	1.0258e+02	-1.0780	-4.537741	0.000385	3.851784	1.305020	-0.000154
1033	1.0268e+02	-1.1149	-4.699226	0.000405	4.054510	1.373705	-0.000162
1034	1.0278e+02	-1.1583	-4.872823	0.000436	4.358598	1.476733	-0.000174
1035	1.0288e+02	-1.1855	-5.034308	0.000405	4.054510	1.373705	-0.000162
1036	1.0298e+02	-1.2337	-5.187719	0.000385	3.851784	1.305020	-0.000154
1037	1.0308e+02	-1.2738	-5.337093	0.000375	3.750422	1.270677	-0.000150
1038	1.0318e+02	-1.3091	-5.494542	0.000395	3.953147	1.339363	-0.000158
1039	1.0328e+02	-1.3508	-5.692361	0.000497	4.966775	1.682789	-0.000199
1040	1.0338e+02	-1.3877	-5.825587	0.000334	3.344971	1.133307	-0.000134
1041	1.0348e+02	-1.4246	-5.987072	0.000405	4.054510	1.373705	-0.000162
1042	1.0358e+02	-1.4759	-6.108186	0.000304	3.040882	1.030279	-0.000122
1043	1.0368e+02	-1.5160	-6.306006	0.000497	4.966775	1.682789	-0.000199
1044	1.0378e+02	-1.5497	-6.459417	0.000385	3.851784	1.305020	-0.000154
1045	1.0388e+02	-1.5898	-6.633014	0.000436	4.358598	1.476733	-0.000174
1046	1.0398e+02	-1.6299	-6.782388	0.000375	3.750422	1.270677	-0.000150
1047	1.0408e+02	-1.6620	-6.915614	0.000334	3.344971	1.133307	-0.000134
1048	1.0418e+02	-1.7101	-7.093247	0.000446	4.459961	1.511076	-0.000179
1049	1.0428e+02	-1.7534	-7.299141	0.000517	5.169500	1.751474	-0.000207
1050	1.0438e+02	-1.7743	-7.391996	0.000233	2.331343	0.789880	-0.000093
1051	1.0447e+02	-1.8336	-7.585778	0.000487	4.865412	1.648446	-0.000195
1052	1.0457e+02	-1.8657	-7.739189	0.000385	3.851784	1.305020	-0.000154
1053	1.0467e+02	-1.9074	-7.908749	0.000426	4.257235	1.442390	-0.000170
1054	1.0477e+02	-1.9395	-8.050049	0.000355	3.547696	1.201992	-0.000142
1055	1.0487e+02	-1.9876	-8.191348	0.000355	3.547696	1.201992	-0.000142
1056	1.0497e+02	-2.0358	-8.377057	0.000466	4.662686	1.579761	-0.000187
1057	1.0507e+02	-2.0711	-8.518356	0.000355	3.547696	1.201992	-0.000142
1058	1.0517e+02	-2.1015	-8.651582	0.000334	3.344971	1.133307	-0.000134
1059	1.0527e+02	-2.1545	-8.800956	0.000375	3.750422	1.270677	-0.000150
1060	1.0537e+02	-2.1866	-8.970516	0.000426	4.257235	1.442390	-0.000170
1061	1.0547e+02	-2.2299	-9.132001	0.000405	4.054510	1.373705	-0.000162
1062	1.0557e+02	-2.2684	-9.313672	0.000456	4.561324	1.545418	-0.000183
1063	1.0567e+02	-2.3101	-9.438823	0.000314	3.142245	1.064621	-0.000126
1064	1.0577e+02	-2.3534	-9.596272	0.000395	3.953147	1.339363	-0.000158
1065	1.0587e+02	-2.3855	-9.721423	0.000314	3.142245	1.064621	-0.000126
1066	1.0597e+02	-2.4224	-9.886945	0.000416	4.155873	1.408048	-0.000166
1067	1.0607e+02	-2.4593	-10.072654	0.000466	4.662686	1.579761	-0.000187
1068	1.0617e+02	-2.5106	-10.250288	0.000446	4.459961	1.511076	-0.000179
1069	1.0627e+02	-2.5443	-10.395625	0.000365	3.649059	1.236335	-0.000146
1070	1.0637e+02	-2.5892	-10.540961	0.000365	3.649059	1.236335	-0.000146
1071	1.0647e+02	-2.6229	-10.714558	0.000436	4.358598	1.476733	-0.000174
1072	1.0656e+02	-2.6694	-10.847784	0.000334	3.344971	1.133307	-0.000134
1073	1.0666e+02	-2.7015	-10.997158	0.000375	3.750422	1.270677	-0.000150
1074	1.0676e+02	-2.7448	-11.170755	0.000436	4.358598	1.476733	-0.000174
1075	1.0686e+02	-2.7785	-11.324166	0.000385	3.851784	1.305020	-0.000154
1076	1.0696e+02	-2.8251	-11.481614	0.000395	3.953147	1.339363	-0.000158
1077	1.0706e+02	-2.8620	-11.626951	0.000365	3.649059	1.236335	-0.000146
1078	1.0716e+02	-2.9085	-11.752102	0.000314	3.142245	1.064621	-0.000126
1079	1.0726e+02	-2.9518	-11.982219	0.000578	5.777677	1.957530	-0.000231
1080	1.0736e+02	-2.9871	-12.143704	0.000405	4.054510	1.373705	-0.000162
1081	1.0746e+02	-3.0160	-12.309227	0.000416	4.155873	1.408048	-0.000166
1082	1.0756e+02	-3.0641	-12.426304	0.000294	2.939520	0.995936	-0.000118
1083	1.0766e+02	-3.1010	-12.612012	0.000466	4.662686	1.579761	-0.000187
1084	1.0776e+02	-3.1491	-12.729089	0.000294	2.939520	0.995936	-0.000118
1085	1.0786e+02	-3.1764	-12.910760	0.000456	4.561324	1.545418	-0.000183
1086	1.0796e+02	-3.2325	-13.088394	0.000446	4.459961	1.511076	-0.000179
1087	1.0806e+02	-3.2614	-13.229694	0.000355	3.547696	1.201992	-0.000142
1088	1.0816e+02	-3.2967	-13.342734	0.000284	2.838157	0.961594	-0.000114
1089	1.0826e+02	-3.3432	-13.516330	0.000436	4.358598	1.476733	-0.000174
1090	1.0836e+02	-3.3833	-13.726262	0.000527	5.270863	1.785817	-0.000211
1091	1.0845e+02	-3.4315	-13.855450	0.000324	3.243608	1.098964	-0.000130
1092	1.0855e+02	-3.4684	-14.025010	0.000426	4.257235	1.442390	-0.000170
1093	1.0865e+02	-3.5052	-14.214755	0.000476	4.764049	1.614104	-0.000191
1094	1.0875e+02	-3.5325	-14.356055	0.000355	3.547696	1.201992	-0.000142
1095	1.0885e+02	-3.5710	-14.557911	0.000507	5.068137	1.717131	-0.000203
1096	1.0895e+02	-3.6240	-14.683063	0.000314	3.142245	1.064621	-0.000126
1097	1.0905e+02	-3.6657	-14.820325	0.000345	3.446333	1.167649	-0.000138
1098	1.0915e+02	-3.6897	-14.997959	0.000446	4.459961	1.511076	-0.000179
1099	1.0925e+02	-3.7427	-15.183668	0.000466	4.662686	1.579761	-0.000187
1100	1.0935e+02	-3.7876	-15.329004	0.000365	3.649059	1.236335	-0.000146
1101	1.0945e+02	-3.8213	-15.514713	0.000466	4.662686	1.579761	-0.000187
1102	1.0955e+02	-3.8534	-15.660050	0.000365	3.649059	1.236335	-0.000146
1103	1.0965e+02	-3.8983	-15.765015	0.000264	2.635431	0.892908	-0.000105
1104	1.0975e+02	-3.9320	-15.958798	0.000487	4.865412	1.648446	-0.000195
1105	1.0985e+02	-3.9737	-16.124320	0.000416	4.155873	1.408048	-0.000166
1106	1.0995e+02	-4.0266	-16.285806	0.000405	4.054510	1.373705	-0.000162
1107	1.1005e+02	-4.0667	-16.439217	0.000385	3.851784	1.305020	-0.000154
1108	1.1015e+02	-4.0876	-16.600702	0.000405	4.054510	1.373705	-0.000162
1109	1.1025e+02	-4.1357	-16.746039	0.000365	3.649059	1.236335	-0.000146
1110	1.1035e+02	-4.1790	-16.915599	0.000426	4.257235	1.442390	-0.000170
1111	1.1044e+02	-4.2207	-17.052861	0.000345	3.446333	1.167649	-0.000138
1112	1.1054e+02	-4.2576	-17.198198	0.000365	3.649059	1.236335	-0.000146
1113	1.1064e+02	-4.3009	-17.400055	0.000507	5.068137	1.717131	-0.000203
1114	1.1074e+02	-4.3394	-17.573652	0.000436	4.358598	1.476733	-0.000174
1115	1.1084e+02	-4.3796	-17.698803	0.000314	3.142245	1.064621	-0.000126
1116	1.1094e+02	-4.4132	-17.856251	0.000395	3.953147	1.339363	-0.000158
1117	1.1104e+02	-4.4582	-17.981403	0.000314	3.142245	1.064621	-0.000126
1118	1.1114e+02	-4.4919	-18.183259	0.000507	5.068137	1.717131	-0.000203
1119	1.1124e+02	-4.5400	-18.328596	0.000365	3.649059	1.236335	-0.000146
1120	1.1134e+02	-4.5705	-18.473933	0.000365	3.649059	1.236335	-0.000146
1121	1.1144e+02	-4.6154	-18.635419	0.000405	4.054510	1.373705	-0.000162
1122	1.1154e+02	-4.6571	-18.821127	0.000466	4.662686	1.579761	-0.000187
1123	1.1164e+02	-4.7052	-18.950315	0.000324	3.243608	1.098964	-0.000130
1124	1.1174e+02	-4.7261	-19.140061	0.000476	4.764049	1.614104	-0.000191
1125	1.1184e+02	-4.7806	-19.261175	0.000304	3.040882	1.030279	-0.000122
1126	1.1194e+02	-4.8159	-19.442846	0.000456	4.561324	1.545418	-0.000183
1127	1.1204e+02	-4.8528	-19.604331	0.000405	4.054510	1.373705	-0.000162
1128	1.1214e+02	-4.9009	-19.753705	0.000375	3.750422	1.270677	-0.000150
1129	1.1224e+02	-4.9298	-19.911153	0.000395	3.953147	1.339363	-0.000158
1130	1.1234e+02	-4.9811	-20.080713	0.000426	4.257235	1.442390	-0.000170
1131	1.1244e+02	-5.0196	-20.217976	0.000345	3.446333	1.167649	-0.000138
1132	1.1253e+02	-5.0533	-20.375424	0.000395	3.953147	1.339363	-0.000158
1133	1.1263e+02	-5.0870	-20.532872	0.000395	3.953147	1.339363	-0.000158
1134	1.1273e+02	-5.1416	-20.710506	0.000446	4.459961	1.511076	-0.000179
1135	1.1283e+02	-5.1801	-20.839695	0.000324	3.243608	1.098964	-0.000130
1136	1.1293e+02	-5.2105	-20.997143	0.000395	3.953147	1.339363	-0.000158
1137	1.1303e+02	-5.2490	-21.203037	0.000517	5.169500	1.751474	-0.000207
1138	1.1313e+02	-5.2924	-21.316077	0.000284	2.838157	0.961594	-0.000114
1139	1.1323e+02	-5.3437	-21.493711	0.000446	4.459961	1.511076	-0.000179
1140	1.1333e+02	-5.3662	-21.639048	0.000365	3.649059	1.236335	-0.000146
1141	1.1343e+02	-5.4191	-21.820719	0.000456	4.561324	1.545418	-0.000183
1142	1.1353e+02	-5.4416	-21.986241	0.000416	4.155873	1.408048	-0.000166
1143	1.1363e+02	-5.4945	-22.151764	0.000416	4.155873	1.408048	-0.000166
1144	1.1373e+02	-5.5378	-22.289026	0.000345	3.446333	1.167649	-0.000138
1145	1.1383e+02	-5.5795	-22.454549	0.000416	4.155873	1.408048	-0.000166
1146	1.1393e+02	-5.6116	-22.607960	0.000385	3.851784	1.305020	-0.000154
1147	1.1403e+02	-5.6501	-22.793668	0.000466	4.662686	1.579761	-0.000187
1148	1.1413e+02	-5.6982	-22.959191	0.000416	4.155873	1.408048	-0.000166
1149	1.1423e+02	-5.7255	-23.116639	0.000395	3.953147	1.339363	-0.000158
1150	1.1433e+02	-5.7784	-23.266013	0.000375	3.750422	1.270677	-0.000150
1151	1.1442e+02	-5.8105	-23.451722	0.000466	4.662686	1.579761	-0.000187
1152	1.1452e+02	-5.8506	-23.560724	0.000274	2.736794	0.927251	-0.000110
1153	1.1462e+02	-5.8972	-23.693950	0.000334	3.344971	1.133307	-0.000134
1154	1.1472e+02	-5.9341	-23.867546	0.000436	4.358598	1.476733	-0.000174
1155	1.1482e+02	-5.9742	-24.041143	0.000436	4.358598	1.476733	-0.000174
1156	1.1492e+02	-6.0159	-24.186480	0.000365	3.649059	1.236335	-0.000146
1157	1.1502e+02	-6.0383	-24.327780	0.000355	3.547696	1.201992	-0.000142
1158	1.1512e+02	-6.0913	-24.513488	0.000466	4.662686	1.579761	-0.000187
1159	1.1522e+02	-6.1266	-24.634602	0.000304	3.040882	1.030279	-0.000122
1160	1.1532e+02	-6.1715	-24.804162	0.000426	4.257235	1.442390	-0.000170
1161	1.1542e+02	-6.2020	-24.973722	0.000426	4.257235	1.442390	-0.000170
1162	1.1552e+02	-6.2437	-25.098873	0.000314	3.142245	1.064621	-0.000126
1163	1.1562e+02	-6.2870	-25.228061	0.000324	3.243608	1.098964	-0.000130
1164	1.1572e+02	-6.3415	-25.397621	0.000426	4.257235	1.442390	-0.000170
1165	1.1582e+02	-6.3592	-25.522772	0.000314	3.142245	1.064621	-0.000126
1166	1.1592e+02	-6.4105	-25.704443	0.000456	4.561324	1.545418	-0.000183
1167	1.1602e+02	-6.4506	-25.825557	0.000304	3.040882	1.030279	-0.000122
1168	1.1612e+02	-6.4875	-25.978968	0.000385	3.851784	1.305020	-0.000154
1169	1.1622e+02	-6.5276	-26.116231	0.000345	3.446333	1.167649	-0.000138
1170	1.1632e+02	-6.5597	-26.318088	0.000507	5.068137	1.717131	-0.000203
1171	1.1642e+02	-6.6062	-26.475536	0.000395	3.953147	1.339363	-0.000158
1172	1.1651e+02	-6.6431	-26.584539	0.000274	2.736794	0.927251	-0.000110
1173	1.1661e+02	-6.6816	-26.737950	0.000385	3.851784	1.305020	-0.000154
1174	1.1671e+02	-6.7282	-26.859064	0.000304	3.040882	1.030279	-0.000122
1175	1.1681e+02	-6.7683	-27.012475	0.000385	3.851784	1.305020	-0.000154
1176	1.1691e+02	-6.8132	-27.165886	0.000385	3.851784	1.305020	-0.000154
1177	1.1701e+02	-6.8437	-27.299112	0.000334	3.344971	1.133307	-0.000134
1178	1.1711e+02	-6.8806	-27.509043	0.000527	5.270863	1.785817	-0.000211
1179	1.1721e+02	-6.9223	-27.597860	0.000223	2.229980	0.755538	-0.000089
1180	1.1731e+02	-6.9527	-27.763382	0.000416	4.155873	1.408048	-0.000166
1181	1.1741e+02	-7.0041	-27.928905	0.000416	4.155873	1.408048	-0.000166
1182	1.1751e+02	-7.0426	-28.041945	0.000284	2.838157	0.961594	-0.000114
1183	1.1761e+02	-7.0907	-28.235727	0.000487	4.865412	1.648446	-0.000195
1184	1.1771e+02	-7.1244	-28.385101	0.000375	3.750422	1.270677	-0.000150
1185	1.1781e+02	-7.1693	-28.481993	0.000243	2.432706	0.824223	-0.000097
1186	1.1791e+02	-7.2046	-28.603107	0.000304	3.040882	1.030279	-0.000122
1187	1.1801e+02	-7.2383	-28.817075	0.000537	5.372226	1.820159	-0.000215
1188	1.1811e+02	-7.2912	-28.954338	0.000345	3.446333	1.167649	-0.000138
1189	1.1821e+02	-7.3249	-29.059303	0.000264	2.635431	0.892908	-0.000105
1190	1.1831e+02	-7.3554	-29.245011	0.000466	4.662686	1.579761	-0.000187
1191	1.1841e+02	-7.4067	-29.378237	0.000334	3.344971	1.133307	-0.000134
1192	1.1850e+02	-7.4404	-29.519537	0.000355	3.547696	1.201992	-0.000142
1193	1.1860e+02	-7.4789	-29.664873	0.000365	3.649059	1.236335	-0.000146
1194	1.1870e+02	-7.5190	-29.806173	0.000355	3.547696	1.201992	-0.000142
1195	1.1880e+02	-7.5640	-29.959584	0.000385	3.851784	1.305020	-0.000154
1196	1.1890e+02	-7.6121	-30.100884	0.000355	3.547696	1.201992	-0.000142
1197	1.1900e+02	-7.6442	-30.262369	0.000405	4.054510	1.373705	-0.000162
1198	1.1910e+02	-7.6827	-30.379446	0.000294	2.939520	0.995936	-0.000118
1199	1.1920e+02	-7.7180	-30.565155	0.000466	4.662686	1.579761	-0.000187
1200	1.1930e+02	-7.7661	-30.690306	0.000314	3.142245	1.064621	-0.000126
1201	1.1940e+02	-7.7982	-30.859866	0.000426	4.257235	1.442390	-0.000170
1202	1.1950e+02	-7.8415	-30.952720	0.000233	2.331343	0.789880	-0.000093
1203	1.1960e+02	-7.8912	-31.110168	0.000395	3.953147	1.339363	-0.000158
1204	1.1970e+02	-7.9185	-31.247431	0.000345	3.446333	1.167649	-0.000138
1205	1.1980e+02	-7.9506	-31.380656	0.000334	3.344971	1.133307	-0.000134
1206	1.1990e+02	-8.0035	-31.538104	0.000395	3.953147	1.339363	-0.000158
1207	1.2000e+02	-8.0404	-31.711701	0.000436	4.358598	1.476733	-0.000174
1208	1.2010e+02	-8.0789	-31.844927	0.000334	3.344971	1.133307	-0.000134
1209	1.2020e+02	-8.1174	-31.978152	0.000334	3.344971	1.133307	-0.000134
1210	1.2030e+02	-8.1575	-32.135600	0.000395	3.953147	1.339363	-0.000158
1211	1.2039e+02	-8.2040	-32.244603	0.000274	2.736794	0.927251	-0.000110
1212	1.2049e+02	-8.2409	-32.385903	0.000355	3.547696	1.201992	-0.000142
1213	1.2059e+02	-8.2827	-32.555463	0.000426	4.257235	1.442390	-0.000170
1214	1.2069e+02	-8.3228	-32.725022	0.000426	4.257235	1.442390	-0.000170
1215	1.2079e+02	-8.3581	-32.834025	0.000274	2.736794	0.927251	-0.000110
1216	1.2089e+02	-8.4046	-32.983399	0.000375	3.750422	1.270677	-0.000150
1217	1.2099e+02	-8.4495	-33.108550	0.000314	3.142245	1.064621	-0.000126
1218	1.2109e+02	-8.4768	-33.209479	0.000253	2.534069	0.858566	-0.000101
1219	1.2119e+02	-8.5201	-33.415373	0.000517	5.169500	1.751474	-0.000207
1220	1.2129e+02	-8.5570	-33.492078	0.000193	1.925892	0.652510	-0.000077
1221	1.2139e+02	-8.5987	-33.649526	0.000395	3.953147	1.339363	-0.000158
1222	1.2149e+02	-8.6388	-33.831197	0.000456	4.561324	1.545418	-0.000183
1223	1.2159e+02	-8.6741	-33.936163	0.000264	2.635431	0.892908	-0.000105
1224	1.2169e+02	-8.7222	-34.053240	0.000294	2.939520	0.995936	-0.000118
1225	1.2179e+02	-8.7607	-34.198577	0.000365	3.649059	1.236335	-0.000146
1226	1.2189e+02	-8.7944	-34.339877	0.000355	3.547696	1.201992	-0.000142
1227	1.2199e+02	-8.8361	-34.493288	0.000385	3.851784	1.305020	-0.000154
1228	1.2209e+02	-8.8666	-34.590179	0.000243	2.432706	0.824223	-0.000097
1229	1.2219e+02	-8.9211	-34.783962	0.000487	4.865412	1.648446	-0.000195
1230	1.2229e+02	-8.9548	-34.888927	0.000264	2.635431	0.892908	-0.000105
1231	1.2239e+02	-9.0046	-34.997930	0.000274	2.736794	0.927251	-0.000110
1232	1.2248e+02	-9.0318	-35.143267	0.000365	3.649059	1.236335	-0.000146
1233	1.2258e+02	-9.0703	-35.292641	0.000375	3.750422	1.270677	-0.000150
1234	1.2268e+02	-9.1153	-35.401643	0.000274	2.736794	0.927251	-0.000110
1235	1.2278e+02	-9.1457	-35.559092	0.000395	3.953147	1.339363	-0.000158
1236	1.2288e+02	-9.1890	-35.716540	0.000395	3.953147	1.339363	-0.000158
1237	1.2298e+02	-9.2340	-35.890137	0.000436	4.358598	1.476733	-0.000174
1238	1.2308e+02	-9.2773	-35.987028	0.000243	2.432706	0.824223	-0.000097
1239	1.2318e+02	-9.3190	-36.104105	0.000294	2.939520	0.995936	-0.000118
1240	1.2328e+02	-9.3559	-36.257516	0.000385	3.851784	1.305020	-0.000154
1241	1.2338e+02	-9.3864	-36.419001	0.000405	4.054510	1.373705	-0.000162
1242	1.2348e+02	-9.4361	-36.523967	0.000264	2.635431	0.892908	-0.000105
1243	1.2358e+02	-9.4762	-36.665267	0.000355	3.547696	1.201992	-0.000142
1244	1.2368e+02	-9.5147	-36.822715	0.000395	3.953147	1.339363	-0.000158
1245	1.2378e+02	-9.5596	-36.959978	0.000345	3.446333	1.167649	-0.000138
1246	1.2388e+02	-9.5933	-37.097240	0.000345	3.446333	1.167649	-0.000138
1247	1.2398e+02	-9.6334	-37.210280	0.000284	2.838157	0.961594	-0.000114
1248	1.2408e+02	-9.6799	-37.371766	0.000405	4.054510	1.373705	-0.000162
1249	1.2418e+02	-9.7120	-37.545362	0.000436	4.358598	1.476733	-0.000174
1250	1.2428e+02	-9.7585	-37.642254	0.000243	2.432706	0.824223	-0.000097
1251	1.2438e+02	-9.7858	-37.803739	0.000405	4.054510	1.373705	-0.000162
1252	1.2447e+02	-9.8227	-37.924853	0.000304	3.040882	1.030279	-0.000122
1253	1.2457e+02	-9.8741	-38.094413	0.000426	4.257235	1.442390	-0.000170
1254	1.2467e+02	-9.9174	-38.219564	0.000314	3.142245	1.064621	-0.000126
1255	1.2477e+02	-9.9462	-38.368938	0.000375	3.750422	1.270677	-0.000150
1256	1.2487e+02	-9.9912	-38.490052	0.000304	3.040882	1.030279	-0.000122
1257	1.2497e+02	-10.0313	-38.651538	0.000405	4.054510	1.373705	-0.000162
1258	1.2507e+02	-10.0730	-38.792837	0.000355	3.547696	1.201992	-0.000142
1259	1.2517e+02	-10.1099	-38.909914	0.000294	2.939520	0.995936	-0.000118
1260	1.2527e+02	-10.1436	-39.035065	0.000314	3.142245	1.064621	-0.000126
1261	1.2537e+02	-10.1933	-39.188477	0.000385	3.851784	1.305020	-0.000154
1262	1.2547e+02	-10.2350	-39.309591	0.000304	3.040882	1.030279	-0.000122
1263	1.2557e+02	-10.2799	-39.454928	0.000365	3.649059	1.236335	-0.000146
1264	1.2567e+02	-10.3104	-39.628524	0.000436	4.358598	1.476733	-0.000174
1265	1.2577e+02	-10.3441	-39.749638	0.000304	3.040882	1.030279	-0.000122
1266	1.2587e+02	-10.3938	-39.854604	0.000264	2.635431	0.892908	-0.000105
1267	1.2597e+02	-10.4339	-40.016089	0.000405	4.054510	1.373705	-0.000162
1268	1.2607e+02	-10.4660	-40.193723	0.000446	4.459961	1.511076	-0.000179
1269	1.2617e+02	-10.5125	-40.302726	0.000274	2.736794	0.927251	-0.000110
1270	1.2627e+02	-10.5510	-40.452100	0.000375	3.750422	1.270677	-0.000150
1271	1.2636e+02	-10.5927	-40.585326	0.000334	3.344971	1.133307	-0.000134
1272	1.2646e+02	-10.6296	-40.722588	0.000345	3.446333	1.167649	-0.000138
1273	1.2656e+02	-10.6681	-40.871962	0.000375	3.750422	1.270677	-0.000150
1274	1.2666e+02	-10.7115	-40.980965	0.000274	2.736794	0.927251	-0.000110
1275	1.2676e+02	-10.7419	-41.174747	0.000487	4.865412	1.648446	-0.000195
1276	1.2686e+02	-10.7853	-41.279713	0.000264	2.635431	0.892908	-0.000105
1277	1.2696e+02	-10.8270	-41.416976	0.000345	3.446333	1.167649	-0.000138
1278	1.2706e+02	-10.8719	-41.566350	0.000375	3.750422	1.270677	-0.000150
1279	1.2716e+02	-10.9136	-41.687464	0.000304	3.040882	1.030279	-0.000122
1280	1.2726e+02	-10.9505	-41.828763	0.000355	3.547696	1.201992	-0.000142
1281	1.2736e+02	-10.9986	-41.961989	0.000334	3.344971	1.133307	-0.000134
1282	1.2746e+02	-11.0339	-42.103289	0.000355	3.547696	1.201992	-0.000142
1283	1.2756e+02	-11.0708	-42.260737	0.000395	3.953147	1.339363	-0.000158
1284	1.2766e+02	-11.1029	-42.369740	0.000274	2.736794	0.927251	-0.000110
1285	1.2776e+02	-11.1526	-42.511039	0.000355	3.547696	1.201992	-0.000142
1286	1.2786e+02	-11.1815	-42.656376	0.000365	3.649059	1.236335	-0.000146
1287	1.2796e+02	-11.2296	-42.801713	0.000365	3.649059	1.236335	-0.000146
1288	1.2806e+02	-11.2697	-42.967236	0.000416	4.155873	1.408048	-0.000166
1289	1.2816e+02	-11.3147	-43.084313	0.000294	2.939520	0.995936	-0.000118
1290	1.2826e+02	-11.3419	-43.229649	0.000365	3.649059	1.236335	-0.000146
1291	1.2835e+02	-11.3901	-43.330578	0.000253	2.534069	0.858566	-0.000101
1292	1.2845e+02	-11.4302	-43.479952	0.000375	3.750422	1.270677	-0.000150
1293	1.2855e+02	-11.4638	-43.613177	0.000334	3.344971	1.133307	-0.000134
1294	1.2865e+02	-11.5168	-43.762551	0.000375	3.750422	1.270677	-0.000150
1295	1.2875e+02	-11.5505	-43.887703	0.000314	3.142245	1.064621	-0.000126
1296	1.2885e+02	-11.5938	-44.033039	0.000365	3.649059	1.236335	-0.000146
1297	1.2895e+02	-11.6227	-44.154154	0.000304	3.040882	1.030279	-0.000122
1298	1.2905e+02	-11.6708	-44.303528	0.000375	3.750422	1.270677	-0.000150
1299	1.2915e+02	-11.7093	-44.473087	0.000426	4.257235	1.442390	-0.000170
1300	1.2925e+02	-11.7542	-44.574016	0.000253	2.534069	0.858566	-0.000101
1301	1.2935e+02	-11.7831	-44.743575	0.000426	4.257235	1.442390	-0.000170
1302	1.2945e+02	-11.8328	-44.848541	0.000264	2.635431	0.892908	-0.000105
1303	1.2955e+02	-11.8649	-44.981766	0.000334	3.344971	1.133307	-0.000134
1304	1.2965e+02	-11.9050	-45.110955	0.000324	3.243608	1.098964	-0.000130
1305	1.2975e+02	-11.9531	-45.264366	0.000385	3.851784	1.305020	-0.000154
1306	1.2985e+02	-11.9772	-45.405666	0.000355	3.547696	1.201992	-0.000142
1307	1.2995e+02	-12.0269	-45.542928	0.000345	3.446333	1.167649	-0.000138
1308	1.3005e+02	-12.0606	-45.724599	0.000456	4.561324	1.545418	-0.000183
1309	1.3015e+02	-12.1007	-45.809379	0.000213	2.128618	0.721195	-0.000085
1310	1.3025e+02	-12.1456	-45.995087	0.000466	4.662686	1.579761	-0.000187
1311	1.3034e+02	-12.1890	-46.071793	0.000193	1.925892	0.652510	-0.000077
1312	1.3044e+02	-12.2275	-46.245390	0.000436	4.358598	1.476733	-0.000174
1313	1.3054e+02	-12.2595	-46.402838	0.000395	3.953147	1.339363	-0.000158
1314	1.3064e+02	-12.3093	-46.536064	0.000334	3.344971	1.133307	-0.000134
1315	1.3074e+02	-12.3382	-46.669289	0.000334	3.344971	1.133307	-0.000134
1316	1.3084e+02	-12.3799	-46.786366	0.000294	2.939520	0.995936	-0.000118
1317	1.3094e+02	-12.4200	-46.964000	0.000446	4.459961	1.511076	-0.000179
1318	1.3104e+02	-12.4505	-47.109337	0.000365	3.649059	1.236335	-0.000146
1319	1.3114e+02	-12.5018	-47.161820	0.000132	1.317716	0.446454	-0.000053
1320	1.3124e+02	-12.5467	-47.339454	0.000446	4.459961	1.511076	-0.000179
1321	1.3134e+02	-12.5772	-47.472679	0.000334	3.344971	1.133307	-0.000134
1322	1.3144e+02	-12.6173	-47.622053	0.000375	3.750422	1.270677	-0.000150
1323	1.3154e+02	-12.6622	-47.747204	0.000314	3.142245	1.064621	-0.000126
1324	1.3164e+02	-12.7023	-47.848133	0.000253	2.534069	0.858566	-0.000101
1325	1.3174e+02	-12.7392	-47.997507	0.000375	3.750422	1.270677	-0.000150
1326	1.3184e+02	-12.7809	-48.130732	0.000334	3.344971	1.133307	-0.000134
1327	1.3194e+02	-12.8194	-48.284143	0.000385	3.851784	1.305020	-0.000154
1328	1.3204e+02	-12.8611	-48.405257	0.000304	3.040882	1.030279	-0.000122
1329	1.3214e+02	-12.8996	-48.518297	0.000284	2.838157	0.961594	-0.000114
1330	1.3224e+02	-12.9446	-48.635374	0.000294	2.939520	0.995936	-0.000118
1331	1.3234e+02	-12.9766	-48.808971	0.000436	4.358598	1.476733	-0.000174
1332	1.3243e+02	-13.0296	-48.893751	0.000213	2.128618	0.721195	-0.000085
1333	1.3253e+02	-13.0536	-49.083496	0.000476	4.764049	1.614104	-0.000191
1334	1.3263e+02	-13.1066	-49.196536	0.000284	2.838157	0.961594	-0.000114
1335	1.3273e+02	-13.1435	-49.305539	0.000274	2.736794	0.927251	-0.000110
1336	1.3283e+02	-13.1788	-49.414541	0.000274	2.736794	0.927251	-0.000110
1337	1.3293e+02	-13.2189	-49.580064	0.000416	4.155873	1.408048	-0.000166
1338	1.3303e+02	-13.2574	-49.685030	0.000264	2.635431	0.892908	-0.000105
1339	1.3313e+02	-13.2975	-49.838441	0.000385	3.851784	1.305020	-0.000154
1340	1.3323e+02	-13.3344	-49.999926	0.000405	4.054510	1.373705	-0.000162
1341	1.3333e+02	-13.3809	-50.112966	0.000284	2.838157	0.961594	-0.000114
1342	1.3343e+02	-13.4226	-50.221969	0.000274	2.736794	0.927251	-0.000110
1343	1.3353e+02	-13.4643	-50.351157	0.000324	3.243608	1.098964	-0.000130
1344	1.3363e+02	-13.4980	-50.484382	0.000334	3.344971	1.133307	-0.000134
1345	1.3373e+02	-13.5333	-50.609534	0.000314	3.142245	1.064621	-0.000126
1346	1.3383e+02	-13.5766	-50.771019	0.000405	4.054510	1.373705	-0.000162
1347	1.3393e+02	-13.6231	-50.851762	0.000203	2.027255	0.686853	-0.000081
1348	1.3403e+02	-13.6681	-51.017284	0.000416	4.155873	1.408048	-0.000166
1349	1.3413e+02	-13.7034	-51.110138	0.000233	2.331343	0.789880	-0.000093
1350	1.3423e+02	-13.7370	-51.271624	0.000405	4.054510	1.373705	-0.000162
1351	1.3432e+02	-13.7707	-51.368515	0.000243	2.432706	0.824223	-0.000097
1352	1.3442e+02	-13.8173	-51.489629	0.000304	3.040882	1.030279	-0.000122
1353	1.3452e+02	-13.8509	-51.663226	0.000436	4.358598	1.476733	-0.000174
1354	1.3462e+02	-13.8959	-51.780303	0.000294	2.939520	0.995936	-0.000118
1355	1.3472e+02	-13.9392	-51.865083	0.000213	2.128618	0.721195	-0.000085
1356	1.3482e+02	-13.9761	-52.034643	0.000426	4.257235	1.442390	-0.000170
1357	1.3492e+02	-14.0130	-52.135571	0.000253	2.534069	0.858566	-0.000101
1358	1.3502e+02	-14.0563	-52.224388	0.000223	2.229980	0.755538	-0.000089
1359	1.3512e+02	-14.1044	-52.402022	0.000446	4.459961	1.511076	-0.000179
1360	1.3522e+02	-14.1317	-52.531210	0.000324	3.243608	1.098964	-0.000130
1361	1.3532e+02	-14.1718	-52.668473	0.000345	3.446333	1.167649	-0.000138
1362	1.3542e+02	-14.2151	-52.773438	0.000264	2.635431	0.892908	-0.000105
1363	1.3552e+02	-14.2632	-52.886478	0.000284	2.838157	0.961594	-0.000114
1364	1.3562e+02	-14.3017	-53.047964	0.000405	4.054510	1.373705	-0.000162
1365	1.3572e+02	-14.3258	-53.132743	0.000213	2.128618	0.721195	-0.000085
1366	1.3582e+02	-14.3675	-53.314415	0.000456	4.561324	1.545418	-0.000183
1367	1.3592e+02	-14.4172	-53.423417	0.000274	2.736794	0.927251	-0.000110
1368	1.3602e+02	-14.4461	-53.540494	0.000294	2.939520	0.995936	-0.000118
1369	1.3612e+02	-14.4846	-53.677757	0.000345	3.446333	1.167649	-0.000138
1370	1.3622e+02	-14.5408	-53.774648	0.000243	2.432706	0.824223	-0.000097
1371	1.3631e+02	-14.5664	-53.895762	0.000304	3.040882	1.030279	-0.000122
1372	1.3641e+02	-14.6178	-54.016876	0.000304	3.040882	1.030279	-0.000122
1373	1.3651e+02	-14.6499	-54.178362	0.000405	4.054510	1.373705	-0.000162
1374	1.3661e+02	-14.6916	-54.307550	0.000324	3.243608	1.098964	-0.000130
1375	1.3671e+02	-14.7236	-54.420590	0.000284	2.838157	0.961594	-0.000114
1376	1.3681e+02	-14.7798	-54.545741	0.000314	3.142245	1.064621	-0.000126
1377	1.3691e+02	-14.8199	-54.642632	0.000243	2.432706	0.824223	-0.000097
1378	1.3701e+02	-14.8536	-54.787969	0.000365	3.649059	1.236335	-0.000146
1379	1.3711e+02	-14.8873	-54.925232	0.000345	3.446333	1.167649	-0.000138
1380	1.3721e+02	-14.9226	-54.989826	0.000162	1.621804	0.549482	-0.000065
1381	1.3731e+02	-14.9707	-55.123051	0.000334	3.344971	1.133307	-0.000134
1382	1.3741e+02	-15.0092	-55.264351	0.000355	3.547696	1.201992	-0.000142
1383	1.3751e+02	-15.0477	-55.389502	0.000314	3.142245	1.064621	-0.000126
1384	1.3761e+02	-15.0878	-55.518691	0.000324	3.243608	1.098964	-0.000130
1385	1.3771e+02	-15.1279	-55.659990	0.000355	3.547696	1.201992	-0.000142
1386	1.3781e+02	-15.1696	-55.781104	0.000304	3.040882	1.030279	-0.000122
1387	1.3791e+02	-15.2049	-55.886070	0.000264	2.635431	0.892908	-0.000105
1388	1.3801e+02	-15.2482	-56.011221	0.000314	3.142245	1.064621	-0.000126
1389	1.3811e+02	-15.2996	-56.100038	0.000223	2.229980	0.755538	-0.000089
1390	1.3821e+02	-15.3220	-56.221152	0.000304	3.040882	1.030279	-0.000122
1391	1.3831e+02	-15.3669	-56.378601	0.000395	3.953147	1.339363	-0.000158
1392	1.3840e+02	-15.4215	-56.515863	0.000345	3.446333	1.167649	-0.000138
1393	1.3850e+02	-15.4536	-56.592569	0.000193	1.925892	0.652510	-0.000077
1394	1.3860e+02	-15.4921	-56.725794	0.000334	3.344971	1.133307	-0.000134
1395	1.3870e+02	-15.5338	-56.863057	0.000345	3.446333	1.167649	-0.000138
1396	1.3880e+02	-15.5771	-56.968022	0.000264	2.635431	0.892908	-0.000105
1397	1.3890e+02	-15.6108	-57.072988	0.000264	2.635431	0.892908	-0.000105
1398	1.3900e+02	-15.6509	-57.173916	0.000253	2.534069	0.858566	-0.000101
1399	1.3910e+02	-15.6862	-57.363662	0.000476	4.764049	1.614104	-0.000191
1400	1.3920e+02	-15.7279	-57.436330	0.000182	1.824529	0.618167	-0.000073
1401	1.3930e+02	-15.7696	-57.569556	0.000334	3.344971	1.133307	-0.000134
1402	1.3940e+02	-15.8065	-57.686633	0.000294	2.939520	0.995936	-0.000118
1403	1.3950e+02	-15.8498	-57.803709	0.000294	2.939520	0.995936	-0.000118
1404	1.3960e+02	-15.8867	-57.908675	0.000264	2.635431	0.892908	-0.000105
1405	1.3970e+02	-15.9284	-58.078235	0.000426	4.257235	1.442390	-0.000170
1406	1.3980e+02	-15.9669	-58.207423	0.000324	3.243608	1.098964	-0.000130
1407	1.3990e+02	-16.0086	-58.308351	0.000253	2.534069	0.858566	-0.000101
1408	1.4000e+02	-16.0536	-58.445614	0.000345	3.446333	1.167649	-0.000138
1409	1.4010e+02	-16.0889	-58.590951	0.000365	3.649059	1.236335	-0.000146
1410	1.4020e+02	-16.1338	-58.679768	0.000223	2.229980	0.755538	-0.000089
1411	1.4029e+02	-16.1691	-58.796845	0.000294	2.939520	0.995936	-0.000118
1412	1.4039e+02	-16.2172	-58.942182	0.000365	3.649059	1.236335	-0.000146
1413	1.4049e+02	-16.2509	-59.067333	0.000314	3.142245	1.064621	-0.000126
1414	1.4059e+02	-16.2942	-59.208633	0.000355	3.547696	1.201992	-0.000142
1415	1.4069e+02	-16.3295	-59.349932	0.000355	3.547696	1.201992	-0.000142
1416	1.4079e+02	-16.3648	-59.454898	0.000264	2.635431	0.892908	-0.000105
1417	1.4089e+02	-16.4033	-59.551789	0.000243	2.432706	0.824223	-0.000097
1418	1.4099e+02	-16.4514	-59.709238	0.000395	3.953147	1.339363	-0.000158
1419	1.4109e+02	-16.4835	-59.834389	0.000314	3.142245	1.064621	-0.000126
1420	1.4119e+02	-16.5188	-59.959540	0.000314	3.142245	1.064621	-0.000126
1421	1.4129e+02	-16.5669	-60.125063	0.000416	4.155873	1.408048	-0.000166
1422	1.4139e+02	-16.6166	-60.246177	0.000304	3.040882	1.030279	-0.000122
1423	1.4149e+02	-16.6439	-60.334994	0.000223	2.229980	0.755538	-0.000089
1424	1.4159e+02	-16.6824	-60.460145	0.000314	3.142245	1.064621	-0.000126
1425	1.4169e+02	-16.7289	-60.617593	0.000395	3.953147	1.339363	-0.000158
1426	1.4179e+02	-16.7706	-60.750819	0.000334	3.344971	1.133307	-0.000134
1427	1.4189e+02	-16.8140	-60.847710	0.000243	2.432706	0.824223	-0.000097
1428	1.4199e+02	-16.8396	-60.984972	0.000345	3.446333	1.167649	-0.000138
1429	1.4209e+02	-16.8749	-61.130309	0.000365	3.649059	1.236335	-0.000146
1430	1.4219e+02	-16.9134	-61.259498	0.000324	3.243608	1.098964	-0.000130
1431	1.4228e+02	-16.9696	-61.392723	0.000334	3.344971	1.133307	-0.000134
1432	1.4238e+02	-17.0017	-61.513837	0.000304	3.040882	1.030279	-0.000122
1433	1.4248e+02	-17.0418	-61.610728	0.000243	2.432706	0.824223	-0.000097
1434	1.4258e+02	-17.0899	-61.776251	0.000416	4.155873	1.408048	-0.000166
1435	1.4268e+02	-17.1268	-61.861031	0.000213	2.128618	0.721195	-0.000085
1436	1.4278e+02	-17.1557	-62.058851	0.000497	4.966775	1.682789	-0.000199
1437	1.4288e+02	-17.1990	-62.151705	0.000233	2.331343	0.789880	-0.000093
1438	1.4298e+02	-17.2423	-62.276856	0.000314	3.142245	1.064621	-0.000126
1439	1.4308e+02	-17.2808	-62.434304	0.000395	3.953147	1.339363	-0.000158
1440	1.4318e+02	-17.3289	-62.563493	0.000324	3.243608	1.098964	-0.000130
1441	1.4328e+02	-17.3690	-62.716904	0.000385	3.851784	1.305020	-0.000154
1442	1.4338e+02	-17.3995	-62.858203	0.000355	3.547696	1.201992	-0.000142
1443	1.4348e+02	-17.4444	-62.971243	0.000284	2.838157	0.961594	-0.000114
1444	1.4358e+02	-17.4910	-63.072172	0.000253	2.534069	0.858566	-0.000101
1445	1.4368e+02	-17.5230	-63.209434	0.000345	3.446333	1.167649	-0.000138
1446	1.4378e+02	-17.5712	-63.346697	0.000345	3.446333	1.167649	-0.000138
1447	1.4388e+02	-17.6065	-63.516257	0.000426	4.257235	1.442390	-0.000170
1448	1.4398e+02	-17.6434	-63.617185	0.000253	2.534069	0.858566	-0.000101
1449	1.4408e+02	-17.6819	-63.766559	0.000375	3.750422	1.270677	-0.000150
1450	1.4418e+02	-17.7268	-63.907859	0.000355	3.547696	1.201992	-0.000142
1451	1.4428e+02	-17.7685	-64.077418	0.000426	4.257235	1.442390	-0.000170
1452	1.4437e+02	-17.7925	-64.186421	0.000274	2.736794	0.927251	-0.000110
1453	1.4447e+02	-17.8359	-64.315609	0.000324	3.243608	1.098964	-0.000130
1454	1.4457e+02	-17.8856	-64.485169	0.000426	4.257235	1.442390	-0.000170
1455	1.4467e+02	-17.9241	-64.610320	0.000314	3.142245	1.064621	-0.000126
1456	1.4477e+02	-17.9578	-64.707212	0.000243	2.432706	0.824223	-0.000097
1457	1.4487e+02	-18.0043	-64.880808	0.000436	4.358598	1.476733	-0.000174
1458	1.4497e+02	-18.0444	-64.989811	0.000274	2.736794	0.927251	-0.000110
1459	1.4507e+02	-18.0733	-65.114962	0.000314	3.142245	1.064621	-0.000126
1460	1.4517e+02	-18.1070	-65.296633	0.000456	4.561324	1.545418	-0.000183
1461	1.4527e+02	-18.1647	-65.441970	0.000365	3.649059	1.236335	-0.000146
1462	1.4537e+02	-18.2032	-65.567122	0.000314	3.142245	1.064621	-0.000126
1463	1.4547e+02	-18.2433	-65.720533	0.000385	3.851784	1.305020	-0.000154
1464	1.4557e+02	-18.2883	-65.833572	0.000284	2.838157	0.961594	-0.000114
1465	1.4567e+02	-18.3187	-65.966798	0.000334	3.344971	1.133307	-0.000134
1466	1.4577e+02	-18.3540	-66.132321	0.000416	4.155873	1.408048	-0.000166
1467	1.4587e+02	-18.3989	-66.322066	0.000476	4.764049	1.614104	-0.000191
1468	1.4597e+02	-18.4374	-66.467403	0.000365	3.649059	1.236335	-0.000146
1469	1.4607e+02	-18.4776	-66.604665	0.000345	3.446333	1.167649	-0.000138
1470	1.4617e+02	-18.5273	-66.762114	0.000395	3.953147	1.339363	-0.000158
1471	1.4626e+02	-18.5562	-66.891302	0.000324	3.243608	1.098964	-0.000130
1472	1.4636e+02	-18.6059	-67.032602	0.000355	3.547696	1.201992	-0.000142
1473	1.4646e+02	-18.6364	-67.190050	0.000395	3.953147	1.339363	-0.000158
1474	1.4656e+02	-18.6781	-67.343461	0.000385	3.851784	1.305020	-0.000154
1475	1.4666e+02	-18.7198	-67.492835	0.000375	3.750422	1.270677	-0.000150
1476	1.4676e+02	-18.7567	-67.650284	0.000395	3.953147	1.339363	-0.000158
1477	1.4686e+02	-18.7904	-67.747175	0.000243	2.432706	0.824223	-0.000097
1478	1.4696e+02	-18.8449	-67.928846	0.000456	4.561324	1.545418	-0.000183
1479	1.4706e+02	-18.8866	-68.122628	0.000487	4.865412	1.648446	-0.000195
1480	1.4716e+02	-18.9251	-68.239705	0.000294	2.939520	0.995936	-0.000118
1481	1.4726e+02	-18.9524	-68.417339	0.000446	4.459961	1.511076	-0.000179
1482	1.4736e+02	-18.9925	-68.607085	0.000476	4.764049	1.614104	-0.000191
1483	1.4746e+02	-19.0406	-68.744347	0.000345	3.446333	1.167649	-0.000138
1484	1.4756e+02	-19.0759	-68.881610	0.000345	3.446333	1.167649	-0.000138
1485	1.4766e+02	-19.1192	-69.059244	0.000446	4.459961	1.511076	-0.000179
1486	1.4776e+02	-19.1561	-69.236878	0.000446	4.459961	1.511076	-0.000179
1487	1.4786e+02	-19.1946	-69.366066	0.000324	3.243608	1.098964	-0.000130
1488	1.4796e+02	-19.2396	-69.511403	0.000365	3.649059	1.236335	-0.000146
1489	1.4806e+02	-19.2684	-69.697111	0.000466	4.662686	1.579761	-0.000187
1490	1.4816e+02	-19.3150	-69.838411	0.000355	3.547696	1.201992	-0.000142
1491	1.4825e+02	-19.3535	-70.007971	0.000426	4.257235	1.442390	-0.000170
1492	1.4835e+02	-19.3984	-70.177531	0.000426	4.257235	1.442390	-0.000170
1493	1.4845e+02	-19.4337	-70.339016	0.000405	4.054510	1.373705	-0.000162
1494	1.4855e+02	-19.4770	-70.484353	0.000365	3.649059	1.236335	-0.000146
1495	1.4865e+02	-19.5203	-70.690247	0.000517	5.169500	1.751474	-0.000207
1496	1.4875e+02	-19.5508	-70.847695	0.000395	3.953147	1.339363	-0.000158
1497	1.4885e+02	-19.5893	-70.972846	0.000314	3.142245	1.064621	-0.000126
1498	1.4895e+02	-19.6262	-71.142406	0.000426	4.257235	1.442390	-0.000170
1499	1.4905e+02	-19.6759	-71.340226	0.000497	4.966775	1.682789	-0.000199
1500	1.4915e+02	-19.7160	-71.473451	0.000334	3.344971	1.133307	-0.000134
1501	1.4925e+02	-19.7561	-71.663196	0.000476	4.764049	1.614104	-0.000191
1502	1.4935e+02	-19.7978	-71.832756	0.000426	4.257235	1.442390	-0.000170
1503	1.4945e+02	-19.8299	-72.002316	0.000426	4.257235	1.442390	-0.000170
1504	1.4955e+02	-19.8748	-72.175913	0.000436	4.358598	1.476733	-0.000174
1505	1.4965e+02	-19.9069	-72.349510	0.000436	4.358598	1.476733	-0.000174
1506	1.4975e+02	-19.9502	-72.506958	0.000395	3.953147	1.339363	-0.000158
1507	1.4985e+02	-19.9903	-72.704778	0.000497	4.966775	1.682789	-0.000199
1508	1.4995e+02	-19.9502	-72.696703	0.000020	0.202725	0.068685	0.000008
1509	1.5005e+02	-19.9085	-72.700740	-0.000010	-0.101363	-0.034343	-0.000004
1510	1.5015e+02	-19.8700	-72.632109	0.000172	1.723167	0.583825	0.000069
1511	1.5025e+02	-19.8331	-72.595775	0.000091	0.912265	0.309084	0.000037
1512	1.5034e+02	-19.7962	-72.611923	-0.000041	-0.405451	-0.137371	-0.000016
1513	1.5044e+02	-19.7658	-72.527144	0.000213	2.128618	0.721195	0.000085
1514	1.5054e+02	-19.7128	-72.523106	0.000010	0.101363	0.034343	0.000004
1515	1.5064e+02	-19.6791	-72.466586	0.000142	1.419078	0.480797	0.000057
1516	1.5074e+02	-19.6310	-72.418141	0.000122	1.216353	0.412112	0.000049
1517	1.5084e+02	-19.5925	-72.373732	0.000111	1.114990	0.377769	0.000045
1518	1.5094e+02	-19.5524	-72.325287	0.000122	1.216353	0.412112	0.000049
1519	1.5104e+02	-19.5219	-72.284915	0.000101	1.013627	0.343426	0.000041
1520	1.5114e+02	-19.4690	-72.216284	0.000172	1.723167	0.583825	0.000069
1521	1.5124e+02	-19.4353	-72.159764	0.000142	1.419078	0.480797	0.000057
1522	1.5134e+02	-19.3952	-72.127467	0.000081	0.810902	0.274741	0.000032
1523	1.5144e+02	-19.3519	-72.054799	0.000182	1.824529	0.618167	0.000073
1524	1.5154e+02	-19.3166	-71.965982	0.000223	2.229980	0.755538	0.000089
1525	1.5164e+02	-19.2700	-71.929647	0.000091	0.912265	0.309084	0.000037
1526	1.5174e+02	-19.2396	-71.869090	0.000152	1.520441	0.515139	0.000061
1527	1.5184e+02	-19.1930	-71.808533	0.000152	1.520441	0.515139	0.000061
1528	1.5194e+02	-19.1561	-71.735865	0.000182	1.824529	0.618167	0.000073
1529	1.5204e+02	-19.1192	-71.675308	0.000152	1.520441	0.515139	0.000061
1530	1.5214e+02	-19.0743	-71.610714	0.000162	1.621804	0.549482	0.000065
1531	1.5224e+02	-19.0406	-71.525934	0.000213	2.128618	0.721195	0.000085
1532	1.5233e+02	-19.0102	-71.429043	0.000243	2.432706	0.824223	0.000097
1533	1.5243e+02	-18.9508	-71.388671	0.000101	1.013627	0.343426	0.000041
1534	1.5253e+02	-18.9107	-71.332151	0.000142	1.419078	0.480797	0.000057
1535	1.5263e+02	-18.8818	-71.255446	0.000193	1.925892	0.652510	0.000077
1536	1.5273e+02	-18.8481	-71.150480	0.000264	2.635431	0.892908	0.000105
1537	1.5283e+02	-18.8064	-71.073775	0.000193	1.925892	0.652510	0.000077
1538	1.5293e+02	-18.7519	-70.993032	0.000203	2.027255	0.686853	0.000081
1539	1.5303e+02	-18.7246	-70.928438	0.000162	1.621804	0.549482	0.000065
1540	1.5313e+02	-18.6701	-70.819435	0.000274	2.736794	0.927251	0.000110
1541	1.5323e+02	-18.6380	-70.779064	0.000101	1.013627	0.343426	0.000041
1542	1.5333e+02	-18.6011	-70.661987	0.000294	2.939520	0.995936	0.000118
1543	1.5343e+02	-18.5626	-70.641801	0.000051	0.506814	0.171713	0.000020
1544	1.5353e+02	-18.5257	-70.500501	0.000355	3.547696	1.201992	0.000142
1545	1.5363e+02	-18.4840	-70.488390	0.000030	0.304088	0.103028	0.000012
1546	1.5373e+02	-18.4374	-70.371313	0.000294	2.939520	0.995936	0.000118
1547	1.5383e+02	-18.4070	-70.286533	0.000213	2.128618	0.721195	0.000085
1548	1.5393e+02	-18.3604	-70.125048	0.000405	4.054510	1.373705	0.000162
1549	1.5403e+02	-18.3219	-70.096788	0.000071	0.709539	0.240398	0.000028
1550	1.5413e+02	-18.2818	-69.999897	0.000243	2.432706	0.824223	0.000097
1551	1.5422e+02	-18.2369	-69.939340	0.000152	1.520441	0.515139	0.000061
1552	1.5432e+02	-18.2032	-69.822263	0.000294	2.939520	0.995936	0.000118
1553	1.5442e+02	-18.1615	-69.733446	0.000223	2.229980	0.755538	0.000089
1554	1.5452e+02	-18.1198	-69.676926	0.000142	1.419078	0.480797	0.000057
1555	1.5462e+02	-18.0781	-69.555812	0.000304	3.040882	1.030279	0.000122
1556	1.5472e+02	-18.0492	-69.446809	0.000274	2.736794	0.927251	0.000110
1557	1.5482e+02	-17.9979	-69.386252	0.000152	1.520441	0.515139	0.000061
1558	1.5492e+02	-17.9594	-69.285324	0.000253	2.534069	0.858566	0.000101
1559	1.5502e+02	-17.9177	-69.168247	0.000294	2.939520	0.995936	0.000118
1560	1.5512e+02	-17.8872	-69.075392	0.000233	2.331343	0.789880	0.000093
1561	1.5522e+02	-17.8487	-68.958316	0.000294	2.939520	0.995936	0.000118
1562	1.5532e+02	-17.8086	-68.917944	0.000101	1.013627	0.343426	0.000041
1563	1.5542e+02	-17.7685	-68.756459	0.000405	4.054510	1.373705	0.000162
1564	1.5552e+02	-17.7220	-68.740310	0.000041	0.405451	0.137371	0.000016
1565	1.5562e+02	-17.6947	-68.619196	0.000304	3.040882	1.030279	0.000122
1566	1.5572e+02	-17.6401	-68.490008	0.000324	3.243608	1.098964	0.000130
1567	1.5582e+02	-17.5968	-68.368894	0.000304	3.040882	1.030279	0.000122
1568	1.5592e+02	-17.5583	-68.292188	0.000193	1.925892	0.652510	0.000077
1569	1.5602e+02	-17.5150	-68.219520	0.000182	1.824529	0.618167	0.000073
1570	1.5612e+02	-17.4845	-68.118591	0.000253	2.534069	0.858566	0.000101
1571	1.5622e+02	-17.4396	-68.045923	0.000182	1.824529	0.618167	0.000073
1572	1.5631e+02	-17.4123	-67.928846	0.000294	2.939520	0.995936	0.000118
1573	1.5641e+02	-17.3642	-67.835992	0.000233	2.331343	0.789880	0.000093
1574	1.5651e+02	-17.3193	-67.726989	0.000274	2.736794	0.927251	0.000110
1575	1.5661e+02	-17.2856	-67.646246	0.000203	2.027255	0.686853	0.000081
1576	1.5671e+02	-17.2423	-67.545318	0.000253	2.534069	0.858566	0.000101
1577	1.5681e+02	-17.2070	-67.408055	0.000345	3.446333	1.167649	0.000138
1578	1.5691e+02	-17.1701	-67.307127	0.000253	2.534069	0.858566	0.000101
1579	1.5701e+02	-17.1140	-67.262719	0.000111	1.114990	0.377769	0.000045
1580	1.5711e+02	-17.0835	-67.121419	0.000355	3.547696	1.201992	0.000142
1581	1.5721e+02	-17.0402	-67.044713	0.000193	1.925892	0.652510	0.000077
1582	1.5731e+02	-17.0049	-66.947822	0.000243	2.432706	0.824223	0.000097
1583	1.5741e+02	-16.9583	-66.842856	0.000264	2.635431	0.892908	0.000105
1584	1.5751e+02	-16.9343	-66.745965	0.000243	2.432706	0.824223	0.000097
1585	1.5761e+02	-16.8878	-66.657148	0.000223	2.229980	0.755538	0.000089
1586	1.5771e+02	-16.8541	-66.576405	0.000203	2.027255	0.686853	0.000081
1587	1.5781e+02	-16.8059	-66.467403	0.000274	2.736794	0.927251	0.000110
1588	1.5791e+02	-16.7610	-66.362437	0.000264	2.635431	0.892908	0.000105
1589	1.5801e+02	-16.7257	-66.265546	0.000243	2.432706	0.824223	0.000097
1590	1.5811e+02	-16.6888	-66.196915	0.000172	1.723167	0.583825	0.000069
1591	1.5821e+02	-16.6455	-66.067726	0.000324	3.243608	1.098964	0.000130
1592	1.5830e+02	-16.6054	-65.995058	0.000182	1.824529	0.618167	0.000073
1593	1.5840e+02	-16.5669	-65.837610	0.000395	3.953147	1.339363	0.000158
1594	1.5850e+02	-16.5300	-65.797238	0.000101	1.013627	0.343426	0.000041
1595	1.5860e+02	-16.4867	-65.676124	0.000304	3.040882	1.030279	0.000122
1596	1.5870e+02	-16.4338	-65.587307	0.000223	2.229980	0.755538	0.000089
1597	1.5880e+02	-16.4001	-65.446007	0.000355	3.547696	1.201992	0.000142
1598	1.5890e+02	-16.3712	-65.389488	0.000142	1.419078	0.480797	0.000057
1599	1.5900e+02	-16.3295	-65.272411	0.000294	2.939520	0.995936	0.000118
1600	1.5910e+02	-16.2798	-65.195705	0.000193	1.925892	0.652510	0.000077
1601	1.5920e+02	-16.2557	-65.066517	0.000324	3.243608	1.098964	0.000130
1602	1.5930e+02	-16.2076	-64.949440	0.000294	2.939520	0.995936	0.000118
1603	1.5940e+02	-16.1659	-64.913106	0.000091	0.912265	0.309084	0.000037
1604	1.5950e+02	-16.1257	-64.759694	0.000385	3.851784	1.305020	0.000154
1605	1.5960e+02	-16.0953	-64.678952	0.000203	2.027255	0.686853	0.000081
1606	1.5970e+02	-16.0471	-64.549763	0.000324	3.243608	1.098964	0.000130
1607	1.5980e+02	-16.0070	-64.473058	0.000193	1.925892	0.652510	0.000077
1608	1.5990e+02	-15.9669	-64.372129	0.000253	2.534069	0.858566	0.000101
1609	1.6000e+02	-15.9332	-64.287349	0.000213	2.128618	0.721195	0.000085
1610	1.6010e+02	-15.8963	-64.174310	0.000284	2.838157	0.961594	0.000114
1611	1.6019e+02	-15.8546	-64.085493	0.000223	2.229980	0.755538	0.000089
1612	1.6029e+02	-15.8065	-64.012824	0.000182	1.824529	0.618167	0.000073
1613	1.6039e+02	-15.7680	-63.851339	0.000405	4.054510	1.373705	0.000162
1614	1.6049e+02	-15.7311	-63.794819	0.000142	1.419078	0.480797	0.000057
1615	1.6059e+02	-15.6942	-63.697928	0.000243	2.432706	0.824223	0.000097
1616	1.6069e+02	-15.6413	-63.552591	0.000365	3.649059	1.236335	0.000146
1617	1.6079e+02	-15.6156	-63.467811	0.000213	2.128618	0.721195	0.000085
1618	1.6089e+02	-15.5675	-63.378994	0.000223	2.229980	0.755538	0.000089
1619	1.6099e+02	-15.5418	-63.253843	0.000314	3.142245	1.064621	0.000126
1620	1.6109e+02	-15.4841	-63.108506	0.000365	3.649059	1.236335	0.000146
1621	1.6119e+02	-15.4488	-63.056023	0.000132	1.317716	0.446454	0.000053
1622	1.6129e+02	-15.4151	-62.979318	0.000193	1.925892	0.652510	0.000077
1623	1.6139e+02	-15.3750	-62.878389	0.000253	2.534069	0.858566	0.000101
1624	1.6149e+02	-15.3349	-62.749201	0.000324	3.243608	1.098964	0.000130
1625	1.6159e+02	-15.3012	-62.640198	0.000274	2.736794	0.927251	0.000110
1626	1.6169e+02	-15.2498	-62.547344	0.000233	2.331343	0.789880	0.000093
1627	1.6179e+02	-15.2129	-62.454490	0.000233	2.331343	0.789880	0.000093
1628	1.6189e+02	-15.1744	-62.313190	0.000355	3.547696	1.201992	0.000142
1629	1.6199e+02	-15.1295	-62.256670	0.000142	1.419078	0.480797	0.000057
1630	1.6209e+02	-15.0910	-62.127482	0.000324	3.243608	1.098964	0.000130
1631	1.6219e+02	-15.0477	-62.034628	0.000233	2.331343	0.789880	0.000093
1632	1.6228e+02	-15.0108	-61.929662	0.000264	2.635431	0.892908	0.000105
1633	1.6238e+02	-14.9707	-61.800474	0.000324	3.243608	1.098964	0.000130
1634	1.6248e+02	-14.9354	-61.675323	0.000314	3.142245	1.064621	0.000126
1635	1.6258e+02	-14.8873	-61.586506	0.000223	2.229980	0.755538	0.000089
1636	1.6268e+02	-14.8536	-61.497689	0.000223	2.229980	0.755538	0.000089
1637	1.6278e+02	-14.8135	-61.425020	0.000182	1.824529	0.618167	0.000073
1638	1.6288e+02	-14.7718	-61.316018	0.000274	2.736794	0.927251	0.000110
1639	1.6298e+02	-14.7317	-61.186829	0.000324	3.243608	1.098964	0.000130
1640	1.6308e+02	-14.6900	-61.102049	0.000213	2.128618	0.721195	0.000085
1641	1.6318e+02	-14.6579	-61.009195	0.000233	2.331343	0.789880	0.000093
1642	1.6328e+02	-14.6001	-60.932490	0.000193	1.925892	0.652510	0.000077
1643	1.6338e+02	-14.5696	-60.762930	0.000426	4.257235	1.442390	0.000170
1644	1.6348e+02	-14.5327	-60.678150	0.000213	2.128618	0.721195	0.000085
1645	1.6358e+02	-14.4910	-60.593370	0.000213	2.128618	0.721195	0.000085
1646	1.6368e+02	-14.4541	-60.496479	0.000243	2.432706	0.824223	0.000097
1647	1.6378e+02	-14.4156	-60.375365	0.000304	3.040882	1.030279	0.000122
1648	1.6388e+02	-14.3819	-60.270399	0.000264	2.635431	0.892908	0.000105
1649	1.6398e+02	-14.3354	-60.149285	0.000304	3.040882	1.030279	0.000122
1650	1.6408e+02	-14.2905	-60.084691	0.000162	1.621804	0.549482	0.000065
1651	1.6418e+02	-14.2600	-59.967614	0.000294	2.939520	0.995936	0.000118
1652	1.6427e+02	-14.2135	-59.854574	0.000284	2.838157	0.961594	0.000114
1653	1.6437e+02	-14.1734	-59.749609	0.000264	2.635431	0.892908	0.000105
1654	1.6447e+02	-14.1317	-59.680978	0.000172	1.723167	0.583825	0.000069
1655	1.6457e+02	-14.0948	-59.543715	0.000345	3.446333	1.167649	0.000138
1656	1.6467e+02	-14.0563	-59.438749	0.000264	2.635431	0.892908	0.000105
1657	1.6477e+02	-14.0178	-59.309561	0.000324	3.243608	1.098964	0.000130
1658	1.6487e+02	-13.9745	-59.232856	0.000193	1.925892	0.652510	0.000077
1659	1.6497e+02	-13.9520	-59.099630	0.000334	3.344971	1.133307	0.000134
1660	1.6507e+02	-13.8975	-59.010813	0.000223	2.229980	0.755538	0.000089
1661	1.6517e+02	-13.8574	-58.885662	0.000314	3.142245	1.064621	0.000126
1662	1.6527e+02	-13.8157	-58.776659	0.000274	2.736794	0.927251	0.000110
1663	1.6537e+02	-13.7804	-58.687842	0.000223	2.229980	0.755538	0.000089
1664	1.6547e+02	-13.7419	-58.546542	0.000355	3.547696	1.201992	0.000142
1665	1.6557e+02	-13.6985	-58.457725	0.000223	2.229980	0.755538	0.000089
1666	1.6567e+02	-13.6504	-58.348723	0.000274	2.736794	0.927251	0.000110
1667	1.6577e+02	-13.6199	-58.239720	0.000274	2.736794	0.927251	0.000110
1668	1.6587e+02	-13.5798	-58.082272	0.000395	3.953147	1.339363	0.000158
1669	1.6597e+02	-13.5429	-58.001529	0.000203	2.027255	0.686853	0.000081
1670	1.6607e+02	-13.5044	-57.860229	0.000355	3.547696	1.201992	0.000142
1671	1.6616e+02	-13.4691	-57.831969	0.000071	0.709539	0.240398	0.000028
1672	1.6626e+02	-13.4178	-57.690670	0.000355	3.547696	1.201992	0.000142
1673	1.6636e+02	-13.3713	-57.545333	0.000365	3.649059	1.236335	0.000146
1674	1.6646e+02	-13.3296	-57.456516	0.000223	2.229980	0.755538	0.000089
1675	1.6656e+02	-13.3023	-57.327327	0.000324	3.243608	1.098964	0.000130
1676	1.6666e+02	-13.2574	-57.218325	0.000274	2.736794	0.927251	0.000110
1677	1.6676e+02	-13.2221	-57.093174	0.000314	3.142245	1.064621	0.000126
1678	1.6686e+02	-13.1756	-56.980134	0.000284	2.838157	0.961594	0.000114
1679	1.6696e+02	-13.1419	-56.923614	0.000142	1.419078	0.480797	0.000057
1680	1.6706e+02	-13.1066	-56.794426	0.000324	3.243608	1.098964	0.000130
1681	1.6716e+02	-13.0633	-56.600643	0.000487	4.865412	1.648446	0.000195
1682	1.6726e+02	-13.0248	-56.503752	0.000243	2.432706	0.824223	0.000097
1683	1.6736e+02	-12.9798	-56.374563	0.000324	3.243608	1.098964	0.000130
1684	1.6746e+02	-12.9413	-56.334192	0.000101	1.013627	0.343426	0.000041
1685	1.6756e+02	-12.8996	-56.176744	0.000395	3.953147	1.339363	0.000158
1686	1.6766e+02	-12.8659	-56.043518	0.000334	3.344971	1.133307	0.000134
1687	1.6776e+02	-12.8162	-55.958738	0.000213	2.128618	0.721195	0.000085
1688	1.6786e+02	-12.7825	-55.837624	0.000304	3.040882	1.030279	0.000122
1689	1.6796e+02	-12.7440	-55.696325	0.000355	3.547696	1.201992	0.000142
1690	1.6806e+02	-12.7007	-55.587322	0.000274	2.736794	0.927251	0.000110
1691	1.6816e+02	-12.6638	-55.470245	0.000294	2.939520	0.995936	0.000118
1692	1.6825e+02	-12.6221	-55.353168	0.000294	2.939520	0.995936	0.000118
1693	1.6835e+02	-12.5868	-55.244165	0.000274	2.736794	0.927251	0.000110
1694	1.6845e+02	-12.5403	-55.114977	0.000324	3.243608	1.098964	0.000130
1695	1.6855e+02	-12.5002	-54.997900	0.000294	2.939520	0.995936	0.000118
1696	1.6865e+02	-12.4617	-54.888897	0.000274	2.736794	0.927251	0.000110
1697	1.6875e+02	-12.4232	-54.775858	0.000284	2.838157	0.961594	0.000114
1698	1.6885e+02	-12.3815	-54.678966	0.000243	2.432706	0.824223	0.000097
1699	1.6895e+02	-12.3430	-54.533630	0.000365	3.649059	1.236335	0.000146
1700	1.6905e+02	-12.3093	-54.460961	0.000182	1.824529	0.618167	0.000073
1701	1.6915e+02	-12.2595	-54.259104	0.000507	5.068137	1.717131	0.000203
1702	1.6925e+02	-12.2243	-54.174324	0.000213	2.128618	0.721195	0.000085
1703	1.6935e+02	-12.1858	-54.057248	0.000294	2.939520	0.995936	0.000118
1704	1.6945e+02	-12.1456	-53.956319	0.000253	2.534069	0.858566	0.000101
1705	1.6955e+02	-12.1055	-53.859428	0.000243	2.432706	0.824223	0.000097
1706	1.6965e+02	-12.0686	-53.710054	0.000375	3.750422	1.270677	0.000150
1707	1.6975e+02	-12.0189	-53.552606	0.000395	3.953147	1.339363	0.000158
1708	1.6985e+02	-11.9884	-53.475900	0.000193	1.925892	0.652510	0.000077
1709	1.6995e+02	-11.9483	-53.358823	0.000294	2.939520	0.995936	0.000118
1710	1.7005e+02	-11.9082	-53.213486	0.000365	3.649059	1.236335	0.000146
1711	1.7015e+02	-11.8649	-53.144855	0.000172	1.723167	0.583825	0.000069
1712	1.7024e+02	-11.8200	-52.938961	0.000517	5.169500	1.751474	0.000207
1713	1.7034e+02	-11.7959	-52.894552	0.000111	1.114990	0.377769	0.000045
1714	1.7044e+02	-11.7430	-52.716918	0.000446	4.459961	1.511076	0.000179
1715	1.7054e+02	-11.7077	-52.587730	0.000324	3.243608	1.098964	0.000130
1716	1.7064e+02	-11.6724	-52.470653	0.000294	2.939520	0.995936	0.000118
1717	1.7074e+02	-11.6355	-52.385873	0.000213	2.128618	0.721195	0.000085
1718	1.7084e+02	-11.5906	-52.252648	0.000334	3.344971	1.133307	0.000134
1719	1.7094e+02	-11.5457	-52.107311	0.000365	3.649059	1.236335	0.000146
1720	1.7104e+02	-11.5056	-52.010420	0.000243	2.432706	0.824223	0.000097
1721	1.7114e+02	-11.4703	-51.869120	0.000355	3.547696	1.201992	0.000142
1722	1.7124e+02	-11.4253	-51.743969	0.000314	3.142245	1.064621	0.000126
1723	1.7134e+02	-11.3868	-51.582483	0.000405	4.054510	1.373705	0.000162
1724	1.7144e+02	-11.3435	-51.513852	0.000172	1.723167	0.583825	0.000069
1725	1.7154e+02	-11.3082	-51.364478	0.000375	3.750422	1.270677	0.000150
1726	1.7164e+02	-11.2697	-51.271624	0.000233	2.331343	0.789880	0.000093
1727	1.7174e+02	-11.2296	-51.150510	0.000304	3.040882	1.030279	0.000122
1728	1.7184e+02	-11.1831	-51.009210	0.000355	3.547696	1.201992	0.000142
1729	1.7194e+02	-11.1526	-50.875985	0.000334	3.344971	1.133307	0.000134
1730	1.7204e+02	-11.1093	-50.754870	0.000304	3.040882	1.030279	0.000122
1731	1.7213e+02	-11.0740	-50.609534	0.000365	3.649059	1.236335	0.000146
1732	1.7223e+02	-11.0243	-50.456122	0.000385	3.851784	1.305020	0.000154
1733	1.7233e+02	-10.9826	-50.383454	0.000182	1.824529	0.618167	0.000073
1734	1.7243e+02	-10.9505	-50.205820	0.000446	4.459961	1.511076	0.000179
1735	1.7253e+02	-10.9200	-50.088743	0.000294	2.939520	0.995936	0.000118
1736	1.7263e+02	-10.8687	-49.935332	0.000385	3.851784	1.305020	0.000154
1737	1.7273e+02	-10.8318	-49.870738	0.000162	1.621804	0.549482	0.000065
1738	1.7283e+02	-10.7949	-49.717327	0.000385	3.851784	1.305020	0.000154
1739	1.7293e+02	-10.7484	-49.596213	0.000304	3.040882	1.030279	0.000122
1740	1.7303e+02	-10.7179	-49.458950	0.000345	3.446333	1.167649	0.000138
1741	1.7313e+02	-10.6601	-49.297464	0.000405	4.054510	1.373705	0.000162
1742	1.7323e+02	-10.6313	-49.212685	0.000213	2.128618	0.721195	0.000085
1743	1.7333e+02	-10.5895	-49.071385	0.000355	3.547696	1.201992	0.000142
1744	1.7343e+02	-10.5575	-48.974494	0.000243	2.432706	0.824223	0.000097
1745	1.7353e+02	-10.5045	-48.833194	0.000355	3.547696	1.201992	0.000142
1746	1.7363e+02	-10.4869	-48.704006	0.000324	3.243608	1.098964	0.000130
1747	1.7373e+02	-10.4275	-48.595003	0.000274	2.736794	0.927251	0.000110
1748	1.7383e+02	-10.3858	-48.473889	0.000304	3.040882	1.030279	0.000122
1749	1.7393e+02	-10.3521	-48.348738	0.000314	3.142245	1.064621	0.000126
1750	1.7403e+02	-10.3184	-48.231661	0.000294	2.939520	0.995936	0.000118
1751	1.7413e+02	-10.2703	-48.090361	0.000355	3.547696	1.201992	0.000142
1752	1.7422e+02	-10.2350	-47.957135	0.000334	3.344971	1.133307	0.000134
1753	1.7432e+02	-10.1917	-47.840058	0.000294	2.939520	0.995936	0.000118
1754	1.7442e+02	-10.1468	-47.722982	0.000294	2.939520	0.995936	0.000118
1755	1.7452e+02	-10.1163	-47.609942	0.000284	2.838157	0.961594	0.000114
1756	1.7462e+02	-10.0714	-47.436345	0.000436	4.358598	1.476733	0.000174
1757	1.7472e+02	-10.0313	-47.319268	0.000294	2.939520	0.995936	0.000118
1758	1.7482e+02	-9.9912	-47.186043	0.000334	3.344971	1.133307	0.000134
1759	1.7492e+02	-9.9511	-47.093188	0.000233	2.331343	0.789880	0.000093
1760	1.7502e+02	-9.9077	-46.972074	0.000304	3.040882	1.030279	0.000122
1761	1.7512e+02	-9.8757	-46.846923	0.000314	3.142245	1.064621	0.000126
1762	1.7522e+02	-9.8195	-46.693512	0.000385	3.851784	1.305020	0.000154
1763	1.7532e+02	-9.7954	-46.572398	0.000304	3.040882	1.030279	0.000122
1764	1.7542e+02	-9.7537	-46.451284	0.000304	3.040882	1.030279	0.000122
1765	1.7552e+02	-9.7088	-46.314021	0.000345	3.446333	1.167649	0.000138
1766	1.7562e+02	-9.6687	-46.200981	0.000284	2.838157	0.961594	0.000114
1767	1.7572e+02	-9.6366	-46.083904	0.000294	2.939520	0.995936	0.000118
1768	1.7582e+02	-9.5901	-45.958753	0.000314	3.142245	1.064621	0.000126
1769	1.7592e+02	-9.5532	-45.833602	0.000314	3.142245	1.064621	0.000126
1770	1.7602e+02	-9.5147	-45.692302	0.000355	3.547696	1.201992	0.000142
1771	1.7612e+02	-9.4762	-45.579262	0.000284	2.838157	0.961594	0.000114
1772	1.7621e+02	-9.4329	-45.433926	0.000365	3.649059	1.236335	0.000146
1773	1.7631e+02	-9.3960	-45.296663	0.000345	3.446333	1.167649	0.000138
1774	1.7641e+02	-9.3559	-45.211883	0.000213	2.128618	0.721195	0.000085
1775	1.7651e+02	-9.3238	-45.082695	0.000324	3.243608	1.098964	0.000130
1776	1.7661e+02	-9.2821	-44.909098	0.000436	4.358598	1.476733	0.000174
1777	1.7671e+02	-9.2292	-44.844504	0.000162	1.621804	0.549482	0.000065
1778	1.7681e+02	-9.1987	-44.658796	0.000466	4.662686	1.579761	0.000187
1779	1.7691e+02	-9.1554	-44.574016	0.000213	2.128618	0.721195	0.000085
1780	1.7701e+02	-9.1201	-44.424642	0.000375	3.750422	1.270677	0.000150
1781	1.7711e+02	-9.0832	-44.307565	0.000294	2.939520	0.995936	0.000118
1782	1.7721e+02	-9.0350	-44.178376	0.000324	3.243608	1.098964	0.000130
1783	1.7731e+02	-8.9981	-44.065337	0.000284	2.838157	0.961594	0.000114
1784	1.7741e+02	-8.9500	-43.932111	0.000334	3.344971	1.133307	0.000134
1785	1.7751e+02	-8.9195	-43.782737	0.000375	3.750422	1.270677	0.000150
1786	1.7761e+02	-8.8858	-43.677772	0.000264	2.635431	0.892908	0.000105
1787	1.7771e+02	-8.8361	-43.564732	0.000284	2.838157	0.961594	0.000114
1788	1.7781e+02	-8.7928	-43.399209	0.000416	4.155873	1.408048	0.000166
1789	1.7791e+02	-8.7511	-43.261947	0.000345	3.446333	1.167649	0.000138
1790	1.7801e+02	-8.7126	-43.156981	0.000264	2.635431	0.892908	0.000105
1791	1.7810e+02	-8.6757	-42.999533	0.000395	3.953147	1.339363	0.000158
1792	1.7820e+02	-8.6404	-42.902641	0.000243	2.432706	0.824223	0.000097
1793	1.7830e+02	-8.5987	-42.737119	0.000416	4.155873	1.408048	0.000166
1794	1.7840e+02	-8.5618	-42.624079	0.000284	2.838157	0.961594	0.000114
1795	1.7850e+02	-8.5153	-42.515076	0.000274	2.736794	0.927251	0.000110
1796	1.7860e+02	-8.4752	-42.373777	0.000355	3.547696	1.201992	0.000142
1797	1.7870e+02	-8.4463	-42.232477	0.000355	3.547696	1.201992	0.000142
1798	1.7880e+02	-8.3998	-42.107326	0.000314	3.142245	1.064621	0.000126
1799	1.7890e+02	-8.3645	-41.937766	0.000426	4.257235	1.442390	0.000170
1800	1.7900e+02	-8.3212	-41.852986	0.000213	2.128618	0.721195	0.000085
1801	1.7910e+02	-8.2810	-41.711686	0.000355	3.547696	1.201992	0.000142
1802	1.7920e+02	-8.2345	-41.594610	0.000294	2.939520	0.995936	0.000118
1803	1.7930e+02	-8.2040	-41.461384	0.000334	3.344971	1.133307	0.000134
1804	1.7940e+02	-8.1543	-41.340270	0.000304	3.040882	1.030279	0.000122
1805	1.7950e+02	-8.1206	-41.211082	0.000324	3.243608	1.098964	0.000130
1806	1.7960e+02	-8.0805	-41.094005	0.000294	2.939520	0.995936	0.000118
1807	1.7970e+02	-8.0452	-40.985002	0.000274	2.736794	0.927251	0.000110
1808	1.7980e+02	-7.9971	-40.843702	0.000355	3.547696	1.201992	0.000142
1809	1.7990e+02	-7.9538	-40.710477	0.000334	3.344971	1.133307	0.000134
1810	1.8000e+02	-7.9233	-40.557066	0.000385	3.851784	1.305020	0.000154
1811	1.8009e+02	-7.8816	-40.435952	0.000304	3.040882	1.030279	0.000122
1812	1.8019e+02	-7.8415	-40.351172	0.000213	2.128618	0.721195	0.000085
1813	1.8029e+02	-7.8046	-40.185649	0.000416	4.155873	1.408048	0.000166
1814	1.8039e+02	-7.7613	-40.056461	0.000324	3.243608	1.098964	0.000130
1815	1.8049e+02	-7.7164	-39.923235	0.000334	3.344971	1.133307	0.000134
1816	1.8059e+02	-7.6827	-39.814233	0.000274	2.736794	0.927251	0.000110
1817	1.8069e+02	-7.6378	-39.676970	0.000345	3.446333	1.167649	0.000138
1818	1.8079e+02	-7.6041	-39.535670	0.000355	3.547696	1.201992	0.000142
1819	1.8089e+02	-7.5640	-39.398408	0.000345	3.446333	1.167649	0.000138
1820	1.8099e+02	-7.5255	-39.277294	0.000304	3.040882	1.030279	0.000122
1821	1.8109e+02	-7.4789	-39.180402	0.000243	2.432706	0.824223	0.000097
1822	1.8119e+02	-7.4436	-38.994694	0.000466	4.662686	1.579761	0.000187
1823	1.8129e+02	-7.3955	-38.881654	0.000284	2.838157	0.961594	0.000114
1824	1.8139e+02	-7.3650	-38.687872	0.000487	4.865412	1.648446	0.000195
1825	1.8149e+02	-7.3217	-38.603092	0.000213	2.128618	0.721195	0.000085
1826	1.8159e+02	-7.2880	-38.469866	0.000334	3.344971	1.133307	0.000134
1827	1.8169e+02	-7.2495	-38.340678	0.000324	3.243608	1.098964	0.000130
1828	1.8179e+02	-7.1998	-38.179193	0.000405	4.054510	1.373705	0.000162
1829	1.8189e+02	-7.1661	-38.106524	0.000182	1.824529	0.618167	0.000073
1830	1.8199e+02	-7.1212	-37.932927	0.000436	4.358598	1.476733	0.000174
1831	1.8209e+02	-7.0779	-37.840073	0.000233	2.331343	0.789880	0.000093
1832	1.8218e+02	-7.0426	-37.638216	0.000507	5.068137	1.717131	0.000203
1833	1.8228e+02	-7.0073	-37.545362	0.000233	2.331343	0.789880	0.000093
1834	1.8238e+02	-6.9640	-37.412137	0.000334	3.344971	1.133307	0.000134
1835	1.8248e+02	-6.9094	-37.250651	0.000405	4.054510	1.373705	0.000162
1836	1.8258e+02	-6.8886	-37.141649	0.000274	2.736794	0.927251	0.000110
1837	1.8268e+02	-6.8501	-36.972089	0.000426	4.257235	1.442390	0.000170
1838	1.8278e+02	-6.8084	-36.838864	0.000334	3.344971	1.133307	0.000134
1839	1.8288e+02	-6.7715	-36.653155	0.000466	4.662686	1.579761	0.000187
1840	1.8298e+02	-6.7298	-36.556264	0.000243	2.432706	0.824223	0.000097
1841	1.8308e+02	-6.6913	-36.443224	0.000284	2.838157	0.961594	0.000114
1842	1.8318e+02	-6.6463	-36.277702	0.000416	4.155873	1.408048	0.000166
1843	1.8328e+02	-6.6126	-36.156588	0.000304	3.040882	1.030279	0.000122
1844	1.8338e+02	-6.5645	-36.003177	0.000385	3.851784	1.305020	0.000154
1845	1.8348e+02	-6.5164	-35.857840	0.000365	3.649059	1.236335	0.000146
1846	1.8358e+02	-6.5020	-35.740763	0.000294	2.939520	0.995936	0.000118
1847	1.8368e+02	-6.4442	-35.603500	0.000345	3.446333	1.167649	0.000138
1848	1.8378e+02	-6.4089	-35.409718	0.000487	4.865412	1.648446	0.000195
1849	1.8388e+02	-6.3608	-35.300715	0.000274	2.736794	0.927251	0.000110
1850	1.8398e+02	-6.3255	-35.171527	0.000324	3.243608	1.098964	0.000130
1851	1.8407e+02	-6.2966	-35.046375	0.000314	3.142245	1.064621	0.000126
1852	1.8417e+02	-6.2501	-34.888927	0.000395	3.953147	1.339363	0.000158
1853	1.8427e+02	-6.2084	-34.711293	0.000446	4.459961	1.511076	0.000179
1854	1.8437e+02	-6.1715	-34.598253	0.000284	2.838157	0.961594	0.000114
1855	1.8447e+02	-6.1298	-34.456954	0.000355	3.547696	1.201992	0.000142
1856	1.8457e+02	-6.1009	-34.291431	0.000416	4.155873	1.408048	0.000166
1857	1.8467e+02	-6.0528	-34.194540	0.000243	2.432706	0.824223	0.000097
1858	1.8477e+02	-6.0127	-34.033054	0.000405	4.054510	1.373705	0.000162
1859	1.8487e+02	-5.9726	-33.907903	0.000314	3.142245	1.064621	0.000126
1860	1.8497e+02	-5.9373	-33.730269	0.000446	4.459961	1.511076	0.000179
1861	1.8507e+02	-5.8956	-33.588969	0.000355	3.547696	1.201992	0.000142
1862	1.8517e+02	-5.8619	-33.439595	0.000375	3.750422	1.270677	0.000150
1863	1.8527e+02	-5.8153	-33.294258	0.000365	3.649059	1.236335	0.000146
1864	1.8537e+02	-5.7720	-33.177181	0.000294	2.939520	0.995936	0.000118
1865	1.8547e+02	-5.7383	-33.007622	0.000426	4.257235	1.442390	0.000170
1866	1.8557e+02	-5.6966	-32.842099	0.000416	4.155873	1.408048	0.000166
1867	1.8567e+02	-5.6453	-32.712911	0.000324	3.243608	1.098964	0.000130
1868	1.8577e+02	-5.6116	-32.607945	0.000264	2.635431	0.892908	0.000105
1869	1.8587e+02	-5.5683	-32.434349	0.000436	4.358598	1.476733	0.000174
1870	1.8597e+02	-5.5314	-32.284974	0.000375	3.750422	1.270677	0.000150
1871	1.8606e+02	-5.4913	-32.127526	0.000395	3.953147	1.339363	0.000158
1872	1.8616e+02	-5.4608	-32.006412	0.000304	3.040882	1.030279	0.000122
1873	1.8626e+02	-5.4127	-31.848964	0.000395	3.953147	1.339363	0.000158
1874	1.8636e+02	-5.3646	-31.679404	0.000426	4.257235	1.442390	0.000170
1875	1.8646e+02	-5.3341	-31.562327	0.000294	2.939520	0.995936	0.000118
1876	1.8656e+02	-5.2956	-31.396805	0.000416	4.155873	1.408048	0.000166
1877	1.8666e+02	-5.2539	-31.259542	0.000345	3.446333	1.167649	0.000138
1878	1.8676e+02	-5.2154	-31.134391	0.000314	3.142245	1.064621	0.000126
1879	1.8686e+02	-5.1801	-30.940608	0.000487	4.865412	1.648446	0.000195
1880	1.8696e+02	-5.1287	-30.811420	0.000324	3.243608	1.098964	0.000130
1881	1.8706e+02	-5.1031	-30.674157	0.000345	3.446333	1.167649	0.000138
1882	1.8716e+02	-5.0598	-30.536895	0.000345	3.446333	1.167649	0.000138
1883	1.8726e+02	-5.0116	-30.343112	0.000487	4.865412	1.648446	0.000195
1884	1.8736e+02	-4.9747	-30.230072	0.000284	2.838157	0.961594	0.000114
1885	1.8746e+02	-4.9394	-30.072624	0.000395	3.953147	1.339363	0.000158
1886	1.8756e+02	-4.8945	-29.890953	0.000456	4.561324	1.545418	0.000183
1887	1.8766e+02	-4.8480	-29.794062	0.000243	2.432706	0.824223	0.000097
1888	1.8776e+02	-4.8207	-29.612391	0.000456	4.561324	1.545418	0.000183
1889	1.8786e+02	-4.7758	-29.487239	0.000314	3.142245	1.064621	0.000126
1890	1.8796e+02	-4.7341	-29.370162	0.000294	2.939520	0.995936	0.000118
1891	1.8806e+02	-4.7036	-29.156194	0.000537	5.372226	1.820159	0.000215
1892	1.8815e+02	-4.6555	-28.982597	0.000436	4.358598	1.476733	0.000174
1893	1.8825e+02	-4.6122	-28.829186	0.000385	3.851784	1.305020	0.000154
1894	1.8835e+02	-4.5849	-28.716147	0.000284	2.838157	0.961594	0.000114
1895	1.8845e+02	-4.5336	-28.538513	0.000446	4.459961	1.511076	0.000179
1896	1.8855e+02	-4.4967	-28.385101	0.000385	3.851784	1.305020	0.000154
1897	1.8865e+02	-4.4598	-28.243802	0.000355	3.547696	1.201992	0.000142
1898	1.8875e+02	-4.4213	-28.086353	0.000395	3.953147	1.339363	0.000158
1899	1.8885e+02	-4.3796	-27.912756	0.000436	4.358598	1.476733	0.000174
1900	1.8895e+02	-4.3346	-27.755308	0.000395	3.953147	1.339363	0.000158
1901	1.8905e+02	-4.2977	-27.618046	0.000345	3.446333	1.167649	0.000138
1902	1.8915e+02	-4.2544	-27.472709	0.000365	3.649059	1.236335	0.000146
1903	1.8925e+02	-4.2239	-27.311223	0.000405	4.054510	1.373705	0.000162
1904	1.8935e+02	-4.1806	-27.153775	0.000395	3.953147	1.339363	0.000158
1905	1.8945e+02	-4.1373	-27.004401	0.000375	3.750422	1.270677	0.000150
1906	1.8955e+02	-4.0988	-26.830804	0.000436	4.358598	1.476733	0.000174
1907	1.8965e+02	-4.0555	-26.653170	0.000446	4.459961	1.511076	0.000179
1908	1.8975e+02	-4.0218	-26.536093	0.000294	2.939520	0.995936	0.000118
1909	1.8985e+02	-3.9785	-26.378645	0.000395	3.953147	1.339363	0.000158
1910	1.8995e+02	-3.9416	-26.233308	0.000365	3.649059	1.236335	0.000146
1911	1.9004e+02	-3.9063	-26.071823	0.000405	4.054510	1.373705	0.000162
1912	1.9014e+02	-3.8614	-25.926486	0.000365	3.649059	1.236335	0.000146
1913	1.9024e+02	-3.8245	-25.777112	0.000375	3.750422	1.270677	0.000150
1914	1.9034e+02	-3.7812	-25.627738	0.000375	3.750422	1.270677	0.000150
1915	1.9044e+02	-3.7395	-25.454141	0.000436	4.358598	1.476733	0.000174
1916	1.9054e+02	-3.6978	-25.320915	0.000334	3.344971	1.133307	0.000134
1917	1.9064e+02	-3.6577	-25.143281	0.000446	4.459961	1.511076	0.000179
1918	1.9074e+02	-3.6208	-25.001982	0.000355	3.547696	1.201992	0.000142
1919	1.9084e+02	-3.5951	-24.876830	0.000314	3.142245	1.064621	0.000126
1920	1.9094e+02	-3.5389	-24.703234	0.000436	4.358598	1.476733	0.000174
1921	1.9104e+02	-3.5004	-24.574045	0.000324	3.243608	1.098964	0.000130
1922	1.9114e+02	-3.4619	-24.424671	0.000375	3.750422	1.270677	0.000150
1923	1.9124e+02	-3.4266	-24.234926	0.000476	4.764049	1.614104	0.000191
1924	1.9134e+02	-3.3785	-24.142072	0.000233	2.331343	0.789880	0.000093
1925	1.9144e+02	-3.3496	-23.960401	0.000456	4.561324	1.545418	0.000183
1926	1.9154e+02	-3.3095	-23.798915	0.000405	4.054510	1.373705	0.000162
1927	1.9164e+02	-3.2614	-23.673764	0.000314	3.142245	1.064621	0.000126
1928	1.9174e+02	-3.2133	-23.471907	0.000507	5.068137	1.717131	0.000203
1929	1.9184e+02	-3.1780	-23.302347	0.000426	4.257235	1.442390	0.000170
1930	1.9194e+02	-3.1459	-23.193345	0.000274	2.736794	0.927251	0.000110
1931	1.9203e+02	-3.1090	-23.052045	0.000355	3.547696	1.201992	0.000142
1932	1.9213e+02	-3.0673	-22.894597	0.000395	3.953147	1.339363	0.000158
1933	1.9223e+02	-3.0272	-22.721000	0.000436	4.358598	1.476733	0.000174
1934	1.9233e+02	-2.9823	-22.607960	0.000284	2.838157	0.961594	0.000114
1935	1.9243e+02	-2.9422	-22.418215	0.000476	4.764049	1.614104	0.000191
1936	1.9253e+02	-2.9053	-22.260766	0.000395	3.953147	1.339363	0.000158
1937	1.9263e+02	-2.8652	-22.111392	0.000375	3.750422	1.270677	0.000150
1938	1.9273e+02	-2.8234	-21.994316	0.000294	2.939520	0.995936	0.000118
1939	1.9283e+02	-2.7833	-21.796496	0.000497	4.966775	1.682789	0.000199
1940	1.9293e+02	-2.7432	-21.663270	0.000334	3.344971	1.133307	0.000134
1941	1.9303e+02	-2.7079	-21.469488	0.000487	4.865412	1.648446	0.000195
1942	1.9313e+02	-2.6694	-21.328188	0.000355	3.547696	1.201992	0.000142
1943	1.9323e+02	-2.6309	-21.215148	0.000284	2.838157	0.961594	0.000114
1944	1.9333e+02	-2.5860	-21.049626	0.000416	4.155873	1.408048	0.000166
1945	1.9343e+02	-2.5475	-20.863917	0.000466	4.662686	1.579761	0.000187
1946	1.9353e+02	-2.4962	-20.730692	0.000334	3.344971	1.133307	0.000134
1947	1.9363e+02	-2.4769	-20.593429	0.000345	3.446333	1.167649	0.000138
1948	1.9373e+02	-2.4304	-20.440018	0.000385	3.851784	1.305020	0.000154
1949	1.9383e+02	-2.3903	-20.322941	0.000294	2.939520	0.995936	0.000118
1950	1.9393e+02	-2.3422	-20.133196	0.000476	4.764049	1.614104	0.000191
1951	1.9403e+02	-2.3133	-19.955562	0.000446	4.459961	1.511076	0.000179
1952	1.9412e+02	-2.2652	-19.826374	0.000324	3.243608	1.098964	0.000130
1953	1.9422e+02	-2.2347	-19.660851	0.000416	4.155873	1.408048	0.000166
1954	1.9432e+02	-2.1850	-19.543774	0.000294	2.939520	0.995936	0.000118
1955	1.9442e+02	-2.1449	-19.317695	0.000568	5.676314	1.923187	0.000227
1956	1.9452e+02	-2.0983	-19.180432	0.000345	3.446333	1.167649	0.000138
1957	1.9462e+02	-2.0598	-19.063355	0.000294	2.939520	0.995936	0.000118
1958	1.9472e+02	-2.0245	-18.845350	0.000547	5.473588	1.854502	0.000219
1959	1.9482e+02	-1.9812	-18.708087	0.000345	3.446333	1.167649	0.000138
1960	1.9492e+02	-1.9491	-18.574862	0.000334	3.344971	1.133307	0.000134
1961	1.9502e+02	-1.9010	-18.401265	0.000436	4.358598	1.476733	0.000174
1962	1.9512e+02	-1.8673	-18.247854	0.000385	3.851784	1.305020	0.000154
1963	1.9522e+02	-1.8304	-18.106554	0.000355	3.547696	1.201992	0.000142
1964	1.9532e+02	-1.7871	-17.908734	0.000497	4.966775	1.682789	0.000199
1965	1.9542e+02	-1.7534	-17.763397	0.000365	3.649059	1.236335	0.000146
1966	1.9552e+02	-1.7021	-17.614023	0.000375	3.750422	1.270677	0.000150
1967	1.9562e+02	-1.6652	-17.452538	0.000405	4.054510	1.373705	0.000162
1968	1.9572e+02	-1.6331	-17.291052	0.000405	4.054510	1.373705	0.000162
1969	1.9582e+02	-1.5882	-17.117456	0.000436	4.358598	1.476733	0.000174
1970	1.9592e+02	-1.5465	-16.976156	0.000355	3.547696	1.201992	0.000142
1971	1.9601e+02	-1.5112	-16.822745	0.000385	3.851784	1.305020	0.000154
1972	1.9611e+02	-1.4711	-16.717779	0.000264	2.635431	0.892908	0.000105
1973	1.9621e+02	-1.4278	-16.519959	0.000497	4.966775	1.682789	0.000199
1974	1.9631e+02	-1.3828	-16.342325	0.000446	4.459961	1.511076	0.000179
1975	1.9641e+02	-1.3395	-16.257546	0.000213	2.128618	0.721195	0.000085
1976	1.9651e+02	-1.3042	-16.059726	0.000497	4.966775	1.682789	0.000199
1977	1.9661e+02	-1.2673	-15.922463	0.000345	3.446333	1.167649	0.000138
1978	1.9671e+02	-1.2240	-15.724644	0.000497	4.966775	1.682789	0.000199
1979	1.9681e+02	-1.1919	-15.639864	0.000213	2.128618	0.721195	0.000085
1980	1.9691e+02	-1.1518	-15.454156	0.000466	4.662686	1.579761	0.000187
1981	1.9701e+02	-1.1053	-15.300744	0.000385	3.851784	1.305020	0.000154
1982	1.9711e+02	-1.0668	-15.131185	0.000426	4.257235	1.442390	0.000170
1983	1.9721e+02	-1.0267	-14.977774	0.000385	3.851784	1.305020	0.000154
1984	1.9731e+02	-0.9882	-14.876845	0.000253	2.534069	0.858566	0.000101
1985	1.9741e+02	-0.9497	-14.670951	0.000517	5.169500	1.751474	0.000207
1986	1.9751e+02	-0.9128	-14.565986	0.000264	2.635431	0.892908	0.000105
1987	1.9761e+02	-0.8647	-14.372203	0.000487	4.865412	1.648446	0.000195
1988	1.9771e+02	-0.8358	-14.210718	0.000405	4.054510	1.373705	0.000162
1989	1.9781e+02	-0.7861	-14.020972	0.000476	4.764049	1.614104	0.000191
1990	1.9791e+02	-0.7492	-13.887747	0.000334	3.344971	1.133307	0.000134
1991	1.9800e+02	-0.7139	-13.698002	0.000476	4.764049	1.614104	0.000191
1992	1.9810e+02	-0.6754	-13.588999	0.000274	2.736794	0.927251	0.000110
1993	1.9820e+02	-0.6224	-13.431551	0.000395	3.953147	1.339363	0.000158
1994	1.9830e+02	-0.5871	-13.261991	0.000426	4.257235	1.442390	0.000170
1995	1.9840e+02	-0.5486	-13.084357	0.000446	4.459961	1.511076	0.000179
1996	1.9850e+02	-0.5150	-12.926909	0.000395	3.953147	1.339363	0.000158
1997	1.9860e+02	-0.4781	-12.725052	0.000507	5.068137	1.717131	0.000203
1998	1.9870e+02	-0.4283	-12.603938	0.000304	3.040882	1.030279	0.000122
1999	1.9880e+02	-0.3930	-12.426304	0.000446	4.459961	1.511076	0.000179
2000	1.9890e+02	-0.3545	-12.280967	0.000365	3.649059	1.236335	0.000146
2001	1.9900e+02	-0.3048	-12.111407	0.000426	4.257235	1.442390	0.000170
2002	1.9910e+02	-0.2711	-11.889365	0.000557	5.574951	1.888845	0.000223
2003	1.9920e+02	-0.2278	-11.752102	0.000345	3.446333	1.167649	0.000138
2004	1.9930e+02	-0.1957	-11.574468	0.000446	4.459961	1.511076	0.000179
2005	1.9940e+02	-0.1524	-11.469503	0.000264	2.635431	0.892908	0.000105
2006	1.9950e+02	-0.1155	-11.271683	0.000497	4.966775	1.682789	0.000199
2007	1.9960e+02	-0.0770	-11.118272	0.000385	3.851784	1.305020	0.000154
2008	1.9970e+02	-0.0337	-10.960824	0.000395	3.953147	1.339363	0.000158
2009	1.9980e+02	0.0000	-10.819524	0.000395	3.953147	1.339363	0.000142

PMax (uC/cm2):	7.27e+01
Pr (uC/cm2):	-2.08e-01
-Pr (uC/cm2):	-1.08e+01
PLoss (uC/cm2):	-4.68e+00
Vc:	1.53e+00
-Vc:	4.83e-02
C (Max-Eff) (nF):	3.94e-01
K (Eff):	1.34e+03
Vert. (+/-Pr) Shift (uC/cm2):	-5.51e+00
Horiz. Shift (+/-Vc):	7.91e-01
Offset (uC/cm2):	6.11e+00

A (Loop Area - uC/cm2·Volts):	-1.79e-02



Hysteresis Version: 5.48.1 - Radiant Technologies, Inc., 1999 - 9/12/24

