»»»»»»»»»»»»»»»»»»»»»»»»»»»»»»»»»»»» Hysteresis ««««««««««««««««««««««««««««««««««««
»»»  Executed Version:	5.48.1
»»»  Vision Version:	5.48.4 (R)
»»»  Vision Compiled:	9/18/24
»»»  Driver Version:	5.47.0
»»»  Windows Version:	Windows 8 or 8.1
»»»  Processor Information:	x86 (AMD or Intel) - 32 Processors
»»»  Tester Name:	PMF21124-494 (100V)
»»»  Tester S/N:	PMF21124-494
»»»  Internal Amp Type:	100V RevK 270k
»»»  Internal Amp S/N:	iAB2-596/K     
»»»  Execution Count:	1
»»»»»»»»»»»»»»»»»»»»»»»»»»»»»»»»»»»»»»»»»»««««««««««««««««««««««««««««««««««««««««««

Stored:	6/19/2025 - 20:19:35
Configured:	06/19/25 10:04:32 AM
Executed:	06/19/25 08:18:47 PM

»»»»»»»»»»»»»»»»»»»»»»»»»»»»»»»»»»» Sample Info ««««««««««««««««««««««««««««««««««««
Sample Name:	
Lot Name:	
Wafer Name:	
Die Row/Column:	0/0
Capacitor Number:	0
Sample Area (cm2):	1.00e-04
Sample Thickness (microns):	3.00e-01

Amplifier:	Internal

»»»»»»»»»»»»»»»»»»»»»»»»»»»»»»»»»»» Tester Info «««««««««««««««««««««««««««««««««««
Tester Name:	PMF21124-494 (100V)
Tester Serial Number:	PMF21124-494
Return Signal Amp. Level:	0.19 [Index: 3]

»»»»»»»»»»»»»»»»»»»»»»»»»»»»»»»» Hysteresis Info ««««««««««««««««««««««««««««««««««
Task Name:	Hyst-1168
Volts:	20.00
Field:	666.67 (kV/cm)
DCBias:	0.00
DCField:	0.00 (kV/cm)
Hysteresis Period (ms):	2.00e+02
Preset:	Enabled
Preset Delay (ms):	1.00e+03
Profile:	Standard Bipolar

»»»»»»»»»»»»»»»»»»»»»»»»»»»»»»»»»»»»»» Data «««««««««««««««««««««««««««««««««««««««
Points:	2009

Valid Data

Point	Time (ms)	Drive Voltage	Measured Polarization (uC/cm2)	Capacitance (uF)	Normalized Capacitance (uF/cm2)	Dielectric Constant	Instantaneous Current (mA)
   1	0.0000e+00	0.0064	-6.737980	0.000304	3.041554	1.030506	0.000122
   2	9.9500e-02	0.0353	-6.616865	0.000304	3.041554	1.030506	0.000122
   3	1.9900e-01	0.0706	-6.451343	0.000416	4.156790	1.408359	0.000166
   4	2.9850e-01	0.1203	-6.314080	0.000345	3.447094	1.167907	0.000138
   5	3.9800e-01	0.1572	-6.156632	0.000395	3.954020	1.339658	0.000158
   6	4.9750e-01	0.2005	-6.055704	0.000253	2.534628	0.858755	0.000101
   7	5.9700e-01	0.2342	-5.861921	0.000487	4.866486	1.648810	0.000195
   8	6.9650e-01	0.2839	-5.728696	0.000335	3.345709	1.133557	0.000134
   9	7.9600e-01	0.3128	-5.563173	0.000416	4.156790	1.408359	0.000166
  10	8.9550e-01	0.3465	-5.409762	0.000385	3.852634	1.305308	0.000154
  11	9.9500e-01	0.3914	-5.268462	0.000355	3.548479	1.202257	0.000142
  12	1.0945e+00	0.4396	-5.119088	0.000375	3.751249	1.270958	0.000150
  13	1.1940e+00	0.4732	-4.961640	0.000395	3.954020	1.339658	0.000158
  14	1.2935e+00	0.5150	-4.804192	0.000395	3.954020	1.339658	0.000158
  15	1.3930e+00	0.5454	-4.707300	0.000243	2.433243	0.824405	0.000097
  16	1.4925e+00	0.5984	-4.521592	0.000466	4.663715	1.580110	0.000187
  17	1.5920e+00	0.6305	-4.360107	0.000406	4.055405	1.374008	0.000162
  18	1.6915e+00	0.6770	-4.218807	0.000355	3.548479	1.202257	0.000142
  19	1.7910e+00	0.7203	-4.069433	0.000375	3.751249	1.270958	0.000150
  20	1.8905e+00	0.7540	-3.903910	0.000416	4.156790	1.408359	0.000166
  21	1.9900e+00	0.7925	-3.762611	0.000355	3.548479	1.202257	0.000142
  22	2.0895e+00	0.8438	-3.609199	0.000385	3.852634	1.305308	0.000154
  23	2.1890e+00	0.8791	-3.467900	0.000355	3.548479	1.202257	0.000142
  24	2.2885e+00	0.9144	-3.326600	0.000355	3.548479	1.202257	0.000142
  25	2.3880e+00	0.9529	-3.128780	0.000497	4.967871	1.683160	0.000199
  26	2.4875e+00	0.9914	-2.999592	0.000324	3.244324	1.099207	0.000130
  27	2.5870e+00	1.0347	-2.882515	0.000294	2.940168	0.996156	0.000118
  28	2.6865e+00	1.0796	-2.712955	0.000426	4.258175	1.442709	0.000170
  29	2.7860e+00	1.1117	-2.539358	0.000436	4.359560	1.477059	0.000174
  30	2.8855e+00	1.1502	-2.385947	0.000385	3.852634	1.305308	0.000154
  31	2.9850e+00	1.1984	-2.216388	0.000426	4.258175	1.442709	0.000170
  32	3.0845e+00	1.2369	-2.095273	0.000304	3.041554	1.030506	0.000122
  33	3.1840e+00	1.2722	-1.945899	0.000375	3.751249	1.270958	0.000150
  34	3.2835e+00	1.3058	-1.748080	0.000497	4.967871	1.683160	0.000199
  35	3.3830e+00	1.3620	-1.602743	0.000365	3.649864	1.236607	0.000146
  36	3.4825e+00	1.3909	-1.469517	0.000335	3.345709	1.133557	0.000134
  37	3.5820e+00	1.4342	-1.283809	0.000466	4.663715	1.580110	0.000187
  38	3.6815e+00	1.4679	-1.138472	0.000365	3.649864	1.236607	0.000146
  39	3.7810e+00	1.5096	-0.964875	0.000436	4.359560	1.477059	0.000174
  40	3.8805e+00	1.5481	-0.823576	0.000355	3.548479	1.202257	0.000142
  41	3.9800e+00	1.5898	-0.694387	0.000324	3.244324	1.099207	0.000130
  42	4.0795e+00	1.6427	-0.480419	0.000537	5.373411	1.820561	0.000215
  43	4.1790e+00	1.6796	-0.363342	0.000294	2.940168	0.996156	0.000118
  44	4.2785e+00	1.7133	-0.193783	0.000426	4.258175	1.442709	0.000170
  45	4.3780e+00	1.7502	-0.004037	0.000477	4.765101	1.614460	0.000191
  46	4.4775e+00	1.7967	0.117077	0.000304	3.041554	1.030506	0.000122
  47	4.5770e+00	1.8272	0.266451	0.000375	3.751249	1.270958	0.000150
  48	4.6765e+00	1.8689	0.456196	0.000477	4.765101	1.614460	0.000191
  49	4.7760e+00	1.9090	0.617682	0.000406	4.055405	1.374008	0.000162
  50	4.8755e+00	1.9507	0.738796	0.000304	3.041554	1.030506	0.000122
  51	4.9750e+00	1.9909	0.916430	0.000446	4.460945	1.511409	0.000179
  52	5.0745e+00	2.0310	1.122324	0.000517	5.170641	1.751861	0.000207
  53	5.1740e+00	2.0614	1.219215	0.000243	2.433243	0.824405	0.000097
  54	5.2735e+00	2.1160	1.417035	0.000497	4.967871	1.683160	0.000199
  55	5.3730e+00	2.1593	1.570446	0.000385	3.852634	1.305308	0.000154
  56	5.4725e+00	2.1882	1.715783	0.000365	3.649864	1.236607	0.000146
  57	5.5720e+00	2.2315	1.865157	0.000375	3.751249	1.270958	0.000150
  58	5.6715e+00	2.2812	2.030679	0.000416	4.156790	1.408359	0.000166
  59	5.7710e+00	2.3133	2.192165	0.000406	4.055405	1.374008	0.000162
  60	5.8705e+00	2.3454	2.361724	0.000426	4.258175	1.442709	0.000170
  61	5.9700e+00	2.3855	2.523210	0.000406	4.055405	1.374008	0.000162
  62	6.0695e+00	2.4304	2.692770	0.000426	4.258175	1.442709	0.000170
  63	6.1690e+00	2.4657	2.838106	0.000365	3.649864	1.236607	0.000146
  64	6.2685e+00	2.5074	2.975369	0.000345	3.447094	1.167907	0.000138
  65	6.3680e+00	2.5427	3.144929	0.000426	4.258175	1.442709	0.000170
  66	6.4675e+00	2.5844	3.322563	0.000446	4.460945	1.511409	0.000179
  67	6.5670e+00	2.6293	3.427528	0.000264	2.636013	0.893105	0.000105
  68	6.6665e+00	2.6743	3.645534	0.000547	5.474796	1.854911	0.000219
  69	6.7660e+00	2.7047	3.786833	0.000355	3.548479	1.202257	0.000142
  70	6.8655e+00	2.7464	3.948319	0.000406	4.055405	1.374008	0.000162
  71	6.9650e+00	2.7866	4.125953	0.000446	4.460945	1.511409	0.000179
  72	7.0645e+00	2.8202	4.255141	0.000324	3.244324	1.099207	0.000130
  73	7.1640e+00	2.8764	4.408552	0.000385	3.852634	1.305308	0.000154
  74	7.2635e+00	2.9069	4.561963	0.000385	3.852634	1.305308	0.000154
  75	7.3630e+00	2.9438	4.731523	0.000426	4.258175	1.442709	0.000170
  76	7.4625e+00	2.9887	4.913194	0.000456	4.562330	1.545759	0.000183
  77	7.5620e+00	3.0256	5.042383	0.000324	3.244324	1.099207	0.000130
  78	7.6615e+00	3.0609	5.240202	0.000497	4.967871	1.683160	0.000199
  79	7.7610e+00	3.1058	5.357279	0.000294	2.940168	0.996156	0.000118
  80	7.8605e+00	3.1491	5.547025	0.000477	4.765101	1.614460	0.000191
  81	7.9600e+00	3.1780	5.732733	0.000466	4.663715	1.580110	0.000187
  82	8.0595e+00	3.2149	5.882107	0.000375	3.751249	1.270958	0.000150
  83	8.1590e+00	3.2550	6.051666	0.000426	4.258175	1.442709	0.000170
  84	8.2585e+00	3.3176	6.225263	0.000436	4.359560	1.477059	0.000174
  85	8.3580e+00	3.3480	6.382712	0.000395	3.954020	1.339658	0.000158
  86	8.4575e+00	3.3849	6.528048	0.000365	3.649864	1.236607	0.000146
  87	8.5570e+00	3.4395	6.697608	0.000426	4.258175	1.442709	0.000170
  88	8.6565e+00	3.4635	6.830834	0.000335	3.345709	1.133557	0.000134
  89	8.7560e+00	3.5036	7.048839	0.000547	5.474796	1.854911	0.000219
  90	8.8555e+00	3.5405	7.194176	0.000365	3.649864	1.236607	0.000146
  91	8.9550e+00	3.5839	7.367773	0.000436	4.359560	1.477059	0.000174
  92	9.0545e+00	3.6240	7.533295	0.000416	4.156790	1.408359	0.000166
  93	9.1540e+00	3.6593	7.682669	0.000375	3.751249	1.270958	0.000150
  94	9.2535e+00	3.7106	7.836080	0.000385	3.852634	1.305308	0.000154
  95	9.3530e+00	3.7347	8.013714	0.000446	4.460945	1.511409	0.000179
  96	9.4525e+00	3.7796	8.179237	0.000416	4.156790	1.408359	0.000166
  97	9.5520e+00	3.8309	8.373020	0.000487	4.866486	1.648810	0.000195
  98	9.6515e+00	3.8678	8.510282	0.000345	3.447094	1.167907	0.000138
  99	9.7510e+00	3.8983	8.651582	0.000355	3.548479	1.202257	0.000142
 100	9.8505e+00	3.9416	8.845364	0.000487	4.866486	1.648810	0.000195
 101	9.9500e+00	3.9801	9.010887	0.000416	4.156790	1.408359	0.000166
 102	1.0050e+01	4.0266	9.176410	0.000416	4.156790	1.408359	0.000166
 103	1.0149e+01	4.0619	9.354044	0.000446	4.460945	1.511409	0.000179
 104	1.0248e+01	4.1004	9.503418	0.000375	3.751249	1.270958	0.000150
 105	1.0348e+01	4.1405	9.689126	0.000466	4.663715	1.580110	0.000187
 106	1.0447e+01	4.1935	9.850611	0.000406	4.055405	1.374008	0.000162
 107	1.0547e+01	4.2272	10.028245	0.000446	4.460945	1.511409	0.000179
 108	1.0646e+01	4.2721	10.193768	0.000416	4.156790	1.408359	0.000166
 109	1.0746e+01	4.2945	10.343142	0.000375	3.751249	1.270958	0.000150
 110	1.0845e+01	4.3475	10.536924	0.000487	4.866486	1.648810	0.000195
 111	1.0945e+01	4.3908	10.670150	0.000335	3.345709	1.133557	0.000134
 112	1.1044e+01	4.4229	10.851821	0.000456	4.562330	1.545759	0.000183
 113	1.1144e+01	4.4534	11.017343	0.000416	4.156790	1.408359	0.000166
 114	1.1243e+01	4.4999	11.182866	0.000416	4.156790	1.408359	0.000166
 115	1.1343e+01	4.5384	11.348389	0.000416	4.156790	1.408359	0.000166
 116	1.1443e+01	4.5833	11.550245	0.000507	5.069256	1.717510	0.000203
 117	1.1542e+01	4.6170	11.691545	0.000355	3.548479	1.202257	0.000142
 118	1.1642e+01	4.6635	11.820733	0.000324	3.244324	1.099207	0.000130
 119	1.1741e+01	4.6972	12.034702	0.000537	5.373411	1.820561	0.000215
 120	1.1841e+01	4.7485	12.184076	0.000375	3.751249	1.270958	0.000150
 121	1.1940e+01	4.7854	12.329413	0.000365	3.649864	1.236607	0.000146
 122	1.2040e+01	4.8207	12.498972	0.000426	4.258175	1.442709	0.000170
 123	1.2139e+01	4.8560	12.692755	0.000487	4.866486	1.648810	0.000195
 124	1.2239e+01	4.9025	12.850203	0.000395	3.954020	1.339658	0.000158
 125	1.2338e+01	4.9346	12.995540	0.000365	3.649864	1.236607	0.000146
 126	1.2438e+01	4.9811	13.144914	0.000375	3.751249	1.270958	0.000150
 127	1.2537e+01	5.0212	13.330622	0.000466	4.663715	1.580110	0.000187
 128	1.2636e+01	5.0549	13.512293	0.000456	4.562330	1.545759	0.000183
 129	1.2736e+01	5.1031	13.669742	0.000395	3.954020	1.339658	0.000158
 130	1.2835e+01	5.1351	13.839301	0.000426	4.258175	1.442709	0.000170
 131	1.2935e+01	5.1769	14.000787	0.000406	4.055405	1.374008	0.000162
 132	1.3034e+01	5.2218	14.190532	0.000477	4.765101	1.614460	0.000191
 133	1.3134e+01	5.2619	14.323758	0.000335	3.345709	1.133557	0.000134
 134	1.3233e+01	5.2988	14.497354	0.000436	4.359560	1.477059	0.000174
 135	1.3333e+01	5.3421	14.662877	0.000416	4.156790	1.408359	0.000166
 136	1.3432e+01	5.3710	14.820325	0.000395	3.954020	1.339658	0.000158
 137	1.3532e+01	5.4143	14.969699	0.000375	3.751249	1.270958	0.000150
 138	1.3632e+01	5.4560	15.115036	0.000365	3.649864	1.236607	0.000146
 139	1.3731e+01	5.4993	15.308819	0.000487	4.866486	1.648810	0.000195
 140	1.3831e+01	5.5442	15.498564	0.000477	4.765101	1.614460	0.000191
 141	1.3930e+01	5.5859	15.611604	0.000284	2.838783	0.961806	0.000114
 142	1.4030e+01	5.6148	15.785201	0.000436	4.359560	1.477059	0.000174
 143	1.4129e+01	5.6517	15.946686	0.000406	4.055405	1.374008	0.000162
 144	1.4229e+01	5.6950	16.132394	0.000466	4.663715	1.580110	0.000187
 145	1.4328e+01	5.7399	16.322140	0.000477	4.765101	1.614460	0.000191
 146	1.4428e+01	5.7881	16.471514	0.000375	3.751249	1.270958	0.000150
 147	1.4527e+01	5.8137	16.616851	0.000365	3.649864	1.236607	0.000146
 148	1.4627e+01	5.8458	16.762188	0.000365	3.649864	1.236607	0.000146
 149	1.4726e+01	5.9020	16.943859	0.000456	4.562330	1.545759	0.000183
 150	1.4825e+01	5.9357	17.149753	0.000517	5.170641	1.751861	0.000207
 151	1.4925e+01	5.9790	17.282978	0.000335	3.345709	1.133557	0.000134
 152	1.5024e+01	6.0127	17.460612	0.000446	4.460945	1.511409	0.000179
 153	1.5124e+01	6.0608	17.634209	0.000436	4.359560	1.477059	0.000174
 154	1.5223e+01	6.0913	17.771472	0.000345	3.447094	1.167907	0.000138
 155	1.5323e+01	6.1394	17.969291	0.000497	4.967871	1.683160	0.000199
 156	1.5422e+01	6.1731	18.142888	0.000436	4.359560	1.477059	0.000174
 157	1.5522e+01	6.2132	18.316485	0.000436	4.359560	1.477059	0.000174
 158	1.5621e+01	6.2645	18.465859	0.000375	3.751249	1.270958	0.000150
 159	1.5721e+01	6.2902	18.655604	0.000477	4.765101	1.614460	0.000191
 160	1.5820e+01	6.3319	18.821127	0.000416	4.156790	1.408359	0.000166
 161	1.5920e+01	6.3736	18.966464	0.000365	3.649864	1.236607	0.000146
 162	1.6020e+01	6.4121	19.123912	0.000395	3.954020	1.339658	0.000158
 163	1.6119e+01	6.4506	19.273286	0.000375	3.751249	1.270958	0.000150
 164	1.6218e+01	6.4971	19.418623	0.000365	3.649864	1.236607	0.000146
 165	1.6318e+01	6.5356	19.604331	0.000466	4.663715	1.580110	0.000187
 166	1.6418e+01	6.5661	19.769854	0.000416	4.156790	1.408359	0.000166
 167	1.6517e+01	6.6110	19.899042	0.000324	3.244324	1.099207	0.000130
 168	1.6616e+01	6.6495	20.100899	0.000507	5.069256	1.717510	0.000203
 169	1.6716e+01	6.6784	20.266421	0.000416	4.156790	1.408359	0.000166
 170	1.6816e+01	6.7314	20.456167	0.000477	4.765101	1.614460	0.000191
 171	1.6915e+01	6.7699	20.577281	0.000304	3.041554	1.030506	0.000122
 172	1.7015e+01	6.8100	20.738766	0.000406	4.055405	1.374008	0.000162
 173	1.7114e+01	6.8501	20.896215	0.000395	3.954020	1.339658	0.000158
 174	1.7213e+01	6.8902	21.045589	0.000375	3.751249	1.270958	0.000150
 175	1.7313e+01	6.9223	21.223223	0.000446	4.460945	1.511409	0.000179
 176	1.7413e+01	6.9768	21.352411	0.000324	3.244324	1.099207	0.000130
 177	1.7512e+01	7.0121	21.534082	0.000456	4.562330	1.545759	0.000183
 178	1.7611e+01	7.0458	21.695567	0.000406	4.055405	1.374008	0.000162
 179	1.7711e+01	7.0859	21.832830	0.000345	3.447094	1.167907	0.000138
 180	1.7811e+01	7.1420	22.010464	0.000446	4.460945	1.511409	0.000179
 181	1.7910e+01	7.1757	22.167912	0.000395	3.954020	1.339658	0.000158
 182	1.8009e+01	7.2126	22.333435	0.000416	4.156790	1.408359	0.000166
 183	1.8109e+01	7.2479	22.531255	0.000497	4.967871	1.683160	0.000199
 184	1.8209e+01	7.2961	22.648331	0.000294	2.940168	0.996156	0.000118
 185	1.8308e+01	7.3313	22.862300	0.000537	5.373411	1.820561	0.000215
 186	1.8407e+01	7.3682	22.967265	0.000264	2.636013	0.893105	0.000105
 187	1.8507e+01	7.4100	23.152973	0.000466	4.663715	1.580110	0.000187
 188	1.8607e+01	7.4517	23.310422	0.000395	3.954020	1.339658	0.000158
 189	1.8706e+01	7.4870	23.471907	0.000406	4.055405	1.374008	0.000162
 190	1.8805e+01	7.5335	23.637430	0.000416	4.156790	1.408359	0.000166
 191	1.8905e+01	7.5688	23.774692	0.000345	3.447094	1.167907	0.000138
 192	1.9005e+01	7.6057	23.915992	0.000355	3.548479	1.202257	0.000142
 193	1.9104e+01	7.6474	24.146109	0.000578	5.778952	1.957962	0.000231
 194	1.9203e+01	7.6891	24.259149	0.000284	2.838783	0.961806	0.000114
 195	1.9303e+01	7.7276	24.444857	0.000466	4.663715	1.580110	0.000187
 196	1.9402e+01	7.7709	24.561934	0.000294	2.940168	0.996156	0.000118
 197	1.9502e+01	7.8014	24.707271	0.000365	3.649864	1.236607	0.000146
 198	1.9602e+01	7.8511	24.892979	0.000466	4.663715	1.580110	0.000187
 199	1.9701e+01	7.8832	25.026204	0.000335	3.345709	1.133557	0.000134
 200	1.9800e+01	7.9249	25.215950	0.000477	4.765101	1.614460	0.000191
 201	1.9900e+01	7.9682	25.377435	0.000406	4.055405	1.374008	0.000162
 202	2.0000e+01	8.0067	25.530846	0.000385	3.852634	1.305308	0.000154
 203	2.0099e+01	8.0484	25.688295	0.000395	3.954020	1.339658	0.000158
 204	2.0198e+01	8.0821	25.829594	0.000355	3.548479	1.202257	0.000142
 205	2.0298e+01	8.1238	25.987043	0.000395	3.954020	1.339658	0.000158
 206	2.0398e+01	8.1559	26.156602	0.000426	4.258175	1.442709	0.000170
 207	2.0497e+01	8.2040	26.322125	0.000416	4.156790	1.408359	0.000166
 208	2.0596e+01	8.2458	26.483610	0.000406	4.055405	1.374008	0.000162
 209	2.0696e+01	8.2891	26.641059	0.000395	3.954020	1.339658	0.000158
 210	2.0796e+01	8.3324	26.818693	0.000446	4.460945	1.511409	0.000179
 211	2.0895e+01	8.3741	26.980178	0.000406	4.055405	1.374008	0.000162
 212	2.0994e+01	8.4014	27.125515	0.000365	3.649864	1.236607	0.000146
 213	2.1094e+01	8.4399	27.303149	0.000446	4.460945	1.511409	0.000179
 214	2.1194e+01	8.4832	27.412152	0.000274	2.737398	0.927456	0.000110
 215	2.1293e+01	8.5249	27.601897	0.000477	4.765101	1.614460	0.000191
 216	2.1392e+01	8.5682	27.755308	0.000385	3.852634	1.305308	0.000154
 217	2.1492e+01	8.5987	27.932942	0.000446	4.460945	1.511409	0.000179
 218	2.1591e+01	8.6452	28.086353	0.000385	3.852634	1.305308	0.000154
 219	2.1691e+01	8.6837	28.207467	0.000304	3.041554	1.030506	0.000122
 220	2.1791e+01	8.7222	28.393176	0.000466	4.663715	1.580110	0.000187
 221	2.1890e+01	8.7655	28.574847	0.000456	4.562330	1.545759	0.000183
 222	2.1989e+01	8.7960	28.736332	0.000406	4.055405	1.374008	0.000162
 223	2.2089e+01	8.8361	28.873595	0.000345	3.447094	1.167907	0.000138
 224	2.2189e+01	8.8874	29.071414	0.000497	4.967871	1.683160	0.000199
 225	2.2288e+01	8.9211	29.176380	0.000264	2.636013	0.893105	0.000105
 226	2.2387e+01	8.9612	29.358051	0.000456	4.562330	1.545759	0.000183
 227	2.2487e+01	9.0126	29.499351	0.000355	3.548479	1.202257	0.000142
 228	2.2587e+01	9.0350	29.676985	0.000446	4.460945	1.511409	0.000179
 229	2.2686e+01	9.0816	29.846545	0.000426	4.258175	1.442709	0.000170
 230	2.2785e+01	9.1185	29.987844	0.000355	3.548479	1.202257	0.000142
 231	2.2885e+01	9.1554	30.145293	0.000395	3.954020	1.339658	0.000158
 232	2.2985e+01	9.2003	30.310815	0.000416	4.156790	1.408359	0.000166
 233	2.3084e+01	9.2420	30.448078	0.000345	3.447094	1.167907	0.000138
 234	2.3183e+01	9.2837	30.629749	0.000456	4.562330	1.545759	0.000183
 235	2.3283e+01	9.3334	30.775086	0.000365	3.649864	1.236607	0.000146
 236	2.3383e+01	9.3623	30.944645	0.000426	4.258175	1.442709	0.000170
 237	2.3482e+01	9.4024	31.122279	0.000446	4.460945	1.511409	0.000179
 238	2.3581e+01	9.4425	31.263579	0.000355	3.548479	1.202257	0.000142
 239	2.3681e+01	9.4842	31.433139	0.000426	4.258175	1.442709	0.000170
 240	2.3780e+01	9.5163	31.590587	0.000395	3.954020	1.339658	0.000158
 241	2.3880e+01	9.5532	31.743998	0.000385	3.852634	1.305308	0.000154
 242	2.3980e+01	9.5997	31.877224	0.000335	3.345709	1.133557	0.000134
 243	2.4079e+01	9.6334	32.026598	0.000375	3.751249	1.270958	0.000150
 244	2.4178e+01	9.6848	32.200195	0.000436	4.359560	1.477059	0.000174
 245	2.4278e+01	9.7249	32.385903	0.000466	4.663715	1.580110	0.000187
 246	2.4378e+01	9.7553	32.498943	0.000284	2.838783	0.961806	0.000114
 247	2.4477e+01	9.8003	32.644280	0.000365	3.649864	1.236607	0.000146
 248	2.4576e+01	9.8291	32.801728	0.000395	3.954020	1.339658	0.000158
 249	2.4676e+01	9.8885	32.979362	0.000446	4.460945	1.511409	0.000179
 250	2.4776e+01	9.9126	33.136810	0.000395	3.954020	1.339658	0.000158
 251	2.4875e+01	9.9478	33.302333	0.000416	4.156790	1.408359	0.000166
 252	2.4974e+01	9.9912	33.439595	0.000345	3.447094	1.167907	0.000138
 253	2.5074e+01	10.0361	33.588969	0.000375	3.751249	1.270958	0.000150
 254	2.5174e+01	10.0714	33.758529	0.000426	4.258175	1.442709	0.000170
 255	2.5273e+01	10.1259	33.920014	0.000406	4.055405	1.374008	0.000162
 256	2.5372e+01	10.1548	34.077463	0.000395	3.954020	1.339658	0.000158
 257	2.5472e+01	10.1997	34.247022	0.000426	4.258175	1.442709	0.000170
 258	2.5572e+01	10.2350	34.384285	0.000345	3.447094	1.167907	0.000138
 259	2.5671e+01	10.2799	34.578068	0.000487	4.866486	1.648810	0.000195
 260	2.5770e+01	10.3120	34.751664	0.000436	4.359560	1.477059	0.000174
 261	2.5870e+01	10.3666	34.884890	0.000335	3.345709	1.133557	0.000134
 262	2.5970e+01	10.3922	35.030227	0.000365	3.649864	1.236607	0.000146
 263	2.6069e+01	10.4403	35.232084	0.000507	5.069256	1.717510	0.000203
 264	2.6169e+01	10.4805	35.385495	0.000385	3.852634	1.305308	0.000154
 265	2.6268e+01	10.5190	35.518720	0.000335	3.345709	1.133557	0.000134
 266	2.6367e+01	10.5559	35.692317	0.000436	4.359560	1.477059	0.000174
 267	2.6467e+01	10.5960	35.809394	0.000294	2.940168	0.996156	0.000118
 268	2.6567e+01	10.6409	36.007214	0.000497	4.967871	1.683160	0.000199
 269	2.6666e+01	10.6746	36.176773	0.000426	4.258175	1.442709	0.000170
 270	2.6765e+01	10.7195	36.358444	0.000456	4.562330	1.545759	0.000183
 271	2.6865e+01	10.7516	36.479559	0.000304	3.041554	1.030506	0.000122
 272	2.6965e+01	10.8045	36.677378	0.000497	4.967871	1.683160	0.000199
 273	2.7064e+01	10.8414	36.818678	0.000355	3.548479	1.202257	0.000142
 274	2.7163e+01	10.8847	36.972089	0.000385	3.852634	1.305308	0.000154
 275	2.7263e+01	10.9120	37.101277	0.000324	3.244324	1.099207	0.000130
 276	2.7363e+01	10.9505	37.331394	0.000578	5.778952	1.957962	0.000231
 277	2.7462e+01	10.9954	37.456545	0.000314	3.142939	1.064856	0.000126
 278	2.7561e+01	11.0275	37.589771	0.000335	3.345709	1.133557	0.000134
 279	2.7661e+01	11.0676	37.767405	0.000446	4.460945	1.511409	0.000179
 280	2.7761e+01	11.1286	37.932927	0.000416	4.156790	1.408359	0.000166
 281	2.7860e+01	11.1606	38.078264	0.000365	3.649864	1.236607	0.000146
 282	2.7959e+01	11.1927	38.239750	0.000406	4.055405	1.374008	0.000162
 283	2.8059e+01	11.2328	38.393161	0.000385	3.852634	1.305308	0.000154
 284	2.8159e+01	11.2729	38.570795	0.000446	4.460945	1.511409	0.000179
 285	2.8258e+01	11.3082	38.704020	0.000335	3.345709	1.133557	0.000134
 286	2.8358e+01	11.3499	38.833209	0.000324	3.244324	1.099207	0.000130
 287	2.8457e+01	11.3949	39.018917	0.000466	4.663715	1.580110	0.000187
 288	2.8556e+01	11.4350	39.172328	0.000385	3.852634	1.305308	0.000154
 289	2.8656e+01	11.4719	39.297479	0.000314	3.142939	1.064856	0.000126
 290	2.8756e+01	11.5120	39.495299	0.000497	4.967871	1.683160	0.000199
 291	2.8855e+01	11.5521	39.640636	0.000365	3.649864	1.236607	0.000146
 292	2.8954e+01	11.5938	39.790010	0.000375	3.751249	1.270958	0.000150
 293	2.9054e+01	11.6355	39.951495	0.000406	4.055405	1.374008	0.000162
 294	2.9154e+01	11.6644	40.137204	0.000466	4.663715	1.580110	0.000187
 295	2.9253e+01	11.7157	40.254280	0.000294	2.940168	0.996156	0.000118
 296	2.9352e+01	11.7478	40.427877	0.000436	4.359560	1.477059	0.000174
 297	2.9452e+01	11.7943	40.553028	0.000314	3.142939	1.064856	0.000126
 298	2.9552e+01	11.8296	40.686254	0.000335	3.345709	1.133557	0.000134
 299	2.9651e+01	11.8649	40.908296	0.000558	5.576181	1.889261	0.000223
 300	2.9750e+01	11.9211	41.053633	0.000365	3.649864	1.236607	0.000146
 301	2.9850e+01	11.9563	41.190896	0.000345	3.447094	1.167907	0.000138
 302	2.9950e+01	11.9900	41.352381	0.000406	4.055405	1.374008	0.000162
 303	3.0049e+01	12.0366	41.493681	0.000355	3.548479	1.202257	0.000142
 304	3.0148e+01	12.0590	41.671315	0.000446	4.460945	1.511409	0.000179
 305	3.0248e+01	12.1087	41.828763	0.000395	3.954020	1.339658	0.000158
 306	3.0348e+01	12.1456	41.986212	0.000395	3.954020	1.339658	0.000158
 307	3.0447e+01	12.1858	42.111363	0.000314	3.142939	1.064856	0.000126
 308	3.0547e+01	12.2243	42.268811	0.000395	3.954020	1.339658	0.000158
 309	3.0646e+01	12.2676	42.442408	0.000436	4.359560	1.477059	0.000174
 310	3.0745e+01	12.3141	42.567559	0.000314	3.142939	1.064856	0.000126
 311	3.0845e+01	12.3478	42.741156	0.000436	4.359560	1.477059	0.000174
 312	3.0945e+01	12.3863	42.918790	0.000446	4.460945	1.511409	0.000179
 313	3.1044e+01	12.4328	43.068164	0.000375	3.751249	1.270958	0.000150
 314	3.1143e+01	12.4697	43.209464	0.000355	3.548479	1.202257	0.000142
 315	3.1243e+01	12.5082	43.358838	0.000375	3.751249	1.270958	0.000150
 316	3.1343e+01	12.5483	43.548583	0.000477	4.765101	1.614460	0.000191
 317	3.1442e+01	12.5980	43.677772	0.000324	3.244324	1.099207	0.000130
 318	3.1541e+01	12.6205	43.839257	0.000406	4.055405	1.374008	0.000162
 319	3.1641e+01	12.6622	44.008817	0.000426	4.258175	1.442709	0.000170
 320	3.1741e+01	12.7055	44.154154	0.000365	3.649864	1.236607	0.000146
 321	3.1840e+01	12.7408	44.356010	0.000507	5.069256	1.717510	0.000203
 322	3.1939e+01	12.7857	44.497310	0.000355	3.548479	1.202257	0.000142
 323	3.2039e+01	12.8307	44.622461	0.000314	3.142939	1.064856	0.000126
 324	3.2139e+01	12.8724	44.792021	0.000426	4.258175	1.442709	0.000170
 325	3.2238e+01	12.9125	44.921209	0.000324	3.244324	1.099207	0.000130
 326	3.2337e+01	12.9542	45.054435	0.000335	3.345709	1.133557	0.000134
 327	3.2437e+01	12.9863	45.199772	0.000365	3.649864	1.236607	0.000146
 328	3.2536e+01	13.0200	45.361257	0.000406	4.055405	1.374008	0.000162
 329	3.2636e+01	13.0552	45.551003	0.000477	4.765101	1.614460	0.000191
 330	3.2736e+01	13.1098	45.692302	0.000355	3.548479	1.202257	0.000142
 331	3.2835e+01	13.1483	45.825528	0.000335	3.345709	1.133557	0.000134
 332	3.2934e+01	13.1788	45.978939	0.000385	3.852634	1.305308	0.000154
 333	3.3034e+01	13.2237	46.136387	0.000395	3.954020	1.339658	0.000158
 334	3.3133e+01	13.2590	46.326133	0.000477	4.765101	1.614460	0.000191
 335	3.3233e+01	13.2959	46.427061	0.000253	2.534628	0.858755	0.000101
 336	3.3333e+01	13.3456	46.592584	0.000416	4.156790	1.408359	0.000166
 337	3.3432e+01	13.3857	46.754069	0.000406	4.055405	1.374008	0.000162
 338	3.3532e+01	13.4226	46.875183	0.000304	3.041554	1.030506	0.000122
 339	3.3631e+01	13.4643	47.064928	0.000477	4.765101	1.614460	0.000191
 340	3.3730e+01	13.4996	47.186043	0.000304	3.041554	1.030506	0.000122
 341	3.3830e+01	13.5381	47.363676	0.000446	4.460945	1.511409	0.000179
 342	3.3929e+01	13.5830	47.488828	0.000314	3.142939	1.064856	0.000126
 343	3.4029e+01	13.6231	47.662425	0.000436	4.359560	1.477059	0.000174
 344	3.4129e+01	13.6681	47.795650	0.000335	3.345709	1.133557	0.000134
 345	3.4228e+01	13.6953	47.928875	0.000335	3.345709	1.133557	0.000134
 346	3.4328e+01	13.7419	48.094398	0.000416	4.156790	1.408359	0.000166
 347	3.4427e+01	13.7836	48.284143	0.000477	4.765101	1.614460	0.000191
 348	3.4526e+01	13.8124	48.409295	0.000314	3.142939	1.064856	0.000126
 349	3.4626e+01	13.8526	48.494074	0.000213	2.129087	0.721354	0.000085
 350	3.4725e+01	13.9039	48.687857	0.000487	4.866486	1.648810	0.000195
 351	3.4825e+01	13.9424	48.869528	0.000456	4.562330	1.545759	0.000183
 352	3.4925e+01	13.9761	48.998716	0.000324	3.244324	1.099207	0.000130
 353	3.5024e+01	14.0306	49.168276	0.000426	4.258175	1.442709	0.000170
 354	3.5123e+01	14.0643	49.297464	0.000324	3.244324	1.099207	0.000130
 355	3.5223e+01	14.1028	49.406467	0.000274	2.737398	0.927456	0.000110
 356	3.5322e+01	14.1461	49.580064	0.000436	4.359560	1.477059	0.000174
 357	3.5422e+01	14.1750	49.717327	0.000345	3.447094	1.167907	0.000138
 358	3.5522e+01	14.2247	49.894961	0.000446	4.460945	1.511409	0.000179
 359	3.5621e+01	14.2552	50.012038	0.000294	2.940168	0.996156	0.000118
 360	3.5721e+01	14.3017	50.157374	0.000365	3.649864	1.236607	0.000146
 361	3.5820e+01	14.3467	50.318860	0.000406	4.055405	1.374008	0.000162
 362	3.5919e+01	14.3836	50.460160	0.000355	3.548479	1.202257	0.000142
 363	3.6019e+01	14.4172	50.617608	0.000395	3.954020	1.339658	0.000158
 364	3.6118e+01	14.4638	50.750833	0.000335	3.345709	1.133557	0.000134
 365	3.6218e+01	14.4942	50.896170	0.000365	3.649864	1.236607	0.000146
 366	3.6318e+01	14.5263	51.057656	0.000406	4.055405	1.374008	0.000162
 367	3.6417e+01	14.5857	51.215104	0.000395	3.954020	1.339658	0.000158
 368	3.6517e+01	14.6178	51.340255	0.000314	3.142939	1.064856	0.000126
 369	3.6616e+01	14.6563	51.505778	0.000416	4.156790	1.408359	0.000166
 370	3.6715e+01	14.6996	51.659189	0.000385	3.852634	1.305308	0.000154
 371	3.6815e+01	14.7461	51.768192	0.000274	2.737398	0.927456	0.000110
 372	3.6914e+01	14.7830	51.929677	0.000406	4.055405	1.374008	0.000162
 373	3.7014e+01	14.8167	52.095200	0.000416	4.156790	1.408359	0.000166
 374	3.7114e+01	14.8552	52.268796	0.000436	4.359560	1.477059	0.000174
 375	3.7213e+01	14.8953	52.426245	0.000395	3.954020	1.339658	0.000158
 376	3.7313e+01	14.9354	52.559470	0.000335	3.345709	1.133557	0.000134
 377	3.7412e+01	14.9771	52.696733	0.000345	3.447094	1.167907	0.000138
 378	3.7511e+01	15.0108	52.838033	0.000355	3.548479	1.202257	0.000142
 379	3.7611e+01	15.0525	53.027778	0.000477	4.765101	1.614460	0.000191
 380	3.7711e+01	15.0942	53.124669	0.000243	2.433243	0.824405	0.000097
 381	3.7810e+01	15.1359	53.310377	0.000466	4.663715	1.580110	0.000187
 382	3.7910e+01	15.1776	53.447640	0.000345	3.447094	1.167907	0.000138
 383	3.8009e+01	15.2145	53.605088	0.000395	3.954020	1.339658	0.000158
 384	3.8108e+01	15.2546	53.738314	0.000335	3.345709	1.133557	0.000134
 385	3.8208e+01	15.2899	53.883651	0.000365	3.649864	1.236607	0.000146
 386	3.8307e+01	15.3397	54.061285	0.000446	4.460945	1.511409	0.000179
 387	3.8407e+01	15.3814	54.194510	0.000335	3.345709	1.133557	0.000134
 388	3.8507e+01	15.4199	54.323698	0.000324	3.244324	1.099207	0.000130
 389	3.8606e+01	15.4568	54.493258	0.000426	4.258175	1.442709	0.000170
 390	3.8706e+01	15.4985	54.642632	0.000375	3.751249	1.270958	0.000150
 391	3.8805e+01	15.5274	54.800081	0.000395	3.954020	1.339658	0.000158
 392	3.8904e+01	15.5723	54.929269	0.000324	3.244324	1.099207	0.000130
 393	3.9004e+01	15.6076	55.074606	0.000365	3.649864	1.236607	0.000146
 394	3.9103e+01	15.6541	55.256277	0.000456	4.562330	1.545759	0.000183
 395	3.9203e+01	15.6910	55.385465	0.000324	3.244324	1.099207	0.000130
 396	3.9303e+01	15.7407	55.559062	0.000436	4.359560	1.477059	0.000174
 397	3.9402e+01	15.7792	55.700362	0.000355	3.548479	1.202257	0.000142
 398	3.9502e+01	15.8209	55.809364	0.000274	2.737398	0.927456	0.000110
 399	3.9601e+01	15.8530	55.946627	0.000345	3.447094	1.167907	0.000138
 400	3.9700e+01	15.8931	56.075815	0.000324	3.244324	1.099207	0.000130
 401	3.9800e+01	15.9348	56.221152	0.000365	3.649864	1.236607	0.000146
 402	3.9900e+01	15.9717	56.406861	0.000466	4.663715	1.580110	0.000187
 403	3.9999e+01	16.0151	56.540086	0.000335	3.345709	1.133557	0.000134
 404	4.0099e+01	16.0552	56.713683	0.000436	4.359560	1.477059	0.000174
 405	4.0198e+01	16.0937	56.842871	0.000324	3.244324	1.099207	0.000130
 406	4.0297e+01	16.1193	56.968022	0.000314	3.142939	1.064856	0.000126
 407	4.0397e+01	16.1723	57.149694	0.000456	4.562330	1.545759	0.000183
 408	4.0496e+01	16.2060	57.278882	0.000324	3.244324	1.099207	0.000130
 409	4.0596e+01	16.2493	57.408070	0.000324	3.244324	1.099207	0.000130
 410	4.0696e+01	16.2814	57.541296	0.000335	3.345709	1.133557	0.000134
 411	4.0795e+01	16.3359	57.739115	0.000497	4.967871	1.683160	0.000199
 412	4.0895e+01	16.3728	57.860229	0.000304	3.041554	1.030506	0.000122
 413	4.0994e+01	16.4113	57.993455	0.000335	3.345709	1.133557	0.000134
 414	4.1093e+01	16.4578	58.154940	0.000406	4.055405	1.374008	0.000162
 415	4.1193e+01	16.4867	58.316426	0.000406	4.055405	1.374008	0.000162
 416	4.1292e+01	16.5300	58.441577	0.000314	3.142939	1.064856	0.000126
 417	4.1392e+01	16.5701	58.599025	0.000395	3.954020	1.339658	0.000158
 418	4.1492e+01	16.6054	58.752436	0.000385	3.852634	1.305308	0.000154
 419	4.1591e+01	16.6519	58.901810	0.000375	3.751249	1.270958	0.000150
 420	4.1691e+01	16.6969	59.071370	0.000426	4.258175	1.442709	0.000170
 421	4.1790e+01	16.7321	59.172299	0.000253	2.534628	0.858755	0.000101
 422	4.1889e+01	16.7642	59.358007	0.000466	4.663715	1.580110	0.000187
 423	4.1989e+01	16.8059	59.475084	0.000294	2.940168	0.996156	0.000118
 424	4.2089e+01	16.8557	59.628495	0.000385	3.852634	1.305308	0.000154
 425	4.2188e+01	16.8894	59.822277	0.000487	4.866486	1.648810	0.000195
 426	4.2288e+01	16.9359	59.931280	0.000274	2.737398	0.927456	0.000110
 427	4.2387e+01	16.9776	60.084691	0.000385	3.852634	1.305308	0.000154
 428	4.2486e+01	17.0001	60.274437	0.000477	4.765101	1.614460	0.000191
 429	4.2586e+01	17.0450	60.375365	0.000253	2.534628	0.858755	0.000101
 430	4.2685e+01	17.0915	60.552999	0.000446	4.460945	1.511409	0.000179
 431	4.2785e+01	17.1220	60.678150	0.000314	3.142939	1.064856	0.000126
 432	4.2885e+01	17.1669	60.859821	0.000456	4.562330	1.545759	0.000183
 433	4.2984e+01	17.2118	61.009195	0.000375	3.751249	1.270958	0.000150
 434	4.3084e+01	17.2391	61.150495	0.000355	3.548479	1.202257	0.000142
 435	4.3183e+01	17.2872	61.291795	0.000355	3.548479	1.202257	0.000142
 436	4.3282e+01	17.3257	61.433095	0.000355	3.548479	1.202257	0.000142
 437	4.3382e+01	17.3658	61.582469	0.000375	3.751249	1.270958	0.000150
 438	4.3481e+01	17.4027	61.760103	0.000446	4.460945	1.511409	0.000179
 439	4.3581e+01	17.4508	61.881217	0.000304	3.041554	1.030506	0.000122
 440	4.3681e+01	17.4829	62.046739	0.000416	4.156790	1.408359	0.000166
 441	4.3780e+01	17.5230	62.179965	0.000335	3.345709	1.133557	0.000134
 442	4.3880e+01	17.5631	62.349524	0.000426	4.258175	1.442709	0.000170
 443	4.3979e+01	17.6065	62.482750	0.000335	3.345709	1.133557	0.000134
 444	4.4078e+01	17.6450	62.620012	0.000345	3.447094	1.167907	0.000138
 445	4.4178e+01	17.6883	62.797646	0.000446	4.460945	1.511409	0.000179
 446	4.4278e+01	17.7236	62.942983	0.000365	3.649864	1.236607	0.000146
 447	4.4377e+01	17.7589	63.084283	0.000355	3.548479	1.202257	0.000142
 448	4.4477e+01	17.8134	63.257880	0.000436	4.359560	1.477059	0.000174
 449	4.4576e+01	17.8471	63.370920	0.000284	2.838783	0.961806	0.000114
 450	4.4675e+01	17.8856	63.524331	0.000385	3.852634	1.305308	0.000154
 451	4.4775e+01	17.9257	63.689853	0.000416	4.156790	1.408359	0.000166
 452	4.4874e+01	17.9770	63.851339	0.000406	4.055405	1.374008	0.000162
 453	4.4974e+01	17.9979	63.988601	0.000345	3.447094	1.167907	0.000138
 454	4.5074e+01	18.0428	64.125864	0.000345	3.447094	1.167907	0.000138
 455	4.5173e+01	18.0829	64.234867	0.000274	2.737398	0.927456	0.000110
 456	4.5273e+01	18.1278	64.412501	0.000446	4.460945	1.511409	0.000179
 457	4.5372e+01	18.1727	64.582060	0.000426	4.258175	1.442709	0.000170
 458	4.5471e+01	18.2048	64.735472	0.000385	3.852634	1.305308	0.000154
 459	4.5571e+01	18.2498	64.860623	0.000314	3.142939	1.064856	0.000126
 460	4.5670e+01	18.2883	64.985774	0.000314	3.142939	1.064856	0.000126
 461	4.5770e+01	18.3155	65.151297	0.000416	4.156790	1.408359	0.000166
 462	4.5870e+01	18.3604	65.280485	0.000324	3.244324	1.099207	0.000130
 463	4.5969e+01	18.4086	65.462156	0.000456	4.562330	1.545759	0.000183
 464	4.6069e+01	18.4487	65.611530	0.000375	3.751249	1.270958	0.000150
 465	4.6168e+01	18.4872	65.748793	0.000345	3.447094	1.167907	0.000138
 466	4.6267e+01	18.5193	65.886055	0.000345	3.447094	1.167907	0.000138
 467	4.6367e+01	18.5610	66.023318	0.000345	3.447094	1.167907	0.000138
 468	4.6467e+01	18.6027	66.196915	0.000436	4.359560	1.477059	0.000174
 469	4.6566e+01	18.6540	66.301880	0.000264	2.636013	0.893105	0.000105
 470	4.6666e+01	18.6893	66.443180	0.000355	3.548479	1.202257	0.000142
 471	4.6765e+01	18.7198	66.584480	0.000355	3.548479	1.202257	0.000142
 472	4.6864e+01	18.7583	66.766151	0.000456	4.562330	1.545759	0.000183
 473	4.6964e+01	18.8000	66.907451	0.000355	3.548479	1.202257	0.000142
 474	4.7063e+01	18.8321	67.032602	0.000314	3.142939	1.064856	0.000126
 475	4.7163e+01	18.8834	67.165827	0.000335	3.345709	1.133557	0.000134
 476	4.7263e+01	18.9235	67.363647	0.000497	4.967871	1.683160	0.000199
 477	4.7362e+01	18.9733	67.480724	0.000294	2.940168	0.996156	0.000118
 478	4.7462e+01	19.0086	67.626061	0.000365	3.649864	1.236607	0.000146
 479	4.7561e+01	19.0358	67.767360	0.000355	3.548479	1.202257	0.000142
 480	4.7660e+01	19.0823	67.892512	0.000314	3.142939	1.064856	0.000126
 481	4.7760e+01	19.1225	68.053997	0.000406	4.055405	1.374008	0.000162
 482	4.7859e+01	19.1545	68.195297	0.000355	3.548479	1.202257	0.000142
 483	4.7959e+01	19.1979	68.348708	0.000385	3.852634	1.305308	0.000154
 484	4.8059e+01	19.2348	68.518268	0.000426	4.258175	1.442709	0.000170
 485	4.8158e+01	19.2813	68.667642	0.000375	3.751249	1.270958	0.000150
 486	4.8258e+01	19.3198	68.780682	0.000284	2.838783	0.961806	0.000114
 487	4.8357e+01	19.3631	68.921981	0.000355	3.548479	1.202257	0.000142
 488	4.8456e+01	19.4016	69.063281	0.000355	3.548479	1.202257	0.000142
 489	4.8556e+01	19.4401	69.212655	0.000375	3.751249	1.270958	0.000150
 490	4.8656e+01	19.4786	69.382215	0.000426	4.258175	1.442709	0.000170
 491	4.8755e+01	19.5203	69.543700	0.000406	4.055405	1.374008	0.000162
 492	4.8855e+01	19.5652	69.656740	0.000284	2.838783	0.961806	0.000114
 493	4.8954e+01	19.5973	69.830337	0.000436	4.359560	1.477059	0.000174
 494	4.9053e+01	19.6358	69.975674	0.000365	3.649864	1.236607	0.000146
 495	4.9153e+01	19.6839	70.092751	0.000294	2.940168	0.996156	0.000118
 496	4.9252e+01	19.7160	70.246162	0.000385	3.852634	1.305308	0.000154
 497	4.9352e+01	19.7545	70.379387	0.000335	3.345709	1.133557	0.000134
 498	4.9452e+01	19.8075	70.520687	0.000355	3.548479	1.202257	0.000142
 499	4.9551e+01	19.8395	70.657950	0.000345	3.447094	1.167907	0.000138
 500	4.9651e+01	19.8716	70.819435	0.000406	4.055405	1.374008	0.000162
 501	4.9750e+01	19.9149	70.976883	0.000395	3.954020	1.339658	0.000158
 502	4.9849e+01	19.9599	71.106072	0.000324	3.244324	1.099207	0.000130
 503	4.9949e+01	20.0016	71.231223	0.000314	3.142939	1.064856	0.000126
 504	5.0048e+01	19.9615	71.150480	0.000203	2.027702	0.687004	-0.000081
 505	5.0148e+01	19.9182	71.069738	0.000203	2.027702	0.687004	-0.000081
 506	5.0248e+01	19.8684	70.940549	0.000324	3.244324	1.099207	-0.000130
 507	5.0347e+01	19.8267	70.819435	0.000304	3.041554	1.030506	-0.000122
 508	5.0447e+01	19.7898	70.710432	0.000274	2.737398	0.927456	-0.000110
 509	5.0546e+01	19.7625	70.589318	0.000304	3.041554	1.030506	-0.000122
 510	5.0645e+01	19.7192	70.484353	0.000264	2.636013	0.893105	-0.000105
 511	5.0745e+01	19.6807	70.383424	0.000253	2.534628	0.858755	-0.000101
 512	5.0844e+01	19.6422	70.270385	0.000284	2.838783	0.961806	-0.000114
 513	5.0944e+01	19.6005	70.161382	0.000274	2.737398	0.927456	-0.000110
 514	5.1044e+01	19.5588	70.028157	0.000335	3.345709	1.133557	-0.000134
 515	5.1143e+01	19.5203	69.903005	0.000314	3.142939	1.064856	-0.000126
 516	5.1242e+01	19.4786	69.798040	0.000264	2.636013	0.893105	-0.000105
 517	5.1342e+01	19.4337	69.668851	0.000324	3.244324	1.099207	-0.000130
 518	5.1441e+01	19.4032	69.575997	0.000233	2.331858	0.790055	-0.000093
 519	5.1541e+01	19.3567	69.475069	0.000253	2.534628	0.858755	-0.000101
 520	5.1641e+01	19.3166	69.313583	0.000406	4.055405	1.374008	-0.000162
 521	5.1740e+01	19.2733	69.236878	0.000193	1.926317	0.652654	-0.000077
 522	5.1840e+01	19.2396	69.115764	0.000304	3.041554	1.030506	-0.000122
 523	5.1939e+01	19.2043	69.002724	0.000284	2.838783	0.961806	-0.000114
 524	5.2038e+01	19.1594	68.829127	0.000436	4.359560	1.477059	-0.000174
 525	5.2138e+01	19.1241	68.776644	0.000132	1.318007	0.446553	-0.000053
 526	5.2237e+01	19.0888	68.651493	0.000314	3.142939	1.064856	-0.000126
 527	5.2337e+01	19.0471	68.494045	0.000395	3.954020	1.339658	-0.000158
 528	5.2437e+01	19.0021	68.360819	0.000335	3.345709	1.133557	-0.000134
 529	5.2536e+01	18.9636	68.235668	0.000314	3.142939	1.064856	-0.000126
 530	5.2636e+01	18.9187	68.110517	0.000314	3.142939	1.064856	-0.000126
 531	5.2735e+01	18.8722	68.021700	0.000223	2.230473	0.755705	-0.000089
 532	5.2834e+01	18.8401	67.880400	0.000355	3.548479	1.202257	-0.000142
 533	5.2934e+01	18.8000	67.747175	0.000335	3.345709	1.133557	-0.000134
 534	5.3033e+01	18.7519	67.638172	0.000274	2.737398	0.927456	-0.000110
 535	5.3133e+01	18.7198	67.525132	0.000284	2.838783	0.961806	-0.000114
 536	5.3233e+01	18.6813	67.408055	0.000294	2.940168	0.996156	-0.000118
 537	5.3332e+01	18.6428	67.274830	0.000335	3.345709	1.133557	-0.000134
 538	5.3431e+01	18.6027	67.133530	0.000355	3.548479	1.202257	-0.000142
 539	5.3531e+01	18.5658	67.012416	0.000304	3.041554	1.030506	-0.000122
 540	5.3630e+01	18.5273	66.891302	0.000304	3.041554	1.030506	-0.000122
 541	5.3730e+01	18.4743	66.754039	0.000345	3.447094	1.167907	-0.000138
 542	5.3830e+01	18.4471	66.645037	0.000274	2.737398	0.927456	-0.000110
 543	5.3929e+01	18.4022	66.523923	0.000304	3.041554	1.030506	-0.000122
 544	5.4029e+01	18.3749	66.406846	0.000294	2.940168	0.996156	-0.000118
 545	5.4128e+01	18.3300	66.281695	0.000314	3.142939	1.064856	-0.000126
 546	5.4227e+01	18.2818	66.168655	0.000284	2.838783	0.961806	-0.000114
 547	5.4327e+01	18.2385	66.015244	0.000385	3.852634	1.305308	-0.000154
 548	5.4426e+01	18.2064	65.914315	0.000253	2.534628	0.858755	-0.000101
 549	5.4526e+01	18.1663	65.785127	0.000324	3.244324	1.099207	-0.000130
 550	5.4626e+01	18.1214	65.635753	0.000375	3.751249	1.270958	-0.000150
 551	5.4725e+01	18.0797	65.514639	0.000304	3.041554	1.030506	-0.000122
 552	5.4825e+01	18.0396	65.433896	0.000203	2.027702	0.687004	-0.000081
 553	5.4924e+01	18.0027	65.268373	0.000416	4.156790	1.408359	-0.000166
 554	5.5023e+01	17.9642	65.143222	0.000314	3.142939	1.064856	-0.000126
 555	5.5123e+01	17.9145	64.985774	0.000395	3.954020	1.339658	-0.000158
 556	5.5222e+01	17.8856	64.909068	0.000193	1.926317	0.652654	-0.000077
 557	5.5322e+01	17.8519	64.775843	0.000335	3.345709	1.133557	-0.000134
 558	5.5422e+01	17.8054	64.646655	0.000324	3.244324	1.099207	-0.000130
 559	5.5521e+01	17.7621	64.517466	0.000324	3.244324	1.099207	-0.000130
 560	5.5620e+01	17.7220	64.380204	0.000345	3.447094	1.167907	-0.000138
 561	5.5720e+01	17.6851	64.279275	0.000253	2.534628	0.858755	-0.000101
 562	5.5819e+01	17.6514	64.125864	0.000385	3.852634	1.305308	-0.000154
 563	5.5919e+01	17.6161	64.028973	0.000243	2.433243	0.824405	-0.000097
 564	5.6019e+01	17.5663	63.851339	0.000446	4.460945	1.511409	-0.000179
 565	5.6118e+01	17.5295	63.754448	0.000243	2.433243	0.824405	-0.000097
 566	5.6218e+01	17.4926	63.592962	0.000406	4.055405	1.374008	-0.000162
 567	5.6317e+01	17.4573	63.467811	0.000314	3.142939	1.064856	-0.000126
 568	5.6416e+01	17.4107	63.366883	0.000253	2.534628	0.858755	-0.000101
 569	5.6516e+01	17.3658	63.209434	0.000395	3.954020	1.339658	-0.000158
 570	5.6615e+01	17.3385	63.108506	0.000253	2.534628	0.858755	-0.000101
 571	5.6715e+01	17.2840	62.955095	0.000385	3.852634	1.305308	-0.000154
 572	5.6815e+01	17.2487	62.874352	0.000203	2.027702	0.687004	-0.000081
 573	5.6914e+01	17.2054	62.704792	0.000426	4.258175	1.442709	-0.000170
 574	5.7014e+01	17.1653	62.595790	0.000274	2.737398	0.927456	-0.000110
 575	5.7113e+01	17.1284	62.418156	0.000446	4.460945	1.511409	-0.000179
 576	5.7212e+01	17.0867	62.325302	0.000233	2.331858	0.790055	-0.000093
 577	5.7312e+01	17.0466	62.159779	0.000416	4.156790	1.408359	-0.000166
 578	5.7411e+01	17.0145	62.054813	0.000264	2.636013	0.893105	-0.000105
 579	5.7511e+01	16.9712	61.941774	0.000284	2.838783	0.961806	-0.000114
 580	5.7611e+01	16.9263	61.816622	0.000314	3.142939	1.064856	-0.000126
 581	5.7710e+01	16.8797	61.691471	0.000314	3.142939	1.064856	-0.000126
 582	5.7809e+01	16.8509	61.546134	0.000365	3.649864	1.236607	-0.000146
 583	5.7909e+01	16.8156	61.396760	0.000375	3.751249	1.270958	-0.000150
 584	5.8008e+01	16.7706	61.311980	0.000213	2.129087	0.721354	-0.000085
 585	5.8108e+01	16.7257	61.166644	0.000365	3.649864	1.236607	-0.000146
 586	5.8208e+01	16.6969	61.009195	0.000395	3.954020	1.339658	-0.000158
 587	5.8307e+01	16.6471	60.888081	0.000304	3.041554	1.030506	-0.000122
 588	5.8407e+01	16.6070	60.754856	0.000335	3.345709	1.133557	-0.000134
 589	5.8506e+01	16.5733	60.645853	0.000274	2.737398	0.927456	-0.000110
 590	5.8605e+01	16.5316	60.524739	0.000304	3.041554	1.030506	-0.000122
 591	5.8705e+01	16.4883	60.355179	0.000426	4.258175	1.442709	-0.000170
 592	5.8804e+01	16.4562	60.262325	0.000233	2.331858	0.790055	-0.000093
 593	5.8904e+01	16.4145	60.121025	0.000355	3.548479	1.202257	-0.000142
 594	5.9004e+01	16.3648	59.999911	0.000304	3.041554	1.030506	-0.000122
 595	5.9103e+01	16.3359	59.898983	0.000253	2.534628	0.858755	-0.000101
 596	5.9203e+01	16.2958	59.733460	0.000416	4.156790	1.408359	-0.000166
 597	5.9302e+01	16.2541	59.600235	0.000335	3.345709	1.133557	-0.000134
 598	5.9401e+01	16.2140	59.491232	0.000274	2.737398	0.927456	-0.000110
 599	5.9501e+01	16.1642	59.366081	0.000314	3.142939	1.064856	-0.000126
 600	5.9600e+01	16.1306	59.200558	0.000416	4.156790	1.408359	-0.000166
 601	5.9700e+01	16.0937	59.075407	0.000314	3.142939	1.064856	-0.000126
 602	5.9800e+01	16.0455	58.934108	0.000355	3.548479	1.202257	-0.000142
 603	5.9899e+01	16.0118	58.841253	0.000233	2.331858	0.790055	-0.000093
 604	5.9998e+01	15.9798	58.716102	0.000314	3.142939	1.064856	-0.000126
 605	6.0098e+01	15.9429	58.599025	0.000294	2.940168	0.996156	-0.000118
 606	6.0197e+01	15.8915	58.441577	0.000395	3.954020	1.339658	-0.000158
 607	6.0297e+01	15.8578	58.316426	0.000314	3.142939	1.064856	-0.000126
 608	6.0397e+01	15.8097	58.211460	0.000264	2.636013	0.893105	-0.000105
 609	6.0496e+01	15.7873	58.098420	0.000284	2.838783	0.961806	-0.000114
 610	6.0596e+01	15.7391	57.957121	0.000355	3.548479	1.202257	-0.000142
 611	6.0695e+01	15.6878	57.831969	0.000314	3.142939	1.064856	-0.000126
 612	6.0794e+01	15.6573	57.670484	0.000406	4.055405	1.374008	-0.000162
 613	6.0894e+01	15.6140	57.553407	0.000294	2.940168	0.996156	-0.000118
 614	6.0993e+01	15.5755	57.420182	0.000335	3.345709	1.133557	-0.000134
 615	6.1093e+01	15.5338	57.299068	0.000304	3.041554	1.030506	-0.000122
 616	6.1193e+01	15.4905	57.157768	0.000355	3.548479	1.202257	-0.000142
 617	6.1292e+01	15.4584	57.044728	0.000284	2.838783	0.961806	-0.000114
 618	6.1392e+01	15.4231	56.919577	0.000314	3.142939	1.064856	-0.000126
 619	6.1491e+01	15.3750	56.758091	0.000406	4.055405	1.374008	-0.000162
 620	6.1590e+01	15.3333	56.636977	0.000304	3.041554	1.030506	-0.000122
 621	6.1690e+01	15.2915	56.495678	0.000355	3.548479	1.202257	-0.000142
 622	6.1789e+01	15.2514	56.378601	0.000294	2.940168	0.996156	-0.000118
 623	6.1889e+01	15.2049	56.225189	0.000385	3.852634	1.305308	-0.000154
 624	6.1989e+01	15.1760	56.104075	0.000304	3.041554	1.030506	-0.000122
 625	6.2088e+01	15.1343	55.954701	0.000375	3.751249	1.270958	-0.000150
 626	6.2188e+01	15.1039	55.817439	0.000345	3.447094	1.167907	-0.000138
 627	6.2287e+01	15.0621	55.700362	0.000294	2.940168	0.996156	-0.000118
 628	6.2386e+01	15.0172	55.555025	0.000365	3.649864	1.236607	-0.000146
 629	6.2486e+01	14.9819	55.454096	0.000253	2.534628	0.858755	-0.000101
 630	6.2586e+01	14.9338	55.312797	0.000355	3.548479	1.202257	-0.000142
 631	6.2685e+01	14.8937	55.199757	0.000284	2.838783	0.961806	-0.000114
 632	6.2785e+01	14.8584	55.034234	0.000416	4.156790	1.408359	-0.000166
 633	6.2884e+01	14.8167	54.905046	0.000324	3.244324	1.099207	-0.000130
 634	6.2983e+01	14.7814	54.739523	0.000416	4.156790	1.408359	-0.000166
 635	6.3083e+01	14.7397	54.646669	0.000233	2.331858	0.790055	-0.000093
 636	6.3182e+01	14.6980	54.533630	0.000284	2.838783	0.961806	-0.000114
 637	6.3282e+01	14.6579	54.351958	0.000456	4.562330	1.545759	-0.000183
 638	6.3382e+01	14.6130	54.218733	0.000335	3.345709	1.133557	-0.000134
 639	6.3481e+01	14.5761	54.121842	0.000243	2.433243	0.824405	-0.000097
 640	6.3581e+01	14.5392	53.952282	0.000426	4.258175	1.442709	-0.000170
 641	6.3680e+01	14.4975	53.819057	0.000335	3.345709	1.133557	-0.000134
 642	6.3779e+01	14.4638	53.710054	0.000274	2.737398	0.927456	-0.000110
 643	6.3879e+01	14.4140	53.556643	0.000385	3.852634	1.305308	-0.000154
 644	6.3978e+01	14.3755	53.407269	0.000375	3.751249	1.270958	-0.000150
 645	6.4078e+01	14.3450	53.282117	0.000314	3.142939	1.064856	-0.000126
 646	6.4177e+01	14.3033	53.136781	0.000365	3.649864	1.236607	-0.000146
 647	6.4277e+01	14.2600	53.011629	0.000314	3.142939	1.064856	-0.000126
 648	6.4376e+01	14.2199	52.858218	0.000385	3.852634	1.305308	-0.000154
 649	6.4476e+01	14.1814	52.753253	0.000264	2.636013	0.893105	-0.000105
 650	6.4576e+01	14.1445	52.611953	0.000355	3.548479	1.202257	-0.000142
 651	6.4675e+01	14.1124	52.434319	0.000446	4.460945	1.511409	-0.000179
 652	6.4775e+01	14.0563	52.349539	0.000213	2.129087	0.721354	-0.000085
 653	6.4874e+01	14.0210	52.175942	0.000436	4.359560	1.477059	-0.000174
 654	6.4974e+01	13.9809	52.095200	0.000203	2.027702	0.687004	-0.000081
 655	6.5073e+01	13.9456	51.945826	0.000375	3.751249	1.270958	-0.000150
 656	6.5172e+01	13.8991	51.776266	0.000426	4.258175	1.442709	-0.000170
 657	6.5272e+01	13.8638	51.699560	0.000193	1.926317	0.652654	-0.000077
 658	6.5371e+01	13.8237	51.525963	0.000436	4.359560	1.477059	-0.000174
 659	6.5471e+01	13.7836	51.396775	0.000324	3.244324	1.099207	-0.000130
 660	6.5570e+01	13.7483	51.247401	0.000375	3.751249	1.270958	-0.000150
 661	6.5670e+01	13.6953	51.158584	0.000223	2.230473	0.755705	-0.000089
 662	6.5769e+01	13.6616	50.984987	0.000436	4.359560	1.477059	-0.000174
 663	6.5869e+01	13.6199	50.855799	0.000324	3.244324	1.099207	-0.000130
 664	6.5969e+01	13.5846	50.722573	0.000335	3.345709	1.133557	-0.000134
 665	6.6068e+01	13.5413	50.589348	0.000335	3.345709	1.133557	-0.000134
 666	6.6168e+01	13.5012	50.460160	0.000324	3.244324	1.099207	-0.000130
 667	6.6267e+01	13.4643	50.306748	0.000385	3.852634	1.305308	-0.000154
 668	6.6367e+01	13.4210	50.181597	0.000314	3.142939	1.064856	-0.000126
 669	6.6466e+01	13.3857	50.036260	0.000365	3.649864	1.236607	-0.000146
 670	6.6566e+01	13.3424	49.890923	0.000365	3.649864	1.236607	-0.000146
 671	6.6665e+01	13.3007	49.753661	0.000345	3.447094	1.167907	-0.000138
 672	6.6764e+01	13.2638	49.608324	0.000365	3.649864	1.236607	-0.000146
 673	6.6864e+01	13.2285	49.462987	0.000365	3.649864	1.236607	-0.000146
 674	6.6963e+01	13.1820	49.329762	0.000335	3.345709	1.133557	-0.000134
 675	6.7063e+01	13.1499	49.176350	0.000385	3.852634	1.305308	-0.000154
 676	6.7162e+01	13.1018	49.055236	0.000304	3.041554	1.030506	-0.000122
 677	6.7262e+01	13.0665	48.958345	0.000243	2.433243	0.824405	-0.000097
 678	6.7362e+01	13.0296	48.760525	0.000497	4.967871	1.683160	-0.000199
 679	6.7461e+01	12.9798	48.635374	0.000314	3.142939	1.064856	-0.000126
 680	6.7561e+01	12.9462	48.481963	0.000385	3.852634	1.305308	-0.000154
 681	6.7660e+01	12.9044	48.332589	0.000375	3.751249	1.270958	-0.000150
 682	6.7760e+01	12.8692	48.183215	0.000375	3.751249	1.270958	-0.000150
 683	6.7859e+01	12.8274	48.062101	0.000304	3.041554	1.030506	-0.000122
 684	6.7959e+01	12.7954	47.920801	0.000355	3.548479	1.202257	-0.000142
 685	6.8058e+01	12.7424	47.779501	0.000355	3.548479	1.202257	-0.000142
 686	6.8157e+01	12.7071	47.654350	0.000314	3.142939	1.064856	-0.000126
 687	6.8257e+01	12.6590	47.488828	0.000416	4.156790	1.408359	-0.000166
 688	6.8356e+01	12.6333	47.359639	0.000324	3.244324	1.099207	-0.000130
 689	6.8456e+01	12.5916	47.177968	0.000456	4.562330	1.545759	-0.000183
 690	6.8555e+01	12.5515	47.064928	0.000284	2.838783	0.961806	-0.000114
 691	6.8655e+01	12.5018	46.891332	0.000436	4.359560	1.477059	-0.000174
 692	6.8754e+01	12.4713	46.766180	0.000314	3.142939	1.064856	-0.000126
 693	6.8854e+01	12.4296	46.608732	0.000395	3.954020	1.339658	-0.000158
 694	6.8954e+01	12.3895	46.471469	0.000345	3.447094	1.167907	-0.000138
 695	6.9053e+01	12.3494	46.366504	0.000264	2.636013	0.893105	-0.000105
 696	6.9153e+01	12.3061	46.180796	0.000466	4.663715	1.580110	-0.000187
 697	6.9252e+01	12.2724	46.039496	0.000355	3.548479	1.202257	-0.000142
 698	6.9352e+01	12.2275	45.922419	0.000294	2.940168	0.996156	-0.000118
 699	6.9451e+01	12.1938	45.769008	0.000385	3.852634	1.305308	-0.000154
 700	6.9550e+01	12.1424	45.595411	0.000436	4.359560	1.477059	-0.000174
 701	6.9650e+01	12.1152	45.490445	0.000264	2.636013	0.893105	-0.000105
 702	6.9749e+01	12.0654	45.345109	0.000365	3.649864	1.236607	-0.000146
 703	6.9849e+01	12.0301	45.195735	0.000375	3.751249	1.270958	-0.000150
 704	6.9948e+01	11.9948	45.054435	0.000355	3.548479	1.202257	-0.000142
 705	7.0048e+01	11.9547	44.880838	0.000436	4.359560	1.477059	-0.000174
 706	7.0147e+01	11.9146	44.731464	0.000375	3.751249	1.270958	-0.000150
 707	7.0247e+01	11.8713	44.638610	0.000233	2.331858	0.790055	-0.000093
 708	7.0347e+01	11.8312	44.440790	0.000497	4.967871	1.683160	-0.000199
 709	7.0446e+01	11.8055	44.347936	0.000233	2.331858	0.790055	-0.000093
 710	7.0546e+01	11.7510	44.186451	0.000406	4.055405	1.374008	-0.000162
 711	7.0645e+01	11.7077	44.020928	0.000416	4.156790	1.408359	-0.000166
 712	7.0745e+01	11.6724	43.911925	0.000274	2.737398	0.927456	-0.000110
 713	7.0844e+01	11.6339	43.750440	0.000406	4.055405	1.374008	-0.000162
 714	7.0944e+01	11.5874	43.592992	0.000395	3.954020	1.339658	-0.000158
 715	7.1043e+01	11.5473	43.488026	0.000264	2.636013	0.893105	-0.000105
 716	7.1142e+01	11.5088	43.318466	0.000426	4.258175	1.442709	-0.000170
 717	7.1242e+01	11.4751	43.165055	0.000385	3.852634	1.305308	-0.000154
 718	7.1341e+01	11.4270	43.027793	0.000345	3.447094	1.167907	-0.000138
 719	7.1441e+01	11.3868	42.902641	0.000314	3.142939	1.064856	-0.000126
 720	7.1540e+01	11.3451	42.741156	0.000406	4.055405	1.374008	-0.000162
 721	7.1640e+01	11.3130	42.567559	0.000436	4.359560	1.477059	-0.000174
 722	7.1740e+01	11.2762	42.438371	0.000324	3.244324	1.099207	-0.000130
 723	7.1839e+01	11.2328	42.341480	0.000243	2.433243	0.824405	-0.000097
 724	7.1939e+01	11.1911	42.143660	0.000497	4.967871	1.683160	-0.000199
 725	7.2038e+01	11.1558	41.990249	0.000385	3.852634	1.305308	-0.000154
 726	7.2138e+01	11.1125	41.881246	0.000274	2.737398	0.927456	-0.000110
 727	7.2237e+01	11.0692	41.743984	0.000345	3.447094	1.167907	-0.000138
 728	7.2337e+01	11.0371	41.562312	0.000456	4.562330	1.545759	-0.000183
 729	7.2436e+01	10.9858	41.425050	0.000345	3.447094	1.167907	-0.000138
 730	7.2535e+01	10.9537	41.283750	0.000355	3.548479	1.202257	-0.000142
 731	7.2635e+01	10.9184	41.138413	0.000365	3.649864	1.236607	-0.000146
 732	7.2734e+01	10.8751	41.009225	0.000324	3.244324	1.099207	-0.000130
 733	7.2834e+01	10.8318	40.843702	0.000416	4.156790	1.408359	-0.000166
 734	7.2933e+01	10.7901	40.706440	0.000345	3.447094	1.167907	-0.000138
 735	7.3033e+01	10.7532	40.569177	0.000345	3.447094	1.167907	-0.000138
 736	7.3132e+01	10.7163	40.411729	0.000395	3.954020	1.339658	-0.000158
 737	7.3232e+01	10.6762	40.234095	0.000446	4.460945	1.511409	-0.000179
 738	7.3332e+01	10.6377	40.121055	0.000284	2.838783	0.961806	-0.000114
 739	7.3431e+01	10.5976	39.935347	0.000466	4.663715	1.580110	-0.000187
 740	7.3531e+01	10.5575	39.838455	0.000243	2.433243	0.824405	-0.000097
 741	7.3630e+01	10.5174	39.660821	0.000446	4.460945	1.511409	-0.000179
 742	7.3730e+01	10.4756	39.511447	0.000375	3.751249	1.270958	-0.000150
 743	7.3829e+01	10.4291	39.337851	0.000436	4.359560	1.477059	-0.000174
 744	7.3928e+01	10.3954	39.220774	0.000294	2.940168	0.996156	-0.000118
 745	7.4028e+01	10.3585	39.051214	0.000426	4.258175	1.442709	-0.000170
 746	7.4127e+01	10.3232	38.930100	0.000304	3.041554	1.030506	-0.000122
 747	7.4227e+01	10.2719	38.776689	0.000385	3.852634	1.305308	-0.000154
 748	7.4326e+01	10.2334	38.635389	0.000355	3.548479	1.202257	-0.000142
 749	7.4426e+01	10.2061	38.477941	0.000395	3.954020	1.339658	-0.000158
 750	7.4525e+01	10.1644	38.360864	0.000294	2.940168	0.996156	-0.000118
 751	7.4625e+01	10.1259	38.195341	0.000416	4.156790	1.408359	-0.000166
 752	7.4725e+01	10.0778	38.058079	0.000345	3.447094	1.167907	-0.000138
 753	7.4824e+01	10.0329	37.941002	0.000294	2.940168	0.996156	-0.000118
 754	7.4924e+01	9.9944	37.755293	0.000466	4.663715	1.580110	-0.000187
 755	7.5023e+01	9.9559	37.581697	0.000436	4.359560	1.477059	-0.000174
 756	7.5123e+01	9.9206	37.460583	0.000304	3.041554	1.030506	-0.000122
 757	7.5222e+01	9.8789	37.327357	0.000335	3.345709	1.133557	-0.000134
 758	7.5322e+01	9.8420	37.161834	0.000416	4.156790	1.408359	-0.000166
 759	7.5421e+01	9.7954	37.016498	0.000365	3.649864	1.236607	-0.000146
 760	7.5520e+01	9.7505	36.891346	0.000314	3.142939	1.064856	-0.000126
 761	7.5620e+01	9.7040	36.750047	0.000355	3.548479	1.202257	-0.000142
 762	7.5719e+01	9.6719	36.616821	0.000335	3.345709	1.133557	-0.000134
 763	7.5819e+01	9.6430	36.447261	0.000426	4.258175	1.442709	-0.000170
 764	7.5918e+01	9.5981	36.293850	0.000385	3.852634	1.305308	-0.000154
 765	7.6018e+01	9.5532	36.152551	0.000355	3.548479	1.202257	-0.000142
 766	7.6118e+01	9.5275	36.039511	0.000284	2.838783	0.961806	-0.000114
 767	7.6217e+01	9.4794	35.829580	0.000527	5.272026	1.786211	-0.000211
 768	7.6317e+01	9.4329	35.740763	0.000223	2.230473	0.755705	-0.000089
 769	7.6416e+01	9.4008	35.587352	0.000385	3.852634	1.305308	-0.000154
 770	7.6516e+01	9.3639	35.433940	0.000385	3.852634	1.305308	-0.000154
 771	7.6615e+01	9.3206	35.300715	0.000335	3.345709	1.133557	-0.000134
 772	7.6715e+01	9.2901	35.151341	0.000375	3.751249	1.270958	-0.000150
 773	7.6814e+01	9.2372	35.022153	0.000324	3.244324	1.099207	-0.000130
 774	7.6913e+01	9.1971	34.872779	0.000375	3.751249	1.270958	-0.000150
 775	7.7013e+01	9.1586	34.711293	0.000406	4.055405	1.374008	-0.000162
 776	7.7112e+01	9.1104	34.565956	0.000365	3.649864	1.236607	-0.000146
 777	7.7212e+01	9.0896	34.408508	0.000395	3.954020	1.339658	-0.000158
 778	7.7311e+01	9.0495	34.242985	0.000416	4.156790	1.408359	-0.000166
 779	7.7411e+01	9.0062	34.117834	0.000314	3.142939	1.064856	-0.000126
 780	7.7510e+01	8.9596	33.976534	0.000355	3.548479	1.202257	-0.000142
 781	7.7610e+01	8.9243	33.843309	0.000335	3.345709	1.133557	-0.000134
 782	7.7710e+01	8.8858	33.665675	0.000446	4.460945	1.511409	-0.000179
 783	7.7809e+01	8.8329	33.560709	0.000264	2.636013	0.893105	-0.000105
 784	7.7909e+01	8.7992	33.411335	0.000375	3.751249	1.270958	-0.000150
 785	7.8008e+01	8.7575	33.245813	0.000416	4.156790	1.408359	-0.000166
 786	7.8108e+01	8.7302	33.080290	0.000416	4.156790	1.408359	-0.000166
 787	7.8207e+01	8.6853	32.951102	0.000324	3.244324	1.099207	-0.000130
 788	7.8306e+01	8.6356	32.793654	0.000395	3.954020	1.339658	-0.000158
 789	7.8406e+01	8.6099	32.676577	0.000294	2.940168	0.996156	-0.000118
 790	7.8505e+01	8.5666	32.470683	0.000517	5.170641	1.751861	-0.000207
 791	7.8605e+01	8.5201	32.377829	0.000233	2.331858	0.790055	-0.000093
 792	7.8704e+01	8.4864	32.188083	0.000477	4.765101	1.614460	-0.000191
 793	7.8804e+01	8.4415	32.034672	0.000385	3.852634	1.305308	-0.000154
 794	7.8903e+01	8.4110	31.873187	0.000406	4.055405	1.374008	-0.000162
 795	7.9003e+01	8.3709	31.756110	0.000294	2.940168	0.996156	-0.000118
 796	7.9103e+01	8.3244	31.634996	0.000304	3.041554	1.030506	-0.000122
 797	7.9202e+01	8.2923	31.437176	0.000497	4.967871	1.683160	-0.000199
 798	7.9302e+01	8.2329	31.328173	0.000274	2.737398	0.927456	-0.000110
 799	7.9401e+01	8.2024	31.154576	0.000436	4.359560	1.477059	-0.000174
 800	7.9501e+01	8.1671	31.013277	0.000355	3.548479	1.202257	-0.000142
 801	7.9600e+01	8.1238	30.855828	0.000395	3.954020	1.339658	-0.000158
 802	7.9700e+01	8.0885	30.686269	0.000426	4.258175	1.442709	-0.000170
 803	7.9799e+01	8.0581	30.553043	0.000335	3.345709	1.133557	-0.000134
 804	7.9898e+01	8.0019	30.391558	0.000406	4.055405	1.374008	-0.000162
 805	7.9998e+01	7.9634	30.262369	0.000324	3.244324	1.099207	-0.000130
 806	8.0097e+01	7.9265	30.088773	0.000436	4.359560	1.477059	-0.000174
 807	8.0197e+01	7.8896	29.951510	0.000345	3.447094	1.167907	-0.000138
 808	8.0296e+01	7.8415	29.822322	0.000324	3.244324	1.099207	-0.000130
 809	8.0396e+01	7.8014	29.660836	0.000406	4.055405	1.374008	-0.000162
 810	8.0496e+01	7.7629	29.515499	0.000365	3.649864	1.236607	-0.000146
 811	8.0595e+01	7.7308	29.333828	0.000456	4.562330	1.545759	-0.000183
 812	8.0695e+01	7.6827	29.204640	0.000324	3.244324	1.099207	-0.000130
 813	8.0794e+01	7.6490	29.059303	0.000365	3.649864	1.236607	-0.000146
 814	8.0894e+01	7.5993	28.893780	0.000416	4.156790	1.408359	-0.000166
 815	8.0993e+01	7.5640	28.768629	0.000314	3.142939	1.064856	-0.000126
 816	8.1093e+01	7.5255	28.611181	0.000395	3.954020	1.339658	-0.000158
 817	8.1192e+01	7.4886	28.457770	0.000385	3.852634	1.305308	-0.000154
 818	8.1291e+01	7.4485	28.324544	0.000335	3.345709	1.133557	-0.000134
 819	8.1391e+01	7.4051	28.146910	0.000446	4.460945	1.511409	-0.000179
 820	8.1490e+01	7.3602	27.985425	0.000406	4.055405	1.374008	-0.000162
 821	8.1590e+01	7.3265	27.864311	0.000304	3.041554	1.030506	-0.000122
 822	8.1689e+01	7.2864	27.682640	0.000456	4.562330	1.545759	-0.000183
 823	8.1789e+01	7.2463	27.509043	0.000436	4.359560	1.477059	-0.000174
 824	8.1888e+01	7.1982	27.420226	0.000223	2.230473	0.755705	-0.000089
 825	8.1988e+01	7.1645	27.222406	0.000497	4.967871	1.683160	-0.000199
 826	8.2088e+01	7.1340	27.060921	0.000406	4.055405	1.374008	-0.000162
 827	8.2187e+01	7.0955	26.939807	0.000304	3.041554	1.030506	-0.000122
 828	8.2287e+01	7.0474	26.786396	0.000385	3.852634	1.305308	-0.000154
 829	8.2386e+01	7.0137	26.632984	0.000385	3.852634	1.305308	-0.000154
 830	8.2486e+01	6.9736	26.495722	0.000345	3.447094	1.167907	-0.000138
 831	8.2585e+01	6.9239	26.342311	0.000385	3.852634	1.305308	-0.000154
 832	8.2684e+01	6.8998	26.164677	0.000446	4.460945	1.511409	-0.000179
 833	8.2784e+01	6.8485	26.015303	0.000375	3.751249	1.270958	-0.000150
 834	8.2883e+01	6.8132	25.878040	0.000345	3.447094	1.167907	-0.000138
 835	8.2983e+01	6.7618	25.760963	0.000294	2.940168	0.996156	-0.000118
 836	8.3082e+01	6.7282	25.551032	0.000527	5.272026	1.786211	-0.000211
 837	8.3182e+01	6.6977	25.385510	0.000416	4.156790	1.408359	-0.000166
 838	8.3281e+01	6.6479	25.268433	0.000294	2.940168	0.996156	-0.000118
 839	8.3381e+01	6.6159	25.127133	0.000355	3.548479	1.202257	-0.000142
 840	8.3481e+01	6.5774	24.945462	0.000456	4.562330	1.545759	-0.000183
 841	8.3580e+01	6.5324	24.796088	0.000375	3.751249	1.270958	-0.000150
 842	8.3680e+01	6.4875	24.630565	0.000416	4.156790	1.408359	-0.000166
 843	8.3779e+01	6.4570	24.493303	0.000345	3.447094	1.167907	-0.000138
 844	8.3879e+01	6.4169	24.339891	0.000385	3.852634	1.305308	-0.000154
 845	8.3978e+01	6.3752	24.162257	0.000446	4.460945	1.511409	-0.000179
 846	8.4078e+01	6.3335	24.029032	0.000335	3.345709	1.133557	-0.000134
 847	8.4177e+01	6.2998	23.875621	0.000385	3.852634	1.305308	-0.000154
 848	8.4276e+01	6.2581	23.710098	0.000416	4.156790	1.408359	-0.000166
 849	8.4376e+01	6.2132	23.544576	0.000416	4.156790	1.408359	-0.000166
 850	8.4475e+01	6.1779	23.399239	0.000365	3.649864	1.236607	-0.000146
 851	8.4575e+01	6.1394	23.249865	0.000375	3.751249	1.270958	-0.000150
 852	8.4674e+01	6.0929	23.088379	0.000406	4.055405	1.374008	-0.000162
 853	8.4774e+01	6.0608	22.898634	0.000477	4.765101	1.614460	-0.000191
 854	8.4874e+01	6.0191	22.785594	0.000284	2.838783	0.961806	-0.000114
 855	8.4973e+01	5.9742	22.616034	0.000426	4.258175	1.442709	-0.000170
 856	8.5073e+01	5.9389	22.470698	0.000365	3.649864	1.236607	-0.000146
 857	8.5172e+01	5.8972	22.301138	0.000426	4.258175	1.442709	-0.000170
 858	8.5272e+01	5.8603	22.119467	0.000456	4.562330	1.545759	-0.000183
 859	8.5371e+01	5.8137	21.957981	0.000406	4.055405	1.374008	-0.000162
 860	8.5471e+01	5.7752	21.836867	0.000304	3.041554	1.030506	-0.000122
 861	8.5570e+01	5.7528	21.630973	0.000517	5.170641	1.751861	-0.000207
 862	8.5669e+01	5.6982	21.473525	0.000395	3.954020	1.339658	-0.000158
 863	8.5769e+01	5.6517	21.348374	0.000314	3.142939	1.064856	-0.000126
 864	8.5868e+01	5.6100	21.162666	0.000466	4.663715	1.580110	-0.000187
 865	8.5968e+01	5.5779	21.049626	0.000284	2.838783	0.961806	-0.000114
 866	8.6067e+01	5.5362	20.884103	0.000416	4.156790	1.408359	-0.000166
 867	8.6167e+01	5.5025	20.674172	0.000527	5.272026	1.786211	-0.000211
 868	8.6266e+01	5.4592	20.520761	0.000385	3.852634	1.305308	-0.000154
 869	8.6366e+01	5.4111	20.399647	0.000304	3.041554	1.030506	-0.000122
 870	8.6466e+01	5.3806	20.262384	0.000345	3.447094	1.167907	-0.000138
 871	8.6565e+01	5.3341	20.060527	0.000507	5.069256	1.717510	-0.000203
 872	8.6665e+01	5.2924	19.899042	0.000406	4.055405	1.374008	-0.000162
 873	8.6764e+01	5.2651	19.753705	0.000365	3.649864	1.236607	-0.000146
 874	8.6864e+01	5.2170	19.600294	0.000385	3.852634	1.305308	-0.000154
 875	8.6963e+01	5.1801	19.454957	0.000365	3.649864	1.236607	-0.000146
 876	8.7063e+01	5.1384	19.265212	0.000477	4.765101	1.614460	-0.000191
 877	8.7162e+01	5.0934	19.107763	0.000395	3.954020	1.339658	-0.000158
 878	8.7261e+01	5.0662	18.962427	0.000365	3.649864	1.236607	-0.000146
 879	8.7361e+01	5.0196	18.788830	0.000436	4.359560	1.477059	-0.000174
 880	8.7460e+01	4.9860	18.663679	0.000314	3.142939	1.064856	-0.000126
 881	8.7560e+01	4.9458	18.490082	0.000436	4.359560	1.477059	-0.000174
 882	8.7659e+01	4.9009	18.328596	0.000406	4.055405	1.374008	-0.000162
 883	8.7759e+01	4.8560	18.122702	0.000517	5.170641	1.751861	-0.000207
 884	8.7859e+01	4.8175	18.029848	0.000233	2.331858	0.790055	-0.000093
 885	8.7958e+01	4.7758	17.872400	0.000395	3.954020	1.339658	-0.000158
 886	8.8058e+01	4.7485	17.670543	0.000507	5.069256	1.717510	-0.000203
 887	8.8157e+01	4.7036	17.565578	0.000264	2.636013	0.893105	-0.000105
 888	8.8257e+01	4.6683	17.408129	0.000395	3.954020	1.339658	-0.000158
 889	8.8356e+01	4.6170	17.254718	0.000385	3.852634	1.305308	-0.000154
 890	8.8456e+01	4.5833	17.077084	0.000446	4.460945	1.511409	-0.000179
 891	8.8555e+01	4.5320	16.923673	0.000385	3.852634	1.305308	-0.000154
 892	8.8654e+01	4.4999	16.778336	0.000365	3.649864	1.236607	-0.000146
 893	8.8754e+01	4.4678	16.596665	0.000456	4.562330	1.545759	-0.000183
 894	8.8853e+01	4.4229	16.406920	0.000477	4.765101	1.614460	-0.000191
 895	8.8953e+01	4.3860	16.265620	0.000355	3.548479	1.202257	-0.000142
 896	8.9052e+01	4.3459	16.071837	0.000487	4.866486	1.648810	-0.000195
 897	8.9152e+01	4.3058	15.966872	0.000264	2.636013	0.893105	-0.000105
 898	8.9251e+01	4.2657	15.813461	0.000385	3.852634	1.305308	-0.000154
 899	8.9351e+01	4.2127	15.651975	0.000406	4.055405	1.374008	-0.000162
 900	8.9451e+01	4.1838	15.450118	0.000507	5.069256	1.717510	-0.000203
 901	8.9550e+01	4.1373	15.329004	0.000304	3.041554	1.030506	-0.000122
 902	8.9650e+01	4.1068	15.151370	0.000446	4.460945	1.511409	-0.000179
 903	8.9749e+01	4.0651	14.997959	0.000385	3.852634	1.305308	-0.000154
 904	8.9849e+01	4.0298	14.876845	0.000304	3.041554	1.030506	-0.000122
 905	8.9948e+01	3.9801	14.695174	0.000456	4.562330	1.545759	-0.000183
 906	9.0047e+01	3.9416	14.529652	0.000416	4.156790	1.408359	-0.000166
 907	9.0147e+01	3.9015	14.347980	0.000456	4.562330	1.545759	-0.000183
 908	9.0246e+01	3.8566	14.198606	0.000375	3.751249	1.270958	-0.000150
 909	9.0346e+01	3.8181	14.004824	0.000487	4.866486	1.648810	-0.000195
 910	9.0445e+01	3.7844	13.863524	0.000355	3.548479	1.202257	-0.000142
 911	9.0545e+01	3.7427	13.693964	0.000426	4.258175	1.442709	-0.000170
 912	9.0644e+01	3.6897	13.532479	0.000406	4.055405	1.374008	-0.000162
 913	9.0744e+01	3.6577	13.399254	0.000335	3.345709	1.133557	-0.000134
 914	9.0844e+01	3.6272	13.233731	0.000416	4.156790	1.408359	-0.000166
 915	9.0943e+01	3.5855	13.072246	0.000406	4.055405	1.374008	-0.000162
 916	9.1043e+01	3.5454	12.943057	0.000324	3.244324	1.099207	-0.000130
 917	9.1142e+01	3.5149	12.749275	0.000487	4.866486	1.648810	-0.000195
 918	9.1242e+01	3.4603	12.620086	0.000324	3.244324	1.099207	-0.000130
 919	9.1341e+01	3.4202	12.446489	0.000436	4.359560	1.477059	-0.000174
 920	9.1441e+01	3.3897	12.293078	0.000385	3.852634	1.305308	-0.000154
 921	9.1540e+01	3.3416	12.107370	0.000466	4.663715	1.580110	-0.000187
 922	9.1639e+01	3.3159	11.949922	0.000395	3.954020	1.339658	-0.000158
 923	9.1739e+01	3.2662	11.796511	0.000385	3.852634	1.305308	-0.000154
 924	9.1838e+01	3.2245	11.667322	0.000324	3.244324	1.099207	-0.000130
 925	9.1938e+01	3.1860	11.489688	0.000446	4.460945	1.511409	-0.000179
 926	9.2037e+01	3.1539	11.316091	0.000436	4.359560	1.477059	-0.000174
 927	9.2137e+01	3.1074	11.178829	0.000345	3.447094	1.167907	-0.000138
 928	9.2237e+01	3.0593	11.013306	0.000416	4.156790	1.408359	-0.000166
 929	9.2336e+01	3.0256	10.859895	0.000385	3.852634	1.305308	-0.000154
 930	9.2436e+01	2.9839	10.674187	0.000466	4.663715	1.580110	-0.000187
 931	9.2535e+01	2.9390	10.549036	0.000314	3.142939	1.064856	-0.000126
 932	9.2635e+01	2.9101	10.399662	0.000375	3.751249	1.270958	-0.000150
 933	9.2734e+01	2.8555	10.238176	0.000406	4.055405	1.374008	-0.000162
 934	9.2834e+01	2.8283	10.060542	0.000446	4.460945	1.511409	-0.000179
 935	9.2933e+01	2.7849	9.895020	0.000416	4.156790	1.408359	-0.000166
 936	9.3032e+01	2.7416	9.773906	0.000304	3.041554	1.030506	-0.000122
 937	9.3132e+01	2.7063	9.588197	0.000466	4.663715	1.580110	-0.000187
 938	9.3231e+01	2.6727	9.487269	0.000253	2.534628	0.858755	-0.000101
 939	9.3331e+01	2.6213	9.297524	0.000477	4.765101	1.614460	-0.000191
 940	9.3430e+01	2.5860	9.123927	0.000436	4.359560	1.477059	-0.000174
 941	9.3530e+01	2.5395	8.966478	0.000395	3.954020	1.339658	-0.000158
 942	9.3629e+01	2.5090	8.796919	0.000426	4.258175	1.442709	-0.000170
 943	9.3729e+01	2.4609	8.667730	0.000324	3.244324	1.099207	-0.000130
 944	9.3829e+01	2.4256	8.526431	0.000355	3.548479	1.202257	-0.000142
 945	9.3928e+01	2.3903	8.344760	0.000456	4.562330	1.545759	-0.000183
 946	9.4028e+01	2.3518	8.191348	0.000385	3.852634	1.305308	-0.000154
 947	9.4127e+01	2.3165	8.033900	0.000395	3.954020	1.339658	-0.000158
 948	9.4227e+01	2.2636	7.888563	0.000365	3.649864	1.236607	-0.000146
 949	9.4326e+01	2.2299	7.743226	0.000365	3.649864	1.236607	-0.000146
 950	9.4425e+01	2.1882	7.557518	0.000466	4.663715	1.580110	-0.000187
 951	9.4525e+01	2.1481	7.424293	0.000335	3.345709	1.133557	-0.000134
 952	9.4624e+01	2.1064	7.254733	0.000426	4.258175	1.442709	-0.000170
 953	9.4724e+01	2.0727	7.085173	0.000426	4.258175	1.442709	-0.000170
 954	9.4823e+01	2.0294	6.955985	0.000324	3.244324	1.099207	-0.000130
 955	9.4923e+01	1.9876	6.782388	0.000436	4.359560	1.477059	-0.000174
 956	9.5022e+01	1.9475	6.624940	0.000395	3.954020	1.339658	-0.000158
 957	9.5122e+01	1.9187	6.463454	0.000406	4.055405	1.374008	-0.000162
 958	9.5222e+01	1.8673	6.281783	0.000456	4.562330	1.545759	-0.000183
 959	9.5321e+01	1.8336	6.144521	0.000345	3.447094	1.167907	-0.000138
 960	9.5421e+01	1.7983	6.003221	0.000355	3.548479	1.202257	-0.000142
 961	9.5520e+01	1.7550	5.813475	0.000477	4.765101	1.614460	-0.000191
 962	9.5620e+01	1.7181	5.664101	0.000375	3.751249	1.270958	-0.000150
 963	9.5719e+01	1.6684	5.502616	0.000406	4.055405	1.374008	-0.000162
 964	9.5819e+01	1.6331	5.333056	0.000426	4.258175	1.442709	-0.000170
 965	9.5918e+01	1.5882	5.195794	0.000345	3.447094	1.167907	-0.000138
 966	9.6017e+01	1.5529	5.050457	0.000365	3.649864	1.236607	-0.000146
 967	9.6117e+01	1.5208	4.860711	0.000477	4.765101	1.614460	-0.000191
 968	9.6216e+01	1.4727	4.703263	0.000395	3.954020	1.339658	-0.000158
 969	9.6316e+01	1.4326	4.553889	0.000375	3.751249	1.270958	-0.000150
 970	9.6415e+01	1.3877	4.384329	0.000426	4.258175	1.442709	-0.000170
 971	9.6515e+01	1.3540	4.238993	0.000365	3.649864	1.236607	-0.000146
 972	9.6615e+01	1.3139	4.041173	0.000497	4.967871	1.683160	-0.000199
 973	9.6714e+01	1.2706	3.911985	0.000324	3.244324	1.099207	-0.000130
 974	9.6814e+01	1.2256	3.758573	0.000385	3.852634	1.305308	-0.000154
 975	9.6913e+01	1.1935	3.568828	0.000477	4.765101	1.614460	-0.000191
 976	9.7013e+01	1.1502	3.431565	0.000345	3.447094	1.167907	-0.000138
 977	9.7112e+01	1.1037	3.270080	0.000406	4.055405	1.374008	-0.000162
 978	9.7212e+01	1.0684	3.108595	0.000406	4.055405	1.374008	-0.000162
 979	9.7311e+01	1.0411	2.951146	0.000395	3.954020	1.339658	-0.000158
 980	9.7410e+01	0.9994	2.797735	0.000385	3.852634	1.305308	-0.000154
 981	9.7510e+01	0.9561	2.644324	0.000385	3.852634	1.305308	-0.000154
 982	9.7609e+01	0.9080	2.470727	0.000436	4.359560	1.477059	-0.000174
 983	9.7709e+01	0.8743	2.333464	0.000345	3.447094	1.167907	-0.000138
 984	9.7808e+01	0.8406	2.135645	0.000497	4.967871	1.683160	-0.000199
 985	9.7908e+01	0.7925	1.994345	0.000355	3.548479	1.202257	-0.000142
 986	9.8007e+01	0.7604	1.844971	0.000375	3.751249	1.270958	-0.000150
 987	9.8107e+01	0.7155	1.671374	0.000436	4.359560	1.477059	-0.000174
 988	9.8207e+01	0.6690	1.513926	0.000395	3.954020	1.339658	-0.000158
 989	9.8306e+01	0.6273	1.396849	0.000294	2.940168	0.996156	-0.000118
 990	9.8406e+01	0.5952	1.219215	0.000446	4.460945	1.511409	-0.000179
 991	9.8505e+01	0.5503	1.009284	0.000527	5.272026	1.786211	-0.000211
 992	9.8605e+01	0.5214	0.884133	0.000314	3.142939	1.064856	-0.000126
 993	9.8704e+01	0.4636	0.754944	0.000324	3.244324	1.099207	-0.000130
 994	9.8803e+01	0.4315	0.589422	0.000416	4.156790	1.408359	-0.000166
 995	9.8903e+01	0.4043	0.415825	0.000436	4.359560	1.477059	-0.000174
 996	9.9002e+01	0.3545	0.262414	0.000385	3.852634	1.305308	-0.000154
 997	9.9102e+01	0.3192	0.109003	0.000385	3.852634	1.305308	-0.000154
 998	9.9201e+01	0.2727	-0.048446	0.000395	3.954020	1.339658	-0.000158
 999	9.9301e+01	0.2294	-0.185708	0.000345	3.447094	1.167907	-0.000138
1000	9.9400e+01	0.1925	-0.363342	0.000446	4.460945	1.511409	-0.000179
1001	9.9500e+01	0.1540	-0.512716	0.000375	3.751249	1.270958	-0.000150
1002	9.9600e+01	0.1155	-0.686313	0.000436	4.359560	1.477059	-0.000174
1003	9.9699e+01	0.0866	-0.855873	0.000426	4.258175	1.442709	-0.000170
1004	9.9799e+01	0.0417	-1.053692	0.000497	4.967871	1.683160	-0.000199
1005	9.9898e+01	0.0016	-1.170769	0.000294	2.940168	0.996156	-0.000118
1006	9.9998e+01	-0.0289	-1.320143	0.000375	3.751249	1.270958	-0.000150
1007	1.0010e+02	-0.0818	-1.477592	0.000395	3.954020	1.339658	-0.000158
1008	1.0020e+02	-0.1171	-1.639077	0.000406	4.055405	1.374008	-0.000162
1009	1.0030e+02	-0.1588	-1.735968	0.000243	2.433243	0.824405	-0.000097
1010	1.0040e+02	-0.1989	-1.925714	0.000477	4.765101	1.614460	-0.000191
1011	1.0050e+02	-0.2374	-2.123533	0.000497	4.967871	1.683160	-0.000199
1012	1.0059e+02	-0.2679	-2.236573	0.000284	2.838783	0.961806	-0.000114
1013	1.0069e+02	-0.3176	-2.458616	0.000558	5.576181	1.889261	-0.000223
1014	1.0079e+02	-0.3465	-2.579730	0.000304	3.041554	1.030506	-0.000122
1015	1.0089e+02	-0.3882	-2.741215	0.000406	4.055405	1.374008	-0.000162
1016	1.0099e+02	-0.4380	-2.914812	0.000436	4.359560	1.477059	-0.000174
1017	1.0109e+02	-0.4781	-3.088409	0.000436	4.359560	1.477059	-0.000174
1018	1.0119e+02	-0.5182	-3.270080	0.000456	4.562330	1.545759	-0.000183
1019	1.0129e+02	-0.5470	-3.415417	0.000365	3.649864	1.236607	-0.000146
1020	1.0139e+02	-0.6000	-3.589014	0.000436	4.359560	1.477059	-0.000174
1021	1.0149e+02	-0.6321	-3.734351	0.000365	3.649864	1.236607	-0.000146
1022	1.0159e+02	-0.6754	-3.863539	0.000324	3.244324	1.099207	-0.000130
1023	1.0169e+02	-0.7123	-4.053284	0.000477	4.765101	1.614460	-0.000191
1024	1.0179e+02	-0.7396	-4.190547	0.000345	3.447094	1.167907	-0.000138
1025	1.0189e+02	-0.7957	-4.404515	0.000537	5.373411	1.820561	-0.000215
1026	1.0199e+02	-0.8342	-4.582149	0.000446	4.460945	1.511409	-0.000179
1027	1.0209e+02	-0.8727	-4.679040	0.000243	2.433243	0.824405	-0.000097
1028	1.0219e+02	-0.9176	-4.868786	0.000477	4.765101	1.614460	-0.000191
1029	1.0229e+02	-0.9449	-5.030271	0.000406	4.055405	1.374008	-0.000162
1030	1.0239e+02	-0.9866	-5.207905	0.000446	4.460945	1.511409	-0.000179
1031	1.0248e+02	-1.0315	-5.369391	0.000406	4.055405	1.374008	-0.000162
1032	1.0258e+02	-1.0668	-5.526839	0.000395	3.954020	1.339658	-0.000158
1033	1.0268e+02	-1.1117	-5.688324	0.000406	4.055405	1.374008	-0.000162
1034	1.0278e+02	-1.1502	-5.837698	0.000375	3.751249	1.270958	-0.000150
1035	1.0288e+02	-1.1871	-6.047629	0.000527	5.272026	1.786211	-0.000211
1036	1.0298e+02	-1.2321	-6.164706	0.000294	2.940168	0.996156	-0.000118
1037	1.0308e+02	-1.2657	-6.326192	0.000406	4.055405	1.374008	-0.000162
1038	1.0318e+02	-1.3139	-6.483640	0.000395	3.954020	1.339658	-0.000158
1039	1.0328e+02	-1.3524	-6.685497	0.000507	5.069256	1.717510	-0.000203
1040	1.0338e+02	-1.3893	-6.830834	0.000365	3.649864	1.236607	-0.000146
1041	1.0348e+02	-1.4262	-6.972133	0.000355	3.548479	1.202257	-0.000142
1042	1.0358e+02	-1.4663	-7.125545	0.000385	3.852634	1.305308	-0.000154
1043	1.0368e+02	-1.5128	-7.319327	0.000487	4.866486	1.648810	-0.000195
1044	1.0378e+02	-1.5465	-7.452553	0.000335	3.345709	1.133557	-0.000134
1045	1.0388e+02	-1.5850	-7.585778	0.000335	3.345709	1.133557	-0.000134
1046	1.0398e+02	-1.6235	-7.763412	0.000446	4.460945	1.511409	-0.000179
1047	1.0408e+02	-1.6748	-7.953157	0.000477	4.765101	1.614460	-0.000191
1048	1.0418e+02	-1.7085	-8.094457	0.000355	3.548479	1.202257	-0.000142
1049	1.0428e+02	-1.7518	-8.268054	0.000436	4.359560	1.477059	-0.000174
1050	1.0438e+02	-1.7887	-8.401279	0.000335	3.345709	1.133557	-0.000134
1051	1.0447e+02	-1.8368	-8.562765	0.000406	4.055405	1.374008	-0.000162
1052	1.0457e+02	-1.8625	-8.720213	0.000395	3.954020	1.339658	-0.000158
1053	1.0467e+02	-1.9090	-8.889773	0.000426	4.258175	1.442709	-0.000170
1054	1.0477e+02	-1.9475	-9.051258	0.000406	4.055405	1.374008	-0.000162
1055	1.0487e+02	-1.9796	-9.241004	0.000477	4.765101	1.614460	-0.000191
1056	1.0497e+02	-2.0374	-9.354044	0.000284	2.838783	0.961806	-0.000114
1057	1.0507e+02	-2.0582	-9.543789	0.000477	4.765101	1.614460	-0.000191
1058	1.0517e+02	-2.1112	-9.685089	0.000355	3.548479	1.202257	-0.000142
1059	1.0527e+02	-2.1481	-9.830426	0.000365	3.649864	1.236607	-0.000146
1060	1.0537e+02	-2.1962	-10.024208	0.000487	4.866486	1.648810	-0.000195
1061	1.0547e+02	-2.2219	-10.165508	0.000355	3.548479	1.202257	-0.000142
1062	1.0557e+02	-2.2604	-10.314882	0.000375	3.751249	1.270958	-0.000150
1063	1.0567e+02	-2.3037	-10.480404	0.000416	4.156790	1.408359	-0.000166
1064	1.0577e+02	-2.3454	-10.629778	0.000375	3.751249	1.270958	-0.000150
1065	1.0587e+02	-2.3919	-10.791264	0.000406	4.055405	1.374008	-0.000162
1066	1.0597e+02	-2.4288	-10.993121	0.000507	5.069256	1.717510	-0.000203
1067	1.0607e+02	-2.4673	-11.102123	0.000274	2.737398	0.927456	-0.000110
1068	1.0617e+02	-2.5042	-11.251497	0.000375	3.751249	1.270958	-0.000150
1069	1.0627e+02	-2.5427	-11.445280	0.000487	4.866486	1.648810	-0.000195
1070	1.0637e+02	-2.5812	-11.578505	0.000335	3.345709	1.133557	-0.000134
1071	1.0647e+02	-2.6245	-11.752102	0.000436	4.359560	1.477059	-0.000174
1072	1.0656e+02	-2.6630	-11.901476	0.000375	3.751249	1.270958	-0.000150
1073	1.0666e+02	-2.7047	-12.054887	0.000385	3.852634	1.305308	-0.000154
1074	1.0676e+02	-2.7304	-12.228484	0.000436	4.359560	1.477059	-0.000174
1075	1.0686e+02	-2.7930	-12.406118	0.000446	4.460945	1.511409	-0.000179
1076	1.0696e+02	-2.8202	-12.547418	0.000355	3.548479	1.202257	-0.000142
1077	1.0706e+02	-2.8620	-12.692755	0.000365	3.649864	1.236607	-0.000146
1078	1.0716e+02	-2.9037	-12.882500	0.000477	4.765101	1.614460	-0.000191
1079	1.0726e+02	-2.9518	-13.023800	0.000355	3.548479	1.202257	-0.000142
1080	1.0736e+02	-2.9839	-13.185285	0.000406	4.055405	1.374008	-0.000162
1081	1.0746e+02	-3.0240	-13.326585	0.000355	3.548479	1.202257	-0.000142
1082	1.0756e+02	-3.0609	-13.504219	0.000446	4.460945	1.511409	-0.000179
1083	1.0766e+02	-3.1026	-13.645519	0.000355	3.548479	1.202257	-0.000142
1084	1.0776e+02	-3.1523	-13.778744	0.000335	3.345709	1.133557	-0.000134
1085	1.0786e+02	-3.1716	-13.960415	0.000456	4.562330	1.545759	-0.000183
1086	1.0796e+02	-3.2197	-14.125938	0.000416	4.156790	1.408359	-0.000166
1087	1.0806e+02	-3.2678	-14.263201	0.000345	3.447094	1.167907	-0.000138
1088	1.0816e+02	-3.3063	-14.432760	0.000426	4.258175	1.442709	-0.000170
1089	1.0826e+02	-3.3432	-14.590209	0.000395	3.954020	1.339658	-0.000158
1090	1.0836e+02	-3.3753	-14.747657	0.000395	3.954020	1.339658	-0.000158
1091	1.0845e+02	-3.4298	-14.888957	0.000355	3.548479	1.202257	-0.000142
1092	1.0855e+02	-3.4651	-15.074665	0.000466	4.663715	1.580110	-0.000187
1093	1.0865e+02	-3.5004	-15.175593	0.000253	2.534628	0.858755	-0.000101
1094	1.0875e+02	-3.5405	-15.381487	0.000517	5.170641	1.751861	-0.000207
1095	1.0885e+02	-3.5839	-15.506638	0.000314	3.142939	1.064856	-0.000126
1096	1.0895e+02	-3.6224	-15.651975	0.000365	3.649864	1.236607	-0.000146
1097	1.0905e+02	-3.6641	-15.817498	0.000416	4.156790	1.408359	-0.000166
1098	1.0915e+02	-3.6994	-15.970909	0.000385	3.852634	1.305308	-0.000154
1099	1.0925e+02	-3.7427	-16.128357	0.000395	3.954020	1.339658	-0.000158
1100	1.0935e+02	-3.7796	-16.281768	0.000385	3.852634	1.305308	-0.000154
1101	1.0945e+02	-3.8084	-16.390771	0.000274	2.737398	0.927456	-0.000110
1102	1.0955e+02	-3.8598	-16.544182	0.000385	3.852634	1.305308	-0.000154
1103	1.0965e+02	-3.8999	-16.697593	0.000385	3.852634	1.305308	-0.000154
1104	1.0975e+02	-3.9368	-16.842930	0.000365	3.649864	1.236607	-0.000146
1105	1.0985e+02	-3.9785	-17.024601	0.000456	4.562330	1.545759	-0.000183
1106	1.0995e+02	-4.0218	-17.182050	0.000395	3.954020	1.339658	-0.000158
1107	1.1005e+02	-4.0587	-17.359684	0.000446	4.460945	1.511409	-0.000179
1108	1.1015e+02	-4.0908	-17.500983	0.000355	3.548479	1.202257	-0.000142
1109	1.1025e+02	-4.1389	-17.630172	0.000324	3.244324	1.099207	-0.000130
1110	1.1035e+02	-4.1758	-17.811843	0.000456	4.562330	1.545759	-0.000183
1111	1.1044e+02	-4.2255	-17.924883	0.000284	2.838783	0.961806	-0.000114
1112	1.1054e+02	-4.2592	-18.054071	0.000324	3.244324	1.099207	-0.000130
1113	1.1064e+02	-4.2961	-18.227668	0.000436	4.359560	1.477059	-0.000174
1114	1.1074e+02	-4.3427	-18.433562	0.000517	5.170641	1.751861	-0.000207
1115	1.1084e+02	-4.3747	-18.550639	0.000294	2.940168	0.996156	-0.000118
1116	1.1094e+02	-4.4132	-18.716161	0.000416	4.156790	1.408359	-0.000166
1117	1.1104e+02	-4.4582	-18.833238	0.000294	2.940168	0.996156	-0.000118
1118	1.1114e+02	-4.4935	-18.958389	0.000314	3.142939	1.064856	-0.000126
1119	1.1124e+02	-4.5271	-19.144098	0.000466	4.663715	1.580110	-0.000187
1120	1.1134e+02	-4.5785	-19.273286	0.000324	3.244324	1.099207	-0.000130
1121	1.1144e+02	-4.6234	-19.438809	0.000416	4.156790	1.408359	-0.000166
1122	1.1154e+02	-4.6571	-19.567997	0.000324	3.244324	1.099207	-0.000130
1123	1.1164e+02	-4.7004	-19.757742	0.000477	4.765101	1.614460	-0.000191
1124	1.1174e+02	-4.7405	-19.854634	0.000243	2.433243	0.824405	-0.000097
1125	1.1184e+02	-4.7742	-20.024193	0.000426	4.258175	1.442709	-0.000170
1126	1.1194e+02	-4.8207	-20.145307	0.000304	3.041554	1.030506	-0.000122
1127	1.1204e+02	-4.8560	-20.331016	0.000466	4.663715	1.580110	-0.000187
1128	1.1214e+02	-4.8913	-20.456167	0.000314	3.142939	1.064856	-0.000126
1129	1.1224e+02	-4.9282	-20.641875	0.000466	4.663715	1.580110	-0.000187
1130	1.1234e+02	-4.9779	-20.787212	0.000365	3.649864	1.236607	-0.000146
1131	1.1244e+02	-5.0116	-20.908326	0.000304	3.041554	1.030506	-0.000122
1132	1.1253e+02	-5.0630	-21.065774	0.000395	3.954020	1.339658	-0.000158
1133	1.1263e+02	-5.1031	-21.267631	0.000507	5.069256	1.717510	-0.000203
1134	1.1273e+02	-5.1432	-21.376634	0.000274	2.737398	0.927456	-0.000110
1135	1.1283e+02	-5.1817	-21.546193	0.000426	4.258175	1.442709	-0.000170
1136	1.1293e+02	-5.2138	-21.655196	0.000274	2.737398	0.927456	-0.000110
1137	1.1303e+02	-5.2458	-21.812644	0.000395	3.954020	1.339658	-0.000158
1138	1.1313e+02	-5.2924	-21.986241	0.000436	4.359560	1.477059	-0.000174
1139	1.1323e+02	-5.3341	-22.111392	0.000314	3.142939	1.064856	-0.000126
1140	1.1333e+02	-5.3581	-22.297101	0.000466	4.663715	1.580110	-0.000187
1141	1.1343e+02	-5.4159	-22.446475	0.000375	3.751249	1.270958	-0.000150
1142	1.1353e+02	-5.4432	-22.563552	0.000294	2.940168	0.996156	-0.000118
1143	1.1363e+02	-5.4961	-22.692740	0.000324	3.244324	1.099207	-0.000130
1144	1.1373e+02	-5.5426	-22.850188	0.000395	3.954020	1.339658	-0.000158
1145	1.1383e+02	-5.5699	-23.015711	0.000416	4.156790	1.408359	-0.000166
1146	1.1393e+02	-5.6100	-23.165085	0.000375	3.751249	1.270958	-0.000150
1147	1.1403e+02	-5.6437	-23.322533	0.000395	3.954020	1.339658	-0.000158
1148	1.1413e+02	-5.6854	-23.471907	0.000375	3.751249	1.270958	-0.000150
1149	1.1423e+02	-5.7271	-23.633393	0.000406	4.055405	1.374008	-0.000162
1150	1.1433e+02	-5.7704	-23.697987	0.000162	1.622162	0.549603	-0.000065
1151	1.1442e+02	-5.8105	-23.960401	0.000659	6.590033	2.232764	-0.000264
1152	1.1452e+02	-5.8490	-24.073440	0.000284	2.838783	0.961806	-0.000114
1153	1.1462e+02	-5.9004	-24.206666	0.000335	3.345709	1.133557	-0.000134
1154	1.1472e+02	-5.9325	-24.347966	0.000355	3.548479	1.202257	-0.000142
1155	1.1482e+02	-5.9758	-24.477154	0.000324	3.244324	1.099207	-0.000130
1156	1.1492e+02	-6.0159	-24.646714	0.000426	4.258175	1.442709	-0.000170
1157	1.1502e+02	-6.0560	-24.759753	0.000284	2.838783	0.961806	-0.000114
1158	1.1512e+02	-6.0929	-24.937387	0.000446	4.460945	1.511409	-0.000179
1159	1.1522e+02	-6.1330	-25.074650	0.000345	3.447094	1.167907	-0.000138
1160	1.1532e+02	-6.1763	-25.199801	0.000314	3.142939	1.064856	-0.000126
1161	1.1542e+02	-6.2148	-25.320915	0.000304	3.041554	1.030506	-0.000122
1162	1.1552e+02	-6.2581	-25.498549	0.000446	4.460945	1.511409	-0.000179
1163	1.1562e+02	-6.2902	-25.684258	0.000466	4.663715	1.580110	-0.000187
1164	1.1572e+02	-6.3335	-25.777112	0.000233	2.331858	0.790055	-0.000093
1165	1.1582e+02	-6.3784	-25.942634	0.000416	4.156790	1.408359	-0.000166
1166	1.1592e+02	-6.4153	-26.071823	0.000324	3.244324	1.099207	-0.000130
1167	1.1602e+02	-6.4442	-26.225234	0.000385	3.852634	1.305308	-0.000154
1168	1.1612e+02	-6.4923	-26.382682	0.000395	3.954020	1.339658	-0.000158
1169	1.1622e+02	-6.5308	-26.523982	0.000355	3.548479	1.202257	-0.000142
1170	1.1632e+02	-6.5693	-26.624910	0.000253	2.534628	0.858755	-0.000101
1171	1.1642e+02	-6.6046	-26.834841	0.000527	5.272026	1.786211	-0.000211
1172	1.1651e+02	-6.6495	-26.939807	0.000264	2.636013	0.893105	-0.000105
1173	1.1661e+02	-6.6848	-27.109366	0.000426	4.258175	1.442709	-0.000170
1174	1.1671e+02	-6.7217	-27.250666	0.000355	3.548479	1.202257	-0.000142
1175	1.1681e+02	-6.7715	-27.404077	0.000385	3.852634	1.305308	-0.000154
1176	1.1691e+02	-6.8036	-27.513080	0.000274	2.737398	0.927456	-0.000110
1177	1.1701e+02	-6.8356	-27.670528	0.000395	3.954020	1.339658	-0.000158
1178	1.1711e+02	-6.8902	-27.823940	0.000385	3.852634	1.305308	-0.000154
1179	1.1721e+02	-6.9255	-27.969276	0.000365	3.649864	1.236607	-0.000146
1180	1.1731e+02	-6.9576	-28.074242	0.000264	2.636013	0.893105	-0.000105
1181	1.1741e+02	-6.9977	-28.304359	0.000578	5.778952	1.957962	-0.000231
1182	1.1751e+02	-7.0442	-28.401250	0.000243	2.433243	0.824405	-0.000097
1183	1.1761e+02	-7.0875	-28.550624	0.000375	3.751249	1.270958	-0.000150
1184	1.1771e+02	-7.1244	-28.728258	0.000446	4.460945	1.511409	-0.000179
1185	1.1781e+02	-7.1693	-28.869558	0.000355	3.548479	1.202257	-0.000142
1186	1.1791e+02	-7.2046	-28.978560	0.000274	2.737398	0.927456	-0.000110
1187	1.1801e+02	-7.2431	-29.144083	0.000416	4.156790	1.408359	-0.000166
1188	1.1811e+02	-7.2768	-29.313643	0.000426	4.258175	1.442709	-0.000170
1189	1.1821e+02	-7.3265	-29.422645	0.000274	2.737398	0.927456	-0.000110
1190	1.1831e+02	-7.3682	-29.636613	0.000537	5.373411	1.820561	-0.000215
1191	1.1841e+02	-7.4067	-29.741579	0.000264	2.636013	0.893105	-0.000105
1192	1.1850e+02	-7.4404	-29.870767	0.000324	3.244324	1.099207	-0.000130
1193	1.1860e+02	-7.4886	-30.048401	0.000446	4.460945	1.511409	-0.000179
1194	1.1870e+02	-7.5222	-30.205850	0.000395	3.954020	1.339658	-0.000158
1195	1.1880e+02	-7.5640	-30.331001	0.000314	3.142939	1.064856	-0.000126
1196	1.1890e+02	-7.6073	-30.452115	0.000304	3.041554	1.030506	-0.000122
1197	1.1900e+02	-7.6506	-30.601489	0.000375	3.751249	1.270958	-0.000150
1198	1.1910e+02	-7.6763	-30.799309	0.000497	4.967871	1.683160	-0.000199
1199	1.1920e+02	-7.7292	-30.932534	0.000335	3.345709	1.133557	-0.000134
1200	1.1930e+02	-7.7565	-31.041537	0.000274	2.737398	0.927456	-0.000110
1201	1.1940e+02	-7.8046	-31.198985	0.000395	3.954020	1.339658	-0.000158
1202	1.1950e+02	-7.8383	-31.348359	0.000375	3.751249	1.270958	-0.000150
1203	1.1960e+02	-7.8800	-31.521956	0.000436	4.359560	1.477059	-0.000174
1204	1.1970e+02	-7.9201	-31.634996	0.000284	2.838783	0.961806	-0.000114
1205	1.1980e+02	-7.9554	-31.812630	0.000446	4.460945	1.511409	-0.000179
1206	1.1990e+02	-7.9987	-31.945855	0.000335	3.345709	1.133557	-0.000134
1207	1.2000e+02	-8.0452	-32.071006	0.000314	3.142939	1.064856	-0.000126
1208	1.2010e+02	-8.0869	-32.200195	0.000324	3.244324	1.099207	-0.000130
1209	1.2020e+02	-8.1206	-32.377829	0.000446	4.460945	1.511409	-0.000179
1210	1.2030e+02	-8.1607	-32.486831	0.000274	2.737398	0.927456	-0.000110
1211	1.2039e+02	-8.2008	-32.640242	0.000385	3.852634	1.305308	-0.000154
1212	1.2049e+02	-8.2409	-32.777505	0.000345	3.447094	1.167907	-0.000138
1213	1.2059e+02	-8.2746	-32.890545	0.000284	2.838783	0.961806	-0.000114
1214	1.2069e+02	-8.3260	-33.112587	0.000558	5.576181	1.889261	-0.000223
1215	1.2079e+02	-8.3581	-33.205441	0.000233	2.331858	0.790055	-0.000093
1216	1.2089e+02	-8.3998	-33.342704	0.000345	3.447094	1.167907	-0.000138
1217	1.2099e+02	-8.4367	-33.484004	0.000355	3.548479	1.202257	-0.000142
1218	1.2109e+02	-8.4784	-33.669712	0.000466	4.663715	1.580110	-0.000187
1219	1.2119e+02	-8.5169	-33.770640	0.000253	2.534628	0.858755	-0.000101
1220	1.2129e+02	-8.5650	-33.924052	0.000385	3.852634	1.305308	-0.000154
1221	1.2139e+02	-8.6003	-34.073426	0.000375	3.751249	1.270958	-0.000150
1222	1.2149e+02	-8.6356	-34.194540	0.000304	3.041554	1.030506	-0.000122
1223	1.2159e+02	-8.6853	-34.323728	0.000324	3.244324	1.099207	-0.000130
1224	1.2169e+02	-8.7174	-34.456954	0.000335	3.345709	1.133557	-0.000134
1225	1.2179e+02	-8.7511	-34.618439	0.000406	4.055405	1.374008	-0.000162
1226	1.2189e+02	-8.7960	-34.779924	0.000406	4.055405	1.374008	-0.000162
1227	1.2199e+02	-8.8329	-34.880853	0.000253	2.534628	0.858755	-0.000101
1228	1.2209e+02	-8.8698	-35.050412	0.000426	4.258175	1.442709	-0.000170
1229	1.2219e+02	-8.9131	-35.171527	0.000304	3.041554	1.030506	-0.000122
1230	1.2229e+02	-8.9532	-35.284566	0.000284	2.838783	0.961806	-0.000114
1231	1.2239e+02	-8.9933	-35.425866	0.000355	3.548479	1.202257	-0.000142
1232	1.2248e+02	-9.0302	-35.591389	0.000416	4.156790	1.408359	-0.000166
1233	1.2258e+02	-9.0800	-35.756911	0.000416	4.156790	1.408359	-0.000166
1234	1.2268e+02	-9.1153	-35.853802	0.000243	2.433243	0.824405	-0.000097
1235	1.2278e+02	-9.1521	-35.987028	0.000335	3.345709	1.133557	-0.000134
1236	1.2288e+02	-9.1939	-36.176773	0.000477	4.765101	1.614460	-0.000191
1237	1.2298e+02	-9.2340	-36.305962	0.000324	3.244324	1.099207	-0.000130
1238	1.2308e+02	-9.2773	-36.431113	0.000314	3.142939	1.064856	-0.000126
1239	1.2318e+02	-9.3158	-36.560301	0.000324	3.244324	1.099207	-0.000130
1240	1.2328e+02	-9.3607	-36.705638	0.000365	3.649864	1.236607	-0.000146
1241	1.2338e+02	-9.3880	-36.842901	0.000345	3.447094	1.167907	-0.000138
1242	1.2348e+02	-9.4345	-37.000349	0.000395	3.954020	1.339658	-0.000158
1243	1.2358e+02	-9.4682	-37.145686	0.000365	3.649864	1.236607	-0.000146
1244	1.2368e+02	-9.5083	-37.299097	0.000385	3.852634	1.305308	-0.000154
1245	1.2378e+02	-9.5516	-37.400025	0.000253	2.534628	0.858755	-0.000101
1246	1.2388e+02	-9.6013	-37.561511	0.000406	4.055405	1.374008	-0.000162
1247	1.2398e+02	-9.6334	-37.694736	0.000335	3.345709	1.133557	-0.000134
1248	1.2408e+02	-9.6735	-37.856222	0.000406	4.055405	1.374008	-0.000162
1249	1.2418e+02	-9.7184	-37.961187	0.000264	2.636013	0.893105	-0.000105
1250	1.2428e+02	-9.7569	-38.126710	0.000416	4.156790	1.408359	-0.000166
1251	1.2438e+02	-9.8003	-38.255898	0.000324	3.244324	1.099207	-0.000130
1252	1.2447e+02	-9.8356	-38.336641	0.000203	2.027702	0.687004	-0.000081
1253	1.2457e+02	-9.8724	-38.526386	0.000477	4.765101	1.614460	-0.000191
1254	1.2467e+02	-9.9158	-38.667686	0.000355	3.548479	1.202257	-0.000142
1255	1.2477e+02	-9.9591	-38.784763	0.000294	2.940168	0.996156	-0.000118
1256	1.2487e+02	-9.9831	-38.917989	0.000335	3.345709	1.133557	-0.000134
1257	1.2497e+02	-10.0249	-39.083511	0.000416	4.156790	1.408359	-0.000166
1258	1.2507e+02	-10.0650	-39.220774	0.000345	3.447094	1.167907	-0.000138
1259	1.2517e+02	-10.1243	-39.353999	0.000335	3.345709	1.133557	-0.000134
1260	1.2527e+02	-10.1548	-39.471076	0.000294	2.940168	0.996156	-0.000118
1261	1.2537e+02	-10.1901	-39.624487	0.000385	3.852634	1.305308	-0.000154
1262	1.2547e+02	-10.2318	-39.701193	0.000193	1.926317	0.652654	-0.000077
1263	1.2557e+02	-10.2751	-39.870753	0.000426	4.258175	1.442709	-0.000170
1264	1.2567e+02	-10.3104	-39.979755	0.000274	2.737398	0.927456	-0.000110
1265	1.2577e+02	-10.3505	-40.137204	0.000395	3.954020	1.339658	-0.000158
1266	1.2587e+02	-10.3938	-40.274466	0.000345	3.447094	1.167907	-0.000138
1267	1.2597e+02	-10.4307	-40.395580	0.000304	3.041554	1.030506	-0.000122
1268	1.2607e+02	-10.4740	-40.540917	0.000365	3.649864	1.236607	-0.000146
1269	1.2617e+02	-10.5174	-40.678180	0.000345	3.447094	1.167907	-0.000138
1270	1.2627e+02	-10.5559	-40.843702	0.000416	4.156790	1.408359	-0.000166
1271	1.2636e+02	-10.5847	-40.920408	0.000193	1.926317	0.652654	-0.000077
1272	1.2646e+02	-10.6329	-41.089968	0.000426	4.258175	1.442709	-0.000170
1273	1.2656e+02	-10.6698	-41.174747	0.000213	2.129087	0.721354	-0.000085
1274	1.2666e+02	-10.7163	-41.332196	0.000395	3.954020	1.339658	-0.000158
1275	1.2676e+02	-10.7580	-41.457347	0.000314	3.142939	1.064856	-0.000126
1276	1.2686e+02	-10.7933	-41.590572	0.000335	3.345709	1.133557	-0.000134
1277	1.2696e+02	-10.8382	-41.743984	0.000385	3.852634	1.305308	-0.000154
1278	1.2706e+02	-10.8751	-41.852986	0.000274	2.737398	0.927456	-0.000110
1279	1.2716e+02	-10.9072	-41.961989	0.000274	2.737398	0.927456	-0.000110
1280	1.2726e+02	-10.9473	-42.115400	0.000385	3.852634	1.305308	-0.000154
1281	1.2736e+02	-10.9826	-42.264774	0.000375	3.751249	1.270958	-0.000150
1282	1.2746e+02	-11.0371	-42.369740	0.000264	2.636013	0.893105	-0.000105
1283	1.2756e+02	-11.0660	-42.515076	0.000365	3.649864	1.236607	-0.000146
1284	1.2766e+02	-11.0981	-42.616005	0.000253	2.534628	0.858755	-0.000101
1285	1.2776e+02	-11.1510	-42.789602	0.000436	4.359560	1.477059	-0.000174
1286	1.2786e+02	-11.1863	-42.862270	0.000182	1.824932	0.618304	-0.000073
1287	1.2796e+02	-11.2344	-43.011644	0.000375	3.751249	1.270958	-0.000150
1288	1.2806e+02	-11.2665	-43.136795	0.000314	3.142939	1.064856	-0.000126
1289	1.2816e+02	-11.3098	-43.282132	0.000365	3.649864	1.236607	-0.000146
1290	1.2826e+02	-11.3483	-43.403246	0.000304	3.041554	1.030506	-0.000122
1291	1.2835e+02	-11.3868	-43.560695	0.000395	3.954020	1.339658	-0.000158
1292	1.2845e+02	-11.4366	-43.665660	0.000264	2.636013	0.893105	-0.000105
1293	1.2855e+02	-11.4687	-43.790811	0.000314	3.142939	1.064856	-0.000126
1294	1.2865e+02	-11.5088	-43.920000	0.000324	3.244324	1.099207	-0.000130
1295	1.2875e+02	-11.5473	-44.065337	0.000365	3.649864	1.236607	-0.000146
1296	1.2885e+02	-11.5810	-44.206636	0.000355	3.548479	1.202257	-0.000142
1297	1.2895e+02	-11.6243	-44.331788	0.000314	3.142939	1.064856	-0.000126
1298	1.2905e+02	-11.6644	-44.452902	0.000304	3.041554	1.030506	-0.000122
1299	1.2915e+02	-11.7125	-44.594201	0.000355	3.548479	1.202257	-0.000142
1300	1.2925e+02	-11.7446	-44.723390	0.000324	3.244324	1.099207	-0.000130
1301	1.2935e+02	-11.7863	-44.848541	0.000314	3.142939	1.064856	-0.000126
1302	1.2945e+02	-11.8200	-44.957544	0.000274	2.737398	0.927456	-0.000110
1303	1.2955e+02	-11.8665	-45.119029	0.000406	4.055405	1.374008	-0.000162
1304	1.2965e+02	-11.9082	-45.272440	0.000385	3.852634	1.305308	-0.000154
1305	1.2975e+02	-11.9515	-45.365294	0.000233	2.331858	0.790055	-0.000093
1306	1.2985e+02	-11.9820	-45.514668	0.000375	3.751249	1.270958	-0.000150
1307	1.2995e+02	-12.0285	-45.635782	0.000304	3.041554	1.030506	-0.000122
1308	1.3005e+02	-12.0686	-45.740748	0.000264	2.636013	0.893105	-0.000105
1309	1.3015e+02	-12.1071	-45.906270	0.000416	4.156790	1.408359	-0.000166
1310	1.3025e+02	-12.1505	-46.011236	0.000264	2.636013	0.893105	-0.000105
1311	1.3034e+02	-12.1809	-46.108127	0.000243	2.433243	0.824405	-0.000097
1312	1.3044e+02	-12.2291	-46.269613	0.000406	4.055405	1.374008	-0.000162
1313	1.3054e+02	-12.2708	-46.394764	0.000314	3.142939	1.064856	-0.000126
1314	1.3064e+02	-12.3045	-46.548175	0.000385	3.852634	1.305308	-0.000154
1315	1.3074e+02	-12.3398	-46.661215	0.000284	2.838783	0.961806	-0.000114
1316	1.3084e+02	-12.3734	-46.798477	0.000345	3.447094	1.167907	-0.000138
1317	1.3094e+02	-12.4184	-46.919592	0.000304	3.041554	1.030506	-0.000122
1318	1.3104e+02	-12.4697	-47.052817	0.000335	3.345709	1.133557	-0.000134
1319	1.3114e+02	-12.4986	-47.129523	0.000193	1.926317	0.652654	-0.000077
1320	1.3124e+02	-12.5499	-47.270822	0.000355	3.548479	1.202257	-0.000142
1321	1.3134e+02	-12.5884	-47.428271	0.000395	3.954020	1.339658	-0.000158
1322	1.3144e+02	-12.6285	-47.565533	0.000345	3.447094	1.167907	-0.000138
1323	1.3154e+02	-12.6622	-47.710870	0.000365	3.649864	1.236607	-0.000146
1324	1.3164e+02	-12.6991	-47.811799	0.000253	2.534628	0.858755	-0.000101
1325	1.3174e+02	-12.7472	-47.957135	0.000365	3.649864	1.236607	-0.000146
1326	1.3184e+02	-12.7761	-48.074212	0.000294	2.940168	0.996156	-0.000118
1327	1.3194e+02	-12.8130	-48.179178	0.000264	2.636013	0.893105	-0.000105
1328	1.3204e+02	-12.8708	-48.332589	0.000385	3.852634	1.305308	-0.000154
1329	1.3214e+02	-12.9044	-48.413332	0.000203	2.027702	0.687004	-0.000081
1330	1.3224e+02	-12.9494	-48.562706	0.000375	3.751249	1.270958	-0.000150
1331	1.3234e+02	-12.9782	-48.708043	0.000365	3.649864	1.236607	-0.000146
1332	1.3243e+02	-13.0280	-48.837231	0.000324	3.244324	1.099207	-0.000130
1333	1.3253e+02	-13.0569	-48.913937	0.000193	1.926317	0.652654	-0.000077
1334	1.3263e+02	-13.0986	-49.075422	0.000406	4.055405	1.374008	-0.000162
1335	1.3273e+02	-13.1322	-49.228833	0.000385	3.852634	1.305308	-0.000154
1336	1.3283e+02	-13.1772	-49.345910	0.000294	2.940168	0.996156	-0.000118
1337	1.3293e+02	-13.2157	-49.438764	0.000233	2.331858	0.790055	-0.000093
1338	1.3303e+02	-13.2670	-49.592175	0.000385	3.852634	1.305308	-0.000154
1339	1.3313e+02	-13.2991	-49.741549	0.000375	3.751249	1.270958	-0.000150
1340	1.3323e+02	-13.3344	-49.850552	0.000274	2.737398	0.927456	-0.000110
1341	1.3333e+02	-13.3841	-49.967629	0.000294	2.940168	0.996156	-0.000118
1342	1.3343e+02	-13.4210	-50.137189	0.000426	4.258175	1.442709	-0.000170
1343	1.3353e+02	-13.4547	-50.234080	0.000243	2.433243	0.824405	-0.000097
1344	1.3363e+02	-13.5028	-50.359231	0.000314	3.142939	1.064856	-0.000126
1345	1.3373e+02	-13.5349	-50.504568	0.000365	3.649864	1.236607	-0.000146
1346	1.3383e+02	-13.5750	-50.617608	0.000284	2.838783	0.961806	-0.000114
1347	1.3393e+02	-13.6103	-50.726611	0.000274	2.737398	0.927456	-0.000110
1348	1.3403e+02	-13.6600	-50.875985	0.000375	3.751249	1.270958	-0.000150
1349	1.3413e+02	-13.6969	-50.993062	0.000294	2.940168	0.996156	-0.000118
1350	1.3423e+02	-13.7386	-51.102064	0.000274	2.737398	0.927456	-0.000110
1351	1.3432e+02	-13.7707	-51.247401	0.000365	3.649864	1.236607	-0.000146
1352	1.3442e+02	-13.8237	-51.416961	0.000426	4.258175	1.442709	-0.000170
1353	1.3452e+02	-13.8558	-51.530001	0.000284	2.838783	0.961806	-0.000114
1354	1.3462e+02	-13.8943	-51.630929	0.000253	2.534628	0.858755	-0.000101
1355	1.3472e+02	-13.9328	-51.804526	0.000436	4.359560	1.477059	-0.000174
1356	1.3482e+02	-13.9777	-51.937751	0.000335	3.345709	1.133557	-0.000134
1357	1.3492e+02	-14.0210	-52.026568	0.000223	2.230473	0.755705	-0.000089
1358	1.3502e+02	-14.0595	-52.188054	0.000406	4.055405	1.374008	-0.000162
1359	1.3512e+02	-14.0868	-52.264759	0.000193	1.926317	0.652654	-0.000077
1360	1.3522e+02	-14.1365	-52.410096	0.000365	3.649864	1.236607	-0.000146
1361	1.3532e+02	-14.1750	-52.595804	0.000466	4.663715	1.580110	-0.000187
1362	1.3542e+02	-14.2087	-52.712881	0.000294	2.940168	0.996156	-0.000118
1363	1.3552e+02	-14.2536	-52.805735	0.000233	2.331858	0.790055	-0.000093
1364	1.3562e+02	-14.2905	-52.930887	0.000314	3.142939	1.064856	-0.000126
1365	1.3572e+02	-14.3386	-53.080261	0.000375	3.751249	1.270958	-0.000150
1366	1.3582e+02	-14.3819	-53.205412	0.000314	3.142939	1.064856	-0.000126
1367	1.3592e+02	-14.4076	-53.366897	0.000406	4.055405	1.374008	-0.000162
1368	1.3602e+02	-14.4509	-53.451677	0.000213	2.129087	0.721354	-0.000085
1369	1.3612e+02	-14.4942	-53.568754	0.000294	2.940168	0.996156	-0.000118
1370	1.3622e+02	-14.5311	-53.722165	0.000385	3.852634	1.305308	-0.000154
1371	1.3631e+02	-14.5745	-53.859428	0.000345	3.447094	1.167907	-0.000138
1372	1.3641e+02	-14.6130	-53.932096	0.000182	1.824932	0.618304	-0.000073
1373	1.3651e+02	-14.6515	-54.077433	0.000365	3.649864	1.236607	-0.000146
1374	1.3661e+02	-14.6996	-54.255067	0.000446	4.460945	1.511409	-0.000179
1375	1.3671e+02	-14.7317	-54.364070	0.000274	2.737398	0.927456	-0.000110
1376	1.3681e+02	-14.7766	-54.489221	0.000314	3.142939	1.064856	-0.000126
1377	1.3691e+02	-14.8087	-54.606298	0.000294	2.940168	0.996156	-0.000118
1378	1.3701e+02	-14.8568	-54.719338	0.000284	2.838783	0.961806	-0.000114
1379	1.3711e+02	-14.8841	-54.844489	0.000314	3.142939	1.064856	-0.000126
1380	1.3721e+02	-14.9370	-54.989826	0.000365	3.649864	1.236607	-0.000146
1381	1.3731e+02	-14.9707	-55.135163	0.000365	3.649864	1.236607	-0.000146
1382	1.3741e+02	-15.0172	-55.260314	0.000314	3.142939	1.064856	-0.000126
1383	1.3751e+02	-15.0541	-55.365280	0.000264	2.636013	0.893105	-0.000105
1384	1.3761e+02	-15.0958	-55.482356	0.000294	2.940168	0.996156	-0.000118
1385	1.3771e+02	-15.1391	-55.623656	0.000355	3.548479	1.202257	-0.000142
1386	1.3781e+02	-15.1728	-55.768993	0.000365	3.649864	1.236607	-0.000146
1387	1.3791e+02	-15.2161	-55.877996	0.000274	2.737398	0.927456	-0.000110
1388	1.3801e+02	-15.2579	-55.970850	0.000233	2.331858	0.790055	-0.000093
1389	1.3811e+02	-15.2899	-56.096001	0.000314	3.142939	1.064856	-0.000126
1390	1.3821e+02	-15.3333	-56.289784	0.000487	4.866486	1.648810	-0.000195
1391	1.3831e+02	-15.3766	-56.394749	0.000264	2.636013	0.893105	-0.000105
1392	1.3840e+02	-15.4119	-56.463380	0.000172	1.723547	0.583954	-0.000069
1393	1.3850e+02	-15.4616	-56.612754	0.000375	3.751249	1.270958	-0.000150
1394	1.3860e+02	-15.4857	-56.750017	0.000345	3.447094	1.167907	-0.000138
1395	1.3870e+02	-15.5322	-56.859020	0.000274	2.737398	0.927456	-0.000110
1396	1.3880e+02	-15.5707	-56.984171	0.000314	3.142939	1.064856	-0.000126
1397	1.3890e+02	-15.6172	-57.117396	0.000335	3.345709	1.133557	-0.000134
1398	1.3900e+02	-15.6493	-57.242548	0.000314	3.142939	1.064856	-0.000126
1399	1.3910e+02	-15.6942	-57.355587	0.000284	2.838783	0.961806	-0.000114
1400	1.3920e+02	-15.7247	-57.533221	0.000446	4.460945	1.511409	-0.000179
1401	1.3930e+02	-15.7664	-57.630113	0.000243	2.433243	0.824405	-0.000097
1402	1.3940e+02	-15.8033	-57.743152	0.000284	2.838783	0.961806	-0.000114
1403	1.3950e+02	-15.8594	-57.892526	0.000375	3.751249	1.270958	-0.000150
1404	1.3960e+02	-15.8899	-58.009603	0.000294	2.940168	0.996156	-0.000118
1405	1.3970e+02	-15.9268	-58.122643	0.000284	2.838783	0.961806	-0.000114
1406	1.3980e+02	-15.9701	-58.243757	0.000304	3.041554	1.030506	-0.000122
1407	1.3990e+02	-16.0151	-58.352760	0.000274	2.737398	0.927456	-0.000110
1408	1.4000e+02	-16.0552	-58.502134	0.000375	3.751249	1.270958	-0.000150
1409	1.4010e+02	-16.1033	-58.631322	0.000324	3.244324	1.099207	-0.000130
1410	1.4020e+02	-16.1257	-58.744362	0.000284	2.838783	0.961806	-0.000114
1411	1.4029e+02	-16.1626	-58.873550	0.000324	3.244324	1.099207	-0.000130
1412	1.4039e+02	-16.2060	-59.022924	0.000375	3.751249	1.270958	-0.000150
1413	1.4049e+02	-16.2461	-59.103667	0.000203	2.027702	0.687004	-0.000081
1414	1.4059e+02	-16.2814	-59.265153	0.000406	4.055405	1.374008	-0.000162
1415	1.4069e+02	-16.3247	-59.378192	0.000284	2.838783	0.961806	-0.000114
1416	1.4079e+02	-16.3535	-59.503344	0.000314	3.142939	1.064856	-0.000126
1417	1.4089e+02	-16.4081	-59.608309	0.000264	2.636013	0.893105	-0.000105
1418	1.4099e+02	-16.4530	-59.753646	0.000365	3.649864	1.236607	-0.000146
1419	1.4109e+02	-16.4851	-59.878797	0.000314	3.142939	1.064856	-0.000126
1420	1.4119e+02	-16.5284	-59.999911	0.000304	3.041554	1.030506	-0.000122
1421	1.4129e+02	-16.5749	-60.121025	0.000304	3.041554	1.030506	-0.000122
1422	1.4139e+02	-16.6022	-60.274437	0.000385	3.852634	1.305308	-0.000154
1423	1.4149e+02	-16.6391	-60.383439	0.000274	2.737398	0.927456	-0.000110
1424	1.4159e+02	-16.6840	-60.532813	0.000375	3.751249	1.270958	-0.000150
1425	1.4169e+02	-16.7225	-60.637779	0.000264	2.636013	0.893105	-0.000105
1426	1.4179e+02	-16.7658	-60.722559	0.000213	2.129087	0.721354	-0.000085
1427	1.4189e+02	-16.7963	-60.863858	0.000355	3.548479	1.202257	-0.000142
1428	1.4199e+02	-16.8428	-61.013232	0.000375	3.751249	1.270958	-0.000150
1429	1.4209e+02	-16.8829	-61.093975	0.000203	2.027702	0.687004	-0.000081
1430	1.4219e+02	-16.9231	-61.227201	0.000335	3.345709	1.133557	-0.000134
1431	1.4228e+02	-16.9583	-61.352352	0.000314	3.142939	1.064856	-0.000126
1432	1.4238e+02	-17.0097	-61.517874	0.000416	4.156790	1.408359	-0.000166
1433	1.4248e+02	-17.0482	-61.610728	0.000233	2.331858	0.790055	-0.000093
1434	1.4258e+02	-17.0835	-61.691471	0.000203	2.027702	0.687004	-0.000081
1435	1.4268e+02	-17.1204	-61.844882	0.000385	3.852634	1.305308	-0.000154
1436	1.4278e+02	-17.1637	-61.961959	0.000294	2.940168	0.996156	-0.000118
1437	1.4288e+02	-17.1942	-62.070962	0.000274	2.737398	0.927456	-0.000110
1438	1.4298e+02	-17.2455	-62.212262	0.000355	3.548479	1.202257	-0.000142
1439	1.4308e+02	-17.2808	-62.337413	0.000314	3.142939	1.064856	-0.000126
1440	1.4318e+02	-17.3225	-62.454490	0.000294	2.940168	0.996156	-0.000118
1441	1.4328e+02	-17.3674	-62.595790	0.000355	3.548479	1.202257	-0.000142
1442	1.4338e+02	-17.3995	-62.712867	0.000294	2.940168	0.996156	-0.000118
1443	1.4348e+02	-17.4364	-62.821869	0.000274	2.737398	0.927456	-0.000110
1444	1.4358e+02	-17.4974	-62.955095	0.000335	3.345709	1.133557	-0.000134
1445	1.4368e+02	-17.5295	-63.043912	0.000223	2.230473	0.755705	-0.000089
1446	1.4378e+02	-17.5631	-63.177137	0.000335	3.345709	1.133557	-0.000134
1447	1.4388e+02	-17.6049	-63.322474	0.000365	3.649864	1.236607	-0.000146
1448	1.4398e+02	-17.6482	-63.423402	0.000253	2.534628	0.858755	-0.000101
1449	1.4408e+02	-17.6786	-63.532405	0.000274	2.737398	0.927456	-0.000110
1450	1.4418e+02	-17.7155	-63.685816	0.000385	3.852634	1.305308	-0.000154
1451	1.4428e+02	-17.7573	-63.794819	0.000274	2.737398	0.927456	-0.000110
1452	1.4437e+02	-17.8054	-63.875562	0.000203	2.027702	0.687004	-0.000081
1453	1.4447e+02	-17.8343	-64.045121	0.000426	4.258175	1.442709	-0.000170
1454	1.4457e+02	-17.8840	-64.170273	0.000314	3.142939	1.064856	-0.000126
1455	1.4467e+02	-17.9145	-64.283312	0.000284	2.838783	0.961806	-0.000114
1456	1.4477e+02	-17.9530	-64.412501	0.000324	3.244324	1.099207	-0.000130
1457	1.4487e+02	-18.0011	-64.521503	0.000274	2.737398	0.927456	-0.000110
1458	1.4497e+02	-18.0524	-64.691063	0.000426	4.258175	1.442709	-0.000170
1459	1.4507e+02	-18.0813	-64.787954	0.000243	2.433243	0.824405	-0.000097
1460	1.4517e+02	-18.1182	-64.921180	0.000335	3.345709	1.133557	-0.000134
1461	1.4527e+02	-18.1647	-65.058442	0.000345	3.447094	1.167907	-0.000138
1462	1.4537e+02	-18.1952	-65.187631	0.000324	3.244324	1.099207	-0.000130
1463	1.4547e+02	-18.2305	-65.328931	0.000355	3.548479	1.202257	-0.000142
1464	1.4557e+02	-18.2818	-65.405636	0.000193	1.926317	0.652654	-0.000077
1465	1.4567e+02	-18.3187	-65.555010	0.000375	3.751249	1.270958	-0.000150
1466	1.4577e+02	-18.3604	-65.716496	0.000406	4.055405	1.374008	-0.000162
1467	1.4587e+02	-18.4022	-65.817424	0.000253	2.534628	0.858755	-0.000101
1468	1.4597e+02	-18.4423	-65.946612	0.000324	3.244324	1.099207	-0.000130
1469	1.4607e+02	-18.4824	-66.063689	0.000294	2.940168	0.996156	-0.000118
1470	1.4617e+02	-18.5209	-66.192878	0.000324	3.244324	1.099207	-0.000130
1471	1.4626e+02	-18.5658	-66.338214	0.000365	3.649864	1.236607	-0.000146
1472	1.4636e+02	-18.5963	-66.467403	0.000324	3.244324	1.099207	-0.000130
1473	1.4646e+02	-18.6476	-66.576405	0.000274	2.737398	0.927456	-0.000110
1474	1.4656e+02	-18.6765	-66.705594	0.000324	3.244324	1.099207	-0.000130
1475	1.4666e+02	-18.7198	-66.834782	0.000324	3.244324	1.099207	-0.000130
1476	1.4676e+02	-18.7535	-66.939748	0.000264	2.636013	0.893105	-0.000105
1477	1.4686e+02	-18.7984	-67.064899	0.000314	3.142939	1.064856	-0.000126
1478	1.4696e+02	-18.8417	-67.242533	0.000446	4.460945	1.511409	-0.000179
1479	1.4706e+02	-18.8866	-67.371721	0.000324	3.244324	1.099207	-0.000130
1480	1.4716e+02	-18.9187	-67.513021	0.000355	3.548479	1.202257	-0.000142
1481	1.4726e+02	-18.9572	-67.605875	0.000233	2.331858	0.790055	-0.000093
1482	1.4736e+02	-18.9909	-67.775435	0.000426	4.258175	1.442709	-0.000170
1483	1.4746e+02	-19.0422	-67.912697	0.000345	3.447094	1.167907	-0.000138
1484	1.4756e+02	-19.0823	-68.086294	0.000436	4.359560	1.477059	-0.000174
1485	1.4766e+02	-19.1096	-68.163000	0.000193	1.926317	0.652654	-0.000077
1486	1.4776e+02	-19.1529	-68.280077	0.000294	2.940168	0.996156	-0.000118
1487	1.4786e+02	-19.1995	-68.413302	0.000335	3.345709	1.133557	-0.000134
1488	1.4796e+02	-19.2219	-68.590936	0.000446	4.460945	1.511409	-0.000179
1489	1.4806e+02	-19.2829	-68.703976	0.000284	2.838783	0.961806	-0.000114
1490	1.4816e+02	-19.3150	-68.817016	0.000284	2.838783	0.961806	-0.000114
1491	1.4825e+02	-19.3551	-68.962353	0.000365	3.649864	1.236607	-0.000146
1492	1.4835e+02	-19.3936	-69.055207	0.000233	2.331858	0.790055	-0.000093
1493	1.4845e+02	-19.4353	-69.236878	0.000456	4.562330	1.545759	-0.000183
1494	1.4855e+02	-19.4754	-69.378178	0.000355	3.548479	1.202257	-0.000142
1495	1.4865e+02	-19.5171	-69.531589	0.000385	3.852634	1.305308	-0.000154
1496	1.4875e+02	-19.5508	-69.656740	0.000314	3.142939	1.064856	-0.000126
1497	1.4885e+02	-19.5925	-69.802077	0.000365	3.649864	1.236607	-0.000146
1498	1.4895e+02	-19.6278	-69.894931	0.000233	2.331858	0.790055	-0.000093
1499	1.4905e+02	-19.6775	-70.076602	0.000456	4.562330	1.545759	-0.000183
1500	1.4915e+02	-19.7080	-70.246162	0.000426	4.258175	1.442709	-0.000170
1501	1.4925e+02	-19.7497	-70.363239	0.000294	2.940168	0.996156	-0.000118
1502	1.4935e+02	-19.7946	-70.484353	0.000304	3.041554	1.030506	-0.000122
1503	1.4945e+02	-19.8347	-70.666024	0.000456	4.562330	1.545759	-0.000183
1504	1.4955e+02	-19.8764	-70.815398	0.000375	3.751249	1.270958	-0.000150
1505	1.4965e+02	-19.9149	-70.956698	0.000355	3.548479	1.202257	-0.000142
1506	1.4975e+02	-19.9599	-71.114146	0.000395	3.954020	1.339658	-0.000158
1507	1.4985e+02	-19.9791	-71.231223	0.000294	2.940168	0.996156	-0.000118
1508	1.4995e+02	-19.9518	-71.211037	0.000051	0.506926	0.171751	0.000020
1509	1.5005e+02	-19.9069	-71.158555	0.000132	1.318007	0.446553	0.000053
1510	1.5015e+02	-19.8748	-71.073775	0.000213	2.129087	0.721354	0.000085
1511	1.5025e+02	-19.8315	-71.029366	0.000112	1.115236	0.377852	0.000045
1512	1.5034e+02	-19.7962	-71.001106	0.000071	0.709696	0.240451	0.000028
1513	1.5044e+02	-19.7577	-70.960735	0.000101	1.013851	0.343502	0.000041
1514	1.5054e+02	-19.7064	-70.924401	0.000091	0.912466	0.309152	0.000037
1515	1.5064e+02	-19.6759	-70.799249	0.000314	3.142939	1.064856	0.000126
1516	1.5074e+02	-19.6326	-70.762915	0.000091	0.912466	0.309152	0.000037
1517	1.5084e+02	-19.6037	-70.706395	0.000142	1.419392	0.480903	0.000057
1518	1.5094e+02	-19.5572	-70.661987	0.000112	1.115236	0.377852	0.000045
1519	1.5104e+02	-19.5171	-70.613541	0.000122	1.216621	0.412202	0.000049
1520	1.5114e+02	-19.4706	-70.548947	0.000162	1.622162	0.549603	0.000065
1521	1.5124e+02	-19.4321	-70.460130	0.000223	2.230473	0.755705	0.000089
1522	1.5134e+02	-19.3888	-70.387462	0.000182	1.824932	0.618304	0.000073
1523	1.5144e+02	-19.3631	-70.343053	0.000112	1.115236	0.377852	0.000045
1524	1.5154e+02	-19.3230	-70.274422	0.000172	1.723547	0.583954	0.000069
1525	1.5164e+02	-19.2765	-70.205790	0.000172	1.723547	0.583954	0.000069
1526	1.5174e+02	-19.2396	-70.100825	0.000264	2.636013	0.893105	0.000105
1527	1.5184e+02	-19.1962	-70.084676	0.000041	0.405540	0.137401	0.000016
1528	1.5194e+02	-19.1577	-70.044305	0.000101	1.013851	0.343502	0.000041
1529	1.5204e+02	-19.1112	-69.923191	0.000304	3.041554	1.030506	0.000122
1530	1.5214e+02	-19.0791	-69.870708	0.000132	1.318007	0.446553	0.000053
1531	1.5224e+02	-19.0374	-69.781891	0.000223	2.230473	0.755705	0.000089
1532	1.5233e+02	-18.9973	-69.664814	0.000294	2.940168	0.996156	0.000118
1533	1.5243e+02	-18.9524	-69.604257	0.000152	1.520777	0.515253	0.000061
1534	1.5253e+02	-18.9091	-69.523515	0.000203	2.027702	0.687004	0.000081
1535	1.5263e+02	-18.8898	-69.450846	0.000182	1.824932	0.618304	0.000073
1536	1.5273e+02	-18.8417	-69.390289	0.000152	1.520777	0.515253	0.000061
1537	1.5283e+02	-18.7968	-69.305509	0.000213	2.129087	0.721354	0.000085
1538	1.5293e+02	-18.7615	-69.248989	0.000142	1.419392	0.480903	0.000057
1539	1.5303e+02	-18.7198	-69.152098	0.000243	2.433243	0.824405	0.000097
1540	1.5313e+02	-18.6749	-69.075392	0.000193	1.926317	0.652654	0.000077
1541	1.5323e+02	-18.6332	-68.962353	0.000284	2.838783	0.961806	0.000114
1542	1.5333e+02	-18.5995	-68.885647	0.000193	1.926317	0.652654	0.000077
1543	1.5343e+02	-18.5642	-68.817016	0.000172	1.723547	0.583954	0.000069
1544	1.5353e+02	-18.5273	-68.784719	0.000081	0.811081	0.274802	0.000032
1545	1.5363e+02	-18.4808	-68.671679	0.000284	2.838783	0.961806	0.000114
1546	1.5373e+02	-18.4439	-68.562676	0.000274	2.737398	0.927456	0.000110
1547	1.5383e+02	-18.4022	-68.481934	0.000203	2.027702	0.687004	0.000081
1548	1.5393e+02	-18.3669	-68.397154	0.000213	2.129087	0.721354	0.000085
1549	1.5403e+02	-18.3171	-68.320448	0.000193	1.926317	0.652654	0.000077
1550	1.5413e+02	-18.2786	-68.239705	0.000203	2.027702	0.687004	0.000081
1551	1.5422e+02	-18.2385	-68.146851	0.000233	2.331858	0.790055	0.000093
1552	1.5432e+02	-18.2048	-68.090331	0.000142	1.419392	0.480903	0.000057
1553	1.5442e+02	-18.1567	-67.969217	0.000304	3.041554	1.030506	0.000122
1554	1.5452e+02	-18.1118	-67.876363	0.000233	2.331858	0.790055	0.000093
1555	1.5462e+02	-18.0829	-67.787546	0.000223	2.230473	0.755705	0.000089
1556	1.5472e+02	-18.0380	-67.706803	0.000203	2.027702	0.687004	0.000081
1557	1.5482e+02	-18.0043	-67.585689	0.000304	3.041554	1.030506	0.000122
1558	1.5492e+02	-17.9594	-67.484761	0.000253	2.534628	0.858755	0.000101
1559	1.5502e+02	-17.9209	-67.412093	0.000182	1.824932	0.618304	0.000073
1560	1.5512e+02	-17.8728	-67.315201	0.000243	2.433243	0.824405	0.000097
1561	1.5522e+02	-17.8391	-67.210236	0.000264	2.636013	0.893105	0.000105
1562	1.5532e+02	-17.8006	-67.101233	0.000274	2.737398	0.927456	0.000110
1563	1.5542e+02	-17.7637	-67.036639	0.000162	1.622162	0.549603	0.000065
1564	1.5552e+02	-17.7220	-66.947822	0.000223	2.230473	0.755705	0.000089
1565	1.5562e+02	-17.6899	-66.859005	0.000223	2.230473	0.755705	0.000089
1566	1.5572e+02	-17.6417	-66.782299	0.000193	1.926317	0.652654	0.000077
1567	1.5582e+02	-17.6113	-66.701557	0.000203	2.027702	0.687004	0.000081
1568	1.5592e+02	-17.5647	-66.624851	0.000193	1.926317	0.652654	0.000077
1569	1.5602e+02	-17.5262	-66.487588	0.000345	3.447094	1.167907	0.000138
1570	1.5612e+02	-17.4813	-66.422994	0.000162	1.622162	0.549603	0.000065
1571	1.5622e+02	-17.4428	-66.285732	0.000345	3.447094	1.167907	0.000138
1572	1.5631e+02	-17.3995	-66.249397	0.000091	0.912466	0.309152	0.000037
1573	1.5641e+02	-17.3706	-66.160580	0.000223	2.230473	0.755705	0.000089
1574	1.5651e+02	-17.3273	-66.039466	0.000304	3.041554	1.030506	0.000122
1575	1.5661e+02	-17.2872	-65.950649	0.000223	2.230473	0.755705	0.000089
1576	1.5671e+02	-17.2391	-65.857795	0.000233	2.331858	0.790055	0.000093
1577	1.5681e+02	-17.2070	-65.760904	0.000243	2.433243	0.824405	0.000097
1578	1.5691e+02	-17.1637	-65.672087	0.000223	2.230473	0.755705	0.000089
1579	1.5701e+02	-17.1204	-65.575196	0.000243	2.433243	0.824405	0.000097
1580	1.5711e+02	-17.0867	-65.470230	0.000264	2.636013	0.893105	0.000105
1581	1.5721e+02	-17.0418	-65.405636	0.000162	1.622162	0.549603	0.000065
1582	1.5731e+02	-16.9985	-65.308745	0.000243	2.433243	0.824405	0.000097
1583	1.5741e+02	-16.9696	-65.223965	0.000213	2.129087	0.721354	0.000085
1584	1.5751e+02	-16.9391	-65.086702	0.000345	3.447094	1.167907	0.000138
1585	1.5761e+02	-16.8797	-65.001923	0.000213	2.129087	0.721354	0.000085
1586	1.5771e+02	-16.8525	-64.905031	0.000243	2.433243	0.824405	0.000097
1587	1.5781e+02	-16.8043	-64.824289	0.000203	2.027702	0.687004	0.000081
1588	1.5791e+02	-16.7578	-64.727397	0.000243	2.433243	0.824405	0.000097
1589	1.5801e+02	-16.7225	-64.602246	0.000314	3.142939	1.064856	0.000126
1590	1.5811e+02	-16.6824	-64.489206	0.000284	2.838783	0.961806	0.000114
1591	1.5821e+02	-16.6407	-64.380204	0.000274	2.737398	0.927456	0.000110
1592	1.5830e+02	-16.6086	-64.291387	0.000223	2.230473	0.755705	0.000089
1593	1.5840e+02	-16.5701	-64.255052	0.000091	0.912466	0.309152	0.000037
1594	1.5850e+02	-16.5220	-64.113753	0.000355	3.548479	1.202257	0.000142
1595	1.5860e+02	-16.4867	-64.000713	0.000284	2.838783	0.961806	0.000114
1596	1.5870e+02	-16.4482	-63.883636	0.000294	2.940168	0.996156	0.000118
1597	1.5880e+02	-16.4097	-63.802893	0.000203	2.027702	0.687004	0.000081
1598	1.5890e+02	-16.3648	-63.677742	0.000314	3.142939	1.064856	0.000126
1599	1.5900e+02	-16.3311	-63.580851	0.000243	2.433243	0.824405	0.000097
1600	1.5910e+02	-16.2894	-63.528368	0.000132	1.318007	0.446553	0.000053
1601	1.5920e+02	-16.2396	-63.391105	0.000345	3.447094	1.167907	0.000138
1602	1.5930e+02	-16.2140	-63.310363	0.000203	2.027702	0.687004	0.000081
1603	1.5940e+02	-16.1578	-63.225583	0.000213	2.129087	0.721354	0.000085
1604	1.5950e+02	-16.1290	-63.108506	0.000294	2.940168	0.996156	0.000118
1605	1.5960e+02	-16.0840	-63.007577	0.000253	2.534628	0.858755	0.000101
1606	1.5970e+02	-16.0503	-62.894538	0.000284	2.838783	0.961806	0.000114
1607	1.5980e+02	-16.0151	-62.761312	0.000335	3.345709	1.133557	0.000134
1608	1.5990e+02	-15.9685	-62.640198	0.000304	3.041554	1.030506	0.000122
1609	1.6000e+02	-15.9316	-62.551381	0.000223	2.230473	0.755705	0.000089
1610	1.6010e+02	-15.8883	-62.462564	0.000223	2.230473	0.755705	0.000089
1611	1.6019e+02	-15.8482	-62.297042	0.000416	4.156790	1.408359	0.000166
1612	1.6029e+02	-15.8033	-62.256670	0.000101	1.013851	0.343502	0.000041
1613	1.6039e+02	-15.7776	-62.171890	0.000213	2.129087	0.721354	0.000085
1614	1.6049e+02	-15.7295	-62.046739	0.000314	3.142939	1.064856	0.000126
1615	1.6059e+02	-15.6926	-61.929662	0.000294	2.940168	0.996156	0.000118
1616	1.6069e+02	-15.6541	-61.848920	0.000203	2.027702	0.687004	0.000081
1617	1.6079e+02	-15.6124	-61.711657	0.000345	3.447094	1.167907	0.000138
1618	1.6089e+02	-15.5643	-61.598617	0.000284	2.838783	0.961806	0.000114
1619	1.6099e+02	-15.5274	-61.505763	0.000233	2.331858	0.790055	0.000093
1620	1.6109e+02	-15.4921	-61.356389	0.000375	3.751249	1.270958	0.000150
1621	1.6119e+02	-15.4584	-61.267572	0.000223	2.230473	0.755705	0.000089
1622	1.6129e+02	-15.4151	-61.182792	0.000213	2.129087	0.721354	0.000085
1623	1.6139e+02	-15.3669	-61.049567	0.000335	3.345709	1.133557	0.000134
1624	1.6149e+02	-15.3300	-60.997084	0.000132	1.318007	0.446553	0.000053
1625	1.6159e+02	-15.2996	-60.863858	0.000335	3.345709	1.133557	0.000134
1626	1.6169e+02	-15.2498	-60.754856	0.000274	2.737398	0.927456	0.000110
1627	1.6179e+02	-15.2113	-60.662002	0.000233	2.331858	0.790055	0.000093
1628	1.6189e+02	-15.1728	-60.557036	0.000264	2.636013	0.893105	0.000105
1629	1.6199e+02	-15.1311	-60.427848	0.000324	3.244324	1.099207	0.000130
1630	1.6209e+02	-15.0862	-60.334994	0.000233	2.331858	0.790055	0.000093
1631	1.6219e+02	-15.0509	-60.201768	0.000335	3.345709	1.133557	0.000134
1632	1.6228e+02	-15.0172	-60.092765	0.000274	2.737398	0.927456	0.000110
1633	1.6238e+02	-14.9771	-60.007986	0.000213	2.129087	0.721354	0.000085
1634	1.6248e+02	-14.9354	-59.907057	0.000253	2.534628	0.858755	0.000101
1635	1.6258e+02	-14.8873	-59.806129	0.000253	2.534628	0.858755	0.000101
1636	1.6268e+02	-14.8584	-59.668866	0.000345	3.447094	1.167907	0.000138
1637	1.6278e+02	-14.8167	-59.596198	0.000182	1.824932	0.618304	0.000073
1638	1.6288e+02	-14.7750	-59.467009	0.000324	3.244324	1.099207	0.000130
1639	1.6298e+02	-14.7397	-59.345895	0.000304	3.041554	1.030506	0.000122
1640	1.6308e+02	-14.6916	-59.240930	0.000264	2.636013	0.893105	0.000105
1641	1.6318e+02	-14.6515	-59.152113	0.000223	2.230473	0.755705	0.000089
1642	1.6328e+02	-14.6097	-59.051184	0.000253	2.534628	0.858755	0.000101
1643	1.6338e+02	-14.5664	-58.909885	0.000355	3.548479	1.202257	0.000142
1644	1.6348e+02	-14.5327	-58.821068	0.000223	2.230473	0.755705	0.000089
1645	1.6358e+02	-14.4991	-58.699954	0.000304	3.041554	1.030506	0.000122
1646	1.6368e+02	-14.4573	-58.590951	0.000274	2.737398	0.927456	0.000110
1647	1.6378e+02	-14.4092	-58.490023	0.000253	2.534628	0.858755	0.000101
1648	1.6388e+02	-14.3707	-58.336611	0.000385	3.852634	1.305308	0.000154
1649	1.6398e+02	-14.3274	-58.288166	0.000122	1.216621	0.412202	0.000049
1650	1.6408e+02	-14.2953	-58.163015	0.000314	3.142939	1.064856	0.000126
1651	1.6418e+02	-14.2504	-58.070160	0.000233	2.331858	0.790055	0.000093
1652	1.6427e+02	-14.2279	-57.961158	0.000274	2.737398	0.927456	0.000110
1653	1.6437e+02	-14.1798	-57.831969	0.000324	3.244324	1.099207	0.000130
1654	1.6447e+02	-14.1429	-57.731041	0.000253	2.534628	0.858755	0.000101
1655	1.6457e+02	-14.1012	-57.585704	0.000365	3.649864	1.236607	0.000146
1656	1.6467e+02	-14.0531	-57.460553	0.000314	3.142939	1.064856	0.000126
1657	1.6477e+02	-14.0130	-57.375773	0.000213	2.129087	0.721354	0.000085
1658	1.6487e+02	-13.9793	-57.266770	0.000274	2.737398	0.927456	0.000110
1659	1.6497e+02	-13.9360	-57.177953	0.000223	2.230473	0.755705	0.000089
1660	1.6507e+02	-13.8894	-57.052802	0.000314	3.142939	1.064856	0.000126
1661	1.6517e+02	-13.8654	-56.923614	0.000324	3.244324	1.099207	0.000130
1662	1.6527e+02	-13.8221	-56.830760	0.000233	2.331858	0.790055	0.000093
1663	1.6537e+02	-13.7739	-56.721757	0.000274	2.737398	0.927456	0.000110
1664	1.6547e+02	-13.7419	-56.568346	0.000385	3.852634	1.305308	0.000154
1665	1.6557e+02	-13.6969	-56.503752	0.000162	1.622162	0.549603	0.000065
1666	1.6567e+02	-13.6520	-56.362452	0.000355	3.548479	1.202257	0.000142
1667	1.6577e+02	-13.6183	-56.293821	0.000172	1.723547	0.583954	0.000069
1668	1.6587e+02	-13.5814	-56.168670	0.000314	3.142939	1.064856	0.000126
1669	1.6597e+02	-13.5349	-56.047555	0.000304	3.041554	1.030506	0.000122
1670	1.6607e+02	-13.4948	-55.926441	0.000304	3.041554	1.030506	0.000122
1671	1.6616e+02	-13.4595	-55.813402	0.000284	2.838783	0.961806	0.000114
1672	1.6626e+02	-13.4066	-55.696325	0.000294	2.940168	0.996156	0.000118
1673	1.6636e+02	-13.3857	-55.595396	0.000253	2.534628	0.858755	0.000101
1674	1.6646e+02	-13.3424	-55.490431	0.000264	2.636013	0.893105	0.000105
1675	1.6656e+02	-13.2959	-55.381428	0.000274	2.737398	0.927456	0.000110
1676	1.6666e+02	-13.2558	-55.219943	0.000406	4.055405	1.374008	0.000162
1677	1.6676e+02	-13.2189	-55.155348	0.000162	1.622162	0.549603	0.000065
1678	1.6686e+02	-13.1804	-55.005974	0.000375	3.751249	1.270958	0.000150
1679	1.6696e+02	-13.1403	-54.913120	0.000233	2.331858	0.790055	0.000093
1680	1.6706e+02	-13.1002	-54.828340	0.000213	2.129087	0.721354	0.000085
1681	1.6716e+02	-13.0617	-54.695115	0.000335	3.345709	1.133557	0.000134
1682	1.6726e+02	-13.0167	-54.618409	0.000193	1.926317	0.652654	0.000077
1683	1.6736e+02	-12.9815	-54.460961	0.000395	3.954020	1.339658	0.000158
1684	1.6746e+02	-12.9430	-54.368107	0.000233	2.331858	0.790055	0.000093
1685	1.6756e+02	-12.8916	-54.210659	0.000395	3.954020	1.339658	0.000158
1686	1.6766e+02	-12.8627	-54.150102	0.000152	1.520777	0.515253	0.000061
1687	1.6776e+02	-12.8178	-54.037062	0.000284	2.838783	0.961806	0.000114
1688	1.6786e+02	-12.7793	-53.936133	0.000253	2.534628	0.858755	0.000101
1689	1.6796e+02	-12.7392	-53.806945	0.000324	3.244324	1.099207	0.000130
1690	1.6806e+02	-12.7023	-53.718128	0.000223	2.230473	0.755705	0.000089
1691	1.6816e+02	-12.6606	-53.572791	0.000365	3.649864	1.236607	0.000146
1692	1.6825e+02	-12.6317	-53.479937	0.000233	2.331858	0.790055	0.000093
1693	1.6835e+02	-12.5772	-53.395157	0.000213	2.129087	0.721354	0.000085
1694	1.6845e+02	-12.5403	-53.245783	0.000375	3.751249	1.270958	0.000150
1695	1.6855e+02	-12.5050	-53.120632	0.000314	3.142939	1.064856	0.000126
1696	1.6865e+02	-12.4665	-53.056038	0.000162	1.622162	0.549603	0.000065
1697	1.6875e+02	-12.4264	-52.938961	0.000294	2.940168	0.996156	0.000118
1698	1.6885e+02	-12.3911	-52.817847	0.000304	3.041554	1.030506	0.000122
1699	1.6895e+02	-12.3398	-52.688659	0.000324	3.244324	1.099207	0.000130
1700	1.6905e+02	-12.3093	-52.583693	0.000264	2.636013	0.893105	0.000105
1701	1.6915e+02	-12.2660	-52.482765	0.000253	2.534628	0.858755	0.000101
1702	1.6925e+02	-12.2259	-52.393948	0.000223	2.230473	0.755705	0.000089
1703	1.6935e+02	-12.1858	-52.212276	0.000456	4.562330	1.545759	0.000183
1704	1.6945e+02	-12.1376	-52.119422	0.000233	2.331858	0.790055	0.000093
1705	1.6955e+02	-12.1007	-52.014457	0.000264	2.636013	0.893105	0.000105
1706	1.6965e+02	-12.0735	-51.917566	0.000243	2.433243	0.824405	0.000097
1707	1.6975e+02	-12.0285	-51.788377	0.000324	3.244324	1.099207	0.000130
1708	1.6985e+02	-11.9884	-51.663226	0.000314	3.142939	1.064856	0.000126
1709	1.6995e+02	-11.9467	-51.538075	0.000314	3.142939	1.064856	0.000126
1710	1.7005e+02	-11.9034	-51.425035	0.000284	2.838783	0.961806	0.000114
1711	1.7015e+02	-11.8697	-51.320070	0.000264	2.636013	0.893105	0.000105
1712	1.7024e+02	-11.8216	-51.219141	0.000253	2.534628	0.858755	0.000101
1713	1.7034e+02	-11.7831	-51.098027	0.000304	3.041554	1.030506	0.000122
1714	1.7044e+02	-11.7414	-50.980950	0.000294	2.940168	0.996156	0.000118
1715	1.7054e+02	-11.7093	-50.867910	0.000284	2.838783	0.961806	0.000114
1716	1.7064e+02	-11.6756	-50.758908	0.000274	2.737398	0.927456	0.000110
1717	1.7074e+02	-11.6339	-50.641831	0.000294	2.940168	0.996156	0.000118
1718	1.7084e+02	-11.5906	-50.516679	0.000314	3.142939	1.064856	0.000126
1719	1.7094e+02	-11.5441	-50.391528	0.000314	3.142939	1.064856	0.000126
1720	1.7104e+02	-11.5104	-50.274451	0.000294	2.940168	0.996156	0.000118
1721	1.7114e+02	-11.4703	-50.157374	0.000294	2.940168	0.996156	0.000118
1722	1.7124e+02	-11.4398	-50.003963	0.000385	3.852634	1.305308	0.000154
1723	1.7134e+02	-11.3965	-49.919183	0.000213	2.129087	0.721354	0.000085
1724	1.7144e+02	-11.3499	-49.802106	0.000294	2.940168	0.996156	0.000118
1725	1.7154e+02	-11.3066	-49.709252	0.000233	2.331858	0.790055	0.000093
1726	1.7164e+02	-11.2601	-49.604287	0.000264	2.636013	0.893105	0.000105
1727	1.7174e+02	-11.2312	-49.454913	0.000375	3.751249	1.270958	0.000150
1728	1.7184e+02	-11.1975	-49.349947	0.000264	2.636013	0.893105	0.000105
1729	1.7194e+02	-11.1526	-49.176350	0.000436	4.359560	1.477059	0.000174
1730	1.7204e+02	-11.1013	-49.063311	0.000284	2.838783	0.961806	0.000114
1731	1.7213e+02	-11.0804	-48.966419	0.000243	2.433243	0.824405	0.000097
1732	1.7223e+02	-11.0339	-48.808971	0.000395	3.954020	1.339658	0.000158
1733	1.7233e+02	-10.9906	-48.740340	0.000172	1.723547	0.583954	0.000069
1734	1.7243e+02	-10.9457	-48.643449	0.000243	2.433243	0.824405	0.000097
1735	1.7253e+02	-10.9104	-48.502149	0.000355	3.548479	1.202257	0.000142
1736	1.7263e+02	-10.8703	-48.356812	0.000365	3.649864	1.236607	0.000146
1737	1.7273e+02	-10.8302	-48.276069	0.000203	2.027702	0.687004	0.000081
1738	1.7283e+02	-10.7965	-48.138807	0.000345	3.447094	1.167907	0.000138
1739	1.7293e+02	-10.7435	-48.013655	0.000314	3.142939	1.064856	0.000126
1740	1.7303e+02	-10.7195	-47.908690	0.000264	2.636013	0.893105	0.000105
1741	1.7313e+02	-10.6730	-47.771427	0.000345	3.447094	1.167907	0.000138
1742	1.7323e+02	-10.6345	-47.662425	0.000274	2.737398	0.927456	0.000110
1743	1.7333e+02	-10.5847	-47.504976	0.000395	3.954020	1.339658	0.000158
1744	1.7343e+02	-10.5526	-47.355602	0.000375	3.751249	1.270958	0.000150
1745	1.7353e+02	-10.5157	-47.343491	0.000030	0.304155	0.103051	0.000012
1746	1.7363e+02	-10.4756	-47.210265	0.000335	3.345709	1.133557	0.000134
1747	1.7373e+02	-10.4307	-47.024557	0.000466	4.663715	1.580110	0.000187
1748	1.7383e+02	-10.3922	-46.895369	0.000324	3.244324	1.099207	0.000130
1749	1.7393e+02	-10.3553	-46.786366	0.000274	2.737398	0.927456	0.000110
1750	1.7403e+02	-10.3184	-46.677363	0.000274	2.737398	0.927456	0.000110
1751	1.7413e+02	-10.2831	-46.568361	0.000274	2.737398	0.927456	0.000110
1752	1.7422e+02	-10.2238	-46.471469	0.000243	2.433243	0.824405	0.000097
1753	1.7432e+02	-10.1933	-46.334207	0.000345	3.447094	1.167907	0.000138
1754	1.7442e+02	-10.1596	-46.196944	0.000345	3.447094	1.167907	0.000138
1755	1.7452e+02	-10.1083	-46.075830	0.000304	3.041554	1.030506	0.000122
1756	1.7462e+02	-10.0810	-45.954716	0.000304	3.041554	1.030506	0.000122
1757	1.7472e+02	-10.0393	-45.825528	0.000324	3.244324	1.099207	0.000130
1758	1.7482e+02	-9.9928	-45.708451	0.000294	2.940168	0.996156	0.000118
1759	1.7492e+02	-9.9543	-45.579262	0.000324	3.244324	1.099207	0.000130
1760	1.7502e+02	-9.9061	-45.466223	0.000284	2.838783	0.961806	0.000114
1761	1.7512e+02	-9.8789	-45.332997	0.000335	3.345709	1.133557	0.000134
1762	1.7522e+02	-9.8388	-45.199772	0.000335	3.345709	1.133557	0.000134
1763	1.7532e+02	-9.7938	-45.082695	0.000294	2.940168	0.996156	0.000118
1764	1.7542e+02	-9.7505	-44.917172	0.000416	4.156790	1.408359	0.000166
1765	1.7552e+02	-9.7120	-44.816244	0.000253	2.534628	0.858755	0.000101
1766	1.7562e+02	-9.6783	-44.695130	0.000304	3.041554	1.030506	0.000122
1767	1.7572e+02	-9.6286	-44.553830	0.000355	3.548479	1.202257	0.000142
1768	1.7582e+02	-9.6013	-44.440790	0.000284	2.838783	0.961806	0.000114
1769	1.7592e+02	-9.5564	-44.335825	0.000264	2.636013	0.893105	0.000105
1770	1.7602e+02	-9.5131	-44.166265	0.000426	4.258175	1.442709	0.000170
1771	1.7612e+02	-9.4730	-44.061299	0.000264	2.636013	0.893105	0.000105
1772	1.7621e+02	-9.4361	-43.924037	0.000345	3.447094	1.167907	0.000138
1773	1.7631e+02	-9.3880	-43.823108	0.000253	2.534628	0.858755	0.000101
1774	1.7641e+02	-9.3639	-43.673734	0.000375	3.751249	1.270958	0.000150
1775	1.7651e+02	-9.3142	-43.532435	0.000355	3.548479	1.202257	0.000142
1776	1.7661e+02	-9.2789	-43.391135	0.000355	3.548479	1.202257	0.000142
1777	1.7671e+02	-9.2420	-43.298281	0.000233	2.331858	0.790055	0.000093
1778	1.7681e+02	-9.2003	-43.148907	0.000375	3.751249	1.270958	0.000150
1779	1.7691e+02	-9.1586	-43.023756	0.000314	3.142939	1.064856	0.000126
1780	1.7701e+02	-9.1201	-42.922827	0.000253	2.534628	0.858755	0.000101
1781	1.7711e+02	-9.0767	-42.733082	0.000477	4.765101	1.614460	0.000191
1782	1.7721e+02	-9.0431	-42.595819	0.000345	3.447094	1.167907	0.000138
1783	1.7731e+02	-8.9933	-42.470668	0.000314	3.142939	1.064856	0.000126
1784	1.7741e+02	-8.9612	-42.329368	0.000355	3.548479	1.202257	0.000142
1785	1.7751e+02	-8.9163	-42.228440	0.000253	2.534628	0.858755	0.000101
1786	1.7761e+02	-8.8794	-42.099251	0.000324	3.244324	1.099207	0.000130
1787	1.7771e+02	-8.8425	-41.990249	0.000274	2.737398	0.927456	0.000110
1788	1.7781e+02	-8.7976	-41.836838	0.000385	3.852634	1.305308	0.000154
1789	1.7791e+02	-8.7495	-41.671315	0.000416	4.156790	1.408359	0.000166
1790	1.7801e+02	-8.7238	-41.570387	0.000253	2.534628	0.858755	0.000101
1791	1.7810e+02	-8.6789	-41.433124	0.000345	3.447094	1.167907	0.000138
1792	1.7820e+02	-8.6372	-41.283750	0.000375	3.751249	1.270958	0.000150
1793	1.7830e+02	-8.6019	-41.142450	0.000355	3.548479	1.202257	0.000142
1794	1.7840e+02	-8.5570	-41.061708	0.000203	2.027702	0.687004	0.000081
1795	1.7850e+02	-8.5201	-40.904259	0.000395	3.954020	1.339658	0.000158
1796	1.7860e+02	-8.4832	-40.754885	0.000375	3.751249	1.270958	0.000150
1797	1.7870e+02	-8.4367	-40.629734	0.000314	3.142939	1.064856	0.000126
1798	1.7880e+02	-8.3982	-40.516694	0.000284	2.838783	0.961806	0.000114
1799	1.7890e+02	-8.3532	-40.371357	0.000365	3.649864	1.236607	0.000146
1800	1.7900e+02	-8.3308	-40.250243	0.000304	3.041554	1.030506	0.000122
1801	1.7910e+02	-8.2794	-40.112981	0.000345	3.447094	1.167907	0.000138
1802	1.7920e+02	-8.2442	-40.008015	0.000264	2.636013	0.893105	0.000105
1803	1.7930e+02	-8.2057	-39.838455	0.000426	4.258175	1.442709	0.000170
1804	1.7940e+02	-8.1655	-39.705230	0.000335	3.345709	1.133557	0.000134
1805	1.7950e+02	-8.1126	-39.608339	0.000243	2.433243	0.824405	0.000097
1806	1.7960e+02	-8.0853	-39.463002	0.000365	3.649864	1.236607	0.000146
1807	1.7970e+02	-8.0484	-39.337851	0.000314	3.142939	1.064856	0.000126
1808	1.7980e+02	-8.0003	-39.216737	0.000304	3.041554	1.030506	0.000122
1809	1.7990e+02	-7.9650	-39.067363	0.000375	3.751249	1.270958	0.000150
1810	1.8000e+02	-7.9217	-38.934137	0.000335	3.345709	1.133557	0.000134
1811	1.8009e+02	-7.8848	-38.784763	0.000375	3.751249	1.270958	0.000150
1812	1.8019e+02	-7.8431	-38.643463	0.000355	3.548479	1.202257	0.000142
1813	1.8029e+02	-7.7998	-38.526386	0.000294	2.940168	0.996156	0.000118
1814	1.8039e+02	-7.7581	-38.381049	0.000365	3.649864	1.236607	0.000146
1815	1.8049e+02	-7.7228	-38.251861	0.000324	3.244324	1.099207	0.000130
1816	1.8059e+02	-7.6843	-38.074227	0.000446	4.460945	1.511409	0.000179
1817	1.8069e+02	-7.6345	-37.981373	0.000233	2.331858	0.790055	0.000093
1818	1.8079e+02	-7.5960	-37.856222	0.000314	3.142939	1.064856	0.000126
1819	1.8089e+02	-7.5656	-37.702811	0.000385	3.852634	1.305308	0.000154
1820	1.8099e+02	-7.5319	-37.557474	0.000365	3.649864	1.236607	0.000146
1821	1.8109e+02	-7.4725	-37.464620	0.000233	2.331858	0.790055	0.000093
1822	1.8119e+02	-7.4404	-37.315246	0.000375	3.751249	1.270958	0.000150
1823	1.8129e+02	-7.3987	-37.161834	0.000385	3.852634	1.305308	0.000154
1824	1.8139e+02	-7.3570	-37.064943	0.000243	2.433243	0.824405	0.000097
1825	1.8149e+02	-7.3297	-36.903458	0.000406	4.055405	1.374008	0.000162
1826	1.8159e+02	-7.2864	-36.762158	0.000355	3.548479	1.202257	0.000142
1827	1.8169e+02	-7.2431	-36.669304	0.000233	2.331858	0.790055	0.000093
1828	1.8179e+02	-7.2078	-36.491670	0.000446	4.460945	1.511409	0.000179
1829	1.8189e+02	-7.1629	-36.338259	0.000385	3.852634	1.305308	0.000154
1830	1.8199e+02	-7.1244	-36.229256	0.000274	2.737398	0.927456	0.000110
1831	1.8209e+02	-7.0811	-36.071808	0.000395	3.954020	1.339658	0.000158
1832	1.8218e+02	-7.0506	-35.914360	0.000395	3.954020	1.339658	0.000158
1833	1.8228e+02	-7.0009	-35.809394	0.000264	2.636013	0.893105	0.000105
1834	1.8238e+02	-6.9736	-35.688280	0.000304	3.041554	1.030506	0.000122
1835	1.8248e+02	-6.9207	-35.518720	0.000426	4.258175	1.442709	0.000170
1836	1.8258e+02	-6.8822	-35.361272	0.000395	3.954020	1.339658	0.000158
1837	1.8268e+02	-6.8421	-35.219972	0.000355	3.548479	1.202257	0.000142
1838	1.8278e+02	-6.8148	-35.119044	0.000253	2.534628	0.858755	0.000101
1839	1.8288e+02	-6.7570	-34.977744	0.000355	3.548479	1.202257	0.000142
1840	1.8298e+02	-6.7330	-34.832407	0.000365	3.649864	1.236607	0.000146
1841	1.8308e+02	-6.6897	-34.707256	0.000314	3.142939	1.064856	0.000126
1842	1.8318e+02	-6.6463	-34.578068	0.000324	3.244324	1.099207	0.000130
1843	1.8328e+02	-6.5966	-34.420619	0.000395	3.954020	1.339658	0.000158
1844	1.8338e+02	-6.5725	-34.291431	0.000324	3.244324	1.099207	0.000130
1845	1.8348e+02	-6.5276	-34.105723	0.000466	4.663715	1.580110	0.000187
1846	1.8358e+02	-6.4859	-34.012869	0.000233	2.331858	0.790055	0.000093
1847	1.8368e+02	-6.4458	-33.855420	0.000395	3.954020	1.339658	0.000158
1848	1.8378e+02	-6.4089	-33.738343	0.000294	2.940168	0.996156	0.000118
1849	1.8388e+02	-6.3640	-33.613192	0.000314	3.142939	1.064856	0.000126
1850	1.8398e+02	-6.3303	-33.467855	0.000365	3.649864	1.236607	0.000146
1851	1.8407e+02	-6.2918	-33.330593	0.000345	3.447094	1.167907	0.000138
1852	1.8417e+02	-6.2469	-33.193330	0.000345	3.447094	1.167907	0.000138
1853	1.8427e+02	-6.2100	-33.060105	0.000335	3.345709	1.133557	0.000134
1854	1.8437e+02	-6.1763	-32.918805	0.000355	3.548479	1.202257	0.000142
1855	1.8447e+02	-6.1250	-32.777505	0.000355	3.548479	1.202257	0.000142
1856	1.8457e+02	-6.0977	-32.640242	0.000345	3.447094	1.167907	0.000138
1857	1.8467e+02	-6.0544	-32.502980	0.000345	3.447094	1.167907	0.000138
1858	1.8477e+02	-6.0062	-32.406089	0.000243	2.433243	0.824405	0.000097
1859	1.8487e+02	-5.9838	-32.224417	0.000456	4.562330	1.545759	0.000183
1860	1.8497e+02	-5.9341	-32.079081	0.000365	3.649864	1.236607	0.000146
1861	1.8507e+02	-5.8940	-31.970078	0.000274	2.737398	0.927456	0.000110
1862	1.8517e+02	-5.8587	-31.812630	0.000395	3.954020	1.339658	0.000158
1863	1.8527e+02	-5.8153	-31.659218	0.000385	3.852634	1.305308	0.000154
1864	1.8537e+02	-5.7833	-31.566364	0.000233	2.331858	0.790055	0.000093
1865	1.8547e+02	-5.7383	-31.408916	0.000395	3.954020	1.339658	0.000158
1866	1.8557e+02	-5.6886	-31.271653	0.000345	3.447094	1.167907	0.000138
1867	1.8567e+02	-5.6565	-31.118242	0.000385	3.852634	1.305308	0.000154
1868	1.8577e+02	-5.6020	-31.005202	0.000284	2.838783	0.961806	0.000114
1869	1.8587e+02	-5.5795	-30.863903	0.000355	3.548479	1.202257	0.000142
1870	1.8597e+02	-5.5426	-30.714529	0.000375	3.751249	1.270958	0.000150
1871	1.8606e+02	-5.4865	-30.577266	0.000345	3.447094	1.167907	0.000138
1872	1.8616e+02	-5.4528	-30.440003	0.000345	3.447094	1.167907	0.000138
1873	1.8626e+02	-5.4111	-30.298704	0.000355	3.548479	1.202257	0.000142
1874	1.8636e+02	-5.3742	-30.161441	0.000345	3.447094	1.167907	0.000138
1875	1.8646e+02	-5.3325	-29.979770	0.000456	4.562330	1.545759	0.000183
1876	1.8656e+02	-5.2956	-29.870767	0.000274	2.737398	0.927456	0.000110
1877	1.8666e+02	-5.2490	-29.721393	0.000375	3.751249	1.270958	0.000150
1878	1.8676e+02	-5.2105	-29.604316	0.000294	2.940168	0.996156	0.000118
1879	1.8686e+02	-5.1769	-29.467054	0.000345	3.447094	1.167907	0.000138
1880	1.8696e+02	-5.1303	-29.273271	0.000487	4.866486	1.648810	0.000195
1881	1.8706e+02	-5.0966	-29.123897	0.000375	3.751249	1.270958	0.000150
1882	1.8716e+02	-5.0581	-29.006820	0.000294	2.940168	0.996156	0.000118
1883	1.8726e+02	-5.0196	-28.885706	0.000304	3.041554	1.030506	0.000122
1884	1.8736e+02	-4.9779	-28.740369	0.000365	3.649864	1.236607	0.000146
1885	1.8746e+02	-4.9394	-28.590995	0.000375	3.751249	1.270958	0.000150
1886	1.8756e+02	-4.8897	-28.469881	0.000304	3.041554	1.030506	0.000122
1887	1.8766e+02	-4.8576	-28.316470	0.000385	3.852634	1.305308	0.000154
1888	1.8776e+02	-4.8159	-28.175170	0.000355	3.548479	1.202257	0.000142
1889	1.8786e+02	-4.7806	-28.025796	0.000375	3.751249	1.270958	0.000150
1890	1.8796e+02	-4.7357	-27.872385	0.000385	3.852634	1.305308	0.000154
1891	1.8806e+02	-4.7020	-27.747234	0.000314	3.142939	1.064856	0.000126
1892	1.8815e+02	-4.6635	-27.581711	0.000416	4.156790	1.408359	0.000166
1893	1.8825e+02	-4.6090	-27.440412	0.000355	3.548479	1.202257	0.000142
1894	1.8835e+02	-4.5705	-27.266815	0.000436	4.359560	1.477059	0.000174
1895	1.8845e+02	-4.5336	-27.169924	0.000243	2.433243	0.824405	0.000097
1896	1.8855e+02	-4.5047	-26.964030	0.000517	5.170641	1.751861	0.000207
1897	1.8865e+02	-4.4550	-26.859064	0.000264	2.636013	0.893105	0.000105
1898	1.8875e+02	-4.4100	-26.693541	0.000416	4.156790	1.408359	0.000166
1899	1.8885e+02	-4.3747	-26.540130	0.000385	3.852634	1.305308	0.000154
1900	1.8895e+02	-4.3346	-26.386719	0.000385	3.852634	1.305308	0.000154
1901	1.8905e+02	-4.3042	-26.269642	0.000294	2.940168	0.996156	0.000118
1902	1.8915e+02	-4.2560	-26.140454	0.000324	3.244324	1.099207	0.000130
1903	1.8925e+02	-4.2255	-25.991080	0.000375	3.751249	1.270958	0.000150
1904	1.8935e+02	-4.1774	-25.821520	0.000426	4.258175	1.442709	0.000170
1905	1.8945e+02	-4.1341	-25.680220	0.000355	3.548479	1.202257	0.000142
1906	1.8955e+02	-4.0892	-25.546995	0.000335	3.345709	1.133557	0.000134
1907	1.8965e+02	-4.0459	-25.369361	0.000446	4.460945	1.511409	0.000179
1908	1.8975e+02	-4.0218	-25.256321	0.000284	2.838783	0.961806	0.000114
1909	1.8985e+02	-3.9753	-25.074650	0.000456	4.562330	1.545759	0.000183
1910	1.8995e+02	-3.9352	-24.937387	0.000345	3.447094	1.167907	0.000138
1911	1.9004e+02	-3.8951	-24.775902	0.000406	4.055405	1.374008	0.000162
1912	1.9014e+02	-3.8470	-24.642677	0.000335	3.345709	1.133557	0.000134
1913	1.9024e+02	-3.8261	-24.509451	0.000335	3.345709	1.133557	0.000134
1914	1.9034e+02	-3.7780	-24.368151	0.000355	3.548479	1.202257	0.000142
1915	1.9044e+02	-3.7459	-24.198592	0.000426	4.258175	1.442709	0.000170
1916	1.9054e+02	-3.7026	-24.069403	0.000324	3.244324	1.099207	0.000130
1917	1.9064e+02	-3.6625	-23.940215	0.000324	3.244324	1.099207	0.000130
1918	1.9074e+02	-3.6143	-23.782767	0.000395	3.954020	1.339658	0.000158
1919	1.9084e+02	-3.5887	-23.649541	0.000335	3.345709	1.133557	0.000134
1920	1.9094e+02	-3.5293	-23.459796	0.000477	4.765101	1.614460	0.000191
1921	1.9104e+02	-3.4940	-23.294273	0.000416	4.156790	1.408359	0.000166
1922	1.9114e+02	-3.4587	-23.173159	0.000304	3.041554	1.030506	0.000122
1923	1.9124e+02	-3.4154	-23.027822	0.000365	3.649864	1.236607	0.000146
1924	1.9134e+02	-3.3769	-22.874411	0.000385	3.852634	1.305308	0.000154
1925	1.9144e+02	-3.3368	-22.712926	0.000406	4.055405	1.374008	0.000162
1926	1.9154e+02	-3.2999	-22.563552	0.000375	3.751249	1.270958	0.000150
1927	1.9164e+02	-3.2614	-22.450512	0.000284	2.838783	0.961806	0.000114
1928	1.9174e+02	-3.2165	-22.276915	0.000436	4.359560	1.477059	0.000174
1929	1.9184e+02	-3.1860	-22.147727	0.000324	3.244324	1.099207	0.000130
1930	1.9194e+02	-3.1491	-21.986241	0.000406	4.055405	1.374008	0.000162
1931	1.9203e+02	-3.1090	-21.800533	0.000466	4.663715	1.580110	0.000187
1932	1.9213e+02	-3.0593	-21.651159	0.000375	3.751249	1.270958	0.000150
1933	1.9223e+02	-3.0272	-21.501785	0.000375	3.751249	1.270958	0.000150
1934	1.9233e+02	-2.9903	-21.324151	0.000446	4.460945	1.511409	0.000179
1935	1.9243e+02	-2.9502	-21.231297	0.000233	2.331858	0.790055	0.000093
1936	1.9253e+02	-2.9037	-21.041551	0.000477	4.765101	1.614460	0.000191
1937	1.9263e+02	-2.8732	-20.884103	0.000395	3.954020	1.339658	0.000158
1938	1.9273e+02	-2.8234	-20.726655	0.000395	3.954020	1.339658	0.000158
1939	1.9283e+02	-2.7801	-20.589392	0.000345	3.447094	1.167907	0.000138
1940	1.9293e+02	-2.7464	-20.444055	0.000365	3.649864	1.236607	0.000146
1941	1.9303e+02	-2.7079	-20.258347	0.000466	4.663715	1.580110	0.000187
1942	1.9313e+02	-2.6678	-20.108973	0.000375	3.751249	1.270958	0.000150
1943	1.9323e+02	-2.6213	-19.919228	0.000477	4.765101	1.614460	0.000191
1944	1.9333e+02	-2.5828	-19.798114	0.000304	3.041554	1.030506	0.000122
1945	1.9343e+02	-2.5411	-19.620480	0.000446	4.460945	1.511409	0.000179
1946	1.9353e+02	-2.5042	-19.479180	0.000355	3.548479	1.202257	0.000142
1947	1.9363e+02	-2.4609	-19.285397	0.000487	4.866486	1.648810	0.000195
1948	1.9373e+02	-2.4272	-19.180432	0.000264	2.636013	0.893105	0.000105
1949	1.9383e+02	-2.3903	-18.986649	0.000487	4.866486	1.648810	0.000195
1950	1.9393e+02	-2.3502	-18.817090	0.000426	4.258175	1.442709	0.000170
1951	1.9403e+02	-2.3069	-18.712124	0.000264	2.636013	0.893105	0.000105
1952	1.9412e+02	-2.2652	-18.506230	0.000517	5.170641	1.751861	0.000207
1953	1.9422e+02	-2.2315	-18.368968	0.000345	3.447094	1.167907	0.000138
1954	1.9432e+02	-2.1914	-18.211519	0.000395	3.954020	1.339658	0.000158
1955	1.9442e+02	-2.1384	-18.050034	0.000406	4.055405	1.374008	0.000162
1956	1.9452e+02	-2.1031	-17.900660	0.000375	3.751249	1.270958	0.000150
1957	1.9462e+02	-2.0679	-17.767434	0.000335	3.345709	1.133557	0.000134
1958	1.9472e+02	-2.0278	-17.581726	0.000466	4.663715	1.580110	0.000187
1959	1.9482e+02	-1.9941	-17.428315	0.000385	3.852634	1.305308	0.000154
1960	1.9492e+02	-1.9427	-17.270867	0.000395	3.954020	1.339658	0.000158
1961	1.9502e+02	-1.9026	-17.077084	0.000487	4.866486	1.648810	0.000195
1962	1.9512e+02	-1.8689	-16.907524	0.000426	4.258175	1.442709	0.000170
1963	1.9522e+02	-1.8320	-16.818707	0.000223	2.230473	0.755705	0.000089
1964	1.9532e+02	-1.7839	-16.608776	0.000527	5.272026	1.786211	0.000211
1965	1.9542e+02	-1.7502	-16.435180	0.000436	4.359560	1.477059	0.000174
1966	1.9552e+02	-1.7005	-16.326177	0.000274	2.737398	0.927456	0.000110
1967	1.9562e+02	-1.6716	-16.156617	0.000426	4.258175	1.442709	0.000170
1968	1.9572e+02	-1.6315	-16.019355	0.000345	3.447094	1.167907	0.000138
1969	1.9582e+02	-1.5882	-15.861906	0.000395	3.954020	1.339658	0.000158
1970	1.9592e+02	-1.5481	-15.660050	0.000507	5.069256	1.717510	0.000203
1971	1.9601e+02	-1.5080	-15.534898	0.000314	3.142939	1.064856	0.000126
1972	1.9611e+02	-1.4679	-15.349190	0.000466	4.663715	1.580110	0.000187
1973	1.9621e+02	-1.4262	-15.207890	0.000355	3.548479	1.202257	0.000142
1974	1.9631e+02	-1.3877	-15.066591	0.000355	3.548479	1.202257	0.000142
1975	1.9641e+02	-1.3556	-14.917217	0.000375	3.751249	1.270958	0.000150
1976	1.9651e+02	-1.3042	-14.731508	0.000466	4.663715	1.580110	0.000187
1977	1.9661e+02	-1.2722	-14.586171	0.000365	3.649864	1.236607	0.000146
1978	1.9671e+02	-1.2256	-14.384315	0.000507	5.069256	1.717510	0.000203
1979	1.9681e+02	-1.1871	-14.271275	0.000284	2.838783	0.961806	0.000114
1980	1.9691e+02	-1.1406	-14.081529	0.000477	4.765101	1.614460	0.000191
1981	1.9701e+02	-1.1085	-13.948304	0.000335	3.345709	1.133557	0.000134
1982	1.9711e+02	-1.0700	-13.770670	0.000446	4.460945	1.511409	0.000179
1983	1.9721e+02	-1.0299	-13.609185	0.000406	4.055405	1.374008	0.000162
1984	1.9731e+02	-0.9978	-13.471922	0.000345	3.447094	1.167907	0.000138
1985	1.9741e+02	-0.9481	-13.306399	0.000416	4.156790	1.408359	0.000166
1986	1.9751e+02	-0.9128	-13.104543	0.000507	5.069256	1.717510	0.000203
1987	1.9761e+02	-0.8679	-12.939020	0.000416	4.156790	1.408359	0.000166
1988	1.9771e+02	-0.8454	-12.797720	0.000355	3.548479	1.202257	0.000142
1989	1.9781e+02	-0.7941	-12.620086	0.000446	4.460945	1.511409	0.000179
1990	1.9791e+02	-0.7540	-12.474749	0.000365	3.649864	1.236607	0.000146
1991	1.9800e+02	-0.7139	-12.333450	0.000355	3.548479	1.202257	0.000142
1992	1.9810e+02	-0.6802	-12.155816	0.000446	4.460945	1.511409	0.000179
1993	1.9820e+02	-0.6321	-11.994330	0.000406	4.055405	1.374008	0.000162
1994	1.9830e+02	-0.5952	-11.840919	0.000385	3.852634	1.305308	0.000154
1995	1.9840e+02	-0.5599	-11.663285	0.000446	4.460945	1.511409	0.000179
1996	1.9850e+02	-0.5118	-11.501800	0.000406	4.055405	1.374008	0.000162
1997	1.9860e+02	-0.4668	-11.344351	0.000395	3.954020	1.339658	0.000158
1998	1.9870e+02	-0.4380	-11.199015	0.000365	3.649864	1.236607	0.000146
1999	1.9880e+02	-0.3898	-11.033492	0.000416	4.156790	1.408359	0.000166
2000	1.9890e+02	-0.3561	-10.872007	0.000406	4.055405	1.374008	0.000162
2001	1.9900e+02	-0.3144	-10.706484	0.000416	4.156790	1.408359	0.000166
2002	1.9910e+02	-0.2695	-10.508664	0.000497	4.967871	1.683160	0.000199
2003	1.9920e+02	-0.2326	-10.359290	0.000375	3.751249	1.270958	0.000150
2004	1.9930e+02	-0.1941	-10.213953	0.000365	3.649864	1.236607	0.000146
2005	1.9940e+02	-0.1524	-10.088802	0.000314	3.142939	1.064856	0.000126
2006	1.9950e+02	-0.1155	-9.919243	0.000426	4.258175	1.442709	0.000170
2007	1.9960e+02	-0.0802	-9.717386	0.000507	5.069256	1.717510	0.000203
2008	1.9970e+02	-0.0337	-9.572049	0.000365	3.649864	1.236607	0.000146
2009	1.9980e+02	0.0032	-9.422675	0.000365	3.649864	1.236607	0.000150

PMax (uC/cm2):	7.80e+01
Pr (uC/cm2):	5.55e+00
-Pr (uC/cm2):	-2.69e+00
PLoss (uC/cm2):	-2.68e+00
-Vc:	-1.36e+00
C (Max-Eff) (nF):	3.90e-01
K (Eff):	1.32e+03
Vert. (+/-Pr) Shift (uC/cm2):	1.43e+00
Offset (uC/cm2):	6.73e+00

A (Loop Area - uC/cm2·Volts):	1.74e-02



Hysteresis Version: 5.48.1 - Radiant Technologies, Inc., 1999 - 9/12/24

