»»»»»»»»»»»»»»»»»»»»»»»»»»»»»»»»»»»» Hysteresis ««««««««««««««««««««««««««««««««««««
»»»  Executed Version:	5.48.1
»»»  Vision Version:	5.48.4 (R)
»»»  Vision Compiled:	9/18/24
»»»  Driver Version:	5.47.0
»»»  Windows Version:	Windows 8 or 8.1
»»»  Processor Information:	x86 (AMD or Intel) - 32 Processors
»»»  Tester Name:	PMF21124-494 (100V)
»»»  Tester S/N:	PMF21124-494
»»»  Internal Amp Type:	100V RevK 270k
»»»  Internal Amp S/N:	iAB2-596/K     
»»»  Execution Count:	1
»»»»»»»»»»»»»»»»»»»»»»»»»»»»»»»»»»»»»»»»»»««««««««««««««««««««««««««««««««««««««««««

Stored:	6/19/2025 - 20:23:38
Configured:	06/19/25 10:04:32 AM
Executed:	06/19/25 08:23:08 PM

»»»»»»»»»»»»»»»»»»»»»»»»»»»»»»»»»»» Sample Info ««««««««««««««««««««««««««««««««««««
Sample Name:	
Lot Name:	
Wafer Name:	
Die Row/Column:	0/0
Capacitor Number:	0
Sample Area (cm2):	1.00e-04
Sample Thickness (microns):	3.00e-01

Amplifier:	Internal

»»»»»»»»»»»»»»»»»»»»»»»»»»»»»»»»»»» Tester Info «««««««««««««««««««««««««««««««««««
Tester Name:	PMF21124-494 (100V)
Tester Serial Number:	PMF21124-494
Return Signal Amp. Level:	0.19 [Index: 3]

»»»»»»»»»»»»»»»»»»»»»»»»»»»»»»»» Hysteresis Info ««««««««««««««««««««««««««««««««««
Task Name:	Hyst-1168
Volts:	20.00
Field:	666.67 (kV/cm)
DCBias:	0.00
DCField:	0.00 (kV/cm)
Hysteresis Period (ms):	2.00e+02
Preset:	Enabled
Preset Delay (ms):	1.00e+03
Profile:	Standard Bipolar

»»»»»»»»»»»»»»»»»»»»»»»»»»»»»»»»»»»»»» Data «««««««««««««««««««««««««««««««««««««««
Points:	2009

Valid Data

Point	Time (ms)	Drive Voltage	Measured Polarization (uC/cm2)	Capacitance (uF)	Normalized Capacitance (uF/cm2)	Dielectric Constant	Instantaneous Current (mA)
   1	0.0000e+00	0.0128	-7.034709	0.000284	2.839068	0.961902	0.000114
   2	9.9500e-02	0.0369	-6.921669	0.000284	2.839068	0.961902	0.000114
   3	1.9900e-01	0.0690	-6.731924	0.000477	4.765579	1.614622	0.000191
   4	2.9850e-01	0.1139	-6.614847	0.000294	2.940463	0.996256	0.000118
   5	3.9800e-01	0.1636	-6.429139	0.000466	4.664183	1.580268	0.000187
   6	4.9750e-01	0.1941	-6.275728	0.000385	3.853021	1.305439	0.000154
   7	5.9700e-01	0.2342	-6.106168	0.000426	4.258602	1.442853	0.000170
   8	6.9650e-01	0.2807	-5.956794	0.000375	3.751626	1.271085	0.000150
   9	7.9600e-01	0.3128	-5.791271	0.000416	4.157207	1.408500	0.000166
  10	8.9550e-01	0.3545	-5.629786	0.000406	4.055812	1.374146	0.000162
  11	9.9500e-01	0.3995	-5.549043	0.000203	2.027906	0.687073	0.000081
  12	1.0945e+00	0.4315	-5.351223	0.000497	4.968369	1.683329	0.000199
  13	1.1940e+00	0.4781	-5.173589	0.000446	4.461393	1.511561	0.000179
  14	1.2935e+00	0.5166	-4.999993	0.000436	4.359997	1.477207	0.000174
  15	1.3930e+00	0.5551	-4.870804	0.000324	3.244649	1.099317	0.000130
  16	1.4925e+00	0.5984	-4.761802	0.000274	2.737673	0.927549	0.000110
  17	1.5920e+00	0.6417	-4.584168	0.000446	4.461393	1.511561	0.000179
  18	1.6915e+00	0.6738	-4.378274	0.000517	5.171160	1.752036	0.000207
  19	1.7910e+00	0.7075	-4.224863	0.000385	3.853021	1.305439	0.000154
  20	1.8905e+00	0.7524	-4.079526	0.000365	3.650230	1.236732	0.000146
  21	1.9900e+00	0.7925	-3.922077	0.000395	3.954416	1.339793	0.000158
  22	2.0895e+00	0.8326	-3.736369	0.000466	4.664183	1.580268	0.000187
  23	2.1890e+00	0.8727	-3.599107	0.000345	3.447440	1.168024	0.000138
  24	2.2885e+00	0.9160	-3.405324	0.000487	4.866974	1.648975	0.000195
  25	2.3880e+00	0.9529	-3.276136	0.000324	3.244649	1.099317	0.000130
  26	2.4875e+00	0.9978	-3.122724	0.000385	3.853021	1.305439	0.000154
  27	2.5870e+00	1.0347	-2.969313	0.000385	3.853021	1.305439	0.000154
  28	2.6865e+00	1.0700	-2.828014	0.000355	3.548835	1.202378	0.000142
  29	2.7860e+00	1.1085	-2.646342	0.000456	4.562788	1.545914	0.000183
  30	2.8855e+00	1.1534	-2.521191	0.000314	3.143254	1.064963	0.000126
  31	2.9850e+00	1.1871	-2.327409	0.000487	4.866974	1.648975	0.000195
  32	3.0845e+00	1.2353	-2.178035	0.000375	3.751626	1.271085	0.000150
  33	3.1840e+00	1.2786	-1.992326	0.000466	4.664183	1.580268	0.000187
  34	3.2835e+00	1.3203	-1.879287	0.000284	2.839068	0.961902	0.000114
  35	3.3830e+00	1.3540	-1.713764	0.000416	4.157207	1.408500	0.000166
  36	3.4825e+00	1.3989	-1.532093	0.000456	4.562788	1.545914	0.000183
  37	3.5820e+00	1.4374	-1.374645	0.000395	3.954416	1.339793	0.000158
  38	3.6815e+00	1.4823	-1.225271	0.000375	3.751626	1.271085	0.000150
  39	3.7810e+00	1.5128	-1.075897	0.000375	3.751626	1.271085	0.000150
  40	3.8805e+00	1.5593	-0.882114	0.000487	4.866974	1.648975	0.000195
  41	3.9800e+00	1.5898	-0.752926	0.000324	3.244649	1.099317	0.000130
  42	4.0795e+00	1.6331	-0.567218	0.000466	4.664183	1.580268	0.000187
  43	4.1790e+00	1.6636	-0.433992	0.000335	3.346045	1.133671	0.000134
  44	4.2785e+00	1.7133	-0.240210	0.000487	4.866974	1.648975	0.000195
  45	4.3780e+00	1.7550	-0.090836	0.000375	3.751626	1.271085	0.000150
  46	4.4775e+00	1.7935	0.014130	0.000264	2.636278	0.893195	0.000105
  47	4.5770e+00	1.8336	0.191764	0.000446	4.461393	1.511561	0.000179
  48	4.6765e+00	1.8673	0.369398	0.000446	4.461393	1.511561	0.000179
  49	4.7760e+00	1.9058	0.506661	0.000345	3.447440	1.168024	0.000138
  50	4.8755e+00	1.9443	0.688332	0.000456	4.562788	1.545914	0.000183
  51	4.9750e+00	1.9957	0.874040	0.000466	4.664183	1.580268	0.000187
  52	5.0745e+00	2.0278	0.999191	0.000314	3.143254	1.064963	0.000126
  53	5.1740e+00	2.0759	1.152602	0.000385	3.853021	1.305439	0.000154
  54	5.2735e+00	2.1128	1.334273	0.000456	4.562788	1.545914	0.000183
  55	5.3730e+00	2.1497	1.483647	0.000375	3.751626	1.271085	0.000150
  56	5.4725e+00	2.1834	1.681467	0.000497	4.968369	1.683329	0.000199
  57	5.5720e+00	2.2299	1.842952	0.000406	4.055812	1.374146	0.000162
  58	5.6715e+00	2.2748	2.012512	0.000426	4.258602	1.442853	0.000170
  59	5.7710e+00	2.3117	2.101329	0.000223	2.230696	0.755780	0.000089
  60	5.8705e+00	2.3486	2.262815	0.000406	4.055812	1.374146	0.000162
  61	5.9700e+00	2.3951	2.408151	0.000365	3.650230	1.236732	0.000146
  62	6.0695e+00	2.4272	2.626157	0.000548	5.475346	1.855097	0.000219
  63	6.1690e+00	2.4657	2.727085	0.000253	2.534882	0.858841	0.000101
  64	6.2685e+00	2.5074	2.953165	0.000568	5.678136	1.923805	0.000227
  65	6.3680e+00	2.5379	3.082353	0.000324	3.244649	1.099317	0.000130
  66	6.4675e+00	2.5924	3.264024	0.000456	4.562788	1.545914	0.000183
  67	6.5670e+00	2.6229	3.433584	0.000426	4.258602	1.442853	0.000170
  68	6.6665e+00	2.6630	3.574884	0.000355	3.548835	1.202378	0.000142
  69	6.7660e+00	2.7095	3.716183	0.000355	3.548835	1.202378	0.000142
  70	6.8655e+00	2.7497	3.865557	0.000375	3.751626	1.271085	0.000150
  71	6.9650e+00	2.7882	4.051266	0.000466	4.664183	1.580268	0.000187
  72	7.0645e+00	2.8331	4.184491	0.000335	3.346045	1.133671	0.000134
  73	7.1640e+00	2.8652	4.350014	0.000416	4.157207	1.408500	0.000166
  74	7.2635e+00	2.9021	4.511499	0.000406	4.055812	1.374146	0.000162
  75	7.3630e+00	2.9502	4.693170	0.000456	4.562788	1.545914	0.000183
  76	7.4625e+00	2.9839	4.862730	0.000426	4.258602	1.442853	0.000170
  77	7.5620e+00	3.0256	4.991918	0.000324	3.244649	1.099317	0.000130
  78	7.6615e+00	3.0753	5.169552	0.000446	4.461393	1.511561	0.000179
  79	7.7610e+00	3.1138	5.355261	0.000466	4.664183	1.580268	0.000187
  80	7.8605e+00	3.1411	5.480412	0.000314	3.143254	1.064963	0.000126
  81	7.9600e+00	3.1844	5.649971	0.000426	4.258602	1.442853	0.000170
  82	8.0595e+00	3.2245	5.835680	0.000466	4.664183	1.580268	0.000187
  83	8.1590e+00	3.2662	5.981017	0.000365	3.650230	1.236732	0.000146
  84	8.2585e+00	3.3079	6.166725	0.000466	4.664183	1.580268	0.000187
  85	8.3580e+00	3.3400	6.263616	0.000243	2.433487	0.824488	0.000097
  86	8.4575e+00	3.3817	6.445287	0.000456	4.562788	1.545914	0.000183
  87	8.5570e+00	3.4315	6.626958	0.000456	4.562788	1.545914	0.000183
  88	8.6565e+00	3.4716	6.756147	0.000324	3.244649	1.099317	0.000130
  89	8.7560e+00	3.5069	6.901484	0.000365	3.650230	1.236732	0.000146
  90	8.8555e+00	3.5454	7.034709	0.000335	3.346045	1.133671	0.000134
  91	8.9550e+00	3.5871	7.244640	0.000527	5.272555	1.786390	0.000211
  92	9.0545e+00	3.6368	7.389977	0.000365	3.650230	1.236732	0.000146
  93	9.1540e+00	3.6609	7.547425	0.000395	3.954416	1.339793	0.000158
  94	9.2535e+00	3.7058	7.745245	0.000497	4.968369	1.683329	0.000199
  95	9.3530e+00	3.7395	7.878470	0.000335	3.346045	1.133671	0.000134
  96	9.4525e+00	3.7828	8.043993	0.000416	4.157207	1.408500	0.000166
  97	9.5520e+00	3.8341	8.217590	0.000436	4.359997	1.477207	0.000174
  98	9.6515e+00	3.8630	8.362927	0.000365	3.650230	1.236732	0.000146
  99	9.7510e+00	3.9111	8.512301	0.000375	3.751626	1.271085	0.000150
 100	9.8505e+00	3.9448	8.665712	0.000385	3.853021	1.305439	0.000154
 101	9.9500e+00	3.9865	8.855457	0.000477	4.765579	1.614622	0.000191
 102	1.0050e+01	4.0154	8.968497	0.000284	2.839068	0.961902	0.000114
 103	1.0149e+01	4.0491	9.210725	0.000608	6.083717	2.061219	0.000243
 104	1.0248e+01	4.1004	9.315691	0.000264	2.636278	0.893195	0.000105
 105	1.0348e+01	4.1453	9.537733	0.000558	5.576741	1.889451	0.000223
 106	1.0447e+01	4.1838	9.638662	0.000253	2.534882	0.858841	0.000101
 107	1.0547e+01	4.2223	9.796110	0.000395	3.954416	1.339793	0.000158
 108	1.0646e+01	4.2689	9.965670	0.000426	4.258602	1.442853	0.000170
 109	1.0746e+01	4.2945	10.143304	0.000446	4.461393	1.511561	0.000179
 110	1.0845e+01	4.3394	10.333049	0.000477	4.765579	1.614622	0.000191
 111	1.0945e+01	4.3844	10.518757	0.000466	4.664183	1.580268	0.000187
 112	1.1044e+01	4.4277	10.656020	0.000345	3.447440	1.168024	0.000138
 113	1.1144e+01	4.4598	10.841728	0.000466	4.664183	1.580268	0.000187
 114	1.1243e+01	4.5047	10.954768	0.000284	2.839068	0.961902	0.000114
 115	1.1343e+01	4.5464	11.092030	0.000345	3.447440	1.168024	0.000138
 116	1.1443e+01	4.5769	11.281776	0.000477	4.765579	1.614622	0.000191
 117	1.1542e+01	4.6266	11.483633	0.000507	5.069764	1.717683	0.000203
 118	1.1642e+01	4.6667	11.608784	0.000314	3.143254	1.064963	0.000126
 119	1.1741e+01	4.6972	11.822752	0.000537	5.373950	1.820744	0.000215
 120	1.1841e+01	4.7357	11.988275	0.000416	4.157207	1.408500	0.000166
 121	1.1940e+01	4.7790	12.121500	0.000335	3.346045	1.133671	0.000134
 122	1.2040e+01	4.8175	12.319320	0.000497	4.968369	1.683329	0.000199
 123	1.2139e+01	4.8592	12.484842	0.000416	4.157207	1.408500	0.000166
 124	1.2239e+01	4.8945	12.650365	0.000416	4.157207	1.408500	0.000166
 125	1.2338e+01	4.9410	12.795702	0.000365	3.650230	1.236732	0.000146
 126	1.2438e+01	4.9827	12.928927	0.000335	3.346045	1.133671	0.000134
 127	1.2537e+01	5.0100	13.106561	0.000446	4.461393	1.511561	0.000179
 128	1.2636e+01	5.0646	13.292269	0.000466	4.664183	1.580268	0.000187
 129	1.2736e+01	5.0966	13.449718	0.000395	3.954416	1.339793	0.000158
 130	1.2835e+01	5.1416	13.611203	0.000406	4.055812	1.374146	0.000162
 131	1.2935e+01	5.1769	13.800949	0.000477	4.765579	1.614622	0.000191
 132	1.3034e+01	5.2186	13.986657	0.000466	4.664183	1.580268	0.000187
 133	1.3134e+01	5.2523	14.107771	0.000304	3.041859	1.030610	0.000122
 134	1.3233e+01	5.2956	14.313665	0.000517	5.171160	1.752036	0.000207
 135	1.3333e+01	5.3325	14.503410	0.000477	4.765579	1.614622	0.000191
 136	1.3432e+01	5.3758	14.604339	0.000253	2.534882	0.858841	0.000101
 137	1.3532e+01	5.4239	14.781973	0.000446	4.461393	1.511561	0.000179
 138	1.3632e+01	5.4480	14.999978	0.000548	5.475346	1.855097	0.000219
 139	1.3731e+01	5.4993	15.121092	0.000304	3.041859	1.030610	0.000122
 140	1.3831e+01	5.5330	15.314874	0.000487	4.866974	1.648975	0.000195
 141	1.3930e+01	5.5827	15.456174	0.000355	3.548835	1.202378	0.000142
 142	1.4030e+01	5.6212	15.613622	0.000395	3.954416	1.339793	0.000158
 143	1.4129e+01	5.6533	15.791256	0.000446	4.461393	1.511561	0.000179
 144	1.4229e+01	5.6918	15.944668	0.000385	3.853021	1.305439	0.000154
 145	1.4328e+01	5.7351	16.073856	0.000324	3.244649	1.099317	0.000130
 146	1.4428e+01	5.7768	16.295898	0.000558	5.576741	1.889451	0.000223
 147	1.4527e+01	5.8153	16.453347	0.000395	3.954416	1.339793	0.000158
 148	1.4627e+01	5.8587	16.651166	0.000497	4.968369	1.683329	0.000199
 149	1.4726e+01	5.8859	16.780355	0.000324	3.244649	1.099317	0.000130
 150	1.4825e+01	5.9453	17.002397	0.000558	5.576741	1.889451	0.000223
 151	1.4925e+01	5.9726	17.115437	0.000284	2.839068	0.961902	0.000114
 152	1.5024e+01	6.0095	17.337479	0.000558	5.576741	1.889451	0.000223
 153	1.5124e+01	6.0496	17.458593	0.000304	3.041859	1.030610	0.000122
 154	1.5223e+01	6.1009	17.644302	0.000466	4.664183	1.580268	0.000187
 155	1.5323e+01	6.1394	17.809824	0.000416	4.157207	1.408500	0.000166
 156	1.5422e+01	6.1731	17.922864	0.000284	2.839068	0.961902	0.000114
 157	1.5522e+01	6.2148	18.157018	0.000588	5.880927	1.992512	0.000235
 158	1.5621e+01	6.2485	18.274095	0.000294	2.940463	0.996256	0.000118
 159	1.5721e+01	6.2934	18.479989	0.000517	5.171160	1.752036	0.000207
 160	1.5820e+01	6.3463	18.629363	0.000375	3.751626	1.271085	0.000150
 161	1.5920e+01	6.3736	18.827183	0.000497	4.968369	1.683329	0.000199
 162	1.6020e+01	6.4169	18.920037	0.000233	2.332092	0.790134	0.000093
 163	1.6119e+01	6.4554	19.093633	0.000436	4.359997	1.477207	0.000174
 164	1.6218e+01	6.4907	19.255119	0.000406	4.055812	1.374146	0.000162
 165	1.6318e+01	6.5340	19.456976	0.000507	5.069764	1.717683	0.000203
 166	1.6418e+01	6.5741	19.614424	0.000395	3.954416	1.339793	0.000158
 167	1.6517e+01	6.6143	19.759761	0.000365	3.650230	1.236732	0.000146
 168	1.6616e+01	6.6544	19.941432	0.000456	4.562788	1.545914	0.000183
 169	1.6716e+01	6.6880	20.163474	0.000558	5.576741	1.889451	0.000223
 170	1.6816e+01	6.7346	20.312848	0.000375	3.751626	1.271085	0.000150
 171	1.6915e+01	6.7683	20.490482	0.000446	4.461393	1.511561	0.000179
 172	1.7015e+01	6.8100	20.676191	0.000466	4.664183	1.580268	0.000187
 173	1.7114e+01	6.8453	20.849788	0.000436	4.359997	1.477207	0.000174
 174	1.7213e+01	6.8886	20.999162	0.000375	3.751626	1.271085	0.000150
 175	1.7313e+01	6.9335	21.124313	0.000314	3.143254	1.064963	0.000126
 176	1.7413e+01	6.9752	21.362504	0.000598	5.982322	2.026866	0.000239
 177	1.7512e+01	7.0137	21.507841	0.000365	3.650230	1.236732	0.000146
 178	1.7611e+01	7.0522	21.645103	0.000345	3.447440	1.168024	0.000138
 179	1.7711e+01	7.0907	21.814663	0.000426	4.258602	1.442853	0.000170
 180	1.7811e+01	7.1340	21.992297	0.000446	4.461393	1.511561	0.000179
 181	1.7910e+01	7.1693	22.113411	0.000304	3.041859	1.030610	0.000122
 182	1.8009e+01	7.2126	22.291045	0.000446	4.461393	1.511561	0.000179
 183	1.8109e+01	7.2479	22.412159	0.000304	3.041859	1.030610	0.000122
 184	1.8209e+01	7.2880	22.646313	0.000588	5.880927	1.992512	0.000235
 185	1.8308e+01	7.3362	22.832021	0.000466	4.664183	1.580268	0.000187
 186	1.8407e+01	7.3682	22.989469	0.000395	3.954416	1.339793	0.000158
 187	1.8507e+01	7.4116	23.159029	0.000426	4.258602	1.442853	0.000170
 188	1.8607e+01	7.4372	23.312440	0.000385	3.853021	1.305439	0.000154
 189	1.8706e+01	7.4902	23.498149	0.000466	4.664183	1.580268	0.000187
 190	1.8805e+01	7.5287	23.683857	0.000466	4.664183	1.580268	0.000187
 191	1.8905e+01	7.5704	23.837268	0.000385	3.853021	1.305439	0.000154
 192	1.9005e+01	7.6089	23.978568	0.000355	3.548835	1.202378	0.000142
 193	1.9104e+01	7.6474	24.131979	0.000385	3.853021	1.305439	0.000154
 194	1.9203e+01	7.6827	24.293464	0.000406	4.055812	1.374146	0.000162
 195	1.9303e+01	7.7276	24.450913	0.000395	3.954416	1.339793	0.000158
 196	1.9402e+01	7.7709	24.624509	0.000436	4.359997	1.477207	0.000174
 197	1.9502e+01	7.8014	24.781958	0.000395	3.954416	1.339793	0.000158
 198	1.9602e+01	7.8479	24.939406	0.000395	3.954416	1.339793	0.000158
 199	1.9701e+01	7.8976	25.100891	0.000406	4.055812	1.374146	0.000162
 200	1.9800e+01	7.9201	25.234117	0.000335	3.346045	1.133671	0.000134
 201	1.9900e+01	7.9650	25.411751	0.000446	4.461393	1.511561	0.000179
 202	2.0000e+01	7.9987	25.557088	0.000365	3.650230	1.236732	0.000146
 203	2.0099e+01	8.0420	25.738759	0.000456	4.562788	1.545914	0.000183
 204	2.0198e+01	8.0837	25.928504	0.000477	4.765579	1.614622	0.000191
 205	2.0298e+01	8.1270	26.077878	0.000375	3.751626	1.271085	0.000150
 206	2.0398e+01	8.1623	26.243401	0.000416	4.157207	1.408500	0.000166
 207	2.0497e+01	8.2089	26.433146	0.000477	4.765579	1.614622	0.000191
 208	2.0596e+01	8.2425	26.594632	0.000406	4.055812	1.374146	0.000162
 209	2.0696e+01	8.2843	26.727857	0.000335	3.346045	1.133671	0.000134
 210	2.0796e+01	8.3196	26.917603	0.000477	4.765579	1.614622	0.000191
 211	2.0895e+01	8.3661	27.042754	0.000314	3.143254	1.064963	0.000126
 212	2.0994e+01	8.4158	27.208276	0.000416	4.157207	1.408500	0.000166
 213	2.1094e+01	8.4447	27.365725	0.000395	3.954416	1.339793	0.000158
 214	2.1194e+01	8.4816	27.563544	0.000497	4.968369	1.683329	0.000199
 215	2.1293e+01	8.5265	27.700807	0.000345	3.447440	1.168024	0.000138
 216	2.1392e+01	8.5650	27.878441	0.000446	4.461393	1.511561	0.000179
 217	2.1492e+01	8.5971	27.999555	0.000304	3.041859	1.030610	0.000122
 218	2.1591e+01	8.6436	28.120669	0.000304	3.041859	1.030610	0.000122
 219	2.1691e+01	8.6789	28.282154	0.000406	4.055812	1.374146	0.000162
 220	2.1791e+01	8.7270	28.459788	0.000446	4.461393	1.511561	0.000179
 221	2.1890e+01	8.7655	28.629348	0.000426	4.258602	1.442853	0.000170
 222	2.1989e+01	8.8088	28.786796	0.000395	3.954416	1.339793	0.000158
 223	2.2089e+01	8.8506	28.996727	0.000527	5.272555	1.786390	0.000211
 224	2.2189e+01	8.8794	29.154176	0.000395	3.954416	1.339793	0.000158
 225	2.2288e+01	8.9195	29.279327	0.000314	3.143254	1.064963	0.000126
 226	2.2387e+01	8.9757	29.469072	0.000477	4.765579	1.614622	0.000191
 227	2.2487e+01	9.0014	29.618446	0.000375	3.751626	1.271085	0.000150
 228	2.2587e+01	9.0382	29.723412	0.000264	2.636278	0.893195	0.000105
 229	2.2686e+01	9.0864	29.937380	0.000537	5.373950	1.820744	0.000215
 230	2.2785e+01	9.1153	30.078680	0.000355	3.548835	1.202378	0.000142
 231	2.2885e+01	9.1538	30.224017	0.000365	3.650230	1.236732	0.000146
 232	2.2985e+01	9.1955	30.429911	0.000517	5.171160	1.752036	0.000207
 233	2.3084e+01	9.2404	30.514690	0.000213	2.129301	0.721427	0.000085
 234	2.3183e+01	9.2869	30.708473	0.000487	4.866974	1.648975	0.000195
 235	2.3283e+01	9.3222	30.821513	0.000284	2.839068	0.961902	0.000114
 236	2.3383e+01	9.3639	30.995110	0.000436	4.359997	1.477207	0.000174
 237	2.3482e+01	9.3976	31.144484	0.000375	3.751626	1.271085	0.000150
 238	2.3581e+01	9.4393	31.342303	0.000497	4.968369	1.683329	0.000199
 239	2.3681e+01	9.4890	31.515900	0.000436	4.359997	1.477207	0.000174
 240	2.3780e+01	9.5083	31.620866	0.000264	2.636278	0.893195	0.000105
 241	2.3880e+01	9.5628	31.814648	0.000487	4.866974	1.648975	0.000195
 242	2.3980e+01	9.6045	31.980171	0.000416	4.157207	1.408500	0.000166
 243	2.4079e+01	9.6382	32.109359	0.000324	3.244649	1.099317	0.000130
 244	2.4178e+01	9.6751	32.274882	0.000416	4.157207	1.408500	0.000166
 245	2.4278e+01	9.7297	32.428293	0.000385	3.853021	1.305439	0.000154
 246	2.4378e+01	9.7585	32.549407	0.000304	3.041859	1.030610	0.000122
 247	2.4477e+01	9.7970	32.731078	0.000456	4.562788	1.545914	0.000183
 248	2.4576e+01	9.8275	32.864303	0.000335	3.346045	1.133671	0.000134
 249	2.4676e+01	9.8821	33.045975	0.000456	4.562788	1.545914	0.000183
 250	2.4776e+01	9.9126	33.171126	0.000314	3.143254	1.064963	0.000126
 251	2.4875e+01	9.9575	33.324537	0.000385	3.853021	1.305439	0.000154
 252	2.4974e+01	9.9896	33.490060	0.000416	4.157207	1.408500	0.000166
 253	2.5074e+01	10.0409	33.615211	0.000314	3.143254	1.064963	0.000126
 254	2.5174e+01	10.0890	33.780733	0.000416	4.157207	1.408500	0.000166
 255	2.5273e+01	10.1067	33.913959	0.000335	3.346045	1.133671	0.000134
 256	2.5372e+01	10.1564	34.075444	0.000406	4.055812	1.374146	0.000162
 257	2.5472e+01	10.1933	34.236930	0.000406	4.055812	1.374146	0.000162
 258	2.5572e+01	10.2222	34.410526	0.000436	4.359997	1.477207	0.000174
 259	2.5671e+01	10.2815	34.559900	0.000375	3.751626	1.271085	0.000150
 260	2.5770e+01	10.3200	34.729460	0.000426	4.258602	1.442853	0.000170
 261	2.5870e+01	10.3473	34.874797	0.000365	3.650230	1.236732	0.000146
 262	2.5970e+01	10.3922	35.032245	0.000395	3.954416	1.339793	0.000158
 263	2.6069e+01	10.4403	35.165471	0.000335	3.346045	1.133671	0.000134
 264	2.6169e+01	10.4756	35.339068	0.000436	4.359997	1.477207	0.000174
 265	2.6268e+01	10.5157	35.492479	0.000385	3.853021	1.305439	0.000154
 266	2.6367e+01	10.5494	35.658001	0.000416	4.157207	1.408500	0.000166
 267	2.6467e+01	10.5976	35.779115	0.000304	3.041859	1.030610	0.000122
 268	2.6567e+01	10.6393	35.940601	0.000406	4.055812	1.374146	0.000162
 269	2.6666e+01	10.6842	36.089975	0.000375	3.751626	1.271085	0.000150
 270	2.6765e+01	10.7163	36.235312	0.000365	3.650230	1.236732	0.000146
 271	2.6865e+01	10.7660	36.376612	0.000355	3.548835	1.202378	0.000142
 272	2.6965e+01	10.7885	36.513874	0.000345	3.447440	1.168024	0.000138
 273	2.7064e+01	10.8334	36.679397	0.000416	4.157207	1.408500	0.000166
 274	2.7163e+01	10.8847	36.877216	0.000497	4.968369	1.683329	0.000199
 275	2.7263e+01	10.9168	36.994293	0.000294	2.940463	0.996256	0.000118
 276	2.7363e+01	10.9537	37.188076	0.000487	4.866974	1.648975	0.000195
 277	2.7462e+01	10.9954	37.341487	0.000385	3.853021	1.305439	0.000154
 278	2.7561e+01	11.0291	37.494898	0.000385	3.853021	1.305439	0.000154
 279	2.7661e+01	11.0644	37.632161	0.000345	3.447440	1.168024	0.000138
 280	2.7761e+01	11.1205	37.825943	0.000487	4.866974	1.648975	0.000195
 281	2.7860e+01	11.1462	37.963206	0.000345	3.447440	1.168024	0.000138
 282	2.7959e+01	11.1959	38.120654	0.000395	3.954416	1.339793	0.000158
 283	2.8059e+01	11.2296	38.253880	0.000335	3.346045	1.133671	0.000134
 284	2.8159e+01	11.2810	38.419402	0.000416	4.157207	1.408500	0.000166
 285	2.8258e+01	11.3082	38.592999	0.000436	4.359997	1.477207	0.000174
 286	2.8358e+01	11.3451	38.738336	0.000365	3.650230	1.236732	0.000146
 287	2.8457e+01	11.3981	38.907896	0.000426	4.258602	1.442853	0.000170
 288	2.8556e+01	11.4286	39.057270	0.000375	3.751626	1.271085	0.000150
 289	2.8656e+01	11.4735	39.218755	0.000406	4.055812	1.374146	0.000162
 290	2.8756e+01	11.5072	39.351981	0.000335	3.346045	1.133671	0.000134
 291	2.8855e+01	11.5665	39.509429	0.000395	3.954416	1.339793	0.000158
 292	2.8954e+01	11.5890	39.654766	0.000365	3.650230	1.236732	0.000146
 293	2.9054e+01	11.6291	39.828363	0.000436	4.359997	1.477207	0.000174
 294	2.9154e+01	11.6692	39.989848	0.000406	4.055812	1.374146	0.000162
 295	2.9253e+01	11.7061	40.139222	0.000375	3.751626	1.271085	0.000150
 296	2.9352e+01	11.7510	40.272448	0.000335	3.346045	1.133671	0.000134
 297	2.9452e+01	11.8039	40.466230	0.000487	4.866974	1.648975	0.000195
 298	2.9552e+01	11.8296	40.643864	0.000446	4.461393	1.511561	0.000179
 299	2.9651e+01	11.8777	40.764978	0.000304	3.041859	1.030610	0.000122
 300	2.9750e+01	11.9002	40.934538	0.000426	4.258602	1.442853	0.000170
 301	2.9850e+01	11.9563	41.059689	0.000314	3.143254	1.064963	0.000126
 302	2.9950e+01	11.9868	41.200989	0.000355	3.548835	1.202378	0.000142
 303	3.0049e+01	12.0382	41.374586	0.000436	4.359997	1.477207	0.000174
 304	3.0148e+01	12.0702	41.507811	0.000335	3.346045	1.133671	0.000134
 305	3.0248e+01	12.1039	41.709668	0.000507	5.069764	1.717683	0.000203
 306	3.0348e+01	12.1521	41.838856	0.000324	3.244649	1.099317	0.000130
 307	3.0447e+01	12.1954	42.008416	0.000426	4.258602	1.442853	0.000170
 308	3.0547e+01	12.2275	42.157790	0.000375	3.751626	1.271085	0.000150
 309	3.0646e+01	12.2692	42.307164	0.000375	3.751626	1.271085	0.000150
 310	3.0745e+01	12.3141	42.436352	0.000324	3.244649	1.099317	0.000130
 311	3.0845e+01	12.3542	42.630135	0.000487	4.866974	1.648975	0.000195
 312	3.0945e+01	12.3879	42.803732	0.000436	4.359997	1.477207	0.000174
 313	3.1044e+01	12.4264	42.920809	0.000294	2.940463	0.996256	0.000118
 314	3.1143e+01	12.4633	43.134777	0.000537	5.373950	1.820744	0.000215
 315	3.1243e+01	12.5130	43.288188	0.000385	3.853021	1.305439	0.000154
 316	3.1343e+01	12.5515	43.417376	0.000324	3.244649	1.099317	0.000130
 317	3.1442e+01	12.5900	43.550602	0.000335	3.346045	1.133671	0.000134
 318	3.1541e+01	12.6285	43.744384	0.000487	4.866974	1.648975	0.000195
 319	3.1641e+01	12.6622	43.885684	0.000355	3.548835	1.202378	0.000142
 320	3.1741e+01	12.7135	44.055244	0.000426	4.258602	1.442853	0.000170
 321	3.1840e+01	12.7440	44.216729	0.000406	4.055812	1.374146	0.000162
 322	3.1939e+01	12.7793	44.345918	0.000324	3.244649	1.099317	0.000130
 323	3.2039e+01	12.8194	44.487217	0.000355	3.548835	1.202378	0.000142
 324	3.2139e+01	12.8756	44.664851	0.000446	4.461393	1.511561	0.000179
 325	3.2238e+01	12.9028	44.806151	0.000355	3.548835	1.202378	0.000142
 326	3.2337e+01	12.9462	44.979748	0.000436	4.359997	1.477207	0.000174
 327	3.2437e+01	12.9879	45.088750	0.000274	2.737673	0.927549	0.000110
 328	3.2536e+01	13.0216	45.238125	0.000375	3.751626	1.271085	0.000150
 329	3.2636e+01	13.0617	45.423833	0.000466	4.664183	1.580268	0.000187
 330	3.2736e+01	13.0970	45.581281	0.000395	3.954416	1.339793	0.000158
 331	3.2835e+01	13.1483	45.750841	0.000426	4.258602	1.442853	0.000170
 332	3.2934e+01	13.1836	45.904252	0.000385	3.853021	1.305439	0.000154
 333	3.3034e+01	13.2253	46.077849	0.000436	4.359997	1.477207	0.000174
 334	3.3133e+01	13.2702	46.211074	0.000335	3.346045	1.133671	0.000134
 335	3.3233e+01	13.3055	46.360448	0.000375	3.751626	1.271085	0.000150
 336	3.3333e+01	13.3344	46.562305	0.000507	5.069764	1.717683	0.000203
 337	3.3432e+01	13.3921	46.719753	0.000395	3.954416	1.339793	0.000158
 338	3.3532e+01	13.4162	46.901424	0.000456	4.562788	1.545914	0.000183
 339	3.3631e+01	13.4595	47.022539	0.000304	3.041859	1.030610	0.000122
 340	3.3730e+01	13.4980	47.171913	0.000375	3.751626	1.271085	0.000150
 341	3.3830e+01	13.5365	47.325324	0.000385	3.853021	1.305439	0.000154
 342	3.3929e+01	13.5879	47.502958	0.000446	4.461393	1.511561	0.000179
 343	3.4029e+01	13.6392	47.644257	0.000355	3.548835	1.202378	0.000142
 344	3.4129e+01	13.6633	47.793631	0.000375	3.751626	1.271085	0.000150
 345	3.4228e+01	13.7066	47.943005	0.000375	3.751626	1.271085	0.000150
 346	3.4328e+01	13.7467	48.104491	0.000406	4.055812	1.374146	0.000162
 347	3.4427e+01	13.7868	48.249828	0.000365	3.650230	1.236732	0.000146
 348	3.4526e+01	13.8205	48.443610	0.000487	4.866974	1.648975	0.000195
 349	3.4626e+01	13.8606	48.597021	0.000385	3.853021	1.305439	0.000154
 350	3.4725e+01	13.8991	48.738321	0.000355	3.548835	1.202378	0.000142
 351	3.4825e+01	13.9360	48.928067	0.000477	4.765579	1.614622	0.000191
 352	3.4925e+01	13.9841	49.045144	0.000294	2.940463	0.996256	0.000118
 353	3.5024e+01	14.0242	49.206629	0.000406	4.055812	1.374146	0.000162
 354	3.5123e+01	14.0659	49.356003	0.000375	3.751626	1.271085	0.000150
 355	3.5223e+01	14.0996	49.529600	0.000436	4.359997	1.477207	0.000174
 356	3.5322e+01	14.1349	49.678974	0.000375	3.751626	1.271085	0.000150
 357	3.5422e+01	14.1798	49.832385	0.000385	3.853021	1.305439	0.000154
 358	3.5522e+01	14.2231	49.989833	0.000395	3.954416	1.339793	0.000158
 359	3.5621e+01	14.2664	50.135170	0.000365	3.650230	1.236732	0.000146
 360	3.5721e+01	14.2905	50.312804	0.000446	4.461393	1.511561	0.000179
 361	3.5820e+01	14.3338	50.458141	0.000365	3.650230	1.236732	0.000146
 362	3.5919e+01	14.3819	50.579255	0.000304	3.041859	1.030610	0.000122
 363	3.6019e+01	14.4188	50.756889	0.000446	4.461393	1.511561	0.000179
 364	3.6118e+01	14.4686	50.865892	0.000274	2.737673	0.927549	0.000110
 365	3.6218e+01	14.5039	51.023340	0.000395	3.954416	1.339793	0.000158
 366	3.6318e+01	14.5392	51.205011	0.000456	4.562788	1.545914	0.000183
 367	3.6417e+01	14.5696	51.330162	0.000314	3.143254	1.064963	0.000126
 368	3.6517e+01	14.6130	51.503759	0.000436	4.359997	1.477207	0.000174
 369	3.6616e+01	14.6499	51.624873	0.000304	3.041859	1.030610	0.000122
 370	3.6715e+01	14.6964	51.822693	0.000497	4.968369	1.683329	0.000199
 371	3.6815e+01	14.7365	51.939770	0.000294	2.940463	0.996256	0.000118
 372	3.6914e+01	14.7782	52.105292	0.000416	4.157207	1.408500	0.000166
 373	3.7014e+01	14.8103	52.246592	0.000355	3.548835	1.202378	0.000142
 374	3.7114e+01	14.8616	52.424226	0.000446	4.461393	1.511561	0.000179
 375	3.7213e+01	14.8889	52.569563	0.000365	3.650230	1.236732	0.000146
 376	3.7313e+01	14.9338	52.710863	0.000355	3.548835	1.202378	0.000142
 377	3.7412e+01	14.9723	52.819865	0.000274	2.737673	0.927549	0.000110
 378	3.7511e+01	15.0188	53.001537	0.000456	4.562788	1.545914	0.000183
 379	3.7611e+01	15.0589	53.146873	0.000365	3.650230	1.236732	0.000146
 380	3.7711e+01	15.0958	53.312396	0.000416	4.157207	1.408500	0.000166
 381	3.7810e+01	15.1295	53.449659	0.000345	3.447440	1.168024	0.000138
 382	3.7910e+01	15.1728	53.570773	0.000304	3.041859	1.030610	0.000122
 383	3.8009e+01	15.2274	53.716110	0.000365	3.650230	1.236732	0.000146
 384	3.8108e+01	15.2482	53.897781	0.000456	4.562788	1.545914	0.000183
 385	3.8208e+01	15.2819	54.010820	0.000284	2.839068	0.961902	0.000114
 386	3.8307e+01	15.3429	54.180380	0.000426	4.258602	1.442853	0.000170
 387	3.8407e+01	15.3718	54.333791	0.000385	3.853021	1.305439	0.000154
 388	3.8507e+01	15.4103	54.511425	0.000446	4.461393	1.511561	0.000179
 389	3.8606e+01	15.4488	54.636577	0.000314	3.143254	1.064963	0.000126
 390	3.8706e+01	15.4969	54.773839	0.000345	3.447440	1.168024	0.000138
 391	3.8805e+01	15.5258	54.903027	0.000324	3.244649	1.099317	0.000130
 392	3.8904e+01	15.5723	55.064513	0.000406	4.055812	1.374146	0.000162
 393	3.9004e+01	15.6188	55.225998	0.000406	4.055812	1.374146	0.000162
 394	3.9103e+01	15.6557	55.387484	0.000406	4.055812	1.374146	0.000162
 395	3.9203e+01	15.6862	55.524746	0.000345	3.447440	1.168024	0.000138
 396	3.9303e+01	15.7343	55.645860	0.000304	3.041859	1.030610	0.000122
 397	3.9402e+01	15.7696	55.779086	0.000335	3.346045	1.133671	0.000134
 398	3.9502e+01	15.8097	55.960757	0.000456	4.562788	1.545914	0.000183
 399	3.9601e+01	15.8530	56.114168	0.000385	3.853021	1.305439	0.000154
 400	3.9700e+01	15.8947	56.279691	0.000416	4.157207	1.408500	0.000166
 401	3.9800e+01	15.9381	56.433102	0.000385	3.853021	1.305439	0.000154
 402	3.9900e+01	15.9669	56.529993	0.000243	2.433487	0.824488	0.000097
 403	3.9999e+01	16.0151	56.695516	0.000416	4.157207	1.408500	0.000166
 404	4.0099e+01	16.0552	56.816630	0.000304	3.041859	1.030610	0.000122
 405	4.0198e+01	16.0921	56.978115	0.000406	4.055812	1.374146	0.000162
 406	4.0297e+01	16.1354	57.103266	0.000314	3.143254	1.064963	0.000126
 407	4.0397e+01	16.1594	57.272826	0.000426	4.258602	1.442853	0.000170
 408	4.0496e+01	16.2140	57.438349	0.000416	4.157207	1.408500	0.000166
 409	4.0596e+01	16.2461	57.563500	0.000314	3.143254	1.064963	0.000126
 410	4.0696e+01	16.2878	57.720948	0.000395	3.954416	1.339793	0.000158
 411	4.0795e+01	16.3359	57.874359	0.000385	3.853021	1.305439	0.000154
 412	4.0895e+01	16.3776	57.991436	0.000294	2.940463	0.996256	0.000118
 413	4.0994e+01	16.4049	58.156959	0.000416	4.157207	1.408500	0.000166
 414	4.1093e+01	16.4466	58.298259	0.000355	3.548835	1.202378	0.000142
 415	4.1193e+01	16.4915	58.419373	0.000304	3.041859	1.030610	0.000122
 416	4.1292e+01	16.5348	58.576821	0.000395	3.954416	1.339793	0.000158
 417	4.1392e+01	16.5781	58.701972	0.000314	3.143254	1.064963	0.000126
 418	4.1492e+01	16.6134	58.895755	0.000487	4.866974	1.648975	0.000195
 419	4.1591e+01	16.6471	59.000720	0.000264	2.636278	0.893195	0.000105
 420	4.1691e+01	16.6904	59.117797	0.000294	2.940463	0.996256	0.000118
 421	4.1790e+01	16.7257	59.263134	0.000365	3.650230	1.236732	0.000146
 422	4.1889e+01	16.7690	59.440768	0.000446	4.461393	1.511561	0.000179
 423	4.1989e+01	16.8027	59.545734	0.000264	2.636278	0.893195	0.000105
 424	4.2089e+01	16.8493	59.699145	0.000385	3.853021	1.305439	0.000154
 425	4.2188e+01	16.8829	59.848519	0.000375	3.751626	1.271085	0.000150
 426	4.2288e+01	16.9279	59.981744	0.000335	3.346045	1.133671	0.000134
 427	4.2387e+01	16.9696	60.151304	0.000426	4.258602	1.442853	0.000170
 428	4.2486e+01	17.0065	60.292604	0.000355	3.548835	1.202378	0.000142
 429	4.2586e+01	17.0450	60.433903	0.000355	3.548835	1.202378	0.000142
 430	4.2685e+01	17.0915	60.563092	0.000324	3.244649	1.099317	0.000130
 431	4.2785e+01	17.1268	60.720540	0.000395	3.954416	1.339793	0.000158
 432	4.2885e+01	17.1749	60.829543	0.000274	2.737673	0.927549	0.000110
 433	4.2984e+01	17.2086	60.966805	0.000345	3.447440	1.168024	0.000138
 434	4.3084e+01	17.2535	61.140402	0.000436	4.359997	1.477207	0.000174
 435	4.3183e+01	17.2920	61.309962	0.000426	4.258602	1.442853	0.000170
 436	4.3282e+01	17.3257	61.414927	0.000264	2.636278	0.893195	0.000105
 437	4.3382e+01	17.3754	61.515856	0.000253	2.534882	0.858841	0.000101
 438	4.3481e+01	17.4107	61.701564	0.000466	4.664183	1.580268	0.000187
 439	4.3581e+01	17.4476	61.830752	0.000324	3.244649	1.099317	0.000130
 440	4.3681e+01	17.4958	61.980126	0.000375	3.751626	1.271085	0.000150
 441	4.3780e+01	17.5278	62.137575	0.000395	3.954416	1.339793	0.000158
 442	4.3880e+01	17.5744	62.262726	0.000314	3.143254	1.064963	0.000126
 443	4.3979e+01	17.6161	62.428248	0.000416	4.157207	1.408500	0.000166
 444	4.4078e+01	17.6450	62.617994	0.000477	4.765579	1.614622	0.000191
 445	4.4178e+01	17.6899	62.722959	0.000264	2.636278	0.893195	0.000105
 446	4.4278e+01	17.7236	62.864259	0.000355	3.548835	1.202378	0.000142
 447	4.4377e+01	17.7669	63.054005	0.000477	4.765579	1.614622	0.000191
 448	4.4477e+01	17.7990	63.187230	0.000335	3.346045	1.133671	0.000134
 449	4.4576e+01	17.8407	63.340641	0.000385	3.853021	1.305439	0.000154
 450	4.4675e+01	17.8824	63.465792	0.000314	3.143254	1.064963	0.000126
 451	4.4775e+01	17.9209	63.590944	0.000314	3.143254	1.064963	0.000126
 452	4.4874e+01	17.9642	63.772615	0.000456	4.562788	1.545914	0.000183
 453	4.4974e+01	18.0075	63.877580	0.000264	2.636278	0.893195	0.000105
 454	4.5074e+01	18.0428	64.055214	0.000446	4.461393	1.511561	0.000179
 455	4.5173e+01	18.0909	64.188440	0.000335	3.346045	1.133671	0.000134
 456	4.5273e+01	18.1278	64.289368	0.000253	2.534882	0.858841	0.000101
 457	4.5372e+01	18.1599	64.475076	0.000466	4.664183	1.580268	0.000187
 458	4.5471e+01	18.2080	64.571968	0.000243	2.433487	0.824488	0.000097
 459	4.5571e+01	18.2530	64.717304	0.000365	3.650230	1.236732	0.000146
 460	4.5670e+01	18.2770	64.898976	0.000456	4.562788	1.545914	0.000183
 461	4.5770e+01	18.3123	65.032201	0.000335	3.346045	1.133671	0.000134
 462	4.5870e+01	18.3669	65.153315	0.000304	3.041859	1.030610	0.000122
 463	4.5969e+01	18.4086	65.322875	0.000426	4.258602	1.442853	0.000170
 464	4.6069e+01	18.4487	65.472249	0.000375	3.751626	1.271085	0.000150
 465	4.6168e+01	18.4824	65.621623	0.000375	3.751626	1.271085	0.000150
 466	4.6267e+01	18.5177	65.795220	0.000436	4.359997	1.477207	0.000174
 467	4.6367e+01	18.5642	65.908259	0.000284	2.839068	0.961902	0.000114
 468	4.6467e+01	18.6123	66.073782	0.000416	4.157207	1.408500	0.000166
 469	4.6566e+01	18.6476	66.243342	0.000426	4.258602	1.442853	0.000170
 470	4.6666e+01	18.6861	66.364456	0.000304	3.041859	1.030610	0.000122
 471	4.6765e+01	18.7230	66.513830	0.000375	3.751626	1.271085	0.000150
 472	4.6864e+01	18.7631	66.634944	0.000304	3.041859	1.030610	0.000122
 473	4.6964e+01	18.7936	66.796429	0.000406	4.055812	1.374146	0.000162
 474	4.7063e+01	18.8417	66.957915	0.000406	4.055812	1.374146	0.000162
 475	4.7163e+01	18.8882	67.087103	0.000324	3.244649	1.099317	0.000130
 476	4.7263e+01	18.9251	67.244551	0.000395	3.954416	1.339793	0.000158
 477	4.7362e+01	18.9588	67.402000	0.000395	3.954416	1.339793	0.000158
 478	4.7462e+01	19.0070	67.559448	0.000395	3.954416	1.339793	0.000158
 479	4.7561e+01	19.0358	67.644228	0.000213	2.129301	0.721427	0.000085
 480	4.7660e+01	19.0840	67.833973	0.000477	4.765579	1.614622	0.000191
 481	4.7760e+01	19.1128	67.955087	0.000304	3.041859	1.030610	0.000122
 482	4.7859e+01	19.1706	68.096387	0.000355	3.548835	1.202378	0.000142
 483	4.7959e+01	19.2091	68.229613	0.000335	3.346045	1.133671	0.000134
 484	4.8059e+01	19.2444	68.370912	0.000355	3.548835	1.202378	0.000142
 485	4.8158e+01	19.2893	68.540472	0.000426	4.258602	1.442853	0.000170
 486	4.8258e+01	19.3182	68.701957	0.000406	4.055812	1.374146	0.000162
 487	4.8357e+01	19.3567	68.835183	0.000335	3.346045	1.133671	0.000134
 488	4.8456e+01	19.4000	68.968408	0.000335	3.346045	1.133671	0.000134
 489	4.8556e+01	19.4353	69.146042	0.000446	4.461393	1.511561	0.000179
 490	4.8656e+01	19.4770	69.267156	0.000304	3.041859	1.030610	0.000122
 491	4.8755e+01	19.5155	69.396345	0.000324	3.244649	1.099317	0.000130
 492	4.8855e+01	19.5636	69.545719	0.000375	3.751626	1.271085	0.000150
 493	4.8954e+01	19.6005	69.703167	0.000395	3.954416	1.339793	0.000158
 494	4.9053e+01	19.6342	69.884838	0.000456	4.562788	1.545914	0.000183
 495	4.9153e+01	19.6839	70.009989	0.000314	3.143254	1.064963	0.000126
 496	4.9252e+01	19.7176	70.143215	0.000335	3.346045	1.133671	0.000134
 497	4.9352e+01	19.7593	70.280477	0.000345	3.447440	1.168024	0.000138
 498	4.9452e+01	19.7978	70.413703	0.000335	3.346045	1.133671	0.000134
 499	4.9551e+01	19.8331	70.538854	0.000314	3.143254	1.064963	0.000126
 500	4.9651e+01	19.8732	70.688228	0.000375	3.751626	1.271085	0.000150
 501	4.9750e+01	19.9149	70.853751	0.000416	4.157207	1.408500	0.000166
 502	4.9849e+01	19.9551	71.011199	0.000395	3.954416	1.339793	0.000158
 503	4.9949e+01	19.9936	71.144425	0.000335	3.346045	1.133671	0.000134
 504	5.0048e+01	19.9647	71.019273	0.000314	3.143254	1.064963	-0.000126
 505	5.0148e+01	19.9101	70.962753	0.000142	1.419534	0.480951	-0.000057
 506	5.0248e+01	19.8813	70.817417	0.000365	3.650230	1.236732	-0.000146
 507	5.0347e+01	19.8379	70.756860	0.000152	1.520929	0.515305	-0.000061
 508	5.0447e+01	19.7978	70.672080	0.000213	2.129301	0.721427	-0.000085
 509	5.0546e+01	19.7625	70.538854	0.000335	3.346045	1.133671	-0.000134
 510	5.0645e+01	19.7112	70.490409	0.000122	1.216743	0.412244	-0.000049
 511	5.0745e+01	19.6743	70.332960	0.000395	3.954416	1.339793	-0.000158
 512	5.0844e+01	19.6358	70.284515	0.000122	1.216743	0.412244	-0.000049
 513	5.0944e+01	19.5989	70.175512	0.000274	2.737673	0.927549	-0.000110
 514	5.1044e+01	19.5572	70.066509	0.000274	2.737673	0.927549	-0.000110
 515	5.1143e+01	19.5155	69.961544	0.000264	2.636278	0.893195	-0.000105
 516	5.1242e+01	19.4850	69.775836	0.000466	4.664183	1.580268	-0.000187
 517	5.1342e+01	19.4449	69.674907	0.000253	2.534882	0.858841	-0.000101
 518	5.1441e+01	19.3936	69.565904	0.000274	2.737673	0.927549	-0.000110
 519	5.1541e+01	19.3567	69.469013	0.000243	2.433487	0.824488	-0.000097
 520	5.1641e+01	19.3230	69.347899	0.000304	3.041859	1.030610	-0.000122
 521	5.1740e+01	19.2765	69.242934	0.000264	2.636278	0.893195	-0.000105
 522	5.1840e+01	19.2412	69.150079	0.000233	2.332092	0.790134	-0.000093
 523	5.1939e+01	19.2107	69.000705	0.000375	3.751626	1.271085	-0.000150
 524	5.2038e+01	19.1610	68.855369	0.000365	3.650230	1.236732	-0.000146
 525	5.2138e+01	19.1209	68.766552	0.000223	2.230696	0.755780	-0.000089
 526	5.2237e+01	19.0791	68.677735	0.000223	2.230696	0.755780	-0.000089
 527	5.2337e+01	19.0374	68.548546	0.000324	3.244649	1.099317	-0.000130
 528	5.2437e+01	19.0021	68.423395	0.000314	3.143254	1.064963	-0.000126
 529	5.2536e+01	18.9572	68.306318	0.000294	2.940463	0.996256	-0.000118
 530	5.2636e+01	18.9235	68.197315	0.000274	2.737673	0.927549	-0.000110
 531	5.2735e+01	18.8770	68.144833	0.000132	1.318139	0.446598	-0.000053
 532	5.2834e+01	18.8401	67.987384	0.000395	3.954416	1.339793	-0.000158
 533	5.2934e+01	18.8048	67.874345	0.000284	2.839068	0.961902	-0.000114
 534	5.3033e+01	18.7679	67.757268	0.000294	2.940463	0.996256	-0.000118
 535	5.3133e+01	18.7262	67.615968	0.000355	3.548835	1.202378	-0.000142
 536	5.3233e+01	18.6813	67.470631	0.000365	3.650230	1.236732	-0.000146
 537	5.3332e+01	18.6444	67.313183	0.000395	3.954416	1.339793	-0.000158
 538	5.3431e+01	18.6043	67.228403	0.000213	2.129301	0.721427	-0.000085
 539	5.3531e+01	18.5738	67.095177	0.000335	3.346045	1.133671	-0.000134
 540	5.3630e+01	18.5257	66.990212	0.000264	2.636278	0.893195	-0.000105
 541	5.3730e+01	18.4840	66.848912	0.000355	3.548835	1.202378	-0.000142
 542	5.3830e+01	18.4439	66.723761	0.000314	3.143254	1.064963	-0.000126
 543	5.3929e+01	18.4070	66.614758	0.000274	2.737673	0.927549	-0.000110
 544	5.4029e+01	18.3620	66.473458	0.000355	3.548835	1.202378	-0.000142
 545	5.4128e+01	18.3219	66.340233	0.000335	3.346045	1.133671	-0.000134
 546	5.4227e+01	18.2883	66.255453	0.000213	2.129301	0.721427	-0.000085
 547	5.4327e+01	18.2498	66.098005	0.000395	3.954416	1.339793	-0.000158
 548	5.4426e+01	18.2080	66.037448	0.000152	1.520929	0.515305	-0.000061
 549	5.4526e+01	18.1647	65.892111	0.000365	3.650230	1.236732	-0.000146
 550	5.4626e+01	18.1294	65.750811	0.000355	3.548835	1.202378	-0.000142
 551	5.4725e+01	18.0893	65.633734	0.000294	2.940463	0.996256	-0.000118
 552	5.4825e+01	18.0476	65.508583	0.000314	3.143254	1.064963	-0.000126
 553	5.4924e+01	17.9963	65.375358	0.000335	3.346045	1.133671	-0.000134
 554	5.5023e+01	17.9722	65.234058	0.000355	3.548835	1.202378	-0.000142
 555	5.5123e+01	17.9273	65.112944	0.000304	3.041859	1.030610	-0.000122
 556	5.5222e+01	17.8888	64.959533	0.000385	3.853021	1.305439	-0.000154
 557	5.5322e+01	17.8471	64.826307	0.000335	3.346045	1.133671	-0.000134
 558	5.5422e+01	17.8038	64.713267	0.000284	2.839068	0.961902	-0.000114
 559	5.5521e+01	17.7621	64.604265	0.000274	2.737673	0.927549	-0.000110
 560	5.5620e+01	17.7171	64.471039	0.000335	3.346045	1.133671	-0.000134
 561	5.5720e+01	17.6851	64.353962	0.000294	2.940463	0.996256	-0.000118
 562	5.5819e+01	17.6401	64.224774	0.000324	3.244649	1.099317	-0.000130
 563	5.5919e+01	17.6049	64.103660	0.000304	3.041859	1.030610	-0.000122
 564	5.6019e+01	17.5631	63.966397	0.000345	3.447440	1.168024	-0.000138
 565	5.6118e+01	17.5359	63.865469	0.000253	2.534882	0.858841	-0.000101
 566	5.6218e+01	17.4733	63.716095	0.000375	3.751626	1.271085	-0.000150
 567	5.6317e+01	17.4508	63.566721	0.000375	3.751626	1.271085	-0.000150
 568	5.6416e+01	17.4123	63.518275	0.000122	1.216743	0.412244	-0.000049
 569	5.6516e+01	17.3706	63.389087	0.000324	3.244649	1.099317	-0.000130
 570	5.6615e+01	17.3385	63.284121	0.000264	2.636278	0.893195	-0.000105
 571	5.6715e+01	17.2904	63.110524	0.000436	4.359997	1.477207	-0.000174
 572	5.6815e+01	17.2407	62.924816	0.000466	4.664183	1.580268	-0.000187
 573	5.6914e+01	17.2102	62.819851	0.000264	2.636278	0.893195	-0.000105
 574	5.7014e+01	17.1685	62.686625	0.000335	3.346045	1.133671	-0.000134
 575	5.7113e+01	17.1364	62.545325	0.000355	3.548835	1.202378	-0.000142
 576	5.7212e+01	17.0915	62.416137	0.000324	3.244649	1.099317	-0.000130
 577	5.7312e+01	17.0530	62.295023	0.000304	3.041859	1.030610	-0.000122
 578	5.7411e+01	17.0097	62.137575	0.000395	3.954416	1.339793	-0.000158
 579	5.7511e+01	16.9664	62.000312	0.000345	3.447440	1.168024	-0.000138
 580	5.7611e+01	16.9279	61.871124	0.000324	3.244649	1.099317	-0.000130
 581	5.7710e+01	16.8894	61.725787	0.000365	3.650230	1.236732	-0.000146
 582	5.7809e+01	16.8525	61.620821	0.000264	2.636278	0.893195	-0.000105
 583	5.7909e+01	16.8092	61.467410	0.000385	3.853021	1.305439	-0.000154
 584	5.8008e+01	16.7706	61.382630	0.000213	2.129301	0.721427	-0.000085
 585	5.8108e+01	16.7241	61.233256	0.000375	3.751626	1.271085	-0.000150
 586	5.8208e+01	16.6888	61.140402	0.000233	2.332092	0.790134	-0.000093
 587	5.8307e+01	16.6519	60.991028	0.000375	3.751626	1.271085	-0.000150
 588	5.8407e+01	16.6134	60.902211	0.000223	2.230696	0.755780	-0.000089
 589	5.8506e+01	16.5685	60.748800	0.000385	3.853021	1.305439	-0.000154
 590	5.8605e+01	16.5412	60.567129	0.000456	4.562788	1.545914	-0.000183
 591	5.8705e+01	16.4867	60.437941	0.000324	3.244649	1.099317	-0.000130
 592	5.8804e+01	16.4594	60.296641	0.000355	3.548835	1.202378	-0.000142
 593	5.8904e+01	16.4017	60.175527	0.000304	3.041859	1.030610	-0.000122
 594	5.9004e+01	16.3776	60.010004	0.000416	4.157207	1.408500	-0.000166
 595	5.9103e+01	16.3343	59.896964	0.000284	2.839068	0.961902	-0.000114
 596	5.9203e+01	16.2926	59.739516	0.000395	3.954416	1.339793	-0.000158
 597	5.9302e+01	16.2589	59.626476	0.000284	2.839068	0.961902	-0.000114
 598	5.9401e+01	16.2156	59.485177	0.000355	3.548835	1.202378	-0.000142
 599	5.9501e+01	16.1723	59.331765	0.000385	3.853021	1.305439	-0.000154
 600	5.9600e+01	16.1322	59.226800	0.000264	2.636278	0.893195	-0.000105
 601	5.9700e+01	16.0840	59.045129	0.000456	4.562788	1.545914	-0.000183
 602	5.9800e+01	16.0520	58.956312	0.000223	2.230696	0.755780	-0.000089
 603	5.9899e+01	16.0070	58.827123	0.000324	3.244649	1.099317	-0.000130
 604	5.9998e+01	15.9717	58.746381	0.000203	2.027906	0.687073	-0.000081
 605	6.0098e+01	15.9397	58.609118	0.000345	3.447440	1.168024	-0.000138
 606	6.0197e+01	15.9012	58.463781	0.000365	3.650230	1.236732	-0.000146
 607	6.0297e+01	15.8466	58.302296	0.000406	4.055812	1.374146	-0.000162
 608	6.0397e+01	15.8097	58.165033	0.000345	3.447440	1.168024	-0.000138
 609	6.0496e+01	15.7857	58.031808	0.000335	3.346045	1.133671	-0.000134
 610	6.0596e+01	15.7359	57.894545	0.000345	3.447440	1.168024	-0.000138
 611	6.0695e+01	15.6958	57.753245	0.000355	3.548835	1.202378	-0.000142
 612	6.0794e+01	15.6557	57.599834	0.000385	3.853021	1.305439	-0.000154
 613	6.0894e+01	15.6108	57.482757	0.000294	2.940463	0.996256	-0.000118
 614	6.0993e+01	15.5803	57.313198	0.000426	4.258602	1.442853	-0.000170
 615	6.1093e+01	15.5306	57.208232	0.000264	2.636278	0.893195	-0.000105
 616	6.1193e+01	15.4969	57.079044	0.000324	3.244649	1.099317	-0.000130
 617	6.1292e+01	15.4439	56.941781	0.000345	3.447440	1.168024	-0.000138
 618	6.1392e+01	15.4183	56.804518	0.000345	3.447440	1.168024	-0.000138
 619	6.1491e+01	15.3734	56.671293	0.000335	3.346045	1.133671	-0.000134
 620	6.1590e+01	15.3284	56.546142	0.000314	3.143254	1.064963	-0.000126
 621	6.1690e+01	15.2996	56.437139	0.000274	2.737673	0.927549	-0.000110
 622	6.1789e+01	15.2595	56.332174	0.000264	2.636278	0.893195	-0.000105
 623	6.1889e+01	15.2194	56.219134	0.000284	2.839068	0.961902	-0.000114
 624	6.1989e+01	15.1793	56.069760	0.000375	3.751626	1.271085	-0.000150
 625	6.2088e+01	15.1343	55.956720	0.000284	2.839068	0.961902	-0.000114
 626	6.2188e+01	15.0990	55.795234	0.000406	4.055812	1.374146	-0.000162
 627	6.2287e+01	15.0525	55.682195	0.000284	2.839068	0.961902	-0.000114
 628	6.2386e+01	15.0172	55.544932	0.000345	3.447440	1.168024	-0.000138
 629	6.2486e+01	14.9867	55.347112	0.000497	4.968369	1.683329	-0.000199
 630	6.2586e+01	14.9322	55.209850	0.000345	3.447440	1.168024	-0.000138
 631	6.2685e+01	14.8953	55.088736	0.000304	3.041859	1.030610	-0.000122
 632	6.2785e+01	14.8536	54.915139	0.000436	4.359997	1.477207	-0.000174
 633	6.2884e+01	14.8247	54.802099	0.000284	2.839068	0.961902	-0.000114
 634	6.2983e+01	14.7750	54.693096	0.000274	2.737673	0.927549	-0.000110
 635	6.3083e+01	14.7349	54.547760	0.000365	3.650230	1.236732	-0.000146
 636	6.3182e+01	14.7012	54.458943	0.000223	2.230696	0.755780	-0.000089
 637	6.3282e+01	14.6595	54.293420	0.000416	4.157207	1.408500	-0.000166
 638	6.3382e+01	14.6130	54.184417	0.000274	2.737673	0.927549	-0.000110
 639	6.3481e+01	14.5873	54.031006	0.000385	3.853021	1.305439	-0.000154
 640	6.3581e+01	14.5392	53.881632	0.000375	3.751626	1.271085	-0.000150
 641	6.3680e+01	14.4958	53.788778	0.000233	2.332092	0.790134	-0.000093
 642	6.3779e+01	14.4573	53.695924	0.000233	2.332092	0.790134	-0.000093
 643	6.3879e+01	14.4108	53.538476	0.000395	3.954416	1.339793	-0.000158
 644	6.3978e+01	14.3755	53.441584	0.000243	2.433487	0.824488	-0.000097
 645	6.4078e+01	14.3418	53.340656	0.000253	2.534882	0.858841	-0.000101
 646	6.4177e+01	14.3082	53.122651	0.000548	5.475346	1.855097	-0.000219
 647	6.4277e+01	14.2584	52.957128	0.000416	4.157207	1.408500	-0.000166
 648	6.4376e+01	14.2183	52.811791	0.000365	3.650230	1.236732	-0.000146
 649	6.4476e+01	14.1878	52.718937	0.000233	2.332092	0.790134	-0.000093
 650	6.4576e+01	14.1349	52.533229	0.000466	4.664183	1.580268	-0.000187
 651	6.4675e+01	14.0964	52.420189	0.000284	2.839068	0.961902	-0.000114
 652	6.4775e+01	14.0675	52.278889	0.000355	3.548835	1.202378	-0.000142
 653	6.4874e+01	14.0178	52.165849	0.000284	2.839068	0.961902	-0.000114
 654	6.4974e+01	13.9809	52.008401	0.000395	3.954416	1.339793	-0.000158
 655	6.5073e+01	13.9376	51.875176	0.000335	3.346045	1.133671	-0.000134
 656	6.5172e+01	13.9023	51.770210	0.000264	2.636278	0.893195	-0.000105
 657	6.5272e+01	13.8574	51.624873	0.000365	3.650230	1.236732	-0.000146
 658	6.5371e+01	13.8189	51.507796	0.000294	2.940463	0.996256	-0.000118
 659	6.5471e+01	13.7804	51.378608	0.000324	3.244649	1.099317	-0.000130
 660	6.5570e+01	13.7403	51.281717	0.000243	2.433487	0.824488	-0.000097
 661	6.5670e+01	13.7066	51.128306	0.000385	3.853021	1.305439	-0.000154
 662	6.5769e+01	13.6600	51.015266	0.000284	2.839068	0.961902	-0.000114
 663	6.5869e+01	13.6264	50.865892	0.000375	3.751626	1.271085	-0.000150
 664	6.5969e+01	13.5846	50.764963	0.000253	2.534882	0.858841	-0.000101
 665	6.6068e+01	13.5526	50.603478	0.000406	4.055812	1.374146	-0.000162
 666	6.6168e+01	13.5060	50.437955	0.000416	4.157207	1.408500	-0.000166
 667	6.6267e+01	13.4691	50.264359	0.000436	4.359997	1.477207	-0.000174
 668	6.6367e+01	13.4226	50.167467	0.000243	2.433487	0.824488	-0.000097
 669	6.6466e+01	13.3905	49.985796	0.000456	4.562788	1.545914	-0.000183
 670	6.6566e+01	13.3408	49.840459	0.000365	3.650230	1.236732	-0.000146
 671	6.6665e+01	13.3023	49.739531	0.000253	2.534882	0.858841	-0.000101
 672	6.6764e+01	13.2590	49.598231	0.000355	3.548835	1.202378	-0.000142
 673	6.6864e+01	13.2285	49.521526	0.000193	1.926511	0.652719	-0.000077
 674	6.6963e+01	13.1772	49.347929	0.000436	4.359997	1.477207	-0.000174
 675	6.7063e+01	13.1403	49.198555	0.000375	3.751626	1.271085	-0.000150
 676	6.7162e+01	13.1018	49.073403	0.000314	3.143254	1.064963	-0.000126
 677	6.7262e+01	13.0601	49.000735	0.000183	1.825115	0.618366	-0.000073
 678	6.7362e+01	13.0151	48.883658	0.000294	2.940463	0.996256	-0.000118
 679	6.7461e+01	12.9879	48.746395	0.000345	3.447440	1.168024	-0.000138
 680	6.7561e+01	12.9430	48.633356	0.000284	2.839068	0.961902	-0.000114
 681	6.7660e+01	12.9044	48.483982	0.000375	3.751626	1.271085	-0.000150
 682	6.7760e+01	12.8724	48.374979	0.000274	2.737673	0.927549	-0.000110
 683	6.7859e+01	12.8258	48.225605	0.000375	3.751626	1.271085	-0.000150
 684	6.7959e+01	12.7889	48.072194	0.000385	3.853021	1.305439	-0.000154
 685	6.8058e+01	12.7537	47.930894	0.000355	3.548835	1.202378	-0.000142
 686	6.8157e+01	12.7071	47.757297	0.000436	4.359997	1.477207	-0.000174
 687	6.8257e+01	12.6654	47.599849	0.000395	3.954416	1.339793	-0.000158
 688	6.8356e+01	12.6349	47.458549	0.000355	3.548835	1.202378	-0.000142
 689	6.8456e+01	12.5868	47.321287	0.000345	3.447440	1.168024	-0.000138
 690	6.8555e+01	12.5467	47.200172	0.000304	3.041859	1.030610	-0.000122
 691	6.8655e+01	12.5162	47.046761	0.000385	3.853021	1.305439	-0.000154
 692	6.8754e+01	12.4585	46.921610	0.000314	3.143254	1.064963	-0.000126
 693	6.8854e+01	12.4264	46.772236	0.000375	3.751626	1.271085	-0.000150
 694	6.8954e+01	12.3943	46.622862	0.000375	3.751626	1.271085	-0.000150
 695	6.9053e+01	12.3494	46.521934	0.000253	2.534882	0.858841	-0.000101
 696	6.9153e+01	12.3029	46.421005	0.000253	2.534882	0.858841	-0.000101
 697	6.9252e+01	12.2724	46.291817	0.000324	3.244649	1.099317	-0.000130
 698	6.9352e+01	12.2291	46.110146	0.000456	4.562788	1.545914	-0.000183
 699	6.9451e+01	12.1825	46.013255	0.000243	2.433487	0.824488	-0.000097
 700	6.9550e+01	12.1456	45.859843	0.000385	3.853021	1.305439	-0.000154
 701	6.9650e+01	12.1152	45.702395	0.000395	3.954416	1.339793	-0.000158
 702	6.9749e+01	12.0670	45.605504	0.000243	2.433487	0.824488	-0.000097
 703	6.9849e+01	12.0285	45.379424	0.000568	5.678136	1.923805	-0.000227
 704	6.9948e+01	11.9900	45.306756	0.000183	1.825115	0.618366	-0.000073
 705	7.0048e+01	11.9531	45.072602	0.000588	5.880927	1.992512	-0.000235
 706	7.0147e+01	11.9162	44.959562	0.000284	2.839068	0.961902	-0.000114
 707	7.0247e+01	11.8729	44.794040	0.000416	4.157207	1.408500	-0.000166
 708	7.0347e+01	11.8264	44.660814	0.000335	3.346045	1.133671	-0.000134
 709	7.0446e+01	11.7927	44.507403	0.000385	3.853021	1.305439	-0.000154
 710	7.0546e+01	11.7558	44.366103	0.000355	3.548835	1.202378	-0.000142
 711	7.0645e+01	11.7109	44.216729	0.000375	3.751626	1.271085	-0.000150
 712	7.0745e+01	11.6724	44.095615	0.000304	3.041859	1.030610	-0.000122
 713	7.0844e+01	11.6291	43.946241	0.000375	3.751626	1.271085	-0.000150
 714	7.0944e+01	11.5906	43.853387	0.000233	2.332092	0.790134	-0.000093
 715	7.1043e+01	11.5505	43.708050	0.000365	3.650230	1.236732	-0.000146
 716	7.1142e+01	11.5120	43.619233	0.000223	2.230696	0.755780	-0.000089
 717	7.1242e+01	11.4735	43.433525	0.000466	4.664183	1.580268	-0.000187
 718	7.1341e+01	11.4270	43.304336	0.000324	3.244649	1.099317	-0.000130
 719	7.1441e+01	11.3933	43.183222	0.000304	3.041859	1.030610	-0.000122
 720	7.1540e+01	11.3532	42.981366	0.000507	5.069764	1.717683	-0.000203
 721	7.1640e+01	11.3195	42.860252	0.000304	3.041859	1.030610	-0.000122
 722	7.1740e+01	11.2713	42.666469	0.000487	4.866974	1.648975	-0.000195
 723	7.1839e+01	11.2425	42.500946	0.000416	4.157207	1.408500	-0.000166
 724	7.1939e+01	11.1927	42.355610	0.000365	3.650230	1.236732	-0.000146
 725	7.2038e+01	11.1510	42.202198	0.000385	3.853021	1.305439	-0.000154
 726	7.2138e+01	11.1254	42.044750	0.000395	3.954416	1.339793	-0.000158
 727	7.2237e+01	11.0740	41.951896	0.000233	2.332092	0.790134	-0.000093
 728	7.2337e+01	11.0419	41.762151	0.000477	4.765579	1.614622	-0.000191
 729	7.2436e+01	10.9922	41.616814	0.000365	3.650230	1.236732	-0.000146
 730	7.2535e+01	10.9569	41.463403	0.000385	3.853021	1.305439	-0.000154
 731	7.2635e+01	10.9152	41.350363	0.000284	2.839068	0.961902	-0.000114
 732	7.2734e+01	10.8735	41.209063	0.000355	3.548835	1.202378	-0.000142
 733	7.2834e+01	10.8302	41.059689	0.000375	3.751626	1.271085	-0.000150
 734	7.2933e+01	10.7965	40.938575	0.000304	3.041859	1.030610	-0.000122
 735	7.3033e+01	10.7468	40.845721	0.000233	2.332092	0.790134	-0.000093
 736	7.3132e+01	10.7195	40.708458	0.000345	3.447440	1.168024	-0.000138
 737	7.3232e+01	10.6794	40.546973	0.000406	4.055812	1.374146	-0.000162
 738	7.3332e+01	10.6393	40.425859	0.000304	3.041859	1.030610	-0.000122
 739	7.3431e+01	10.5879	40.224002	0.000507	5.069764	1.717683	-0.000203
 740	7.3531e+01	10.5542	40.086739	0.000345	3.447440	1.168024	-0.000138
 741	7.3630e+01	10.5077	39.901031	0.000466	4.664183	1.580268	-0.000187
 742	7.3730e+01	10.4772	39.763768	0.000345	3.447440	1.168024	-0.000138
 743	7.3829e+01	10.4420	39.578060	0.000466	4.664183	1.580268	-0.000187
 744	7.3928e+01	10.4002	39.452909	0.000314	3.143254	1.064963	-0.000126
 745	7.4028e+01	10.3521	39.299498	0.000385	3.853021	1.305439	-0.000154
 746	7.4127e+01	10.3232	39.133975	0.000416	4.157207	1.408500	-0.000166
 747	7.4227e+01	10.2767	38.980564	0.000385	3.853021	1.305439	-0.000154
 748	7.4326e+01	10.2350	38.839264	0.000355	3.548835	1.202378	-0.000142
 749	7.4426e+01	10.1949	38.673742	0.000416	4.157207	1.408500	-0.000166
 750	7.4525e+01	10.1580	38.544553	0.000324	3.244649	1.099317	-0.000130
 751	7.4625e+01	10.1243	38.467848	0.000193	1.926511	0.652719	-0.000077
 752	7.4725e+01	10.0810	38.298288	0.000426	4.258602	1.442853	-0.000170
 753	7.4824e+01	10.0457	38.144877	0.000385	3.853021	1.305439	-0.000154
 754	7.4924e+01	9.9976	38.023763	0.000304	3.041859	1.030610	-0.000122
 755	7.5023e+01	9.9543	37.838055	0.000466	4.664183	1.580268	-0.000187
 756	7.5123e+01	9.9142	37.696755	0.000355	3.548835	1.202378	-0.000142
 757	7.5222e+01	9.8757	37.527195	0.000426	4.258602	1.442853	-0.000170
 758	7.5322e+01	9.8372	37.369747	0.000395	3.954416	1.339793	-0.000158
 759	7.5421e+01	9.8003	37.212299	0.000395	3.954416	1.339793	-0.000158
 760	7.5520e+01	9.7634	37.010442	0.000507	5.069764	1.717683	-0.000203
 761	7.5620e+01	9.7184	36.844919	0.000416	4.157207	1.408500	-0.000166
 762	7.5719e+01	9.6719	36.687471	0.000395	3.954416	1.339793	-0.000158
 763	7.5819e+01	9.6527	36.566357	0.000304	3.041859	1.030610	-0.000122
 764	7.5918e+01	9.5949	36.384686	0.000456	4.562788	1.545914	-0.000183
 765	7.6018e+01	9.5596	36.291832	0.000233	2.332092	0.790134	-0.000093
 766	7.6118e+01	9.5195	36.150532	0.000355	3.548835	1.202378	-0.000142
 767	7.6217e+01	9.4794	35.940601	0.000527	5.272555	1.786390	-0.000211
 768	7.6317e+01	9.4409	35.839673	0.000253	2.534882	0.858841	-0.000101
 769	7.6416e+01	9.3944	35.710484	0.000324	3.244649	1.099317	-0.000130
 770	7.6516e+01	9.3591	35.561110	0.000375	3.751626	1.271085	-0.000150
 771	7.6615e+01	9.3174	35.403662	0.000395	3.954416	1.339793	-0.000158
 772	7.6715e+01	9.2821	35.286585	0.000294	2.940463	0.996256	-0.000118
 773	7.6814e+01	9.2324	35.129137	0.000395	3.954416	1.339793	-0.000158
 774	7.6913e+01	9.2019	34.995911	0.000335	3.346045	1.133671	-0.000134
 775	7.7013e+01	9.1618	34.818277	0.000446	4.461393	1.511561	-0.000179
 776	7.7112e+01	9.1185	34.676977	0.000355	3.548835	1.202378	-0.000142
 777	7.7212e+01	9.0800	34.471083	0.000517	5.171160	1.752036	-0.000207
 778	7.7311e+01	9.0382	34.321709	0.000375	3.751626	1.271085	-0.000150
 779	7.7411e+01	9.0014	34.168298	0.000385	3.853021	1.305439	-0.000154
 780	7.7510e+01	8.9645	34.031036	0.000345	3.447440	1.168024	-0.000138
 781	7.7610e+01	8.9211	33.873587	0.000395	3.954416	1.339793	-0.000158
 782	7.7710e+01	8.8874	33.732288	0.000355	3.548835	1.202378	-0.000142
 783	7.7809e+01	8.8393	33.526394	0.000517	5.171160	1.752036	-0.000207
 784	7.7909e+01	8.8008	33.425465	0.000253	2.534882	0.858841	-0.000101
 785	7.8008e+01	8.7671	33.296277	0.000324	3.244649	1.099317	-0.000130
 786	7.8108e+01	8.7302	33.098457	0.000497	4.968369	1.683329	-0.000199
 787	7.8207e+01	8.6869	33.021752	0.000193	1.926511	0.652719	-0.000077
 788	7.8306e+01	8.6500	32.884489	0.000345	3.447440	1.168024	-0.000138
 789	7.8406e+01	8.5971	32.743189	0.000355	3.548835	1.202378	-0.000142
 790	7.8505e+01	8.5618	32.642261	0.000253	2.534882	0.858841	-0.000101
 791	7.8605e+01	8.5313	32.408107	0.000588	5.880927	1.992512	-0.000235
 792	7.8704e+01	8.4848	32.303142	0.000264	2.636278	0.893195	-0.000105
 793	7.8804e+01	8.4335	32.113396	0.000477	4.765579	1.614622	-0.000191
 794	7.8903e+01	8.4030	32.024579	0.000223	2.230696	0.755780	-0.000089
 795	7.9003e+01	8.3661	31.883279	0.000355	3.548835	1.202378	-0.000142
 796	7.9103e+01	8.3340	31.669311	0.000537	5.373950	1.820744	-0.000215
 797	7.9202e+01	8.2875	31.479566	0.000477	4.765579	1.614622	-0.000191
 798	7.9302e+01	8.2458	31.314043	0.000416	4.157207	1.408500	-0.000166
 799	7.9401e+01	8.2073	31.172744	0.000355	3.548835	1.202378	-0.000142
 800	7.9501e+01	8.1671	31.015295	0.000395	3.954416	1.339793	-0.000158
 801	7.9600e+01	8.1286	30.890144	0.000314	3.143254	1.064963	-0.000126
 802	7.9700e+01	8.0837	30.736733	0.000385	3.853021	1.305439	-0.000154
 803	7.9799e+01	8.0500	30.587359	0.000375	3.751626	1.271085	-0.000150
 804	7.9898e+01	8.0099	30.421836	0.000416	4.157207	1.408500	-0.000166
 805	7.9998e+01	7.9698	30.300722	0.000304	3.041859	1.030610	-0.000122
 806	8.0097e+01	7.9313	30.207868	0.000233	2.332092	0.790134	-0.000093
 807	8.0197e+01	7.8912	30.062531	0.000365	3.650230	1.236732	-0.000146
 808	8.0296e+01	7.8543	29.917194	0.000365	3.650230	1.236732	-0.000146
 809	8.0396e+01	7.7950	29.739560	0.000446	4.461393	1.511561	-0.000179
 810	8.0496e+01	7.7677	29.626521	0.000284	2.839068	0.961902	-0.000114
 811	8.0595e+01	7.7260	29.481184	0.000365	3.650230	1.236732	-0.000146
 812	8.0695e+01	7.6859	29.311624	0.000426	4.258602	1.442853	-0.000170
 813	8.0794e+01	7.6506	29.150139	0.000406	4.055812	1.374146	-0.000162
 814	8.0894e+01	7.6105	29.020950	0.000324	3.244649	1.099317	-0.000130
 815	8.0993e+01	7.5720	28.839279	0.000456	4.562788	1.545914	-0.000183
 816	8.1093e+01	7.5303	28.661645	0.000446	4.461393	1.511561	-0.000179
 817	8.1192e+01	7.4918	28.492085	0.000426	4.258602	1.442853	-0.000170
 818	8.1291e+01	7.4501	28.334637	0.000395	3.954416	1.339793	-0.000158
 819	8.1391e+01	7.4100	28.213523	0.000304	3.041859	1.030610	-0.000122
 820	8.1490e+01	7.3698	28.043963	0.000426	4.258602	1.442853	-0.000170
 821	8.1590e+01	7.3346	27.898627	0.000365	3.650230	1.236732	-0.000146
 822	8.1689e+01	7.2848	27.745215	0.000385	3.853021	1.305439	-0.000154
 823	8.1789e+01	7.2479	27.603916	0.000355	3.548835	1.202378	-0.000142
 824	8.1888e+01	7.2094	27.470690	0.000335	3.346045	1.133671	-0.000134
 825	8.1988e+01	7.1581	27.321316	0.000375	3.751626	1.271085	-0.000150
 826	8.2088e+01	7.1212	27.248648	0.000183	1.825115	0.618366	-0.000073
 827	8.2187e+01	7.0843	27.058902	0.000477	4.765579	1.614622	-0.000191
 828	8.2287e+01	7.0426	26.929714	0.000324	3.244649	1.099317	-0.000130
 829	8.2386e+01	7.0073	26.768229	0.000406	4.055812	1.374146	-0.000162
 830	8.2486e+01	6.9736	26.622892	0.000365	3.650230	1.236732	-0.000146
 831	8.2585e+01	6.9287	26.457369	0.000416	4.157207	1.408500	-0.000166
 832	8.2684e+01	6.8982	26.287809	0.000426	4.258602	1.442853	-0.000170
 833	8.2784e+01	6.8581	26.126324	0.000406	4.055812	1.374146	-0.000162
 834	8.2883e+01	6.8132	25.976950	0.000375	3.751626	1.271085	-0.000150
 835	8.2983e+01	6.7634	25.807390	0.000426	4.258602	1.442853	-0.000170
 836	8.3082e+01	6.7169	25.678202	0.000324	3.244649	1.099317	-0.000130
 837	8.3182e+01	6.6977	25.468271	0.000527	5.272555	1.786390	-0.000211
 838	8.3281e+01	6.6511	25.359268	0.000274	2.737673	0.927549	-0.000110
 839	8.3381e+01	6.6175	25.185671	0.000436	4.359997	1.477207	-0.000174
 840	8.3481e+01	6.5725	25.056483	0.000324	3.244649	1.099317	-0.000130
 841	8.3580e+01	6.5276	24.931332	0.000314	3.143254	1.064963	-0.000126
 842	8.3680e+01	6.4875	24.830403	0.000253	2.534882	0.858841	-0.000101
 843	8.3779e+01	6.4586	24.668918	0.000406	4.055812	1.374146	-0.000162
 844	8.3879e+01	6.4121	24.559915	0.000274	2.737673	0.927549	-0.000110
 845	8.3978e+01	6.3672	24.394393	0.000416	4.157207	1.408500	-0.000166
 846	8.4078e+01	6.3351	24.236944	0.000395	3.954416	1.339793	-0.000158
 847	8.4177e+01	6.2918	24.083533	0.000385	3.853021	1.305439	-0.000154
 848	8.4276e+01	6.2565	23.942233	0.000355	3.548835	1.202378	-0.000142
 849	8.4376e+01	6.2148	23.772674	0.000426	4.258602	1.442853	-0.000170
 850	8.4475e+01	6.1699	23.615225	0.000395	3.954416	1.339793	-0.000158
 851	8.4575e+01	6.1410	23.502186	0.000284	2.839068	0.961902	-0.000114
 852	8.4674e+01	6.0881	23.320515	0.000456	4.562788	1.545914	-0.000183
 853	8.4774e+01	6.0464	23.154992	0.000416	4.157207	1.408500	-0.000166
 854	8.4874e+01	6.0207	22.957172	0.000497	4.968369	1.683329	-0.000199
 855	8.4973e+01	5.9854	22.836058	0.000304	3.041859	1.030610	-0.000122
 856	8.5073e+01	5.9469	22.658424	0.000446	4.461393	1.511561	-0.000179
 857	8.5172e+01	5.8956	22.509050	0.000375	3.751626	1.271085	-0.000150
 858	8.5272e+01	5.8587	22.359676	0.000375	3.751626	1.271085	-0.000150
 859	8.5371e+01	5.8250	22.190117	0.000426	4.258602	1.442853	-0.000170
 860	8.5471e+01	5.7752	22.060928	0.000324	3.244649	1.099317	-0.000130
 861	8.5570e+01	5.7432	21.903480	0.000395	3.954416	1.339793	-0.000158
 862	8.5669e+01	5.6950	21.794477	0.000274	2.737673	0.927549	-0.000110
 863	8.5769e+01	5.6549	21.653178	0.000355	3.548835	1.202378	-0.000142
 864	8.5868e+01	5.6132	21.491692	0.000406	4.055812	1.374146	-0.000162
 865	8.5968e+01	5.5779	21.354429	0.000345	3.447440	1.168024	-0.000138
 866	8.6067e+01	5.5410	21.188907	0.000416	4.157207	1.408500	-0.000166
 867	8.6167e+01	5.4961	21.055681	0.000335	3.346045	1.133671	-0.000134
 868	8.6266e+01	5.4448	20.869973	0.000466	4.664183	1.580268	-0.000187
 869	8.6366e+01	5.4159	20.724636	0.000365	3.650230	1.236732	-0.000146
 870	8.6466e+01	5.3822	20.567188	0.000395	3.954416	1.339793	-0.000158
 871	8.6565e+01	5.3437	20.353220	0.000537	5.373950	1.820744	-0.000215
 872	8.6665e+01	5.3036	20.187697	0.000416	4.157207	1.408500	-0.000166
 873	8.6764e+01	5.2619	20.030249	0.000395	3.954416	1.339793	-0.000158
 874	8.6864e+01	5.2154	19.848578	0.000456	4.562788	1.545914	-0.000183
 875	8.6963e+01	5.1753	19.654795	0.000487	4.866974	1.648975	-0.000195
 876	8.7063e+01	5.1303	19.570015	0.000213	2.129301	0.721427	-0.000085
 877	8.7162e+01	5.0999	19.396419	0.000436	4.359997	1.477207	-0.000174
 878	8.7261e+01	5.0614	19.255119	0.000355	3.548835	1.202378	-0.000142
 879	8.7361e+01	5.0196	19.081522	0.000436	4.359997	1.477207	-0.000174
 880	8.7460e+01	4.9860	18.976557	0.000264	2.636278	0.893195	-0.000105
 881	8.7560e+01	4.9362	18.806997	0.000426	4.258602	1.442853	-0.000170
 882	8.7659e+01	4.9025	18.661660	0.000365	3.650230	1.236732	-0.000146
 883	8.7759e+01	4.8576	18.496137	0.000416	4.157207	1.408500	-0.000166
 884	8.7859e+01	4.8255	18.375023	0.000304	3.041859	1.030610	-0.000122
 885	8.7958e+01	4.7774	18.193352	0.000456	4.562788	1.545914	-0.000183
 886	8.8058e+01	4.7405	18.039941	0.000385	3.853021	1.305439	-0.000154
 887	8.8157e+01	4.7052	17.914790	0.000314	3.143254	1.064963	-0.000126
 888	8.8257e+01	4.6619	17.692747	0.000558	5.576741	1.889451	-0.000223
 889	8.8356e+01	4.6170	17.563559	0.000324	3.244649	1.099317	-0.000130
 890	8.8456e+01	4.5817	17.377851	0.000466	4.664183	1.580268	-0.000187
 891	8.8555e+01	4.5384	17.180031	0.000497	4.968369	1.683329	-0.000199
 892	8.8654e+01	4.5015	17.042769	0.000345	3.447440	1.168024	-0.000138
 893	8.8754e+01	4.4726	16.853023	0.000477	4.765579	1.614622	-0.000191
 894	8.8853e+01	4.4261	16.687501	0.000416	4.157207	1.408500	-0.000166
 895	8.8953e+01	4.3876	16.562349	0.000314	3.143254	1.064963	-0.000126
 896	8.9052e+01	4.3443	16.404901	0.000395	3.954416	1.339793	-0.000158
 897	8.9152e+01	4.3058	16.263601	0.000355	3.548835	1.202378	-0.000142
 898	8.9251e+01	4.2592	16.122302	0.000355	3.548835	1.202378	-0.000142
 899	8.9351e+01	4.2175	15.956779	0.000416	4.157207	1.408500	-0.000166
 900	8.9451e+01	4.1838	15.762996	0.000487	4.866974	1.648975	-0.000195
 901	8.9550e+01	4.1469	15.662068	0.000253	2.534882	0.858841	-0.000101
 902	8.9650e+01	4.1036	15.460211	0.000507	5.069764	1.717683	-0.000203
 903	8.9749e+01	4.0635	15.310837	0.000375	3.751626	1.271085	-0.000150
 904	8.9849e+01	4.0186	15.165500	0.000365	3.650230	1.236732	-0.000146
 905	8.9948e+01	3.9721	15.004015	0.000406	4.055812	1.374146	-0.000162
 906	9.0047e+01	3.9384	14.830418	0.000436	4.359997	1.477207	-0.000174
 907	9.0147e+01	3.9063	14.648747	0.000456	4.562788	1.545914	-0.000183
 908	9.0246e+01	3.8678	14.499373	0.000375	3.751626	1.271085	-0.000150
 909	9.0346e+01	3.8309	14.325776	0.000436	4.359997	1.477207	-0.000174
 910	9.0445e+01	3.7860	14.140068	0.000466	4.664183	1.580268	-0.000187
 911	9.0545e+01	3.7411	13.913988	0.000568	5.678136	1.923805	-0.000227
 912	9.0644e+01	3.7010	13.821134	0.000233	2.332092	0.790134	-0.000093
 913	9.0744e+01	3.6657	13.643500	0.000446	4.461393	1.511561	-0.000179
 914	9.0844e+01	3.6320	13.490089	0.000385	3.853021	1.305439	-0.000154
 915	9.0943e+01	3.5871	13.348789	0.000355	3.548835	1.202378	-0.000142
 916	9.1043e+01	3.5518	13.199415	0.000375	3.751626	1.271085	-0.000150
 917	9.1142e+01	3.5069	13.066190	0.000335	3.346045	1.133671	-0.000134
 918	9.1242e+01	3.4667	12.880482	0.000466	4.664183	1.580268	-0.000187
 919	9.1341e+01	3.4154	12.751293	0.000324	3.244649	1.099317	-0.000130
 920	9.1441e+01	3.3881	12.605956	0.000365	3.650230	1.236732	-0.000146
 921	9.1540e+01	3.3336	12.387951	0.000548	5.475346	1.855097	-0.000219
 922	9.1639e+01	3.3031	12.242614	0.000365	3.650230	1.236732	-0.000146
 923	9.1739e+01	3.2678	12.073054	0.000426	4.258602	1.442853	-0.000170
 924	9.1838e+01	3.2245	11.951940	0.000304	3.041859	1.030610	-0.000122
 925	9.1938e+01	3.1892	11.717786	0.000588	5.880927	1.992512	-0.000235
 926	9.2037e+01	3.1475	11.572450	0.000365	3.650230	1.236732	-0.000146
 927	9.2137e+01	3.1090	11.374630	0.000497	4.968369	1.683329	-0.000199
 928	9.2237e+01	3.0753	11.172773	0.000507	5.069764	1.717683	-0.000203
 929	9.2336e+01	3.0240	11.003213	0.000426	4.258602	1.442853	-0.000170
 930	9.2436e+01	2.9871	10.793282	0.000527	5.272555	1.786390	-0.000211
 931	9.2535e+01	2.9486	10.704465	0.000223	2.230696	0.755780	-0.000089
 932	9.2635e+01	2.9085	10.530869	0.000436	4.359997	1.477207	-0.000174
 933	9.2734e+01	2.8684	10.353235	0.000446	4.461393	1.511561	-0.000179
 934	9.2834e+01	2.8218	10.232121	0.000304	3.041859	1.030610	-0.000122
 935	9.2933e+01	2.7930	10.082747	0.000375	3.751626	1.271085	-0.000150
 936	9.3032e+01	2.7545	9.945484	0.000345	3.447440	1.168024	-0.000138
 937	9.3132e+01	2.7112	9.775924	0.000426	4.258602	1.442853	-0.000170
 938	9.3231e+01	2.6646	9.610402	0.000416	4.157207	1.408500	-0.000166
 939	9.3331e+01	2.6229	9.477176	0.000335	3.346045	1.133671	-0.000134
 940	9.3430e+01	2.5892	9.259171	0.000548	5.475346	1.855097	-0.000219
 941	9.3530e+01	2.5523	9.142094	0.000294	2.940463	0.996256	-0.000118
 942	9.3629e+01	2.5074	8.952348	0.000477	4.765579	1.614622	-0.000191
 943	9.3729e+01	2.4737	8.798937	0.000385	3.853021	1.305439	-0.000154
 944	9.3829e+01	2.4336	8.609192	0.000477	4.765579	1.614622	-0.000191
 945	9.3928e+01	2.3871	8.496152	0.000284	2.839068	0.961902	-0.000114
 946	9.4028e+01	2.3454	8.270073	0.000568	5.678136	1.923805	-0.000227
 947	9.4127e+01	2.3117	8.076290	0.000487	4.866974	1.648975	-0.000195
 948	9.4227e+01	2.2716	7.934990	0.000355	3.548835	1.202378	-0.000142
 949	9.4326e+01	2.2427	7.785616	0.000375	3.751626	1.271085	-0.000150
 950	9.4425e+01	2.1866	7.640279	0.000365	3.650230	1.236732	-0.000146
 951	9.4525e+01	2.1481	7.470720	0.000426	4.258602	1.442853	-0.000170
 952	9.4624e+01	2.1128	7.333457	0.000345	3.447440	1.168024	-0.000138
 953	9.4724e+01	2.0791	7.220417	0.000284	2.839068	0.961902	-0.000114
 954	9.4823e+01	2.0310	7.026635	0.000487	4.866974	1.648975	-0.000195
 955	9.4923e+01	1.9892	6.865149	0.000406	4.055812	1.374146	-0.000162
 956	9.5022e+01	1.9475	6.711738	0.000385	3.853021	1.305439	-0.000154
 957	9.5122e+01	1.9090	6.590624	0.000304	3.041859	1.030610	-0.000122
 958	9.5222e+01	1.8641	6.376656	0.000537	5.373950	1.820744	-0.000215
 959	9.5321e+01	1.8224	6.227282	0.000375	3.751626	1.271085	-0.000150
 960	9.5421e+01	1.7839	6.069834	0.000395	3.954416	1.339793	-0.000158
 961	9.5520e+01	1.7422	5.936608	0.000335	3.346045	1.133671	-0.000134
 962	9.5620e+01	1.7085	5.730714	0.000517	5.171160	1.752036	-0.000207
 963	9.5719e+01	1.6716	5.561154	0.000426	4.258602	1.442853	-0.000170
 964	9.5819e+01	1.6299	5.436003	0.000314	3.143254	1.064963	-0.000126
 965	9.5918e+01	1.5978	5.274518	0.000406	4.055812	1.374146	-0.000162
 966	9.6017e+01	1.5497	5.072661	0.000507	5.069764	1.717683	-0.000203
 967	9.6117e+01	1.5080	4.862730	0.000527	5.272555	1.786390	-0.000211
 968	9.6216e+01	1.4759	4.705282	0.000395	3.954416	1.339793	-0.000158
 969	9.6316e+01	1.4358	4.572056	0.000335	3.346045	1.133671	-0.000134
 970	9.6415e+01	1.3909	4.487276	0.000213	2.129301	0.721427	-0.000085
 971	9.6515e+01	1.3572	4.297531	0.000477	4.765579	1.614622	-0.000191
 972	9.6615e+01	1.3155	4.168343	0.000324	3.244649	1.099317	-0.000130
 973	9.6714e+01	1.2722	3.994746	0.000436	4.359997	1.477207	-0.000174
 974	9.6814e+01	1.2369	3.788852	0.000517	5.171160	1.752036	-0.000207
 975	9.6913e+01	1.1871	3.708109	0.000203	2.027906	0.687073	-0.000081
 976	9.7013e+01	1.1518	3.538549	0.000426	4.258602	1.442853	-0.000170
 977	9.7112e+01	1.1117	3.344767	0.000487	4.866974	1.648975	-0.000195
 978	9.7212e+01	1.0636	3.175207	0.000426	4.258602	1.442853	-0.000170
 979	9.7311e+01	1.0251	3.029870	0.000365	3.650230	1.236732	-0.000146
 980	9.7410e+01	1.0010	2.864348	0.000416	4.157207	1.408500	-0.000166
 981	9.7510e+01	0.9513	2.735159	0.000324	3.244649	1.099317	-0.000130
 982	9.7609e+01	0.9080	2.577711	0.000395	3.954416	1.339793	-0.000158
 983	9.7709e+01	0.8695	2.367780	0.000527	5.272555	1.786390	-0.000211
 984	9.7808e+01	0.8358	2.230517	0.000345	3.447440	1.168024	-0.000138
 985	9.7908e+01	0.7973	2.016549	0.000537	5.373950	1.820744	-0.000215
 986	9.8007e+01	0.7604	1.830841	0.000466	4.664183	1.580268	-0.000187
 987	9.8107e+01	0.7123	1.685504	0.000365	3.650230	1.236732	-0.000146
 988	9.8207e+01	0.6754	1.588613	0.000243	2.433487	0.824488	-0.000097
 989	9.8306e+01	0.6337	1.443276	0.000365	3.650230	1.236732	-0.000146
 990	9.8406e+01	0.5936	1.293902	0.000375	3.751626	1.271085	-0.000150
 991	9.8505e+01	0.5599	1.120305	0.000436	4.359997	1.477207	-0.000174
 992	9.8605e+01	0.5198	0.930560	0.000477	4.765579	1.614622	-0.000191
 993	9.8704e+01	0.4732	0.809446	0.000304	3.041859	1.030610	-0.000122
 994	9.8803e+01	0.4347	0.631812	0.000446	4.461393	1.511561	-0.000179
 995	9.8903e+01	0.3850	0.470326	0.000406	4.055812	1.374146	-0.000162
 996	9.9002e+01	0.3593	0.361324	0.000274	2.737673	0.927549	-0.000110
 997	9.9102e+01	0.3176	0.159467	0.000507	5.069764	1.717683	-0.000203
 998	9.9201e+01	0.2759	0.002019	0.000395	3.954416	1.339793	-0.000158
 999	9.9301e+01	0.2390	-0.147355	0.000375	3.751626	1.271085	-0.000150
1000	9.9400e+01	0.1925	-0.324989	0.000446	4.461393	1.511561	-0.000179
1001	9.9500e+01	0.1540	-0.474363	0.000375	3.751626	1.271085	-0.000150
1002	9.9600e+01	0.1219	-0.651997	0.000446	4.461393	1.511561	-0.000179
1003	9.9699e+01	0.0802	-0.789260	0.000345	3.447440	1.168024	-0.000138
1004	9.9799e+01	0.0321	-0.983043	0.000487	4.866974	1.648975	-0.000195
1005	9.9898e+01	0.0016	-1.120305	0.000345	3.447440	1.168024	-0.000138
1006	9.9998e+01	-0.0353	-1.273716	0.000385	3.853021	1.305439	-0.000154
1007	1.0010e+02	-0.0770	-1.386756	0.000284	2.839068	0.961902	-0.000114
1008	1.0020e+02	-0.1043	-1.524019	0.000345	3.447440	1.168024	-0.000138
1009	1.0030e+02	-0.1540	-1.677430	0.000385	3.853021	1.305439	-0.000154
1010	1.0040e+02	-0.1941	-1.810655	0.000335	3.346045	1.133671	-0.000134
1011	1.0050e+02	-0.2310	-2.000401	0.000477	4.765579	1.614622	-0.000191
1012	1.0059e+02	-0.2711	-2.145738	0.000365	3.650230	1.236732	-0.000146
1013	1.0069e+02	-0.3192	-2.319334	0.000436	4.359997	1.477207	-0.000174
1014	1.0079e+02	-0.3529	-2.440449	0.000304	3.041859	1.030610	-0.000122
1015	1.0089e+02	-0.3962	-2.597897	0.000395	3.954416	1.339793	-0.000158
1016	1.0099e+02	-0.4380	-2.779568	0.000456	4.562788	1.545914	-0.000183
1017	1.0109e+02	-0.4700	-2.892608	0.000284	2.839068	0.961902	-0.000114
1018	1.0119e+02	-0.5198	-3.098502	0.000517	5.171160	1.752036	-0.000207
1019	1.0129e+02	-0.5519	-3.268061	0.000426	4.258602	1.442853	-0.000170
1020	1.0139e+02	-0.5904	-3.377064	0.000274	2.737673	0.927549	-0.000110
1021	1.0149e+02	-0.6337	-3.607181	0.000578	5.779532	1.958158	-0.000231
1022	1.0159e+02	-0.6754	-3.752518	0.000365	3.650230	1.236732	-0.000146
1023	1.0169e+02	-0.7139	-3.885743	0.000335	3.346045	1.133671	-0.000134
1024	1.0179e+02	-0.7556	-4.043191	0.000395	3.954416	1.339793	-0.000158
1025	1.0189e+02	-0.7925	-4.249085	0.000517	5.171160	1.752036	-0.000207
1026	1.0199e+02	-0.8294	-4.345977	0.000243	2.433487	0.824488	-0.000097
1027	1.0209e+02	-0.8679	-4.523611	0.000446	4.461393	1.511561	-0.000179
1028	1.0219e+02	-0.9128	-4.664910	0.000355	3.548835	1.202378	-0.000142
1029	1.0229e+02	-0.9481	-4.802173	0.000345	3.447440	1.168024	-0.000138
1030	1.0239e+02	-0.9978	-4.991918	0.000477	4.765579	1.614622	-0.000191
1031	1.0248e+02	-1.0251	-5.153404	0.000406	4.055812	1.374146	-0.000162
1032	1.0258e+02	-1.0716	-5.306815	0.000385	3.853021	1.305439	-0.000154
1033	1.0268e+02	-1.1133	-5.480412	0.000436	4.359997	1.477207	-0.000174
1034	1.0278e+02	-1.1502	-5.617674	0.000345	3.447440	1.168024	-0.000138
1035	1.0288e+02	-1.1903	-5.775123	0.000395	3.954416	1.339793	-0.000158
1036	1.0298e+02	-1.2304	-5.981017	0.000517	5.171160	1.752036	-0.000207
1037	1.0308e+02	-1.2673	-6.138465	0.000395	3.954416	1.339793	-0.000158
1038	1.0318e+02	-1.3026	-6.255542	0.000294	2.940463	0.996256	-0.000118
1039	1.0328e+02	-1.3572	-6.465473	0.000527	5.272555	1.786390	-0.000211
1040	1.0338e+02	-1.3925	-6.582550	0.000294	2.940463	0.996256	-0.000118
1041	1.0348e+02	-1.4326	-6.792481	0.000527	5.272555	1.786390	-0.000211
1042	1.0358e+02	-1.4759	-6.941855	0.000375	3.751626	1.271085	-0.000150
1043	1.0368e+02	-1.5128	-7.127563	0.000466	4.664183	1.580268	-0.000187
1044	1.0378e+02	-1.5513	-7.289049	0.000406	4.055812	1.374146	-0.000162
1045	1.0388e+02	-1.5850	-7.450534	0.000406	4.055812	1.374146	-0.000162
1046	1.0398e+02	-1.6235	-7.555500	0.000264	2.636278	0.893195	-0.000105
1047	1.0408e+02	-1.6764	-7.708911	0.000385	3.853021	1.305439	-0.000154
1048	1.0418e+02	-1.7117	-7.858285	0.000375	3.751626	1.271085	-0.000150
1049	1.0428e+02	-1.7454	-8.080327	0.000558	5.576741	1.889451	-0.000223
1050	1.0438e+02	-1.7839	-8.209516	0.000324	3.244649	1.099317	-0.000130
1051	1.0447e+02	-1.8304	-8.366964	0.000395	3.954416	1.339793	-0.000158
1052	1.0457e+02	-1.8737	-8.556709	0.000477	4.765579	1.614622	-0.000191
1053	1.0467e+02	-1.9090	-8.702046	0.000365	3.650230	1.236732	-0.000146
1054	1.0477e+02	-1.9459	-8.855457	0.000385	3.853021	1.305439	-0.000154
1055	1.0487e+02	-1.9909	-8.992720	0.000345	3.447440	1.168024	-0.000138
1056	1.0497e+02	-2.0310	-9.186502	0.000487	4.866974	1.648975	-0.000195
1057	1.0507e+02	-2.0663	-9.347988	0.000406	4.055812	1.374146	-0.000162
1058	1.0517e+02	-2.1080	-9.481213	0.000335	3.346045	1.133671	-0.000134
1059	1.0527e+02	-2.1417	-9.662884	0.000456	4.562788	1.545914	-0.000183
1060	1.0537e+02	-2.1866	-9.868778	0.000517	5.171160	1.752036	-0.000207
1061	1.0547e+02	-2.2187	-9.993930	0.000314	3.143254	1.064963	-0.000126
1062	1.0557e+02	-2.2588	-10.159452	0.000416	4.157207	1.408500	-0.000166
1063	1.0567e+02	-2.3069	-10.264418	0.000264	2.636278	0.893195	-0.000105
1064	1.0577e+02	-2.3438	-10.462237	0.000497	4.968369	1.683329	-0.000199
1065	1.0587e+02	-2.3951	-10.611611	0.000375	3.751626	1.271085	-0.000150
1066	1.0597e+02	-2.4224	-10.769060	0.000395	3.954416	1.339793	-0.000158
1067	1.0607e+02	-2.4641	-10.926508	0.000395	3.954416	1.339793	-0.000158
1068	1.0617e+02	-2.4994	-11.136439	0.000527	5.272555	1.786390	-0.000211
1069	1.0627e+02	-2.5523	-11.261590	0.000314	3.143254	1.064963	-0.000126
1070	1.0637e+02	-2.5844	-11.443261	0.000456	4.562788	1.545914	-0.000183
1071	1.0647e+02	-2.6245	-11.588598	0.000365	3.650230	1.236732	-0.000146
1072	1.0656e+02	-2.6678	-11.733935	0.000365	3.650230	1.236732	-0.000146
1073	1.0666e+02	-2.7063	-11.927718	0.000487	4.866974	1.648975	-0.000195
1074	1.0676e+02	-2.7448	-12.069017	0.000355	3.548835	1.202378	-0.000142
1075	1.0686e+02	-2.7801	-12.230503	0.000406	4.055812	1.374146	-0.000162
1076	1.0696e+02	-2.8202	-12.375840	0.000365	3.650230	1.236732	-0.000146
1077	1.0706e+02	-2.8668	-12.569622	0.000487	4.866974	1.648975	-0.000195
1078	1.0716e+02	-2.9037	-12.763405	0.000487	4.866974	1.648975	-0.000195
1079	1.0726e+02	-2.9438	-12.904704	0.000355	3.548835	1.202378	-0.000142
1080	1.0736e+02	-2.9839	-12.997559	0.000233	2.332092	0.790134	-0.000093
1081	1.0746e+02	-3.0240	-13.195378	0.000497	4.968369	1.683329	-0.000199
1082	1.0756e+02	-3.0609	-13.340715	0.000365	3.650230	1.236732	-0.000146
1083	1.0766e+02	-3.0978	-13.514312	0.000436	4.359997	1.477207	-0.000174
1084	1.0776e+02	-3.1443	-13.675797	0.000406	4.055812	1.374146	-0.000162
1085	1.0786e+02	-3.1892	-13.821134	0.000365	3.650230	1.236732	-0.000146
1086	1.0796e+02	-3.2277	-13.990694	0.000426	4.258602	1.442853	-0.000170
1087	1.0806e+02	-3.2598	-14.168328	0.000446	4.461393	1.511561	-0.000179
1088	1.0816e+02	-3.3031	-14.329813	0.000406	4.055812	1.374146	-0.000162
1089	1.0826e+02	-3.3400	-14.483224	0.000385	3.853021	1.305439	-0.000154
1090	1.0836e+02	-3.3753	-14.656821	0.000436	4.359997	1.477207	-0.000174
1091	1.0845e+02	-3.4202	-14.814270	0.000395	3.954416	1.339793	-0.000158
1092	1.0855e+02	-3.4651	-14.943458	0.000324	3.244649	1.099317	-0.000130
1093	1.0865e+02	-3.5133	-15.108980	0.000416	4.157207	1.408500	-0.000166
1094	1.0875e+02	-3.5421	-15.274503	0.000416	4.157207	1.408500	-0.000166
1095	1.0885e+02	-3.5758	-15.500583	0.000568	5.678136	1.923805	-0.000227
1096	1.0895e+02	-3.6208	-15.645920	0.000365	3.650230	1.236732	-0.000146
1097	1.0905e+02	-3.6657	-15.799331	0.000385	3.853021	1.305439	-0.000154
1098	1.0915e+02	-3.7010	-15.940630	0.000355	3.548835	1.202378	-0.000142
1099	1.0925e+02	-3.7363	-16.073856	0.000335	3.346045	1.133671	-0.000134
1100	1.0935e+02	-3.7764	-16.287824	0.000537	5.373950	1.820744	-0.000215
1101	1.0945e+02	-3.8197	-16.421050	0.000335	3.346045	1.133671	-0.000134
1102	1.0955e+02	-3.8614	-16.554275	0.000335	3.346045	1.133671	-0.000134
1103	1.0965e+02	-3.8919	-16.723835	0.000426	4.258602	1.442853	-0.000170
1104	1.0975e+02	-3.9352	-16.901469	0.000446	4.461393	1.511561	-0.000179
1105	1.0985e+02	-3.9753	-17.062954	0.000406	4.055812	1.374146	-0.000162
1106	1.0995e+02	-4.0250	-17.180031	0.000294	2.940463	0.996256	-0.000118
1107	1.1005e+02	-4.0555	-17.353628	0.000436	4.359997	1.477207	-0.000174
1108	1.1015e+02	-4.1052	-17.555485	0.000507	5.069764	1.717683	-0.000203
1109	1.1025e+02	-4.1389	-17.664487	0.000274	2.737673	0.927549	-0.000110
1110	1.1035e+02	-4.1822	-17.854233	0.000477	4.765579	1.614622	-0.000191
1111	1.1044e+02	-4.2223	-18.023793	0.000426	4.258602	1.442853	-0.000170
1112	1.1054e+02	-4.2480	-18.148944	0.000314	3.143254	1.064963	-0.000126
1113	1.1064e+02	-4.2945	-18.338689	0.000477	4.765579	1.614622	-0.000191
1114	1.1074e+02	-4.3394	-18.500175	0.000406	4.055812	1.374146	-0.000162
1115	1.1084e+02	-4.3731	-18.661660	0.000406	4.055812	1.374146	-0.000162
1116	1.1094e+02	-4.4132	-18.802960	0.000355	3.548835	1.202378	-0.000142
1117	1.1104e+02	-4.4598	-18.903888	0.000253	2.534882	0.858841	-0.000101
1118	1.1114e+02	-4.4951	-19.053262	0.000375	3.751626	1.271085	-0.000150
1119	1.1124e+02	-4.5384	-19.247045	0.000487	4.866974	1.648975	-0.000195
1120	1.1134e+02	-4.5785	-19.364122	0.000294	2.940463	0.996256	-0.000118
1121	1.1144e+02	-4.6186	-19.553867	0.000477	4.765579	1.614622	-0.000191
1122	1.1154e+02	-4.6619	-19.699204	0.000365	3.650230	1.236732	-0.000146
1123	1.1164e+02	-4.7004	-19.816281	0.000294	2.940463	0.996256	-0.000118
1124	1.1174e+02	-4.7325	-19.941432	0.000314	3.143254	1.064963	-0.000126
1125	1.1184e+02	-4.7758	-20.115029	0.000436	4.359997	1.477207	-0.000174
1126	1.1194e+02	-4.8159	-20.288626	0.000436	4.359997	1.477207	-0.000174
1127	1.1204e+02	-4.8560	-20.425888	0.000345	3.447440	1.168024	-0.000138
1128	1.1214e+02	-4.9025	-20.603522	0.000446	4.461393	1.511561	-0.000179
1129	1.1224e+02	-4.9426	-20.724636	0.000304	3.041859	1.030610	-0.000122
1130	1.1234e+02	-4.9779	-20.918419	0.000487	4.866974	1.648975	-0.000195
1131	1.1244e+02	-5.0212	-21.071830	0.000385	3.853021	1.305439	-0.000154
1132	1.1253e+02	-5.0565	-21.221204	0.000375	3.751626	1.271085	-0.000150
1133	1.1263e+02	-5.1031	-21.378652	0.000395	3.954416	1.339793	-0.000158
1134	1.1273e+02	-5.1432	-21.544175	0.000416	4.157207	1.408500	-0.000166
1135	1.1283e+02	-5.1704	-21.685475	0.000355	3.548835	1.202378	-0.000142
1136	1.1293e+02	-5.2186	-21.790440	0.000264	2.636278	0.893195	-0.000105
1137	1.1303e+02	-5.2507	-21.988260	0.000497	4.968369	1.683329	-0.000199
1138	1.1313e+02	-5.2908	-22.085151	0.000243	2.433487	0.824488	-0.000097
1139	1.1323e+02	-5.3341	-22.246636	0.000406	4.055812	1.374146	-0.000162
1140	1.1333e+02	-5.3726	-22.400048	0.000385	3.853021	1.305439	-0.000154
1141	1.1343e+02	-5.4095	-22.561533	0.000406	4.055812	1.374146	-0.000162
1142	1.1353e+02	-5.4496	-22.678610	0.000294	2.940463	0.996256	-0.000118
1143	1.1363e+02	-5.4977	-22.860281	0.000456	4.562788	1.545914	-0.000183
1144	1.1373e+02	-5.5346	-23.013692	0.000385	3.853021	1.305439	-0.000154
1145	1.1383e+02	-5.5619	-23.167103	0.000385	3.853021	1.305439	-0.000154
1146	1.1393e+02	-5.6148	-23.259958	0.000233	2.332092	0.790134	-0.000093
1147	1.1403e+02	-5.6581	-23.441629	0.000456	4.562788	1.545914	-0.000183
1148	1.1413e+02	-5.6950	-23.586966	0.000365	3.650230	1.236732	-0.000146
1149	1.1423e+02	-5.7335	-23.776711	0.000477	4.765579	1.614622	-0.000191
1150	1.1433e+02	-5.7784	-23.873602	0.000243	2.433487	0.824488	-0.000097
1151	1.1442e+02	-5.8041	-24.067385	0.000487	4.866974	1.648975	-0.000195
1152	1.1452e+02	-5.8538	-24.204647	0.000345	3.447440	1.168024	-0.000138
1153	1.1462e+02	-5.8907	-24.349984	0.000365	3.650230	1.236732	-0.000146
1154	1.1472e+02	-5.9260	-24.535692	0.000466	4.664183	1.580268	-0.000187
1155	1.1482e+02	-5.9694	-24.636621	0.000253	2.534882	0.858841	-0.000101
1156	1.1492e+02	-6.0095	-24.781958	0.000365	3.650230	1.236732	-0.000146
1157	1.1502e+02	-6.0528	-24.907109	0.000314	3.143254	1.064963	-0.000126
1158	1.1512e+02	-6.0865	-25.044372	0.000345	3.447440	1.168024	-0.000138
1159	1.1522e+02	-6.1282	-25.217968	0.000436	4.359997	1.477207	-0.000174
1160	1.1532e+02	-6.1715	-25.387528	0.000426	4.258602	1.442853	-0.000170
1161	1.1542e+02	-6.2052	-25.536902	0.000375	3.751626	1.271085	-0.000150
1162	1.1552e+02	-6.2501	-25.682239	0.000365	3.650230	1.236732	-0.000146
1163	1.1562e+02	-6.2886	-25.803353	0.000304	3.041859	1.030610	-0.000122
1164	1.1572e+02	-6.3319	-25.960801	0.000395	3.954416	1.339793	-0.000158
1165	1.1582e+02	-6.3752	-26.114213	0.000385	3.853021	1.305439	-0.000154
1166	1.1592e+02	-6.4073	-26.227252	0.000284	2.839068	0.961902	-0.000114
1167	1.1602e+02	-6.4490	-26.380663	0.000385	3.853021	1.305439	-0.000154
1168	1.1612e+02	-6.4875	-26.513889	0.000335	3.346045	1.133671	-0.000134
1169	1.1622e+02	-6.5324	-26.639040	0.000314	3.143254	1.064963	-0.000126
1170	1.1632e+02	-6.5709	-26.788414	0.000375	3.751626	1.271085	-0.000150
1171	1.1642e+02	-6.5982	-26.982197	0.000487	4.866974	1.648975	-0.000195
1172	1.1651e+02	-6.6495	-27.180016	0.000497	4.968369	1.683329	-0.000199
1173	1.1661e+02	-6.6848	-27.272870	0.000233	2.332092	0.790134	-0.000093
1174	1.1671e+02	-6.7233	-27.353613	0.000203	2.027906	0.687073	-0.000081
1175	1.1681e+02	-6.7667	-27.507024	0.000385	3.853021	1.305439	-0.000154
1176	1.1691e+02	-6.7987	-27.656398	0.000375	3.751626	1.271085	-0.000150
1177	1.1701e+02	-6.8404	-27.797698	0.000355	3.548835	1.202378	-0.000142
1178	1.1711e+02	-6.8870	-27.934961	0.000345	3.447440	1.168024	-0.000138
1179	1.1721e+02	-6.9287	-28.064149	0.000324	3.244649	1.099317	-0.000130
1180	1.1731e+02	-6.9704	-28.185263	0.000304	3.041859	1.030610	-0.000122
1181	1.1741e+02	-6.9993	-28.326563	0.000355	3.548835	1.202378	-0.000142
1182	1.1751e+02	-7.0426	-28.492085	0.000416	4.157207	1.408500	-0.000166
1183	1.1761e+02	-7.0843	-28.641459	0.000375	3.751626	1.271085	-0.000150
1184	1.1771e+02	-7.1260	-28.794871	0.000385	3.853021	1.305439	-0.000154
1185	1.1781e+02	-7.1677	-28.911948	0.000294	2.940463	0.996256	-0.000118
1186	1.1791e+02	-7.1982	-29.073433	0.000406	4.055812	1.374146	-0.000162
1187	1.1801e+02	-7.2575	-29.226844	0.000385	3.853021	1.305439	-0.000154
1188	1.1811e+02	-7.2961	-29.368144	0.000355	3.548835	1.202378	-0.000142
1189	1.1821e+02	-7.3169	-29.513481	0.000365	3.650230	1.236732	-0.000146
1190	1.1831e+02	-7.3618	-29.670929	0.000395	3.954416	1.339793	-0.000158
1191	1.1841e+02	-7.3891	-29.848563	0.000446	4.461393	1.511561	-0.000179
1192	1.1850e+02	-7.4452	-29.969677	0.000304	3.041859	1.030610	-0.000122
1193	1.1860e+02	-7.4870	-30.066568	0.000243	2.433487	0.824488	-0.000097
1194	1.1870e+02	-7.5094	-30.215942	0.000375	3.751626	1.271085	-0.000150
1195	1.1880e+02	-7.5656	-30.365316	0.000375	3.751626	1.271085	-0.000150
1196	1.1890e+02	-7.6057	-30.478356	0.000284	2.839068	0.961902	-0.000114
1197	1.1900e+02	-7.6442	-30.651953	0.000436	4.359997	1.477207	-0.000174
1198	1.1910e+02	-7.6763	-30.777104	0.000314	3.143254	1.064963	-0.000126
1199	1.1920e+02	-7.7244	-30.910330	0.000335	3.346045	1.133671	-0.000134
1200	1.1930e+02	-7.7597	-31.023370	0.000284	2.839068	0.961902	-0.000114
1201	1.1940e+02	-7.8030	-31.205041	0.000456	4.562788	1.545914	-0.000183
1202	1.1950e+02	-7.8431	-31.305969	0.000253	2.534882	0.858841	-0.000101
1203	1.1960e+02	-7.8768	-31.499752	0.000487	4.866974	1.648975	-0.000195
1204	1.1970e+02	-7.9233	-31.596643	0.000243	2.433487	0.824488	-0.000097
1205	1.1980e+02	-7.9554	-31.746017	0.000375	3.751626	1.271085	-0.000150
1206	1.1990e+02	-8.0067	-31.907502	0.000406	4.055812	1.374146	-0.000162
1207	1.2000e+02	-8.0324	-32.113396	0.000517	5.171160	1.752036	-0.000207
1208	1.2010e+02	-8.0773	-32.246622	0.000335	3.346045	1.133671	-0.000134
1209	1.2020e+02	-8.1206	-32.412144	0.000416	4.157207	1.408500	-0.000166
1210	1.2030e+02	-8.1543	-32.581704	0.000426	4.258602	1.442853	-0.000170
1211	1.2039e+02	-8.1992	-32.702818	0.000304	3.041859	1.030610	-0.000122
1212	1.2049e+02	-8.2425	-32.823932	0.000304	3.041859	1.030610	-0.000122
1213	1.2059e+02	-8.2843	-32.920823	0.000243	2.433487	0.824488	-0.000097
1214	1.2069e+02	-8.3260	-33.066160	0.000365	3.650230	1.236732	-0.000146
1215	1.2079e+02	-8.3597	-33.207460	0.000355	3.548835	1.202378	-0.000142
1216	1.2089e+02	-8.4014	-33.320500	0.000284	2.839068	0.961902	-0.000114
1217	1.2099e+02	-8.4463	-33.449688	0.000324	3.244649	1.099317	-0.000130
1218	1.2109e+02	-8.4848	-33.655582	0.000517	5.171160	1.752036	-0.000207
1219	1.2119e+02	-8.5217	-33.772659	0.000294	2.940463	0.996256	-0.000118
1220	1.2129e+02	-8.5650	-33.905884	0.000335	3.346045	1.133671	-0.000134
1221	1.2139e+02	-8.5923	-34.039110	0.000335	3.346045	1.133671	-0.000134
1222	1.2149e+02	-8.6372	-34.212707	0.000436	4.359997	1.477207	-0.000174
1223	1.2159e+02	-8.6677	-34.333821	0.000304	3.041859	1.030610	-0.000122
1224	1.2169e+02	-8.7126	-34.483195	0.000375	3.751626	1.271085	-0.000150
1225	1.2179e+02	-8.7511	-34.660829	0.000446	4.461393	1.511561	-0.000179
1226	1.2189e+02	-8.7928	-34.822314	0.000406	4.055812	1.374146	-0.000162
1227	1.2199e+02	-8.8329	-34.975725	0.000385	3.853021	1.305439	-0.000154
1228	1.2209e+02	-8.8778	-35.137211	0.000406	4.055812	1.374146	-0.000162
1229	1.2219e+02	-8.9243	-35.270436	0.000335	3.346045	1.133671	-0.000134
1230	1.2229e+02	-8.9452	-35.371365	0.000253	2.534882	0.858841	-0.000101
1231	1.2239e+02	-9.0014	-35.480367	0.000274	2.737673	0.927549	-0.000110
1232	1.2248e+02	-9.0415	-35.633779	0.000385	3.853021	1.305439	-0.000154
1233	1.2258e+02	-9.0767	-35.738744	0.000264	2.636278	0.893195	-0.000105
1234	1.2268e+02	-9.1120	-35.892155	0.000385	3.853021	1.305439	-0.000154
1235	1.2278e+02	-9.1666	-36.009232	0.000294	2.940463	0.996256	-0.000118
1236	1.2288e+02	-9.1971	-36.203015	0.000487	4.866974	1.648975	-0.000195
1237	1.2298e+02	-9.2420	-36.332203	0.000324	3.244649	1.099317	-0.000130
1238	1.2308e+02	-9.2789	-36.445243	0.000284	2.839068	0.961902	-0.000114
1239	1.2318e+02	-9.3110	-36.570394	0.000314	3.143254	1.064963	-0.000126
1240	1.2328e+02	-9.3511	-36.703620	0.000335	3.346045	1.133671	-0.000134
1241	1.2338e+02	-9.4056	-36.861068	0.000395	3.954416	1.339793	-0.000158
1242	1.2348e+02	-9.4329	-37.038702	0.000446	4.461393	1.511561	-0.000179
1243	1.2358e+02	-9.4810	-37.200187	0.000406	4.055812	1.374146	-0.000162
1244	1.2368e+02	-9.5099	-37.337450	0.000345	3.447440	1.168024	-0.000138
1245	1.2378e+02	-9.5644	-37.494898	0.000395	3.954416	1.339793	-0.000158
1246	1.2388e+02	-9.5949	-37.620049	0.000314	3.143254	1.064963	-0.000126
1247	1.2398e+02	-9.6398	-37.769423	0.000375	3.751626	1.271085	-0.000150
1248	1.2408e+02	-9.6687	-37.898612	0.000324	3.244649	1.099317	-0.000130
1249	1.2418e+02	-9.7136	-38.056060	0.000395	3.954416	1.339793	-0.000158
1250	1.2428e+02	-9.7569	-38.140840	0.000213	2.129301	0.721427	-0.000085
1251	1.2438e+02	-9.7954	-38.290214	0.000375	3.751626	1.271085	-0.000150
1252	1.2447e+02	-9.8323	-38.427477	0.000345	3.447440	1.168024	-0.000138
1253	1.2457e+02	-9.8708	-38.564739	0.000345	3.447440	1.168024	-0.000138
1254	1.2467e+02	-9.9222	-38.726225	0.000406	4.055812	1.374146	-0.000162
1255	1.2477e+02	-9.9511	-38.851376	0.000314	3.143254	1.064963	-0.000126
1256	1.2487e+02	-9.9815	-38.980564	0.000324	3.244649	1.099317	-0.000130
1257	1.2497e+02	-10.0361	-39.150124	0.000426	4.258602	1.442853	-0.000170
1258	1.2507e+02	-10.0810	-39.279312	0.000324	3.244649	1.099317	-0.000130
1259	1.2517e+02	-10.1067	-39.469058	0.000477	4.765579	1.614622	-0.000191
1260	1.2527e+02	-10.1532	-39.626506	0.000395	3.954416	1.339793	-0.000158
1261	1.2537e+02	-10.1965	-39.731471	0.000264	2.636278	0.893195	-0.000105
1262	1.2547e+02	-10.2318	-39.917180	0.000466	4.664183	1.580268	-0.000187
1263	1.2557e+02	-10.2703	-40.034257	0.000294	2.940463	0.996256	-0.000118
1264	1.2567e+02	-10.3056	-40.187668	0.000385	3.853021	1.305439	-0.000154
1265	1.2577e+02	-10.3521	-40.296670	0.000274	2.737673	0.927549	-0.000110
1266	1.2587e+02	-10.3874	-40.413747	0.000294	2.940463	0.996256	-0.000118
1267	1.2597e+02	-10.4339	-40.563121	0.000375	3.751626	1.271085	-0.000150
1268	1.2607e+02	-10.4660	-40.680198	0.000294	2.940463	0.996256	-0.000118
1269	1.2617e+02	-10.5093	-40.821498	0.000355	3.548835	1.202378	-0.000142
1270	1.2627e+02	-10.5542	-40.987021	0.000416	4.157207	1.408500	-0.000166
1271	1.2636e+02	-10.5911	-41.047578	0.000152	1.520929	0.515305	-0.000061
1272	1.2646e+02	-10.6377	-41.249434	0.000507	5.069764	1.717683	-0.000203
1273	1.2656e+02	-10.6746	-41.406883	0.000395	3.954416	1.339793	-0.000158
1274	1.2666e+02	-10.7115	-41.544145	0.000345	3.447440	1.168024	-0.000138
1275	1.2676e+02	-10.7596	-41.661222	0.000294	2.940463	0.996256	-0.000118
1276	1.2686e+02	-10.7869	-41.822708	0.000406	4.055812	1.374146	-0.000162
1277	1.2696e+02	-10.8270	-41.972082	0.000375	3.751626	1.271085	-0.000150
1278	1.2706e+02	-10.8639	-42.073010	0.000253	2.534882	0.858841	-0.000101
1279	1.2716e+02	-10.9120	-42.278904	0.000517	5.171160	1.752036	-0.000207
1280	1.2726e+02	-10.9377	-42.412129	0.000335	3.346045	1.133671	-0.000134
1281	1.2736e+02	-10.9826	-42.545355	0.000335	3.346045	1.133671	-0.000134
1282	1.2746e+02	-11.0259	-42.662432	0.000294	2.940463	0.996256	-0.000118
1283	1.2756e+02	-11.0788	-42.735100	0.000183	1.825115	0.618366	-0.000073
1284	1.2766e+02	-11.1077	-42.928883	0.000487	4.866974	1.648975	-0.000195
1285	1.2776e+02	-11.1446	-43.013663	0.000213	2.129301	0.721427	-0.000085
1286	1.2786e+02	-11.1847	-43.154962	0.000355	3.548835	1.202378	-0.000142
1287	1.2796e+02	-11.2312	-43.300299	0.000365	3.650230	1.236732	-0.000146
1288	1.2806e+02	-11.2681	-43.449673	0.000375	3.751626	1.271085	-0.000150
1289	1.2816e+02	-11.3130	-43.566750	0.000294	2.940463	0.996256	-0.000118
1290	1.2826e+02	-11.3387	-43.651530	0.000213	2.129301	0.721427	-0.000085
1291	1.2835e+02	-11.3820	-43.849350	0.000497	4.968369	1.683329	-0.000199
1292	1.2845e+02	-11.4302	-43.926055	0.000193	1.926511	0.652719	-0.000077
1293	1.2855e+02	-11.4703	-44.059281	0.000335	3.346045	1.133671	-0.000134
1294	1.2865e+02	-11.5104	-44.228841	0.000426	4.258602	1.442853	-0.000170
1295	1.2875e+02	-11.5457	-44.358029	0.000324	3.244649	1.099317	-0.000130
1296	1.2885e+02	-11.5794	-44.495292	0.000345	3.447440	1.168024	-0.000138
1297	1.2895e+02	-11.6211	-44.656777	0.000406	4.055812	1.374146	-0.000162
1298	1.2905e+02	-11.6612	-44.794040	0.000345	3.447440	1.168024	-0.000138
1299	1.2915e+02	-11.7157	-44.907079	0.000284	2.839068	0.961902	-0.000114
1300	1.2925e+02	-11.7526	-45.036268	0.000324	3.244649	1.099317	-0.000130
1301	1.2935e+02	-11.7911	-45.157382	0.000304	3.041859	1.030610	-0.000122
1302	1.2945e+02	-11.8312	-45.189679	0.000081	0.811162	0.274829	-0.000032
1303	1.2955e+02	-11.8713	-45.403647	0.000537	5.373950	1.820744	-0.000215
1304	1.2965e+02	-11.9002	-45.500538	0.000243	2.433487	0.824488	-0.000097
1305	1.2975e+02	-11.9435	-45.657987	0.000395	3.954416	1.339793	-0.000158
1306	1.2985e+02	-11.9868	-45.791212	0.000335	3.346045	1.133671	-0.000134
1307	1.2995e+02	-12.0253	-45.875992	0.000213	2.129301	0.721427	-0.000085
1308	1.3005e+02	-12.0622	-46.053626	0.000446	4.461393	1.511561	-0.000179
1309	1.3015e+02	-12.1039	-46.162629	0.000274	2.737673	0.927549	-0.000110
1310	1.3025e+02	-12.1360	-46.295854	0.000335	3.346045	1.133671	-0.000134
1311	1.3034e+02	-12.1874	-46.412931	0.000294	2.940463	0.996256	-0.000118
1312	1.3044e+02	-12.2275	-46.542119	0.000324	3.244649	1.099317	-0.000130
1313	1.3054e+02	-12.2676	-46.683419	0.000355	3.548835	1.202378	-0.000142
1314	1.3064e+02	-12.3045	-46.832793	0.000375	3.751626	1.271085	-0.000150
1315	1.3074e+02	-12.3414	-46.994279	0.000406	4.055812	1.374146	-0.000162
1316	1.3084e+02	-12.3751	-47.099244	0.000264	2.636278	0.893195	-0.000105
1317	1.3094e+02	-12.4200	-47.284952	0.000466	4.664183	1.580268	-0.000187
1318	1.3104e+02	-12.4681	-47.397992	0.000284	2.839068	0.961902	-0.000114
1319	1.3114e+02	-12.5098	-47.434326	0.000091	0.912558	0.309183	-0.000037
1320	1.3124e+02	-12.5515	-47.575626	0.000355	3.548835	1.202378	-0.000142
1321	1.3134e+02	-12.5884	-47.729037	0.000385	3.853021	1.305439	-0.000154
1322	1.3144e+02	-12.6301	-47.850151	0.000304	3.041859	1.030610	-0.000122
1323	1.3154e+02	-12.6606	-47.955117	0.000264	2.636278	0.893195	-0.000105
1324	1.3164e+02	-12.7055	-48.096417	0.000355	3.548835	1.202378	-0.000142
1325	1.3174e+02	-12.7456	-48.221568	0.000314	3.143254	1.064963	-0.000126
1326	1.3184e+02	-12.7745	-48.330570	0.000274	2.737673	0.927549	-0.000110
1327	1.3194e+02	-12.8210	-48.504167	0.000436	4.359997	1.477207	-0.000174
1328	1.3204e+02	-12.8643	-48.576836	0.000183	1.825115	0.618366	-0.000073
1329	1.3214e+02	-12.9012	-48.750433	0.000436	4.359997	1.477207	-0.000174
1330	1.3224e+02	-12.9494	-48.839250	0.000223	2.230696	0.755780	-0.000089
1331	1.3234e+02	-12.9718	-48.964401	0.000314	3.143254	1.064963	-0.000126
1332	1.3243e+02	-13.0135	-49.174332	0.000527	5.272555	1.786390	-0.000211
1333	1.3253e+02	-13.0569	-49.263149	0.000223	2.230696	0.755780	-0.000089
1334	1.3263e+02	-13.0937	-49.380226	0.000294	2.940463	0.996256	-0.000118
1335	1.3273e+02	-13.1339	-49.513451	0.000335	3.346045	1.133671	-0.000134
1336	1.3283e+02	-13.1788	-49.662825	0.000375	3.751626	1.271085	-0.000150
1337	1.3293e+02	-13.2060	-49.767791	0.000264	2.636278	0.893195	-0.000105
1338	1.3303e+02	-13.2574	-49.852571	0.000213	2.129301	0.721427	-0.000085
1339	1.3313e+02	-13.2927	-49.957536	0.000264	2.636278	0.893195	-0.000105
1340	1.3323e+02	-13.3344	-50.106910	0.000375	3.751626	1.271085	-0.000150
1341	1.3333e+02	-13.3825	-50.203801	0.000243	2.433487	0.824488	-0.000097
1342	1.3343e+02	-13.4226	-50.337027	0.000335	3.346045	1.133671	-0.000134
1343	1.3353e+02	-13.4579	-50.470252	0.000335	3.346045	1.133671	-0.000134
1344	1.3363e+02	-13.4964	-50.546958	0.000193	1.926511	0.652719	-0.000077
1345	1.3373e+02	-13.5397	-50.688258	0.000355	3.548835	1.202378	-0.000142
1346	1.3383e+02	-13.5718	-50.849743	0.000406	4.055812	1.374146	-0.000162
1347	1.3393e+02	-13.6247	-50.950672	0.000253	2.534882	0.858841	-0.000101
1348	1.3403e+02	-13.6536	-51.051600	0.000253	2.534882	0.858841	-0.000101
1349	1.3413e+02	-13.7018	-51.245382	0.000487	4.866974	1.648975	-0.000195
1350	1.3423e+02	-13.7354	-51.334199	0.000223	2.230696	0.755780	-0.000089
1351	1.3432e+02	-13.7707	-51.487611	0.000385	3.853021	1.305439	-0.000154
1352	1.3442e+02	-13.8173	-51.592576	0.000264	2.636278	0.893195	-0.000105
1353	1.3452e+02	-13.8558	-51.737913	0.000365	3.650230	1.236732	-0.000146
1354	1.3462e+02	-13.8959	-51.850953	0.000284	2.839068	0.961902	-0.000114
1355	1.3472e+02	-13.9392	-51.919584	0.000172	1.723720	0.584012	-0.000069
1356	1.3482e+02	-13.9745	-52.089144	0.000426	4.258602	1.442853	-0.000170
1357	1.3492e+02	-14.0146	-52.194109	0.000264	2.636278	0.893195	-0.000105
1358	1.3502e+02	-14.0563	-52.299075	0.000264	2.636278	0.893195	-0.000105
1359	1.3512e+02	-14.0932	-52.404040	0.000264	2.636278	0.893195	-0.000105
1360	1.3522e+02	-14.1429	-52.529192	0.000314	3.143254	1.064963	-0.000126
1361	1.3532e+02	-14.1766	-52.686640	0.000395	3.954416	1.339793	-0.000158
1362	1.3542e+02	-14.2151	-52.775457	0.000223	2.230696	0.755780	-0.000089
1363	1.3552e+02	-14.2664	-52.896571	0.000304	3.041859	1.030610	-0.000122
1364	1.3562e+02	-14.3017	-53.045945	0.000375	3.751626	1.271085	-0.000150
1365	1.3572e+02	-14.3338	-53.183208	0.000345	3.447440	1.168024	-0.000138
1366	1.3582e+02	-14.3707	-53.316433	0.000335	3.346045	1.133671	-0.000134
1367	1.3592e+02	-14.4124	-53.465807	0.000375	3.751626	1.271085	-0.000150
1368	1.3602e+02	-14.4622	-53.599033	0.000335	3.346045	1.133671	-0.000134
1369	1.3612e+02	-14.4942	-53.768592	0.000426	4.258602	1.442853	-0.000170
1370	1.3622e+02	-14.5263	-53.817038	0.000122	1.216743	0.412244	-0.000049
1371	1.3631e+02	-14.5648	-53.946226	0.000324	3.244649	1.099317	-0.000130
1372	1.3641e+02	-14.6162	-54.135972	0.000477	4.765579	1.614622	-0.000191
1373	1.3651e+02	-14.6515	-54.196529	0.000152	1.520929	0.515305	-0.000061
1374	1.3661e+02	-14.6884	-54.358014	0.000406	4.055812	1.374146	-0.000162
1375	1.3671e+02	-14.7333	-54.422608	0.000162	1.622325	0.549658	-0.000065
1376	1.3681e+02	-14.7734	-54.515462	0.000233	2.332092	0.790134	-0.000093
1377	1.3691e+02	-14.8231	-54.656762	0.000355	3.548835	1.202378	-0.000142
1378	1.3701e+02	-14.8632	-54.777876	0.000304	3.041859	1.030610	-0.000122
1379	1.3711e+02	-14.8857	-54.878805	0.000253	2.534882	0.858841	-0.000101
1380	1.3721e+02	-14.9306	-55.028179	0.000375	3.751626	1.271085	-0.000150
1381	1.3731e+02	-14.9739	-55.177553	0.000375	3.751626	1.271085	-0.000150
1382	1.3741e+02	-15.0108	-55.286555	0.000274	2.737673	0.927549	-0.000110
1383	1.3751e+02	-15.0477	-55.472264	0.000466	4.664183	1.580268	-0.000187
1384	1.3761e+02	-15.0846	-55.585303	0.000284	2.839068	0.961902	-0.000114
1385	1.3771e+02	-15.1311	-55.718529	0.000335	3.346045	1.133671	-0.000134
1386	1.3781e+02	-15.1744	-55.859829	0.000355	3.548835	1.202378	-0.000142
1387	1.3791e+02	-15.2178	-55.972868	0.000284	2.839068	0.961902	-0.000114
1388	1.3801e+02	-15.2498	-56.077834	0.000264	2.636278	0.893195	-0.000105
1389	1.3811e+02	-15.2835	-56.239319	0.000406	4.055812	1.374146	-0.000162
1390	1.3821e+02	-15.3397	-56.356396	0.000294	2.940463	0.996256	-0.000118
1391	1.3831e+02	-15.3702	-56.489622	0.000335	3.346045	1.133671	-0.000134
1392	1.3840e+02	-15.4167	-56.622847	0.000335	3.346045	1.133671	-0.000134
1393	1.3850e+02	-15.4504	-56.687441	0.000162	1.622325	0.549658	-0.000065
1394	1.3860e+02	-15.4905	-56.836815	0.000375	3.751626	1.271085	-0.000150
1395	1.3870e+02	-15.5322	-56.921595	0.000213	2.129301	0.721427	-0.000085
1396	1.3880e+02	-15.5739	-57.014449	0.000233	2.332092	0.790134	-0.000093
1397	1.3890e+02	-15.6028	-57.135564	0.000304	3.041859	1.030610	-0.000122
1398	1.3900e+02	-15.6573	-57.284938	0.000375	3.751626	1.271085	-0.000150
1399	1.3910e+02	-15.6846	-57.418163	0.000335	3.346045	1.133671	-0.000134
1400	1.3920e+02	-15.7247	-57.567537	0.000375	3.751626	1.271085	-0.000150
1401	1.3930e+02	-15.7648	-57.757282	0.000477	4.765579	1.614622	-0.000191
1402	1.3940e+02	-15.8113	-57.829951	0.000183	1.825115	0.618366	-0.000073
1403	1.3950e+02	-15.8450	-57.926842	0.000243	2.433487	0.824488	-0.000097
1404	1.3960e+02	-15.8931	-58.096402	0.000426	4.258602	1.442853	-0.000170
1405	1.3970e+02	-15.9220	-58.189256	0.000233	2.332092	0.790134	-0.000093
1406	1.3980e+02	-15.9733	-58.338630	0.000375	3.751626	1.271085	-0.000150
1407	1.3990e+02	-16.0086	-58.483967	0.000365	3.650230	1.236732	-0.000146
1408	1.4000e+02	-16.0503	-58.576821	0.000233	2.332092	0.790134	-0.000093
1409	1.4010e+02	-16.0905	-58.714084	0.000345	3.447440	1.168024	-0.000138
1410	1.4020e+02	-16.1322	-58.806938	0.000233	2.332092	0.790134	-0.000093
1411	1.4029e+02	-16.1626	-58.964386	0.000395	3.954416	1.339793	-0.000158
1412	1.4039e+02	-16.1979	-59.073389	0.000274	2.737673	0.927549	-0.000110
1413	1.4049e+02	-16.2493	-59.198540	0.000314	3.143254	1.064963	-0.000126
1414	1.4059e+02	-16.2926	-59.299468	0.000253	2.534882	0.858841	-0.000101
1415	1.4069e+02	-16.3231	-59.444805	0.000365	3.650230	1.236732	-0.000146
1416	1.4079e+02	-16.3648	-59.525548	0.000203	2.027906	0.687073	-0.000081
1417	1.4089e+02	-16.4065	-59.707219	0.000456	4.562788	1.545914	-0.000183
1418	1.4099e+02	-16.4466	-59.844482	0.000345	3.447440	1.168024	-0.000138
1419	1.4109e+02	-16.4883	-59.997893	0.000385	3.853021	1.305439	-0.000154
1420	1.4119e+02	-16.5316	-60.078635	0.000203	2.027906	0.687073	-0.000081
1421	1.4129e+02	-16.5733	-60.228010	0.000375	3.751626	1.271085	-0.000150
1422	1.4139e+02	-16.6134	-60.365272	0.000345	3.447440	1.168024	-0.000138
1423	1.4149e+02	-16.6503	-60.502535	0.000345	3.447440	1.168024	-0.000138
1424	1.4159e+02	-16.6920	-60.611537	0.000274	2.737673	0.927549	-0.000110
1425	1.4169e+02	-16.7161	-60.736689	0.000314	3.143254	1.064963	-0.000126
1426	1.4179e+02	-16.7658	-60.857803	0.000304	3.041859	1.030610	-0.000122
1427	1.4189e+02	-16.8092	-60.995065	0.000345	3.447440	1.168024	-0.000138
1428	1.4199e+02	-16.8380	-61.128291	0.000335	3.346045	1.133671	-0.000134
1429	1.4209e+02	-16.8878	-61.261516	0.000335	3.346045	1.133671	-0.000134
1430	1.4219e+02	-16.9311	-61.390705	0.000324	3.244649	1.099317	-0.000130
1431	1.4228e+02	-16.9664	-61.467410	0.000193	1.926511	0.652719	-0.000077
1432	1.4238e+02	-17.0065	-61.596599	0.000324	3.244649	1.099317	-0.000130
1433	1.4248e+02	-17.0434	-61.721750	0.000314	3.143254	1.064963	-0.000126
1434	1.4258e+02	-17.0835	-61.850938	0.000324	3.244649	1.099317	-0.000130
1435	1.4268e+02	-17.1188	-61.980126	0.000324	3.244649	1.099317	-0.000130
1436	1.4278e+02	-17.1685	-62.157760	0.000446	4.461393	1.511561	-0.000179
1437	1.4288e+02	-17.1974	-62.286949	0.000324	3.244649	1.099317	-0.000130
1438	1.4298e+02	-17.2567	-62.371729	0.000213	2.129301	0.721427	-0.000085
1439	1.4308e+02	-17.2760	-62.504954	0.000335	3.346045	1.133671	-0.000134
1440	1.4318e+02	-17.3209	-62.638180	0.000335	3.346045	1.133671	-0.000134
1441	1.4328e+02	-17.3626	-62.755256	0.000294	2.940463	0.996256	-0.000118
1442	1.4338e+02	-17.4027	-62.908668	0.000385	3.853021	1.305439	-0.000154
1443	1.4348e+02	-17.4444	-63.041893	0.000335	3.346045	1.133671	-0.000134
1444	1.4358e+02	-17.4877	-63.167044	0.000314	3.143254	1.064963	-0.000126
1445	1.4368e+02	-17.5182	-63.255861	0.000223	2.230696	0.755780	-0.000089
1446	1.4378e+02	-17.5615	-63.364864	0.000274	2.737673	0.927549	-0.000110
1447	1.4388e+02	-17.6049	-63.538461	0.000436	4.359997	1.477207	-0.000174
1448	1.4398e+02	-17.6434	-63.655538	0.000294	2.940463	0.996256	-0.000118
1449	1.4408e+02	-17.6851	-63.764540	0.000274	2.737673	0.927549	-0.000110
1450	1.4418e+02	-17.7139	-63.849320	0.000213	2.129301	0.721427	-0.000085
1451	1.4428e+02	-17.7685	-63.998694	0.000375	3.751626	1.271085	-0.000150
1452	1.4437e+02	-17.8022	-64.135957	0.000345	3.447440	1.168024	-0.000138
1453	1.4447e+02	-17.8439	-64.277257	0.000355	3.548835	1.202378	-0.000142
1454	1.4457e+02	-17.8824	-64.410482	0.000335	3.346045	1.133671	-0.000134
1455	1.4467e+02	-17.9225	-64.503336	0.000233	2.332092	0.790134	-0.000093
1456	1.4477e+02	-17.9674	-64.636562	0.000335	3.346045	1.133671	-0.000134
1457	1.4487e+02	-18.0043	-64.745564	0.000274	2.737673	0.927549	-0.000110
1458	1.4497e+02	-18.0380	-64.818233	0.000183	1.825115	0.618366	-0.000073
1459	1.4507e+02	-18.0797	-64.987793	0.000426	4.258602	1.442853	-0.000170
1460	1.4517e+02	-18.1182	-65.141204	0.000385	3.853021	1.305439	-0.000154
1461	1.4527e+02	-18.1679	-65.258281	0.000294	2.940463	0.996256	-0.000118
1462	1.4537e+02	-18.2080	-65.355172	0.000243	2.433487	0.824488	-0.000097
1463	1.4547e+02	-18.2449	-65.484360	0.000324	3.244649	1.099317	-0.000130
1464	1.4557e+02	-18.2866	-65.649883	0.000416	4.157207	1.408500	-0.000166
1465	1.4567e+02	-18.3219	-65.766960	0.000294	2.940463	0.996256	-0.000118
1466	1.4577e+02	-18.3733	-65.904222	0.000345	3.447440	1.168024	-0.000138
1467	1.4587e+02	-18.3989	-66.005151	0.000253	2.534882	0.858841	-0.000101
1468	1.4597e+02	-18.4407	-66.065708	0.000152	1.520929	0.515305	-0.000061
1469	1.4607e+02	-18.4759	-66.255453	0.000477	4.765579	1.614622	-0.000191
1470	1.4617e+02	-18.5145	-66.376567	0.000304	3.041859	1.030610	-0.000122
1471	1.4626e+02	-18.5562	-66.501718	0.000314	3.143254	1.064963	-0.000126
1472	1.4636e+02	-18.5947	-66.602647	0.000253	2.534882	0.858841	-0.000101
1473	1.4646e+02	-18.6396	-66.800466	0.000497	4.968369	1.683329	-0.000199
1474	1.4656e+02	-18.6717	-66.861024	0.000152	1.520929	0.515305	-0.000061
1475	1.4666e+02	-18.7230	-67.006360	0.000365	3.650230	1.236732	-0.000146
1476	1.4676e+02	-18.7567	-67.127474	0.000304	3.041859	1.030610	-0.000122
1477	1.4686e+02	-18.8000	-67.288960	0.000406	4.055812	1.374146	-0.000162
1478	1.4696e+02	-18.8353	-67.373740	0.000213	2.129301	0.721427	-0.000085
1479	1.4706e+02	-18.8802	-67.502928	0.000324	3.244649	1.099317	-0.000130
1480	1.4716e+02	-18.9235	-67.628079	0.000314	3.143254	1.064963	-0.000126
1481	1.4726e+02	-18.9572	-67.753231	0.000314	3.143254	1.064963	-0.000126
1482	1.4736e+02	-18.9925	-67.886456	0.000335	3.346045	1.133671	-0.000134
1483	1.4746e+02	-19.0487	-68.011607	0.000314	3.143254	1.064963	-0.000126
1484	1.4756e+02	-19.0840	-68.136758	0.000314	3.143254	1.064963	-0.000126
1485	1.4766e+02	-19.1160	-68.286132	0.000375	3.751626	1.271085	-0.000150
1486	1.4776e+02	-19.1577	-68.411284	0.000314	3.143254	1.064963	-0.000126
1487	1.4786e+02	-19.2107	-68.552583	0.000355	3.548835	1.202378	-0.000142
1488	1.4796e+02	-19.2428	-68.665623	0.000284	2.839068	0.961902	-0.000114
1489	1.4806e+02	-19.2668	-68.782700	0.000294	2.940463	0.996256	-0.000118
1490	1.4816e+02	-19.2973	-68.891703	0.000274	2.737673	0.927549	-0.000110
1491	1.4825e+02	-19.3567	-69.004743	0.000284	2.839068	0.961902	-0.000114
1492	1.4835e+02	-19.3952	-69.182377	0.000446	4.461393	1.511561	-0.000179
1493	1.4845e+02	-19.4305	-69.295416	0.000284	2.839068	0.961902	-0.000114
1494	1.4855e+02	-19.4770	-69.404419	0.000274	2.737673	0.927549	-0.000110
1495	1.4865e+02	-19.5091	-69.541682	0.000345	3.447440	1.168024	-0.000138
1496	1.4875e+02	-19.5588	-69.670870	0.000324	3.244649	1.099317	-0.000130
1497	1.4885e+02	-19.5957	-69.832355	0.000406	4.055812	1.374146	-0.000162
1498	1.4895e+02	-19.6326	-69.973655	0.000355	3.548835	1.202378	-0.000142
1499	1.4905e+02	-19.6663	-70.062472	0.000223	2.230696	0.755780	-0.000089
1500	1.4915e+02	-19.7112	-70.207809	0.000365	3.650230	1.236732	-0.000146
1501	1.4925e+02	-19.7529	-70.328923	0.000304	3.041859	1.030610	-0.000122
1502	1.4935e+02	-19.7898	-70.542891	0.000537	5.373950	1.820744	-0.000215
1503	1.4945e+02	-19.8347	-70.623634	0.000203	2.027906	0.687073	-0.000081
1504	1.4955e+02	-19.8700	-70.785119	0.000406	4.055812	1.374146	-0.000162
1505	1.4965e+02	-19.9133	-70.882011	0.000243	2.433487	0.824488	-0.000097
1506	1.4975e+02	-19.9486	-70.999088	0.000294	2.940463	0.996256	-0.000118
1507	1.4985e+02	-19.9887	-71.144425	0.000365	3.650230	1.236732	-0.000146
1508	1.4995e+02	-19.9486	-71.079830	0.000162	1.622325	0.549658	0.000065
1509	1.5005e+02	-19.9085	-71.051570	0.000071	0.709767	0.240476	0.000028
1510	1.5015e+02	-19.8813	-70.962753	0.000223	2.230696	0.755780	0.000089
1511	1.5025e+02	-19.8283	-70.894122	0.000172	1.723720	0.584012	0.000069
1512	1.5034e+02	-19.7866	-70.817417	0.000193	1.926511	0.652719	0.000077
1513	1.5044e+02	-19.7609	-70.797231	0.000051	0.506976	0.171768	0.000020
1514	1.5054e+02	-19.7080	-70.688228	0.000274	2.737673	0.927549	0.000110
1515	1.5064e+02	-19.6743	-70.676117	0.000030	0.304186	0.103061	0.000012
1516	1.5074e+02	-19.6374	-70.579226	0.000243	2.433487	0.824488	0.000097
1517	1.5084e+02	-19.5925	-70.522706	0.000142	1.419534	0.480951	0.000057
1518	1.5094e+02	-19.5524	-70.470223	0.000132	1.318139	0.446598	0.000053
1519	1.5104e+02	-19.5187	-70.377369	0.000233	2.332092	0.790134	0.000093
1520	1.5114e+02	-19.4706	-70.288552	0.000223	2.230696	0.755780	0.000089
1521	1.5124e+02	-19.4433	-70.232032	0.000142	1.419534	0.480951	0.000057
1522	1.5134e+02	-19.3952	-70.143215	0.000223	2.230696	0.755780	0.000089
1523	1.5144e+02	-19.3519	-70.094769	0.000122	1.216743	0.412244	0.000049
1524	1.5154e+02	-19.3069	-69.981729	0.000284	2.839068	0.961902	0.000114
1525	1.5164e+02	-19.2749	-69.896950	0.000213	2.129301	0.721427	0.000085
1526	1.5174e+02	-19.2380	-69.840430	0.000142	1.419534	0.480951	0.000057
1527	1.5184e+02	-19.2011	-69.747576	0.000233	2.332092	0.790134	0.000093
1528	1.5194e+02	-19.1642	-69.666833	0.000203	2.027906	0.687073	0.000081
1529	1.5204e+02	-19.1225	-69.565904	0.000253	2.534882	0.858841	0.000101
1530	1.5214e+02	-19.0727	-69.456902	0.000274	2.737673	0.927549	0.000110
1531	1.5224e+02	-19.0390	-69.444790	0.000030	0.304186	0.103061	0.000012
1532	1.5233e+02	-19.0070	-69.351936	0.000233	2.332092	0.790134	0.000093
1533	1.5243e+02	-18.9588	-69.255045	0.000243	2.433487	0.824488	0.000097
1534	1.5253e+02	-18.9251	-69.186414	0.000172	1.723720	0.584012	0.000069
1535	1.5263e+02	-18.8738	-69.073374	0.000284	2.839068	0.961902	0.000114
1536	1.5273e+02	-18.8465	-68.988594	0.000213	2.129301	0.721427	0.000085
1537	1.5283e+02	-18.7968	-68.895740	0.000233	2.332092	0.790134	0.000093
1538	1.5293e+02	-18.7567	-68.847294	0.000122	1.216743	0.412244	0.000049
1539	1.5303e+02	-18.7102	-68.782700	0.000162	1.622325	0.549658	0.000065
1540	1.5313e+02	-18.6717	-68.714069	0.000172	1.723720	0.584012	0.000069
1541	1.5323e+02	-18.6316	-68.613140	0.000253	2.534882	0.858841	0.000101
1542	1.5333e+02	-18.5963	-68.492026	0.000304	3.041859	1.030610	0.000122
1543	1.5343e+02	-18.5497	-68.415321	0.000193	1.926511	0.652719	0.000077
1544	1.5353e+02	-18.5177	-68.314392	0.000253	2.534882	0.858841	0.000101
1545	1.5363e+02	-18.4840	-68.177130	0.000345	3.447440	1.168024	0.000138
1546	1.5373e+02	-18.4342	-68.136758	0.000101	1.013953	0.343537	0.000041
1547	1.5383e+02	-18.3957	-68.060053	0.000193	1.926511	0.652719	0.000077
1548	1.5393e+02	-18.3604	-67.959124	0.000253	2.534882	0.858841	0.000101
1549	1.5403e+02	-18.3235	-67.898567	0.000152	1.520929	0.515305	0.000061
1550	1.5413e+02	-18.2706	-67.793602	0.000264	2.636278	0.893195	0.000105
1551	1.5422e+02	-18.2369	-67.692673	0.000253	2.534882	0.858841	0.000101
1552	1.5432e+02	-18.1888	-67.640191	0.000132	1.318139	0.446598	0.000053
1553	1.5442e+02	-18.1727	-67.527151	0.000284	2.839068	0.961902	0.000114
1554	1.5452e+02	-18.1198	-67.470631	0.000142	1.419534	0.480951	0.000057
1555	1.5462e+02	-18.0845	-67.365665	0.000264	2.636278	0.893195	0.000105
1556	1.5472e+02	-18.0428	-67.284923	0.000203	2.027906	0.687073	0.000081
1557	1.5482e+02	-17.9947	-67.171883	0.000284	2.839068	0.961902	0.000114
1558	1.5492e+02	-17.9546	-67.147660	0.000061	0.608372	0.206122	0.000024
1559	1.5502e+02	-17.9145	-67.062880	0.000213	2.129301	0.721427	0.000085
1560	1.5512e+02	-17.8808	-66.929655	0.000335	3.346045	1.133671	0.000134
1561	1.5522e+02	-17.8343	-66.820652	0.000274	2.737673	0.927549	0.000110
1562	1.5532e+02	-17.8086	-66.747984	0.000183	1.825115	0.618366	0.000073
1563	1.5542e+02	-17.7573	-66.659167	0.000223	2.230696	0.755780	0.000089
1564	1.5552e+02	-17.7123	-66.562275	0.000243	2.433487	0.824488	0.000097
1565	1.5562e+02	-17.6802	-66.449236	0.000284	2.839068	0.961902	0.000114
1566	1.5572e+02	-17.6450	-66.376567	0.000183	1.825115	0.618366	0.000073
1567	1.5582e+02	-17.6113	-66.271602	0.000264	2.636278	0.893195	0.000105
1568	1.5592e+02	-17.5583	-66.186822	0.000213	2.129301	0.721427	0.000085
1569	1.5602e+02	-17.5278	-66.114153	0.000183	1.825115	0.618366	0.000073
1570	1.5612e+02	-17.4910	-65.997076	0.000294	2.940463	0.996256	0.000118
1571	1.5622e+02	-17.4492	-65.908259	0.000223	2.230696	0.755780	0.000089
1572	1.5631e+02	-17.3995	-65.799257	0.000274	2.737673	0.927549	0.000110
1573	1.5641e+02	-17.3770	-65.710440	0.000223	2.230696	0.755780	0.000089
1574	1.5651e+02	-17.3161	-65.633734	0.000193	1.926511	0.652719	0.000077
1575	1.5661e+02	-17.2888	-65.569140	0.000162	1.622325	0.549658	0.000065
1576	1.5671e+02	-17.2407	-65.496472	0.000183	1.825115	0.618366	0.000073
1577	1.5681e+02	-17.1990	-65.415729	0.000203	2.027906	0.687073	0.000081
1578	1.5691e+02	-17.1605	-65.258281	0.000395	3.954416	1.339793	0.000158
1579	1.5701e+02	-17.1316	-65.149278	0.000274	2.737673	0.927549	0.000110
1580	1.5711e+02	-17.0771	-65.064498	0.000213	2.129301	0.721427	0.000085
1581	1.5721e+02	-17.0578	-64.979718	0.000213	2.129301	0.721427	0.000085
1582	1.5731e+02	-17.0049	-64.826307	0.000385	3.853021	1.305439	0.000154
1583	1.5741e+02	-16.9728	-64.781899	0.000112	1.115348	0.377890	0.000045
1584	1.5751e+02	-16.9182	-64.705193	0.000193	1.926511	0.652719	0.000077
1585	1.5761e+02	-16.8878	-64.596190	0.000274	2.737673	0.927549	0.000110
1586	1.5771e+02	-16.8444	-64.471039	0.000314	3.143254	1.064963	0.000126
1587	1.5781e+02	-16.8075	-64.402408	0.000172	1.723720	0.584012	0.000069
1588	1.5791e+02	-16.7755	-64.305517	0.000243	2.433487	0.824488	0.000097
1589	1.5801e+02	-16.7241	-64.240922	0.000162	1.622325	0.549658	0.000065
1590	1.5811e+02	-16.6840	-64.152105	0.000223	2.230696	0.755780	0.000089
1591	1.5821e+02	-16.6567	-64.002731	0.000375	3.751626	1.271085	0.000150
1592	1.5830e+02	-16.6070	-63.930063	0.000183	1.825115	0.618366	0.000073
1593	1.5840e+02	-16.5669	-63.897766	0.000081	0.811162	0.274829	0.000032
1594	1.5850e+02	-16.5268	-63.833172	0.000162	1.622325	0.549658	0.000065
1595	1.5860e+02	-16.4883	-63.691872	0.000355	3.548835	1.202378	0.000142
1596	1.5870e+02	-16.4450	-63.574795	0.000294	2.940463	0.996256	0.000118
1597	1.5880e+02	-16.3985	-63.449644	0.000314	3.143254	1.064963	0.000126
1598	1.5890e+02	-16.3632	-63.389087	0.000152	1.520929	0.515305	0.000061
1599	1.5900e+02	-16.3199	-63.304307	0.000213	2.129301	0.721427	0.000085
1600	1.5910e+02	-16.2862	-63.191267	0.000284	2.839068	0.961902	0.000114
1601	1.5920e+02	-16.2429	-63.106487	0.000213	2.129301	0.721427	0.000085
1602	1.5930e+02	-16.2156	-62.997485	0.000274	2.737673	0.927549	0.000110
1603	1.5940e+02	-16.1739	-62.892519	0.000264	2.636278	0.893195	0.000105
1604	1.5950e+02	-16.1274	-62.815814	0.000193	1.926511	0.652719	0.000077
1605	1.5960e+02	-16.0985	-62.731034	0.000213	2.129301	0.721427	0.000085
1606	1.5970e+02	-16.0503	-62.605882	0.000314	3.143254	1.064963	0.000126
1607	1.5980e+02	-16.0135	-62.513028	0.000233	2.332092	0.790134	0.000093
1608	1.5990e+02	-15.9669	-62.420174	0.000233	2.332092	0.790134	0.000093
1609	1.6000e+02	-15.9268	-62.339431	0.000203	2.027906	0.687073	0.000081
1610	1.6010e+02	-15.8899	-62.238503	0.000253	2.534882	0.858841	0.000101
1611	1.6019e+02	-15.8498	-62.141612	0.000243	2.433487	0.824488	0.000097
1612	1.6029e+02	-15.8145	-62.008386	0.000335	3.346045	1.133671	0.000134
1613	1.6039e+02	-15.7664	-61.919569	0.000223	2.230696	0.755780	0.000089
1614	1.6049e+02	-15.7263	-61.802492	0.000294	2.940463	0.996256	0.000118
1615	1.6059e+02	-15.6830	-61.645044	0.000395	3.954416	1.339793	0.000158
1616	1.6069e+02	-15.6525	-61.596599	0.000122	1.216743	0.412244	0.000049
1617	1.6079e+02	-15.6172	-61.467410	0.000324	3.244649	1.099317	0.000130
1618	1.6089e+02	-15.5675	-61.394742	0.000183	1.825115	0.618366	0.000073
1619	1.6099e+02	-15.5322	-61.285739	0.000274	2.737673	0.927549	0.000110
1620	1.6109e+02	-15.4953	-61.188848	0.000243	2.433487	0.824488	0.000097
1621	1.6119e+02	-15.4488	-61.100031	0.000223	2.230696	0.755780	0.000089
1622	1.6129e+02	-15.4135	-61.019288	0.000203	2.027906	0.687073	0.000081
1623	1.6139e+02	-15.3750	-60.894137	0.000314	3.143254	1.064963	0.000126
1624	1.6149e+02	-15.3349	-60.805320	0.000223	2.230696	0.755780	0.000089
1625	1.6159e+02	-15.3060	-60.680169	0.000314	3.143254	1.064963	0.000126
1626	1.6169e+02	-15.2450	-60.559055	0.000304	3.041859	1.030610	0.000122
1627	1.6179e+02	-15.2145	-60.474275	0.000213	2.129301	0.721427	0.000085
1628	1.6189e+02	-15.1648	-60.401606	0.000183	1.825115	0.618366	0.000073
1629	1.6199e+02	-15.1247	-60.280492	0.000304	3.041859	1.030610	0.000122
1630	1.6209e+02	-15.0894	-60.163415	0.000294	2.940463	0.996256	0.000118
1631	1.6219e+02	-15.0557	-60.062487	0.000253	2.534882	0.858841	0.000101
1632	1.6228e+02	-15.0124	-59.941373	0.000304	3.041859	1.030610	0.000122
1633	1.6238e+02	-14.9723	-59.848519	0.000233	2.332092	0.790134	0.000093
1634	1.6248e+02	-14.9290	-59.715293	0.000335	3.346045	1.133671	0.000134
1635	1.6258e+02	-14.8873	-59.610328	0.000264	2.636278	0.893195	0.000105
1636	1.6268e+02	-14.8584	-59.497288	0.000284	2.839068	0.961902	0.000114
1637	1.6278e+02	-14.8071	-59.400397	0.000243	2.433487	0.824488	0.000097
1638	1.6288e+02	-14.7766	-59.303505	0.000243	2.433487	0.824488	0.000097
1639	1.6298e+02	-14.7397	-59.186428	0.000294	2.940463	0.996256	0.000118
1640	1.6308e+02	-14.6964	-59.093574	0.000233	2.332092	0.790134	0.000093
1641	1.6318e+02	-14.6643	-58.936126	0.000395	3.954416	1.339793	0.000158
1642	1.6328e+02	-14.6081	-58.895755	0.000101	1.013953	0.343537	0.000041
1643	1.6338e+02	-14.5729	-58.750418	0.000365	3.650230	1.236732	0.000146
1644	1.6348e+02	-14.5408	-58.661601	0.000223	2.230696	0.755780	0.000089
1645	1.6358e+02	-14.4910	-58.552598	0.000274	2.737673	0.927549	0.000110
1646	1.6368e+02	-14.4573	-58.447633	0.000264	2.636278	0.893195	0.000105
1647	1.6378e+02	-14.4092	-58.330556	0.000294	2.940463	0.996256	0.000118
1648	1.6388e+02	-14.3755	-58.265962	0.000162	1.622325	0.549658	0.000065
1649	1.6398e+02	-14.3370	-58.136773	0.000324	3.244649	1.099317	0.000130
1650	1.6408e+02	-14.2905	-58.031808	0.000264	2.636278	0.893195	0.000105
1651	1.6418e+02	-14.2552	-57.878397	0.000385	3.853021	1.305439	0.000154
1652	1.6427e+02	-14.2279	-57.773431	0.000264	2.636278	0.893195	0.000105
1653	1.6437e+02	-14.1846	-57.656354	0.000294	2.940463	0.996256	0.000118
1654	1.6447e+02	-14.1381	-57.555426	0.000253	2.534882	0.858841	0.000101
1655	1.6457e+02	-14.0980	-57.462572	0.000233	2.332092	0.790134	0.000093
1656	1.6467e+02	-14.0579	-57.284938	0.000446	4.461393	1.511561	0.000179
1657	1.6477e+02	-14.0194	-57.224381	0.000152	1.520929	0.515305	0.000061
1658	1.6487e+02	-13.9761	-57.127489	0.000243	2.433487	0.824488	0.000097
1659	1.6497e+02	-13.9312	-56.990227	0.000345	3.447440	1.168024	0.000138
1660	1.6507e+02	-13.8943	-56.877187	0.000284	2.839068	0.961902	0.000114
1661	1.6517e+02	-13.8638	-56.780296	0.000243	2.433487	0.824488	0.000097
1662	1.6527e+02	-13.8189	-56.699553	0.000203	2.027906	0.687073	0.000081
1663	1.6537e+02	-13.7723	-56.550179	0.000375	3.751626	1.271085	0.000150
1664	1.6547e+02	-13.7451	-56.433102	0.000294	2.940463	0.996256	0.000118
1665	1.6557e+02	-13.7018	-56.332174	0.000253	2.534882	0.858841	0.000101
1666	1.6567e+02	-13.6600	-56.247394	0.000213	2.129301	0.721427	0.000085
1667	1.6577e+02	-13.6215	-56.110131	0.000345	3.447440	1.168024	0.000138
1668	1.6587e+02	-13.5830	-55.989017	0.000304	3.041859	1.030610	0.000122
1669	1.6597e+02	-13.5333	-55.892126	0.000243	2.433487	0.824488	0.000097
1670	1.6607e+02	-13.4932	-55.742752	0.000375	3.751626	1.271085	0.000150
1671	1.6616e+02	-13.4531	-55.653935	0.000223	2.230696	0.755780	0.000089
1672	1.6626e+02	-13.4242	-55.536858	0.000294	2.940463	0.996256	0.000118
1673	1.6636e+02	-13.3777	-55.403632	0.000335	3.346045	1.133671	0.000134
1674	1.6646e+02	-13.3376	-55.266370	0.000345	3.447440	1.168024	0.000138
1675	1.6656e+02	-13.3007	-55.209850	0.000142	1.419534	0.480951	0.000057
1676	1.6666e+02	-13.2558	-55.040290	0.000426	4.258602	1.442853	0.000170
1677	1.6676e+02	-13.2157	-54.939362	0.000253	2.534882	0.858841	0.000101
1678	1.6686e+02	-13.1756	-54.830359	0.000274	2.737673	0.927549	0.000110
1679	1.6696e+02	-13.1387	-54.725393	0.000264	2.636278	0.893195	0.000105
1680	1.6706e+02	-13.1050	-54.588131	0.000345	3.447440	1.168024	0.000138
1681	1.6716e+02	-13.0617	-54.483165	0.000264	2.636278	0.893195	0.000105
1682	1.6726e+02	-13.0103	-54.358014	0.000314	3.143254	1.064963	0.000126
1683	1.6736e+02	-12.9766	-54.220752	0.000345	3.447440	1.168024	0.000138
1684	1.6746e+02	-12.9397	-54.140009	0.000203	2.027906	0.687073	0.000081
1685	1.6756e+02	-12.8916	-54.010820	0.000324	3.244649	1.099317	0.000130
1686	1.6766e+02	-12.8515	-53.905855	0.000264	2.636278	0.893195	0.000105
1687	1.6776e+02	-12.8178	-53.764555	0.000355	3.548835	1.202378	0.000142
1688	1.6786e+02	-12.7793	-53.643441	0.000304	3.041859	1.030610	0.000122
1689	1.6796e+02	-12.7360	-53.506179	0.000345	3.447440	1.168024	0.000138
1690	1.6806e+02	-12.7135	-53.421399	0.000213	2.129301	0.721427	0.000085
1691	1.6816e+02	-12.6606	-53.332582	0.000223	2.230696	0.755780	0.000089
1692	1.6825e+02	-12.6237	-53.167059	0.000416	4.157207	1.408500	0.000166
1693	1.6835e+02	-12.5916	-53.062094	0.000264	2.636278	0.893195	0.000105
1694	1.6845e+02	-12.5451	-52.936942	0.000314	3.143254	1.064963	0.000126
1695	1.6855e+02	-12.5130	-52.799680	0.000345	3.447440	1.168024	0.000138
1696	1.6865e+02	-12.4617	-52.731048	0.000172	1.723720	0.584012	0.000069
1697	1.6875e+02	-12.4296	-52.593786	0.000345	3.447440	1.168024	0.000138
1698	1.6885e+02	-12.3767	-52.509006	0.000213	2.129301	0.721427	0.000085
1699	1.6895e+02	-12.3478	-52.367706	0.000355	3.548835	1.202378	0.000142
1700	1.6905e+02	-12.3045	-52.254666	0.000284	2.839068	0.961902	0.000114
1701	1.6915e+02	-12.2612	-52.177961	0.000193	1.926511	0.652719	0.000077
1702	1.6925e+02	-12.2307	-52.048773	0.000324	3.244649	1.099317	0.000130
1703	1.6935e+02	-12.1825	-51.972067	0.000193	1.926511	0.652719	0.000077
1704	1.6945e+02	-12.1456	-51.826730	0.000365	3.650230	1.236732	0.000146
1705	1.6955e+02	-12.1104	-51.669282	0.000395	3.954416	1.339793	0.000158
1706	1.6965e+02	-12.0654	-51.564316	0.000264	2.636278	0.893195	0.000105
1707	1.6975e+02	-12.0317	-51.423016	0.000355	3.548835	1.202378	0.000142
1708	1.6985e+02	-11.9820	-51.322088	0.000253	2.534882	0.858841	0.000101
1709	1.6995e+02	-11.9483	-51.192900	0.000324	3.244649	1.099317	0.000130
1710	1.7005e+02	-11.9082	-51.055637	0.000345	3.447440	1.168024	0.000138
1711	1.7015e+02	-11.8777	-50.966820	0.000223	2.230696	0.755780	0.000089
1712	1.7024e+02	-11.8216	-50.813409	0.000385	3.853021	1.305439	0.000154
1713	1.7034e+02	-11.7847	-50.740741	0.000183	1.825115	0.618366	0.000073
1714	1.7044e+02	-11.7510	-50.615589	0.000314	3.143254	1.064963	0.000126
1715	1.7054e+02	-11.7061	-50.482364	0.000335	3.346045	1.133671	0.000134
1716	1.7064e+02	-11.6676	-50.381435	0.000253	2.534882	0.858841	0.000101
1717	1.7074e+02	-11.6275	-50.288581	0.000233	2.332092	0.790134	0.000093
1718	1.7084e+02	-11.5794	-50.139207	0.000375	3.751626	1.271085	0.000150
1719	1.7094e+02	-11.5553	-50.062502	0.000193	1.926511	0.652719	0.000077
1720	1.7104e+02	-11.5023	-49.945425	0.000294	2.940463	0.996256	0.000118
1721	1.7114e+02	-11.4671	-49.848534	0.000243	2.433487	0.824488	0.000097
1722	1.7124e+02	-11.4237	-49.711271	0.000345	3.447440	1.168024	0.000138
1723	1.7134e+02	-11.3884	-49.574008	0.000345	3.447440	1.168024	0.000138
1724	1.7144e+02	-11.3451	-49.432709	0.000355	3.548835	1.202378	0.000142
1725	1.7154e+02	-11.3066	-49.319669	0.000284	2.839068	0.961902	0.000114
1726	1.7164e+02	-11.2745	-49.247000	0.000183	1.825115	0.618366	0.000073
1727	1.7174e+02	-11.2409	-49.077441	0.000426	4.258602	1.442853	0.000170
1728	1.7184e+02	-11.1879	-48.980549	0.000243	2.433487	0.824488	0.000097
1729	1.7194e+02	-11.1510	-48.883658	0.000243	2.433487	0.824488	0.000097
1730	1.7204e+02	-11.1141	-48.726210	0.000395	3.954416	1.339793	0.000158
1731	1.7213e+02	-11.0644	-48.629319	0.000243	2.433487	0.824488	0.000097
1732	1.7223e+02	-11.0419	-48.548576	0.000203	2.027906	0.687073	0.000081
1733	1.7233e+02	-10.9970	-48.399202	0.000375	3.751626	1.271085	0.000150
1734	1.7243e+02	-10.9521	-48.274051	0.000314	3.143254	1.064963	0.000126
1735	1.7253e+02	-10.9072	-48.156974	0.000294	2.940463	0.996256	0.000118
1736	1.7263e+02	-10.8655	-48.060082	0.000243	2.433487	0.824488	0.000097
1737	1.7273e+02	-10.8270	-47.971265	0.000223	2.230696	0.755780	0.000089
1738	1.7283e+02	-10.7853	-47.866300	0.000264	2.636278	0.893195	0.000105
1739	1.7293e+02	-10.7516	-47.708852	0.000395	3.954416	1.339793	0.000158
1740	1.7303e+02	-10.7083	-47.615997	0.000233	2.332092	0.790134	0.000093
1741	1.7313e+02	-10.6714	-47.438363	0.000446	4.461393	1.511561	0.000179
1742	1.7323e+02	-10.6313	-47.305138	0.000335	3.346045	1.133671	0.000134
1743	1.7333e+02	-10.5960	-47.179987	0.000314	3.143254	1.064963	0.000126
1744	1.7343e+02	-10.5414	-47.062910	0.000294	2.940463	0.996256	0.000118
1745	1.7353e+02	-10.5109	-46.970056	0.000233	2.332092	0.790134	0.000093
1746	1.7363e+02	-10.4740	-46.808570	0.000406	4.055812	1.374146	0.000162
1747	1.7373e+02	-10.4307	-46.703605	0.000264	2.636278	0.893195	0.000105
1748	1.7383e+02	-10.4002	-46.538082	0.000416	4.157207	1.408500	0.000166
1749	1.7393e+02	-10.3505	-46.465414	0.000183	1.825115	0.618366	0.000073
1750	1.7403e+02	-10.3168	-46.388708	0.000193	1.926511	0.652719	0.000077
1751	1.7413e+02	-10.2799	-46.231260	0.000395	3.954416	1.339793	0.000158
1752	1.7422e+02	-10.2366	-46.085923	0.000365	3.650230	1.236732	0.000146
1753	1.7432e+02	-10.1869	-45.997106	0.000223	2.230696	0.755780	0.000089
1754	1.7442e+02	-10.1452	-45.880029	0.000294	2.940463	0.996256	0.000118
1755	1.7452e+02	-10.1211	-45.799286	0.000203	2.027906	0.687073	0.000081
1756	1.7462e+02	-10.0746	-45.678172	0.000304	3.041859	1.030610	0.000122
1757	1.7472e+02	-10.0249	-45.613578	0.000162	1.622325	0.549658	0.000065
1758	1.7482e+02	-9.9799	-45.460167	0.000385	3.853021	1.305439	0.000154
1759	1.7492e+02	-9.9527	-45.318867	0.000355	3.548835	1.202378	0.000142
1760	1.7502e+02	-9.9110	-45.169493	0.000375	3.751626	1.271085	0.000150
1761	1.7512e+02	-9.8789	-45.072602	0.000243	2.433487	0.824488	0.000097
1762	1.7522e+02	-9.8323	-44.927265	0.000365	3.650230	1.236732	0.000146
1763	1.7532e+02	-9.7906	-44.814225	0.000284	2.839068	0.961902	0.000114
1764	1.7542e+02	-9.7553	-44.697148	0.000294	2.940463	0.996256	0.000118
1765	1.7552e+02	-9.7152	-44.571997	0.000314	3.143254	1.064963	0.000126
1766	1.7562e+02	-9.6719	-44.450883	0.000304	3.041859	1.030610	0.000122
1767	1.7572e+02	-9.6254	-44.317658	0.000335	3.346045	1.133671	0.000134
1768	1.7582e+02	-9.6013	-44.196543	0.000304	3.041859	1.030610	0.000122
1769	1.7592e+02	-9.5452	-44.091578	0.000264	2.636278	0.893195	0.000105
1770	1.7602e+02	-9.5099	-43.962390	0.000324	3.244649	1.099317	0.000130
1771	1.7612e+02	-9.4666	-43.849350	0.000284	2.839068	0.961902	0.000114
1772	1.7621e+02	-9.4249	-43.724199	0.000314	3.143254	1.064963	0.000126
1773	1.7631e+02	-9.3928	-43.655567	0.000172	1.723720	0.584012	0.000069
1774	1.7641e+02	-9.3655	-43.498119	0.000395	3.954416	1.339793	0.000158
1775	1.7651e+02	-9.3190	-43.385079	0.000284	2.839068	0.961902	0.000114
1776	1.7661e+02	-9.2789	-43.308374	0.000193	1.926511	0.652719	0.000077
1777	1.7671e+02	-9.2372	-43.154962	0.000385	3.853021	1.305439	0.000154
1778	1.7681e+02	-9.2003	-43.017700	0.000345	3.447440	1.168024	0.000138
1779	1.7691e+02	-9.1489	-42.868326	0.000375	3.751626	1.271085	0.000150
1780	1.7701e+02	-9.1233	-42.731063	0.000345	3.447440	1.168024	0.000138
1781	1.7711e+02	-9.0784	-42.577652	0.000385	3.853021	1.305439	0.000154
1782	1.7721e+02	-9.0511	-42.460575	0.000294	2.940463	0.996256	0.000118
1783	1.7731e+02	-9.0014	-42.367721	0.000233	2.332092	0.790134	0.000093
1784	1.7741e+02	-8.9516	-42.234496	0.000335	3.346045	1.133671	0.000134
1785	1.7751e+02	-8.9227	-42.109344	0.000314	3.143254	1.064963	0.000126
1786	1.7761e+02	-8.8762	-41.972082	0.000345	3.447440	1.168024	0.000138
1787	1.7771e+02	-8.8441	-41.818671	0.000385	3.853021	1.305439	0.000154
1788	1.7781e+02	-8.7912	-41.709668	0.000274	2.737673	0.927549	0.000110
1789	1.7791e+02	-8.7607	-41.588554	0.000304	3.041859	1.030610	0.000122
1790	1.7801e+02	-8.7254	-41.491663	0.000243	2.433487	0.824488	0.000097
1791	1.7810e+02	-8.6805	-41.378623	0.000284	2.839068	0.961902	0.000114
1792	1.7820e+02	-8.6308	-41.273657	0.000264	2.636278	0.893195	0.000105
1793	1.7830e+02	-8.6003	-41.128320	0.000365	3.650230	1.236732	0.000146
1794	1.7840e+02	-8.5506	-40.946649	0.000456	4.562788	1.545914	0.000183
1795	1.7850e+02	-8.5249	-40.869944	0.000193	1.926511	0.652719	0.000077
1796	1.7860e+02	-8.4880	-40.716532	0.000385	3.853021	1.305439	0.000154
1797	1.7870e+02	-8.4367	-40.583307	0.000335	3.346045	1.133671	0.000134
1798	1.7880e+02	-8.4014	-40.413747	0.000426	4.258602	1.442853	0.000170
1799	1.7890e+02	-8.3597	-40.272448	0.000355	3.548835	1.202378	0.000142
1800	1.7900e+02	-8.3324	-40.139222	0.000335	3.346045	1.133671	0.000134
1801	1.7910e+02	-8.2827	-40.010034	0.000324	3.244649	1.099317	0.000130
1802	1.7920e+02	-8.2393	-39.901031	0.000274	2.737673	0.927549	0.000110
1803	1.7930e+02	-8.2057	-39.771843	0.000324	3.244649	1.099317	0.000130
1804	1.7940e+02	-8.1688	-39.626506	0.000365	3.650230	1.236732	0.000146
1805	1.7950e+02	-8.1238	-39.460983	0.000416	4.157207	1.408500	0.000166
1806	1.7960e+02	-8.0757	-39.343906	0.000294	2.940463	0.996256	0.000118
1807	1.7970e+02	-8.0452	-39.259126	0.000213	2.129301	0.721427	0.000085
1808	1.7980e+02	-7.9971	-39.150124	0.000274	2.737673	0.927549	0.000110
1809	1.7990e+02	-7.9618	-39.016898	0.000335	3.346045	1.133671	0.000134
1810	1.8000e+02	-7.9217	-38.855413	0.000406	4.055812	1.374146	0.000162
1811	1.8009e+02	-7.8784	-38.770633	0.000213	2.129301	0.721427	0.000085
1812	1.8019e+02	-7.8383	-38.609148	0.000406	4.055812	1.374146	0.000162
1813	1.8029e+02	-7.8078	-38.451699	0.000395	3.954416	1.339793	0.000158
1814	1.8039e+02	-7.7645	-38.318474	0.000335	3.346045	1.133671	0.000134
1815	1.8049e+02	-7.7196	-38.165063	0.000385	3.853021	1.305439	0.000154
1816	1.8059e+02	-7.6843	-38.023763	0.000355	3.548835	1.202378	0.000142
1817	1.8069e+02	-7.6474	-37.882463	0.000355	3.548835	1.202378	0.000142
1818	1.8079e+02	-7.6009	-37.753275	0.000324	3.244649	1.099317	0.000130
1819	1.8089e+02	-7.5640	-37.607938	0.000365	3.650230	1.236732	0.000146
1820	1.8099e+02	-7.5271	-37.478750	0.000324	3.244649	1.099317	0.000130
1821	1.8109e+02	-7.4918	-37.345524	0.000335	3.346045	1.133671	0.000134
1822	1.8119e+02	-7.4388	-37.171927	0.000436	4.359997	1.477207	0.000174
1823	1.8129e+02	-7.4019	-37.070999	0.000253	2.534882	0.858841	0.000101
1824	1.8139e+02	-7.3634	-36.957959	0.000284	2.839068	0.961902	0.000114
1825	1.8149e+02	-7.3137	-36.840882	0.000294	2.940463	0.996256	0.000118
1826	1.8159e+02	-7.2848	-36.699582	0.000355	3.548835	1.202378	0.000142
1827	1.8169e+02	-7.2479	-36.566357	0.000335	3.346045	1.133671	0.000134
1828	1.8179e+02	-7.1982	-36.445243	0.000304	3.041859	1.030610	0.000122
1829	1.8189e+02	-7.1693	-36.316055	0.000324	3.244649	1.099317	0.000130
1830	1.8199e+02	-7.1244	-36.142458	0.000436	4.359997	1.477207	0.000174
1831	1.8209e+02	-7.0779	-35.997121	0.000365	3.650230	1.236732	0.000146
1832	1.8218e+02	-7.0426	-35.876007	0.000304	3.041859	1.030610	0.000122
1833	1.8228e+02	-7.0041	-35.698373	0.000446	4.461393	1.511561	0.000179
1834	1.8238e+02	-6.9672	-35.544962	0.000385	3.853021	1.305439	0.000154
1835	1.8248e+02	-6.9239	-35.411736	0.000335	3.346045	1.133671	0.000134
1836	1.8258e+02	-6.8790	-35.282548	0.000324	3.244649	1.099317	0.000130
1837	1.8268e+02	-6.8469	-35.121062	0.000406	4.055812	1.374146	0.000162
1838	1.8278e+02	-6.8019	-35.012060	0.000274	2.737673	0.927549	0.000110
1839	1.8288e+02	-6.7667	-34.850574	0.000406	4.055812	1.374146	0.000162
1840	1.8298e+02	-6.7378	-34.709275	0.000355	3.548835	1.202378	0.000142
1841	1.8308e+02	-6.6929	-34.592198	0.000294	2.940463	0.996256	0.000118
1842	1.8318e+02	-6.6447	-34.410526	0.000456	4.562788	1.545914	0.000183
1843	1.8328e+02	-6.5982	-34.317672	0.000233	2.332092	0.790134	0.000093
1844	1.8338e+02	-6.5629	-34.192521	0.000314	3.143254	1.064963	0.000126
1845	1.8348e+02	-6.5308	-34.039110	0.000385	3.853021	1.305439	0.000154
1846	1.8358e+02	-6.4971	-33.897810	0.000355	3.548835	1.202378	0.000142
1847	1.8368e+02	-6.4474	-33.736325	0.000406	4.055812	1.374146	0.000162
1848	1.8378e+02	-6.4089	-33.599062	0.000345	3.447440	1.168024	0.000138
1849	1.8388e+02	-6.3784	-33.469874	0.000324	3.244649	1.099317	0.000130
1850	1.8398e+02	-6.3335	-33.316463	0.000385	3.853021	1.305439	0.000154
1851	1.8407e+02	-6.2838	-33.167089	0.000375	3.751626	1.271085	0.000150
1852	1.8417e+02	-6.2517	-33.017715	0.000375	3.751626	1.271085	0.000150
1853	1.8427e+02	-6.2148	-32.819895	0.000497	4.968369	1.683329	0.000199
1854	1.8437e+02	-6.1731	-32.674558	0.000365	3.650230	1.236732	0.000146
1855	1.8447e+02	-6.1314	-32.525184	0.000375	3.751626	1.271085	0.000150
1856	1.8457e+02	-6.0929	-32.428293	0.000243	2.433487	0.824488	0.000097
1857	1.8467e+02	-6.0544	-32.266807	0.000406	4.055812	1.374146	0.000162
1858	1.8477e+02	-6.0143	-32.157805	0.000274	2.737673	0.927549	0.000110
1859	1.8487e+02	-5.9694	-32.000356	0.000395	3.954416	1.339793	0.000158
1860	1.8497e+02	-5.9292	-31.899428	0.000253	2.534882	0.858841	0.000101
1861	1.8507e+02	-5.8956	-31.766203	0.000335	3.346045	1.133671	0.000134
1862	1.8517e+02	-5.8506	-31.584531	0.000456	4.562788	1.545914	0.000183
1863	1.8527e+02	-5.8153	-31.467455	0.000294	2.940463	0.996256	0.000118
1864	1.8537e+02	-5.7672	-31.362489	0.000264	2.636278	0.893195	0.000105
1865	1.8547e+02	-5.7351	-31.196966	0.000416	4.157207	1.408500	0.000166
1866	1.8557e+02	-5.6918	-31.003184	0.000487	4.866974	1.648975	0.000195
1867	1.8567e+02	-5.6501	-30.906293	0.000243	2.433487	0.824488	0.000097
1868	1.8577e+02	-5.6100	-30.764993	0.000355	3.548835	1.202378	0.000142
1869	1.8587e+02	-5.5699	-30.599470	0.000416	4.157207	1.408500	0.000166
1870	1.8597e+02	-5.5346	-30.385502	0.000537	5.373950	1.820744	0.000215
1871	1.8606e+02	-5.4977	-30.280537	0.000264	2.636278	0.893195	0.000105
1872	1.8616e+02	-5.4496	-30.123088	0.000395	3.954416	1.339793	0.000158
1873	1.8626e+02	-5.4239	-29.989863	0.000335	3.346045	1.133671	0.000134
1874	1.8636e+02	-5.3790	-29.816266	0.000436	4.359997	1.477207	0.000174
1875	1.8646e+02	-5.3405	-29.683041	0.000335	3.346045	1.133671	0.000134
1876	1.8656e+02	-5.2908	-29.561926	0.000304	3.041859	1.030610	0.000122
1877	1.8666e+02	-5.2571	-29.412552	0.000375	3.751626	1.271085	0.000150
1878	1.8676e+02	-5.2154	-29.283364	0.000324	3.244649	1.099317	0.000130
1879	1.8686e+02	-5.1769	-29.174361	0.000274	2.737673	0.927549	0.000110
1880	1.8696e+02	-5.1319	-29.057284	0.000294	2.940463	0.996256	0.000118
1881	1.8706e+02	-5.0966	-28.907910	0.000375	3.751626	1.271085	0.000150
1882	1.8716e+02	-5.0549	-28.754499	0.000385	3.853021	1.305439	0.000154
1883	1.8726e+02	-5.0132	-28.637422	0.000294	2.940463	0.996256	0.000118
1884	1.8736e+02	-4.9667	-28.455751	0.000456	4.562788	1.545914	0.000183
1885	1.8746e+02	-4.9266	-28.314451	0.000355	3.548835	1.202378	0.000142
1886	1.8756e+02	-4.8945	-28.157003	0.000395	3.954416	1.339793	0.000158
1887	1.8766e+02	-4.8512	-28.019741	0.000345	3.447440	1.168024	0.000138
1888	1.8776e+02	-4.8223	-27.842107	0.000446	4.461393	1.511561	0.000179
1889	1.8786e+02	-4.7678	-27.688695	0.000385	3.853021	1.305439	0.000154
1890	1.8796e+02	-4.7421	-27.543359	0.000365	3.650230	1.236732	0.000146
1891	1.8806e+02	-4.6940	-27.406096	0.000345	3.447440	1.168024	0.000138
1892	1.8815e+02	-4.6619	-27.236536	0.000426	4.258602	1.442853	0.000170
1893	1.8825e+02	-4.6090	-27.115422	0.000304	3.041859	1.030610	0.000122
1894	1.8835e+02	-4.5817	-26.986234	0.000324	3.244649	1.099317	0.000130
1895	1.8845e+02	-4.5416	-26.828786	0.000395	3.954416	1.339793	0.000158
1896	1.8855e+02	-4.4935	-26.752080	0.000193	1.926511	0.652719	0.000077
1897	1.8865e+02	-4.4534	-26.558297	0.000487	4.866974	1.648975	0.000195
1898	1.8875e+02	-4.4132	-26.421035	0.000345	3.447440	1.168024	0.000138
1899	1.8885e+02	-4.3763	-26.283772	0.000345	3.447440	1.168024	0.000138
1900	1.8895e+02	-4.3346	-26.174770	0.000274	2.737673	0.927549	0.000110
1901	1.8905e+02	-4.3009	-25.985024	0.000477	4.765579	1.614622	0.000191
1902	1.8915e+02	-4.2592	-25.880059	0.000264	2.636278	0.893195	0.000105
1903	1.8925e+02	-4.2143	-25.710499	0.000426	4.258602	1.442853	0.000170
1904	1.8935e+02	-4.1758	-25.581311	0.000324	3.244649	1.099317	0.000130
1905	1.8945e+02	-4.1389	-25.440011	0.000355	3.548835	1.202378	0.000142
1906	1.8955e+02	-4.0972	-25.230080	0.000527	5.272555	1.786390	0.000211
1907	1.8965e+02	-4.0603	-25.056483	0.000436	4.359997	1.477207	0.000174
1908	1.8975e+02	-4.0250	-24.947480	0.000274	2.737673	0.927549	0.000110
1909	1.8985e+02	-3.9833	-24.777921	0.000426	4.258602	1.442853	0.000170
1910	1.8995e+02	-3.9400	-24.616435	0.000406	4.055812	1.374146	0.000162
1911	1.9004e+02	-3.9015	-24.471098	0.000365	3.650230	1.236732	0.000146
1912	1.9014e+02	-3.8486	-24.341910	0.000324	3.244649	1.099317	0.000130
1913	1.9024e+02	-3.8149	-24.216759	0.000314	3.143254	1.064963	0.000126
1914	1.9034e+02	-3.7732	-24.127942	0.000223	2.230696	0.755780	0.000089
1915	1.9044e+02	-3.7427	-23.930122	0.000497	4.968369	1.683329	0.000199
1916	1.9054e+02	-3.6849	-23.792859	0.000345	3.447440	1.168024	0.000138
1917	1.9064e+02	-3.6577	-23.627337	0.000416	4.157207	1.408500	0.000166
1918	1.9074e+02	-3.6208	-23.510260	0.000294	2.940463	0.996256	0.000118
1919	1.9084e+02	-3.5774	-23.372997	0.000345	3.447440	1.168024	0.000138
1920	1.9094e+02	-3.5389	-23.227660	0.000365	3.650230	1.236732	0.000146
1921	1.9104e+02	-3.4972	-23.074249	0.000385	3.853021	1.305439	0.000154
1922	1.9114e+02	-3.4523	-22.928912	0.000365	3.650230	1.236732	0.000146
1923	1.9124e+02	-3.4282	-22.795687	0.000335	3.346045	1.133671	0.000134
1924	1.9134e+02	-3.3881	-22.589793	0.000517	5.171160	1.752036	0.000207
1925	1.9144e+02	-3.3448	-22.436382	0.000385	3.853021	1.305439	0.000154
1926	1.9154e+02	-3.2903	-22.303156	0.000335	3.346045	1.133671	0.000134
1927	1.9164e+02	-3.2582	-22.133597	0.000426	4.258602	1.442853	0.000170
1928	1.9174e+02	-3.2277	-21.988260	0.000365	3.650230	1.236732	0.000146
1929	1.9184e+02	-3.1812	-21.850997	0.000345	3.447440	1.168024	0.000138
1930	1.9194e+02	-3.1443	-21.697586	0.000385	3.853021	1.305439	0.000154
1931	1.9203e+02	-3.0994	-21.564361	0.000335	3.346045	1.133671	0.000134
1932	1.9213e+02	-3.0609	-21.467469	0.000243	2.433487	0.824488	0.000097
1933	1.9223e+02	-3.0224	-21.338281	0.000324	3.244649	1.099317	0.000130
1934	1.9233e+02	-2.9839	-21.156610	0.000456	4.562788	1.545914	0.000183
1935	1.9243e+02	-2.9454	-21.047607	0.000274	2.737673	0.927549	0.000110
1936	1.9253e+02	-2.8972	-20.841713	0.000517	5.171160	1.752036	0.000207
1937	1.9263e+02	-2.8555	-20.712525	0.000324	3.244649	1.099317	0.000130
1938	1.9273e+02	-2.8186	-20.555077	0.000395	3.954416	1.339793	0.000158
1939	1.9283e+02	-2.7833	-20.413777	0.000355	3.548835	1.202378	0.000142
1940	1.9293e+02	-2.7464	-20.288626	0.000314	3.143254	1.064963	0.000126
1941	1.9303e+02	-2.7031	-20.062546	0.000568	5.678136	1.923805	0.000227
1942	1.9313e+02	-2.6614	-19.957581	0.000264	2.636278	0.893195	0.000105
1943	1.9323e+02	-2.6261	-19.743612	0.000537	5.373950	1.820744	0.000215
1944	1.9333e+02	-2.5860	-19.614424	0.000324	3.244649	1.099317	0.000130
1945	1.9343e+02	-2.5443	-19.465050	0.000375	3.751626	1.271085	0.000150
1946	1.9353e+02	-2.5010	-19.307602	0.000395	3.954416	1.339793	0.000158
1947	1.9363e+02	-2.4625	-19.129968	0.000446	4.461393	1.511561	0.000179
1948	1.9373e+02	-2.4176	-18.988668	0.000355	3.548835	1.202378	0.000142
1949	1.9383e+02	-2.3887	-18.843331	0.000365	3.650230	1.236732	0.000146
1950	1.9393e+02	-2.3374	-18.722217	0.000304	3.041859	1.030610	0.000122
1951	1.9403e+02	-2.2989	-18.572843	0.000375	3.751626	1.271085	0.000150
1952	1.9412e+02	-2.2748	-18.451729	0.000304	3.041859	1.030610	0.000122
1953	1.9422e+02	-2.2235	-18.302355	0.000375	3.751626	1.271085	0.000150
1954	1.9432e+02	-2.1930	-18.116647	0.000466	4.664183	1.580268	0.000187
1955	1.9442e+02	-2.1497	-17.939013	0.000446	4.461393	1.511561	0.000179
1956	1.9452e+02	-2.1048	-17.773490	0.000416	4.157207	1.408500	0.000166
1957	1.9462e+02	-2.0695	-17.648339	0.000314	3.143254	1.064963	0.000126
1958	1.9472e+02	-2.0342	-17.515113	0.000335	3.346045	1.133671	0.000134
1959	1.9482e+02	-1.9844	-17.337479	0.000446	4.461393	1.511561	0.000179
1960	1.9492e+02	-1.9491	-17.143697	0.000487	4.866974	1.648975	0.000195
1961	1.9502e+02	-1.9026	-17.010471	0.000335	3.346045	1.133671	0.000134
1962	1.9512e+02	-1.8641	-16.780355	0.000578	5.779532	1.958158	0.000231
1963	1.9522e+02	-1.8240	-16.675389	0.000264	2.636278	0.893195	0.000105
1964	1.9532e+02	-1.7935	-16.481607	0.000487	4.866974	1.648975	0.000195
1965	1.9542e+02	-1.7406	-16.348381	0.000335	3.346045	1.133671	0.000134
1966	1.9552e+02	-1.7005	-16.170747	0.000446	4.461393	1.511561	0.000179
1967	1.9562e+02	-1.6652	-16.037522	0.000335	3.346045	1.133671	0.000134
1968	1.9572e+02	-1.6251	-15.908333	0.000324	3.244649	1.099317	0.000130
1969	1.9582e+02	-1.5930	-15.762996	0.000365	3.650230	1.236732	0.000146
1970	1.9592e+02	-1.5497	-15.581325	0.000456	4.562788	1.545914	0.000183
1971	1.9601e+02	-1.5112	-15.480397	0.000253	2.534882	0.858841	0.000101
1972	1.9611e+02	-1.4727	-15.278540	0.000507	5.069764	1.717683	0.000203
1973	1.9621e+02	-1.4262	-15.129166	0.000375	3.751626	1.271085	0.000150
1974	1.9631e+02	-1.3828	-14.939421	0.000477	4.765579	1.614622	0.000191
1975	1.9641e+02	-1.3508	-14.838492	0.000253	2.534882	0.858841	0.000101
1976	1.9651e+02	-1.3171	-14.652784	0.000466	4.664183	1.580268	0.000187
1977	1.9661e+02	-1.2706	-14.479187	0.000436	4.359997	1.477207	0.000174
1978	1.9671e+02	-1.2304	-14.329813	0.000375	3.751626	1.271085	0.000150
1979	1.9681e+02	-1.2016	-14.123919	0.000517	5.171160	1.752036	0.000207
1980	1.9691e+02	-1.1470	-13.942248	0.000456	4.562788	1.545914	0.000183
1981	1.9701e+02	-1.1069	-13.756540	0.000466	4.664183	1.580268	0.000187
1982	1.9711e+02	-1.0684	-13.578906	0.000446	4.461393	1.511561	0.000179
1983	1.9721e+02	-1.0363	-13.445681	0.000335	3.346045	1.133671	0.000134
1984	1.9731e+02	-0.9946	-13.296307	0.000375	3.751626	1.271085	0.000150
1985	1.9741e+02	-0.9433	-13.159044	0.000345	3.447440	1.168024	0.000138
1986	1.9751e+02	-0.9048	-12.997559	0.000406	4.055812	1.374146	0.000162
1987	1.9761e+02	-0.8695	-12.815887	0.000456	4.562788	1.545914	0.000183
1988	1.9771e+02	-0.8310	-12.710922	0.000264	2.636278	0.893195	0.000105
1989	1.9781e+02	-0.7941	-12.488879	0.000558	5.576741	1.889451	0.000223
1990	1.9791e+02	-0.7492	-12.371802	0.000294	2.940463	0.996256	0.000118
1991	1.9800e+02	-0.7027	-12.210317	0.000406	4.055812	1.374146	0.000162
1992	1.9810e+02	-0.6738	-12.044794	0.000416	4.157207	1.408500	0.000166
1993	1.9820e+02	-0.6353	-11.899458	0.000365	3.650230	1.236732	0.000146
1994	1.9830e+02	-0.5968	-11.709712	0.000477	4.765579	1.614622	0.000191
1995	1.9840e+02	-0.5567	-11.568412	0.000355	3.548835	1.202378	0.000142
1996	1.9850e+02	-0.5085	-11.398853	0.000426	4.258602	1.442853	0.000170
1997	1.9860e+02	-0.4700	-11.160662	0.000598	5.982322	2.026866	0.000239
1998	1.9870e+02	-0.4331	-11.015325	0.000365	3.650230	1.236732	0.000146
1999	1.9880e+02	-0.3995	-10.825579	0.000477	4.765579	1.614622	0.000191
2000	1.9890e+02	-0.3481	-10.704465	0.000304	3.041859	1.030610	0.000122
2001	1.9900e+02	-0.3208	-10.506646	0.000497	4.968369	1.683329	0.000199
2002	1.9910e+02	-0.2759	-10.337086	0.000426	4.258602	1.442853	0.000170
2003	1.9920e+02	-0.2326	-10.191749	0.000365	3.650230	1.236732	0.000146
2004	1.9930e+02	-0.1893	-10.046412	0.000365	3.650230	1.236732	0.000146
2005	1.9940e+02	-0.1492	-9.856667	0.000477	4.765579	1.614622	0.000191
2006	1.9950e+02	-0.1139	-9.751701	0.000264	2.636278	0.893195	0.000105
2007	1.9960e+02	-0.0738	-9.561956	0.000477	4.765579	1.614622	0.000191
2008	1.9970e+02	-0.0401	-9.372211	0.000477	4.765579	1.614622	0.000191
2009	1.9980e+02	-0.0016	-9.230911	0.000477	4.765579	1.614622	0.000142

PMax (uC/cm2):	7.82e+01
Pr (uC/cm2):	5.94e+00
-Pr (uC/cm2):	-2.17e+00
PLoss (uC/cm2):	-2.20e+00
-Vc:	-1.50e+00
C (Max-Eff) (nF):	3.91e-01
K (Eff):	1.33e+03
Vert. (+/-Pr) Shift (uC/cm2):	1.88e+00
Offset (uC/cm2):	7.06e+00

A (Loop Area - uC/cm2·Volts):	1.66e-03



Hysteresis Version: 5.48.1 - Radiant Technologies, Inc., 1999 - 9/12/24

