»»»»»»»»»»»»»»»»»»»»»»»»»»»»»»»»»»»» Hysteresis ««««««««««««««««««««««««««««««««««««
»»»  Executed Version:	5.48.1
»»»  Vision Version:	5.48.4 (R)
»»»  Vision Compiled:	9/18/24
»»»  Driver Version:	5.47.0
»»»  Windows Version:	Windows 8 or 8.1
»»»  Processor Information:	x86 (AMD or Intel) - 32 Processors
»»»  Tester Name:	PMF21124-494 (100V)
»»»  Tester S/N:	PMF21124-494
»»»  Internal Amp Type:	100V RevK 270k
»»»  Internal Amp S/N:	iAB2-596/K     
»»»  Execution Count:	1
»»»»»»»»»»»»»»»»»»»»»»»»»»»»»»»»»»»»»»»»»»««««««««««««««««««««««««««««««««««««««««««

Stored:	6/19/2025 - 20:35:43
Configured:	06/19/25 10:04:32 AM
Executed:	06/19/25 08:34:47 PM

»»»»»»»»»»»»»»»»»»»»»»»»»»»»»»»»»»» Sample Info ««««««««««««««««««««««««««««««««««««
Sample Name:	
Lot Name:	
Wafer Name:	
Die Row/Column:	0/0
Capacitor Number:	0
Sample Area (cm2):	1.00e-04
Sample Thickness (microns):	3.00e-01

Amplifier:	Internal

»»»»»»»»»»»»»»»»»»»»»»»»»»»»»»»»»»» Tester Info «««««««««««««««««««««««««««««««««««
Tester Name:	PMF21124-494 (100V)
Tester Serial Number:	PMF21124-494
Return Signal Amp. Level:	0.19 [Index: 3]

»»»»»»»»»»»»»»»»»»»»»»»»»»»»»»»» Hysteresis Info ««««««««««««««««««««««««««««««««««
Task Name:	Hyst-1168
Volts:	20.00
Field:	666.67 (kV/cm)
DCBias:	0.00
DCField:	0.00 (kV/cm)
Hysteresis Period (ms):	2.00e+02
Preset:	Enabled
Preset Delay (ms):	1.00e+03
Profile:	Standard Bipolar

»»»»»»»»»»»»»»»»»»»»»»»»»»»»»»»»»»»»»» Data «««««««««««««««««««««««««««««««««««««««
Points:	2009

Valid Data

Point	Time (ms)	Drive Voltage	Measured Polarization (uC/cm2)	Capacitance (uF)	Normalized Capacitance (uF/cm2)	Dielectric Constant	Instantaneous Current (mA)
   1	0.0000e+00	0.0128	-7.472738	0.000264	2.636225	0.893177	0.000105
   2	9.9500e-02	0.0353	-7.367773	0.000264	2.636225	0.893177	0.000105
   3	1.9900e-01	0.0802	-7.242622	0.000314	3.143191	1.064942	0.000126
   4	2.9850e-01	0.1171	-7.060950	0.000456	4.562696	1.545883	0.000183
   5	3.9800e-01	0.1540	-6.939836	0.000304	3.041798	1.030589	0.000122
   6	4.9750e-01	0.1877	-6.766239	0.000436	4.359910	1.477177	0.000174
   7	5.9700e-01	0.2471	-6.645125	0.000304	3.041798	1.030589	0.000122
   8	6.9650e-01	0.2711	-6.491714	0.000385	3.852944	1.305413	0.000154
   9	7.9600e-01	0.3112	-6.289857	0.000507	5.069663	1.717648	0.000203
  10	8.9550e-01	0.3577	-6.184892	0.000264	2.636225	0.893177	0.000105
  11	9.9500e-01	0.4043	-6.043592	0.000355	3.548764	1.202354	0.000142
  12	1.0945e+00	0.4396	-5.890181	0.000385	3.852944	1.305413	0.000154
  13	1.1940e+00	0.4845	-5.720621	0.000426	4.258517	1.442825	0.000170
  14	1.2935e+00	0.5214	-5.555099	0.000416	4.157123	1.408472	0.000166
  15	1.3930e+00	0.5551	-5.466282	0.000223	2.230652	0.755765	0.000089
  16	1.4925e+00	0.5888	-5.268462	0.000497	4.968270	1.683295	0.000199
  17	1.5920e+00	0.6273	-5.143311	0.000314	3.143191	1.064942	0.000126
  18	1.6915e+00	0.6754	-4.961640	0.000456	4.562696	1.545883	0.000183
  19	1.7910e+00	0.7059	-4.816303	0.000365	3.650157	1.236707	0.000146
  20	1.8905e+00	0.7540	-4.691152	0.000314	3.143191	1.064942	0.000126
  21	1.9900e+00	0.8021	-4.533703	0.000395	3.954337	1.339766	0.000158
  22	2.0895e+00	0.8422	-4.372218	0.000406	4.055730	1.374119	0.000162
  23	2.1890e+00	0.8775	-4.198621	0.000436	4.359910	1.477177	0.000174
  24	2.2885e+00	0.9144	-4.065396	0.000335	3.345977	1.133648	0.000134
  25	2.3880e+00	0.9577	-3.895836	0.000426	4.258517	1.442825	0.000170
  26	2.4875e+00	0.9914	-3.742425	0.000385	3.852944	1.305413	0.000154
  27	2.5870e+00	1.0299	-3.601125	0.000355	3.548764	1.202354	0.000142
  28	2.6865e+00	1.0796	-3.455788	0.000365	3.650157	1.236707	0.000146
  29	2.7860e+00	1.1182	-3.282191	0.000436	4.359910	1.477177	0.000174
  30	2.8855e+00	1.1486	-3.132817	0.000375	3.751550	1.271060	0.000150
  31	2.9850e+00	1.1887	-2.955183	0.000446	4.461303	1.511530	0.000179
  32	3.0845e+00	1.2272	-2.801772	0.000385	3.852944	1.305413	0.000154
  33	3.1840e+00	1.2770	-2.692770	0.000274	2.737618	0.927530	0.000110
  34	3.2835e+00	1.3123	-2.498987	0.000487	4.866876	1.648942	0.000195
  35	3.3830e+00	1.3492	-2.325390	0.000436	4.359910	1.477177	0.000174
  36	3.4825e+00	1.3973	-2.184090	0.000355	3.548764	1.202354	0.000142
  37	3.5820e+00	1.4358	-2.042791	0.000355	3.548764	1.202354	0.000142
  38	3.6815e+00	1.4759	-1.865157	0.000446	4.461303	1.511530	0.000179
  39	3.7810e+00	1.5160	-1.699634	0.000416	4.157123	1.408472	0.000166
  40	3.8805e+00	1.5417	-1.534112	0.000416	4.157123	1.408472	0.000166
  41	3.9800e+00	1.5850	-1.404923	0.000324	3.244584	1.099295	0.000130
  42	4.0795e+00	1.6331	-1.215178	0.000477	4.765483	1.614589	0.000191
  43	4.1790e+00	1.6716	-1.037544	0.000446	4.461303	1.511530	0.000179
  44	4.2785e+00	1.7069	-0.916430	0.000304	3.041798	1.030589	0.000122
  45	4.3780e+00	1.7614	-0.750907	0.000416	4.157123	1.408472	0.000166
  46	4.4775e+00	1.7951	-0.573273	0.000446	4.461303	1.511530	0.000179
  47	4.5770e+00	1.8208	-0.444085	0.000324	3.244584	1.099295	0.000130
  48	4.6765e+00	1.8721	-0.286637	0.000395	3.954337	1.339766	0.000158
  49	4.7760e+00	1.9058	-0.137263	0.000375	3.751550	1.271060	0.000150
  50	4.8755e+00	1.9524	0.060557	0.000497	4.968270	1.683295	0.000199
  51	4.9750e+00	1.9860	0.230117	0.000426	4.258517	1.442825	0.000170
  52	5.0745e+00	2.0406	0.387565	0.000395	3.954337	1.339766	0.000158
  53	5.1740e+00	2.0679	0.553088	0.000416	4.157123	1.408472	0.000166
  54	5.2735e+00	2.1048	0.690350	0.000345	3.447371	1.168001	0.000138
  55	5.3730e+00	2.1561	0.888170	0.000497	4.968270	1.683295	0.000199
  56	5.4725e+00	2.1834	1.029470	0.000355	3.548764	1.202354	0.000142
  57	5.5720e+00	2.2331	1.178844	0.000375	3.751550	1.271060	0.000150
  58	5.6715e+00	2.2668	1.344366	0.000416	4.157123	1.408472	0.000166
  59	5.7710e+00	2.3101	1.517963	0.000436	4.359910	1.477177	0.000174
  60	5.8705e+00	2.3582	1.687523	0.000426	4.258517	1.442825	0.000170
  61	5.9700e+00	2.3791	1.844971	0.000395	3.954337	1.339766	0.000158
  62	6.0695e+00	2.4320	2.034716	0.000477	4.765483	1.614589	0.000191
  63	6.1690e+00	2.4705	2.155830	0.000304	3.041798	1.030589	0.000122
  64	6.2685e+00	2.5106	2.357687	0.000507	5.069663	1.717648	0.000203
  65	6.3680e+00	2.5411	2.498987	0.000355	3.548764	1.202354	0.000142
  66	6.4675e+00	2.5892	2.656435	0.000395	3.954337	1.339766	0.000158
  67	6.5670e+00	2.6261	2.866366	0.000527	5.272449	1.786354	0.000211
  68	6.6665e+00	2.6678	3.007666	0.000355	3.548764	1.202354	0.000142
  69	6.7660e+00	2.7128	3.140892	0.000335	3.345977	1.133648	0.000134
  70	6.8655e+00	2.7464	3.298340	0.000395	3.954337	1.339766	0.000158
  71	6.9650e+00	2.7817	3.508271	0.000527	5.272449	1.786354	0.000211
  72	7.0645e+00	2.8283	3.677831	0.000426	4.258517	1.442825	0.000170
  73	7.1640e+00	2.8668	3.823168	0.000365	3.650157	1.236707	0.000146
  74	7.2635e+00	2.9053	3.984653	0.000406	4.055730	1.374119	0.000162
  75	7.3630e+00	2.9486	4.142101	0.000395	3.954337	1.339766	0.000158
  76	7.4625e+00	2.9855	4.323772	0.000456	4.562696	1.545883	0.000183
  77	7.5620e+00	3.0240	4.473146	0.000375	3.751550	1.271060	0.000150
  78	7.6615e+00	3.0609	4.634632	0.000406	4.055730	1.374119	0.000162
  79	7.7610e+00	3.1122	4.820340	0.000466	4.664090	1.580236	0.000187
  80	7.8605e+00	3.1443	4.957603	0.000345	3.447371	1.168001	0.000138
  81	7.9600e+00	3.1796	5.179645	0.000558	5.576629	1.889413	0.000223
  82	8.0595e+00	3.2229	5.320945	0.000355	3.548764	1.202354	0.000142
  83	8.1590e+00	3.2582	5.514727	0.000487	4.866876	1.648942	0.000195
  84	8.2585e+00	3.2999	5.676213	0.000406	4.055730	1.374119	0.000162
  85	8.3580e+00	3.3464	5.841735	0.000416	4.157123	1.408472	0.000166
  86	8.4575e+00	3.3897	6.023407	0.000456	4.562696	1.545883	0.000183
  87	8.5570e+00	3.4234	6.172781	0.000375	3.751550	1.271060	0.000150
  88	8.6565e+00	3.4603	6.346377	0.000436	4.359910	1.477177	0.000174
  89	8.7560e+00	3.5117	6.507863	0.000406	4.055730	1.374119	0.000162
  90	8.8555e+00	3.5373	6.685497	0.000446	4.461303	1.511530	0.000179
  91	8.9550e+00	3.5855	6.826797	0.000355	3.548764	1.202354	0.000142
  92	9.0545e+00	3.6127	7.024616	0.000497	4.968270	1.683295	0.000199
  93	9.1540e+00	3.6609	7.182064	0.000395	3.954337	1.339766	0.000158
  94	9.2535e+00	3.7026	7.335476	0.000385	3.852944	1.305413	0.000154
  95	9.3530e+00	3.7491	7.521184	0.000466	4.664090	1.580236	0.000187
  96	9.4525e+00	3.7716	7.682669	0.000406	4.055730	1.374119	0.000162
  97	9.5520e+00	3.8197	7.840118	0.000395	3.954337	1.339766	0.000158
  98	9.6515e+00	3.8550	8.050049	0.000527	5.272449	1.786354	0.000211
  99	9.7510e+00	3.8999	8.183274	0.000335	3.345977	1.133648	0.000134
 100	9.8505e+00	3.9432	8.385131	0.000507	5.069663	1.717648	0.000203
 101	9.9500e+00	3.9881	8.566802	0.000456	4.562696	1.545883	0.000183
 102	1.0050e+01	4.0250	8.712139	0.000365	3.650157	1.236707	0.000146
 103	1.0149e+01	4.0603	8.881699	0.000426	4.258517	1.442825	0.000170
 104	1.0248e+01	4.1020	9.035110	0.000385	3.852944	1.305413	0.000154
 105	1.0348e+01	4.1453	9.204669	0.000426	4.258517	1.442825	0.000170
 106	1.0447e+01	4.1870	9.337895	0.000335	3.345977	1.133648	0.000134
 107	1.0547e+01	4.2207	9.539752	0.000507	5.069663	1.717648	0.000203
 108	1.0646e+01	4.2576	9.709311	0.000426	4.258517	1.442825	0.000170
 109	1.0746e+01	4.2977	9.911168	0.000507	5.069663	1.717648	0.000203
 110	1.0845e+01	4.3394	10.064579	0.000385	3.852944	1.305413	0.000154
 111	1.0945e+01	4.3828	10.230102	0.000416	4.157123	1.408472	0.000166
 112	1.1044e+01	4.4197	10.415810	0.000466	4.664090	1.580236	0.000187
 113	1.1144e+01	4.4517	10.561147	0.000365	3.650157	1.236707	0.000146
 114	1.1243e+01	4.4935	10.746855	0.000466	4.664090	1.580236	0.000187
 115	1.1343e+01	4.5352	10.884118	0.000345	3.447371	1.168001	0.000138
 116	1.1443e+01	4.5785	11.090012	0.000517	5.171056	1.752001	0.000207
 117	1.1542e+01	4.6122	11.223237	0.000335	3.345977	1.133648	0.000134
 118	1.1642e+01	4.6539	11.388760	0.000416	4.157123	1.408472	0.000166
 119	1.1741e+01	4.7020	11.550245	0.000406	4.055730	1.374119	0.000162
 120	1.1841e+01	4.7453	11.723842	0.000436	4.359910	1.477177	0.000174
 121	1.1940e+01	4.7870	11.873216	0.000375	3.751550	1.271060	0.000150
 122	1.2040e+01	4.8271	12.079110	0.000517	5.171056	1.752001	0.000207
 123	1.2139e+01	4.8592	12.236558	0.000395	3.954337	1.339766	0.000158
 124	1.2239e+01	4.8961	12.385932	0.000375	3.751550	1.271060	0.000150
 125	1.2338e+01	4.9346	12.571641	0.000466	4.664090	1.580236	0.000187
 126	1.2438e+01	4.9747	12.716978	0.000365	3.650157	1.236707	0.000146
 127	1.2537e+01	5.0212	12.894612	0.000446	4.461303	1.511530	0.000179
 128	1.2636e+01	5.0565	13.076283	0.000456	4.562696	1.545883	0.000183
 129	1.2736e+01	5.0950	13.225657	0.000375	3.751550	1.271060	0.000150
 130	1.2835e+01	5.1400	13.383105	0.000395	3.954337	1.339766	0.000158
 131	1.2935e+01	5.1753	13.532479	0.000375	3.751550	1.271060	0.000150
 132	1.3034e+01	5.2186	13.734336	0.000507	5.069663	1.717648	0.000203
 133	1.3134e+01	5.2603	13.903895	0.000426	4.258517	1.442825	0.000170
 134	1.3233e+01	5.2876	14.065381	0.000406	4.055730	1.374119	0.000162
 135	1.3333e+01	5.3341	14.238978	0.000436	4.359910	1.477177	0.000174
 136	1.3432e+01	5.3838	14.376240	0.000345	3.447371	1.168001	0.000138
 137	1.3532e+01	5.4127	14.525614	0.000375	3.751550	1.271060	0.000150
 138	1.3632e+01	5.4544	14.715360	0.000477	4.765483	1.614589	0.000191
 139	1.3731e+01	5.5025	14.872808	0.000395	3.954337	1.339766	0.000158
 140	1.3831e+01	5.5394	15.054479	0.000456	4.562696	1.545883	0.000183
 141	1.3930e+01	5.5843	15.224039	0.000426	4.258517	1.442825	0.000170
 142	1.4030e+01	5.6180	15.397636	0.000436	4.359910	1.477177	0.000174
 143	1.4129e+01	5.6565	15.563158	0.000416	4.157123	1.408472	0.000166
 144	1.4229e+01	5.6934	15.732718	0.000426	4.258517	1.442825	0.000170
 145	1.4328e+01	5.7367	15.845758	0.000284	2.839011	0.961883	0.000114
 146	1.4428e+01	5.7768	16.011280	0.000416	4.157123	1.408472	0.000166
 147	1.4527e+01	5.8137	16.209100	0.000497	4.968270	1.683295	0.000199
 148	1.4627e+01	5.8554	16.354437	0.000365	3.650157	1.236707	0.000146
 149	1.4726e+01	5.8875	16.536108	0.000456	4.562696	1.545883	0.000183
 150	1.4825e+01	5.9357	16.733928	0.000497	4.968270	1.683295	0.000199
 151	1.4925e+01	5.9758	16.851005	0.000294	2.940404	0.996236	0.000118
 152	1.5024e+01	6.0207	17.004416	0.000385	3.852944	1.305413	0.000154
 153	1.5124e+01	6.0528	17.173975	0.000426	4.258517	1.442825	0.000170
 154	1.5223e+01	6.0977	17.363721	0.000477	4.765483	1.614589	0.000191
 155	1.5323e+01	6.1330	17.480798	0.000294	2.940404	0.996236	0.000118
 156	1.5422e+01	6.1699	17.658432	0.000446	4.461303	1.511530	0.000179
 157	1.5522e+01	6.2036	17.807806	0.000375	3.751550	1.271060	0.000150
 158	1.5621e+01	6.2533	18.017737	0.000527	5.272449	1.786354	0.000211
 159	1.5721e+01	6.2870	18.183259	0.000416	4.157123	1.408472	0.000166
 160	1.5820e+01	6.3335	18.332633	0.000375	3.751550	1.271060	0.000150
 161	1.5920e+01	6.3720	18.514304	0.000456	4.562696	1.545883	0.000183
 162	1.6020e+01	6.4009	18.667716	0.000385	3.852944	1.305413	0.000154
 163	1.6119e+01	6.4554	18.841312	0.000436	4.359910	1.477177	0.000174
 164	1.6218e+01	6.4939	18.998761	0.000395	3.954337	1.339766	0.000158
 165	1.6318e+01	6.5292	19.136023	0.000345	3.447371	1.168001	0.000138
 166	1.6418e+01	6.5661	19.301546	0.000416	4.157123	1.408472	0.000166
 167	1.6517e+01	6.6062	19.463031	0.000406	4.055730	1.374119	0.000162
 168	1.6616e+01	6.6479	19.644703	0.000456	4.562696	1.545883	0.000183
 169	1.6716e+01	6.6961	19.757742	0.000284	2.839011	0.961883	0.000114
 170	1.6816e+01	6.7314	19.895005	0.000345	3.447371	1.168001	0.000138
 171	1.6915e+01	6.7634	20.113010	0.000548	5.475236	1.855060	0.000219
 172	1.7015e+01	6.8180	20.246236	0.000335	3.345977	1.133648	0.000134
 173	1.7114e+01	6.8356	20.411758	0.000416	4.157123	1.408472	0.000166
 174	1.7213e+01	6.9014	20.585355	0.000436	4.359910	1.477177	0.000174
 175	1.7313e+01	6.9351	20.750878	0.000416	4.157123	1.408472	0.000166
 176	1.7413e+01	6.9640	20.908326	0.000395	3.954337	1.339766	0.000158
 177	1.7512e+01	7.0073	21.069811	0.000406	4.055730	1.374119	0.000162
 178	1.7611e+01	7.0458	21.231297	0.000406	4.055730	1.374119	0.000162
 179	1.7711e+01	7.0907	21.356448	0.000314	3.143191	1.064942	0.000126
 180	1.7811e+01	7.1356	21.534082	0.000446	4.461303	1.511530	0.000179
 181	1.7910e+01	7.1677	21.748050	0.000537	5.373843	1.820707	0.000215
 182	1.8009e+01	7.2110	21.885313	0.000345	3.447371	1.168001	0.000138
 183	1.8109e+01	7.2447	22.018538	0.000335	3.345977	1.133648	0.000134
 184	1.8209e+01	7.2848	22.212321	0.000487	4.866876	1.648942	0.000195
 185	1.8308e+01	7.3281	22.337472	0.000314	3.143191	1.064942	0.000126
 186	1.8407e+01	7.3682	22.502995	0.000416	4.157123	1.408472	0.000166
 187	1.8507e+01	7.4132	22.700814	0.000497	4.968270	1.683295	0.000199
 188	1.8607e+01	7.4565	22.813854	0.000284	2.839011	0.961883	0.000114
 189	1.8706e+01	7.4837	22.987451	0.000436	4.359910	1.477177	0.000174
 190	1.8805e+01	7.5255	23.181233	0.000487	4.866876	1.648942	0.000195
 191	1.8905e+01	7.5688	23.302347	0.000304	3.041798	1.030589	0.000122
 192	1.9005e+01	7.6089	23.475944	0.000436	4.359910	1.477177	0.000174
 193	1.9104e+01	7.6458	23.625318	0.000375	3.751550	1.271060	0.000150
 194	1.9203e+01	7.6827	23.819101	0.000487	4.866876	1.648942	0.000195
 195	1.9303e+01	7.7340	23.964438	0.000365	3.650157	1.236707	0.000146
 196	1.9402e+01	7.7725	24.097663	0.000335	3.345977	1.133648	0.000134
 197	1.9502e+01	7.8094	24.299520	0.000507	5.069663	1.717648	0.000203
 198	1.9602e+01	7.8479	24.432745	0.000335	3.345977	1.133648	0.000134
 199	1.9701e+01	7.8864	24.642677	0.000527	5.272449	1.786354	0.000211
 200	1.9800e+01	7.9265	24.759753	0.000294	2.940404	0.996236	0.000118
 201	1.9900e+01	7.9618	24.953536	0.000487	4.866876	1.648942	0.000195
 202	2.0000e+01	7.9987	25.090799	0.000345	3.447371	1.168001	0.000138
 203	2.0099e+01	8.0516	25.244210	0.000385	3.852944	1.305413	0.000154
 204	2.0198e+01	8.0885	25.393584	0.000375	3.751550	1.271060	0.000150
 205	2.0298e+01	8.1303	25.579292	0.000466	4.664090	1.580236	0.000187
 206	2.0398e+01	8.1671	25.732703	0.000385	3.852944	1.305413	0.000154
 207	2.0497e+01	8.2024	25.865929	0.000335	3.345977	1.133648	0.000134
 208	2.0596e+01	8.2522	26.067785	0.000507	5.069663	1.717648	0.000203
 209	2.0696e+01	8.2843	26.217159	0.000375	3.751550	1.271060	0.000150
 210	2.0796e+01	8.3244	26.330199	0.000284	2.839011	0.961883	0.000114
 211	2.0895e+01	8.3693	26.503796	0.000436	4.359910	1.477177	0.000174
 212	2.0994e+01	8.4062	26.725839	0.000558	5.576629	1.889413	0.000223
 213	2.1094e+01	8.4463	26.867138	0.000355	3.548764	1.202354	0.000142
 214	2.1194e+01	8.4800	27.044772	0.000446	4.461303	1.511530	0.000179
 215	2.1293e+01	8.5185	27.190109	0.000365	3.650157	1.236707	0.000146
 216	2.1392e+01	8.5538	27.387929	0.000497	4.968270	1.683295	0.000199
 217	2.1492e+01	8.6099	27.565563	0.000446	4.461303	1.511530	0.000179
 218	2.1591e+01	8.6420	27.690714	0.000314	3.143191	1.064942	0.000126
 219	2.1691e+01	8.6741	27.840088	0.000375	3.751550	1.271060	0.000150
 220	2.1791e+01	8.7222	28.062131	0.000558	5.576629	1.889413	0.000223
 221	2.1890e+01	8.7607	28.154985	0.000233	2.332045	0.790118	0.000093
 222	2.1989e+01	8.7928	28.316470	0.000406	4.055730	1.374119	0.000162
 223	2.2089e+01	8.8393	28.498141	0.000456	4.562696	1.545883	0.000183
 224	2.2189e+01	8.8923	28.704035	0.000517	5.171056	1.752001	0.000207
 225	2.2288e+01	8.9131	28.788815	0.000213	2.129258	0.721412	0.000085
 226	2.2387e+01	8.9564	28.970486	0.000456	4.562696	1.545883	0.000183
 227	2.2487e+01	8.9997	29.156194	0.000466	4.664090	1.580236	0.000187
 228	2.2587e+01	9.0415	29.349977	0.000487	4.866876	1.648942	0.000195
 229	2.2686e+01	9.0832	29.483202	0.000335	3.345977	1.133648	0.000134
 230	2.2785e+01	9.1297	29.632576	0.000375	3.751550	1.271060	0.000150
 231	2.2885e+01	9.1586	29.790025	0.000395	3.954337	1.339766	0.000158
 232	2.2985e+01	9.2067	29.979770	0.000477	4.765483	1.614589	0.000191
 233	2.3084e+01	9.2468	30.133181	0.000385	3.852944	1.305413	0.000154
 234	2.3183e+01	9.2885	30.290629	0.000395	3.954337	1.339766	0.000158
 235	2.3283e+01	9.3174	30.464226	0.000436	4.359910	1.477177	0.000174
 236	2.3383e+01	9.3655	30.645897	0.000456	4.562696	1.545883	0.000183
 237	2.3482e+01	9.3992	30.787197	0.000355	3.548764	1.202354	0.000142
 238	2.3581e+01	9.4425	30.944645	0.000395	3.954337	1.339766	0.000158
 239	2.3681e+01	9.4874	31.134391	0.000477	4.765483	1.614589	0.000191
 240	2.3780e+01	9.5195	31.320099	0.000466	4.664090	1.580236	0.000187
 241	2.3880e+01	9.5548	31.433139	0.000284	2.839011	0.961883	0.000114
 242	2.3980e+01	9.6078	31.582513	0.000375	3.751550	1.271060	0.000150
 243	2.4079e+01	9.6414	31.788407	0.000517	5.171056	1.752001	0.000207
 244	2.4178e+01	9.6783	31.953929	0.000416	4.157123	1.408472	0.000166
 245	2.4278e+01	9.7136	32.087155	0.000335	3.345977	1.133648	0.000134
 246	2.4378e+01	9.7521	32.220380	0.000335	3.345977	1.133648	0.000134
 247	2.4477e+01	9.8099	32.438386	0.000548	5.475236	1.855060	0.000219
 248	2.4576e+01	9.8436	32.587760	0.000375	3.751550	1.271060	0.000150
 249	2.4676e+01	9.8805	32.708874	0.000304	3.041798	1.030589	0.000122
 250	2.4776e+01	9.9190	32.910731	0.000507	5.069663	1.717648	0.000203
 251	2.4875e+01	9.9591	33.052030	0.000355	3.548764	1.202354	0.000142
 252	2.4974e+01	9.9960	33.225627	0.000436	4.359910	1.477177	0.000174
 253	2.5074e+01	10.0345	33.379038	0.000385	3.852944	1.305413	0.000154
 254	2.5174e+01	10.0906	33.556672	0.000446	4.461303	1.511530	0.000179
 255	2.5273e+01	10.1131	33.738343	0.000456	4.562696	1.545883	0.000183
 256	2.5372e+01	10.1532	33.867532	0.000324	3.244584	1.099295	0.000130
 257	2.5472e+01	10.1981	34.041129	0.000436	4.359910	1.477177	0.000174
 258	2.5572e+01	10.2270	34.190503	0.000375	3.751550	1.271060	0.000150
 259	2.5671e+01	10.2847	34.364099	0.000436	4.359910	1.477177	0.000174
 260	2.5770e+01	10.3232	34.533659	0.000426	4.258517	1.442825	0.000170
 261	2.5870e+01	10.3585	34.711293	0.000446	4.461303	1.511530	0.000179
 262	2.5970e+01	10.4018	34.852593	0.000355	3.548764	1.202354	0.000142
 263	2.6069e+01	10.4387	35.006004	0.000385	3.852944	1.305413	0.000154
 264	2.6169e+01	10.4724	35.199786	0.000487	4.866876	1.648942	0.000195
 265	2.6268e+01	10.5109	35.324938	0.000314	3.143191	1.064942	0.000126
 266	2.6367e+01	10.5623	35.490460	0.000416	4.157123	1.408472	0.000166
 267	2.6467e+01	10.5976	35.696354	0.000517	5.171056	1.752001	0.000207
 268	2.6567e+01	10.6361	35.853802	0.000395	3.954337	1.339766	0.000158
 269	2.6666e+01	10.6746	36.031436	0.000446	4.461303	1.511530	0.000179
 270	2.6765e+01	10.7163	36.164662	0.000335	3.345977	1.133648	0.000134
 271	2.6865e+01	10.7532	36.330185	0.000416	4.157123	1.408472	0.000166
 272	2.6965e+01	10.7901	36.495707	0.000416	4.157123	1.408472	0.000166
 273	2.7064e+01	10.8302	36.681415	0.000466	4.664090	1.580236	0.000187
 274	2.7163e+01	10.8751	36.846938	0.000416	4.157123	1.408472	0.000166
 275	2.7263e+01	10.9184	36.951903	0.000264	2.636225	0.893177	0.000105
 276	2.7363e+01	10.9665	37.149723	0.000497	4.968270	1.683295	0.000199
 277	2.7462e+01	10.9938	37.335431	0.000466	4.664090	1.580236	0.000187
 278	2.7561e+01	11.0387	37.472694	0.000345	3.447371	1.168001	0.000138
 279	2.7661e+01	11.0724	37.626105	0.000385	3.852944	1.305413	0.000154
 280	2.7761e+01	11.1125	37.791628	0.000416	4.157123	1.408472	0.000166
 281	2.7860e+01	11.1510	37.961187	0.000426	4.258517	1.442825	0.000170
 282	2.7959e+01	11.1927	38.098450	0.000345	3.447371	1.168001	0.000138
 283	2.8059e+01	11.2328	38.255898	0.000395	3.954337	1.339766	0.000158
 284	2.8159e+01	11.2745	38.433532	0.000446	4.461303	1.511530	0.000179
 285	2.8258e+01	11.3179	38.615203	0.000456	4.562696	1.545883	0.000183
 286	2.8358e+01	11.3499	38.764577	0.000375	3.751550	1.271060	0.000150
 287	2.8457e+01	11.3949	38.926063	0.000406	4.055730	1.374119	0.000162
 288	2.8556e+01	11.4286	39.035065	0.000274	2.737618	0.927530	0.000110
 289	2.8656e+01	11.4735	39.224811	0.000477	4.765483	1.614589	0.000191
 290	2.8756e+01	11.5152	39.382259	0.000395	3.954337	1.339766	0.000158
 291	2.8855e+01	11.5489	39.539707	0.000395	3.954337	1.339766	0.000158
 292	2.8954e+01	11.5890	39.672933	0.000335	3.345977	1.133648	0.000134
 293	2.9054e+01	11.6291	39.866715	0.000487	4.866876	1.648942	0.000195
 294	2.9154e+01	11.6724	40.003978	0.000345	3.447371	1.168001	0.000138
 295	2.9253e+01	11.7109	40.201798	0.000497	4.968270	1.683295	0.000199
 296	2.9352e+01	11.7510	40.355209	0.000385	3.852944	1.305413	0.000154
 297	2.9452e+01	11.7863	40.500546	0.000365	3.650157	1.236707	0.000146
 298	2.9552e+01	11.8328	40.662031	0.000406	4.055730	1.374119	0.000162
 299	2.9651e+01	11.8681	40.815442	0.000385	3.852944	1.305413	0.000154
 300	2.9750e+01	11.9211	41.001151	0.000466	4.664090	1.580236	0.000187
 301	2.9850e+01	11.9483	41.118227	0.000294	2.940404	0.996236	0.000118
 302	2.9950e+01	11.9852	41.275676	0.000395	3.954337	1.339766	0.000158
 303	3.0049e+01	12.0366	41.400827	0.000314	3.143191	1.064942	0.000126
 304	3.0148e+01	12.0767	41.594610	0.000487	4.866876	1.648942	0.000195
 305	3.0248e+01	12.1087	41.764169	0.000426	4.258517	1.442825	0.000170
 306	3.0348e+01	12.1505	41.901432	0.000345	3.447371	1.168001	0.000138
 307	3.0447e+01	12.1874	42.054843	0.000385	3.852944	1.305413	0.000154
 308	3.0547e+01	12.2323	42.212291	0.000395	3.954337	1.339766	0.000158
 309	3.0646e+01	12.2660	42.373777	0.000406	4.055730	1.374119	0.000162
 310	3.0745e+01	12.3013	42.547374	0.000436	4.359910	1.477177	0.000174
 311	3.0845e+01	12.3526	42.668488	0.000304	3.041798	1.030589	0.000122
 312	3.0945e+01	12.3943	42.846122	0.000446	4.461303	1.511530	0.000179
 313	3.1044e+01	12.4296	42.999533	0.000385	3.852944	1.305413	0.000154
 314	3.1143e+01	12.4665	43.132758	0.000335	3.345977	1.133648	0.000134
 315	3.1243e+01	12.5050	43.302318	0.000426	4.258517	1.442825	0.000170
 316	3.1343e+01	12.5483	43.475915	0.000436	4.359910	1.477177	0.000174
 317	3.1442e+01	12.5868	43.621252	0.000365	3.650157	1.236707	0.000146
 318	3.1541e+01	12.6285	43.766589	0.000365	3.650157	1.236707	0.000146
 319	3.1641e+01	12.6654	43.932111	0.000416	4.157123	1.408472	0.000166
 320	3.1741e+01	12.7184	44.069374	0.000345	3.447371	1.168001	0.000138
 321	3.1840e+01	12.7456	44.259119	0.000477	4.765483	1.614589	0.000191
 322	3.1939e+01	12.7873	44.392345	0.000335	3.345977	1.133648	0.000134
 323	3.2039e+01	12.8274	44.549793	0.000395	3.954337	1.339766	0.000158
 324	3.2139e+01	12.8627	44.743575	0.000487	4.866876	1.648942	0.000195
 325	3.2238e+01	12.8964	44.888912	0.000365	3.650157	1.236707	0.000146
 326	3.2337e+01	12.9397	44.985804	0.000243	2.433438	0.824471	0.000097
 327	3.2437e+01	12.9895	45.155363	0.000426	4.258517	1.442825	0.000170
 328	3.2536e+01	13.0232	45.304737	0.000375	3.751550	1.271060	0.000150
 329	3.2636e+01	13.0585	45.482371	0.000446	4.461303	1.511530	0.000179
 330	3.2736e+01	13.1050	45.619634	0.000345	3.447371	1.168001	0.000138
 331	3.2835e+01	13.1499	45.793231	0.000436	4.359910	1.477177	0.000174
 332	3.2934e+01	13.1852	45.898196	0.000264	2.636225	0.893177	0.000105
 333	3.3034e+01	13.2157	46.043533	0.000365	3.650157	1.236707	0.000146
 334	3.3133e+01	13.2750	46.241353	0.000497	4.968270	1.683295	0.000199
 335	3.3233e+01	13.3007	46.398801	0.000395	3.954337	1.339766	0.000158
 336	3.3333e+01	13.3424	46.540101	0.000355	3.548764	1.202354	0.000142
 337	3.3432e+01	13.3825	46.689475	0.000375	3.751550	1.271060	0.000150
 338	3.3532e+01	13.4194	46.863072	0.000436	4.359910	1.477177	0.000174
 339	3.3631e+01	13.4627	47.012446	0.000375	3.751550	1.271060	0.000150
 340	3.3730e+01	13.4948	47.125485	0.000284	2.839011	0.961883	0.000114
 341	3.3830e+01	13.5365	47.311194	0.000466	4.664090	1.580236	0.000187
 342	3.3929e+01	13.5750	47.476716	0.000416	4.157123	1.408472	0.000166
 343	3.4029e+01	13.6280	47.569570	0.000233	2.332045	0.790118	0.000093
 344	3.4129e+01	13.6568	47.739130	0.000426	4.258517	1.442825	0.000170
 345	3.4228e+01	13.7018	47.888504	0.000375	3.751550	1.271060	0.000150
 346	3.4328e+01	13.7467	48.045952	0.000395	3.954337	1.339766	0.000158
 347	3.4427e+01	13.7772	48.199364	0.000385	3.852944	1.305413	0.000154
 348	3.4526e+01	13.8205	48.360849	0.000406	4.055730	1.374119	0.000162
 349	3.4626e+01	13.8606	48.522334	0.000406	4.055730	1.374119	0.000162
 350	3.4725e+01	13.9039	48.663634	0.000355	3.548764	1.202354	0.000142
 351	3.4825e+01	13.9472	48.845305	0.000456	4.562696	1.545883	0.000183
 352	3.4925e+01	13.9825	48.978531	0.000335	3.345977	1.133648	0.000134
 353	3.5024e+01	14.0226	49.107719	0.000324	3.244584	1.099295	0.000130
 354	3.5123e+01	14.0659	49.244982	0.000345	3.447371	1.168001	0.000138
 355	3.5223e+01	14.0932	49.446839	0.000507	5.069663	1.717648	0.000203
 356	3.5322e+01	14.1365	49.571990	0.000314	3.143191	1.064942	0.000126
 357	3.5422e+01	14.1814	49.725401	0.000385	3.852944	1.305413	0.000154
 358	3.5522e+01	14.2199	49.878812	0.000385	3.852944	1.305413	0.000154
 359	3.5621e+01	14.2648	50.052409	0.000436	4.359910	1.477177	0.000174
 360	3.5721e+01	14.3049	50.185634	0.000335	3.345977	1.133648	0.000134
 361	3.5820e+01	14.3402	50.330971	0.000365	3.650157	1.236707	0.000146
 362	3.5919e+01	14.3755	50.476308	0.000365	3.650157	1.236707	0.000146
 363	3.6019e+01	14.4140	50.613571	0.000345	3.447371	1.168001	0.000138
 364	3.6118e+01	14.4590	50.783130	0.000426	4.258517	1.442825	0.000170
 365	3.6218e+01	14.4975	50.948653	0.000416	4.157123	1.408472	0.000166
 366	3.6318e+01	14.5408	51.102064	0.000385	3.852944	1.305413	0.000154
 367	3.6417e+01	14.5809	51.227215	0.000314	3.143191	1.064942	0.000126
 368	3.6517e+01	14.6114	51.400812	0.000436	4.359910	1.477177	0.000174
 369	3.6616e+01	14.6499	51.586520	0.000466	4.664090	1.580236	0.000187
 370	3.6715e+01	14.7028	51.695523	0.000274	2.737618	0.927530	0.000110
 371	3.6815e+01	14.7349	51.812600	0.000294	2.940404	0.996236	0.000118
 372	3.6914e+01	14.7718	52.030605	0.000548	5.475236	1.855060	0.000219
 373	3.7014e+01	14.8183	52.171905	0.000355	3.548764	1.202354	0.000142
 374	3.7114e+01	14.8520	52.317242	0.000365	3.650157	1.236707	0.000146
 375	3.7213e+01	14.9049	52.474690	0.000395	3.954337	1.339766	0.000158
 376	3.7313e+01	14.9322	52.587730	0.000284	2.839011	0.961883	0.000114
 377	3.7412e+01	14.9771	52.765364	0.000446	4.461303	1.511530	0.000179
 378	3.7511e+01	15.0188	52.951072	0.000466	4.664090	1.580236	0.000187
 379	3.7611e+01	15.0605	53.047964	0.000243	2.433438	0.824471	0.000097
 380	3.7711e+01	15.0894	53.181189	0.000335	3.345977	1.133648	0.000134
 381	3.7810e+01	15.1424	53.374972	0.000487	4.866876	1.648942	0.000195
 382	3.7910e+01	15.1776	53.520308	0.000365	3.650157	1.236707	0.000146
 383	3.8009e+01	15.2129	53.673720	0.000385	3.852944	1.305413	0.000154
 384	3.8108e+01	15.2466	53.831168	0.000395	3.954337	1.339766	0.000158
 385	3.8208e+01	15.2980	54.024950	0.000487	4.866876	1.648942	0.000195
 386	3.8307e+01	15.3365	54.125879	0.000253	2.534831	0.858824	0.000101
 387	3.8407e+01	15.3814	54.323698	0.000497	4.968270	1.683295	0.000199
 388	3.8507e+01	15.4103	54.456924	0.000335	3.345977	1.133648	0.000134
 389	3.8606e+01	15.4536	54.618409	0.000406	4.055730	1.374119	0.000162
 390	3.8706e+01	15.4921	54.767783	0.000375	3.751550	1.271060	0.000150
 391	3.8805e+01	15.5354	54.913120	0.000365	3.650157	1.236707	0.000146
 392	3.8904e+01	15.5803	55.086717	0.000436	4.359910	1.477177	0.000174
 393	3.9004e+01	15.6060	55.284537	0.000497	4.968270	1.683295	0.000199
 394	3.9103e+01	15.6589	55.365280	0.000203	2.027865	0.687059	0.000081
 395	3.9203e+01	15.6910	55.575211	0.000527	5.272449	1.786354	0.000211
 396	3.9303e+01	15.7311	55.708436	0.000335	3.345977	1.133648	0.000134
 397	3.9402e+01	15.7760	55.841662	0.000335	3.345977	1.133648	0.000134
 398	3.9502e+01	15.8081	55.982961	0.000355	3.548764	1.202354	0.000142
 399	3.9601e+01	15.8562	56.128298	0.000365	3.650157	1.236707	0.000146
 400	3.9700e+01	15.8947	56.314006	0.000466	4.664090	1.580236	0.000187
 401	3.9800e+01	15.9332	56.451269	0.000345	3.447371	1.168001	0.000138
 402	3.9900e+01	15.9798	56.612754	0.000406	4.055730	1.374119	0.000162
 403	3.9999e+01	16.0183	56.766166	0.000385	3.852944	1.305413	0.000154
 404	4.0099e+01	16.0439	56.923614	0.000395	3.954337	1.339766	0.000158
 405	4.0198e+01	16.0889	57.068951	0.000365	3.650157	1.236707	0.000146
 406	4.0297e+01	16.1290	57.202176	0.000335	3.345977	1.133648	0.000134
 407	4.0397e+01	16.1707	57.379810	0.000446	4.461303	1.511530	0.000179
 408	4.0496e+01	16.2028	57.533221	0.000385	3.852944	1.305413	0.000154
 409	4.0596e+01	16.2605	57.702781	0.000426	4.258517	1.442825	0.000170
 410	4.0696e+01	16.2910	57.823895	0.000304	3.041798	1.030589	0.000122
 411	4.0795e+01	16.3263	57.989418	0.000416	4.157123	1.408472	0.000166
 412	4.0895e+01	16.3760	58.142829	0.000385	3.852944	1.305413	0.000154
 413	4.0994e+01	16.4193	58.312389	0.000426	4.258517	1.442825	0.000170
 414	4.1093e+01	16.4562	58.449651	0.000345	3.447371	1.168001	0.000138
 415	4.1193e+01	16.4899	58.590951	0.000355	3.548764	1.202354	0.000142
 416	4.1292e+01	16.5364	58.792808	0.000507	5.069663	1.717648	0.000203
 417	4.1392e+01	16.5621	58.901810	0.000274	2.737618	0.927530	0.000110
 418	4.1492e+01	16.6134	59.079444	0.000446	4.461303	1.511530	0.000179
 419	4.1591e+01	16.6439	59.240930	0.000406	4.055730	1.374119	0.000162
 420	4.1691e+01	16.6824	59.386267	0.000365	3.650157	1.236707	0.000146
 421	4.1790e+01	16.7289	59.547752	0.000406	4.055730	1.374119	0.000162
 422	4.1889e+01	16.7739	59.701163	0.000385	3.852944	1.305413	0.000154
 423	4.1989e+01	16.8172	59.858612	0.000395	3.954337	1.339766	0.000158
 424	4.2089e+01	16.8557	60.044320	0.000466	4.664090	1.580236	0.000187
 425	4.2188e+01	16.8862	60.165434	0.000304	3.041798	1.030589	0.000122
 426	4.2288e+01	16.9327	60.314808	0.000375	3.751550	1.271060	0.000150
 427	4.2387e+01	16.9696	60.468219	0.000385	3.852944	1.305413	0.000154
 428	4.2486e+01	17.0113	60.609519	0.000355	3.548764	1.202354	0.000142
 429	4.2586e+01	17.0434	60.771004	0.000406	4.055730	1.374119	0.000162
 430	4.2685e+01	17.0915	60.928453	0.000395	3.954337	1.339766	0.000158
 431	4.2785e+01	17.1284	61.118198	0.000477	4.765483	1.614589	0.000191
 432	4.2885e+01	17.1637	61.235275	0.000294	2.940404	0.996236	0.000118
 433	4.2984e+01	17.2118	61.380612	0.000365	3.650157	1.236707	0.000146
 434	4.3084e+01	17.2423	61.578431	0.000497	4.968270	1.683295	0.000199
 435	4.3183e+01	17.2968	61.695508	0.000294	2.940404	0.996236	0.000118
 436	4.3282e+01	17.3321	61.852957	0.000395	3.954337	1.339766	0.000158
 437	4.3382e+01	17.3706	62.026553	0.000436	4.359910	1.477177	0.000174
 438	4.3481e+01	17.4027	62.188039	0.000406	4.055730	1.374119	0.000162
 439	4.3581e+01	17.4541	62.329339	0.000355	3.548764	1.202354	0.000142
 440	4.3681e+01	17.4990	62.474676	0.000365	3.650157	1.236707	0.000146
 441	4.3780e+01	17.5230	62.652310	0.000446	4.461303	1.511530	0.000179
 442	4.3880e+01	17.5663	62.720941	0.000172	1.723685	0.584000	0.000069
 443	4.3979e+01	17.6000	62.955095	0.000588	5.880809	1.992472	0.000235
 444	4.4078e+01	17.6482	63.108506	0.000385	3.852944	1.305413	0.000154
 445	4.4178e+01	17.6802	63.257880	0.000375	3.751550	1.271060	0.000150
 446	4.4278e+01	17.7236	63.383031	0.000314	3.143191	1.064942	0.000126
 447	4.4377e+01	17.7669	63.568739	0.000466	4.664090	1.580236	0.000187
 448	4.4477e+01	17.8054	63.722150	0.000385	3.852944	1.305413	0.000154
 449	4.4576e+01	17.8455	63.851339	0.000324	3.244584	1.099295	0.000130
 450	4.4675e+01	17.8872	63.972453	0.000304	3.041798	1.030589	0.000122
 451	4.4775e+01	17.9321	64.158161	0.000466	4.664090	1.580236	0.000187
 452	4.4874e+01	17.9658	64.319647	0.000406	4.055730	1.374119	0.000162
 453	4.4974e+01	18.0075	64.464983	0.000365	3.650157	1.236707	0.000146
 454	4.5074e+01	18.0524	64.602246	0.000345	3.447371	1.168001	0.000138
 455	4.5173e+01	18.0829	64.739509	0.000345	3.447371	1.168001	0.000138
 456	4.5273e+01	18.1262	64.888883	0.000375	3.751550	1.271060	0.000150
 457	4.5372e+01	18.1647	65.074591	0.000466	4.664090	1.580236	0.000187
 458	4.5471e+01	18.2113	65.187631	0.000284	2.839011	0.961883	0.000114
 459	4.5571e+01	18.2353	65.373339	0.000466	4.664090	1.580236	0.000187
 460	4.5670e+01	18.2850	65.514639	0.000355	3.548764	1.202354	0.000142
 461	4.5770e+01	18.3252	65.655939	0.000355	3.548764	1.202354	0.000142
 462	4.5870e+01	18.3669	65.793201	0.000345	3.447371	1.168001	0.000138
 463	4.5969e+01	18.3989	65.950649	0.000395	3.954337	1.339766	0.000158
 464	4.6069e+01	18.4487	66.116172	0.000416	4.157123	1.408472	0.000166
 465	4.6168e+01	18.4808	66.245360	0.000324	3.244584	1.099295	0.000130
 466	4.6267e+01	18.5193	66.422994	0.000446	4.461303	1.511530	0.000179
 467	4.6367e+01	18.5578	66.556220	0.000335	3.345977	1.133648	0.000134
 468	4.6467e+01	18.6027	66.733854	0.000446	4.461303	1.511530	0.000179
 469	4.6566e+01	18.6444	66.859005	0.000314	3.143191	1.064942	0.000126
 470	4.6666e+01	18.6845	67.012416	0.000385	3.852944	1.305413	0.000154
 471	4.6765e+01	18.7246	67.129493	0.000294	2.940404	0.996236	0.000118
 472	4.6864e+01	18.7535	67.327313	0.000497	4.968270	1.683295	0.000199
 473	4.6964e+01	18.8048	67.456501	0.000324	3.244584	1.099295	0.000130
 474	4.7063e+01	18.8369	67.597801	0.000355	3.548764	1.202354	0.000142
 475	4.7163e+01	18.8818	67.743138	0.000365	3.650157	1.236707	0.000146
 476	4.7263e+01	18.9267	67.924809	0.000456	4.562696	1.545883	0.000183
 477	4.7362e+01	18.9572	68.025737	0.000253	2.534831	0.858824	0.000101
 478	4.7462e+01	19.0053	68.199334	0.000436	4.359910	1.477177	0.000174
 479	4.7561e+01	19.0294	68.340634	0.000355	3.548764	1.202354	0.000142
 480	4.7660e+01	19.0936	68.469822	0.000324	3.244584	1.099295	0.000130
 481	4.7760e+01	19.1144	68.627270	0.000395	3.954337	1.339766	0.000158
 482	4.7859e+01	19.1610	68.788756	0.000406	4.055730	1.374119	0.000162
 483	4.7959e+01	19.1995	68.913907	0.000314	3.143191	1.064942	0.000126
 484	4.8059e+01	19.2444	69.071355	0.000395	3.954337	1.339766	0.000158
 485	4.8158e+01	19.2781	69.228804	0.000395	3.954337	1.339766	0.000158
 486	4.8258e+01	19.3198	69.374141	0.000365	3.650157	1.236707	0.000146
 487	4.8357e+01	19.3567	69.491217	0.000294	2.940404	0.996236	0.000118
 488	4.8456e+01	19.4048	69.656740	0.000416	4.157123	1.408472	0.000166
 489	4.8556e+01	19.4401	69.830337	0.000436	4.359910	1.477177	0.000174
 490	4.8656e+01	19.4738	69.967599	0.000345	3.447371	1.168001	0.000138
 491	4.8755e+01	19.5155	70.088714	0.000304	3.041798	1.030589	0.000122
 492	4.8855e+01	19.5620	70.258273	0.000426	4.258517	1.442825	0.000170
 493	4.8954e+01	19.5909	70.407647	0.000375	3.751550	1.271060	0.000150
 494	4.9053e+01	19.6390	70.544910	0.000345	3.447371	1.168001	0.000138
 495	4.9153e+01	19.6775	70.690247	0.000365	3.650157	1.236707	0.000146
 496	4.9252e+01	19.7176	70.823472	0.000335	3.345977	1.133648	0.000134
 497	4.9352e+01	19.7577	71.009180	0.000466	4.664090	1.580236	0.000187
 498	4.9452e+01	19.7962	71.114146	0.000264	2.636225	0.893177	0.000105
 499	4.9551e+01	19.8315	71.311966	0.000497	4.968270	1.683295	0.000199
 500	4.9651e+01	19.8668	71.429043	0.000294	2.940404	0.996236	0.000118
 501	4.9750e+01	19.9214	71.582454	0.000385	3.852944	1.305413	0.000154
 502	4.9849e+01	19.9486	71.699531	0.000294	2.940404	0.996236	0.000118
 503	4.9949e+01	19.9887	71.836793	0.000345	3.447371	1.168001	0.000138
 504	5.0048e+01	19.9599	71.739902	0.000243	2.433438	0.824471	-0.000097
 505	5.0148e+01	19.9085	71.618788	0.000304	3.041798	1.030589	-0.000122
 506	5.0248e+01	19.8700	71.574379	0.000112	1.115326	0.377883	-0.000045
 507	5.0347e+01	19.8331	71.433080	0.000355	3.548764	1.202354	-0.000142
 508	5.0447e+01	19.8026	71.324077	0.000274	2.737618	0.927530	-0.000110
 509	5.0546e+01	19.7674	71.247372	0.000193	1.926472	0.652706	-0.000077
 510	5.0645e+01	19.7192	71.126257	0.000304	3.041798	1.030589	-0.000122
 511	5.0745e+01	19.6679	71.017255	0.000274	2.737618	0.927530	-0.000110
 512	5.0844e+01	19.6438	70.896141	0.000304	3.041798	1.030589	-0.000122
 513	5.0944e+01	19.6005	70.799249	0.000243	2.433438	0.824471	-0.000097
 514	5.1044e+01	19.5556	70.710432	0.000223	2.230652	0.755765	-0.000089
 515	5.1143e+01	19.5203	70.589318	0.000304	3.041798	1.030589	-0.000122
 516	5.1242e+01	19.4818	70.431870	0.000395	3.954337	1.339766	-0.000158
 517	5.1342e+01	19.4353	70.351127	0.000203	2.027865	0.687059	-0.000081
 518	5.1441e+01	19.3968	70.205790	0.000365	3.650157	1.236707	-0.000146
 519	5.1541e+01	19.3567	70.100825	0.000264	2.636225	0.893177	-0.000105
 520	5.1641e+01	19.3198	69.963562	0.000345	3.447371	1.168001	-0.000138
 521	5.1740e+01	19.2845	69.838411	0.000314	3.143191	1.064942	-0.000126
 522	5.1840e+01	19.2364	69.741520	0.000243	2.433438	0.824471	-0.000097
 523	5.1939e+01	19.1946	69.616369	0.000314	3.143191	1.064942	-0.000126
 524	5.2038e+01	19.1610	69.471032	0.000365	3.650157	1.236707	-0.000146
 525	5.2138e+01	19.1096	69.402400	0.000172	1.723685	0.584000	-0.000069
 526	5.2237e+01	19.0775	69.281286	0.000304	3.041798	1.030589	-0.000122
 527	5.2337e+01	19.0519	69.144024	0.000345	3.447371	1.168001	-0.000138
 528	5.2437e+01	18.9973	69.026947	0.000294	2.940404	0.996236	-0.000118
 529	5.2536e+01	18.9588	68.905833	0.000304	3.041798	1.030589	-0.000122
 530	5.2636e+01	18.9187	68.800867	0.000264	2.636225	0.893177	-0.000105
 531	5.2735e+01	18.8818	68.683790	0.000294	2.940404	0.996236	-0.000118
 532	5.2834e+01	18.8401	68.554602	0.000324	3.244584	1.099295	-0.000130
 533	5.2934e+01	18.8000	68.425414	0.000324	3.244584	1.099295	-0.000130
 534	5.3033e+01	18.7519	68.280077	0.000365	3.650157	1.236707	-0.000146
 535	5.3133e+01	18.7214	68.207408	0.000183	1.825079	0.618353	-0.000073
 536	5.3233e+01	18.6861	68.090331	0.000294	2.940404	0.996236	-0.000118
 537	5.3332e+01	18.6412	67.920772	0.000426	4.258517	1.442825	-0.000170
 538	5.3431e+01	18.5963	67.823880	0.000243	2.433438	0.824471	-0.000097
 539	5.3531e+01	18.5594	67.694692	0.000324	3.244584	1.099295	-0.000130
 540	5.3630e+01	18.5128	67.589727	0.000264	2.636225	0.893177	-0.000105
 541	5.3730e+01	18.4840	67.476687	0.000284	2.839011	0.961883	-0.000114
 542	5.3830e+01	18.4471	67.343461	0.000335	3.345977	1.133648	-0.000134
 543	5.3929e+01	18.4006	67.206199	0.000345	3.447371	1.168001	-0.000138
 544	5.4029e+01	18.3653	67.129493	0.000193	1.926472	0.652706	-0.000077
 545	5.4128e+01	18.3284	66.951859	0.000446	4.461303	1.511530	-0.000179
 546	5.4227e+01	18.2850	66.887265	0.000162	1.622292	0.549647	-0.000065
 547	5.4327e+01	18.2433	66.758077	0.000324	3.244584	1.099295	-0.000130
 548	5.4426e+01	18.1968	66.568331	0.000477	4.765483	1.614589	-0.000191
 549	5.4526e+01	18.1631	66.499700	0.000172	1.723685	0.584000	-0.000069
 550	5.4626e+01	18.1278	66.358400	0.000355	3.548764	1.202354	-0.000142
 551	5.4725e+01	18.0829	66.217100	0.000355	3.548764	1.202354	-0.000142
 552	5.4825e+01	18.0460	66.124246	0.000233	2.332045	0.790118	-0.000093
 553	5.4924e+01	18.0059	66.023318	0.000253	2.534831	0.858824	-0.000101
 554	5.5023e+01	17.9674	65.857795	0.000416	4.157123	1.408472	-0.000166
 555	5.5123e+01	17.9209	65.760904	0.000243	2.433438	0.824471	-0.000097
 556	5.5222e+01	17.8872	65.619604	0.000355	3.548764	1.202354	-0.000142
 557	5.5322e+01	17.8599	65.542899	0.000193	1.926472	0.652706	-0.000077
 558	5.5422e+01	17.8006	65.373339	0.000426	4.258517	1.442825	-0.000170
 559	5.5521e+01	17.7621	65.219928	0.000385	3.852944	1.305413	-0.000154
 560	5.5620e+01	17.7380	65.139185	0.000203	2.027865	0.687059	-0.000081
 561	5.5720e+01	17.6899	64.993848	0.000365	3.650157	1.236707	-0.000146
 562	5.5819e+01	17.6498	64.900994	0.000233	2.332045	0.790118	-0.000093
 563	5.5919e+01	17.6081	64.767769	0.000335	3.345977	1.133648	-0.000134
 564	5.6019e+01	17.5631	64.614357	0.000385	3.852944	1.305413	-0.000154
 565	5.6118e+01	17.5311	64.529578	0.000213	2.129258	0.721412	-0.000085
 566	5.6218e+01	17.4926	64.339832	0.000477	4.765483	1.614589	-0.000191
 567	5.6317e+01	17.4492	64.267164	0.000183	1.825079	0.618353	-0.000073
 568	5.6416e+01	17.4075	64.101641	0.000416	4.157123	1.408472	-0.000166
 569	5.6516e+01	17.3594	63.980527	0.000304	3.041798	1.030589	-0.000122
 570	5.6615e+01	17.3321	63.875562	0.000264	2.636225	0.893177	-0.000105
 571	5.6715e+01	17.2920	63.766559	0.000274	2.737618	0.927530	-0.000110
 572	5.6815e+01	17.2423	63.621222	0.000365	3.650157	1.236707	-0.000146
 573	5.6914e+01	17.2022	63.504145	0.000294	2.940404	0.996236	-0.000118
 574	5.7014e+01	17.1669	63.383031	0.000304	3.041798	1.030589	-0.000122
 575	5.7113e+01	17.1284	63.282103	0.000253	2.534831	0.858824	-0.000101
 576	5.7212e+01	17.0899	63.152914	0.000324	3.244584	1.099295	-0.000130
 577	5.7312e+01	17.0562	63.043912	0.000274	2.737618	0.927530	-0.000110
 578	5.7411e+01	17.0049	62.878389	0.000416	4.157123	1.408472	-0.000166
 579	5.7511e+01	16.9712	62.785535	0.000233	2.332045	0.790118	-0.000093
 580	5.7611e+01	16.9247	62.664421	0.000304	3.041798	1.030589	-0.000122
 581	5.7710e+01	16.8958	62.506973	0.000395	3.954337	1.339766	-0.000158
 582	5.7809e+01	16.8477	62.357599	0.000375	3.751550	1.271060	-0.000150
 583	5.7909e+01	16.8156	62.244559	0.000284	2.839011	0.961883	-0.000114
 584	5.8008e+01	16.7706	62.115370	0.000324	3.244584	1.099295	-0.000130
 585	5.8108e+01	16.7209	61.990219	0.000314	3.143191	1.064942	-0.000126
 586	5.8208e+01	16.6953	61.873142	0.000294	2.940404	0.996236	-0.000118
 587	5.8307e+01	16.6567	61.776251	0.000243	2.433438	0.824471	-0.000097
 588	5.8407e+01	16.6134	61.618803	0.000395	3.954337	1.339766	-0.000158
 589	5.8506e+01	16.5685	61.497689	0.000304	3.041798	1.030589	-0.000122
 590	5.8605e+01	16.5268	61.396760	0.000253	2.534831	0.858824	-0.000101
 591	5.8705e+01	16.4851	61.231238	0.000416	4.157123	1.408472	-0.000166
 592	5.8804e+01	16.4562	61.106087	0.000314	3.143191	1.064942	-0.000126
 593	5.8904e+01	16.4097	60.980935	0.000314	3.143191	1.064942	-0.000126
 594	5.9004e+01	16.3535	60.884044	0.000243	2.433438	0.824471	-0.000097
 595	5.9103e+01	16.3231	60.718522	0.000416	4.157123	1.408472	-0.000166
 596	5.9203e+01	16.2878	60.641816	0.000193	1.926472	0.652706	-0.000077
 597	5.9302e+01	16.2525	60.488405	0.000385	3.852944	1.305413	-0.000154
 598	5.9401e+01	16.2060	60.363254	0.000314	3.143191	1.064942	-0.000126
 599	5.9501e+01	16.1787	60.238102	0.000314	3.143191	1.064942	-0.000126
 600	5.9600e+01	16.1322	60.092765	0.000365	3.650157	1.236707	-0.000146
 601	5.9700e+01	16.0953	59.963577	0.000324	3.244584	1.099295	-0.000130
 602	5.9800e+01	16.0568	59.862649	0.000253	2.534831	0.858824	-0.000101
 603	5.9899e+01	16.0118	59.733460	0.000324	3.244584	1.099295	-0.000130
 604	5.9998e+01	15.9701	59.640606	0.000233	2.332045	0.790118	-0.000093
 605	6.0098e+01	15.9364	59.503344	0.000345	3.447371	1.168001	-0.000138
 606	6.0197e+01	15.8963	59.341858	0.000406	4.055730	1.374119	-0.000162
 607	6.0297e+01	15.8498	59.253041	0.000223	2.230652	0.755765	-0.000089
 608	6.0397e+01	15.8129	59.083482	0.000426	4.258517	1.442825	-0.000170
 609	6.0496e+01	15.7696	59.002739	0.000203	2.027865	0.687059	-0.000081
 610	6.0596e+01	15.7343	58.849328	0.000385	3.852944	1.305413	-0.000154
 611	6.0695e+01	15.6974	58.683805	0.000416	4.157123	1.408472	-0.000166
 612	6.0794e+01	15.6589	58.582877	0.000253	2.534831	0.858824	-0.000101
 613	6.0894e+01	15.6060	58.425428	0.000395	3.954337	1.339766	-0.000158
 614	6.0993e+01	15.5771	58.276054	0.000375	3.751550	1.271060	-0.000150
 615	6.1093e+01	15.5274	58.191275	0.000213	2.129258	0.721412	-0.000085
 616	6.1193e+01	15.5001	58.062086	0.000324	3.244584	1.099295	-0.000130
 617	6.1292e+01	15.4616	57.965195	0.000243	2.433438	0.824471	-0.000097
 618	6.1392e+01	15.4151	57.827932	0.000345	3.447371	1.168001	-0.000138
 619	6.1491e+01	15.3782	57.654335	0.000436	4.359910	1.477177	-0.000174
 620	6.1590e+01	15.3365	57.537259	0.000294	2.940404	0.996236	-0.000118
 621	6.1690e+01	15.2899	57.399996	0.000345	3.447371	1.168001	-0.000138
 622	6.1789e+01	15.2546	57.290993	0.000274	2.737618	0.927530	-0.000110
 623	6.1889e+01	15.2097	57.149694	0.000355	3.548764	1.202354	-0.000142
 624	6.1989e+01	15.1664	56.992245	0.000395	3.954337	1.339766	-0.000158
 625	6.2088e+01	15.1359	56.927651	0.000162	1.622292	0.549647	-0.000065
 626	6.2188e+01	15.1022	56.745980	0.000456	4.562696	1.545883	-0.000183
 627	6.2287e+01	15.0589	56.620829	0.000314	3.143191	1.064942	-0.000126
 628	6.2386e+01	15.0220	56.487603	0.000335	3.345977	1.133648	-0.000134
 629	6.2486e+01	14.9723	56.334192	0.000385	3.852944	1.305413	-0.000154
 630	6.2586e+01	14.9386	56.209041	0.000314	3.143191	1.064942	-0.000126
 631	6.2685e+01	14.9097	56.075815	0.000335	3.345977	1.133648	-0.000134
 632	6.2785e+01	14.8632	55.946627	0.000324	3.244584	1.099295	-0.000130
 633	6.2884e+01	14.8167	55.801290	0.000365	3.650157	1.236707	-0.000146
 634	6.2983e+01	14.7798	55.676139	0.000314	3.143191	1.064942	-0.000126
 635	6.3083e+01	14.7349	55.522728	0.000385	3.852944	1.305413	-0.000154
 636	6.3182e+01	14.6932	55.425837	0.000243	2.433438	0.824471	-0.000097
 637	6.3282e+01	14.6482	55.260314	0.000416	4.157123	1.408472	-0.000166
 638	6.3382e+01	14.6114	55.143237	0.000294	2.940404	0.996236	-0.000118
 639	6.3481e+01	14.5809	54.945417	0.000497	4.968270	1.683295	-0.000199
 640	6.3581e+01	14.5327	54.864675	0.000203	2.027865	0.687059	-0.000081
 641	6.3680e+01	14.4991	54.711264	0.000385	3.852944	1.305413	-0.000154
 642	6.3779e+01	14.4590	54.602261	0.000274	2.737618	0.927530	-0.000110
 643	6.3879e+01	14.4237	54.460961	0.000355	3.548764	1.202354	-0.000142
 644	6.3978e+01	14.3739	54.319661	0.000355	3.548764	1.202354	-0.000142
 645	6.4078e+01	14.3467	54.162213	0.000395	3.954337	1.339766	-0.000158
 646	6.4177e+01	14.2937	54.041099	0.000304	3.041798	1.030589	-0.000122
 647	6.4277e+01	14.2600	53.867502	0.000436	4.359910	1.477177	-0.000174
 648	6.4376e+01	14.2151	53.701980	0.000416	4.157123	1.408472	-0.000166
 649	6.4476e+01	14.1862	53.617200	0.000213	2.129258	0.721412	-0.000085
 650	6.4576e+01	14.1397	53.504160	0.000284	2.839011	0.961883	-0.000114
 651	6.4675e+01	14.0964	53.383046	0.000304	3.041798	1.030589	-0.000122
 652	6.4775e+01	14.0627	53.213486	0.000426	4.258517	1.442825	-0.000170
 653	6.4874e+01	14.0274	53.072186	0.000355	3.548764	1.202354	-0.000142
 654	6.4974e+01	13.9809	52.922812	0.000375	3.751550	1.271060	-0.000150
 655	6.5073e+01	13.9376	52.789587	0.000335	3.345977	1.133648	-0.000134
 656	6.5172e+01	13.9055	52.632139	0.000395	3.954337	1.339766	-0.000158
 657	6.5272e+01	13.8526	52.531210	0.000253	2.534831	0.858824	-0.000101
 658	6.5371e+01	13.8269	52.365688	0.000416	4.157123	1.408472	-0.000166
 659	6.5471e+01	13.7836	52.260722	0.000264	2.636225	0.893177	-0.000105
 660	6.5570e+01	13.7435	52.095200	0.000416	4.157123	1.408472	-0.000166
 661	6.5670e+01	13.7034	51.974085	0.000304	3.041798	1.030589	-0.000122
 662	6.5769e+01	13.6600	51.816637	0.000395	3.954337	1.339766	-0.000158
 663	6.5869e+01	13.6167	51.639003	0.000446	4.461303	1.511530	-0.000179
 664	6.5969e+01	13.5814	51.542112	0.000243	2.433438	0.824471	-0.000097
 665	6.6068e+01	13.5397	51.372552	0.000426	4.258517	1.442825	-0.000170
 666	6.6168e+01	13.5012	51.259512	0.000284	2.839011	0.961883	-0.000114
 667	6.6267e+01	13.4531	51.154547	0.000264	2.636225	0.893177	-0.000105
 668	6.6367e+01	13.4194	51.001136	0.000385	3.852944	1.305413	-0.000154
 669	6.6466e+01	13.3809	50.815428	0.000466	4.664090	1.580236	-0.000187
 670	6.6566e+01	13.3456	50.678165	0.000345	3.447371	1.168001	-0.000138
 671	6.6665e+01	13.3055	50.553014	0.000314	3.143191	1.064942	-0.000126
 672	6.6764e+01	13.2654	50.391528	0.000406	4.055730	1.374119	-0.000162
 673	6.6864e+01	13.2205	50.254266	0.000345	3.447371	1.168001	-0.000138
 674	6.6963e+01	13.1836	50.080669	0.000436	4.359910	1.477177	-0.000174
 675	6.7063e+01	13.1419	49.987815	0.000233	2.332045	0.790118	-0.000093
 676	6.7162e+01	13.1002	49.850552	0.000345	3.447371	1.168001	-0.000138
 677	6.7262e+01	13.0585	49.656770	0.000487	4.866876	1.648942	-0.000195
 678	6.7362e+01	13.0200	49.515470	0.000355	3.548764	1.202354	-0.000142
 679	6.7461e+01	12.9879	49.406467	0.000274	2.737618	0.927530	-0.000110
 680	6.7561e+01	12.9413	49.261130	0.000365	3.650157	1.236707	-0.000146
 681	6.7660e+01	12.9109	49.148090	0.000284	2.839011	0.961883	-0.000114
 682	6.7760e+01	12.8659	48.966419	0.000456	4.562696	1.545883	-0.000183
 683	6.7859e+01	12.8307	48.845305	0.000304	3.041798	1.030589	-0.000122
 684	6.7959e+01	12.7889	48.663634	0.000456	4.562696	1.545883	-0.000183
 685	6.8058e+01	12.7537	48.534446	0.000324	3.244584	1.099295	-0.000130
 686	6.8157e+01	12.7071	48.393146	0.000355	3.548764	1.202354	-0.000142
 687	6.8257e+01	12.6686	48.251846	0.000355	3.548764	1.202354	-0.000142
 688	6.8356e+01	12.6253	48.106509	0.000365	3.650157	1.236707	-0.000146
 689	6.8456e+01	12.5900	47.985395	0.000304	3.041798	1.030589	-0.000122
 690	6.8555e+01	12.5515	47.852170	0.000335	3.345977	1.133648	-0.000134
 691	6.8655e+01	12.5146	47.710870	0.000355	3.548764	1.202354	-0.000142
 692	6.8754e+01	12.4681	47.549385	0.000406	4.055730	1.374119	-0.000162
 693	6.8854e+01	12.4232	47.371751	0.000446	4.461303	1.511530	-0.000179
 694	6.8954e+01	12.3911	47.278897	0.000233	2.332045	0.790118	-0.000093
 695	6.9053e+01	12.3462	47.089151	0.000477	4.765483	1.614589	-0.000191
 696	6.9153e+01	12.3077	46.959963	0.000324	3.244584	1.099295	-0.000130
 697	6.9252e+01	12.2756	46.790403	0.000426	4.258517	1.442825	-0.000170
 698	6.9352e+01	12.2210	46.669289	0.000304	3.041798	1.030589	-0.000122
 699	6.9451e+01	12.1906	46.515878	0.000385	3.852944	1.305413	-0.000154
 700	6.9550e+01	12.1537	46.370541	0.000365	3.650157	1.236707	-0.000146
 701	6.9650e+01	12.1087	46.217130	0.000385	3.852944	1.305413	-0.000154
 702	6.9749e+01	12.0686	46.091979	0.000314	3.143191	1.064942	-0.000126
 703	6.9849e+01	12.0237	45.922419	0.000426	4.258517	1.442825	-0.000170
 704	6.9948e+01	11.9836	45.805342	0.000294	2.940404	0.996236	-0.000118
 705	7.0048e+01	11.9451	45.664042	0.000355	3.548764	1.202354	-0.000142
 706	7.0147e+01	11.9130	45.506594	0.000395	3.954337	1.339766	-0.000158
 707	7.0247e+01	11.8649	45.357220	0.000375	3.751550	1.271060	-0.000150
 708	7.0347e+01	11.8312	45.215920	0.000355	3.548764	1.202354	-0.000142
 709	7.0446e+01	11.7847	45.070583	0.000365	3.650157	1.236707	-0.000146
 710	7.0546e+01	11.7478	44.937358	0.000335	3.345977	1.133648	-0.000134
 711	7.0645e+01	11.7093	44.783947	0.000385	3.852944	1.305413	-0.000154
 712	7.0745e+01	11.6788	44.658796	0.000314	3.143191	1.064942	-0.000126
 713	7.0844e+01	11.6371	44.549793	0.000274	2.737618	0.927530	-0.000110
 714	7.0944e+01	11.5906	44.364085	0.000466	4.664090	1.580236	-0.000187
 715	7.1043e+01	11.5537	44.275268	0.000223	2.230652	0.755765	-0.000089
 716	7.1142e+01	11.5104	44.101671	0.000436	4.359910	1.477177	-0.000174
 717	7.1242e+01	11.4671	43.976520	0.000314	3.143191	1.064942	-0.000126
 718	7.1341e+01	11.4286	43.815034	0.000406	4.055730	1.374119	-0.000162
 719	7.1441e+01	11.3884	43.665660	0.000375	3.751550	1.271060	-0.000150
 720	7.1540e+01	11.3516	43.504175	0.000406	4.055730	1.374119	-0.000162
 721	7.1640e+01	11.3243	43.383061	0.000304	3.041798	1.030589	-0.000122
 722	7.1740e+01	11.2729	43.201390	0.000456	4.562696	1.545883	-0.000183
 723	7.1839e+01	11.2344	43.108535	0.000233	2.332045	0.790118	-0.000093
 724	7.1939e+01	11.1863	42.934939	0.000436	4.359910	1.477177	-0.000174
 725	7.2038e+01	11.1574	42.821899	0.000284	2.839011	0.961883	-0.000114
 726	7.2138e+01	11.1157	42.672525	0.000375	3.751550	1.271060	-0.000150
 727	7.2237e+01	11.0660	42.494891	0.000446	4.461303	1.511530	-0.000179
 728	7.2337e+01	11.0371	42.369740	0.000314	3.143191	1.064942	-0.000126
 729	7.2436e+01	10.9954	42.236514	0.000335	3.345977	1.133648	-0.000134
 730	7.2535e+01	10.9601	42.095214	0.000355	3.548764	1.202354	-0.000142
 731	7.2635e+01	10.9184	41.945840	0.000375	3.751550	1.271060	-0.000150
 732	7.2734e+01	10.8719	41.796466	0.000375	3.751550	1.271060	-0.000150
 733	7.2834e+01	10.8350	41.643055	0.000385	3.852944	1.305413	-0.000154
 734	7.2933e+01	10.7949	41.550201	0.000233	2.332045	0.790118	-0.000093
 735	7.3033e+01	10.7500	41.364493	0.000466	4.664090	1.580236	-0.000187
 736	7.3132e+01	10.7099	41.223193	0.000355	3.548764	1.202354	-0.000142
 737	7.3232e+01	10.6762	41.094005	0.000324	3.244584	1.099295	-0.000130
 738	7.3332e+01	10.6425	40.936556	0.000395	3.954337	1.339766	-0.000158
 739	7.3431e+01	10.5879	40.831591	0.000264	2.636225	0.893177	-0.000105
 740	7.3531e+01	10.5607	40.662031	0.000426	4.258517	1.442825	-0.000170
 741	7.3630e+01	10.5109	40.504583	0.000395	3.954337	1.339766	-0.000158
 742	7.3730e+01	10.4805	40.379432	0.000314	3.143191	1.064942	-0.000126
 743	7.3829e+01	10.4323	40.226020	0.000385	3.852944	1.305413	-0.000154
 744	7.3928e+01	10.4002	40.088758	0.000345	3.447371	1.168001	-0.000138
 745	7.4028e+01	10.3682	39.939384	0.000375	3.751550	1.271060	-0.000150
 746	7.4127e+01	10.3120	39.818270	0.000304	3.041798	1.030589	-0.000122
 747	7.4227e+01	10.2799	39.660821	0.000395	3.954337	1.339766	-0.000158
 748	7.4326e+01	10.2270	39.507410	0.000385	3.852944	1.305413	-0.000154
 749	7.4426e+01	10.1965	39.402445	0.000264	2.636225	0.893177	-0.000105
 750	7.4525e+01	10.1612	39.228848	0.000436	4.359910	1.477177	-0.000174
 751	7.4625e+01	10.1115	39.059288	0.000426	4.258517	1.442825	-0.000170
 752	7.4725e+01	10.0794	38.913951	0.000365	3.650157	1.236707	-0.000146
 753	7.4824e+01	10.0457	38.813023	0.000253	2.534831	0.858824	-0.000101
 754	7.4924e+01	9.9992	38.655575	0.000395	3.954337	1.339766	-0.000158
 755	7.5023e+01	9.9591	38.510238	0.000365	3.650157	1.236707	-0.000146
 756	7.5123e+01	9.9174	38.401235	0.000274	2.737618	0.927530	-0.000110
 757	7.5222e+01	9.8741	38.227638	0.000436	4.359910	1.477177	-0.000174
 758	7.5322e+01	9.8356	38.058079	0.000426	4.258517	1.442825	-0.000170
 759	7.5421e+01	9.8019	37.949076	0.000274	2.737618	0.927530	-0.000110
 760	7.5520e+01	9.7602	37.803739	0.000365	3.650157	1.236707	-0.000146
 761	7.5620e+01	9.7281	37.618031	0.000466	4.664090	1.580236	-0.000187
 762	7.5719e+01	9.6783	37.500954	0.000294	2.940404	0.996236	-0.000118
 763	7.5819e+01	9.6463	37.375803	0.000314	3.143191	1.064942	-0.000126
 764	7.5918e+01	9.6013	37.242577	0.000335	3.345977	1.133648	-0.000134
 765	7.6018e+01	9.5548	37.109352	0.000335	3.345977	1.133648	-0.000134
 766	7.6118e+01	9.5211	36.939792	0.000426	4.258517	1.442825	-0.000170
 767	7.6217e+01	9.4762	36.814641	0.000314	3.143191	1.064942	-0.000126
 768	7.6317e+01	9.4377	36.641044	0.000436	4.359910	1.477177	-0.000174
 769	7.6416e+01	9.4008	36.540116	0.000253	2.534831	0.858824	-0.000101
 770	7.6516e+01	9.3607	36.354407	0.000466	4.664090	1.580236	-0.000187
 771	7.6615e+01	9.3286	36.233293	0.000304	3.041798	1.030589	-0.000122
 772	7.6715e+01	9.2837	36.083919	0.000375	3.751550	1.271060	-0.000150
 773	7.6814e+01	9.2468	35.946657	0.000345	3.447371	1.168001	-0.000138
 774	7.6913e+01	9.2003	35.764986	0.000456	4.562696	1.545883	-0.000183
 775	7.7013e+01	9.1634	35.631760	0.000335	3.345977	1.133648	-0.000134
 776	7.7112e+01	9.1249	35.498535	0.000335	3.345977	1.133648	-0.000134
 777	7.7212e+01	9.0832	35.324938	0.000436	4.359910	1.477177	-0.000174
 778	7.7311e+01	9.0415	35.183638	0.000355	3.548764	1.202354	-0.000142
 779	7.7411e+01	9.0014	35.034264	0.000375	3.751550	1.271060	-0.000150
 780	7.7510e+01	8.9548	34.901038	0.000335	3.345977	1.133648	-0.000134
 781	7.7610e+01	8.9243	34.796073	0.000264	2.636225	0.893177	-0.000105
 782	7.7710e+01	8.8826	34.634587	0.000406	4.055730	1.374119	-0.000162
 783	7.7809e+01	8.8377	34.469065	0.000416	4.157123	1.408472	-0.000166
 784	7.7909e+01	8.8104	34.327765	0.000355	3.548764	1.202354	-0.000142
 785	7.8008e+01	8.7607	34.198577	0.000324	3.244584	1.099295	-0.000130
 786	7.8108e+01	8.7190	34.041129	0.000395	3.954337	1.339766	-0.000158
 787	7.8207e+01	8.6917	33.863495	0.000446	4.461303	1.511530	-0.000179
 788	7.8306e+01	8.6420	33.778715	0.000213	2.129258	0.721412	-0.000085
 789	7.8406e+01	8.6019	33.613192	0.000416	4.157123	1.408472	-0.000166
 790	7.8505e+01	8.5618	33.463818	0.000375	3.751550	1.271060	-0.000150
 791	7.8605e+01	8.5137	33.326556	0.000345	3.447371	1.168001	-0.000138
 792	7.8704e+01	8.4784	33.156996	0.000426	4.258517	1.442825	-0.000170
 793	7.8804e+01	8.4511	33.023770	0.000335	3.345977	1.133648	-0.000134
 794	7.8903e+01	8.4062	32.858248	0.000416	4.157123	1.408472	-0.000166
 795	7.9003e+01	8.3629	32.708874	0.000375	3.751550	1.271060	-0.000150
 796	7.9103e+01	8.3292	32.535277	0.000436	4.359910	1.477177	-0.000174
 797	7.9202e+01	8.2827	32.402051	0.000335	3.345977	1.133648	-0.000134
 798	7.9302e+01	8.2393	32.232492	0.000426	4.258517	1.442825	-0.000170
 799	7.9401e+01	8.2057	32.127526	0.000264	2.636225	0.893177	-0.000105
 800	7.9501e+01	8.1591	31.966041	0.000406	4.055730	1.374119	-0.000162
 801	7.9600e+01	8.1238	31.772258	0.000487	4.866876	1.648942	-0.000195
 802	7.9700e+01	8.0869	31.655181	0.000294	2.940404	0.996236	-0.000118
 803	7.9799e+01	8.0420	31.469473	0.000466	4.664090	1.580236	-0.000187
 804	7.9898e+01	8.0019	31.328173	0.000355	3.548764	1.202354	-0.000142
 805	7.9998e+01	7.9618	31.203022	0.000314	3.143191	1.064942	-0.000126
 806	8.0097e+01	7.9185	31.021351	0.000456	4.562696	1.545883	-0.000183
 807	8.0197e+01	7.8944	30.904274	0.000294	2.940404	0.996236	-0.000118
 808	8.0296e+01	7.8463	30.738752	0.000416	4.157123	1.408472	-0.000166
 809	8.0396e+01	7.8078	30.597452	0.000355	3.548764	1.202354	-0.000142
 810	8.0496e+01	7.7677	30.440003	0.000395	3.954337	1.339766	-0.000158
 811	8.0595e+01	7.7196	30.254295	0.000466	4.664090	1.580236	-0.000187
 812	8.0695e+01	7.6859	30.072624	0.000456	4.562696	1.545883	-0.000183
 813	8.0794e+01	7.6378	29.967659	0.000264	2.636225	0.893177	-0.000105
 814	8.0894e+01	7.6105	29.798099	0.000426	4.258517	1.442825	-0.000170
 815	8.0993e+01	7.5640	29.672948	0.000314	3.143191	1.064942	-0.000126
 816	8.1093e+01	7.5351	29.515499	0.000395	3.954337	1.339766	-0.000158
 817	8.1192e+01	7.4886	29.354014	0.000406	4.055730	1.374119	-0.000162
 818	8.1291e+01	7.4420	29.208677	0.000365	3.650157	1.236707	-0.000146
 819	8.1391e+01	7.4100	29.051229	0.000395	3.954337	1.339766	-0.000158
 820	8.1490e+01	7.3634	28.885706	0.000416	4.157123	1.408472	-0.000166
 821	8.1590e+01	7.3217	28.720184	0.000416	4.157123	1.408472	-0.000166
 822	8.1689e+01	7.2848	28.586958	0.000335	3.345977	1.133648	-0.000134
 823	8.1789e+01	7.2479	28.413361	0.000436	4.359910	1.477177	-0.000174
 824	8.1888e+01	7.2062	28.263987	0.000375	3.751550	1.271060	-0.000150
 825	8.1988e+01	7.1677	28.098465	0.000416	4.157123	1.408472	-0.000166
 826	8.2088e+01	7.1276	27.973314	0.000314	3.143191	1.064942	-0.000126
 827	8.2187e+01	7.0923	27.823940	0.000375	3.751550	1.271060	-0.000150
 828	8.2287e+01	7.0442	27.666491	0.000395	3.954337	1.339766	-0.000158
 829	8.2386e+01	7.0105	27.500969	0.000416	4.157123	1.408472	-0.000166
 830	8.2486e+01	6.9672	27.355632	0.000365	3.650157	1.236707	-0.000146
 831	8.2585e+01	6.9399	27.222406	0.000335	3.345977	1.133648	-0.000134
 832	8.2684e+01	6.8854	27.028624	0.000487	4.866876	1.648942	-0.000195
 833	8.2784e+01	6.8437	26.887324	0.000355	3.548764	1.202354	-0.000142
 834	8.2883e+01	6.8068	26.758136	0.000324	3.244584	1.099295	-0.000130
 835	8.2983e+01	6.7683	26.580502	0.000446	4.461303	1.511530	-0.000179
 836	8.3082e+01	6.7233	26.402868	0.000446	4.461303	1.511530	-0.000179
 837	8.3182e+01	6.6977	26.277717	0.000314	3.143191	1.064942	-0.000126
 838	8.3281e+01	6.6431	26.128342	0.000375	3.751550	1.271060	-0.000150
 839	8.3381e+01	6.6175	25.914374	0.000537	5.373843	1.820707	-0.000215
 840	8.3481e+01	6.5693	25.801335	0.000284	2.839011	0.961883	-0.000114
 841	8.3580e+01	6.5260	25.651960	0.000375	3.751550	1.271060	-0.000150
 842	8.3680e+01	6.4939	25.474327	0.000446	4.461303	1.511530	-0.000179
 843	8.3779e+01	6.4490	25.333027	0.000355	3.548764	1.202354	-0.000142
 844	8.3879e+01	6.4153	25.147319	0.000466	4.664090	1.580236	-0.000187
 845	8.3978e+01	6.3784	25.010056	0.000345	3.447371	1.168001	-0.000138
 846	8.4078e+01	6.3303	24.852608	0.000395	3.954337	1.339766	-0.000158
 847	8.4177e+01	6.3014	24.711308	0.000355	3.548764	1.202354	-0.000142
 848	8.4276e+01	6.2613	24.541748	0.000426	4.258517	1.442825	-0.000170
 849	8.4376e+01	6.2100	24.384300	0.000395	3.954337	1.339766	-0.000158
 850	8.4475e+01	6.1811	24.178406	0.000517	5.171056	1.752001	-0.000207
 851	8.4575e+01	6.1282	24.053255	0.000314	3.143191	1.064942	-0.000126
 852	8.4674e+01	6.0993	23.903881	0.000375	3.751550	1.271060	-0.000150
 853	8.4774e+01	6.0560	23.746432	0.000395	3.954337	1.339766	-0.000158
 854	8.4874e+01	6.0159	23.556687	0.000477	4.765483	1.614589	-0.000191
 855	8.4973e+01	5.9726	23.399239	0.000395	3.954337	1.339766	-0.000158
 856	8.5073e+01	5.9357	23.237753	0.000406	4.055730	1.374119	-0.000162
 857	8.5172e+01	5.8923	23.096454	0.000355	3.548764	1.202354	-0.000142
 858	8.5272e+01	5.8538	22.934968	0.000406	4.055730	1.374119	-0.000162
 859	8.5371e+01	5.8137	22.785594	0.000375	3.751550	1.271060	-0.000150
 860	8.5471e+01	5.7768	22.628146	0.000395	3.954337	1.339766	-0.000158
 861	8.5570e+01	5.7351	22.478772	0.000375	3.751550	1.271060	-0.000150
 862	8.5669e+01	5.7063	22.297101	0.000456	4.562696	1.545883	-0.000183
 863	8.5769e+01	5.6533	22.159838	0.000345	3.447371	1.168001	-0.000138
 864	8.5868e+01	5.6052	21.990278	0.000426	4.258517	1.442825	-0.000170
 865	8.5968e+01	5.5763	21.836867	0.000385	3.852944	1.305413	-0.000154
 866	8.6067e+01	5.5426	21.703642	0.000335	3.345977	1.133648	-0.000134
 867	8.6167e+01	5.4977	21.509859	0.000487	4.866876	1.648942	-0.000195
 868	8.6266e+01	5.4624	21.360485	0.000375	3.751550	1.271060	-0.000150
 869	8.6366e+01	5.4127	21.203037	0.000395	3.954337	1.339766	-0.000158
 870	8.6466e+01	5.3758	21.001180	0.000507	5.069663	1.717648	-0.000203
 871	8.6565e+01	5.3325	20.884103	0.000294	2.940404	0.996236	-0.000118
 872	8.6665e+01	5.3004	20.734729	0.000375	3.751550	1.271060	-0.000150
 873	8.6764e+01	5.2587	20.577281	0.000395	3.954337	1.339766	-0.000158
 874	8.6864e+01	5.2250	20.419833	0.000395	3.954337	1.339766	-0.000158
 875	8.6963e+01	5.1817	20.270459	0.000375	3.751550	1.271060	-0.000150
 876	8.7063e+01	5.1448	20.117047	0.000385	3.852944	1.305413	-0.000154
 877	8.7162e+01	5.1031	19.939413	0.000446	4.461303	1.511530	-0.000179
 878	8.7261e+01	5.0614	19.786002	0.000385	3.852944	1.305413	-0.000154
 879	8.7361e+01	5.0148	19.608368	0.000446	4.461303	1.511530	-0.000179
 880	8.7460e+01	4.9683	19.450920	0.000395	3.954337	1.339766	-0.000158
 881	8.7560e+01	4.9410	19.325769	0.000314	3.143191	1.064942	-0.000126
 882	8.7659e+01	4.8913	19.180432	0.000365	3.650157	1.236707	-0.000146
 883	8.7759e+01	4.8560	19.047206	0.000335	3.345977	1.133648	-0.000134
 884	8.7859e+01	4.8191	18.829201	0.000548	5.475236	1.855060	-0.000219
 885	8.7958e+01	4.7758	18.708087	0.000304	3.041798	1.030589	-0.000122
 886	8.8058e+01	4.7389	18.546602	0.000406	4.055730	1.374119	-0.000162
 887	8.8157e+01	4.6956	18.425488	0.000304	3.041798	1.030589	-0.000122
 888	8.8257e+01	4.6699	18.239779	0.000466	4.664090	1.580236	-0.000187
 889	8.8356e+01	4.6186	18.082331	0.000395	3.954337	1.339766	-0.000158
 890	8.8456e+01	4.5785	17.936994	0.000365	3.650157	1.236707	-0.000146
 891	8.8555e+01	4.5432	17.783583	0.000385	3.852944	1.305413	-0.000154
 892	8.8654e+01	4.4951	17.601912	0.000456	4.562696	1.545883	-0.000183
 893	8.8754e+01	4.4582	17.428315	0.000436	4.359910	1.477177	-0.000174
 894	8.8853e+01	4.4229	17.303164	0.000314	3.143191	1.064942	-0.000126
 895	8.8953e+01	4.3828	17.137641	0.000416	4.157123	1.408472	-0.000166
 896	8.9052e+01	4.3411	16.964044	0.000436	4.359910	1.477177	-0.000174
 897	8.9152e+01	4.2993	16.814670	0.000375	3.751550	1.271060	-0.000150
 898	8.9251e+01	4.2624	16.705668	0.000274	2.737618	0.927530	-0.000110
 899	8.9351e+01	4.2223	16.507848	0.000497	4.968270	1.683295	-0.000199
 900	8.9451e+01	4.1758	16.338288	0.000426	4.258517	1.442825	-0.000170
 901	8.9550e+01	4.1453	16.205063	0.000335	3.345977	1.133648	-0.000134
 902	8.9650e+01	4.1036	16.039540	0.000416	4.157123	1.408472	-0.000166
 903	8.9749e+01	4.0587	15.902278	0.000345	3.447371	1.168001	-0.000138
 904	8.9849e+01	4.0202	15.736755	0.000416	4.157123	1.408472	-0.000166
 905	8.9948e+01	3.9881	15.583344	0.000385	3.852944	1.305413	-0.000154
 906	9.0047e+01	3.9416	15.397636	0.000466	4.664090	1.580236	-0.000187
 907	9.0147e+01	3.9015	15.240187	0.000395	3.954337	1.339766	-0.000158
 908	9.0246e+01	3.8582	15.167519	0.000183	1.825079	0.618353	-0.000073
 909	9.0346e+01	3.8181	14.981811	0.000466	4.664090	1.580236	-0.000187
 910	9.0445e+01	3.7796	14.779954	0.000507	5.069663	1.717648	-0.000203
 911	9.0545e+01	3.7443	14.634617	0.000365	3.650157	1.236707	-0.000146
 912	9.0644e+01	3.6994	14.461020	0.000436	4.359910	1.477177	-0.000174
 913	9.0744e+01	3.6593	14.315683	0.000365	3.650157	1.236707	-0.000146
 914	9.0844e+01	3.6208	14.150161	0.000416	4.157123	1.408472	-0.000166
 915	9.0943e+01	3.5790	13.980601	0.000426	4.258517	1.442825	-0.000170
 916	9.1043e+01	3.5470	13.875636	0.000264	2.636225	0.893177	-0.000105
 917	9.1142e+01	3.5101	13.677816	0.000497	4.968270	1.683295	-0.000199
 918	9.1242e+01	3.4651	13.516330	0.000406	4.055730	1.374119	-0.000162
 919	9.1341e+01	3.4315	13.387142	0.000324	3.244584	1.099295	-0.000130
 920	9.1441e+01	3.3817	13.233731	0.000385	3.852944	1.305413	-0.000154
 921	9.1540e+01	3.3432	13.060134	0.000436	4.359910	1.477177	-0.000174
 922	9.1639e+01	3.3079	12.934983	0.000314	3.143191	1.064942	-0.000126
 923	9.1739e+01	3.2646	12.749275	0.000466	4.664090	1.580236	-0.000187
 924	9.1838e+01	3.2293	12.620086	0.000324	3.244584	1.099295	-0.000130
 925	9.1938e+01	3.1812	12.422267	0.000497	4.968270	1.683295	-0.000199
 926	9.2037e+01	3.1491	12.289041	0.000335	3.345977	1.133648	-0.000134
 927	9.2137e+01	3.0978	12.147741	0.000355	3.548764	1.202354	-0.000142
 928	9.2237e+01	3.0705	11.998367	0.000375	3.751550	1.271060	-0.000150
 929	9.2336e+01	3.0240	11.816696	0.000456	4.562696	1.545883	-0.000183
 930	9.2436e+01	2.9759	11.647137	0.000426	4.258517	1.442825	-0.000170
 931	9.2535e+01	2.9454	11.562357	0.000213	2.129258	0.721412	-0.000085
 932	9.2635e+01	2.9117	11.368574	0.000487	4.866876	1.648942	-0.000195
 933	9.2734e+01	2.8668	11.227274	0.000355	3.548764	1.202354	-0.000142
 934	9.2834e+01	2.8267	11.069826	0.000395	3.954337	1.339766	-0.000158
 935	9.2933e+01	2.7898	10.863932	0.000517	5.171056	1.752001	-0.000207
 936	9.3032e+01	2.7448	10.726670	0.000345	3.447371	1.168001	-0.000138
 937	9.3132e+01	2.7224	10.605556	0.000304	3.041798	1.030589	-0.000122
 938	9.3231e+01	2.6694	10.435996	0.000426	4.258517	1.442825	-0.000170
 939	9.3331e+01	2.6277	10.322956	0.000284	2.839011	0.961883	-0.000114
 940	9.3430e+01	2.5924	10.161471	0.000406	4.055730	1.374119	-0.000162
 941	9.3530e+01	2.5475	9.987874	0.000436	4.359910	1.477177	-0.000174
 942	9.3629e+01	2.5106	9.834463	0.000385	3.852944	1.305413	-0.000154
 943	9.3729e+01	2.4721	9.672977	0.000406	4.055730	1.374119	-0.000162
 944	9.3829e+01	2.4272	9.515529	0.000395	3.954337	1.339766	-0.000158
 945	9.3928e+01	2.3919	9.382303	0.000335	3.345977	1.133648	-0.000134
 946	9.4028e+01	2.3566	9.200632	0.000456	4.562696	1.545883	-0.000183
 947	9.4127e+01	2.3133	9.010887	0.000477	4.765483	1.614589	-0.000191
 948	9.4227e+01	2.2620	8.877661	0.000335	3.345977	1.133648	-0.000134
 949	9.4326e+01	2.2203	8.748473	0.000324	3.244584	1.099295	-0.000130
 950	9.4425e+01	2.1978	8.595062	0.000385	3.852944	1.305413	-0.000154
 951	9.4525e+01	2.1465	8.417428	0.000446	4.461303	1.511530	-0.000179
 952	9.4624e+01	2.1112	8.243831	0.000436	4.359910	1.477177	-0.000174
 953	9.4724e+01	2.0630	8.102531	0.000355	3.548764	1.202354	-0.000142
 954	9.4823e+01	2.0229	7.945083	0.000395	3.954337	1.339766	-0.000158
 955	9.4923e+01	1.9876	7.807821	0.000345	3.447371	1.168001	-0.000138
 956	9.5022e+01	1.9491	7.654409	0.000385	3.852944	1.305413	-0.000154
 957	9.5122e+01	1.9171	7.468701	0.000466	4.664090	1.580236	-0.000187
 958	9.5222e+01	1.8657	7.287030	0.000456	4.562696	1.545883	-0.000183
 959	9.5321e+01	1.8336	7.129582	0.000395	3.954337	1.339766	-0.000158
 960	9.5421e+01	1.7903	6.996356	0.000335	3.345977	1.133648	-0.000134
 961	9.5520e+01	1.7598	6.810648	0.000466	4.664090	1.580236	-0.000187
 962	9.5620e+01	1.7053	6.673385	0.000345	3.447371	1.168001	-0.000138
 963	9.5719e+01	1.6828	6.503826	0.000426	4.258517	1.442825	-0.000170
 964	9.5819e+01	1.6299	6.366563	0.000345	3.447371	1.168001	-0.000138
 965	9.5918e+01	1.5914	6.152595	0.000537	5.373843	1.820707	-0.000215
 966	9.6017e+01	1.5513	6.027444	0.000314	3.143191	1.064942	-0.000126
 967	9.6117e+01	1.5112	5.878070	0.000375	3.751550	1.271060	-0.000150
 968	9.6216e+01	1.4615	5.680250	0.000497	4.968270	1.683295	-0.000199
 969	9.6316e+01	1.4294	5.542987	0.000345	3.447371	1.168001	-0.000138
 970	9.6415e+01	1.3957	5.389576	0.000385	3.852944	1.305413	-0.000154
 971	9.6515e+01	1.3572	5.191757	0.000497	4.968270	1.683295	-0.000199
 972	9.6615e+01	1.3139	5.066605	0.000314	3.143191	1.064942	-0.000126
 973	9.6714e+01	1.2802	4.909157	0.000395	3.954337	1.339766	-0.000158
 974	9.6814e+01	1.2353	4.779969	0.000324	3.244584	1.099295	-0.000130
 975	9.6913e+01	1.2016	4.590223	0.000477	4.765483	1.614589	-0.000191
 976	9.7013e+01	1.1583	4.452961	0.000345	3.447371	1.168001	-0.000138
 977	9.7112e+01	1.1117	4.287438	0.000416	4.157123	1.408472	-0.000166
 978	9.7212e+01	1.0716	4.081544	0.000517	5.171056	1.752001	-0.000207
 979	9.7311e+01	1.0331	3.940244	0.000355	3.548764	1.202354	-0.000142
 980	9.7410e+01	0.9882	3.758573	0.000456	4.562696	1.545883	-0.000183
 981	9.7510e+01	0.9497	3.584977	0.000436	4.359910	1.477177	-0.000174
 982	9.7609e+01	0.9176	3.443677	0.000355	3.548764	1.202354	-0.000142
 983	9.7709e+01	0.8775	3.310451	0.000335	3.345977	1.133648	-0.000134
 984	9.7808e+01	0.8358	3.120706	0.000477	4.765483	1.614589	-0.000191
 985	9.7908e+01	0.7909	2.975369	0.000365	3.650157	1.236707	-0.000146
 986	9.8007e+01	0.7540	2.781587	0.000487	4.866876	1.648942	-0.000195
 987	9.8107e+01	0.7107	2.640287	0.000355	3.548764	1.202354	-0.000142
 988	9.8207e+01	0.6738	2.466690	0.000436	4.359910	1.477177	-0.000174
 989	9.8306e+01	0.6353	2.293093	0.000436	4.359910	1.477177	-0.000174
 990	9.8406e+01	0.5888	2.131608	0.000406	4.055730	1.374119	-0.000162
 991	9.8505e+01	0.5454	1.974159	0.000395	3.954337	1.339766	-0.000158
 992	9.8605e+01	0.5214	1.820748	0.000385	3.852944	1.305413	-0.000154
 993	9.8704e+01	0.4813	1.639077	0.000456	4.562696	1.545883	-0.000183
 994	9.8803e+01	0.4347	1.501814	0.000345	3.447371	1.168001	-0.000138
 995	9.8903e+01	0.3946	1.316106	0.000466	4.664090	1.580236	-0.000187
 996	9.9002e+01	0.3593	1.154621	0.000406	4.055730	1.374119	-0.000162
 997	9.9102e+01	0.3128	0.993135	0.000406	4.055730	1.374119	-0.000162
 998	9.9201e+01	0.2711	0.851836	0.000355	3.548764	1.202354	-0.000142
 999	9.9301e+01	0.2422	0.674202	0.000446	4.461303	1.511530	-0.000179
1000	9.9400e+01	0.1973	0.536939	0.000345	3.447371	1.168001	-0.000138
1001	9.9500e+01	0.1540	0.351231	0.000466	4.664090	1.580236	-0.000187
1002	9.9600e+01	0.1171	0.177634	0.000436	4.359910	1.477177	-0.000174
1003	9.9699e+01	0.0706	0.020186	0.000395	3.954337	1.339766	-0.000158
1004	9.9799e+01	0.0417	-0.125151	0.000365	3.650157	1.236707	-0.000146
1005	9.9898e+01	0.0048	-0.278562	0.000385	3.852944	1.305413	-0.000154
1006	9.9998e+01	-0.0465	-0.387565	0.000274	2.737618	0.927530	-0.000110
1007	1.0010e+02	-0.0754	-0.601533	0.000537	5.373843	1.820707	-0.000215
1008	1.0020e+02	-0.1203	-0.750907	0.000375	3.751550	1.271060	-0.000150
1009	1.0030e+02	-0.1588	-0.952764	0.000507	5.069663	1.717648	-0.000203
1010	1.0040e+02	-0.2005	-1.102138	0.000375	3.751550	1.271060	-0.000150
1011	1.0050e+02	-0.2246	-1.267661	0.000416	4.157123	1.408472	-0.000166
1012	1.0059e+02	-0.2695	-1.437220	0.000426	4.258517	1.442825	-0.000170
1013	1.0069e+02	-0.3144	-1.554297	0.000294	2.940404	0.996236	-0.000118
1014	1.0079e+02	-0.3545	-1.768265	0.000537	5.373843	1.820707	-0.000215
1015	1.0089e+02	-0.3930	-1.941862	0.000436	4.359910	1.477177	-0.000174
1016	1.0099e+02	-0.4299	-2.067013	0.000314	3.143191	1.064942	-0.000126
1017	1.0109e+02	-0.4765	-2.240610	0.000436	4.359910	1.477177	-0.000174
1018	1.0119e+02	-0.5021	-2.389984	0.000375	3.751550	1.271060	-0.000150
1019	1.0129e+02	-0.5535	-2.575693	0.000466	4.664090	1.580236	-0.000187
1020	1.0139e+02	-0.5968	-2.741215	0.000416	4.157123	1.408472	-0.000166
1021	1.0149e+02	-0.6337	-2.922886	0.000456	4.562696	1.545883	-0.000183
1022	1.0159e+02	-0.6754	-3.092446	0.000426	4.258517	1.442825	-0.000170
1023	1.0169e+02	-0.7123	-3.225671	0.000335	3.345977	1.133648	-0.000134
1024	1.0179e+02	-0.7492	-3.403305	0.000446	4.461303	1.511530	-0.000179
1025	1.0189e+02	-0.7973	-3.548642	0.000365	3.650157	1.236707	-0.000146
1026	1.0199e+02	-0.8342	-3.718202	0.000426	4.258517	1.442825	-0.000170
1027	1.0209e+02	-0.8759	-3.879687	0.000406	4.055730	1.374119	-0.000162
1028	1.0219e+02	-0.9080	-4.061359	0.000456	4.562696	1.545883	-0.000183
1029	1.0229e+02	-0.9529	-4.243030	0.000456	4.562696	1.545883	-0.000183
1030	1.0239e+02	-0.9914	-4.392404	0.000375	3.751550	1.271060	-0.000150
1031	1.0248e+02	-1.0379	-4.545815	0.000385	3.852944	1.305413	-0.000154
1032	1.0258e+02	-1.0764	-4.711337	0.000416	4.157123	1.408472	-0.000166
1033	1.0268e+02	-1.1101	-4.868786	0.000395	3.954337	1.339766	-0.000158
1034	1.0278e+02	-1.1502	-5.086791	0.000548	5.475236	1.855060	-0.000219
1035	1.0288e+02	-1.1952	-5.232128	0.000365	3.650157	1.236707	-0.000146
1036	1.0298e+02	-1.2401	-5.373428	0.000355	3.548764	1.202354	-0.000142
1037	1.0308e+02	-1.2722	-5.563173	0.000477	4.765483	1.614589	-0.000191
1038	1.0318e+02	-1.3074	-5.700436	0.000345	3.447371	1.168001	-0.000138
1039	1.0328e+02	-1.3556	-5.918441	0.000548	5.475236	1.855060	-0.000219
1040	1.0338e+02	-1.3893	-6.023407	0.000264	2.636225	0.893177	-0.000105
1041	1.0348e+02	-1.4230	-6.205078	0.000456	4.562696	1.545883	-0.000183
1042	1.0358e+02	-1.4695	-6.318117	0.000284	2.839011	0.961883	-0.000114
1043	1.0368e+02	-1.5080	-6.511900	0.000487	4.866876	1.648942	-0.000195
1044	1.0378e+02	-1.5513	-6.661274	0.000375	3.751550	1.271060	-0.000150
1045	1.0388e+02	-1.5866	-6.814685	0.000385	3.852944	1.305413	-0.000154
1046	1.0398e+02	-1.6283	-6.939836	0.000314	3.143191	1.064942	-0.000126
1047	1.0408e+02	-1.6556	-7.149767	0.000527	5.272449	1.786354	-0.000211
1048	1.0418e+02	-1.7005	-7.258770	0.000274	2.737618	0.927530	-0.000110
1049	1.0428e+02	-1.7470	-7.472738	0.000537	5.373843	1.820707	-0.000215
1050	1.0438e+02	-1.7839	-7.646335	0.000436	4.359910	1.477177	-0.000174
1051	1.0447e+02	-1.8336	-7.771486	0.000314	3.143191	1.064942	-0.000126
1052	1.0457e+02	-1.8561	-7.937009	0.000416	4.157123	1.408472	-0.000166
1053	1.0467e+02	-1.9171	-8.094457	0.000395	3.954337	1.339766	-0.000158
1054	1.0477e+02	-1.9620	-8.231720	0.000345	3.447371	1.168001	-0.000138
1055	1.0487e+02	-1.9812	-8.405317	0.000436	4.359910	1.477177	-0.000174
1056	1.0497e+02	-2.0438	-8.591025	0.000466	4.664090	1.580236	-0.000187
1057	1.0507e+02	-2.0663	-8.756547	0.000416	4.157123	1.408472	-0.000166
1058	1.0517e+02	-2.1015	-8.893810	0.000345	3.447371	1.168001	-0.000138
1059	1.0527e+02	-2.1449	-9.039147	0.000365	3.650157	1.236707	-0.000146
1060	1.0537e+02	-2.1962	-9.176410	0.000345	3.447371	1.168001	-0.000138
1061	1.0547e+02	-2.2347	-9.374229	0.000497	4.968270	1.683295	-0.000199
1062	1.0557e+02	-2.2764	-9.555900	0.000456	4.562696	1.545883	-0.000183
1063	1.0567e+02	-2.3101	-9.677014	0.000304	3.041798	1.030589	-0.000122
1064	1.0577e+02	-2.3454	-9.830426	0.000385	3.852944	1.305413	-0.000154
1065	1.0587e+02	-2.3807	-9.975762	0.000365	3.650157	1.236707	-0.000146
1066	1.0597e+02	-2.4288	-10.165508	0.000477	4.765483	1.614589	-0.000191
1067	1.0607e+02	-2.4657	-10.294696	0.000324	3.244584	1.099295	-0.000130
1068	1.0617e+02	-2.5122	-10.484442	0.000477	4.765483	1.614589	-0.000191
1069	1.0627e+02	-2.5411	-10.601518	0.000294	2.940404	0.996236	-0.000118
1070	1.0637e+02	-2.5876	-10.742818	0.000355	3.548764	1.202354	-0.000142
1071	1.0647e+02	-2.6181	-10.948712	0.000517	5.171056	1.752001	-0.000207
1072	1.0656e+02	-2.6646	-11.142495	0.000487	4.866876	1.648942	-0.000195
1073	1.0666e+02	-2.7079	-11.255534	0.000284	2.839011	0.961883	-0.000114
1074	1.0676e+02	-2.7561	-11.404908	0.000375	3.751550	1.271060	-0.000150
1075	1.0686e+02	-2.7898	-11.594654	0.000477	4.765483	1.614589	-0.000191
1076	1.0696e+02	-2.8283	-11.723842	0.000324	3.244584	1.099295	-0.000130
1077	1.0706e+02	-2.8539	-11.877253	0.000385	3.852944	1.305413	-0.000154
1078	1.0716e+02	-2.9069	-12.058924	0.000456	4.562696	1.545883	-0.000183
1079	1.0726e+02	-2.9357	-12.224447	0.000416	4.157123	1.408472	-0.000166
1080	1.0736e+02	-2.9839	-12.357672	0.000335	3.345977	1.133648	-0.000134
1081	1.0746e+02	-3.0320	-12.523195	0.000416	4.157123	1.408472	-0.000166
1082	1.0756e+02	-3.0689	-12.668532	0.000365	3.650157	1.236707	-0.000146
1083	1.0766e+02	-3.1106	-12.838092	0.000426	4.258517	1.442825	-0.000170
1084	1.0776e+02	-3.1507	-12.963243	0.000314	3.143191	1.064942	-0.000126
1085	1.0786e+02	-3.1876	-13.161063	0.000497	4.968270	1.683295	-0.000199
1086	1.0796e+02	-3.2197	-13.257954	0.000243	2.433438	0.824471	-0.000097
1087	1.0806e+02	-3.2630	-13.455773	0.000497	4.968270	1.683295	-0.000199
1088	1.0816e+02	-3.2983	-13.601110	0.000365	3.650157	1.236707	-0.000146
1089	1.0826e+02	-3.3400	-13.742410	0.000355	3.548764	1.202354	-0.000142
1090	1.0836e+02	-3.3817	-13.920044	0.000446	4.461303	1.511530	-0.000179
1091	1.0845e+02	-3.4315	-14.037121	0.000294	2.940404	0.996236	-0.000118
1092	1.0855e+02	-3.4619	-14.218792	0.000456	4.562696	1.545883	-0.000183
1093	1.0865e+02	-3.5117	-14.388352	0.000426	4.258517	1.442825	-0.000170
1094	1.0875e+02	-3.5421	-14.505429	0.000294	2.940404	0.996236	-0.000118
1095	1.0885e+02	-3.5806	-14.666914	0.000406	4.055730	1.374119	-0.000162
1096	1.0895e+02	-3.6304	-14.808214	0.000355	3.548764	1.202354	-0.000142
1097	1.0905e+02	-3.6609	-15.010071	0.000507	5.069663	1.717648	-0.000203
1098	1.0915e+02	-3.7010	-15.127148	0.000294	2.940404	0.996236	-0.000118
1099	1.0925e+02	-3.7411	-15.256336	0.000324	3.244584	1.099295	-0.000130
1100	1.0935e+02	-3.7812	-15.401673	0.000365	3.650157	1.236707	-0.000146
1101	1.0945e+02	-3.8197	-15.571233	0.000426	4.258517	1.442825	-0.000170
1102	1.0955e+02	-3.8550	-15.740792	0.000426	4.258517	1.442825	-0.000170
1103	1.0965e+02	-3.8999	-15.882092	0.000355	3.548764	1.202354	-0.000142
1104	1.0975e+02	-3.9336	-16.035503	0.000385	3.852944	1.305413	-0.000154
1105	1.0985e+02	-3.9817	-16.184877	0.000375	3.751550	1.271060	-0.000150
1106	1.0995e+02	-4.0186	-16.310028	0.000314	3.143191	1.064942	-0.000126
1107	1.1005e+02	-4.0603	-16.503811	0.000487	4.866876	1.648942	-0.000195
1108	1.1015e+02	-4.0972	-16.669333	0.000416	4.157123	1.408472	-0.000166
1109	1.1025e+02	-4.1389	-16.806596	0.000345	3.447371	1.168001	-0.000138
1110	1.1035e+02	-4.1742	-16.988267	0.000456	4.562696	1.545883	-0.000183
1111	1.1044e+02	-4.2191	-17.133604	0.000365	3.650157	1.236707	-0.000146
1112	1.1054e+02	-4.2496	-17.262792	0.000324	3.244584	1.099295	-0.000130
1113	1.1064e+02	-4.2977	-17.440426	0.000446	4.461303	1.511530	-0.000179
1114	1.1074e+02	-4.3459	-17.565578	0.000314	3.143191	1.064942	-0.000126
1115	1.1084e+02	-4.3876	-17.718989	0.000385	3.852944	1.305413	-0.000154
1116	1.1094e+02	-4.4245	-17.868363	0.000375	3.751550	1.271060	-0.000150
1117	1.1104e+02	-4.4566	-17.997551	0.000324	3.244584	1.099295	-0.000130
1118	1.1114e+02	-4.4999	-18.207482	0.000527	5.272449	1.786354	-0.000211
1119	1.1124e+02	-4.5384	-18.332633	0.000314	3.143191	1.064942	-0.000126
1120	1.1134e+02	-4.5849	-18.526416	0.000487	4.866876	1.648942	-0.000195
1121	1.1144e+02	-4.6058	-18.635419	0.000274	2.737618	0.927530	-0.000110
1122	1.1154e+02	-4.6603	-18.784793	0.000375	3.751550	1.271060	-0.000150
1123	1.1164e+02	-4.7004	-18.946278	0.000406	4.055730	1.374119	-0.000162
1124	1.1174e+02	-4.7389	-19.071429	0.000314	3.143191	1.064942	-0.000126
1125	1.1184e+02	-4.7758	-19.216766	0.000365	3.650157	1.236707	-0.000146
1126	1.1194e+02	-4.8255	-19.410549	0.000487	4.866876	1.648942	-0.000195
1127	1.1204e+02	-4.8544	-19.543774	0.000335	3.345977	1.133648	-0.000134
1128	1.1214e+02	-4.9041	-19.713334	0.000426	4.258517	1.442825	-0.000170
1129	1.1224e+02	-4.9346	-19.862708	0.000375	3.751550	1.271060	-0.000150
1130	1.1234e+02	-4.9635	-20.008045	0.000365	3.650157	1.236707	-0.000146
1131	1.1244e+02	-5.0084	-20.181642	0.000436	4.359910	1.477177	-0.000174
1132	1.1253e+02	-5.0533	-20.331016	0.000375	3.751550	1.271060	-0.000150
1133	1.1263e+02	-5.0918	-20.472315	0.000355	3.548764	1.202354	-0.000142
1134	1.1273e+02	-5.1368	-20.629764	0.000395	3.954337	1.339766	-0.000158
1135	1.1283e+02	-5.1753	-20.807398	0.000446	4.461303	1.511530	-0.000179
1136	1.1293e+02	-5.2218	-20.952734	0.000365	3.650157	1.236707	-0.000146
1137	1.1303e+02	-5.2603	-21.094034	0.000355	3.548764	1.202354	-0.000142
1138	1.1313e+02	-5.3052	-21.255520	0.000406	4.055730	1.374119	-0.000162
1139	1.1323e+02	-5.3357	-21.429116	0.000436	4.359910	1.477177	-0.000174
1140	1.1333e+02	-5.3710	-21.586565	0.000395	3.954337	1.339766	-0.000158
1141	1.1343e+02	-5.4159	-21.719790	0.000335	3.345977	1.133648	-0.000134
1142	1.1353e+02	-5.4560	-21.853016	0.000335	3.345977	1.133648	-0.000134
1143	1.1363e+02	-5.4993	-22.062947	0.000527	5.272449	1.786354	-0.000211
1144	1.1373e+02	-5.5346	-22.155801	0.000233	2.332045	0.790118	-0.000093
1145	1.1383e+02	-5.5747	-22.313249	0.000395	3.954337	1.339766	-0.000158
1146	1.1393e+02	-5.6132	-22.450512	0.000345	3.447371	1.168001	-0.000138
1147	1.1403e+02	-5.6613	-22.640257	0.000477	4.765483	1.614589	-0.000191
1148	1.1413e+02	-5.6902	-22.773483	0.000335	3.345977	1.133648	-0.000134
1149	1.1423e+02	-5.7335	-22.951117	0.000446	4.461303	1.511530	-0.000179
1150	1.1433e+02	-5.7752	-23.068194	0.000294	2.940404	0.996236	-0.000118
1151	1.1442e+02	-5.8218	-23.253902	0.000466	4.664090	1.580236	-0.000187
1152	1.1452e+02	-5.8554	-23.403276	0.000375	3.751550	1.271060	-0.000150
1153	1.1462e+02	-5.8956	-23.564761	0.000406	4.055730	1.374119	-0.000162
1154	1.1472e+02	-5.9292	-23.710098	0.000365	3.650157	1.236707	-0.000146
1155	1.1482e+02	-5.9806	-23.835249	0.000314	3.143191	1.064942	-0.000126
1156	1.1492e+02	-6.0095	-23.972512	0.000345	3.447371	1.168001	-0.000138
1157	1.1502e+02	-6.0496	-24.121886	0.000375	3.751550	1.271060	-0.000150
1158	1.1512e+02	-6.0849	-24.327780	0.000517	5.171056	1.752001	-0.000207
1159	1.1522e+02	-6.1298	-24.473117	0.000365	3.650157	1.236707	-0.000146
1160	1.1532e+02	-6.1667	-24.614417	0.000355	3.548764	1.202354	-0.000142
1161	1.1542e+02	-6.1972	-24.767828	0.000385	3.852944	1.305413	-0.000154
1162	1.1552e+02	-6.2613	-24.957573	0.000477	4.765483	1.614589	-0.000191
1163	1.1562e+02	-6.2966	-25.115021	0.000395	3.954337	1.339766	-0.000158
1164	1.1572e+02	-6.3303	-25.228061	0.000284	2.839011	0.961883	-0.000114
1165	1.1582e+02	-6.3736	-25.365324	0.000345	3.447371	1.168001	-0.000138
1166	1.1592e+02	-6.4121	-25.538921	0.000436	4.359910	1.477177	-0.000174
1167	1.1602e+02	-6.4410	-25.680220	0.000355	3.548764	1.202354	-0.000142
1168	1.1612e+02	-6.4859	-25.809409	0.000324	3.244584	1.099295	-0.000130
1169	1.1622e+02	-6.5244	-25.983006	0.000436	4.359910	1.477177	-0.000174
1170	1.1632e+02	-6.5725	-26.136417	0.000385	3.852944	1.305413	-0.000154
1171	1.1642e+02	-6.5998	-26.297902	0.000406	4.055730	1.374119	-0.000162
1172	1.1651e+02	-6.6560	-26.467462	0.000426	4.258517	1.442825	-0.000170
1173	1.1661e+02	-6.6864	-26.592613	0.000314	3.143191	1.064942	-0.000126
1174	1.1671e+02	-6.7249	-26.750061	0.000395	3.954337	1.339766	-0.000158
1175	1.1681e+02	-6.7667	-26.895398	0.000365	3.650157	1.236707	-0.000146
1176	1.1691e+02	-6.8116	-27.052847	0.000395	3.954337	1.339766	-0.000158
1177	1.1701e+02	-6.8501	-27.214332	0.000406	4.055730	1.374119	-0.000162
1178	1.1711e+02	-6.8806	-27.359669	0.000365	3.650157	1.236707	-0.000146
1179	1.1721e+02	-6.9223	-27.500969	0.000355	3.548764	1.202354	-0.000142
1180	1.1731e+02	-6.9672	-27.646306	0.000365	3.650157	1.236707	-0.000146
1181	1.1741e+02	-7.0089	-27.811828	0.000416	4.157123	1.408472	-0.000166
1182	1.1751e+02	-7.0474	-27.961202	0.000375	3.751550	1.271060	-0.000150
1183	1.1761e+02	-7.0859	-28.142873	0.000456	4.562696	1.545883	-0.000183
1184	1.1771e+02	-7.1292	-28.259950	0.000294	2.940404	0.996236	-0.000118
1185	1.1781e+02	-7.1597	-28.417398	0.000395	3.954337	1.339766	-0.000158
1186	1.1791e+02	-7.2078	-28.586958	0.000426	4.258517	1.442825	-0.000170
1187	1.1801e+02	-7.2335	-28.704035	0.000294	2.940404	0.996236	-0.000118
1188	1.1811e+02	-7.2864	-28.873595	0.000426	4.258517	1.442825	-0.000170
1189	1.1821e+02	-7.3265	-29.039117	0.000416	4.157123	1.408472	-0.000166
1190	1.1831e+02	-7.3714	-29.180417	0.000355	3.548764	1.202354	-0.000142
1191	1.1841e+02	-7.4067	-29.293457	0.000284	2.839011	0.961883	-0.000114
1192	1.1850e+02	-7.4404	-29.487239	0.000487	4.866876	1.648942	-0.000195
1193	1.1860e+02	-7.4886	-29.652762	0.000416	4.157123	1.408472	-0.000166
1194	1.1870e+02	-7.5287	-29.806173	0.000385	3.852944	1.305413	-0.000154
1195	1.1880e+02	-7.5688	-29.890953	0.000213	2.129258	0.721412	-0.000085
1196	1.1890e+02	-7.5993	-30.088773	0.000497	4.968270	1.683295	-0.000199
1197	1.1900e+02	-7.6538	-30.230072	0.000355	3.548764	1.202354	-0.000142
1198	1.1910e+02	-7.6843	-30.399632	0.000426	4.258517	1.442825	-0.000170
1199	1.1920e+02	-7.7196	-30.520746	0.000304	3.041798	1.030589	-0.000122
1200	1.1930e+02	-7.7597	-30.666083	0.000365	3.650157	1.236707	-0.000146
1201	1.1940e+02	-7.7998	-30.803346	0.000345	3.447371	1.168001	-0.000138
1202	1.1950e+02	-7.8479	-30.968868	0.000416	4.157123	1.408472	-0.000166
1203	1.1960e+02	-7.8736	-31.138428	0.000426	4.258517	1.442825	-0.000170
1204	1.1970e+02	-7.9233	-31.235319	0.000243	2.433438	0.824471	-0.000097
1205	1.1980e+02	-7.9618	-31.437176	0.000507	5.069663	1.717648	-0.000203
1206	1.1990e+02	-8.0051	-31.586550	0.000375	3.751550	1.271060	-0.000150
1207	1.2000e+02	-8.0372	-31.699590	0.000284	2.839011	0.961883	-0.000114
1208	1.2010e+02	-8.0725	-31.857038	0.000395	3.954337	1.339766	-0.000158
1209	1.2020e+02	-8.1206	-31.990264	0.000335	3.345977	1.133648	-0.000134
1210	1.2030e+02	-8.1575	-32.159823	0.000426	4.258517	1.442825	-0.000170
1211	1.2039e+02	-8.2008	-32.309197	0.000375	3.751550	1.271060	-0.000150
1212	1.2049e+02	-8.2313	-32.462608	0.000385	3.852944	1.305413	-0.000154
1213	1.2059e+02	-8.2762	-32.575648	0.000284	2.839011	0.961883	-0.000114
1214	1.2069e+02	-8.3228	-32.733097	0.000395	3.954337	1.339766	-0.000158
1215	1.2079e+02	-8.3597	-32.878433	0.000365	3.650157	1.236707	-0.000146
1216	1.2089e+02	-8.3966	-32.971288	0.000233	2.332045	0.790118	-0.000093
1217	1.2099e+02	-8.4447	-33.173144	0.000507	5.069663	1.717648	-0.000203
1218	1.2109e+02	-8.4896	-33.314444	0.000355	3.548764	1.202354	-0.000142
1219	1.2119e+02	-8.5137	-33.447670	0.000335	3.345977	1.133648	-0.000134
1220	1.2129e+02	-8.5618	-33.617229	0.000426	4.258517	1.442825	-0.000170
1221	1.2139e+02	-8.6019	-33.782752	0.000416	4.157123	1.408472	-0.000166
1222	1.2149e+02	-8.6356	-33.871569	0.000223	2.230652	0.755765	-0.000089
1223	1.2159e+02	-8.6901	-34.033054	0.000406	4.055730	1.374119	-0.000162
1224	1.2169e+02	-8.7142	-34.166280	0.000335	3.345977	1.133648	-0.000134
1225	1.2179e+02	-8.7543	-34.271245	0.000264	2.636225	0.893177	-0.000105
1226	1.2189e+02	-8.7976	-34.465028	0.000487	4.866876	1.648942	-0.000195
1227	1.2199e+02	-8.8361	-34.622476	0.000395	3.954337	1.339766	-0.000158
1228	1.2209e+02	-8.8826	-34.743590	0.000304	3.041798	1.030589	-0.000122
1229	1.2219e+02	-8.9163	-34.905076	0.000406	4.055730	1.374119	-0.000162
1230	1.2229e+02	-8.9612	-35.010041	0.000264	2.636225	0.893177	-0.000105
1231	1.2239e+02	-9.0030	-35.163452	0.000385	3.852944	1.305413	-0.000154
1232	1.2248e+02	-9.0399	-35.316863	0.000385	3.852944	1.305413	-0.000154
1233	1.2258e+02	-9.0816	-35.437978	0.000304	3.041798	1.030589	-0.000122
1234	1.2268e+02	-9.1136	-35.599463	0.000406	4.055730	1.374119	-0.000162
1235	1.2278e+02	-9.1618	-35.773060	0.000436	4.359910	1.477177	-0.000174
1236	1.2288e+02	-9.1858	-35.878025	0.000264	2.636225	0.893177	-0.000105
1237	1.2298e+02	-9.2388	-36.007214	0.000324	3.244584	1.099295	-0.000130
1238	1.2308e+02	-9.2773	-36.156588	0.000375	3.751550	1.271060	-0.000150
1239	1.2318e+02	-9.3238	-36.314036	0.000395	3.954337	1.339766	-0.000158
1240	1.2328e+02	-9.3639	-36.447261	0.000335	3.345977	1.133648	-0.000134
1241	1.2338e+02	-9.3864	-36.584524	0.000345	3.447371	1.168001	-0.000138
1242	1.2348e+02	-9.4313	-36.721787	0.000345	3.447371	1.168001	-0.000138
1243	1.2358e+02	-9.4794	-36.871161	0.000375	3.751550	1.271060	-0.000150
1244	1.2368e+02	-9.5195	-37.024572	0.000385	3.852944	1.305413	-0.000154
1245	1.2378e+02	-9.5580	-37.133575	0.000274	2.737618	0.927530	-0.000110
1246	1.2388e+02	-9.5917	-37.258726	0.000314	3.143191	1.064942	-0.000126
1247	1.2398e+02	-9.6366	-37.424248	0.000416	4.157123	1.408472	-0.000166
1248	1.2408e+02	-9.6767	-37.585734	0.000406	4.055730	1.374119	-0.000162
1249	1.2418e+02	-9.7120	-37.670514	0.000213	2.129258	0.721412	-0.000085
1250	1.2428e+02	-9.7650	-37.807776	0.000345	3.447371	1.168001	-0.000138
1251	1.2438e+02	-9.7906	-37.981373	0.000436	4.359910	1.477177	-0.000174
1252	1.2447e+02	-9.8372	-38.122673	0.000355	3.548764	1.202354	-0.000142
1253	1.2457e+02	-9.8708	-38.276084	0.000385	3.852944	1.305413	-0.000154
1254	1.2467e+02	-9.9029	-38.372975	0.000243	2.433438	0.824471	-0.000097
1255	1.2477e+02	-9.9591	-38.542535	0.000426	4.258517	1.442825	-0.000170
1256	1.2487e+02	-9.9976	-38.659612	0.000294	2.940404	0.996236	-0.000118
1257	1.2497e+02	-10.0377	-38.808986	0.000375	3.751550	1.271060	-0.000150
1258	1.2507e+02	-10.0730	-38.958360	0.000375	3.751550	1.271060	-0.000150
1259	1.2517e+02	-10.1147	-39.051214	0.000233	2.332045	0.790118	-0.000093
1260	1.2527e+02	-10.1580	-39.216737	0.000416	4.157123	1.408472	-0.000166
1261	1.2537e+02	-10.1917	-39.362073	0.000365	3.650157	1.236707	-0.000146
1262	1.2547e+02	-10.2254	-39.450890	0.000223	2.230652	0.755765	-0.000089
1263	1.2557e+02	-10.2703	-39.616413	0.000416	4.157123	1.408472	-0.000166
1264	1.2567e+02	-10.3120	-39.733490	0.000294	2.940404	0.996236	-0.000118
1265	1.2577e+02	-10.3537	-39.866715	0.000335	3.345977	1.133648	-0.000134
1266	1.2587e+02	-10.4018	-39.983792	0.000294	2.940404	0.996236	-0.000118
1267	1.2597e+02	-10.4323	-40.165463	0.000456	4.562696	1.545883	-0.000183
1268	1.2607e+02	-10.4628	-40.246206	0.000203	2.027865	0.687059	-0.000081
1269	1.2617e+02	-10.5125	-40.395580	0.000375	3.751550	1.271060	-0.000150
1270	1.2627e+02	-10.5478	-40.544954	0.000375	3.751550	1.271060	-0.000150
1271	1.2636e+02	-10.5927	-40.649920	0.000264	2.636225	0.893177	-0.000105
1272	1.2646e+02	-10.6200	-40.795257	0.000365	3.650157	1.236707	-0.000146
1273	1.2656e+02	-10.6698	-40.940594	0.000365	3.650157	1.236707	-0.000146
1274	1.2666e+02	-10.7066	-41.069782	0.000324	3.244584	1.099295	-0.000130
1275	1.2676e+02	-10.7419	-41.223193	0.000385	3.852944	1.305413	-0.000154
1276	1.2686e+02	-10.7901	-41.344307	0.000304	3.041798	1.030589	-0.000122
1277	1.2696e+02	-10.8270	-41.449273	0.000264	2.636225	0.893177	-0.000105
1278	1.2706e+02	-10.8655	-41.610758	0.000406	4.055730	1.374119	-0.000162
1279	1.2716e+02	-10.9072	-41.703612	0.000233	2.332045	0.790118	-0.000093
1280	1.2726e+02	-10.9553	-41.889320	0.000466	4.664090	1.580236	-0.000187
1281	1.2736e+02	-10.9890	-42.006397	0.000294	2.940404	0.996236	-0.000118
1282	1.2746e+02	-11.0307	-42.127511	0.000304	3.041798	1.030589	-0.000122
1283	1.2756e+02	-11.0660	-42.305145	0.000446	4.461303	1.511530	-0.000179
1284	1.2766e+02	-11.1045	-42.385888	0.000203	2.027865	0.687059	-0.000081
1285	1.2776e+02	-11.1430	-42.519114	0.000335	3.345977	1.133648	-0.000134
1286	1.2786e+02	-11.1943	-42.696748	0.000446	4.461303	1.511530	-0.000179
1287	1.2796e+02	-11.2328	-42.797676	0.000253	2.534831	0.858824	-0.000101
1288	1.2806e+02	-11.2745	-42.914753	0.000294	2.940404	0.996236	-0.000118
1289	1.2816e+02	-11.3082	-43.039904	0.000314	3.143191	1.064942	-0.000126
1290	1.2826e+02	-11.3532	-43.193315	0.000385	3.852944	1.305413	-0.000154
1291	1.2835e+02	-11.3868	-43.318466	0.000314	3.143191	1.064942	-0.000126
1292	1.2845e+02	-11.4221	-43.496100	0.000446	4.461303	1.511530	-0.000179
1293	1.2855e+02	-11.4655	-43.592992	0.000243	2.433438	0.824471	-0.000097
1294	1.2865e+02	-11.4991	-43.746403	0.000385	3.852944	1.305413	-0.000154
1295	1.2875e+02	-11.5441	-43.928074	0.000456	4.562696	1.545883	-0.000183
1296	1.2885e+02	-11.5874	-44.045151	0.000294	2.940404	0.996236	-0.000118
1297	1.2895e+02	-11.6307	-44.182414	0.000345	3.447371	1.168001	-0.000138
1298	1.2905e+02	-11.6756	-44.271231	0.000223	2.230652	0.755765	-0.000089
1299	1.2915e+02	-11.7045	-44.404456	0.000335	3.345977	1.133648	-0.000134
1300	1.2925e+02	-11.7494	-44.594201	0.000477	4.765483	1.614589	-0.000191
1301	1.2935e+02	-11.7863	-44.666870	0.000183	1.825079	0.618353	-0.000073
1302	1.2945e+02	-11.8248	-44.852578	0.000466	4.664090	1.580236	-0.000187
1303	1.2955e+02	-11.8713	-44.969655	0.000294	2.940404	0.996236	-0.000118
1304	1.2965e+02	-11.9114	-45.139215	0.000426	4.258517	1.442825	-0.000170
1305	1.2975e+02	-11.9483	-45.244180	0.000264	2.636225	0.893177	-0.000105
1306	1.2985e+02	-11.9836	-45.337034	0.000233	2.332045	0.790118	-0.000093
1307	1.2995e+02	-12.0157	-45.510631	0.000436	4.359910	1.477177	-0.000174
1308	1.3005e+02	-12.0574	-45.680191	0.000426	4.258517	1.442825	-0.000170
1309	1.3015e+02	-12.0895	-45.789194	0.000274	2.737618	0.927530	-0.000110
1310	1.3025e+02	-12.1376	-45.930493	0.000355	3.548764	1.202354	-0.000142
1311	1.3034e+02	-12.1858	-46.051607	0.000304	3.041798	1.030589	-0.000122
1312	1.3044e+02	-12.2243	-46.188870	0.000345	3.447371	1.168001	-0.000138
1313	1.3054e+02	-12.2772	-46.301910	0.000284	2.839011	0.961883	-0.000114
1314	1.3064e+02	-12.3013	-46.455321	0.000385	3.852944	1.305413	-0.000154
1315	1.3074e+02	-12.3382	-46.588546	0.000335	3.345977	1.133648	-0.000134
1316	1.3084e+02	-12.3879	-46.741958	0.000385	3.852944	1.305413	-0.000154
1317	1.3094e+02	-12.4232	-46.887294	0.000365	3.650157	1.236707	-0.000146
1318	1.3104e+02	-12.4601	-46.996297	0.000274	2.737618	0.927530	-0.000110
1319	1.3114e+02	-12.5098	-47.117411	0.000304	3.041798	1.030589	-0.000122
1320	1.3124e+02	-12.5451	-47.274859	0.000395	3.954337	1.339766	-0.000158
1321	1.3134e+02	-12.5804	-47.416159	0.000355	3.548764	1.202354	-0.000142
1322	1.3144e+02	-12.6173	-47.513051	0.000243	2.433438	0.824471	-0.000097
1323	1.3154e+02	-12.6622	-47.670499	0.000395	3.954337	1.339766	-0.000158
1324	1.3164e+02	-12.6991	-47.799687	0.000324	3.244584	1.099295	-0.000130
1325	1.3174e+02	-12.7456	-47.936950	0.000345	3.447371	1.168001	-0.000138
1326	1.3184e+02	-12.7841	-48.102472	0.000416	4.157123	1.408472	-0.000166
1327	1.3194e+02	-12.8226	-48.199364	0.000243	2.433438	0.824471	-0.000097
1328	1.3204e+02	-12.8659	-48.352775	0.000385	3.852944	1.305413	-0.000154
1329	1.3214e+02	-12.9044	-48.473889	0.000304	3.041798	1.030589	-0.000122
1330	1.3224e+02	-12.9494	-48.631337	0.000395	3.954337	1.339766	-0.000158
1331	1.3234e+02	-12.9798	-48.724191	0.000233	2.332045	0.790118	-0.000093
1332	1.3243e+02	-13.0232	-48.889714	0.000416	4.157123	1.408472	-0.000166
1333	1.3253e+02	-13.0617	-48.994679	0.000264	2.636225	0.893177	-0.000105
1334	1.3263e+02	-13.1066	-49.164239	0.000426	4.258517	1.442825	-0.000170
1335	1.3273e+02	-13.1387	-49.285353	0.000304	3.041798	1.030589	-0.000122
1336	1.3283e+02	-13.1900	-49.406467	0.000304	3.041798	1.030589	-0.000122
1337	1.3293e+02	-13.2253	-49.539693	0.000335	3.345977	1.133648	-0.000134
1338	1.3303e+02	-13.2574	-49.689067	0.000375	3.751550	1.271060	-0.000150
1339	1.3313e+02	-13.3023	-49.818255	0.000324	3.244584	1.099295	-0.000130
1340	1.3323e+02	-13.3328	-49.943406	0.000314	3.143191	1.064942	-0.000126
1341	1.3333e+02	-13.3825	-50.108929	0.000416	4.157123	1.408472	-0.000166
1342	1.3343e+02	-13.4098	-50.238117	0.000324	3.244584	1.099295	-0.000130
1343	1.3353e+02	-13.4563	-50.359231	0.000304	3.041798	1.030589	-0.000122
1344	1.3363e+02	-13.4980	-50.476308	0.000294	2.940404	0.996236	-0.000118
1345	1.3373e+02	-13.5510	-50.629719	0.000385	3.852944	1.305413	-0.000154
1346	1.3383e+02	-13.5798	-50.795242	0.000416	4.157123	1.408472	-0.000166
1347	1.3393e+02	-13.6280	-50.875985	0.000203	2.027865	0.687059	-0.000081
1348	1.3403e+02	-13.6584	-51.045544	0.000426	4.258517	1.442825	-0.000170
1349	1.3413e+02	-13.6921	-51.182807	0.000345	3.447371	1.168001	-0.000138
1350	1.3423e+02	-13.7354	-51.299884	0.000294	2.940404	0.996236	-0.000118
1351	1.3432e+02	-13.7804	-51.437146	0.000345	3.447371	1.168001	-0.000138
1352	1.3442e+02	-13.8173	-51.598632	0.000406	4.055730	1.374119	-0.000162
1353	1.3452e+02	-13.8606	-51.707635	0.000274	2.737618	0.927530	-0.000110
1354	1.3462e+02	-13.8878	-51.848934	0.000355	3.548764	1.202354	-0.000142
1355	1.3472e+02	-13.9408	-51.933714	0.000213	2.129258	0.721412	-0.000085
1356	1.3482e+02	-13.9729	-52.127497	0.000487	4.866876	1.648942	-0.000195
1357	1.3492e+02	-14.0162	-52.268796	0.000355	3.548764	1.202354	-0.000142
1358	1.3502e+02	-14.0563	-52.377799	0.000274	2.737618	0.927530	-0.000110
1359	1.3512e+02	-14.0980	-52.506987	0.000324	3.244584	1.099295	-0.000130
1360	1.3522e+02	-14.1301	-52.660399	0.000385	3.852944	1.305413	-0.000154
1361	1.3532e+02	-14.1766	-52.801698	0.000355	3.548764	1.202354	-0.000142
1362	1.3542e+02	-14.2119	-52.902627	0.000253	2.534831	0.858824	-0.000101
1363	1.3552e+02	-14.2568	-53.039889	0.000345	3.447371	1.168001	-0.000138
1364	1.3562e+02	-14.2857	-53.173115	0.000335	3.345977	1.133648	-0.000134
1365	1.3572e+02	-14.3370	-53.302303	0.000324	3.244584	1.099295	-0.000130
1366	1.3582e+02	-14.3771	-53.463789	0.000406	4.055730	1.374119	-0.000162
1367	1.3592e+02	-14.4092	-53.580866	0.000294	2.940404	0.996236	-0.000118
1368	1.3602e+02	-14.4654	-53.689868	0.000274	2.737618	0.927530	-0.000110
1369	1.3612e+02	-14.5055	-53.835205	0.000365	3.650157	1.236707	-0.000146
1370	1.3622e+02	-14.5343	-53.984579	0.000375	3.751550	1.271060	-0.000150
1371	1.3631e+02	-14.5712	-54.069359	0.000213	2.129258	0.721412	-0.000085
1372	1.3641e+02	-14.6146	-54.242956	0.000436	4.359910	1.477177	-0.000174
1373	1.3651e+02	-14.6563	-54.408478	0.000416	4.157123	1.408472	-0.000166
1374	1.3661e+02	-14.6948	-54.513444	0.000264	2.636225	0.893177	-0.000105
1375	1.3671e+02	-14.7381	-54.654744	0.000355	3.548764	1.202354	-0.000142
1376	1.3681e+02	-14.7702	-54.787969	0.000335	3.345977	1.133648	-0.000134
1377	1.3691e+02	-14.8151	-54.913120	0.000314	3.143191	1.064942	-0.000126
1378	1.3701e+02	-14.8504	-55.046346	0.000335	3.345977	1.133648	-0.000134
1379	1.3711e+02	-14.8873	-55.131126	0.000213	2.129258	0.721412	-0.000085
1380	1.3721e+02	-14.9338	-55.280500	0.000375	3.751550	1.271060	-0.000150
1381	1.3731e+02	-14.9659	-55.401614	0.000304	3.041798	1.030589	-0.000122
1382	1.3741e+02	-15.0076	-55.518691	0.000294	2.940404	0.996236	-0.000118
1383	1.3751e+02	-15.0525	-55.643842	0.000314	3.143191	1.064942	-0.000126
1384	1.3761e+02	-15.1087	-55.785142	0.000355	3.548764	1.202354	-0.000142
1385	1.3771e+02	-15.1327	-55.946627	0.000406	4.055730	1.374119	-0.000162
1386	1.3781e+02	-15.1744	-56.043518	0.000243	2.433438	0.824471	-0.000097
1387	1.3791e+02	-15.2081	-56.144447	0.000253	2.534831	0.858824	-0.000101
1388	1.3801e+02	-15.2466	-56.289784	0.000365	3.650157	1.236707	-0.000146
1389	1.3811e+02	-15.2915	-56.410898	0.000304	3.041798	1.030589	-0.000122
1390	1.3821e+02	-15.3300	-56.540086	0.000324	3.244584	1.099295	-0.000130
1391	1.3831e+02	-15.3702	-56.681386	0.000355	3.548764	1.202354	-0.000142
1392	1.3840e+02	-15.4103	-56.810574	0.000324	3.244584	1.099295	-0.000130
1393	1.3850e+02	-15.4536	-56.943800	0.000335	3.345977	1.133648	-0.000134
1394	1.3860e+02	-15.4905	-57.068951	0.000314	3.143191	1.064942	-0.000126
1395	1.3870e+02	-15.5370	-57.214288	0.000365	3.650157	1.236707	-0.000146
1396	1.3880e+02	-15.5723	-57.286956	0.000183	1.825079	0.618353	-0.000073
1397	1.3890e+02	-15.6188	-57.440367	0.000385	3.852944	1.305413	-0.000154
1398	1.3900e+02	-15.6445	-57.553407	0.000284	2.839011	0.961883	-0.000114
1399	1.3910e+02	-15.6942	-57.670484	0.000294	2.940404	0.996236	-0.000118
1400	1.3920e+02	-15.7295	-57.815821	0.000365	3.650157	1.236707	-0.000146
1401	1.3930e+02	-15.7680	-57.953084	0.000345	3.447371	1.168001	-0.000138
1402	1.3940e+02	-15.8129	-58.045938	0.000233	2.332045	0.790118	-0.000093
1403	1.3950e+02	-15.8498	-58.195312	0.000375	3.751550	1.271060	-0.000150
1404	1.3960e+02	-15.8931	-58.336611	0.000355	3.548764	1.202354	-0.000142
1405	1.3970e+02	-15.9332	-58.429466	0.000233	2.332045	0.790118	-0.000093
1406	1.3980e+02	-15.9637	-58.566728	0.000345	3.447371	1.168001	-0.000138
1407	1.3990e+02	-16.0102	-58.683805	0.000294	2.940404	0.996236	-0.000118
1408	1.4000e+02	-16.0552	-58.808956	0.000314	3.143191	1.064942	-0.000126
1409	1.4010e+02	-16.0985	-58.978516	0.000426	4.258517	1.442825	-0.000170
1410	1.4020e+02	-16.1322	-59.107704	0.000324	3.244584	1.099295	-0.000130
1411	1.4029e+02	-16.1659	-59.204596	0.000243	2.433438	0.824471	-0.000097
1412	1.4039e+02	-16.2060	-59.329747	0.000314	3.143191	1.064942	-0.000126
1413	1.4049e+02	-16.2525	-59.438749	0.000274	2.737618	0.927530	-0.000110
1414	1.4059e+02	-16.2878	-59.563901	0.000314	3.143191	1.064942	-0.000126
1415	1.4069e+02	-16.3295	-59.693089	0.000324	3.244584	1.099295	-0.000130
1416	1.4079e+02	-16.3664	-59.830352	0.000345	3.447371	1.168001	-0.000138
1417	1.4089e+02	-16.4113	-59.947429	0.000294	2.940404	0.996236	-0.000118
1418	1.4099e+02	-16.4482	-60.088728	0.000355	3.548764	1.202354	-0.000142
1419	1.4109e+02	-16.4835	-60.238102	0.000375	3.751550	1.271060	-0.000150
1420	1.4119e+02	-16.5300	-60.343068	0.000264	2.636225	0.893177	-0.000105
1421	1.4129e+02	-16.5717	-60.435922	0.000233	2.332045	0.790118	-0.000093
1422	1.4139e+02	-16.6038	-60.597407	0.000406	4.055730	1.374119	-0.000162
1423	1.4149e+02	-16.6471	-60.698336	0.000253	2.534831	0.858824	-0.000101
1424	1.4159e+02	-16.6856	-60.839636	0.000355	3.548764	1.202354	-0.000142
1425	1.4169e+02	-16.7273	-60.928453	0.000223	2.230652	0.755765	-0.000089
1426	1.4179e+02	-16.7658	-61.049567	0.000304	3.041798	1.030589	-0.000122
1427	1.4189e+02	-16.8140	-61.211052	0.000406	4.055730	1.374119	-0.000162
1428	1.4199e+02	-16.8412	-61.299869	0.000223	2.230652	0.755765	-0.000089
1429	1.4209e+02	-16.8846	-61.372537	0.000183	1.825079	0.618353	-0.000073
1430	1.4219e+02	-16.9214	-61.558246	0.000466	4.664090	1.580236	-0.000187
1431	1.4228e+02	-16.9632	-61.719731	0.000406	4.055730	1.374119	-0.000162
1432	1.4238e+02	-17.0065	-61.812585	0.000233	2.332045	0.790118	-0.000093
1433	1.4248e+02	-17.0434	-61.937736	0.000314	3.143191	1.064942	-0.000126
1434	1.4258e+02	-17.0835	-62.046739	0.000274	2.737618	0.927530	-0.000110
1435	1.4268e+02	-17.1316	-62.208225	0.000406	4.055730	1.374119	-0.000162
1436	1.4278e+02	-17.1637	-62.293004	0.000213	2.129258	0.721412	-0.000085
1437	1.4288e+02	-17.2038	-62.426230	0.000335	3.345977	1.133648	-0.000134
1438	1.4298e+02	-17.2295	-62.543307	0.000294	2.940404	0.996236	-0.000118
1439	1.4308e+02	-17.2808	-62.684607	0.000355	3.548764	1.202354	-0.000142
1440	1.4318e+02	-17.3369	-62.805721	0.000304	3.041798	1.030589	-0.000122
1441	1.4328e+02	-17.3722	-62.922798	0.000294	2.940404	0.996236	-0.000118
1442	1.4338e+02	-17.4043	-63.035837	0.000284	2.839011	0.961883	-0.000114
1443	1.4348e+02	-17.4364	-63.177137	0.000355	3.548764	1.202354	-0.000142
1444	1.4358e+02	-17.4829	-63.334585	0.000395	3.954337	1.339766	-0.000158
1445	1.4368e+02	-17.5246	-63.407254	0.000183	1.825079	0.618353	-0.000073
1446	1.4378e+02	-17.5551	-63.552591	0.000365	3.650157	1.236707	-0.000146
1447	1.4388e+02	-17.6049	-63.746373	0.000487	4.866876	1.648942	-0.000195
1448	1.4398e+02	-17.6546	-63.810967	0.000162	1.622292	0.549647	-0.000065
1449	1.4408e+02	-17.6867	-63.903822	0.000233	2.332045	0.790118	-0.000093
1450	1.4418e+02	-17.7252	-64.069344	0.000416	4.157123	1.408472	-0.000166
1451	1.4428e+02	-17.7637	-64.150087	0.000203	2.027865	0.687059	-0.000081
1452	1.4437e+02	-17.8118	-64.287349	0.000345	3.447371	1.168001	-0.000138
1453	1.4447e+02	-17.8535	-64.384241	0.000243	2.433438	0.824471	-0.000097
1454	1.4457e+02	-17.8760	-64.525541	0.000355	3.548764	1.202354	-0.000142
1455	1.4467e+02	-17.9161	-64.670877	0.000365	3.650157	1.236707	-0.000146
1456	1.4477e+02	-17.9658	-64.824289	0.000385	3.852944	1.305413	-0.000154
1457	1.4487e+02	-18.0075	-64.921180	0.000243	2.433438	0.824471	-0.000097
1458	1.4497e+02	-18.0476	-65.070554	0.000375	3.751550	1.271060	-0.000150
1459	1.4507e+02	-18.0797	-65.151297	0.000203	2.027865	0.687059	-0.000081
1460	1.4517e+02	-18.1006	-65.308745	0.000395	3.954337	1.339766	-0.000158
1461	1.4527e+02	-18.1583	-65.425822	0.000294	2.940404	0.996236	-0.000118
1462	1.4537e+02	-18.2000	-65.579233	0.000385	3.852944	1.305413	-0.000154
1463	1.4547e+02	-18.2369	-65.700347	0.000304	3.041798	1.030589	-0.000122
1464	1.4557e+02	-18.2786	-65.809350	0.000274	2.737618	0.927530	-0.000110
1465	1.4567e+02	-18.3171	-65.946612	0.000345	3.447371	1.168001	-0.000138
1466	1.4577e+02	-18.3685	-66.108098	0.000406	4.055730	1.374119	-0.000162
1467	1.4587e+02	-18.3909	-66.233249	0.000314	3.143191	1.064942	-0.000126
1468	1.4597e+02	-18.4407	-66.326103	0.000233	2.332045	0.790118	-0.000093
1469	1.4607e+02	-18.4808	-66.487588	0.000406	4.055730	1.374119	-0.000162
1470	1.4617e+02	-18.5209	-66.596591	0.000274	2.737618	0.927530	-0.000110
1471	1.4626e+02	-18.5497	-66.733854	0.000345	3.447371	1.168001	-0.000138
1472	1.4636e+02	-18.5979	-66.875154	0.000355	3.548764	1.202354	-0.000142
1473	1.4646e+02	-18.6460	-67.020490	0.000365	3.650157	1.236707	-0.000146
1474	1.4656e+02	-18.6781	-67.125456	0.000264	2.636225	0.893177	-0.000105
1475	1.4666e+02	-18.7166	-67.278867	0.000385	3.852944	1.305413	-0.000154
1476	1.4676e+02	-18.7551	-67.424204	0.000365	3.650157	1.236707	-0.000146
1477	1.4686e+02	-18.8000	-67.541281	0.000294	2.940404	0.996236	-0.000118
1478	1.4696e+02	-18.8401	-67.690655	0.000375	3.751550	1.271060	-0.000150
1479	1.4706e+02	-18.8786	-67.807732	0.000294	2.940404	0.996236	-0.000118
1480	1.4716e+02	-18.9091	-67.981329	0.000436	4.359910	1.477177	-0.000174
1481	1.4726e+02	-18.9524	-68.082257	0.000253	2.534831	0.858824	-0.000101
1482	1.4736e+02	-18.9973	-68.255854	0.000436	4.359910	1.477177	-0.000174
1483	1.4746e+02	-19.0326	-68.364857	0.000274	2.737618	0.927530	-0.000110
1484	1.4756e+02	-19.0743	-68.526342	0.000406	4.055730	1.374119	-0.000162
1485	1.4766e+02	-19.1192	-68.647456	0.000304	3.041798	1.030589	-0.000122
1486	1.4776e+02	-19.1594	-68.796830	0.000375	3.751550	1.271060	-0.000150
1487	1.4786e+02	-19.2011	-68.946204	0.000375	3.751550	1.271060	-0.000150
1488	1.4796e+02	-19.2315	-69.055207	0.000274	2.737618	0.927530	-0.000110
1489	1.4806e+02	-19.2765	-69.212655	0.000395	3.954337	1.339766	-0.000158
1490	1.4816e+02	-19.3134	-69.378178	0.000416	4.157123	1.408472	-0.000166
1491	1.4825e+02	-19.3583	-69.515440	0.000345	3.447371	1.168001	-0.000138
1492	1.4835e+02	-19.3839	-69.608294	0.000233	2.332045	0.790118	-0.000093
1493	1.4845e+02	-19.4337	-69.773817	0.000416	4.157123	1.408472	-0.000166
1494	1.4855e+02	-19.4818	-69.911080	0.000345	3.447371	1.168001	-0.000138
1495	1.4865e+02	-19.5059	-70.080639	0.000426	4.258517	1.442825	-0.000170
1496	1.4875e+02	-19.5588	-70.213865	0.000335	3.345977	1.133648	-0.000134
1497	1.4885e+02	-19.5973	-70.355165	0.000355	3.548764	1.202354	-0.000142
1498	1.4895e+02	-19.6278	-70.528761	0.000436	4.359910	1.477177	-0.000174
1499	1.4905e+02	-19.6679	-70.657950	0.000324	3.244584	1.099295	-0.000130
1500	1.4915e+02	-19.7208	-70.807324	0.000375	3.751550	1.271060	-0.000150
1501	1.4925e+02	-19.7545	-70.956698	0.000375	3.751550	1.271060	-0.000150
1502	1.4935e+02	-19.7978	-71.126257	0.000426	4.258517	1.442825	-0.000170
1503	1.4945e+02	-19.8347	-71.263520	0.000345	3.447371	1.168001	-0.000138
1504	1.4955e+02	-19.8797	-71.364448	0.000253	2.534831	0.858824	-0.000101
1505	1.4965e+02	-19.9166	-71.554194	0.000477	4.765483	1.614589	-0.000191
1506	1.4975e+02	-19.9567	-71.752013	0.000497	4.968270	1.683295	-0.000199
1507	1.4985e+02	-19.9887	-71.828719	0.000193	1.926472	0.652706	-0.000077
1508	1.4995e+02	-19.9502	-71.836793	-0.000020	-0.202787	-0.068706	-0.000008
1509	1.5005e+02	-19.9069	-71.820645	0.000041	0.405573	0.137412	0.000016
1510	1.5015e+02	-19.8636	-71.723754	0.000243	2.433438	0.824471	0.000097
1511	1.5025e+02	-19.8347	-71.703568	0.000051	0.506966	0.171765	0.000020
1512	1.5034e+02	-19.7914	-71.667234	0.000091	0.912539	0.309177	0.000037
1513	1.5044e+02	-19.7529	-71.602639	0.000162	1.622292	0.549647	0.000065
1514	1.5054e+02	-19.7096	-71.594565	0.000020	0.202787	0.068706	0.000008
1515	1.5064e+02	-19.6759	-71.542082	0.000132	1.318112	0.446589	0.000053
1516	1.5074e+02	-19.6326	-71.445191	0.000243	2.433438	0.824471	0.000097
1517	1.5084e+02	-19.5813	-71.384634	0.000152	1.520899	0.515294	0.000061
1518	1.5094e+02	-19.5444	-71.352337	0.000081	0.811146	0.274824	0.000032
1519	1.5104e+02	-19.5107	-71.247372	0.000264	2.636225	0.893177	0.000105
1520	1.5114e+02	-19.4642	-71.211037	0.000091	0.912539	0.309177	0.000037
1521	1.5124e+02	-19.4305	-71.154517	0.000142	1.419506	0.480942	0.000057
1522	1.5134e+02	-19.4064	-71.106072	0.000122	1.216719	0.412236	0.000049
1523	1.5144e+02	-19.3663	-71.021292	0.000213	2.129258	0.721412	0.000085
1524	1.5154e+02	-19.3214	-70.952661	0.000172	1.723685	0.584000	0.000069
1525	1.5164e+02	-19.2700	-70.892104	0.000152	1.520899	0.515294	0.000061
1526	1.5174e+02	-19.2396	-70.835584	0.000142	1.419506	0.480942	0.000057
1527	1.5184e+02	-19.2027	-70.754841	0.000203	2.027865	0.687059	0.000081
1528	1.5194e+02	-19.1497	-70.694284	0.000152	1.520899	0.515294	0.000061
1529	1.5204e+02	-19.1176	-70.613541	0.000203	2.027865	0.687059	0.000081
1530	1.5214e+02	-19.0727	-70.540873	0.000183	1.825079	0.618353	0.000073
1531	1.5224e+02	-19.0438	-70.492427	0.000122	1.216719	0.412236	0.000049
1532	1.5233e+02	-18.9925	-70.379387	0.000284	2.839011	0.961883	0.000114
1533	1.5243e+02	-18.9524	-70.306719	0.000183	1.825079	0.618353	0.000073
1534	1.5253e+02	-18.9187	-70.238088	0.000172	1.723685	0.584000	0.000069
1535	1.5263e+02	-18.8818	-70.121011	0.000294	2.940404	0.996236	0.000118
1536	1.5273e+02	-18.8353	-70.060454	0.000152	1.520899	0.515294	0.000061
1537	1.5283e+02	-18.7904	-69.995859	0.000162	1.622292	0.549647	0.000065
1538	1.5293e+02	-18.7615	-69.903005	0.000233	2.332045	0.790118	0.000093
1539	1.5303e+02	-18.7214	-69.842448	0.000152	1.520899	0.515294	0.000061
1540	1.5313e+02	-18.6781	-69.753631	0.000223	2.230652	0.755765	0.000089
1541	1.5323e+02	-18.6348	-69.689037	0.000162	1.622292	0.549647	0.000065
1542	1.5333e+02	-18.6027	-69.592146	0.000243	2.433438	0.824471	0.000097
1543	1.5343e+02	-18.5530	-69.499292	0.000233	2.332045	0.790118	0.000093
1544	1.5353e+02	-18.5177	-69.430660	0.000172	1.723685	0.584000	0.000069
1545	1.5363e+02	-18.4727	-69.321658	0.000274	2.737618	0.927530	0.000110
1546	1.5373e+02	-18.4358	-69.297435	0.000061	0.608360	0.206118	0.000024
1547	1.5383e+02	-18.3989	-69.164209	0.000335	3.345977	1.133648	0.000134
1548	1.5393e+02	-18.3604	-69.083467	0.000203	2.027865	0.687059	0.000081
1549	1.5403e+02	-18.3123	-68.994650	0.000223	2.230652	0.755765	0.000089
1550	1.5413e+02	-18.2947	-68.905833	0.000223	2.230652	0.755765	0.000089
1551	1.5422e+02	-18.2369	-68.825090	0.000203	2.027865	0.687059	0.000081
1552	1.5432e+02	-18.2048	-68.736273	0.000223	2.230652	0.755765	0.000089
1553	1.5442e+02	-18.1583	-68.643419	0.000233	2.332045	0.790118	0.000093
1554	1.5452e+02	-18.1118	-68.522305	0.000304	3.041798	1.030589	0.000122
1555	1.5462e+02	-18.0813	-68.469822	0.000132	1.318112	0.446589	0.000053
1556	1.5472e+02	-18.0380	-68.421376	0.000122	1.216719	0.412236	0.000049
1557	1.5482e+02	-17.9995	-68.304300	0.000294	2.940404	0.996236	0.000118
1558	1.5492e+02	-17.9514	-68.183185	0.000304	3.041798	1.030589	0.000122
1559	1.5502e+02	-17.9241	-68.110517	0.000183	1.825079	0.618353	0.000073
1560	1.5512e+02	-17.8920	-67.973254	0.000345	3.447371	1.168001	0.000138
1561	1.5522e+02	-17.8471	-67.924809	0.000122	1.216719	0.412236	0.000049
1562	1.5532e+02	-17.8070	-67.799658	0.000314	3.143191	1.064942	0.000126
1563	1.5542e+02	-17.7589	-67.735063	0.000162	1.622292	0.549647	0.000065
1564	1.5552e+02	-17.7188	-67.650284	0.000213	2.129258	0.721412	0.000085
1565	1.5562e+02	-17.6851	-67.533207	0.000294	2.940404	0.996236	0.000118
1566	1.5572e+02	-17.6450	-67.404018	0.000324	3.244584	1.099295	0.000130
1567	1.5582e+02	-17.6000	-67.375758	0.000071	0.709753	0.240471	0.000028
1568	1.5592e+02	-17.5551	-67.246570	0.000324	3.244584	1.099295	0.000130
1569	1.5602e+02	-17.5246	-67.153716	0.000233	2.332045	0.790118	0.000093
1570	1.5612e+02	-17.4813	-67.089122	0.000162	1.622292	0.549647	0.000065
1571	1.5622e+02	-17.4428	-66.959933	0.000324	3.244584	1.099295	0.000130
1572	1.5631e+02	-17.4011	-66.903413	0.000142	1.419506	0.480942	0.000057
1573	1.5641e+02	-17.3610	-66.754039	0.000375	3.751550	1.271060	0.000150
1574	1.5651e+02	-17.3209	-66.673297	0.000203	2.027865	0.687059	0.000081
1575	1.5661e+02	-17.2792	-66.576405	0.000243	2.433438	0.824471	0.000097
1576	1.5671e+02	-17.2423	-66.471440	0.000264	2.636225	0.893177	0.000105
1577	1.5681e+02	-17.2038	-66.370512	0.000253	2.534831	0.858824	0.000101
1578	1.5691e+02	-17.1637	-66.342252	0.000071	0.709753	0.240471	0.000028
1579	1.5701e+02	-17.1268	-66.156543	0.000466	4.664090	1.580236	0.000187
1580	1.5711e+02	-17.0867	-66.100023	0.000142	1.419506	0.480942	0.000057
1581	1.5721e+02	-17.0450	-65.991021	0.000274	2.737618	0.927530	0.000110
1582	1.5731e+02	-17.0065	-65.914315	0.000193	1.926472	0.652706	0.000077
1583	1.5741e+02	-16.9680	-65.801275	0.000284	2.839011	0.961883	0.000114
1584	1.5751e+02	-16.9263	-65.716496	0.000213	2.129258	0.721412	0.000085
1585	1.5761e+02	-16.8765	-65.627679	0.000223	2.230652	0.755765	0.000089
1586	1.5771e+02	-16.8396	-65.494453	0.000335	3.345977	1.133648	0.000134
1587	1.5781e+02	-16.8011	-65.437933	0.000142	1.419506	0.480942	0.000057
1588	1.5791e+02	-16.7658	-65.316819	0.000304	3.041798	1.030589	0.000122
1589	1.5801e+02	-16.7257	-65.163408	0.000385	3.852944	1.305413	0.000154
1590	1.5811e+02	-16.6888	-65.098814	0.000162	1.622292	0.549647	0.000065
1591	1.5821e+02	-16.6439	-65.014034	0.000213	2.129258	0.721412	0.000085
1592	1.5830e+02	-16.6086	-64.905031	0.000274	2.737618	0.927530	0.000110
1593	1.5840e+02	-16.5669	-64.787954	0.000294	2.940404	0.996236	0.000118
1594	1.5850e+02	-16.5284	-64.695100	0.000233	2.332045	0.790118	0.000093
1595	1.5860e+02	-16.4899	-64.606283	0.000223	2.230652	0.755765	0.000089
1596	1.5870e+02	-16.4514	-64.505355	0.000253	2.534831	0.858824	0.000101
1597	1.5880e+02	-16.4081	-64.384241	0.000304	3.041798	1.030589	0.000122
1598	1.5890e+02	-16.3664	-64.291387	0.000233	2.332045	0.790118	0.000093
1599	1.5900e+02	-16.3183	-64.178347	0.000284	2.839011	0.961883	0.000114
1600	1.5910e+02	-16.2974	-64.073381	0.000264	2.636225	0.893177	0.000105
1601	1.5920e+02	-16.2429	-64.000713	0.000183	1.825079	0.618353	0.000073
1602	1.5930e+02	-16.2092	-63.891710	0.000274	2.737618	0.927530	0.000110
1603	1.5940e+02	-16.1691	-63.766559	0.000314	3.143191	1.064942	0.000126
1604	1.5950e+02	-16.1257	-63.657556	0.000274	2.737618	0.927530	0.000110
1605	1.5960e+02	-16.0905	-63.532405	0.000314	3.143191	1.064942	0.000126
1606	1.5970e+02	-16.0632	-63.467811	0.000162	1.622292	0.549647	0.000065
1607	1.5980e+02	-16.0038	-63.350734	0.000294	2.940404	0.996236	0.000118
1608	1.5990e+02	-15.9653	-63.217509	0.000335	3.345977	1.133648	0.000134
1609	1.6000e+02	-15.9332	-63.144840	0.000183	1.825079	0.618353	0.000073
1610	1.6010e+02	-15.8947	-63.051986	0.000233	2.332045	0.790118	0.000093
1611	1.6019e+02	-15.8418	-62.918760	0.000335	3.345977	1.133648	0.000134
1612	1.6029e+02	-15.8097	-62.825906	0.000233	2.332045	0.790118	0.000093
1613	1.6039e+02	-15.7648	-62.672495	0.000385	3.852944	1.305413	0.000154
1614	1.6049e+02	-15.7247	-62.607901	0.000162	1.622292	0.549647	0.000065
1615	1.6059e+02	-15.6894	-62.523121	0.000213	2.129258	0.721412	0.000085
1616	1.6069e+02	-15.6461	-62.438341	0.000213	2.129258	0.721412	0.000085
1617	1.6079e+02	-15.6092	-62.268782	0.000426	4.258517	1.442825	0.000170
1618	1.6089e+02	-15.5771	-62.159779	0.000274	2.737618	0.927530	0.000110
1619	1.6099e+02	-15.5370	-62.107296	0.000132	1.318112	0.446589	0.000053
1620	1.6109e+02	-15.4825	-61.974071	0.000335	3.345977	1.133648	0.000134
1621	1.6119e+02	-15.4488	-61.848920	0.000314	3.143191	1.064942	0.000126
1622	1.6129e+02	-15.4071	-61.756065	0.000233	2.332045	0.790118	0.000093
1623	1.6139e+02	-15.3766	-61.622840	0.000335	3.345977	1.133648	0.000134
1624	1.6149e+02	-15.3365	-61.594580	0.000071	0.709753	0.240471	0.000028
1625	1.6159e+02	-15.2899	-61.449243	0.000365	3.650157	1.236707	0.000146
1626	1.6169e+02	-15.2482	-61.348315	0.000253	2.534831	0.858824	0.000101
1627	1.6179e+02	-15.2113	-61.263535	0.000213	2.129258	0.721412	0.000085
1628	1.6189e+02	-15.1776	-61.114161	0.000375	3.751550	1.271060	0.000150
1629	1.6199e+02	-15.1327	-61.057641	0.000142	1.419506	0.480942	0.000057
1630	1.6209e+02	-15.0910	-60.944601	0.000284	2.839011	0.961883	0.000114
1631	1.6219e+02	-15.0525	-60.827524	0.000294	2.940404	0.996236	0.000118
1632	1.6228e+02	-15.0204	-60.722559	0.000264	2.636225	0.893177	0.000105
1633	1.6238e+02	-14.9643	-60.585296	0.000345	3.447371	1.168001	0.000138
1634	1.6248e+02	-14.9322	-60.512628	0.000183	1.825079	0.618353	0.000073
1635	1.6258e+02	-14.8921	-60.395551	0.000294	2.940404	0.996236	0.000118
1636	1.6268e+02	-14.8536	-60.262325	0.000335	3.345977	1.133648	0.000134
1637	1.6278e+02	-14.8183	-60.181582	0.000203	2.027865	0.687059	0.000081
1638	1.6288e+02	-14.7734	-60.052394	0.000324	3.244584	1.099295	0.000130
1639	1.6298e+02	-14.7333	-59.943391	0.000274	2.737618	0.927530	0.000110
1640	1.6308e+02	-14.6964	-59.850537	0.000233	2.332045	0.790118	0.000093
1641	1.6318e+02	-14.6547	-59.733460	0.000294	2.940404	0.996236	0.000118
1642	1.6328e+02	-14.6114	-59.628495	0.000264	2.636225	0.893177	0.000105
1643	1.6338e+02	-14.5745	-59.551789	0.000193	1.926472	0.652706	0.000077
1644	1.6348e+02	-14.5279	-59.450861	0.000253	2.534831	0.858824	0.000101
1645	1.6358e+02	-14.4975	-59.345895	0.000264	2.636225	0.893177	0.000105
1646	1.6368e+02	-14.4509	-59.244967	0.000253	2.534831	0.858824	0.000101
1647	1.6378e+02	-14.4076	-59.123853	0.000304	3.041798	1.030589	0.000122
1648	1.6388e+02	-14.3787	-59.006776	0.000294	2.940404	0.996236	0.000118
1649	1.6398e+02	-14.3354	-58.897773	0.000274	2.737618	0.927530	0.000110
1650	1.6408e+02	-14.3017	-58.796845	0.000253	2.534831	0.858824	0.000101
1651	1.6418e+02	-14.2616	-58.667657	0.000324	3.244584	1.099295	0.000130
1652	1.6427e+02	-14.2151	-58.582877	0.000213	2.129258	0.721412	0.000085
1653	1.6437e+02	-14.1654	-58.461763	0.000304	3.041798	1.030589	0.000122
1654	1.6447e+02	-14.1365	-58.360834	0.000253	2.534831	0.858824	0.000101
1655	1.6457e+02	-14.0948	-58.284129	0.000193	1.926472	0.652706	0.000077
1656	1.6467e+02	-14.0547	-58.175126	0.000274	2.737618	0.927530	0.000110
1657	1.6477e+02	-14.0226	-58.045938	0.000324	3.244584	1.099295	0.000130
1658	1.6487e+02	-13.9713	-57.945009	0.000253	2.534831	0.858824	0.000101
1659	1.6497e+02	-13.9392	-57.827932	0.000294	2.940404	0.996236	0.000118
1660	1.6507e+02	-13.8959	-57.698744	0.000324	3.244584	1.099295	0.000130
1661	1.6517e+02	-13.8622	-57.630113	0.000172	1.723685	0.584000	0.000069
1662	1.6527e+02	-13.8140	-57.525147	0.000264	2.636225	0.893177	0.000105
1663	1.6537e+02	-13.7804	-57.420182	0.000264	2.636225	0.893177	0.000105
1664	1.6547e+02	-13.7306	-57.299068	0.000304	3.041798	1.030589	0.000122
1665	1.6557e+02	-13.6953	-57.222362	0.000193	1.926472	0.652706	0.000077
1666	1.6567e+02	-13.6600	-57.077025	0.000365	3.650157	1.236707	0.000146
1667	1.6577e+02	-13.6103	-57.012431	0.000162	1.622292	0.549647	0.000065
1668	1.6587e+02	-13.5798	-56.846908	0.000416	4.157123	1.408472	0.000166
1669	1.6597e+02	-13.5429	-56.770203	0.000193	1.926472	0.652706	0.000077
1670	1.6607e+02	-13.4996	-56.636977	0.000335	3.345977	1.133648	0.000134
1671	1.6616e+02	-13.4756	-56.523937	0.000284	2.839011	0.961883	0.000114
1672	1.6626e+02	-13.4098	-56.394749	0.000324	3.244584	1.099295	0.000130
1673	1.6636e+02	-13.3729	-56.334192	0.000152	1.520899	0.515294	0.000061
1674	1.6646e+02	-13.3328	-56.192892	0.000355	3.548764	1.202354	0.000142
1675	1.6656e+02	-13.3039	-56.091964	0.000253	2.534831	0.858824	0.000101
1676	1.6666e+02	-13.2574	-56.039481	0.000132	1.318112	0.446589	0.000053
1677	1.6676e+02	-13.2253	-55.873959	0.000416	4.157123	1.408472	0.000166
1678	1.6686e+02	-13.1788	-55.813402	0.000152	1.520899	0.515294	0.000061
1679	1.6696e+02	-13.1451	-55.643842	0.000426	4.258517	1.442825	0.000170
1680	1.6706e+02	-13.1034	-55.591359	0.000132	1.318112	0.446589	0.000053
1681	1.6716e+02	-13.0552	-55.450059	0.000355	3.548764	1.202354	0.000142
1682	1.6726e+02	-13.0135	-55.345094	0.000264	2.636225	0.893177	0.000105
1683	1.6736e+02	-12.9718	-55.240128	0.000264	2.636225	0.893177	0.000105
1684	1.6746e+02	-12.9413	-55.143237	0.000243	2.433438	0.824471	0.000097
1685	1.6756e+02	-12.8964	-55.046346	0.000243	2.433438	0.824471	0.000097
1686	1.6766e+02	-12.8595	-54.917157	0.000324	3.244584	1.099295	0.000130
1687	1.6776e+02	-12.8146	-54.804118	0.000284	2.839011	0.961883	0.000114
1688	1.6786e+02	-12.7841	-54.719338	0.000213	2.129258	0.721412	0.000085
1689	1.6796e+02	-12.7392	-54.606298	0.000284	2.839011	0.961883	0.000114
1690	1.6806e+02	-12.6975	-54.481147	0.000314	3.143191	1.064942	0.000126
1691	1.6816e+02	-12.6670	-54.384256	0.000243	2.433438	0.824471	0.000097
1692	1.6825e+02	-12.6221	-54.303513	0.000203	2.027865	0.687059	0.000081
1693	1.6835e+02	-12.5852	-54.137990	0.000416	4.157123	1.408472	0.000166
1694	1.6845e+02	-12.5419	-54.077433	0.000152	1.520899	0.515294	0.000061
1695	1.6855e+02	-12.4970	-53.919985	0.000395	3.954337	1.339766	0.000158
1696	1.6865e+02	-12.4585	-53.835205	0.000213	2.129258	0.721412	0.000085
1697	1.6875e+02	-12.4248	-53.726202	0.000274	2.737618	0.927530	0.000110
1698	1.6885e+02	-12.3815	-53.588940	0.000345	3.447371	1.168001	0.000138
1699	1.6895e+02	-12.3446	-53.496086	0.000233	2.332045	0.790118	0.000093
1700	1.6905e+02	-12.3045	-53.370934	0.000314	3.143191	1.064942	0.000126
1701	1.6915e+02	-12.2628	-53.274043	0.000243	2.433438	0.824471	0.000097
1702	1.6925e+02	-12.2194	-53.152929	0.000304	3.041798	1.030589	0.000122
1703	1.6935e+02	-12.1906	-53.043926	0.000274	2.737618	0.927530	0.000110
1704	1.6945e+02	-12.1392	-52.942998	0.000253	2.534831	0.858824	0.000101
1705	1.6955e+02	-12.1071	-52.813810	0.000324	3.244584	1.099295	0.000130
1706	1.6965e+02	-12.0686	-52.708844	0.000264	2.636225	0.893177	0.000105
1707	1.6975e+02	-12.0253	-52.587730	0.000304	3.041798	1.030589	0.000122
1708	1.6985e+02	-11.9948	-52.470653	0.000294	2.940404	0.996236	0.000118
1709	1.6995e+02	-11.9355	-52.349539	0.000304	3.041798	1.030589	0.000122
1710	1.7005e+02	-11.9034	-52.248611	0.000253	2.534831	0.858824	0.000101
1711	1.7015e+02	-11.8745	-52.107311	0.000355	3.548764	1.202354	0.000142
1712	1.7024e+02	-11.8280	-51.974085	0.000335	3.345977	1.133648	0.000134
1713	1.7034e+02	-11.7847	-51.909491	0.000162	1.622292	0.549647	0.000065
1714	1.7044e+02	-11.7478	-51.800489	0.000274	2.737618	0.927530	0.000110
1715	1.7054e+02	-11.7077	-51.675337	0.000314	3.143191	1.064942	0.000126
1716	1.7064e+02	-11.6644	-51.534038	0.000355	3.548764	1.202354	0.000142
1717	1.7074e+02	-11.6243	-51.429072	0.000264	2.636225	0.893177	0.000105
1718	1.7084e+02	-11.5794	-51.320070	0.000274	2.737618	0.927530	0.000110
1719	1.7094e+02	-11.5505	-51.227215	0.000233	2.332045	0.790118	0.000093
1720	1.7104e+02	-11.5056	-51.045544	0.000456	4.562696	1.545883	0.000183
1721	1.7114e+02	-11.4638	-50.993062	0.000132	1.318112	0.446589	0.000053
1722	1.7124e+02	-11.4334	-50.823502	0.000426	4.258517	1.442825	0.000170
1723	1.7134e+02	-11.3901	-50.698351	0.000314	3.143191	1.064942	0.000126
1724	1.7144e+02	-11.3516	-50.613571	0.000213	2.129258	0.721412	0.000085
1725	1.7154e+02	-11.3098	-50.480345	0.000335	3.345977	1.133648	0.000134
1726	1.7164e+02	-11.2681	-50.383454	0.000243	2.433438	0.824471	0.000097
1727	1.7174e+02	-11.2344	-50.274451	0.000274	2.737618	0.927530	0.000110
1728	1.7184e+02	-11.1911	-50.117003	0.000395	3.954337	1.339766	0.000158
1729	1.7194e+02	-11.1446	-49.991852	0.000314	3.143191	1.064942	0.000126
1730	1.7204e+02	-11.1077	-49.898998	0.000233	2.332045	0.790118	0.000093
1731	1.7213e+02	-11.0740	-49.725401	0.000436	4.359910	1.477177	0.000174
1732	1.7223e+02	-11.0339	-49.632547	0.000233	2.332045	0.790118	0.000093
1733	1.7233e+02	-10.9954	-49.503358	0.000324	3.244584	1.099295	0.000130
1734	1.7243e+02	-10.9537	-49.414541	0.000223	2.230652	0.755765	0.000089
1735	1.7253e+02	-10.9088	-49.253056	0.000406	4.055730	1.374119	0.000162
1736	1.7263e+02	-10.8783	-49.140016	0.000284	2.839011	0.961883	0.000114
1737	1.7273e+02	-10.8238	-49.071385	0.000172	1.723685	0.584000	0.000069
1738	1.7283e+02	-10.7869	-48.893751	0.000446	4.461303	1.511530	0.000179
1739	1.7293e+02	-10.7532	-48.808971	0.000213	2.129258	0.721412	0.000085
1740	1.7303e+02	-10.7115	-48.679783	0.000324	3.244584	1.099295	0.000130
1741	1.7313e+02	-10.6665	-48.542520	0.000345	3.447371	1.168001	0.000138
1742	1.7323e+02	-10.6361	-48.429480	0.000284	2.839011	0.961883	0.000114
1743	1.7333e+02	-10.5895	-48.272032	0.000395	3.954337	1.339766	0.000158
1744	1.7343e+02	-10.5478	-48.142844	0.000324	3.244584	1.099295	0.000130
1745	1.7353e+02	-10.5093	-48.041915	0.000253	2.534831	0.858824	0.000101
1746	1.7363e+02	-10.4708	-47.945024	0.000243	2.433438	0.824471	0.000097
1747	1.7373e+02	-10.4387	-47.803724	0.000355	3.548764	1.202354	0.000142
1748	1.7383e+02	-10.3970	-47.682610	0.000304	3.041798	1.030589	0.000122
1749	1.7393e+02	-10.3569	-47.525162	0.000395	3.954337	1.339766	0.000158
1750	1.7403e+02	-10.3120	-47.432308	0.000233	2.332045	0.790118	0.000093
1751	1.7413e+02	-10.2751	-47.258711	0.000436	4.359910	1.477177	0.000174
1752	1.7422e+02	-10.2286	-47.182005	0.000193	1.926472	0.652706	0.000077
1753	1.7432e+02	-10.1965	-47.008409	0.000436	4.359910	1.477177	0.000174
1754	1.7442e+02	-10.1532	-46.943814	0.000162	1.622292	0.549647	0.000065
1755	1.7452e+02	-10.1067	-46.822700	0.000304	3.041798	1.030589	0.000122
1756	1.7462e+02	-10.0682	-46.681401	0.000355	3.548764	1.202354	0.000142
1757	1.7472e+02	-10.0249	-46.515878	0.000416	4.157123	1.408472	0.000166
1758	1.7482e+02	-9.9880	-46.410912	0.000264	2.636225	0.893177	0.000105
1759	1.7492e+02	-9.9591	-46.314021	0.000243	2.433438	0.824471	0.000097
1760	1.7502e+02	-9.9077	-46.209056	0.000264	2.636225	0.893177	0.000105
1761	1.7512e+02	-9.8773	-46.031422	0.000446	4.461303	1.511530	0.000179
1762	1.7522e+02	-9.8339	-45.910308	0.000304	3.041798	1.030589	0.000122
1763	1.7532e+02	-9.7810	-45.760934	0.000375	3.751550	1.271060	0.000150
1764	1.7542e+02	-9.7473	-45.651931	0.000274	2.737618	0.927530	0.000110
1765	1.7552e+02	-9.7088	-45.498520	0.000385	3.852944	1.305413	0.000154
1766	1.7562e+02	-9.6815	-45.421814	0.000193	1.926472	0.652706	0.000077
1767	1.7572e+02	-9.6318	-45.268403	0.000385	3.852944	1.305413	0.000154
1768	1.7582e+02	-9.5933	-45.127103	0.000355	3.548764	1.202354	0.000142
1769	1.7592e+02	-9.5548	-45.014063	0.000284	2.839011	0.961883	0.000114
1770	1.7602e+02	-9.5163	-44.896987	0.000294	2.940404	0.996236	0.000118
1771	1.7612e+02	-9.4746	-44.763761	0.000335	3.345977	1.133648	0.000134
1772	1.7621e+02	-9.4361	-44.602276	0.000406	4.055730	1.374119	0.000162
1773	1.7631e+02	-9.4024	-44.493273	0.000274	2.737618	0.927530	0.000110
1774	1.7641e+02	-9.3607	-44.368122	0.000314	3.143191	1.064942	0.000126
1775	1.7651e+02	-9.3126	-44.162228	0.000517	5.171056	1.752001	0.000207
1776	1.7661e+02	-9.2805	-44.093597	0.000172	1.723685	0.584000	0.000069
1777	1.7671e+02	-9.2436	-43.964408	0.000324	3.244584	1.099295	0.000130
1778	1.7681e+02	-9.2019	-43.819071	0.000365	3.650157	1.236707	0.000146
1779	1.7691e+02	-9.1618	-43.681809	0.000345	3.447371	1.168001	0.000138
1780	1.7701e+02	-9.1185	-43.584917	0.000243	2.433438	0.824471	0.000097
1781	1.7711e+02	-9.0784	-43.455729	0.000324	3.244584	1.099295	0.000130
1782	1.7721e+02	-9.0366	-43.298281	0.000395	3.954337	1.339766	0.000158
1783	1.7731e+02	-8.9981	-43.173130	0.000314	3.143191	1.064942	0.000126
1784	1.7741e+02	-8.9468	-43.023756	0.000375	3.751550	1.271060	0.000150
1785	1.7751e+02	-8.9147	-42.922827	0.000253	2.534831	0.858824	0.000101
1786	1.7761e+02	-8.8746	-42.765379	0.000395	3.954337	1.339766	0.000158
1787	1.7771e+02	-8.8409	-42.652339	0.000284	2.839011	0.961883	0.000114
1788	1.7781e+02	-8.7992	-42.551411	0.000253	2.534831	0.858824	0.000101
1789	1.7791e+02	-8.7543	-42.402037	0.000375	3.751550	1.271060	0.000150
1790	1.7801e+02	-8.7174	-42.244588	0.000395	3.954337	1.339766	0.000158
1791	1.7810e+02	-8.6853	-42.095214	0.000375	3.751550	1.271060	0.000150
1792	1.7820e+02	-8.6324	-42.002360	0.000233	2.332045	0.790118	0.000093
1793	1.7830e+02	-8.6019	-41.861060	0.000355	3.548764	1.202354	0.000142
1794	1.7840e+02	-8.5506	-41.743984	0.000294	2.940404	0.996236	0.000118
1795	1.7850e+02	-8.5153	-41.614795	0.000324	3.244584	1.099295	0.000130
1796	1.7860e+02	-8.4832	-41.469458	0.000365	3.650157	1.236707	0.000146
1797	1.7870e+02	-8.4302	-41.356419	0.000284	2.839011	0.961883	0.000114
1798	1.7880e+02	-8.4014	-41.219156	0.000345	3.447371	1.168001	0.000138
1799	1.7890e+02	-8.3645	-41.073819	0.000365	3.650157	1.236707	0.000146
1800	1.7900e+02	-8.3131	-40.940594	0.000335	3.345977	1.133648	0.000134
1801	1.7910e+02	-8.2778	-40.815442	0.000314	3.143191	1.064942	0.000126
1802	1.7920e+02	-8.2570	-40.726625	0.000223	2.230652	0.755765	0.000089
1803	1.7930e+02	-8.1928	-40.553028	0.000436	4.359910	1.477177	0.000174
1804	1.7940e+02	-8.1607	-40.435952	0.000294	2.940404	0.996236	0.000118
1805	1.7950e+02	-8.1254	-40.298689	0.000345	3.447371	1.168001	0.000138
1806	1.7960e+02	-8.0869	-40.181612	0.000294	2.940404	0.996236	0.000118
1807	1.7970e+02	-8.0516	-40.012052	0.000426	4.258517	1.442825	0.000170
1808	1.7980e+02	-8.0019	-39.939384	0.000183	1.825079	0.618353	0.000073
1809	1.7990e+02	-7.9666	-39.806158	0.000335	3.345977	1.133648	0.000134
1810	1.8000e+02	-7.9185	-39.620450	0.000466	4.664090	1.580236	0.000187
1811	1.8009e+02	-7.8800	-39.491262	0.000324	3.244584	1.099295	0.000130
1812	1.8019e+02	-7.8527	-39.366111	0.000314	3.143191	1.064942	0.000126
1813	1.8029e+02	-7.7982	-39.216737	0.000375	3.751550	1.271060	0.000150
1814	1.8039e+02	-7.7613	-39.119845	0.000243	2.433438	0.824471	0.000097
1815	1.8049e+02	-7.7324	-38.962397	0.000395	3.954337	1.339766	0.000158
1816	1.8059e+02	-7.6763	-38.845320	0.000294	2.940404	0.996236	0.000118
1817	1.8069e+02	-7.6410	-38.712095	0.000335	3.345977	1.133648	0.000134
1818	1.8079e+02	-7.6009	-38.526386	0.000466	4.664090	1.580236	0.000187
1819	1.8089e+02	-7.5559	-38.429495	0.000243	2.433438	0.824471	0.000097
1820	1.8099e+02	-7.5303	-38.320492	0.000274	2.737618	0.927530	0.000110
1821	1.8109e+02	-7.4789	-38.179193	0.000355	3.548764	1.202354	0.000142
1822	1.8119e+02	-7.4388	-38.009633	0.000426	4.258517	1.442825	0.000170
1823	1.8129e+02	-7.4067	-37.908705	0.000253	2.534831	0.858824	0.000101
1824	1.8139e+02	-7.3650	-37.787591	0.000304	3.041798	1.030589	0.000122
1825	1.8149e+02	-7.3281	-37.646291	0.000355	3.548764	1.202354	0.000142
1826	1.8159e+02	-7.2880	-37.500954	0.000365	3.650157	1.236707	0.000146
1827	1.8169e+02	-7.2447	-37.387914	0.000284	2.839011	0.961883	0.000114
1828	1.8179e+02	-7.2046	-37.250651	0.000345	3.447371	1.168001	0.000138
1829	1.8189e+02	-7.1693	-37.117426	0.000335	3.345977	1.133648	0.000134
1830	1.8199e+02	-7.1292	-36.980163	0.000345	3.447371	1.168001	0.000138
1831	1.8209e+02	-7.0763	-36.895384	0.000213	2.129258	0.721412	0.000085
1832	1.8218e+02	-7.0474	-36.693527	0.000507	5.069663	1.717648	0.000203
1833	1.8228e+02	-7.0041	-36.564338	0.000324	3.244584	1.099295	0.000130
1834	1.8238e+02	-6.9720	-36.463410	0.000253	2.534831	0.858824	0.000101
1835	1.8248e+02	-6.9303	-36.245405	0.000548	5.475236	1.855060	0.000219
1836	1.8258e+02	-6.8838	-36.172736	0.000183	1.825079	0.618353	0.000073
1837	1.8268e+02	-6.8372	-36.047585	0.000314	3.143191	1.064942	0.000126
1838	1.8278e+02	-6.8132	-35.882062	0.000416	4.157123	1.408472	0.000166
1839	1.8288e+02	-6.7699	-35.712503	0.000426	4.258517	1.442825	0.000170
1840	1.8298e+02	-6.7298	-35.603500	0.000274	2.737618	0.927530	0.000110
1841	1.8308e+02	-6.6832	-35.486423	0.000294	2.940404	0.996236	0.000118
1842	1.8318e+02	-6.6528	-35.353198	0.000335	3.345977	1.133648	0.000134
1843	1.8328e+02	-6.6030	-35.260344	0.000233	2.332045	0.790118	0.000093
1844	1.8338e+02	-6.5677	-35.070598	0.000477	4.765483	1.614589	0.000191
1845	1.8348e+02	-6.5292	-34.977744	0.000233	2.332045	0.790118	0.000093
1846	1.8358e+02	-6.4907	-34.824333	0.000385	3.852944	1.305413	0.000154
1847	1.8368e+02	-6.4458	-34.695145	0.000324	3.244584	1.099295	0.000130
1848	1.8378e+02	-6.4073	-34.578068	0.000294	2.940404	0.996236	0.000118
1849	1.8388e+02	-6.3688	-34.424656	0.000385	3.852944	1.305413	0.000154
1850	1.8398e+02	-6.3335	-34.323728	0.000253	2.534831	0.858824	0.000101
1851	1.8407e+02	-6.2902	-34.150131	0.000436	4.359910	1.477177	0.000174
1852	1.8417e+02	-6.2549	-34.041129	0.000274	2.737618	0.927530	0.000110
1853	1.8427e+02	-6.2164	-33.883680	0.000395	3.954337	1.339766	0.000158
1854	1.8437e+02	-6.1667	-33.734306	0.000375	3.751550	1.271060	0.000150
1855	1.8447e+02	-6.1346	-33.613192	0.000304	3.041798	1.030589	0.000122
1856	1.8457e+02	-6.0929	-33.488041	0.000314	3.143191	1.064942	0.000126
1857	1.8467e+02	-6.0512	-33.322518	0.000416	4.157123	1.408472	0.000166
1858	1.8477e+02	-6.0143	-33.197367	0.000314	3.143191	1.064942	0.000126
1859	1.8487e+02	-5.9629	-33.096439	0.000253	2.534831	0.858824	0.000101
1860	1.8497e+02	-5.9373	-32.947065	0.000375	3.751550	1.271060	0.000150
1861	1.8507e+02	-5.8923	-32.801728	0.000365	3.650157	1.236707	0.000146
1862	1.8517e+02	-5.8506	-32.668502	0.000335	3.345977	1.133648	0.000134
1863	1.8527e+02	-5.8137	-32.551425	0.000294	2.940404	0.996236	0.000118
1864	1.8537e+02	-5.7688	-32.389940	0.000406	4.055730	1.374119	0.000162
1865	1.8547e+02	-5.7335	-32.240566	0.000375	3.751550	1.271060	0.000150
1866	1.8557e+02	-5.6918	-32.111378	0.000324	3.244584	1.099295	0.000130
1867	1.8567e+02	-5.6613	-31.966041	0.000365	3.650157	1.236707	0.000146
1868	1.8577e+02	-5.6148	-31.812630	0.000385	3.852944	1.305413	0.000154
1869	1.8587e+02	-5.5699	-31.711701	0.000253	2.534831	0.858824	0.000101
1870	1.8597e+02	-5.5314	-31.509844	0.000507	5.069663	1.717648	0.000203
1871	1.8606e+02	-5.4929	-31.433139	0.000193	1.926472	0.652706	0.000077
1872	1.8616e+02	-5.4592	-31.275691	0.000395	3.954337	1.339766	0.000158
1873	1.8626e+02	-5.4239	-31.126317	0.000375	3.751550	1.271060	0.000150
1874	1.8636e+02	-5.3710	-30.997128	0.000324	3.244584	1.099295	0.000130
1875	1.8646e+02	-5.3405	-30.851791	0.000365	3.650157	1.236707	0.000146
1876	1.8656e+02	-5.2956	-30.726640	0.000314	3.143191	1.064942	0.000126
1877	1.8666e+02	-5.2490	-30.589377	0.000345	3.447371	1.168001	0.000138
1878	1.8676e+02	-5.2218	-30.399632	0.000477	4.765483	1.614589	0.000191
1879	1.8686e+02	-5.1801	-30.262369	0.000345	3.447371	1.168001	0.000138
1880	1.8696e+02	-5.1416	-30.108958	0.000385	3.852944	1.305413	0.000154
1881	1.8706e+02	-5.0983	-30.003993	0.000264	2.636225	0.893177	0.000105
1882	1.8716e+02	-5.0614	-29.842507	0.000406	4.055730	1.374119	0.000162
1883	1.8726e+02	-5.0164	-29.705245	0.000345	3.447371	1.168001	0.000138
1884	1.8736e+02	-4.9763	-29.572019	0.000335	3.345977	1.133648	0.000134
1885	1.8746e+02	-4.9394	-29.390348	0.000456	4.562696	1.545883	0.000183
1886	1.8756e+02	-4.8945	-29.204640	0.000466	4.664090	1.580236	0.000187
1887	1.8766e+02	-4.8576	-29.119860	0.000213	2.129258	0.721412	0.000085
1888	1.8776e+02	-4.8111	-28.958375	0.000406	4.055730	1.374119	0.000162
1889	1.8786e+02	-4.7742	-28.817075	0.000355	3.548764	1.202354	0.000142
1890	1.8796e+02	-4.7389	-28.679812	0.000345	3.447371	1.168001	0.000138
1891	1.8806e+02	-4.7036	-28.562735	0.000294	2.940404	0.996236	0.000118
1892	1.8815e+02	-4.6507	-28.356841	0.000517	5.171056	1.752001	0.000207
1893	1.8825e+02	-4.6090	-28.191319	0.000416	4.157123	1.408472	0.000166
1894	1.8835e+02	-4.5689	-28.094428	0.000243	2.433438	0.824471	0.000097
1895	1.8845e+02	-4.5352	-27.936979	0.000395	3.954337	1.339766	0.000158
1896	1.8855e+02	-4.4983	-27.803754	0.000335	3.345977	1.133648	0.000134
1897	1.8865e+02	-4.4614	-27.618046	0.000466	4.664090	1.580236	0.000187
1898	1.8875e+02	-4.4213	-27.513080	0.000264	2.636225	0.893177	0.000105
1899	1.8885e+02	-4.3812	-27.323335	0.000477	4.765483	1.614589	0.000191
1900	1.8895e+02	-4.3427	-27.198183	0.000314	3.143191	1.064942	0.000126
1901	1.8905e+02	-4.2977	-27.004401	0.000487	4.866876	1.648942	0.000195
1902	1.8915e+02	-4.2592	-26.899435	0.000264	2.636225	0.893177	0.000105
1903	1.8925e+02	-4.2191	-26.741987	0.000395	3.954337	1.339766	0.000158
1904	1.8935e+02	-4.1806	-26.588576	0.000385	3.852944	1.305413	0.000154
1905	1.8945e+02	-4.1421	-26.443239	0.000365	3.650157	1.236707	0.000146
1906	1.8955e+02	-4.0956	-26.285791	0.000395	3.954337	1.339766	0.000158
1907	1.8965e+02	-4.0507	-26.120268	0.000416	4.157123	1.408472	0.000166
1908	1.8975e+02	-4.0250	-25.987043	0.000335	3.345977	1.133648	0.000134
1909	1.8985e+02	-3.9737	-25.813446	0.000436	4.359910	1.477177	0.000174
1910	1.8995e+02	-3.9352	-25.688295	0.000314	3.143191	1.064942	0.000126
1911	1.9004e+02	-3.9015	-25.518735	0.000426	4.258517	1.442825	0.000170
1912	1.9014e+02	-3.8614	-25.369361	0.000375	3.751550	1.271060	0.000150
1913	1.9024e+02	-3.8197	-25.207876	0.000406	4.055730	1.374119	0.000162
1914	1.9034e+02	-3.7651	-25.086761	0.000304	3.041798	1.030589	0.000122
1915	1.9044e+02	-3.7427	-24.929313	0.000395	3.954337	1.339766	0.000158
1916	1.9054e+02	-3.7106	-24.755716	0.000436	4.359910	1.477177	0.000174
1917	1.9064e+02	-3.6737	-24.622491	0.000335	3.345977	1.133648	0.000134
1918	1.9074e+02	-3.6240	-24.473117	0.000375	3.751550	1.271060	0.000150
1919	1.9084e+02	-3.5903	-24.347966	0.000314	3.143191	1.064942	0.000126
1920	1.9094e+02	-3.5373	-24.154183	0.000487	4.866876	1.648942	0.000195
1921	1.9104e+02	-3.5020	-23.956363	0.000497	4.968270	1.683295	0.000199
1922	1.9114e+02	-3.4635	-23.851398	0.000264	2.636225	0.893177	0.000105
1923	1.9124e+02	-3.4234	-23.653578	0.000497	4.968270	1.683295	0.000199
1924	1.9134e+02	-3.3833	-23.544576	0.000274	2.737618	0.927530	0.000110
1925	1.9144e+02	-3.3432	-23.407313	0.000345	3.447371	1.168001	0.000138
1926	1.9154e+02	-3.3015	-23.217568	0.000477	4.765483	1.614589	0.000191
1927	1.9164e+02	-3.2598	-23.043971	0.000436	4.359910	1.477177	0.000174
1928	1.9174e+02	-3.2245	-22.922857	0.000304	3.041798	1.030589	0.000122
1929	1.9184e+02	-3.1780	-22.753297	0.000426	4.258517	1.442825	0.000170
1930	1.9194e+02	-3.1427	-22.587774	0.000416	4.157123	1.408472	0.000166
1931	1.9203e+02	-3.1074	-22.466660	0.000304	3.041798	1.030589	0.000122
1932	1.9213e+02	-3.0737	-22.276915	0.000477	4.765483	1.614589	0.000191
1933	1.9223e+02	-3.0192	-22.095244	0.000456	4.562696	1.545883	0.000183
1934	1.9233e+02	-2.9759	-21.957981	0.000345	3.447371	1.168001	0.000138
1935	1.9243e+02	-2.9502	-21.836867	0.000304	3.041798	1.030589	0.000122
1936	1.9253e+02	-2.8940	-21.630973	0.000517	5.171056	1.752001	0.000207
1937	1.9263e+02	-2.8700	-21.461414	0.000426	4.258517	1.442825	0.000170
1938	1.9273e+02	-2.8234	-21.324151	0.000345	3.447371	1.168001	0.000138
1939	1.9283e+02	-2.7898	-21.138443	0.000466	4.664090	1.580236	0.000187
1940	1.9293e+02	-2.7448	-21.025403	0.000284	2.839011	0.961883	0.000114
1941	1.9303e+02	-2.7079	-20.831620	0.000487	4.866876	1.648942	0.000195
1942	1.9313e+02	-2.6550	-20.714543	0.000294	2.940404	0.996236	0.000118
1943	1.9323e+02	-2.6197	-20.536909	0.000446	4.461303	1.511530	0.000179
1944	1.9333e+02	-2.5844	-20.387535	0.000375	3.751550	1.271060	0.000150
1945	1.9343e+02	-2.5395	-20.193753	0.000487	4.866876	1.648942	0.000195
1946	1.9353e+02	-2.5106	-20.024193	0.000426	4.258517	1.442825	0.000170
1947	1.9363e+02	-2.4673	-19.895005	0.000324	3.244584	1.099295	0.000130
1948	1.9373e+02	-2.4320	-19.705260	0.000477	4.765483	1.614589	0.000191
1949	1.9383e+02	-2.4080	-19.543774	0.000406	4.055730	1.374119	0.000162
1950	1.9393e+02	-2.3502	-19.386326	0.000395	3.954337	1.339766	0.000158
1951	1.9403e+02	-2.3101	-19.204655	0.000456	4.562696	1.545883	0.000183
1952	1.9412e+02	-2.2748	-19.079503	0.000314	3.143191	1.064942	0.000126
1953	1.9422e+02	-2.2299	-18.926092	0.000385	3.852944	1.305413	0.000154
1954	1.9432e+02	-2.1769	-18.780755	0.000365	3.650157	1.236707	0.000146
1955	1.9442e+02	-2.1417	-18.615233	0.000416	4.157123	1.408472	0.000166
1956	1.9452e+02	-2.1015	-18.429525	0.000466	4.664090	1.580236	0.000187
1957	1.9462e+02	-2.0695	-18.304373	0.000314	3.143191	1.064942	0.000126
1958	1.9472e+02	-2.0294	-18.126739	0.000446	4.461303	1.511530	0.000179
1959	1.9482e+02	-1.9973	-17.932957	0.000487	4.866876	1.648942	0.000195
1960	1.9492e+02	-1.9556	-17.783583	0.000375	3.751550	1.271060	0.000150
1961	1.9502e+02	-1.9058	-17.638246	0.000365	3.650157	1.236707	0.000146
1962	1.9512e+02	-1.8753	-17.464649	0.000436	4.359910	1.477177	0.000174
1963	1.9522e+02	-1.8176	-17.287015	0.000446	4.461303	1.511530	0.000179
1964	1.9532e+02	-1.7839	-17.117456	0.000426	4.258517	1.442825	0.000170
1965	1.9542e+02	-1.7534	-17.008453	0.000274	2.737618	0.927530	0.000110
1966	1.9552e+02	-1.7117	-16.818707	0.000477	4.765483	1.614589	0.000191
1967	1.9562e+02	-1.6652	-16.713742	0.000264	2.636225	0.893177	0.000105
1968	1.9572e+02	-1.6299	-16.528034	0.000466	4.664090	1.580236	0.000187
1969	1.9582e+02	-1.5914	-16.358474	0.000426	4.258517	1.442825	0.000170
1970	1.9592e+02	-1.5465	-16.160654	0.000497	4.968270	1.683295	0.000199
1971	1.9601e+02	-1.5064	-16.043577	0.000294	2.940404	0.996236	0.000118
1972	1.9611e+02	-1.4711	-15.878055	0.000416	4.157123	1.408472	0.000166
1973	1.9621e+02	-1.4214	-15.716569	0.000406	4.055730	1.374119	0.000162
1974	1.9631e+02	-1.3941	-15.551047	0.000416	4.157123	1.408472	0.000166
1975	1.9641e+02	-1.3492	-15.429933	0.000304	3.041798	1.030589	0.000122
1976	1.9651e+02	-1.3123	-15.252299	0.000446	4.461303	1.511530	0.000179
1977	1.9661e+02	-1.2770	-15.074665	0.000446	4.461303	1.511530	0.000179
1978	1.9671e+02	-1.2304	-14.933365	0.000355	3.548764	1.202354	0.000142
1979	1.9681e+02	-1.1839	-14.759768	0.000436	4.359910	1.477177	0.000174
1980	1.9691e+02	-1.1438	-14.574060	0.000466	4.664090	1.580236	0.000187
1981	1.9701e+02	-1.1101	-14.424686	0.000375	3.751550	1.271060	0.000150
1982	1.9711e+02	-1.0732	-14.259163	0.000416	4.157123	1.408472	0.000166
1983	1.9721e+02	-1.0395	-14.154198	0.000264	2.636225	0.893177	0.000105
1984	1.9731e+02	-0.9898	-13.952341	0.000507	5.069663	1.717648	0.000203
1985	1.9741e+02	-0.9641	-13.790856	0.000406	4.055730	1.374119	0.000162
1986	1.9751e+02	-0.9192	-13.629370	0.000406	4.055730	1.374119	0.000162
1987	1.9761e+02	-0.8663	-13.471922	0.000395	3.954337	1.339766	0.000158
1988	1.9771e+02	-0.8230	-13.318511	0.000385	3.852944	1.305413	0.000154
1989	1.9781e+02	-0.7893	-13.161063	0.000395	3.954337	1.339766	0.000158
1990	1.9791e+02	-0.7556	-12.999577	0.000406	4.055730	1.374119	0.000162
1991	1.9800e+02	-0.7091	-12.817906	0.000456	4.562696	1.545883	0.000183
1992	1.9810e+02	-0.6770	-12.644309	0.000436	4.359910	1.477177	0.000174
1993	1.9820e+02	-0.6369	-12.478787	0.000416	4.157123	1.408472	0.000166
1994	1.9830e+02	-0.5888	-12.349598	0.000324	3.244584	1.099295	0.000130
1995	1.9840e+02	-0.5599	-12.127556	0.000558	5.576629	1.889413	0.000223
1996	1.9850e+02	-0.5118	-12.042776	0.000213	2.129258	0.721412	0.000085
1997	1.9860e+02	-0.4845	-11.877253	0.000416	4.157123	1.408472	0.000166
1998	1.9870e+02	-0.4347	-11.707694	0.000426	4.258517	1.442825	0.000170
1999	1.9880e+02	-0.3882	-11.538134	0.000426	4.258517	1.442825	0.000170
2000	1.9890e+02	-0.3481	-11.388760	0.000375	3.751550	1.271060	0.000150
2001	1.9900e+02	-0.3208	-11.219200	0.000426	4.258517	1.442825	0.000170
2002	1.9910e+02	-0.2679	-11.069826	0.000375	3.751550	1.271060	0.000150
2003	1.9920e+02	-0.2342	-10.900266	0.000426	4.258517	1.442825	0.000170
2004	1.9930e+02	-0.1957	-10.702447	0.000497	4.968270	1.683295	0.000199
2005	1.9940e+02	-0.1556	-10.565184	0.000345	3.447371	1.168001	0.000138
2006	1.9950e+02	-0.1235	-10.427922	0.000345	3.447371	1.168001	0.000138
2007	1.9960e+02	-0.0770	-10.250288	0.000446	4.461303	1.511530	0.000179
2008	1.9970e+02	-0.0321	-10.104951	0.000365	3.650157	1.236707	0.000146
2009	1.9980e+02	0.0096	-9.923280	0.000365	3.650157	1.236707	0.000183

PMax (uC/cm2):	7.93e+01
Pr (uC/cm2):	7.16e+00
-Pr (uC/cm2):	-2.47e+00
PLoss (uC/cm2):	-2.45e+00
-Vc:	-1.74e+00
C (Max-Eff) (nF):	3.97e-01
K (Eff):	1.34e+03
Vert. (+/-Pr) Shift (uC/cm2):	2.34e+00
Offset (uC/cm2):	7.45e+00

A (Loop Area - uC/cm2·Volts):	4.27e-02



Hysteresis Version: 5.48.1 - Radiant Technologies, Inc., 1999 - 9/12/24

