»»»»»»»»»»»»»»»»»»»»»»»»»»»»»»»»»»»» Hysteresis ««««««««««««««««««««««««««««««««««««
»»»  Executed Version:	5.48.1
»»»  Vision Version:	5.48.4 (R)
»»»  Vision Compiled:	9/18/24
»»»  Driver Version:	5.47.0
»»»  Windows Version:	Windows 8 or 8.1
»»»  Processor Information:	x86 (AMD or Intel) - 32 Processors
»»»  Tester Name:	PMF21124-494 (100V)
»»»  Tester S/N:	PMF21124-494
»»»  Internal Amp Type:	100V RevK 270k
»»»  Internal Amp S/N:	iAB2-596/K     
»»»  Execution Count:	1
»»»»»»»»»»»»»»»»»»»»»»»»»»»»»»»»»»»»»»»»»»««««««««««««««««««««««««««««««««««««««««««

Stored:	6/19/2025 - 20:51:24
Configured:	06/19/25 10:04:32 AM
Executed:	06/19/25 08:50:54 PM

»»»»»»»»»»»»»»»»»»»»»»»»»»»»»»»»»»» Sample Info ««««««««««««««««««««««««««««««««««««
Sample Name:	
Lot Name:	
Wafer Name:	
Die Row/Column:	0/0
Capacitor Number:	0
Sample Area (cm2):	1.00e-04
Sample Thickness (microns):	3.00e-01

Amplifier:	Internal

»»»»»»»»»»»»»»»»»»»»»»»»»»»»»»»»»»» Tester Info «««««««««««««««««««««««««««««««««««
Tester Name:	PMF21124-494 (100V)
Tester Serial Number:	PMF21124-494
Return Signal Amp. Level:	0.19 [Index: 3]

»»»»»»»»»»»»»»»»»»»»»»»»»»»»»»»» Hysteresis Info ««««««««««««««««««««««««««««««««««
Task Name:	Hyst-1168
Volts:	20.00
Field:	666.67 (kV/cm)
DCBias:	0.00
DCField:	0.00 (kV/cm)
Hysteresis Period (ms):	2.00e+02
Preset:	Enabled
Preset Delay (ms):	1.00e+03
Profile:	Standard Bipolar

»»»»»»»»»»»»»»»»»»»»»»»»»»»»»»»»»»»»»» Data «««««««««««««««««««««««««««««««««««««««
Points:	2009

Valid Data

Point	Time (ms)	Drive Voltage	Measured Polarization (uC/cm2)	Capacitance (uF)	Normalized Capacitance (uF/cm2)	Dielectric Constant	Instantaneous Current (mA)
   1	0.0000e+00	0.0112	-6.120298	0.000264	2.635326	0.892873	0.000105
   2	9.9500e-02	0.0337	-6.015332	0.000264	2.635326	0.892873	0.000105
   3	1.9900e-01	0.0738	-5.857884	0.000395	3.952989	1.339309	0.000158
   4	2.9850e-01	0.1171	-5.704473	0.000385	3.851630	1.304968	0.000154
   5	3.9800e-01	0.1620	-5.534913	0.000426	4.257065	1.442333	0.000170
   6	4.9750e-01	0.1941	-5.433985	0.000253	2.533967	0.858531	0.000101
   7	5.9700e-01	0.2342	-5.224054	0.000527	5.270651	1.785745	0.000211
   8	6.9650e-01	0.2839	-5.106977	0.000294	2.939402	0.995896	0.000118
   9	7.9600e-01	0.3160	-4.973751	0.000334	3.344836	1.133261	0.000134
  10	8.9550e-01	0.3529	-4.820340	0.000385	3.851630	1.304968	0.000154
  11	9.9500e-01	0.3995	-4.650780	0.000426	4.257065	1.442333	0.000170
  12	1.0945e+00	0.4347	-4.517555	0.000334	3.344836	1.133261	0.000134
  13	1.1940e+00	0.4813	-4.368181	0.000375	3.750271	1.270626	0.000150
  14	1.2935e+00	0.5150	-4.222844	0.000365	3.648913	1.236285	0.000146
  15	1.3930e+00	0.5503	-4.065396	0.000395	3.952989	1.339309	0.000158
  16	1.4925e+00	0.6016	-3.899873	0.000416	4.155706	1.407991	0.000166
  17	1.5920e+00	0.6305	-3.734351	0.000416	4.155706	1.407991	0.000166
  18	1.6915e+00	0.6786	-3.593051	0.000355	3.547554	1.201944	0.000142
  19	1.7910e+00	0.7059	-3.463862	0.000324	3.243478	1.098920	0.000130
  20	1.8905e+00	0.7540	-3.310451	0.000385	3.851630	1.304968	0.000154
  21	1.9900e+00	0.7941	-3.120706	0.000476	4.763858	1.614039	0.000191
  22	2.0895e+00	0.8358	-2.943072	0.000446	4.459782	1.511015	0.000179
  23	2.1890e+00	0.8679	-2.817921	0.000314	3.142119	1.064579	0.000126
  24	2.2885e+00	0.9160	-2.684695	0.000334	3.344836	1.133261	0.000134
  25	2.3880e+00	0.9577	-2.523210	0.000405	4.054347	1.373650	0.000162
  26	2.4875e+00	0.9882	-2.349613	0.000436	4.358423	1.476674	0.000174
  27	2.5870e+00	1.0347	-2.204276	0.000365	3.648913	1.236285	0.000146
  28	2.6865e+00	1.0796	-2.050865	0.000385	3.851630	1.304968	0.000154
  29	2.7860e+00	1.1182	-1.877268	0.000436	4.358423	1.476674	0.000174
  30	2.8855e+00	1.1583	-1.731931	0.000365	3.648913	1.236285	0.000146
  31	2.9850e+00	1.2032	-1.554297	0.000446	4.459782	1.511015	0.000179
  32	3.0845e+00	1.2353	-1.449332	0.000264	2.635326	0.892873	0.000105
  33	3.1840e+00	1.2706	-1.279772	0.000426	4.257065	1.442333	0.000170
  34	3.2835e+00	1.3139	-1.098101	0.000456	4.561141	1.545356	0.000183
  35	3.3830e+00	1.3540	-0.940653	0.000395	3.952989	1.339309	0.000158
  36	3.4825e+00	1.3941	-0.779167	0.000405	4.054347	1.373650	0.000162
  37	3.5820e+00	1.4342	-0.637867	0.000355	3.547554	1.201944	0.000142
  38	3.6815e+00	1.4807	-0.460233	0.000446	4.459782	1.511015	0.000179
  39	3.7810e+00	1.5128	-0.262414	0.000497	4.966575	1.682721	0.000199
  40	3.8805e+00	1.5497	-0.125151	0.000345	3.446195	1.167603	0.000138
  41	3.9800e+00	1.5898	0.032297	0.000395	3.952989	1.339309	0.000158
  42	4.0795e+00	1.6331	0.201857	0.000426	4.257065	1.442333	0.000170
  43	4.1790e+00	1.6764	0.363342	0.000405	4.054347	1.373650	0.000162
  44	4.2785e+00	1.7197	0.500605	0.000345	3.446195	1.167603	0.000138
  45	4.3780e+00	1.7566	0.674202	0.000436	4.358423	1.476674	0.000174
  46	4.4775e+00	1.7935	0.823576	0.000375	3.750271	1.270626	0.000150
  47	4.5770e+00	1.8272	1.001210	0.000446	4.459782	1.511015	0.000179
  48	4.6765e+00	1.8802	1.170769	0.000426	4.257065	1.442333	0.000170
  49	4.7760e+00	1.9138	1.328218	0.000395	3.952989	1.339309	0.000158
  50	4.8755e+00	1.9507	1.497777	0.000426	4.257065	1.442333	0.000170
  51	4.9750e+00	1.9957	1.602743	0.000264	2.635326	0.892873	0.000105
  52	5.0745e+00	2.0278	1.857082	0.000639	6.385597	2.163499	0.000256
  53	5.1740e+00	2.0743	1.966085	0.000274	2.736684	0.927214	0.000110
  54	5.2735e+00	2.1144	2.135645	0.000426	4.257065	1.442333	0.000170
  55	5.3730e+00	2.1513	2.305205	0.000426	4.257065	1.442333	0.000170
  56	5.4725e+00	2.1946	2.458616	0.000385	3.851630	1.304968	0.000154
  57	5.5720e+00	2.2427	2.632213	0.000436	4.358423	1.476674	0.000174
  58	5.6715e+00	2.2668	2.789661	0.000395	3.952989	1.339309	0.000158
  59	5.7710e+00	2.3005	2.971332	0.000456	4.561141	1.545356	0.000183
  60	5.8705e+00	2.3454	3.124743	0.000385	3.851630	1.304968	0.000154
  61	5.9700e+00	2.3935	3.270080	0.000365	3.648913	1.236285	0.000146
  62	6.0695e+00	2.4384	3.488085	0.000547	5.473369	1.854428	0.000219
  63	6.1690e+00	2.4641	3.605162	0.000294	2.939402	0.995896	0.000118
  64	6.2685e+00	2.5058	3.802982	0.000497	4.966575	1.682721	0.000199
  65	6.3680e+00	2.5491	3.964467	0.000405	4.054347	1.373650	0.000162
  66	6.4675e+00	2.5924	4.081544	0.000294	2.939402	0.995896	0.000118
  67	6.5670e+00	2.6309	4.243030	0.000405	4.054347	1.373650	0.000162
  68	6.6665e+00	2.6662	4.388367	0.000365	3.648913	1.236285	0.000146
  69	6.7660e+00	2.7112	4.590223	0.000507	5.067934	1.717063	0.000203
  70	6.8655e+00	2.7529	4.779969	0.000476	4.763858	1.614039	0.000191
  71	6.9650e+00	2.7882	4.913194	0.000334	3.344836	1.133261	0.000134
  72	7.0645e+00	2.8347	5.090828	0.000446	4.459782	1.511015	0.000179
  73	7.1640e+00	2.8700	5.211942	0.000304	3.040760	1.030238	0.000122
  74	7.2635e+00	2.9069	5.413799	0.000507	5.067934	1.717063	0.000203
  75	7.3630e+00	2.9534	5.595470	0.000456	4.561141	1.545356	0.000183
  76	7.4625e+00	2.9759	5.748881	0.000385	3.851630	1.304968	0.000154
  77	7.5620e+00	3.0192	5.890181	0.000355	3.547554	1.201944	0.000142
  78	7.6615e+00	3.0705	6.063778	0.000436	4.358423	1.476674	0.000174
  79	7.7610e+00	3.1106	6.209115	0.000365	3.648913	1.236285	0.000146
  80	7.8605e+00	3.1459	6.386749	0.000446	4.459782	1.511015	0.000179
  81	7.9600e+00	3.1812	6.556308	0.000426	4.257065	1.442333	0.000170
  82	8.0595e+00	3.2245	6.701645	0.000365	3.648913	1.236285	0.000146
  83	8.1590e+00	3.2598	6.879279	0.000446	4.459782	1.511015	0.000179
  84	8.2585e+00	3.3111	7.105359	0.000568	5.676086	1.923110	0.000227
  85	8.3580e+00	3.3528	7.234547	0.000324	3.243478	1.098920	0.000130
  86	8.4575e+00	3.3849	7.375847	0.000355	3.547554	1.201944	0.000142
  87	8.5570e+00	3.4250	7.561555	0.000466	4.662499	1.579698	0.000187
  88	8.6565e+00	3.4635	7.743226	0.000456	4.561141	1.545356	0.000183
  89	8.7560e+00	3.5036	7.880489	0.000345	3.446195	1.167603	0.000138
  90	8.8555e+00	3.5470	8.025826	0.000365	3.648913	1.236285	0.000146
  91	8.9550e+00	3.5855	8.227683	0.000507	5.067934	1.717063	0.000203
  92	9.0545e+00	3.6304	8.364945	0.000345	3.446195	1.167603	0.000138
  93	9.1540e+00	3.6641	8.574876	0.000527	5.270651	1.785745	0.000211
  94	9.2535e+00	3.6962	8.724250	0.000375	3.750271	1.270626	0.000150
  95	9.3530e+00	3.7443	8.837290	0.000284	2.838043	0.961555	0.000114
  96	9.4525e+00	3.7796	9.043184	0.000517	5.169293	1.751404	0.000207
  97	9.5520e+00	3.8229	9.212744	0.000426	4.257065	1.442333	0.000170
  98	9.6515e+00	3.8694	9.378266	0.000416	4.155706	1.407991	0.000166
  99	9.7510e+00	3.9063	9.572049	0.000487	4.865217	1.648380	0.000195
 100	9.8505e+00	3.9496	9.729497	0.000395	3.952989	1.339309	0.000158
 101	9.9500e+00	3.9881	9.874834	0.000365	3.648913	1.236285	0.000146
 102	1.0050e+01	4.0186	9.995948	0.000304	3.040760	1.030238	0.000122
 103	1.0149e+01	4.0619	10.181656	0.000466	4.662499	1.579698	0.000187
 104	1.0248e+01	4.0988	10.371402	0.000476	4.763858	1.614039	0.000191
 105	1.0348e+01	4.1373	10.536924	0.000416	4.155706	1.407991	0.000166
 106	1.0447e+01	4.1919	10.730707	0.000487	4.865217	1.648380	0.000195
 107	1.0547e+01	4.2207	10.859895	0.000324	3.243478	1.098920	0.000130
 108	1.0646e+01	4.2673	11.005232	0.000365	3.648913	1.236285	0.000146
 109	1.0746e+01	4.3042	11.215163	0.000527	5.270651	1.785745	0.000211
 110	1.0845e+01	4.3362	11.356463	0.000355	3.547554	1.201944	0.000142
 111	1.0945e+01	4.3924	11.505837	0.000375	3.750271	1.270626	0.000150
 112	1.1044e+01	4.4197	11.679434	0.000436	4.358423	1.476674	0.000174
 113	1.1144e+01	4.4614	11.848993	0.000426	4.257065	1.442333	0.000170
 114	1.1243e+01	4.4999	11.994330	0.000365	3.648913	1.236285	0.000146
 115	1.1343e+01	4.5416	12.192150	0.000497	4.966575	1.682721	0.000199
 116	1.1443e+01	4.5849	12.337487	0.000365	3.648913	1.236285	0.000146
 117	1.1542e+01	4.6106	12.470712	0.000334	3.344836	1.133261	0.000134
 118	1.1642e+01	4.6603	12.672569	0.000507	5.067934	1.717063	0.000203
 119	1.1741e+01	4.7020	12.821943	0.000375	3.750271	1.270626	0.000150
 120	1.1841e+01	4.7389	12.987466	0.000416	4.155706	1.407991	0.000166
 121	1.1940e+01	4.7838	13.128765	0.000355	3.547554	1.201944	0.000142
 122	1.2040e+01	4.8255	13.302362	0.000436	4.358423	1.476674	0.000174
 123	1.2139e+01	4.8640	13.459811	0.000395	3.952989	1.339309	0.000158
 124	1.2239e+01	4.8961	13.625333	0.000416	4.155706	1.407991	0.000166
 125	1.2338e+01	4.9346	13.766633	0.000355	3.547554	1.201944	0.000142
 126	1.2438e+01	4.9731	13.960415	0.000487	4.865217	1.648380	0.000195
 127	1.2537e+01	5.0132	14.142086	0.000456	4.561141	1.545356	0.000183
 128	1.2636e+01	5.0678	14.275312	0.000334	3.344836	1.133261	0.000134
 129	1.2736e+01	5.0934	14.444872	0.000426	4.257065	1.442333	0.000170
 130	1.2835e+01	5.1384	14.598283	0.000385	3.851630	1.304968	0.000154
 131	1.2935e+01	5.1737	14.771880	0.000436	4.358423	1.476674	0.000174
 132	1.3034e+01	5.2202	14.897031	0.000314	3.142119	1.064579	0.000126
 133	1.3134e+01	5.2571	15.127148	0.000578	5.777445	1.957451	0.000231
 134	1.3233e+01	5.3004	15.240187	0.000284	2.838043	0.961555	0.000114
 135	1.3333e+01	5.3437	15.385524	0.000365	3.648913	1.236285	0.000146
 136	1.3432e+01	5.3742	15.567195	0.000456	4.561141	1.545356	0.000183
 137	1.3532e+01	5.4095	15.756941	0.000476	4.763858	1.614039	0.000191
 138	1.3632e+01	5.4608	15.869981	0.000284	2.838043	0.961555	0.000114
 139	1.3731e+01	5.4977	16.047615	0.000446	4.459782	1.511015	0.000179
 140	1.3831e+01	5.5410	16.209100	0.000405	4.054347	1.373650	0.000162
 141	1.3930e+01	5.5763	16.398845	0.000476	4.763858	1.614039	0.000191
 142	1.4030e+01	5.6100	16.552257	0.000385	3.851630	1.304968	0.000154
 143	1.4129e+01	5.6629	16.733928	0.000456	4.561141	1.545356	0.000183
 144	1.4229e+01	5.6918	16.867153	0.000334	3.344836	1.133261	0.000134
 145	1.4328e+01	5.7399	17.056898	0.000476	4.763858	1.614039	0.000191
 146	1.4428e+01	5.7752	17.198198	0.000355	3.547554	1.201944	0.000142
 147	1.4527e+01	5.8153	17.416204	0.000547	5.473369	1.854428	0.000219
 148	1.4627e+01	5.8603	17.529243	0.000284	2.838043	0.961555	0.000114
 149	1.4726e+01	5.9004	17.702840	0.000436	4.358423	1.476674	0.000174
 150	1.4825e+01	5.9405	17.840103	0.000345	3.446195	1.167603	0.000138
 151	1.4925e+01	5.9838	18.021774	0.000456	4.561141	1.545356	0.000183
 152	1.5024e+01	6.0127	18.199408	0.000446	4.459782	1.511015	0.000179
 153	1.5124e+01	6.0576	18.348782	0.000375	3.750271	1.270626	0.000150
 154	1.5223e+01	6.0977	18.550639	0.000507	5.067934	1.717063	0.000203
 155	1.5323e+01	6.1394	18.679827	0.000324	3.243478	1.098920	0.000130
 156	1.5422e+01	6.1651	18.865535	0.000466	4.662499	1.579698	0.000187
 157	1.5522e+01	6.2180	19.010872	0.000365	3.648913	1.236285	0.000146
 158	1.5621e+01	6.2517	19.180432	0.000426	4.257065	1.442333	0.000170
 159	1.5721e+01	6.2934	19.345954	0.000416	4.155706	1.407991	0.000166
 160	1.5820e+01	6.3303	19.507440	0.000405	4.054347	1.373650	0.000162
 161	1.5920e+01	6.3752	19.681037	0.000436	4.358423	1.476674	0.000174
 162	1.6020e+01	6.4137	19.834448	0.000385	3.851630	1.304968	0.000154
 163	1.6119e+01	6.4586	19.995933	0.000405	4.054347	1.373650	0.000162
 164	1.6218e+01	6.4923	20.149344	0.000385	3.851630	1.304968	0.000154
 165	1.6318e+01	6.5340	20.290644	0.000355	3.547554	1.201944	0.000142
 166	1.6418e+01	6.5709	20.456167	0.000416	4.155706	1.407991	0.000166
 167	1.6517e+01	6.6255	20.621689	0.000416	4.155706	1.407991	0.000166
 168	1.6616e+01	6.6528	20.795286	0.000436	4.358423	1.476674	0.000174
 169	1.6716e+01	6.6848	20.960809	0.000416	4.155706	1.407991	0.000166
 170	1.6816e+01	6.7362	21.126331	0.000416	4.155706	1.407991	0.000166
 171	1.6915e+01	6.7763	21.295891	0.000426	4.257065	1.442333	0.000170
 172	1.7015e+01	6.8132	21.461414	0.000416	4.155706	1.407991	0.000166
 173	1.7114e+01	6.8517	21.606750	0.000365	3.648913	1.236285	0.000146
 174	1.7213e+01	6.8870	21.748050	0.000355	3.547554	1.201944	0.000142
 175	1.7313e+01	6.9271	21.901461	0.000385	3.851630	1.304968	0.000154
 176	1.7413e+01	6.9736	22.062947	0.000405	4.054347	1.373650	0.000162
 177	1.7512e+01	7.0073	22.256729	0.000487	4.865217	1.648380	0.000195
 178	1.7611e+01	7.0474	22.414178	0.000395	3.952989	1.339309	0.000158
 179	1.7711e+01	7.0827	22.551440	0.000345	3.446195	1.167603	0.000138
 180	1.7811e+01	7.1308	22.733111	0.000456	4.561141	1.545356	0.000183
 181	1.7910e+01	7.1773	22.918820	0.000466	4.662499	1.579698	0.000187
 182	1.8009e+01	7.2110	23.112602	0.000487	4.865217	1.648380	0.000195
 183	1.8109e+01	7.2447	23.233716	0.000304	3.040760	1.030238	0.000122
 184	1.8209e+01	7.2800	23.391164	0.000395	3.952989	1.339309	0.000158
 185	1.8308e+01	7.3281	23.544576	0.000385	3.851630	1.304968	0.000154
 186	1.8407e+01	7.3618	23.714135	0.000426	4.257065	1.442333	0.000170
 187	1.8507e+01	7.4051	23.847361	0.000334	3.344836	1.133261	0.000134
 188	1.8607e+01	7.4565	24.024995	0.000446	4.459782	1.511015	0.000179
 189	1.8706e+01	7.4821	24.238963	0.000537	5.372010	1.820086	0.000215
 190	1.8805e+01	7.5271	24.380263	0.000355	3.547554	1.201944	0.000142
 191	1.8905e+01	7.5688	24.570008	0.000476	4.763858	1.614039	0.000191
 192	1.9005e+01	7.6025	24.715345	0.000365	3.648913	1.236285	0.000146
 193	1.9104e+01	7.6490	24.892979	0.000446	4.459782	1.511015	0.000179
 194	1.9203e+01	7.6875	25.062539	0.000426	4.257065	1.442333	0.000170
 195	1.9303e+01	7.7324	25.203838	0.000355	3.547554	1.201944	0.000142
 196	1.9402e+01	7.7677	25.320915	0.000294	2.939402	0.995896	0.000118
 197	1.9502e+01	7.8062	25.514698	0.000487	4.865217	1.648380	0.000195
 198	1.9602e+01	7.8399	25.664072	0.000375	3.750271	1.270626	0.000150
 199	1.9701e+01	7.8912	25.894189	0.000578	5.777445	1.957451	0.000231
 200	1.9800e+01	7.9265	26.007228	0.000284	2.838043	0.961555	0.000114
 201	1.9900e+01	7.9586	26.176788	0.000426	4.257065	1.442333	0.000170
 202	2.0000e+01	8.0115	26.334236	0.000395	3.952989	1.339309	0.000158
 203	2.0099e+01	8.0452	26.495722	0.000405	4.054347	1.373650	0.000162
 204	2.0198e+01	8.0805	26.673356	0.000446	4.459782	1.511015	0.000179
 205	2.0298e+01	8.1303	26.818693	0.000365	3.648913	1.236285	0.000146
 206	2.0398e+01	8.1607	26.992290	0.000436	4.358423	1.476674	0.000174
 207	2.0497e+01	8.2089	27.169924	0.000446	4.459782	1.511015	0.000179
 208	2.0596e+01	8.2393	27.339483	0.000426	4.257065	1.442333	0.000170
 209	2.0696e+01	8.2843	27.496932	0.000395	3.952989	1.339309	0.000158
 210	2.0796e+01	8.3228	27.694751	0.000497	4.966575	1.682721	0.000199
 211	2.0895e+01	8.3661	27.827977	0.000334	3.344836	1.133261	0.000134
 212	2.0994e+01	8.3982	28.013685	0.000466	4.662499	1.579698	0.000187
 213	2.1094e+01	8.4431	28.187282	0.000436	4.358423	1.476674	0.000174
 214	2.1194e+01	8.4752	28.328581	0.000355	3.547554	1.201944	0.000142
 215	2.1293e+01	8.5233	28.477955	0.000375	3.750271	1.270626	0.000150
 216	2.1392e+01	8.5634	28.651552	0.000436	4.358423	1.476674	0.000174
 217	2.1492e+01	8.6051	28.813038	0.000405	4.054347	1.373650	0.000162
 218	2.1591e+01	8.6404	28.966449	0.000385	3.851630	1.304968	0.000154
 219	2.1691e+01	8.6885	29.127934	0.000405	4.054347	1.373650	0.000162
 220	2.1791e+01	8.7238	29.297494	0.000426	4.257065	1.442333	0.000170
 221	2.1890e+01	8.7575	29.503388	0.000517	5.169293	1.751404	0.000207
 222	2.1989e+01	8.8008	29.648725	0.000365	3.648913	1.236285	0.000146
 223	2.2089e+01	8.8409	29.830396	0.000456	4.561141	1.545356	0.000183
 224	2.2189e+01	8.8858	29.983807	0.000385	3.851630	1.304968	0.000154
 225	2.2288e+01	8.9260	30.125107	0.000355	3.547554	1.201944	0.000142
 226	2.2387e+01	8.9628	30.286592	0.000405	4.054347	1.373650	0.000162
 227	2.2487e+01	9.0094	30.411744	0.000314	3.142119	1.064579	0.000126
 228	2.2587e+01	9.0302	30.593415	0.000456	4.561141	1.545356	0.000183
 229	2.2686e+01	9.0784	30.779123	0.000466	4.662499	1.579698	0.000187
 230	2.2785e+01	9.1169	30.896200	0.000294	2.939402	0.995896	0.000118
 231	2.2885e+01	9.1618	31.069797	0.000436	4.358423	1.476674	0.000174
 232	2.2985e+01	9.2035	31.255505	0.000466	4.662499	1.579698	0.000187
 233	2.3084e+01	9.2356	31.437176	0.000456	4.561141	1.545356	0.000183
 234	2.3183e+01	9.2837	31.566364	0.000324	3.243478	1.098920	0.000130
 235	2.3283e+01	9.3238	31.752073	0.000466	4.662499	1.579698	0.000187
 236	2.3383e+01	9.3623	31.913558	0.000405	4.054347	1.373650	0.000162
 237	2.3482e+01	9.4040	32.054858	0.000355	3.547554	1.201944	0.000142
 238	2.3581e+01	9.4425	32.236529	0.000456	4.561141	1.545356	0.000183
 239	2.3681e+01	9.4762	32.385903	0.000375	3.750271	1.270626	0.000150
 240	2.3780e+01	9.5131	32.515091	0.000324	3.243478	1.098920	0.000130
 241	2.3880e+01	9.5628	32.720985	0.000517	5.169293	1.751404	0.000207
 242	2.3980e+01	9.5949	32.846136	0.000314	3.142119	1.064579	0.000126
 243	2.4079e+01	9.6366	33.007622	0.000405	4.054347	1.373650	0.000162
 244	2.4178e+01	9.6783	33.193330	0.000466	4.662499	1.579698	0.000187
 245	2.4278e+01	9.7217	33.326556	0.000334	3.344836	1.133261	0.000134
 246	2.4378e+01	9.7553	33.496115	0.000426	4.257065	1.442333	0.000170
 247	2.4477e+01	9.8067	33.681823	0.000466	4.662499	1.579698	0.000187
 248	2.4576e+01	9.8307	33.839272	0.000395	3.952989	1.339309	0.000158
 249	2.4676e+01	9.8773	33.992683	0.000385	3.851630	1.304968	0.000154
 250	2.4776e+01	9.9270	34.178391	0.000466	4.662499	1.579698	0.000187
 251	2.4875e+01	9.9655	34.283357	0.000264	2.635326	0.892873	0.000105
 252	2.4974e+01	9.9976	34.448879	0.000416	4.155706	1.407991	0.000166
 253	2.5074e+01	10.0377	34.622476	0.000436	4.358423	1.476674	0.000174
 254	2.5174e+01	10.0746	34.787999	0.000416	4.155706	1.407991	0.000166
 255	2.5273e+01	10.1243	34.909113	0.000304	3.040760	1.030238	0.000122
 256	2.5372e+01	10.1532	35.090784	0.000456	4.561141	1.545356	0.000183
 257	2.5472e+01	10.1965	35.248232	0.000395	3.952989	1.339309	0.000158
 258	2.5572e+01	10.2398	35.381458	0.000334	3.344836	1.133261	0.000134
 259	2.5671e+01	10.2815	35.587352	0.000517	5.169293	1.751404	0.000207
 260	2.5770e+01	10.3232	35.748837	0.000405	4.054347	1.373650	0.000162
 261	2.5870e+01	10.3489	35.853802	0.000264	2.635326	0.892873	0.000105
 262	2.5970e+01	10.3970	36.051622	0.000497	4.966575	1.682721	0.000199
 263	2.6069e+01	10.4468	36.229256	0.000446	4.459782	1.511015	0.000179
 264	2.6169e+01	10.4869	36.366519	0.000345	3.446195	1.167603	0.000138
 265	2.6268e+01	10.5093	36.519930	0.000385	3.851630	1.304968	0.000154
 266	2.6367e+01	10.5526	36.717750	0.000497	4.966575	1.682721	0.000199
 267	2.6467e+01	10.5944	36.855012	0.000345	3.446195	1.167603	0.000138
 268	2.6567e+01	10.6313	37.008423	0.000385	3.851630	1.304968	0.000154
 269	2.6666e+01	10.6794	37.153760	0.000365	3.648913	1.236285	0.000146
 270	2.6765e+01	10.7227	37.315246	0.000405	4.054347	1.373650	0.000162
 271	2.6865e+01	10.7580	37.484805	0.000426	4.257065	1.442333	0.000170
 272	2.6965e+01	10.7933	37.622068	0.000345	3.446195	1.167603	0.000138
 273	2.7064e+01	10.8430	37.783553	0.000405	4.054347	1.373650	0.000162
 274	2.7163e+01	10.8719	37.941002	0.000395	3.952989	1.339309	0.000158
 275	2.7263e+01	10.9056	38.094413	0.000385	3.851630	1.304968	0.000154
 276	2.7363e+01	10.9601	38.247824	0.000385	3.851630	1.304968	0.000154
 277	2.7462e+01	10.9954	38.413347	0.000416	4.155706	1.407991	0.000166
 278	2.7561e+01	11.0419	38.562721	0.000375	3.750271	1.270626	0.000150
 279	2.7661e+01	11.0788	38.712095	0.000375	3.750271	1.270626	0.000150
 280	2.7761e+01	11.1109	38.865506	0.000385	3.851630	1.304968	0.000154
 281	2.7860e+01	11.1478	39.014880	0.000375	3.750271	1.270626	0.000150
 282	2.7959e+01	11.1927	39.204625	0.000476	4.763858	1.614039	0.000191
 283	2.8059e+01	11.2312	39.329776	0.000314	3.142119	1.064579	0.000126
 284	2.8159e+01	11.2778	39.495299	0.000416	4.155706	1.407991	0.000166
 285	2.8258e+01	11.3082	39.604302	0.000274	2.736684	0.927214	0.000110
 286	2.8358e+01	11.3516	39.785973	0.000456	4.561141	1.545356	0.000183
 287	2.8457e+01	11.3981	39.919198	0.000334	3.344836	1.133261	0.000134
 288	2.8556e+01	11.4334	40.088758	0.000426	4.257065	1.442333	0.000170
 289	2.8656e+01	11.4671	40.250243	0.000405	4.054347	1.373650	0.000162
 290	2.8756e+01	11.5184	40.415766	0.000416	4.155706	1.407991	0.000166
 291	2.8855e+01	11.5473	40.597437	0.000456	4.561141	1.545356	0.000183
 292	2.8954e+01	11.5890	40.670105	0.000182	1.824456	0.618143	0.000073
 293	2.9054e+01	11.6227	40.843702	0.000436	4.358423	1.476674	0.000174
 294	2.9154e+01	11.6740	41.005188	0.000405	4.054347	1.373650	0.000162
 295	2.9253e+01	11.7093	41.166673	0.000405	4.054347	1.373650	0.000162
 296	2.9352e+01	11.7574	41.287787	0.000304	3.040760	1.030238	0.000122
 297	2.9452e+01	11.7879	41.441198	0.000385	3.851630	1.304968	0.000154
 298	2.9552e+01	11.8328	41.618832	0.000446	4.459782	1.511015	0.000179
 299	2.9651e+01	11.8729	41.748021	0.000324	3.243478	1.098920	0.000130
 300	2.9750e+01	11.9162	41.909506	0.000405	4.054347	1.373650	0.000162
 301	2.9850e+01	11.9499	42.079066	0.000426	4.257065	1.442333	0.000170
 302	2.9950e+01	11.9948	42.196143	0.000294	2.939402	0.995896	0.000118
 303	3.0049e+01	12.0285	42.385888	0.000476	4.763858	1.614039	0.000191
 304	3.0148e+01	12.0606	42.547374	0.000405	4.054347	1.373650	0.000162
 305	3.0248e+01	12.1087	42.636191	0.000223	2.229891	0.755508	0.000089
 306	3.0348e+01	12.1505	42.834010	0.000497	4.966575	1.682721	0.000199
 307	3.0447e+01	12.1938	42.979347	0.000365	3.648913	1.236285	0.000146
 308	3.0547e+01	12.2291	43.161018	0.000456	4.561141	1.545356	0.000183
 309	3.0646e+01	12.2836	43.265984	0.000264	2.635326	0.892873	0.000105
 310	3.0745e+01	12.2997	43.407283	0.000355	3.547554	1.201944	0.000142
 311	3.0845e+01	12.3494	43.592992	0.000466	4.662499	1.579698	0.000187
 312	3.0945e+01	12.3831	43.730254	0.000345	3.446195	1.167603	0.000138
 313	3.1044e+01	12.4312	43.871554	0.000355	3.547554	1.201944	0.000142
 314	3.1143e+01	12.4761	44.057262	0.000466	4.662499	1.579698	0.000187
 315	3.1243e+01	12.5050	44.230859	0.000436	4.358423	1.476674	0.000174
 316	3.1343e+01	12.5515	44.351973	0.000304	3.040760	1.030238	0.000122
 317	3.1442e+01	12.5948	44.477124	0.000314	3.142119	1.064579	0.000126
 318	3.1541e+01	12.6237	44.642647	0.000416	4.155706	1.407991	0.000166
 319	3.1641e+01	12.6670	44.779910	0.000345	3.446195	1.167603	0.000138
 320	3.1741e+01	12.7151	44.945432	0.000416	4.155706	1.407991	0.000166
 321	3.1840e+01	12.7520	45.110955	0.000416	4.155706	1.407991	0.000166
 322	3.1939e+01	12.7922	45.280514	0.000426	4.257065	1.442333	0.000170
 323	3.2039e+01	12.8242	45.413740	0.000334	3.344836	1.133261	0.000134
 324	3.2139e+01	12.8676	45.555040	0.000355	3.547554	1.201944	0.000142
 325	3.2238e+01	12.9157	45.704414	0.000375	3.750271	1.270626	0.000150
 326	3.2337e+01	12.9526	45.878011	0.000436	4.358423	1.476674	0.000174
 327	3.2437e+01	12.9766	46.011236	0.000334	3.344836	1.133261	0.000134
 328	3.2536e+01	13.0328	46.136387	0.000314	3.142119	1.064579	0.000126
 329	3.2636e+01	13.0536	46.314021	0.000446	4.459782	1.511015	0.000179
 330	3.2736e+01	13.1162	46.451284	0.000345	3.446195	1.167603	0.000138
 331	3.2835e+01	13.1419	46.612769	0.000405	4.054347	1.373650	0.000162
 332	3.2934e+01	13.1756	46.754069	0.000355	3.547554	1.201944	0.000142
 333	3.3034e+01	13.2237	46.911517	0.000395	3.952989	1.339309	0.000158
 334	3.3133e+01	13.2622	47.036668	0.000314	3.142119	1.064579	0.000126
 335	3.3233e+01	13.3103	47.186043	0.000375	3.750271	1.270626	0.000150
 336	3.3333e+01	13.3440	47.351565	0.000416	4.155706	1.407991	0.000166
 337	3.3432e+01	13.3841	47.509013	0.000395	3.952989	1.339309	0.000158
 338	3.3532e+01	13.4194	47.650313	0.000355	3.547554	1.201944	0.000142
 339	3.3631e+01	13.4595	47.791613	0.000355	3.547554	1.201944	0.000142
 340	3.3730e+01	13.4996	47.977321	0.000466	4.662499	1.579698	0.000187
 341	3.3830e+01	13.5445	48.118621	0.000355	3.547554	1.201944	0.000142
 342	3.3929e+01	13.5846	48.255883	0.000345	3.446195	1.167603	0.000138
 343	3.4029e+01	13.6215	48.425443	0.000426	4.257065	1.442333	0.000170
 344	3.4129e+01	13.6616	48.546557	0.000304	3.040760	1.030238	0.000122
 345	3.4228e+01	13.7050	48.716117	0.000426	4.257065	1.442333	0.000170
 346	3.4328e+01	13.7451	48.833194	0.000294	2.939402	0.995896	0.000118
 347	3.4427e+01	13.7820	48.986605	0.000385	3.851630	1.304968	0.000154
 348	3.4526e+01	13.8237	49.160202	0.000436	4.358423	1.476674	0.000174
 349	3.4626e+01	13.8606	49.285353	0.000314	3.142119	1.064579	0.000126
 350	3.4725e+01	13.8991	49.418579	0.000334	3.344836	1.133261	0.000134
 351	3.4825e+01	13.9424	49.588138	0.000426	4.257065	1.442333	0.000170
 352	3.4925e+01	13.9745	49.777884	0.000476	4.763858	1.614039	0.000191
 353	3.5024e+01	14.0274	49.907072	0.000324	3.243478	1.098920	0.000130
 354	3.5123e+01	14.0627	50.064520	0.000395	3.952989	1.339309	0.000158
 355	3.5223e+01	14.1044	50.226006	0.000405	4.054347	1.373650	0.000162
 356	3.5322e+01	14.1317	50.375380	0.000375	3.750271	1.270626	0.000150
 357	3.5422e+01	14.1846	50.512642	0.000345	3.446195	1.167603	0.000138
 358	3.5522e+01	14.2135	50.637794	0.000314	3.142119	1.064579	0.000126
 359	3.5621e+01	14.2552	50.807353	0.000426	4.257065	1.442333	0.000170
 360	3.5721e+01	14.3017	50.968839	0.000405	4.054347	1.373650	0.000162
 361	3.5820e+01	14.3434	51.142436	0.000436	4.358423	1.476674	0.000174
 362	3.5919e+01	14.3723	51.239327	0.000243	2.432608	0.824190	0.000097
 363	3.6019e+01	14.4285	51.461369	0.000557	5.574727	1.888769	0.000223
 364	3.6118e+01	14.4573	51.594595	0.000334	3.344836	1.133261	0.000134
 365	3.6218e+01	14.4942	51.715709	0.000304	3.040760	1.030238	0.000122
 366	3.6318e+01	14.5343	51.885269	0.000426	4.257065	1.442333	0.000170
 367	3.6417e+01	14.5777	52.034643	0.000375	3.750271	1.270626	0.000150
 368	3.6517e+01	14.6162	52.192091	0.000395	3.952989	1.339309	0.000158
 369	3.6616e+01	14.6547	52.301093	0.000274	2.736684	0.927214	0.000110
 370	3.6715e+01	14.6964	52.506987	0.000517	5.169293	1.751404	0.000207
 371	3.6815e+01	14.7397	52.660399	0.000385	3.851630	1.304968	0.000154
 372	3.6914e+01	14.7718	52.785550	0.000314	3.142119	1.064579	0.000126
 373	3.7014e+01	14.8167	52.938961	0.000385	3.851630	1.304968	0.000154
 374	3.7114e+01	14.8552	53.104483	0.000416	4.155706	1.407991	0.000166
 375	3.7213e+01	14.8985	53.237709	0.000334	3.344836	1.133261	0.000134
 376	3.7313e+01	14.9338	53.383046	0.000365	3.648913	1.236285	0.000146
 377	3.7412e+01	14.9803	53.556643	0.000436	4.358423	1.476674	0.000174
 378	3.7511e+01	15.0108	53.697942	0.000355	3.547554	1.201944	0.000142
 379	3.7611e+01	15.0605	53.855391	0.000395	3.952989	1.339309	0.000158
 380	3.7711e+01	15.0926	54.000728	0.000365	3.648913	1.236285	0.000146
 381	3.7810e+01	15.1295	54.150102	0.000375	3.750271	1.270626	0.000150
 382	3.7910e+01	15.1760	54.347921	0.000497	4.966575	1.682721	0.000199
 383	3.8009e+01	15.2210	54.473073	0.000314	3.142119	1.064579	0.000126
 384	3.8108e+01	15.2514	54.634558	0.000405	4.054347	1.373650	0.000162
 385	3.8208e+01	15.2980	54.763746	0.000324	3.243478	1.098920	0.000130
 386	3.8307e+01	15.3349	54.977714	0.000537	5.372010	1.820086	0.000215
 387	3.8407e+01	15.3766	55.114977	0.000345	3.446195	1.167603	0.000138
 388	3.8507e+01	15.4119	55.248203	0.000334	3.344836	1.133261	0.000134
 389	3.8606e+01	15.4472	55.377391	0.000324	3.243478	1.098920	0.000130
 390	3.8706e+01	15.4969	55.518691	0.000355	3.547554	1.201944	0.000142
 391	3.8805e+01	15.5306	55.700362	0.000456	4.561141	1.545356	0.000183
 392	3.8904e+01	15.5675	55.821476	0.000304	3.040760	1.030238	0.000122
 393	3.9004e+01	15.6124	56.007184	0.000466	4.662499	1.579698	0.000187
 394	3.9103e+01	15.6621	56.120224	0.000284	2.838043	0.961555	0.000114
 395	3.9203e+01	15.7022	56.273635	0.000385	3.851630	1.304968	0.000154
 396	3.9303e+01	15.7263	56.467418	0.000487	4.865217	1.648380	0.000195
 397	3.9402e+01	15.7696	56.568346	0.000253	2.533967	0.858531	0.000101
 398	3.9502e+01	15.8161	56.717720	0.000375	3.750271	1.270626	0.000150
 399	3.9601e+01	15.8450	56.850945	0.000334	3.344836	1.133261	0.000134
 400	3.9700e+01	15.8883	57.052802	0.000507	5.067934	1.717063	0.000203
 401	3.9800e+01	15.9413	57.198139	0.000365	3.648913	1.236285	0.000146
 402	3.9900e+01	15.9637	57.343476	0.000365	3.648913	1.236285	0.000146
 403	3.9999e+01	16.0199	57.404033	0.000152	1.520380	0.515119	0.000061
 404	4.0099e+01	16.0552	57.597816	0.000487	4.865217	1.648380	0.000195
 405	4.0198e+01	16.0921	57.779487	0.000456	4.561141	1.545356	0.000183
 406	4.0297e+01	16.1338	57.892526	0.000284	2.838043	0.961555	0.000114
 407	4.0397e+01	16.1755	58.029789	0.000345	3.446195	1.167603	0.000138
 408	4.0496e+01	16.2076	58.146866	0.000294	2.939402	0.995896	0.000118
 409	4.0596e+01	16.2525	58.372946	0.000568	5.676086	1.923110	0.000227
 410	4.0696e+01	16.2894	58.506171	0.000334	3.344836	1.133261	0.000134
 411	4.0795e+01	16.3327	58.647471	0.000355	3.547554	1.201944	0.000142
 412	4.0895e+01	16.3696	58.788771	0.000355	3.547554	1.201944	0.000142
 413	4.0994e+01	16.4049	58.934108	0.000365	3.648913	1.236285	0.000146
 414	4.1093e+01	16.4562	59.075407	0.000355	3.547554	1.201944	0.000142
 415	4.1193e+01	16.4819	59.253041	0.000446	4.459782	1.511015	0.000179
 416	4.1292e+01	16.5220	59.390304	0.000345	3.446195	1.167603	0.000138
 417	4.1392e+01	16.5733	59.571975	0.000456	4.561141	1.545356	0.000183
 418	4.1492e+01	16.6118	59.697126	0.000314	3.142119	1.064579	0.000126
 419	4.1591e+01	16.6487	59.830352	0.000334	3.344836	1.133261	0.000134
 420	4.1691e+01	16.6969	59.987800	0.000395	3.952989	1.339309	0.000158
 421	4.1790e+01	16.7273	60.137174	0.000375	3.750271	1.270626	0.000150
 422	4.1889e+01	16.7739	60.270399	0.000334	3.344836	1.133261	0.000134
 423	4.1989e+01	16.8059	60.427848	0.000395	3.952989	1.339309	0.000158
 424	4.2089e+01	16.8444	60.573185	0.000365	3.648913	1.236285	0.000146
 425	4.2188e+01	16.8942	60.710447	0.000345	3.446195	1.167603	0.000138
 426	4.2288e+01	16.9263	60.839636	0.000324	3.243478	1.098920	0.000130
 427	4.2387e+01	16.9616	61.001121	0.000405	4.054347	1.373650	0.000162
 428	4.2486e+01	17.0017	61.162606	0.000405	4.054347	1.373650	0.000162
 429	4.2586e+01	17.0578	61.275646	0.000284	2.838043	0.961555	0.000114
 430	4.2685e+01	17.0867	61.445206	0.000426	4.257065	1.442333	0.000170
 431	4.2785e+01	17.1332	61.578431	0.000334	3.344836	1.133261	0.000134
 432	4.2885e+01	17.1685	61.719731	0.000355	3.547554	1.201944	0.000142
 433	4.2984e+01	17.2038	61.909477	0.000476	4.763858	1.614039	0.000191
 434	4.3084e+01	17.2487	62.010405	0.000253	2.533967	0.858531	0.000101
 435	4.3183e+01	17.2888	62.175928	0.000416	4.155706	1.407991	0.000166
 436	4.3282e+01	17.3321	62.329339	0.000385	3.851630	1.304968	0.000154
 437	4.3382e+01	17.3690	62.442378	0.000284	2.838043	0.961555	0.000114
 438	4.3481e+01	17.4156	62.603864	0.000405	4.054347	1.373650	0.000162
 439	4.3581e+01	17.4476	62.761312	0.000395	3.952989	1.339309	0.000158
 440	4.3681e+01	17.4926	62.902612	0.000355	3.547554	1.201944	0.000142
 441	4.3780e+01	17.5375	63.047949	0.000365	3.648913	1.236285	0.000146
 442	4.3880e+01	17.5680	63.156951	0.000274	2.736684	0.927214	0.000110
 443	4.3979e+01	17.6032	63.265954	0.000274	2.736684	0.927214	0.000110
 444	4.4078e+01	17.6482	63.415328	0.000375	3.750271	1.270626	0.000150
 445	4.4178e+01	17.6835	63.629296	0.000537	5.372010	1.820086	0.000215
 446	4.4278e+01	17.7204	63.714076	0.000213	2.128532	0.721166	0.000085
 447	4.4377e+01	17.7749	63.907859	0.000487	4.865217	1.648380	0.000195
 448	4.4477e+01	17.8182	64.016861	0.000274	2.736684	0.927214	0.000110
 449	4.4576e+01	17.8439	64.150087	0.000334	3.344836	1.133261	0.000134
 450	4.4675e+01	17.8936	64.287349	0.000345	3.446195	1.167603	0.000138
 451	4.4775e+01	17.9241	64.428649	0.000355	3.547554	1.201944	0.000142
 452	4.4874e+01	17.9626	64.553800	0.000314	3.142119	1.064579	0.000126
 453	4.4974e+01	17.9963	64.739509	0.000466	4.662499	1.579698	0.000187
 454	4.5074e+01	18.0396	64.852548	0.000284	2.838043	0.961555	0.000114
 455	4.5173e+01	18.0861	65.001923	0.000375	3.750271	1.270626	0.000150
 456	4.5273e+01	18.1166	65.135148	0.000334	3.344836	1.133261	0.000134
 457	4.5372e+01	18.1535	65.272411	0.000345	3.446195	1.167603	0.000138
 458	4.5471e+01	18.2096	65.417747	0.000365	3.648913	1.236285	0.000146
 459	4.5571e+01	18.2401	65.534824	0.000294	2.939402	0.995896	0.000118
 460	4.5670e+01	18.2786	65.688236	0.000385	3.851630	1.304968	0.000154
 461	4.5770e+01	18.3123	65.833572	0.000365	3.648913	1.236285	0.000146
 462	4.5870e+01	18.3701	65.982947	0.000375	3.750271	1.270626	0.000150
 463	4.5969e+01	18.4102	66.112135	0.000324	3.243478	1.098920	0.000130
 464	4.6069e+01	18.4407	66.241323	0.000324	3.243478	1.098920	0.000130
 465	4.6168e+01	18.4824	66.390697	0.000375	3.750271	1.270626	0.000150
 466	4.6267e+01	18.5241	66.519886	0.000324	3.243478	1.098920	0.000130
 467	4.6367e+01	18.5594	66.624851	0.000264	2.635326	0.892873	0.000105
 468	4.6467e+01	18.6027	66.782299	0.000395	3.952989	1.339309	0.000158
 469	4.6566e+01	18.6332	66.915525	0.000334	3.344836	1.133261	0.000134
 470	4.6666e+01	18.6877	67.081047	0.000416	4.155706	1.407991	0.000166
 471	4.6765e+01	18.7246	67.173902	0.000233	2.331250	0.789849	0.000093
 472	4.6864e+01	18.7711	67.351536	0.000446	4.459782	1.511015	0.000179
 473	4.6964e+01	18.7984	67.456501	0.000264	2.635326	0.892873	0.000105
 474	4.7063e+01	18.8337	67.634135	0.000446	4.459782	1.511015	0.000179
 475	4.7163e+01	18.8930	67.743138	0.000274	2.736684	0.927214	0.000110
 476	4.7263e+01	18.9139	67.896549	0.000385	3.851630	1.304968	0.000154
 477	4.7362e+01	18.9652	68.001514	0.000264	2.635326	0.892873	0.000105
 478	4.7462e+01	19.0005	68.163000	0.000405	4.054347	1.373650	0.000162
 479	4.7561e+01	19.0374	68.304300	0.000355	3.547554	1.201944	0.000142
 480	4.7660e+01	19.0872	68.469822	0.000416	4.155706	1.407991	0.000166
 481	4.7760e+01	19.1257	68.566713	0.000243	2.432608	0.824190	0.000097
 482	4.7859e+01	19.1594	68.720125	0.000385	3.851630	1.304968	0.000154
 483	4.7959e+01	19.1930	68.841239	0.000304	3.040760	1.030238	0.000122
 484	4.8059e+01	19.2412	69.002724	0.000405	4.054347	1.373650	0.000162
 485	4.8158e+01	19.2877	69.139987	0.000345	3.446195	1.167603	0.000138
 486	4.8258e+01	19.3182	69.297435	0.000395	3.952989	1.339309	0.000158
 487	4.8357e+01	19.3535	69.390289	0.000233	2.331250	0.789849	0.000093
 488	4.8456e+01	19.4096	69.495255	0.000264	2.635326	0.892873	0.000105
 489	4.8556e+01	19.4449	69.709223	0.000537	5.372010	1.820086	0.000215
 490	4.8656e+01	19.4802	69.842448	0.000334	3.344836	1.133261	0.000134
 491	4.8755e+01	19.5235	69.979711	0.000345	3.446195	1.167603	0.000138
 492	4.8855e+01	19.5508	70.100825	0.000304	3.040760	1.030238	0.000122
 493	4.8954e+01	19.6037	70.238088	0.000345	3.446195	1.167603	0.000138
 494	4.9053e+01	19.6342	70.387462	0.000375	3.750271	1.270626	0.000150
 495	4.9153e+01	19.6759	70.500501	0.000284	2.838043	0.961555	0.000114
 496	4.9252e+01	19.7128	70.629690	0.000324	3.243478	1.098920	0.000130
 497	4.9352e+01	19.7561	70.787138	0.000395	3.952989	1.339309	0.000158
 498	4.9452e+01	19.7962	70.916326	0.000324	3.243478	1.098920	0.000130
 499	4.9551e+01	19.8363	71.049552	0.000334	3.344836	1.133261	0.000134
 500	4.9651e+01	19.8716	71.227186	0.000446	4.459782	1.511015	0.000179
 501	4.9750e+01	19.9149	71.336188	0.000274	2.736684	0.927214	0.000110
 502	4.9849e+01	19.9551	71.449228	0.000284	2.838043	0.961555	0.000114
 503	4.9949e+01	20.0048	71.594565	0.000365	3.648913	1.236285	0.000146
 504	5.0048e+01	19.9631	71.485563	0.000274	2.736684	0.927214	-0.000110
 505	5.0148e+01	19.9085	71.408857	0.000193	1.925815	0.652484	-0.000077
 506	5.0248e+01	19.8748	71.279669	0.000324	3.243478	1.098920	-0.000130
 507	5.0347e+01	19.8331	71.186814	0.000233	2.331250	0.789849	-0.000093
 508	5.0447e+01	19.7946	71.089923	0.000243	2.432608	0.824190	-0.000097
 509	5.0546e+01	19.7529	70.968809	0.000304	3.040760	1.030238	-0.000122
 510	5.0645e+01	19.7128	70.888066	0.000203	2.027174	0.686825	-0.000081
 511	5.0745e+01	19.6743	70.762915	0.000314	3.142119	1.064579	-0.000126
 512	5.0844e+01	19.6422	70.653913	0.000274	2.736684	0.927214	-0.000110
 513	5.0944e+01	19.6005	70.540873	0.000284	2.838043	0.961555	-0.000114
 514	5.1044e+01	19.5588	70.464167	0.000193	1.925815	0.652484	-0.000077
 515	5.1143e+01	19.5075	70.343053	0.000304	3.040760	1.030238	-0.000122
 516	5.1242e+01	19.4690	70.213865	0.000324	3.243478	1.098920	-0.000130
 517	5.1342e+01	19.4497	70.121011	0.000233	2.331250	0.789849	-0.000093
 518	5.1441e+01	19.4064	69.999897	0.000304	3.040760	1.030238	-0.000122
 519	5.1541e+01	19.3519	69.882820	0.000294	2.939402	0.995896	-0.000118
 520	5.1641e+01	19.3230	69.765743	0.000294	2.939402	0.995896	-0.000118
 521	5.1740e+01	19.2781	69.640591	0.000314	3.142119	1.064579	-0.000126
 522	5.1840e+01	19.2412	69.551774	0.000223	2.229891	0.755508	-0.000089
 523	5.1939e+01	19.1962	69.458920	0.000233	2.331250	0.789849	-0.000093
 524	5.2038e+01	19.1674	69.309546	0.000375	3.750271	1.270626	-0.000150
 525	5.2138e+01	19.1112	69.196507	0.000284	2.838043	0.961555	-0.000114
 526	5.2237e+01	19.0807	69.131912	0.000162	1.621739	0.549460	-0.000065
 527	5.2337e+01	19.0406	68.962353	0.000426	4.257065	1.442333	-0.000170
 528	5.2437e+01	19.0021	68.865461	0.000243	2.432608	0.824190	-0.000097
 529	5.2536e+01	18.9540	68.756459	0.000274	2.736684	0.927214	-0.000110
 530	5.2636e+01	18.9267	68.667642	0.000223	2.229891	0.755508	-0.000089
 531	5.2735e+01	18.8802	68.566713	0.000253	2.533967	0.858531	-0.000101
 532	5.2834e+01	18.8449	68.429451	0.000345	3.446195	1.167603	-0.000138
 533	5.2934e+01	18.8064	68.292188	0.000345	3.446195	1.167603	-0.000138
 534	5.3033e+01	18.7647	68.203371	0.000223	2.229891	0.755508	-0.000089
 535	5.3133e+01	18.7118	68.070146	0.000334	3.344836	1.133261	-0.000134
 536	5.3233e+01	18.6877	67.953069	0.000294	2.939402	0.995896	-0.000118
 537	5.3332e+01	18.6524	67.848103	0.000264	2.635326	0.892873	-0.000105
 538	5.3431e+01	18.6075	67.743138	0.000264	2.635326	0.892873	-0.000105
 539	5.3531e+01	18.5642	67.642209	0.000253	2.533967	0.858531	-0.000101
 540	5.3630e+01	18.5177	67.541281	0.000253	2.533967	0.858531	-0.000101
 541	5.3730e+01	18.4856	67.379795	0.000405	4.054347	1.373650	-0.000162
 542	5.3830e+01	18.4407	67.278867	0.000253	2.533967	0.858531	-0.000101
 543	5.3929e+01	18.3989	67.177939	0.000253	2.533967	0.858531	-0.000101
 544	5.4029e+01	18.3620	67.036639	0.000355	3.547554	1.201944	-0.000142
 545	5.4128e+01	18.3268	66.891302	0.000365	3.648913	1.236285	-0.000146
 546	5.4227e+01	18.2754	66.778262	0.000284	2.838043	0.961555	-0.000114
 547	5.4327e+01	18.2449	66.701557	0.000193	1.925815	0.652484	-0.000077
 548	5.4426e+01	18.2048	66.564294	0.000345	3.446195	1.167603	-0.000138
 549	5.4526e+01	18.1599	66.479514	0.000213	2.128532	0.721166	-0.000085
 550	5.4626e+01	18.1230	66.342252	0.000345	3.446195	1.167603	-0.000138
 551	5.4725e+01	18.0813	66.253435	0.000223	2.229891	0.755508	-0.000089
 552	5.4825e+01	18.0508	66.128283	0.000314	3.142119	1.064579	-0.000126
 553	5.4924e+01	18.0027	65.986984	0.000355	3.547554	1.201944	-0.000142
 554	5.5023e+01	17.9674	65.890092	0.000243	2.432608	0.824190	-0.000097
 555	5.5123e+01	17.9305	65.756867	0.000334	3.344836	1.133261	-0.000134
 556	5.5222e+01	17.8728	65.659976	0.000243	2.432608	0.824190	-0.000097
 557	5.5322e+01	17.8455	65.510602	0.000375	3.750271	1.270626	-0.000150
 558	5.5422e+01	17.8070	65.409673	0.000253	2.533967	0.858531	-0.000101
 559	5.5521e+01	17.7621	65.284522	0.000314	3.142119	1.064579	-0.000126
 560	5.5620e+01	17.7316	65.187631	0.000243	2.432608	0.824190	-0.000097
 561	5.5720e+01	17.6947	65.066517	0.000304	3.040760	1.030238	-0.000122
 562	5.5819e+01	17.6450	64.937328	0.000324	3.243478	1.098920	-0.000130
 563	5.5919e+01	17.6016	64.824289	0.000284	2.838043	0.961555	-0.000114
 564	5.6019e+01	17.5615	64.678952	0.000365	3.648913	1.236285	-0.000146
 565	5.6118e+01	17.5343	64.565912	0.000284	2.838043	0.961555	-0.000114
 566	5.6218e+01	17.4893	64.416538	0.000375	3.750271	1.270626	-0.000150
 567	5.6317e+01	17.4460	64.323684	0.000233	2.331250	0.789849	-0.000093
 568	5.6416e+01	17.4107	64.166235	0.000395	3.952989	1.339309	-0.000158
 569	5.6516e+01	17.3594	64.077418	0.000223	2.229891	0.755508	-0.000089
 570	5.6615e+01	17.3273	63.948230	0.000324	3.243478	1.098920	-0.000130
 571	5.6715e+01	17.2872	63.790782	0.000395	3.952989	1.339309	-0.000158
 572	5.6815e+01	17.2551	63.726188	0.000162	1.621739	0.549460	-0.000065
 573	5.6914e+01	17.2022	63.560665	0.000416	4.155706	1.407991	-0.000166
 574	5.7014e+01	17.1653	63.451662	0.000274	2.736684	0.927214	-0.000110
 575	5.7113e+01	17.1284	63.326511	0.000314	3.142119	1.064579	-0.000126
 576	5.7212e+01	17.0899	63.229620	0.000243	2.432608	0.824190	-0.000097
 577	5.7312e+01	17.0626	63.072172	0.000395	3.952989	1.339309	-0.000158
 578	5.7411e+01	17.0113	62.983355	0.000223	2.229891	0.755508	-0.000089
 579	5.7511e+01	16.9696	62.825906	0.000395	3.952989	1.339309	-0.000158
 580	5.7611e+01	16.9279	62.720941	0.000264	2.635326	0.892873	-0.000105
 581	5.7710e+01	16.8894	62.587715	0.000334	3.344836	1.133261	-0.000134
 582	5.7809e+01	16.8509	62.462564	0.000314	3.142119	1.064579	-0.000126
 583	5.7909e+01	16.8075	62.369710	0.000233	2.331250	0.789849	-0.000093
 584	5.8008e+01	16.7706	62.220336	0.000375	3.750271	1.270626	-0.000150
 585	5.8108e+01	16.7354	62.107296	0.000284	2.838043	0.961555	-0.000114
 586	5.8208e+01	16.6872	61.970034	0.000345	3.446195	1.167603	-0.000138
 587	5.8307e+01	16.6519	61.873142	0.000243	2.432608	0.824190	-0.000097
 588	5.8407e+01	16.6102	61.735880	0.000345	3.446195	1.167603	-0.000138
 589	5.8506e+01	16.5669	61.626877	0.000274	2.736684	0.927214	-0.000110
 590	5.8605e+01	16.5236	61.505763	0.000304	3.040760	1.030238	-0.000122
 591	5.8705e+01	16.4899	61.348315	0.000395	3.952989	1.339309	-0.000158
 592	5.8804e+01	16.4562	61.202978	0.000365	3.648913	1.236285	-0.000146
 593	5.8904e+01	16.4113	61.118198	0.000213	2.128532	0.721166	-0.000085
 594	5.9004e+01	16.3712	61.005158	0.000284	2.838043	0.961555	-0.000114
 595	5.9103e+01	16.3279	60.867896	0.000345	3.446195	1.167603	-0.000138
 596	5.9203e+01	16.2926	60.722559	0.000365	3.648913	1.236285	-0.000146
 597	5.9302e+01	16.2525	60.641816	0.000203	2.027174	0.686825	-0.000081
 598	5.9401e+01	16.2092	60.516665	0.000314	3.142119	1.064579	-0.000126
 599	5.9501e+01	16.1691	60.383439	0.000334	3.344836	1.133261	-0.000134
 600	5.9600e+01	16.1257	60.262325	0.000304	3.040760	1.030238	-0.000122
 601	5.9700e+01	16.0921	60.108914	0.000385	3.851630	1.304968	-0.000154
 602	5.9800e+01	16.0423	59.995874	0.000284	2.838043	0.961555	-0.000114
 603	5.9899e+01	16.0215	59.846500	0.000375	3.750271	1.270626	-0.000150
 604	5.9998e+01	15.9669	59.713275	0.000334	3.344836	1.133261	-0.000134
 605	6.0098e+01	15.9381	59.608309	0.000264	2.635326	0.892873	-0.000105
 606	6.0197e+01	15.8963	59.454898	0.000385	3.851630	1.304968	-0.000154
 607	6.0297e+01	15.8546	59.362044	0.000233	2.331250	0.789849	-0.000093
 608	6.0397e+01	15.8097	59.200558	0.000405	4.054347	1.373650	-0.000162
 609	6.0496e+01	15.7776	59.087519	0.000284	2.838043	0.961555	-0.000114
 610	6.0596e+01	15.7311	58.934108	0.000385	3.851630	1.304968	-0.000154
 611	6.0695e+01	15.6942	58.857402	0.000193	1.925815	0.652484	-0.000077
 612	6.0794e+01	15.6573	58.716102	0.000355	3.547554	1.201944	-0.000142
 613	6.0894e+01	15.6092	58.590951	0.000314	3.142119	1.064579	-0.000126
 614	6.0993e+01	15.5691	58.441577	0.000375	3.750271	1.270626	-0.000150
 615	6.1093e+01	15.5354	58.328537	0.000284	2.838043	0.961555	-0.000114
 616	6.1193e+01	15.4969	58.199349	0.000324	3.243478	1.098920	-0.000130
 617	6.1292e+01	15.4536	58.074198	0.000314	3.142119	1.064579	-0.000126
 618	6.1392e+01	15.4103	57.884452	0.000476	4.763858	1.614039	-0.000191
 619	6.1491e+01	15.3750	57.791598	0.000233	2.331250	0.789849	-0.000093
 620	6.1590e+01	15.3381	57.650298	0.000355	3.547554	1.201944	-0.000142
 621	6.1690e+01	15.2915	57.533221	0.000294	2.939402	0.995896	-0.000118
 622	6.1789e+01	15.2546	57.395959	0.000345	3.446195	1.167603	-0.000138
 623	6.1889e+01	15.2210	57.278882	0.000294	2.939402	0.995896	-0.000118
 624	6.1989e+01	15.1712	57.097211	0.000456	4.561141	1.545356	-0.000183
 625	6.2088e+01	15.1407	56.996282	0.000253	2.533967	0.858531	-0.000101
 626	6.2188e+01	15.1006	56.859020	0.000345	3.446195	1.167603	-0.000138
 627	6.2287e+01	15.0589	56.705609	0.000385	3.851630	1.304968	-0.000154
 628	6.2386e+01	15.0236	56.560272	0.000365	3.648913	1.236285	-0.000146
 629	6.2486e+01	14.9707	56.471455	0.000223	2.229891	0.755508	-0.000089
 630	6.2586e+01	14.9370	56.318044	0.000385	3.851630	1.304968	-0.000154
 631	6.2685e+01	14.8937	56.205004	0.000284	2.838043	0.961555	-0.000114
 632	6.2785e+01	14.8648	56.043518	0.000405	4.054347	1.373650	-0.000162
 633	6.2884e+01	14.8151	55.906256	0.000345	3.446195	1.167603	-0.000138
 634	6.2983e+01	14.7750	55.801290	0.000264	2.635326	0.892873	-0.000105
 635	6.3083e+01	14.7381	55.655953	0.000365	3.648913	1.236285	-0.000146
 636	6.3182e+01	14.6932	55.518691	0.000345	3.446195	1.167603	-0.000138
 637	6.3282e+01	14.6611	55.385465	0.000334	3.344836	1.133261	-0.000134
 638	6.3382e+01	14.6194	55.223980	0.000405	4.054347	1.373650	-0.000162
 639	6.3481e+01	14.5793	55.094791	0.000324	3.243478	1.098920	-0.000130
 640	6.3581e+01	14.5408	55.018086	0.000193	1.925815	0.652484	-0.000077
 641	6.3680e+01	14.4958	54.812192	0.000517	5.169293	1.751404	-0.000207
 642	6.3779e+01	14.4557	54.699152	0.000284	2.838043	0.961555	-0.000114
 643	6.3879e+01	14.4253	54.545741	0.000385	3.851630	1.304968	-0.000154
 644	6.3978e+01	14.3787	54.456924	0.000223	2.229891	0.755508	-0.000089
 645	6.4078e+01	14.3434	54.287364	0.000426	4.257065	1.442333	-0.000170
 646	6.4177e+01	14.2985	54.142027	0.000365	3.648913	1.236285	-0.000146
 647	6.4277e+01	14.2616	54.041099	0.000253	2.533967	0.858531	-0.000101
 648	6.4376e+01	14.2167	53.895762	0.000365	3.648913	1.236285	-0.000146
 649	6.4476e+01	14.1814	53.778685	0.000294	2.939402	0.995896	-0.000118
 650	6.4576e+01	14.1445	53.629311	0.000375	3.750271	1.270626	-0.000150
 651	6.4675e+01	14.0980	53.475900	0.000385	3.851630	1.304968	-0.000154
 652	6.4775e+01	14.0643	53.374972	0.000253	2.533967	0.858531	-0.000101
 653	6.4874e+01	14.0194	53.213486	0.000405	4.054347	1.373650	-0.000162
 654	6.4974e+01	13.9809	53.092372	0.000304	3.040760	1.030238	-0.000122
 655	6.5073e+01	13.9376	52.975295	0.000294	2.939402	0.995896	-0.000118
 656	6.5172e+01	13.8927	52.813810	0.000405	4.054347	1.373650	-0.000162
 657	6.5272e+01	13.8558	52.680584	0.000334	3.344836	1.133261	-0.000134
 658	6.5371e+01	13.8205	52.551396	0.000324	3.243478	1.098920	-0.000130
 659	6.5471e+01	13.7804	52.450468	0.000253	2.533967	0.858531	-0.000101
 660	6.5570e+01	13.7483	52.309168	0.000355	3.547554	1.201944	-0.000142
 661	6.5670e+01	13.7066	52.111348	0.000497	4.966575	1.682721	-0.000199
 662	6.5769e+01	13.6552	52.002345	0.000274	2.736684	0.927214	-0.000110
 663	6.5869e+01	13.6344	51.852971	0.000375	3.750271	1.270626	-0.000150
 664	6.5969e+01	13.5814	51.743969	0.000274	2.736684	0.927214	-0.000110
 665	6.6068e+01	13.5349	51.570372	0.000436	4.358423	1.476674	-0.000174
 666	6.6168e+01	13.4964	51.461369	0.000274	2.736684	0.927214	-0.000110
 667	6.6267e+01	13.4595	51.320070	0.000355	3.547554	1.201944	-0.000142
 668	6.6367e+01	13.4226	51.150510	0.000426	4.257065	1.442333	-0.000170
 669	6.6466e+01	13.3857	51.033433	0.000294	2.939402	0.995896	-0.000118
 670	6.6566e+01	13.3344	50.871947	0.000405	4.054347	1.373650	-0.000162
 671	6.6665e+01	13.2927	50.795242	0.000193	1.925815	0.652484	-0.000077
 672	6.6764e+01	13.2590	50.645868	0.000375	3.750271	1.270626	-0.000150
 673	6.6864e+01	13.2253	50.488420	0.000395	3.952989	1.339309	-0.000158
 674	6.6963e+01	13.1820	50.355194	0.000334	3.344836	1.133261	-0.000134
 675	6.7063e+01	13.1435	50.242154	0.000284	2.838043	0.961555	-0.000114
 676	6.7162e+01	13.0970	50.072595	0.000426	4.257065	1.442333	-0.000170
 677	6.7262e+01	13.0681	49.939369	0.000334	3.344836	1.133261	-0.000134
 678	6.7362e+01	13.0264	49.789995	0.000375	3.750271	1.270626	-0.000150
 679	6.7461e+01	12.9847	49.664844	0.000314	3.142119	1.064579	-0.000126
 680	6.7561e+01	12.9494	49.547767	0.000294	2.939402	0.995896	-0.000118
 681	6.7660e+01	12.8996	49.398393	0.000375	3.750271	1.270626	-0.000150
 682	6.7760e+01	12.8643	49.249019	0.000375	3.750271	1.270626	-0.000150
 683	6.7859e+01	12.8258	49.131942	0.000294	2.939402	0.995896	-0.000118
 684	6.7959e+01	12.7873	48.974494	0.000395	3.952989	1.339309	-0.000158
 685	6.8058e+01	12.7408	48.849342	0.000314	3.142119	1.064579	-0.000126
 686	6.8157e+01	12.7087	48.720154	0.000324	3.243478	1.098920	-0.000130
 687	6.8257e+01	12.6718	48.590966	0.000324	3.243478	1.098920	-0.000130
 688	6.8356e+01	12.6205	48.437555	0.000385	3.851630	1.304968	-0.000154
 689	6.8456e+01	12.5964	48.332589	0.000264	2.635326	0.892873	-0.000105
 690	6.8555e+01	12.5595	48.163029	0.000426	4.257065	1.442333	-0.000170
 691	6.8655e+01	12.5146	48.045952	0.000294	2.939402	0.995896	-0.000118
 692	6.8754e+01	12.4761	47.880430	0.000416	4.155706	1.407991	-0.000166
 693	6.8854e+01	12.4328	47.755279	0.000314	3.142119	1.064579	-0.000126
 694	6.8954e+01	12.4071	47.593793	0.000405	4.054347	1.373650	-0.000162
 695	6.9053e+01	12.3526	47.496902	0.000243	2.432608	0.824190	-0.000097
 696	6.9153e+01	12.3077	47.291008	0.000517	5.169293	1.751404	-0.000207
 697	6.9252e+01	12.2676	47.214302	0.000193	1.925815	0.652484	-0.000077
 698	6.9352e+01	12.2307	47.036668	0.000446	4.459782	1.511015	-0.000179
 699	6.9451e+01	12.2002	46.919592	0.000294	2.939402	0.995896	-0.000118
 700	6.9550e+01	12.1456	46.790403	0.000324	3.243478	1.098920	-0.000130
 701	6.9650e+01	12.1055	46.645066	0.000365	3.648913	1.236285	-0.000146
 702	6.9749e+01	12.0719	46.523952	0.000304	3.040760	1.030238	-0.000122
 703	6.9849e+01	12.0269	46.378615	0.000365	3.648913	1.236285	-0.000146
 704	6.9948e+01	11.9836	46.245390	0.000334	3.344836	1.133261	-0.000134
 705	7.0048e+01	11.9563	46.124276	0.000304	3.040760	1.030238	-0.000122
 706	7.0147e+01	11.9162	45.974902	0.000375	3.750271	1.270626	-0.000150
 707	7.0247e+01	11.8729	45.809379	0.000416	4.155706	1.407991	-0.000166
 708	7.0347e+01	11.8264	45.680191	0.000324	3.243478	1.098920	-0.000130
 709	7.0446e+01	11.7879	45.551003	0.000324	3.243478	1.098920	-0.000130
 710	7.0546e+01	11.7526	45.425851	0.000314	3.142119	1.064579	-0.000126
 711	7.0645e+01	11.7125	45.268403	0.000395	3.952989	1.339309	-0.000158
 712	7.0745e+01	11.6740	45.163438	0.000264	2.635326	0.892873	-0.000105
 713	7.0844e+01	11.6323	44.993878	0.000426	4.257065	1.442333	-0.000170
 714	7.0944e+01	11.5874	44.884875	0.000274	2.736684	0.927214	-0.000110
 715	7.1043e+01	11.5553	44.727427	0.000395	3.952989	1.339309	-0.000158
 716	7.1142e+01	11.5136	44.622461	0.000264	2.635326	0.892873	-0.000105
 717	7.1242e+01	11.4671	44.465013	0.000395	3.952989	1.339309	-0.000158
 718	7.1341e+01	11.4334	44.351973	0.000284	2.838043	0.961555	-0.000114
 719	7.1441e+01	11.3949	44.198562	0.000385	3.851630	1.304968	-0.000154
 720	7.1540e+01	11.3580	44.053225	0.000365	3.648913	1.236285	-0.000146
 721	7.1640e+01	11.3147	43.907888	0.000365	3.648913	1.236285	-0.000146
 722	7.1740e+01	11.2762	43.770626	0.000345	3.446195	1.167603	-0.000138
 723	7.1839e+01	11.2328	43.637400	0.000334	3.344836	1.133261	-0.000134
 724	7.1939e+01	11.2024	43.467840	0.000426	4.257065	1.442333	-0.000170
 725	7.2038e+01	11.1542	43.346726	0.000304	3.040760	1.030238	-0.000122
 726	7.2138e+01	11.1109	43.193315	0.000385	3.851630	1.304968	-0.000154
 727	7.2237e+01	11.0788	43.052016	0.000355	3.547554	1.201944	-0.000142
 728	7.2337e+01	11.0291	42.930901	0.000304	3.040760	1.030238	-0.000122
 729	7.2436e+01	10.9922	42.789602	0.000355	3.547554	1.201944	-0.000142
 730	7.2535e+01	10.9505	42.599856	0.000476	4.763858	1.614039	-0.000191
 731	7.2635e+01	10.9152	42.535262	0.000162	1.621739	0.549460	-0.000065
 732	7.2734e+01	10.8879	42.377814	0.000395	3.952989	1.339309	-0.000158
 733	7.2834e+01	10.8430	42.232477	0.000365	3.648913	1.236285	-0.000146
 734	7.2933e+01	10.7965	42.111363	0.000304	3.040760	1.030238	-0.000122
 735	7.3033e+01	10.7532	41.945840	0.000416	4.155706	1.407991	-0.000166
 736	7.3132e+01	10.7131	41.784355	0.000405	4.054347	1.373650	-0.000162
 737	7.3232e+01	10.6730	41.667278	0.000294	2.939402	0.995896	-0.000118
 738	7.3332e+01	10.6489	41.554238	0.000284	2.838043	0.961555	-0.000114
 739	7.3431e+01	10.5960	41.412938	0.000355	3.547554	1.201944	-0.000142
 740	7.3531e+01	10.5526	41.247416	0.000416	4.155706	1.407991	-0.000166
 741	7.3630e+01	10.5302	41.073819	0.000436	4.358423	1.476674	-0.000174
 742	7.3730e+01	10.4740	40.944631	0.000324	3.243478	1.098920	-0.000130
 743	7.3829e+01	10.4403	40.815442	0.000324	3.243478	1.098920	-0.000130
 744	7.3928e+01	10.4034	40.653957	0.000405	4.054347	1.373650	-0.000162
 745	7.4028e+01	10.3553	40.492471	0.000405	4.054347	1.373650	-0.000162
 746	7.4127e+01	10.3232	40.379432	0.000284	2.838043	0.961555	-0.000114
 747	7.4227e+01	10.2799	40.209872	0.000426	4.257065	1.442333	-0.000170
 748	7.4326e+01	10.2382	40.104906	0.000264	2.635326	0.892873	-0.000105
 749	7.4426e+01	10.1933	39.939384	0.000416	4.155706	1.407991	-0.000166
 750	7.4525e+01	10.1612	39.806158	0.000334	3.344836	1.133261	-0.000134
 751	7.4625e+01	10.1099	39.705230	0.000253	2.533967	0.858531	-0.000101
 752	7.4725e+01	10.0730	39.495299	0.000527	5.270651	1.785745	-0.000211
 753	7.4824e+01	10.0409	39.358036	0.000345	3.446195	1.167603	-0.000138
 754	7.4924e+01	10.0008	39.228848	0.000324	3.243478	1.098920	-0.000130
 755	7.5023e+01	9.9559	39.083511	0.000365	3.648913	1.236285	-0.000146
 756	7.5123e+01	9.9318	38.946248	0.000345	3.446195	1.167603	-0.000138
 757	7.5222e+01	9.8580	38.796874	0.000375	3.750271	1.270626	-0.000150
 758	7.5322e+01	9.8291	38.675760	0.000304	3.040760	1.030238	-0.000122
 759	7.5421e+01	9.8019	38.486015	0.000476	4.763858	1.614039	-0.000191
 760	7.5520e+01	9.7569	38.389124	0.000243	2.432608	0.824190	-0.000097
 761	7.5620e+01	9.7200	38.219564	0.000426	4.257065	1.442333	-0.000170
 762	7.5719e+01	9.6831	38.094413	0.000314	3.142119	1.064579	-0.000126
 763	7.5819e+01	9.6414	37.961187	0.000334	3.344836	1.133261	-0.000134
 764	7.5918e+01	9.6078	37.771442	0.000476	4.763858	1.614039	-0.000191
 765	7.6018e+01	9.5612	37.662439	0.000274	2.736684	0.927214	-0.000110
 766	7.6118e+01	9.5275	37.513065	0.000375	3.750271	1.270626	-0.000150
 767	7.6217e+01	9.4858	37.351580	0.000405	4.054347	1.373650	-0.000162
 768	7.6317e+01	9.4393	37.218354	0.000334	3.344836	1.133261	-0.000134
 769	7.6416e+01	9.4008	37.077055	0.000355	3.547554	1.201944	-0.000142
 770	7.6516e+01	9.3655	36.919606	0.000395	3.952989	1.339309	-0.000158
 771	7.6615e+01	9.3174	36.774269	0.000365	3.648913	1.236285	-0.000146
 772	7.6715e+01	9.2885	36.665267	0.000274	2.736684	0.927214	-0.000110
 773	7.6814e+01	9.2404	36.483596	0.000456	4.561141	1.545356	-0.000183
 774	7.6913e+01	9.1987	36.350370	0.000334	3.344836	1.133261	-0.000134
 775	7.7013e+01	9.1538	36.205033	0.000365	3.648913	1.236285	-0.000146
 776	7.7112e+01	9.1265	36.071808	0.000334	3.344836	1.133261	-0.000134
 777	7.7212e+01	9.0784	35.894174	0.000446	4.459782	1.511015	-0.000179
 778	7.7311e+01	9.0415	35.720577	0.000436	4.358423	1.476674	-0.000174
 779	7.7411e+01	8.9997	35.583314	0.000345	3.446195	1.167603	-0.000138
 780	7.7510e+01	8.9564	35.462200	0.000304	3.040760	1.030238	-0.000122
 781	7.7610e+01	8.9243	35.288603	0.000436	4.358423	1.476674	-0.000174
 782	7.7710e+01	8.8874	35.171527	0.000294	2.939402	0.995896	-0.000118
 783	7.7809e+01	8.8441	34.997930	0.000436	4.358423	1.476674	-0.000174
 784	7.7909e+01	8.7976	34.892964	0.000264	2.635326	0.892873	-0.000105
 785	7.8008e+01	8.7575	34.699182	0.000487	4.865217	1.648380	-0.000195
 786	7.8108e+01	8.7270	34.586142	0.000284	2.838043	0.961555	-0.000114
 787	7.8207e+01	8.6821	34.420619	0.000416	4.155706	1.407991	-0.000166
 788	7.8306e+01	8.6516	34.259134	0.000405	4.054347	1.373650	-0.000162
 789	7.8406e+01	8.6019	34.101686	0.000395	3.952989	1.339309	-0.000158
 790	7.8505e+01	8.5666	33.944237	0.000395	3.952989	1.339309	-0.000158
 791	7.8605e+01	8.5217	33.746418	0.000497	4.966575	1.682721	-0.000199
 792	7.8704e+01	8.4880	33.625304	0.000304	3.040760	1.030238	-0.000122
 793	7.8804e+01	8.4447	33.479967	0.000365	3.648913	1.236285	-0.000146
 794	7.8903e+01	8.4110	33.375001	0.000264	2.635326	0.892873	-0.000105
 795	7.9003e+01	8.3677	33.209479	0.000416	4.155706	1.407991	-0.000166
 796	7.9103e+01	8.3292	33.027807	0.000456	4.561141	1.545356	-0.000183
 797	7.9202e+01	8.2827	32.894582	0.000334	3.344836	1.133261	-0.000134
 798	7.9302e+01	8.2377	32.757319	0.000345	3.446195	1.167603	-0.000138
 799	7.9401e+01	8.1992	32.571611	0.000466	4.662499	1.579698	-0.000187
 800	7.9501e+01	8.1607	32.410126	0.000405	4.054347	1.373650	-0.000162
 801	7.9600e+01	8.1254	32.260752	0.000375	3.750271	1.270626	-0.000150
 802	7.9700e+01	8.0853	32.103303	0.000395	3.952989	1.339309	-0.000158
 803	7.9799e+01	8.0500	31.937781	0.000416	4.155706	1.407991	-0.000166
 804	7.9898e+01	8.0051	31.752073	0.000466	4.662499	1.579698	-0.000187
 805	7.9998e+01	7.9682	31.667293	0.000213	2.128532	0.721166	-0.000085
 806	8.0097e+01	7.9153	31.525993	0.000355	3.547554	1.201944	-0.000142
 807	8.0197e+01	7.8784	31.348359	0.000446	4.459782	1.511015	-0.000179
 808	8.0296e+01	7.8415	31.186874	0.000405	4.054347	1.373650	-0.000162
 809	8.0396e+01	7.8062	30.989054	0.000497	4.966575	1.682721	-0.000199
 810	8.0496e+01	7.7597	30.859866	0.000324	3.243478	1.098920	-0.000130
 811	8.0595e+01	7.7260	30.775086	0.000213	2.128532	0.721166	-0.000085
 812	8.0695e+01	7.6843	30.557080	0.000547	5.473369	1.854428	-0.000219
 813	8.0794e+01	7.6361	30.435966	0.000304	3.040760	1.030238	-0.000122
 814	8.0894e+01	7.6089	30.266407	0.000426	4.257065	1.442333	-0.000170
 815	8.0993e+01	7.5672	30.121070	0.000365	3.648913	1.236285	-0.000146
 816	8.1093e+01	7.5287	30.008030	0.000284	2.838043	0.961555	-0.000114
 817	8.1192e+01	7.4870	29.794062	0.000537	5.372010	1.820086	-0.000215
 818	8.1291e+01	7.4452	29.656799	0.000345	3.446195	1.167603	-0.000138
 819	8.1391e+01	7.4116	29.499351	0.000395	3.952989	1.339309	-0.000158
 820	8.1490e+01	7.3731	29.333828	0.000416	4.155706	1.407991	-0.000166
 821	8.1590e+01	7.3233	29.240974	0.000233	2.331250	0.789849	-0.000093
 822	8.1689e+01	7.2944	29.067377	0.000436	4.358423	1.476674	-0.000174
 823	8.1789e+01	7.2415	28.893780	0.000436	4.358423	1.476674	-0.000174
 824	8.1888e+01	7.2014	28.768629	0.000314	3.142119	1.064579	-0.000126
 825	8.1988e+01	7.1741	28.570810	0.000497	4.966575	1.682721	-0.000199
 826	8.2088e+01	7.1324	28.449696	0.000304	3.040760	1.030238	-0.000122
 827	8.2187e+01	7.0811	28.272062	0.000446	4.459782	1.511015	-0.000179
 828	8.2287e+01	7.0490	28.150948	0.000304	3.040760	1.030238	-0.000122
 829	8.2386e+01	7.0121	27.993499	0.000395	3.952989	1.339309	-0.000158
 830	8.2486e+01	6.9768	27.856237	0.000345	3.446195	1.167603	-0.000138
 831	8.2585e+01	6.9319	27.638231	0.000547	5.473369	1.854428	-0.000219
 832	8.2684e+01	6.8918	27.525191	0.000284	2.838043	0.961555	-0.000114
 833	8.2784e+01	6.8485	27.363706	0.000405	4.054347	1.373650	-0.000162
 834	8.2883e+01	6.8052	27.222406	0.000355	3.547554	1.201944	-0.000142
 835	8.2983e+01	6.7747	27.068995	0.000385	3.851630	1.304968	-0.000154
 836	8.3082e+01	6.7362	26.879250	0.000476	4.763858	1.614039	-0.000191
 837	8.3182e+01	6.6880	26.770247	0.000274	2.736684	0.927214	-0.000110
 838	8.3281e+01	6.6528	26.592613	0.000446	4.459782	1.511015	-0.000179
 839	8.3381e+01	6.6126	26.463425	0.000324	3.243478	1.098920	-0.000130
 840	8.3481e+01	6.5774	26.318088	0.000365	3.648913	1.236285	-0.000146
 841	8.3580e+01	6.5212	26.140454	0.000446	4.459782	1.511015	-0.000179
 842	8.3680e+01	6.4923	25.962820	0.000446	4.459782	1.511015	-0.000179
 843	8.3779e+01	6.4570	25.861892	0.000253	2.533967	0.858531	-0.000101
 844	8.3879e+01	6.4185	25.684258	0.000446	4.459782	1.511015	-0.000179
 845	8.3978e+01	6.3656	25.482401	0.000507	5.067934	1.717063	-0.000203
 846	8.4078e+01	6.3271	25.365324	0.000294	2.939402	0.995896	-0.000118
 847	8.4177e+01	6.2902	25.203838	0.000405	4.054347	1.373650	-0.000162
 848	8.4276e+01	6.2517	25.026204	0.000446	4.459782	1.511015	-0.000179
 849	8.4376e+01	6.2100	24.880868	0.000365	3.648913	1.236285	-0.000146
 850	8.4475e+01	6.1843	24.731494	0.000375	3.750271	1.270626	-0.000150
 851	8.4575e+01	6.1394	24.594231	0.000345	3.446195	1.167603	-0.000138
 852	8.4674e+01	6.0961	24.444857	0.000375	3.750271	1.270626	-0.000150
 853	8.4774e+01	6.0624	24.303557	0.000355	3.547554	1.201944	-0.000142
 854	8.4874e+01	6.0127	24.113812	0.000476	4.763858	1.614039	-0.000191
 855	8.4973e+01	5.9774	23.976549	0.000345	3.446195	1.167603	-0.000138
 856	8.5073e+01	5.9357	23.819101	0.000395	3.952989	1.339309	-0.000158
 857	8.5172e+01	5.8940	23.673764	0.000365	3.648913	1.236285	-0.000146
 858	8.5272e+01	5.8571	23.484019	0.000476	4.763858	1.614039	-0.000191
 859	8.5371e+01	5.8169	23.338682	0.000365	3.648913	1.236285	-0.000146
 860	8.5471e+01	5.7688	23.209493	0.000324	3.243478	1.098920	-0.000130
 861	8.5570e+01	5.7335	23.056082	0.000385	3.851630	1.304968	-0.000154
 862	8.5669e+01	5.7014	22.870374	0.000466	4.662499	1.579698	-0.000187
 863	8.5769e+01	5.6517	22.708889	0.000405	4.054347	1.373650	-0.000162
 864	8.5868e+01	5.6164	22.543366	0.000416	4.155706	1.407991	-0.000166
 865	8.5968e+01	5.5763	22.418215	0.000314	3.142119	1.064579	-0.000126
 866	8.6067e+01	5.5394	22.240581	0.000446	4.459782	1.511015	-0.000179
 867	8.6167e+01	5.4993	22.127541	0.000284	2.838043	0.961555	-0.000114
 868	8.6266e+01	5.4576	21.949907	0.000446	4.459782	1.511015	-0.000179
 869	8.6366e+01	5.4223	21.772273	0.000446	4.459782	1.511015	-0.000179
 870	8.6466e+01	5.3726	21.647122	0.000314	3.142119	1.064579	-0.000126
 871	8.6565e+01	5.3389	21.477562	0.000426	4.257065	1.442333	-0.000170
 872	8.6665e+01	5.2988	21.344337	0.000334	3.344836	1.133261	-0.000134
 873	8.6764e+01	5.2651	21.162666	0.000456	4.561141	1.545356	-0.000183
 874	8.6864e+01	5.2266	20.997143	0.000416	4.155706	1.407991	-0.000166
 875	8.6963e+01	5.1801	20.871992	0.000314	3.142119	1.064579	-0.000126
 876	8.7063e+01	5.1335	20.714543	0.000395	3.952989	1.339309	-0.000158
 877	8.7162e+01	5.0999	20.540947	0.000436	4.358423	1.476674	-0.000174
 878	8.7261e+01	5.0614	20.375424	0.000416	4.155706	1.407991	-0.000166
 879	8.7361e+01	5.0196	20.242199	0.000334	3.344836	1.133261	-0.000134
 880	8.7460e+01	4.9844	20.117047	0.000314	3.142119	1.064579	-0.000126
 881	8.7560e+01	4.9330	19.939413	0.000446	4.459782	1.511015	-0.000179
 882	8.7659e+01	4.8977	19.806188	0.000334	3.344836	1.133261	-0.000134
 883	8.7759e+01	4.8560	19.640665	0.000416	4.155706	1.407991	-0.000166
 884	8.7859e+01	4.8127	19.503403	0.000345	3.446195	1.167603	-0.000138
 885	8.7958e+01	4.7822	19.358066	0.000365	3.648913	1.236285	-0.000146
 886	8.8058e+01	4.7421	19.176395	0.000456	4.561141	1.545356	-0.000183
 887	8.8157e+01	4.7020	19.031058	0.000365	3.648913	1.236285	-0.000146
 888	8.8257e+01	4.6667	18.897832	0.000334	3.344836	1.133261	-0.000134
 889	8.8356e+01	4.6154	18.764607	0.000334	3.344836	1.133261	-0.000134
 890	8.8456e+01	4.5833	18.562750	0.000507	5.067934	1.717063	-0.000203
 891	8.8555e+01	4.5464	18.433562	0.000324	3.243478	1.098920	-0.000130
 892	8.8654e+01	4.5063	18.259965	0.000436	4.358423	1.476674	-0.000174
 893	8.8754e+01	4.4517	18.082331	0.000446	4.459782	1.511015	-0.000179
 894	8.8853e+01	4.4132	17.928920	0.000385	3.851630	1.304968	-0.000154
 895	8.8953e+01	4.3731	17.767434	0.000405	4.054347	1.373650	-0.000162
 896	8.9052e+01	4.3459	17.626135	0.000355	3.547554	1.201944	-0.000142
 897	8.9152e+01	4.2993	17.496946	0.000324	3.243478	1.098920	-0.000130
 898	8.9251e+01	4.2624	17.303164	0.000487	4.865217	1.648380	-0.000195
 899	8.9351e+01	4.2239	17.169938	0.000334	3.344836	1.133261	-0.000134
 900	8.9451e+01	4.1870	17.000379	0.000426	4.257065	1.442333	-0.000170
 901	8.9550e+01	4.1405	16.851005	0.000375	3.750271	1.270626	-0.000150
 902	8.9650e+01	4.1004	16.693556	0.000395	3.952989	1.339309	-0.000158
 903	8.9749e+01	4.0587	16.548219	0.000365	3.648913	1.236285	-0.000146
 904	8.9849e+01	4.0202	16.374623	0.000436	4.358423	1.476674	-0.000174
 905	8.9948e+01	3.9865	16.201026	0.000436	4.358423	1.476674	-0.000174
 906	9.0047e+01	3.9416	16.059726	0.000355	3.547554	1.201944	-0.000142
 907	9.0147e+01	3.9079	15.878055	0.000456	4.561141	1.545356	-0.000183
 908	9.0246e+01	3.8598	15.728681	0.000375	3.750271	1.270626	-0.000150
 909	9.0346e+01	3.8181	15.611604	0.000294	2.939402	0.995896	-0.000118
 910	9.0445e+01	3.7812	15.429933	0.000456	4.561141	1.545356	-0.000183
 911	9.0545e+01	3.7443	15.296707	0.000334	3.344836	1.133261	-0.000134
 912	9.0644e+01	3.7042	15.127148	0.000426	4.257065	1.442333	-0.000170
 913	9.0744e+01	3.6641	14.969699	0.000395	3.952989	1.339309	-0.000158
 914	9.0844e+01	3.6256	14.804177	0.000416	4.155706	1.407991	-0.000166
 915	9.0943e+01	3.5839	14.646728	0.000395	3.952989	1.339309	-0.000158
 916	9.1043e+01	3.5438	14.501392	0.000365	3.648913	1.236285	-0.000146
 917	9.1142e+01	3.5052	14.311646	0.000476	4.763858	1.614039	-0.000191
 918	9.1242e+01	3.4635	14.186495	0.000314	3.142119	1.064579	-0.000126
 919	9.1341e+01	3.4186	14.004824	0.000456	4.561141	1.545356	-0.000183
 920	9.1441e+01	3.3865	13.871598	0.000334	3.344836	1.133261	-0.000134
 921	9.1540e+01	3.3416	13.689927	0.000456	4.561141	1.545356	-0.000183
 922	9.1639e+01	3.3095	13.552665	0.000345	3.446195	1.167603	-0.000138
 923	9.1739e+01	3.2726	13.391179	0.000405	4.054347	1.373650	-0.000162
 924	9.1838e+01	3.2325	13.209508	0.000456	4.561141	1.545356	-0.000183
 925	9.1938e+01	3.1876	13.043986	0.000416	4.155706	1.407991	-0.000166
 926	9.2037e+01	3.1427	12.898649	0.000365	3.648913	1.236285	-0.000146
 927	9.2137e+01	3.1058	12.789646	0.000274	2.736684	0.927214	-0.000110
 928	9.2237e+01	3.0705	12.579715	0.000527	5.270651	1.785745	-0.000211
 929	9.2336e+01	3.0320	12.414192	0.000416	4.155706	1.407991	-0.000166
 930	9.2436e+01	2.9839	12.268856	0.000365	3.648913	1.236285	-0.000146
 931	9.2535e+01	2.9406	12.115444	0.000385	3.851630	1.304968	-0.000154
 932	9.2635e+01	2.9053	11.994330	0.000304	3.040760	1.030238	-0.000122
 933	9.2734e+01	2.8716	11.820733	0.000436	4.358423	1.476674	-0.000174
 934	9.2834e+01	2.8267	11.626951	0.000487	4.865217	1.648380	-0.000195
 935	9.2933e+01	2.7866	11.509874	0.000294	2.939402	0.995896	-0.000118
 936	9.3032e+01	2.7464	11.364537	0.000365	3.648913	1.236285	-0.000146
 937	9.3132e+01	2.7031	11.158643	0.000517	5.169293	1.751404	-0.000207
 938	9.3231e+01	2.6598	11.001195	0.000395	3.952989	1.339309	-0.000158
 939	9.3331e+01	2.6309	10.831635	0.000426	4.257065	1.442333	-0.000170
 940	9.3430e+01	2.5924	10.706484	0.000314	3.142119	1.064579	-0.000126
 941	9.3530e+01	2.5459	10.524813	0.000456	4.561141	1.545356	-0.000183
 942	9.3629e+01	2.5074	10.331030	0.000487	4.865217	1.648380	-0.000195
 943	9.3729e+01	2.4609	10.185693	0.000365	3.648913	1.236285	-0.000146
 944	9.3829e+01	2.4256	10.032282	0.000385	3.851630	1.304968	-0.000154
 945	9.3928e+01	2.3727	9.878871	0.000385	3.851630	1.304968	-0.000154
 946	9.4028e+01	2.3470	9.693163	0.000466	4.662499	1.579698	-0.000187
 947	9.4127e+01	2.3101	9.539752	0.000385	3.851630	1.304968	-0.000154
 948	9.4227e+01	2.2668	9.358081	0.000456	4.561141	1.545356	-0.000183
 949	9.4326e+01	2.2187	9.208707	0.000375	3.750271	1.270626	-0.000150
 950	9.4425e+01	2.1962	9.087593	0.000304	3.040760	1.030238	-0.000122
 951	9.4525e+01	2.1545	8.897847	0.000476	4.763858	1.614039	-0.000191
 952	9.4624e+01	2.1112	8.728287	0.000426	4.257065	1.442333	-0.000170
 953	9.4724e+01	2.0759	8.586988	0.000355	3.547554	1.201944	-0.000142
 954	9.4823e+01	2.0342	8.381094	0.000517	5.169293	1.751404	-0.000207
 955	9.4923e+01	1.9860	8.255943	0.000314	3.142119	1.064579	-0.000126
 956	9.5022e+01	1.9427	8.094457	0.000405	4.054347	1.373650	-0.000162
 957	9.5122e+01	1.9090	7.920860	0.000436	4.358423	1.476674	-0.000174
 958	9.5222e+01	1.8657	7.755338	0.000416	4.155706	1.407991	-0.000166
 959	9.5321e+01	1.8352	7.581741	0.000436	4.358423	1.476674	-0.000174
 960	9.5421e+01	1.7935	7.436404	0.000365	3.648913	1.236285	-0.000146
 961	9.5520e+01	1.7582	7.254733	0.000456	4.561141	1.545356	-0.000183
 962	9.5620e+01	1.7117	7.073062	0.000456	4.561141	1.545356	-0.000183
 963	9.5719e+01	1.6764	6.887354	0.000466	4.662499	1.579698	-0.000187
 964	9.5819e+01	1.6155	6.754128	0.000334	3.344836	1.133261	-0.000134
 965	9.5918e+01	1.5930	6.588606	0.000416	4.155706	1.407991	-0.000166
 966	9.6017e+01	1.5561	6.455380	0.000334	3.344836	1.133261	-0.000134
 967	9.6117e+01	1.5192	6.249486	0.000517	5.169293	1.751404	-0.000207
 968	9.6216e+01	1.4759	6.092038	0.000395	3.952989	1.339309	-0.000158
 969	9.6316e+01	1.4278	5.926515	0.000416	4.155706	1.407991	-0.000166
 970	9.6415e+01	1.3925	5.789253	0.000345	3.446195	1.167603	-0.000138
 971	9.6515e+01	1.3588	5.591433	0.000497	4.966575	1.682721	-0.000199
 972	9.6615e+01	1.3139	5.462245	0.000324	3.243478	1.098920	-0.000130
 973	9.6714e+01	1.2786	5.252314	0.000527	5.270651	1.785745	-0.000211
 974	9.6814e+01	1.2321	5.127162	0.000314	3.142119	1.064579	-0.000126
 975	9.6913e+01	1.2000	4.933380	0.000487	4.865217	1.648380	-0.000195
 976	9.7013e+01	1.1583	4.796117	0.000345	3.446195	1.167603	-0.000138
 977	9.7112e+01	1.1053	4.602335	0.000487	4.865217	1.648380	-0.000195
 978	9.7212e+01	1.0748	4.452961	0.000375	3.750271	1.270626	-0.000150
 979	9.7311e+01	1.0331	4.287438	0.000416	4.155706	1.407991	-0.000166
 980	9.7410e+01	0.9930	4.154213	0.000334	3.344836	1.133261	-0.000134
 981	9.7510e+01	0.9513	3.988690	0.000416	4.155706	1.407991	-0.000166
 982	9.7609e+01	0.9208	3.819130	0.000426	4.257065	1.442333	-0.000170
 983	9.7709e+01	0.8727	3.653608	0.000416	4.155706	1.407991	-0.000166
 984	9.7808e+01	0.8326	3.492122	0.000405	4.054347	1.373650	-0.000162
 985	9.7908e+01	0.7909	3.334674	0.000395	3.952989	1.339309	-0.000158
 986	9.8007e+01	0.7508	3.181263	0.000385	3.851630	1.304968	-0.000154
 987	9.8107e+01	0.7043	2.999592	0.000456	4.561141	1.545356	-0.000183
 988	9.8207e+01	0.6802	2.825995	0.000436	4.358423	1.476674	-0.000174
 989	9.8306e+01	0.6385	2.644324	0.000456	4.561141	1.545356	-0.000183
 990	9.8406e+01	0.5952	2.478801	0.000416	4.155706	1.407991	-0.000166
 991	9.8505e+01	0.5583	2.333464	0.000365	3.648913	1.236285	-0.000146
 992	9.8605e+01	0.5166	2.163905	0.000426	4.257065	1.442333	-0.000170
 993	9.8704e+01	0.4749	1.994345	0.000426	4.257065	1.442333	-0.000170
 994	9.8803e+01	0.4347	1.840934	0.000385	3.851630	1.304968	-0.000154
 995	9.8903e+01	0.3930	1.655226	0.000466	4.662499	1.579698	-0.000187
 996	9.9002e+01	0.3481	1.513926	0.000355	3.547554	1.201944	-0.000142
 997	9.9102e+01	0.3192	1.348403	0.000416	4.155706	1.407991	-0.000166
 998	9.9201e+01	0.2727	1.203066	0.000365	3.648913	1.236285	-0.000146
 999	9.9301e+01	0.2294	1.025432	0.000446	4.459782	1.511015	-0.000179
1000	9.9400e+01	0.1941	0.839724	0.000466	4.662499	1.579698	-0.000187
1001	9.9500e+01	0.1604	0.718610	0.000304	3.040760	1.030238	-0.000122
1002	9.9600e+01	0.1171	0.524828	0.000487	4.865217	1.648380	-0.000195
1003	9.9699e+01	0.0770	0.359305	0.000416	4.155706	1.407991	-0.000166
1004	9.9799e+01	0.0369	0.185708	0.000436	4.358423	1.476674	-0.000174
1005	9.9898e+01	0.0080	0.084780	0.000253	2.533967	0.858531	-0.000101
1006	9.9998e+01	-0.0385	-0.096891	0.000456	4.561141	1.545356	-0.000183
1007	1.0010e+02	-0.0658	-0.254340	0.000395	3.952989	1.339309	-0.000158
1008	1.0020e+02	-0.1155	-0.452159	0.000497	4.966575	1.682721	-0.000199
1009	1.0030e+02	-0.1524	-0.597496	0.000365	3.648913	1.236285	-0.000146
1010	1.0040e+02	-0.1909	-0.754944	0.000395	3.952989	1.339309	-0.000158
1011	1.0050e+02	-0.2214	-0.904318	0.000375	3.750271	1.270626	-0.000150
1012	1.0059e+02	-0.2631	-1.090027	0.000466	4.662499	1.579698	-0.000187
1013	1.0069e+02	-0.3144	-1.215178	0.000314	3.142119	1.064579	-0.000126
1014	1.0079e+02	-0.3497	-1.368589	0.000385	3.851630	1.304968	-0.000154
1015	1.0089e+02	-0.3882	-1.546223	0.000446	4.459782	1.511015	-0.000179
1016	1.0099e+02	-0.4412	-1.740006	0.000487	4.865217	1.648380	-0.000195
1017	1.0109e+02	-0.4749	-1.905528	0.000416	4.155706	1.407991	-0.000166
1018	1.0119e+02	-0.5134	-2.026642	0.000304	3.040760	1.030238	-0.000122
1019	1.0129e+02	-0.5470	-2.216388	0.000476	4.763858	1.614039	-0.000191
1020	1.0139e+02	-0.5920	-2.373836	0.000395	3.952989	1.339309	-0.000158
1021	1.0149e+02	-0.6369	-2.539358	0.000416	4.155706	1.407991	-0.000166
1022	1.0159e+02	-0.6722	-2.749289	0.000527	5.270651	1.785745	-0.000211
1023	1.0169e+02	-0.7091	-2.866366	0.000294	2.939402	0.995896	-0.000118
1024	1.0179e+02	-0.7460	-3.011703	0.000365	3.648913	1.236285	-0.000146
1025	1.0189e+02	-0.7909	-3.189337	0.000446	4.459782	1.511015	-0.000179
1026	1.0199e+02	-0.8262	-3.358897	0.000426	4.257065	1.442333	-0.000170
1027	1.0209e+02	-0.8695	-3.512308	0.000385	3.851630	1.304968	-0.000154
1028	1.0219e+02	-0.9096	-3.673794	0.000405	4.054347	1.373650	-0.000162
1029	1.0229e+02	-0.9449	-3.835279	0.000405	4.054347	1.373650	-0.000162
1030	1.0239e+02	-0.9930	-4.020987	0.000466	4.662499	1.579698	-0.000187
1031	1.0248e+02	-1.0299	-4.154213	0.000334	3.344836	1.133261	-0.000134
1032	1.0258e+02	-1.0668	-4.339921	0.000466	4.662499	1.579698	-0.000187
1033	1.0268e+02	-1.1149	-4.505443	0.000416	4.155706	1.407991	-0.000166
1034	1.0278e+02	-1.1567	-4.650780	0.000365	3.648913	1.236285	-0.000146
1035	1.0288e+02	-1.1984	-4.820340	0.000426	4.257065	1.442333	-0.000170
1036	1.0298e+02	-1.2272	-4.993937	0.000436	4.358423	1.476674	-0.000174
1037	1.0308e+02	-1.2722	-5.111014	0.000294	2.939402	0.995896	-0.000118
1038	1.0318e+02	-1.3058	-5.288648	0.000446	4.459782	1.511015	-0.000179
1039	1.0328e+02	-1.3556	-5.446096	0.000395	3.952989	1.339309	-0.000158
1040	1.0338e+02	-1.3941	-5.599507	0.000385	3.851630	1.304968	-0.000154
1041	1.0348e+02	-1.4278	-5.769067	0.000426	4.257065	1.442333	-0.000170
1042	1.0358e+02	-1.4631	-5.934590	0.000416	4.155706	1.407991	-0.000166
1043	1.0368e+02	-1.5064	-6.079926	0.000365	3.648913	1.236285	-0.000146
1044	1.0378e+02	-1.5417	-6.221226	0.000355	3.547554	1.201944	-0.000142
1045	1.0388e+02	-1.5930	-6.366563	0.000365	3.648913	1.236285	-0.000146
1046	1.0398e+02	-1.6299	-6.536123	0.000426	4.257065	1.442333	-0.000170
1047	1.0408e+02	-1.6748	-6.713757	0.000446	4.459782	1.511015	-0.000179
1048	1.0418e+02	-1.6973	-6.875242	0.000405	4.054347	1.373650	-0.000162
1049	1.0428e+02	-1.7422	-7.032690	0.000395	3.952989	1.339309	-0.000158
1050	1.0438e+02	-1.7839	-7.161879	0.000324	3.243478	1.098920	-0.000130
1051	1.0447e+02	-1.8304	-7.335476	0.000436	4.358423	1.476674	-0.000174
1052	1.0457e+02	-1.8673	-7.468701	0.000334	3.344836	1.133261	-0.000134
1053	1.0467e+02	-1.9074	-7.658446	0.000476	4.763858	1.614039	-0.000191
1054	1.0477e+02	-1.9427	-7.815895	0.000395	3.952989	1.339309	-0.000158
1055	1.0487e+02	-1.9844	-7.965269	0.000375	3.750271	1.270626	-0.000150
1056	1.0497e+02	-2.0342	-8.110606	0.000365	3.648913	1.236285	-0.000146
1057	1.0507e+02	-2.0614	-8.312462	0.000507	5.067934	1.717063	-0.000203
1058	1.0517e+02	-2.1048	-8.425502	0.000284	2.838043	0.961555	-0.000114
1059	1.0527e+02	-2.1433	-8.603136	0.000446	4.459782	1.511015	-0.000179
1060	1.0537e+02	-2.1818	-8.776733	0.000436	4.358423	1.476674	-0.000174
1061	1.0547e+02	-2.2315	-8.897847	0.000304	3.040760	1.030238	-0.000122
1062	1.0557e+02	-2.2652	-9.079518	0.000456	4.561141	1.545356	-0.000183
1063	1.0567e+02	-2.3021	-9.224855	0.000365	3.648913	1.236285	-0.000146
1064	1.0577e+02	-2.3454	-9.390378	0.000416	4.155706	1.407991	-0.000166
1065	1.0587e+02	-2.3887	-9.600309	0.000527	5.270651	1.785745	-0.000211
1066	1.0597e+02	-2.4160	-9.713349	0.000284	2.838043	0.961555	-0.000114
1067	1.0607e+02	-2.4689	-9.866760	0.000385	3.851630	1.304968	-0.000154
1068	1.0617e+02	-2.5106	-10.052468	0.000466	4.662499	1.579698	-0.000187
1069	1.0627e+02	-2.5411	-10.213953	0.000405	4.054347	1.373650	-0.000162
1070	1.0637e+02	-2.5844	-10.331030	0.000294	2.939402	0.995896	-0.000118
1071	1.0647e+02	-2.6277	-10.528850	0.000497	4.966575	1.682721	-0.000199
1072	1.0656e+02	-2.6566	-10.678224	0.000375	3.750271	1.270626	-0.000150
1073	1.0666e+02	-2.6967	-10.795301	0.000294	2.939402	0.995896	-0.000118
1074	1.0676e+02	-2.7481	-10.944675	0.000375	3.750271	1.270626	-0.000150
1075	1.0686e+02	-2.7849	-11.154606	0.000527	5.270651	1.785745	-0.000211
1076	1.0696e+02	-2.8170	-11.291869	0.000345	3.446195	1.167603	-0.000138
1077	1.0706e+02	-2.8652	-11.465465	0.000436	4.358423	1.476674	-0.000174
1078	1.0716e+02	-2.8988	-11.630988	0.000416	4.155706	1.407991	-0.000166
1079	1.0726e+02	-2.9486	-11.739991	0.000274	2.736684	0.927214	-0.000110
1080	1.0736e+02	-2.9887	-11.953959	0.000537	5.372010	1.820086	-0.000215
1081	1.0746e+02	-3.0240	-12.107370	0.000385	3.851630	1.304968	-0.000154
1082	1.0756e+02	-3.0625	-12.220410	0.000284	2.838043	0.961555	-0.000114
1083	1.0766e+02	-3.1154	-12.426304	0.000517	5.169293	1.751404	-0.000207
1084	1.0776e+02	-3.1443	-12.607975	0.000456	4.561141	1.545356	-0.000183
1085	1.0786e+02	-3.1828	-12.733126	0.000314	3.142119	1.064579	-0.000126
1086	1.0796e+02	-3.2229	-12.878463	0.000365	3.648913	1.236285	-0.000146
1087	1.0806e+02	-3.2694	-13.056097	0.000446	4.459782	1.511015	-0.000179
1088	1.0816e+02	-3.3111	-13.189322	0.000334	3.344836	1.133261	-0.000134
1089	1.0826e+02	-3.3416	-13.370994	0.000456	4.561141	1.545356	-0.000183
1090	1.0836e+02	-3.3897	-13.500182	0.000324	3.243478	1.098920	-0.000130
1091	1.0845e+02	-3.4250	-13.617259	0.000294	2.939402	0.995896	-0.000118
1092	1.0855e+02	-3.4619	-13.819116	0.000507	5.067934	1.717063	-0.000203
1093	1.0865e+02	-3.5020	-13.988675	0.000426	4.257065	1.442333	-0.000170
1094	1.0875e+02	-3.5261	-14.105752	0.000294	2.939402	0.995896	-0.000118
1095	1.0885e+02	-3.5726	-14.283386	0.000446	4.459782	1.511015	-0.000179
1096	1.0895e+02	-3.6208	-14.436797	0.000385	3.851630	1.304968	-0.000154
1097	1.0905e+02	-3.6673	-14.590209	0.000385	3.851630	1.304968	-0.000154
1098	1.0915e+02	-3.6978	-14.767843	0.000446	4.459782	1.511015	-0.000179
1099	1.0925e+02	-3.7459	-14.905105	0.000345	3.446195	1.167603	-0.000138
1100	1.0935e+02	-3.7748	-15.054479	0.000375	3.750271	1.270626	-0.000150
1101	1.0945e+02	-3.8197	-15.220002	0.000416	4.155706	1.407991	-0.000166
1102	1.0955e+02	-3.8582	-15.345153	0.000314	3.142119	1.064579	-0.000126
1103	1.0965e+02	-3.9047	-15.522787	0.000446	4.459782	1.511015	-0.000179
1104	1.0975e+02	-3.9400	-15.716569	0.000487	4.865217	1.648380	-0.000195
1105	1.0985e+02	-3.9833	-15.845758	0.000324	3.243478	1.098920	-0.000130
1106	1.0995e+02	-4.0154	-16.007243	0.000405	4.054347	1.373650	-0.000162
1107	1.1005e+02	-4.0651	-16.136432	0.000324	3.243478	1.098920	-0.000130
1108	1.1015e+02	-4.0924	-16.342325	0.000517	5.169293	1.751404	-0.000207
1109	1.1025e+02	-4.1421	-16.483625	0.000355	3.547554	1.201944	-0.000142
1110	1.1035e+02	-4.1774	-16.624925	0.000355	3.547554	1.201944	-0.000142
1111	1.1044e+02	-4.2239	-16.786410	0.000405	4.054347	1.373650	-0.000162
1112	1.1054e+02	-4.2544	-16.960007	0.000436	4.358423	1.476674	-0.000174
1113	1.1064e+02	-4.2977	-17.060936	0.000253	2.533967	0.858531	-0.000101
1114	1.1074e+02	-4.3411	-17.287015	0.000568	5.676086	1.923110	-0.000227
1115	1.1084e+02	-4.3780	-17.404092	0.000294	2.939402	0.995896	-0.000118
1116	1.1094e+02	-4.4229	-17.577689	0.000436	4.358423	1.476674	-0.000174
1117	1.1104e+02	-4.4566	-17.723026	0.000365	3.648913	1.236285	-0.000146
1118	1.1114e+02	-4.4919	-17.888548	0.000416	4.155706	1.407991	-0.000166
1119	1.1124e+02	-4.5384	-18.041960	0.000385	3.851630	1.304968	-0.000154
1120	1.1134e+02	-4.5753	-18.211519	0.000426	4.257065	1.442333	-0.000170
1121	1.1144e+02	-4.6138	-18.397228	0.000466	4.662499	1.579698	-0.000187
1122	1.1154e+02	-4.6587	-18.494119	0.000243	2.432608	0.824190	-0.000097
1123	1.1164e+02	-4.6924	-18.667716	0.000436	4.358423	1.476674	-0.000174
1124	1.1174e+02	-4.7309	-18.825164	0.000395	3.952989	1.339309	-0.000158
1125	1.1184e+02	-4.7854	-18.970501	0.000365	3.648913	1.236285	-0.000146
1126	1.1194e+02	-4.8191	-19.152172	0.000456	4.561141	1.545356	-0.000183
1127	1.1204e+02	-4.8480	-19.285397	0.000334	3.344836	1.133261	-0.000134
1128	1.1214e+02	-4.8913	-19.446883	0.000405	4.054347	1.373650	-0.000162
1129	1.1224e+02	-4.9298	-19.600294	0.000385	3.851630	1.304968	-0.000154
1130	1.1234e+02	-4.9763	-19.806188	0.000517	5.169293	1.751404	-0.000207
1131	1.1244e+02	-5.0164	-19.919228	0.000284	2.838043	0.961555	-0.000114
1132	1.1253e+02	-5.0533	-20.084750	0.000416	4.155706	1.407991	-0.000166
1133	1.1263e+02	-5.0934	-20.238161	0.000385	3.851630	1.304968	-0.000154
1134	1.1273e+02	-5.1384	-20.403684	0.000416	4.155706	1.407991	-0.000166
1135	1.1283e+02	-5.1688	-20.569207	0.000416	4.155706	1.407991	-0.000166
1136	1.1293e+02	-5.2218	-20.718581	0.000375	3.750271	1.270626	-0.000150
1137	1.1303e+02	-5.2442	-20.888140	0.000426	4.257065	1.442333	-0.000170
1138	1.1313e+02	-5.2924	-20.968883	0.000203	2.027174	0.686825	-0.000081
1139	1.1323e+02	-5.3341	-21.174777	0.000517	5.169293	1.751404	-0.000207
1140	1.1333e+02	-5.3854	-21.344337	0.000426	4.257065	1.442333	-0.000170
1141	1.1343e+02	-5.4159	-21.501785	0.000395	3.952989	1.339309	-0.000158
1142	1.1353e+02	-5.4544	-21.663270	0.000405	4.054347	1.373650	-0.000162
1143	1.1363e+02	-5.4929	-21.776310	0.000284	2.838043	0.961555	-0.000114
1144	1.1373e+02	-5.5330	-21.990278	0.000537	5.372010	1.820086	-0.000215
1145	1.1383e+02	-5.5699	-22.143690	0.000385	3.851630	1.304968	-0.000154
1146	1.1393e+02	-5.6100	-22.293064	0.000375	3.750271	1.270626	-0.000150
1147	1.1403e+02	-5.6517	-22.414178	0.000304	3.040760	1.030238	-0.000122
1148	1.1413e+02	-5.6854	-22.620072	0.000517	5.169293	1.751404	-0.000207
1149	1.1423e+02	-5.7255	-22.733111	0.000284	2.838043	0.961555	-0.000114
1150	1.1433e+02	-5.7720	-22.910745	0.000446	4.459782	1.511015	-0.000179
1151	1.1442e+02	-5.8153	-23.003599	0.000233	2.331250	0.789849	-0.000093
1152	1.1452e+02	-5.8506	-23.181233	0.000446	4.459782	1.511015	-0.000179
1153	1.1462e+02	-5.8972	-23.346756	0.000416	4.155706	1.407991	-0.000166
1154	1.1472e+02	-5.9276	-23.496130	0.000375	3.750271	1.270626	-0.000150
1155	1.1482e+02	-5.9677	-23.673764	0.000446	4.459782	1.511015	-0.000179
1156	1.1492e+02	-6.0159	-23.794878	0.000304	3.040760	1.030238	-0.000122
1157	1.1502e+02	-6.0528	-23.960401	0.000416	4.155706	1.407991	-0.000166
1158	1.1512e+02	-6.0961	-24.097663	0.000345	3.446195	1.167603	-0.000138
1159	1.1522e+02	-6.1378	-24.283371	0.000466	4.662499	1.579698	-0.000187
1160	1.1532e+02	-6.1699	-24.360077	0.000193	1.925815	0.652484	-0.000077
1161	1.1542e+02	-6.2132	-24.557897	0.000497	4.966575	1.682721	-0.000199
1162	1.1552e+02	-6.2517	-24.707271	0.000375	3.750271	1.270626	-0.000150
1163	1.1562e+02	-6.2950	-24.880868	0.000436	4.358423	1.476674	-0.000174
1164	1.1572e+02	-6.3271	-25.014093	0.000334	3.344836	1.133261	-0.000134
1165	1.1582e+02	-6.3704	-25.171541	0.000395	3.952989	1.339309	-0.000158
1166	1.1592e+02	-6.4057	-25.312841	0.000355	3.547554	1.201944	-0.000142
1167	1.1602e+02	-6.4426	-25.458178	0.000365	3.648913	1.236285	-0.000146
1168	1.1612e+02	-6.4907	-25.615626	0.000395	3.952989	1.339309	-0.000158
1169	1.1622e+02	-6.5292	-25.724629	0.000274	2.736684	0.927214	-0.000110
1170	1.1632e+02	-6.5613	-25.910337	0.000466	4.662499	1.579698	-0.000187
1171	1.1642e+02	-6.6046	-26.047600	0.000345	3.446195	1.167603	-0.000138
1172	1.1651e+02	-6.6528	-26.237345	0.000476	4.763858	1.614039	-0.000191
1173	1.1661e+02	-6.6816	-26.342311	0.000264	2.635326	0.892873	-0.000105
1174	1.1671e+02	-6.7201	-26.536093	0.000487	4.865217	1.648380	-0.000195
1175	1.1681e+02	-6.7731	-26.645096	0.000274	2.736684	0.927214	-0.000110
1176	1.1691e+02	-6.8068	-26.790433	0.000365	3.648913	1.236285	-0.000146
1177	1.1701e+02	-6.8437	-26.951918	0.000405	4.054347	1.373650	-0.000162
1178	1.1711e+02	-6.8854	-27.093218	0.000355	3.547554	1.201944	-0.000142
1179	1.1721e+02	-6.9239	-27.250666	0.000395	3.952989	1.339309	-0.000158
1180	1.1731e+02	-6.9672	-27.424263	0.000436	4.358423	1.476674	-0.000174
1181	1.1741e+02	-7.0025	-27.589786	0.000416	4.155706	1.407991	-0.000166
1182	1.1751e+02	-7.0394	-27.698788	0.000274	2.736684	0.927214	-0.000110
1183	1.1761e+02	-7.0763	-27.892571	0.000487	4.865217	1.648380	-0.000195
1184	1.1771e+02	-7.1196	-28.037908	0.000365	3.648913	1.236285	-0.000146
1185	1.1781e+02	-7.1693	-28.154985	0.000294	2.939402	0.995896	-0.000118
1186	1.1791e+02	-7.2014	-28.296284	0.000355	3.547554	1.201944	-0.000142
1187	1.1801e+02	-7.2399	-28.465844	0.000426	4.257065	1.442333	-0.000170
1188	1.1811e+02	-7.2816	-28.619255	0.000385	3.851630	1.304968	-0.000154
1189	1.1821e+02	-7.3169	-28.764592	0.000365	3.648913	1.236285	-0.000146
1190	1.1831e+02	-7.3554	-28.889743	0.000314	3.142119	1.064579	-0.000126
1191	1.1841e+02	-7.4035	-29.059303	0.000426	4.257065	1.442333	-0.000170
1192	1.1850e+02	-7.4356	-29.168306	0.000274	2.736684	0.927214	-0.000110
1193	1.1860e+02	-7.4789	-29.349977	0.000456	4.561141	1.545356	-0.000183
1194	1.1870e+02	-7.5222	-29.483202	0.000334	3.344836	1.133261	-0.000134
1195	1.1880e+02	-7.5704	-29.616428	0.000334	3.344836	1.133261	-0.000134
1196	1.1890e+02	-7.6041	-29.757728	0.000355	3.547554	1.201944	-0.000142
1197	1.1900e+02	-7.6506	-29.915176	0.000395	3.952989	1.339309	-0.000158
1198	1.1910e+02	-7.6891	-30.056476	0.000355	3.547554	1.201944	-0.000142
1199	1.1920e+02	-7.7180	-30.197775	0.000355	3.547554	1.201944	-0.000142
1200	1.1930e+02	-7.7597	-30.339075	0.000355	3.547554	1.201944	-0.000142
1201	1.1940e+02	-7.8014	-30.476338	0.000345	3.446195	1.167603	-0.000138
1202	1.1950e+02	-7.8463	-30.617637	0.000355	3.547554	1.201944	-0.000142
1203	1.1960e+02	-7.8816	-30.783160	0.000416	4.155706	1.407991	-0.000166
1204	1.1970e+02	-7.9153	-30.940608	0.000395	3.952989	1.339309	-0.000158
1205	1.1980e+02	-7.9650	-31.077871	0.000345	3.446195	1.167603	-0.000138
1206	1.1990e+02	-7.9923	-31.227245	0.000375	3.750271	1.270626	-0.000150
1207	1.2000e+02	-8.0324	-31.344322	0.000294	2.939402	0.995896	-0.000118
1208	1.2010e+02	-8.0837	-31.513882	0.000426	4.257065	1.442333	-0.000170
1209	1.2020e+02	-8.1254	-31.655181	0.000355	3.547554	1.201944	-0.000142
1210	1.2030e+02	-8.1543	-31.784370	0.000324	3.243478	1.098920	-0.000130
1211	1.2039e+02	-8.1976	-31.913558	0.000324	3.243478	1.098920	-0.000130
1212	1.2049e+02	-8.2377	-32.079081	0.000416	4.155706	1.407991	-0.000166
1213	1.2059e+02	-8.2778	-32.188083	0.000274	2.736684	0.927214	-0.000110
1214	1.2069e+02	-8.3179	-32.373791	0.000466	4.662499	1.579698	-0.000187
1215	1.2079e+02	-8.3597	-32.454534	0.000203	2.027174	0.686825	-0.000081
1216	1.2089e+02	-8.3966	-32.636205	0.000456	4.561141	1.545356	-0.000183
1217	1.2099e+02	-8.4367	-32.749245	0.000284	2.838043	0.961555	-0.000114
1218	1.2109e+02	-8.4784	-32.850174	0.000253	2.533967	0.858531	-0.000101
1219	1.2119e+02	-8.5121	-33.011659	0.000405	4.054347	1.373650	-0.000162
1220	1.2129e+02	-8.5618	-33.144884	0.000334	3.344836	1.133261	-0.000134
1221	1.2139e+02	-8.5971	-33.318481	0.000436	4.358423	1.476674	-0.000174
1222	1.2149e+02	-8.6404	-33.451707	0.000334	3.344836	1.133261	-0.000134
1223	1.2159e+02	-8.6757	-33.572821	0.000304	3.040760	1.030238	-0.000122
1224	1.2169e+02	-8.7110	-33.742380	0.000426	4.257065	1.442333	-0.000170
1225	1.2179e+02	-8.7591	-33.851383	0.000274	2.736684	0.927214	-0.000110
1226	1.2189e+02	-8.8024	-33.992683	0.000355	3.547554	1.201944	-0.000142
1227	1.2199e+02	-8.8297	-34.125908	0.000334	3.344836	1.133261	-0.000134
1228	1.2209e+02	-8.8794	-34.347951	0.000557	5.574727	1.888769	-0.000223
1229	1.2219e+02	-8.9163	-34.424656	0.000193	1.925815	0.652484	-0.000077
1230	1.2229e+02	-8.9628	-34.569993	0.000365	3.648913	1.236285	-0.000146
1231	1.2239e+02	-8.9949	-34.699182	0.000324	3.243478	1.098920	-0.000130
1232	1.2248e+02	-9.0318	-34.876816	0.000446	4.459782	1.511015	-0.000179
1233	1.2258e+02	-9.0719	-35.006004	0.000324	3.243478	1.098920	-0.000130
1234	1.2268e+02	-9.1120	-35.106932	0.000253	2.533967	0.858531	-0.000101
1235	1.2278e+02	-9.1586	-35.280529	0.000436	4.358423	1.476674	-0.000174
1236	1.2288e+02	-9.1971	-35.417792	0.000345	3.446195	1.167603	-0.000138
1237	1.2298e+02	-9.2372	-35.546980	0.000324	3.243478	1.098920	-0.000130
1238	1.2308e+02	-9.2869	-35.692317	0.000365	3.648913	1.236285	-0.000146
1239	1.2318e+02	-9.3206	-35.841691	0.000375	3.750271	1.270626	-0.000150
1240	1.2328e+02	-9.3559	-35.982991	0.000355	3.547554	1.201944	-0.000142
1241	1.2338e+02	-9.3976	-36.112179	0.000324	3.243478	1.098920	-0.000130
1242	1.2348e+02	-9.4393	-36.217145	0.000264	2.635326	0.892873	-0.000105
1243	1.2358e+02	-9.4762	-36.358444	0.000355	3.547554	1.201944	-0.000142
1244	1.2368e+02	-9.5163	-36.511856	0.000385	3.851630	1.304968	-0.000154
1245	1.2378e+02	-9.5516	-36.637007	0.000314	3.142119	1.064579	-0.000126
1246	1.2388e+02	-9.5981	-36.802529	0.000416	4.155706	1.407991	-0.000166
1247	1.2398e+02	-9.6286	-36.923643	0.000304	3.040760	1.030238	-0.000122
1248	1.2408e+02	-9.6767	-37.081092	0.000395	3.952989	1.339309	-0.000158
1249	1.2418e+02	-9.7152	-37.177983	0.000243	2.432608	0.824190	-0.000097
1250	1.2428e+02	-9.7505	-37.339468	0.000405	4.054347	1.373650	-0.000162
1251	1.2438e+02	-9.8035	-37.484805	0.000365	3.648913	1.236285	-0.000146
1252	1.2447e+02	-9.8356	-37.601882	0.000294	2.939402	0.995896	-0.000118
1253	1.2457e+02	-9.8805	-37.779516	0.000446	4.459782	1.511015	-0.000179
1254	1.2467e+02	-9.9142	-37.900630	0.000304	3.040760	1.030238	-0.000122
1255	1.2477e+02	-9.9430	-38.041930	0.000355	3.547554	1.201944	-0.000142
1256	1.2487e+02	-9.9880	-38.138821	0.000243	2.432608	0.824190	-0.000097
1257	1.2497e+02	-10.0281	-38.263973	0.000314	3.142119	1.064579	-0.000126
1258	1.2507e+02	-10.0746	-38.469866	0.000517	5.169293	1.751404	-0.000207
1259	1.2517e+02	-10.1051	-38.599055	0.000324	3.243478	1.098920	-0.000130
1260	1.2527e+02	-10.1548	-38.716132	0.000294	2.939402	0.995896	-0.000118
1261	1.2537e+02	-10.1965	-38.833209	0.000294	2.939402	0.995896	-0.000118
1262	1.2547e+02	-10.2366	-38.966434	0.000334	3.344836	1.133261	-0.000134
1263	1.2557e+02	-10.2783	-39.091585	0.000314	3.142119	1.064579	-0.000126
1264	1.2567e+02	-10.3088	-39.244997	0.000385	3.851630	1.304968	-0.000154
1265	1.2577e+02	-10.3473	-39.333813	0.000223	2.229891	0.755508	-0.000089
1266	1.2587e+02	-10.3954	-39.523559	0.000476	4.763858	1.614039	-0.000191
1267	1.2597e+02	-10.4227	-39.652747	0.000324	3.243478	1.098920	-0.000130
1268	1.2607e+02	-10.4660	-39.785973	0.000334	3.344836	1.133261	-0.000134
1269	1.2617e+02	-10.5125	-39.919198	0.000334	3.344836	1.133261	-0.000134
1270	1.2627e+02	-10.5446	-40.052424	0.000334	3.344836	1.133261	-0.000134
1271	1.2636e+02	-10.5944	-40.189686	0.000345	3.446195	1.167603	-0.000138
1272	1.2646e+02	-10.6264	-40.310800	0.000304	3.040760	1.030238	-0.000122
1273	1.2656e+02	-10.6665	-40.460174	0.000375	3.750271	1.270626	-0.000150
1274	1.2666e+02	-10.7083	-40.593400	0.000334	3.344836	1.133261	-0.000134
1275	1.2676e+02	-10.7548	-40.730662	0.000345	3.446195	1.167603	-0.000138
1276	1.2686e+02	-10.7885	-40.871962	0.000355	3.547554	1.201944	-0.000142
1277	1.2696e+02	-10.8286	-41.001151	0.000324	3.243478	1.098920	-0.000130
1278	1.2706e+02	-10.8703	-41.146487	0.000365	3.648913	1.236285	-0.000146
1279	1.2716e+02	-10.9088	-41.267602	0.000304	3.040760	1.030238	-0.000122
1280	1.2726e+02	-10.9489	-41.457347	0.000476	4.763858	1.614039	-0.000191
1281	1.2736e+02	-10.9938	-41.562312	0.000264	2.635326	0.892873	-0.000105
1282	1.2746e+02	-11.0323	-41.691501	0.000324	3.243478	1.098920	-0.000130
1283	1.2756e+02	-11.0676	-41.808578	0.000294	2.939402	0.995896	-0.000118
1284	1.2766e+02	-11.1061	-41.913543	0.000264	2.635326	0.892873	-0.000105
1285	1.2776e+02	-11.1478	-42.119437	0.000517	5.169293	1.751404	-0.000207
1286	1.2786e+02	-11.1799	-42.204217	0.000213	2.128532	0.721166	-0.000085
1287	1.2796e+02	-11.2296	-42.353591	0.000375	3.750271	1.270626	-0.000150
1288	1.2806e+02	-11.2697	-42.498928	0.000365	3.648913	1.236285	-0.000146
1289	1.2816e+02	-11.3130	-42.660413	0.000405	4.054347	1.373650	-0.000162
1290	1.2826e+02	-11.3467	-42.733082	0.000182	1.824456	0.618143	-0.000073
1291	1.2835e+02	-11.3820	-42.922827	0.000476	4.763858	1.614039	-0.000191
1292	1.2845e+02	-11.4302	-43.031830	0.000274	2.736684	0.927214	-0.000110
1293	1.2855e+02	-11.4638	-43.193315	0.000405	4.054347	1.373650	-0.000162
1294	1.2865e+02	-11.5136	-43.257909	0.000162	1.621739	0.549460	-0.000065
1295	1.2875e+02	-11.5473	-43.443618	0.000466	4.662499	1.579698	-0.000187
1296	1.2885e+02	-11.5858	-43.580880	0.000345	3.446195	1.167603	-0.000138
1297	1.2895e+02	-11.6227	-43.718143	0.000345	3.446195	1.167603	-0.000138
1298	1.2905e+02	-11.6580	-43.843294	0.000314	3.142119	1.064579	-0.000126
1299	1.2915e+02	-11.7125	-44.016891	0.000436	4.358423	1.476674	-0.000174
1300	1.2925e+02	-11.7414	-44.133968	0.000294	2.939402	0.995896	-0.000118
1301	1.2935e+02	-11.7767	-44.283342	0.000375	3.750271	1.270626	-0.000150
1302	1.2945e+02	-11.8216	-44.388307	0.000264	2.635326	0.892873	-0.000105
1303	1.2955e+02	-11.8665	-44.537681	0.000375	3.750271	1.270626	-0.000150
1304	1.2965e+02	-11.9098	-44.670907	0.000334	3.344836	1.133261	-0.000134
1305	1.2975e+02	-11.9403	-44.824318	0.000385	3.851630	1.304968	-0.000154
1306	1.2985e+02	-11.9772	-44.937358	0.000284	2.838043	0.961555	-0.000114
1307	1.2995e+02	-12.0269	-45.086732	0.000375	3.750271	1.270626	-0.000150
1308	1.3005e+02	-12.0670	-45.252254	0.000416	4.155706	1.407991	-0.000166
1309	1.3015e+02	-12.1023	-45.357220	0.000264	2.635326	0.892873	-0.000105
1310	1.3025e+02	-12.1408	-45.494483	0.000345	3.446195	1.167603	-0.000138
1311	1.3034e+02	-12.1793	-45.599448	0.000264	2.635326	0.892873	-0.000105
1312	1.3044e+02	-12.2291	-45.744785	0.000365	3.648913	1.236285	-0.000146
1313	1.3054e+02	-12.2644	-45.914345	0.000426	4.257065	1.442333	-0.000170
1314	1.3064e+02	-12.2964	-46.043533	0.000324	3.243478	1.098920	-0.000130
1315	1.3074e+02	-12.3446	-46.160610	0.000294	2.939402	0.995896	-0.000118
1316	1.3084e+02	-12.3799	-46.289798	0.000324	3.243478	1.098920	-0.000130
1317	1.3094e+02	-12.4248	-46.435135	0.000365	3.648913	1.236285	-0.000146
1318	1.3104e+02	-12.4633	-46.556249	0.000304	3.040760	1.030238	-0.000122
1319	1.3114e+02	-12.5002	-46.665252	0.000274	2.736684	0.927214	-0.000110
1320	1.3124e+02	-12.5435	-46.802515	0.000345	3.446195	1.167603	-0.000138
1321	1.3134e+02	-12.5932	-46.931703	0.000324	3.243478	1.098920	-0.000130
1322	1.3144e+02	-12.6173	-47.081077	0.000375	3.750271	1.270626	-0.000150
1323	1.3154e+02	-12.6622	-47.182005	0.000253	2.533967	0.858531	-0.000101
1324	1.3164e+02	-12.7087	-47.339454	0.000395	3.952989	1.339309	-0.000158
1325	1.3174e+02	-12.7424	-47.456531	0.000294	2.939402	0.995896	-0.000118
1326	1.3184e+02	-12.7809	-47.597830	0.000355	3.547554	1.201944	-0.000142
1327	1.3194e+02	-12.8162	-47.702796	0.000264	2.635326	0.892873	-0.000105
1328	1.3204e+02	-12.8643	-47.823910	0.000304	3.040760	1.030238	-0.000122
1329	1.3214e+02	-12.9012	-47.989433	0.000416	4.155706	1.407991	-0.000166
1330	1.3224e+02	-12.9430	-48.118621	0.000324	3.243478	1.098920	-0.000130
1331	1.3234e+02	-12.9702	-48.227624	0.000274	2.736684	0.927214	-0.000110
1332	1.3243e+02	-13.0248	-48.385072	0.000395	3.952989	1.339309	-0.000158
1333	1.3253e+02	-13.0601	-48.477926	0.000233	2.331250	0.789849	-0.000093
1334	1.3263e+02	-13.1018	-48.623263	0.000365	3.648913	1.236285	-0.000146
1335	1.3273e+02	-13.1355	-48.760525	0.000345	3.446195	1.167603	-0.000138
1336	1.3283e+02	-13.1772	-48.889714	0.000324	3.243478	1.098920	-0.000130
1337	1.3293e+02	-13.2173	-49.047162	0.000395	3.952989	1.339309	-0.000158
1338	1.3303e+02	-13.2558	-49.144053	0.000243	2.432608	0.824190	-0.000097
1339	1.3313e+02	-13.2959	-49.269205	0.000314	3.142119	1.064579	-0.000126
1340	1.3323e+02	-13.3312	-49.398393	0.000324	3.243478	1.098920	-0.000130
1341	1.3333e+02	-13.3793	-49.539693	0.000355	3.547554	1.201944	-0.000142
1342	1.3343e+02	-13.4114	-49.685030	0.000365	3.648913	1.236285	-0.000146
1343	1.3353e+02	-13.4595	-49.838441	0.000385	3.851630	1.304968	-0.000154
1344	1.3363e+02	-13.4980	-49.923221	0.000213	2.128532	0.721166	-0.000085
1345	1.3373e+02	-13.5397	-50.048372	0.000314	3.142119	1.064579	-0.000126
1346	1.3383e+02	-13.5686	-50.197746	0.000375	3.750271	1.270626	-0.000150
1347	1.3393e+02	-13.6247	-50.302711	0.000264	2.635326	0.892873	-0.000105
1348	1.3403e+02	-13.6552	-50.452085	0.000375	3.750271	1.270626	-0.000150
1349	1.3413e+02	-13.6985	-50.557051	0.000264	2.635326	0.892873	-0.000105
1350	1.3423e+02	-13.7483	-50.710462	0.000385	3.851630	1.304968	-0.000154
1351	1.3432e+02	-13.7739	-50.835613	0.000314	3.142119	1.064579	-0.000126
1352	1.3442e+02	-13.8237	-50.968839	0.000334	3.344836	1.133261	-0.000134
1353	1.3452e+02	-13.8638	-51.106101	0.000345	3.446195	1.167603	-0.000138
1354	1.3462e+02	-13.8911	-51.202993	0.000243	2.432608	0.824190	-0.000097
1355	1.3472e+02	-13.9247	-51.340255	0.000345	3.446195	1.167603	-0.000138
1356	1.3482e+02	-13.9665	-51.477518	0.000345	3.446195	1.167603	-0.000138
1357	1.3492e+02	-14.0178	-51.594595	0.000294	2.939402	0.995896	-0.000118
1358	1.3502e+02	-14.0579	-51.711672	0.000294	2.939402	0.995896	-0.000118
1359	1.3512e+02	-14.0996	-51.848934	0.000345	3.446195	1.167603	-0.000138
1360	1.3522e+02	-14.1381	-51.982160	0.000334	3.344836	1.133261	-0.000134
1361	1.3532e+02	-14.1718	-52.103274	0.000304	3.040760	1.030238	-0.000122
1362	1.3542e+02	-14.2103	-52.224388	0.000304	3.040760	1.030238	-0.000122
1363	1.3552e+02	-14.2600	-52.357613	0.000334	3.344836	1.133261	-0.000134
1364	1.3562e+02	-14.2889	-52.470653	0.000284	2.838043	0.961555	-0.000114
1365	1.3572e+02	-14.3290	-52.599842	0.000324	3.243478	1.098920	-0.000130
1366	1.3582e+02	-14.3723	-52.745178	0.000365	3.648913	1.236285	-0.000146
1367	1.3592e+02	-14.4124	-52.862255	0.000294	2.939402	0.995896	-0.000118
1368	1.3602e+02	-14.4445	-52.971258	0.000274	2.736684	0.927214	-0.000110
1369	1.3612e+02	-14.4991	-53.148892	0.000446	4.459782	1.511015	-0.000179
1370	1.3622e+02	-14.5376	-53.225598	0.000193	1.925815	0.652484	-0.000077
1371	1.3631e+02	-14.5729	-53.374972	0.000375	3.750271	1.270626	-0.000150
1372	1.3641e+02	-14.6178	-53.496086	0.000304	3.040760	1.030238	-0.000122
1373	1.3651e+02	-14.6547	-53.605088	0.000274	2.736684	0.927214	-0.000110
1374	1.3661e+02	-14.6948	-53.714091	0.000274	2.736684	0.927214	-0.000110
1375	1.3671e+02	-14.7285	-53.835205	0.000304	3.040760	1.030238	-0.000122
1376	1.3681e+02	-14.7798	-53.980542	0.000365	3.648913	1.236285	-0.000146
1377	1.3691e+02	-14.8119	-54.105693	0.000314	3.142119	1.064579	-0.000126
1378	1.3701e+02	-14.8568	-54.210659	0.000264	2.635326	0.892873	-0.000105
1379	1.3711e+02	-14.8873	-54.343884	0.000334	3.344836	1.133261	-0.000134
1380	1.3721e+02	-14.9354	-54.485184	0.000355	3.547554	1.201944	-0.000142
1381	1.3731e+02	-14.9755	-54.561889	0.000193	1.925815	0.652484	-0.000077
1382	1.3741e+02	-15.0108	-54.687041	0.000314	3.142119	1.064579	-0.000126
1383	1.3751e+02	-15.0477	-54.800081	0.000284	2.838043	0.961555	-0.000114
1384	1.3761e+02	-15.0910	-54.941380	0.000355	3.547554	1.201944	-0.000142
1385	1.3771e+02	-15.1327	-55.098829	0.000395	3.952989	1.339309	-0.000158
1386	1.3781e+02	-15.1712	-55.163423	0.000162	1.621739	0.549460	-0.000065
1387	1.3791e+02	-15.2161	-55.341057	0.000446	4.459782	1.511015	-0.000179
1388	1.3801e+02	-15.2498	-55.393539	0.000132	1.317663	0.446436	-0.000053
1389	1.3811e+02	-15.2899	-55.575211	0.000456	4.561141	1.545356	-0.000183
1390	1.3821e+02	-15.3252	-55.643842	0.000172	1.723098	0.583801	-0.000069
1391	1.3831e+02	-15.3686	-55.797253	0.000385	3.851630	1.304968	-0.000154
1392	1.3840e+02	-15.4151	-55.918367	0.000304	3.040760	1.030238	-0.000122
1393	1.3850e+02	-15.4536	-56.067741	0.000375	3.750271	1.270626	-0.000150
1394	1.3860e+02	-15.4841	-56.152521	0.000213	2.128532	0.721166	-0.000085
1395	1.3870e+02	-15.5306	-56.297858	0.000365	3.648913	1.236285	-0.000146
1396	1.3880e+02	-15.5707	-56.410898	0.000284	2.838043	0.961555	-0.000114
1397	1.3890e+02	-15.6140	-56.527975	0.000294	2.939402	0.995896	-0.000118
1398	1.3900e+02	-15.6429	-56.645052	0.000294	2.939402	0.995896	-0.000118
1399	1.3910e+02	-15.6958	-56.798463	0.000385	3.851630	1.304968	-0.000154
1400	1.3920e+02	-15.7343	-56.879205	0.000203	2.027174	0.686825	-0.000081
1401	1.3930e+02	-15.7776	-56.996282	0.000294	2.939402	0.995896	-0.000118
1402	1.3940e+02	-15.8049	-57.157768	0.000405	4.054347	1.373650	-0.000162
1403	1.3950e+02	-15.8418	-57.270808	0.000284	2.838043	0.961555	-0.000114
1404	1.3960e+02	-15.8883	-57.387885	0.000294	2.939402	0.995896	-0.000118
1405	1.3970e+02	-15.9316	-57.504961	0.000294	2.939402	0.995896	-0.000118
1406	1.3980e+02	-15.9685	-57.593778	0.000223	2.229891	0.755508	-0.000089
1407	1.3990e+02	-16.0118	-57.763338	0.000426	4.257065	1.442333	-0.000170
1408	1.4000e+02	-16.0423	-57.880415	0.000294	2.939402	0.995896	-0.000118
1409	1.4010e+02	-16.0953	-57.961158	0.000203	2.027174	0.686825	-0.000081
1410	1.4020e+02	-16.1241	-58.110532	0.000375	3.750271	1.270626	-0.000150
1411	1.4029e+02	-16.1675	-58.223572	0.000284	2.838043	0.961555	-0.000114
1412	1.4039e+02	-16.2060	-58.368909	0.000365	3.648913	1.236285	-0.000146
1413	1.4049e+02	-16.2509	-58.494060	0.000314	3.142119	1.064579	-0.000126
1414	1.4059e+02	-16.2878	-58.619211	0.000314	3.142119	1.064579	-0.000126
1415	1.4069e+02	-16.3295	-58.756474	0.000345	3.446195	1.167603	-0.000138
1416	1.4079e+02	-16.3696	-58.873550	0.000294	2.939402	0.995896	-0.000118
1417	1.4089e+02	-16.4033	-59.006776	0.000334	3.344836	1.133261	-0.000134
1418	1.4099e+02	-16.4434	-59.156150	0.000375	3.750271	1.270626	-0.000150
1419	1.4109e+02	-16.4883	-59.240930	0.000213	2.128532	0.721166	-0.000085
1420	1.4119e+02	-16.5364	-59.345895	0.000264	2.635326	0.892873	-0.000105
1421	1.4129e+02	-16.5653	-59.527566	0.000456	4.561141	1.545356	-0.000183
1422	1.4139e+02	-16.6070	-59.608309	0.000203	2.027174	0.686825	-0.000081
1423	1.4149e+02	-16.6487	-59.693089	0.000213	2.128532	0.721166	-0.000085
1424	1.4159e+02	-16.6888	-59.822277	0.000324	3.243478	1.098920	-0.000130
1425	1.4169e+02	-16.7257	-59.987800	0.000416	4.155706	1.407991	-0.000166
1426	1.4179e+02	-16.7755	-60.121025	0.000334	3.344836	1.133261	-0.000134
1427	1.4189e+02	-16.8092	-60.270399	0.000375	3.750271	1.270626	-0.000150
1428	1.4199e+02	-16.8477	-60.367291	0.000243	2.432608	0.824190	-0.000097
1429	1.4209e+02	-16.8813	-60.435922	0.000172	1.723098	0.583801	-0.000069
1430	1.4219e+02	-16.9295	-60.565110	0.000324	3.243478	1.098920	-0.000130
1431	1.4228e+02	-16.9599	-60.722559	0.000395	3.952989	1.339309	-0.000158
1432	1.4238e+02	-17.0049	-60.888081	0.000416	4.155706	1.407991	-0.000166
1433	1.4248e+02	-17.0466	-60.972861	0.000213	2.128532	0.721166	-0.000085
1434	1.4258e+02	-17.0899	-61.073789	0.000253	2.533967	0.858531	-0.000101
1435	1.4268e+02	-17.1252	-61.207015	0.000334	3.344836	1.133261	-0.000134
1436	1.4278e+02	-17.1621	-61.356389	0.000375	3.750271	1.270626	-0.000150
1437	1.4288e+02	-17.2054	-61.449243	0.000233	2.331250	0.789849	-0.000093
1438	1.4298e+02	-17.2343	-61.602654	0.000385	3.851630	1.304968	-0.000154
1439	1.4308e+02	-17.2872	-61.691471	0.000223	2.229891	0.755508	-0.000089
1440	1.4318e+02	-17.3257	-61.865068	0.000436	4.358423	1.476674	-0.000174
1441	1.4328e+02	-17.3674	-61.994256	0.000324	3.243478	1.098920	-0.000130
1442	1.4338e+02	-17.4107	-62.095185	0.000253	2.533967	0.858531	-0.000101
1443	1.4348e+02	-17.4524	-62.256670	0.000405	4.054347	1.373650	-0.000162
1444	1.4358e+02	-17.4781	-62.341450	0.000213	2.128532	0.721166	-0.000085
1445	1.4368e+02	-17.5150	-62.490824	0.000375	3.750271	1.270626	-0.000150
1446	1.4378e+02	-17.5663	-62.660384	0.000426	4.257065	1.442333	-0.000170
1447	1.4388e+02	-17.5984	-62.765349	0.000264	2.635326	0.892873	-0.000105
1448	1.4398e+02	-17.6417	-62.862241	0.000243	2.432608	0.824190	-0.000097
1449	1.4408e+02	-17.6835	-62.995466	0.000334	3.344836	1.133261	-0.000134
1450	1.4418e+02	-17.7284	-63.165026	0.000426	4.257065	1.442333	-0.000170
1451	1.4428e+02	-17.7701	-63.298251	0.000334	3.344836	1.133261	-0.000134
1452	1.4437e+02	-17.8086	-63.419365	0.000304	3.040760	1.030238	-0.000122
1453	1.4447e+02	-17.8375	-63.548554	0.000324	3.243478	1.098920	-0.000130
1454	1.4457e+02	-17.8808	-63.685816	0.000345	3.446195	1.167603	-0.000138
1455	1.4467e+02	-17.9145	-63.798856	0.000284	2.838043	0.961555	-0.000114
1456	1.4477e+02	-17.9658	-63.924007	0.000314	3.142119	1.064579	-0.000126
1457	1.4487e+02	-18.0075	-64.101641	0.000446	4.459782	1.511015	-0.000179
1458	1.4497e+02	-18.0492	-64.230830	0.000324	3.243478	1.098920	-0.000130
1459	1.4507e+02	-18.0813	-64.339832	0.000274	2.736684	0.927214	-0.000110
1460	1.4517e+02	-18.1214	-64.473058	0.000334	3.344836	1.133261	-0.000134
1461	1.4527e+02	-18.1567	-64.650692	0.000446	4.459782	1.511015	-0.000179
1462	1.4537e+02	-18.1984	-64.791991	0.000355	3.547554	1.201944	-0.000142
1463	1.4547e+02	-18.2241	-64.900994	0.000274	2.736684	0.927214	-0.000110
1464	1.4557e+02	-18.2770	-65.046331	0.000365	3.648913	1.236285	-0.000146
1465	1.4567e+02	-18.3235	-65.175519	0.000324	3.243478	1.098920	-0.000130
1466	1.4577e+02	-18.3588	-65.292596	0.000294	2.939402	0.995896	-0.000118
1467	1.4587e+02	-18.4006	-65.518676	0.000568	5.676086	1.923110	-0.000227
1468	1.4597e+02	-18.4358	-65.587307	0.000172	1.723098	0.583801	-0.000069
1469	1.4607e+02	-18.4743	-65.712458	0.000314	3.142119	1.064579	-0.000126
1470	1.4617e+02	-18.5225	-65.877981	0.000416	4.155706	1.407991	-0.000166
1471	1.4626e+02	-18.5546	-66.015244	0.000345	3.446195	1.167603	-0.000138
1472	1.4636e+02	-18.5963	-66.188840	0.000436	4.358423	1.476674	-0.000174
1473	1.4646e+02	-18.6364	-66.326103	0.000345	3.446195	1.167603	-0.000138
1474	1.4656e+02	-18.6733	-66.487588	0.000405	4.054347	1.373650	-0.000162
1475	1.4666e+02	-18.7198	-66.612740	0.000314	3.142119	1.064579	-0.000126
1476	1.4676e+02	-18.7583	-66.758077	0.000365	3.648913	1.236285	-0.000146
1477	1.4686e+02	-18.8032	-66.935711	0.000446	4.459782	1.511015	-0.000179
1478	1.4696e+02	-18.8401	-67.036639	0.000253	2.533967	0.858531	-0.000101
1479	1.4706e+02	-18.8770	-67.181976	0.000365	3.648913	1.236285	-0.000146
1480	1.4716e+02	-18.9155	-67.335387	0.000385	3.851630	1.304968	-0.000154
1481	1.4726e+02	-18.9636	-67.521095	0.000466	4.662499	1.579698	-0.000187
1482	1.4736e+02	-19.0053	-67.581652	0.000152	1.520380	0.515119	-0.000061
1483	1.4746e+02	-19.0390	-67.759286	0.000446	4.459782	1.511015	-0.000179
1484	1.4756e+02	-19.0791	-67.928846	0.000426	4.257065	1.442333	-0.000170
1485	1.4766e+02	-19.1144	-68.053997	0.000314	3.142119	1.064579	-0.000126
1486	1.4776e+02	-19.1513	-68.243743	0.000476	4.763858	1.614039	-0.000191
1487	1.4786e+02	-19.2059	-68.409265	0.000416	4.155706	1.407991	-0.000166
1488	1.4796e+02	-19.2412	-68.518268	0.000274	2.736684	0.927214	-0.000110
1489	1.4806e+02	-19.2652	-68.679753	0.000405	4.054347	1.373650	-0.000162
1490	1.4816e+02	-19.3134	-68.812979	0.000334	3.344836	1.133261	-0.000134
1491	1.4825e+02	-19.3470	-69.002724	0.000476	4.763858	1.614039	-0.000191
1492	1.4835e+02	-19.4064	-69.152098	0.000375	3.750271	1.270626	-0.000150
1493	1.4845e+02	-19.4321	-69.273212	0.000304	3.040760	1.030238	-0.000122
1494	1.4855e+02	-19.4690	-69.422586	0.000375	3.750271	1.270626	-0.000150
1495	1.4865e+02	-19.5155	-69.632517	0.000527	5.270651	1.785745	-0.000211
1496	1.4875e+02	-19.5476	-69.781891	0.000375	3.750271	1.270626	-0.000150
1497	1.4885e+02	-19.5877	-69.907042	0.000314	3.142119	1.064579	-0.000126
1498	1.4895e+02	-19.6198	-70.064491	0.000395	3.952989	1.339309	-0.000158
1499	1.4905e+02	-19.6775	-70.250199	0.000466	4.662499	1.579698	-0.000187
1500	1.4915e+02	-19.7096	-70.419759	0.000426	4.257065	1.442333	-0.000170
1501	1.4925e+02	-19.7577	-70.552984	0.000334	3.344836	1.133261	-0.000134
1502	1.4935e+02	-19.7850	-70.722544	0.000426	4.257065	1.442333	-0.000170
1503	1.4945e+02	-19.8331	-70.888066	0.000416	4.155706	1.407991	-0.000166
1504	1.4955e+02	-19.8572	-71.065700	0.000446	4.459782	1.511015	-0.000179
1505	1.4965e+02	-19.9182	-71.235260	0.000426	4.257065	1.442333	-0.000170
1506	1.4975e+02	-19.9470	-71.400783	0.000416	4.155706	1.407991	-0.000166
1507	1.4985e+02	-19.9887	-71.594565	0.000487	4.865217	1.648380	-0.000195
1508	1.4995e+02	-19.9599	-71.550157	0.000111	1.114945	0.377754	0.000045
1509	1.5005e+02	-19.9133	-71.554194	-0.000010	-0.101359	-0.034341	-0.000004
1510	1.5015e+02	-19.8668	-71.473451	0.000203	2.027174	0.686825	0.000081
1511	1.5025e+02	-19.8379	-71.513822	-0.000101	-1.013587	-0.343413	-0.000041
1512	1.5034e+02	-19.7850	-71.505748	0.000020	0.202717	0.068683	0.000008
1513	1.5044e+02	-19.7561	-71.433080	0.000182	1.824456	0.618143	0.000073
1514	1.5054e+02	-19.7064	-71.392708	0.000101	1.013587	0.343413	0.000041
1515	1.5064e+02	-19.6647	-71.384634	0.000020	0.202717	0.068683	0.000008
1516	1.5074e+02	-19.6262	-71.316003	0.000172	1.723098	0.583801	0.000069
1517	1.5084e+02	-19.5925	-71.267557	0.000122	1.216304	0.412095	0.000049
1518	1.5094e+02	-19.5572	-71.235260	0.000081	0.810869	0.274730	0.000032
1519	1.5104e+02	-19.5123	-71.170666	0.000162	1.621739	0.549460	0.000065
1520	1.5114e+02	-19.4754	-71.142406	0.000071	0.709511	0.240389	0.000028
1521	1.5124e+02	-19.4449	-71.106072	0.000091	0.912228	0.309071	0.000037
1522	1.5134e+02	-19.3984	-71.017255	0.000223	2.229891	0.755508	0.000089
1523	1.5144e+02	-19.3519	-70.968809	0.000122	1.216304	0.412095	0.000049
1524	1.5154e+02	-19.3182	-70.944586	0.000061	0.608152	0.206048	0.000024
1525	1.5164e+02	-19.2845	-70.871918	0.000182	1.824456	0.618143	0.000073
1526	1.5174e+02	-19.2428	-70.851732	0.000051	0.506793	0.171706	0.000020
1527	1.5184e+02	-19.2011	-70.746767	0.000264	2.635326	0.892873	0.000105
1528	1.5194e+02	-19.1513	-70.694284	0.000132	1.317663	0.446436	0.000053
1529	1.5204e+02	-19.1144	-70.585281	0.000274	2.736684	0.927214	0.000110
1530	1.5214e+02	-19.0823	-70.581244	0.000010	0.101359	0.034341	0.000004
1531	1.5224e+02	-19.0390	-70.480316	0.000253	2.533967	0.858531	0.000101
1532	1.5233e+02	-18.9973	-70.403610	0.000193	1.925815	0.652484	0.000077
1533	1.5243e+02	-18.9572	-70.359202	0.000111	1.114945	0.377754	0.000045
1534	1.5253e+02	-18.9203	-70.242125	0.000294	2.939402	0.995896	0.000118
1535	1.5263e+02	-18.8658	-70.201753	0.000101	1.013587	0.343413	0.000041
1536	1.5273e+02	-18.8449	-70.104862	0.000243	2.432608	0.824190	0.000097
1537	1.5283e+02	-18.8080	-70.052379	0.000132	1.317663	0.446436	0.000053
1538	1.5293e+02	-18.7567	-69.987785	0.000162	1.621739	0.549460	0.000065
1539	1.5303e+02	-18.7134	-69.858597	0.000324	3.243478	1.098920	0.000130
1540	1.5313e+02	-18.6733	-69.826300	0.000081	0.810869	0.274730	0.000032
1541	1.5323e+02	-18.6332	-69.773817	0.000132	1.317663	0.446436	0.000053
1542	1.5333e+02	-18.6043	-69.644629	0.000324	3.243478	1.098920	0.000130
1543	1.5343e+02	-18.5578	-69.580034	0.000162	1.621739	0.549460	0.000065
1544	1.5353e+02	-18.5241	-69.523515	0.000142	1.419022	0.480778	0.000057
1545	1.5363e+02	-18.4759	-69.406438	0.000294	2.939402	0.995896	0.000118
1546	1.5373e+02	-18.4391	-69.370103	0.000091	0.912228	0.309071	0.000037
1547	1.5383e+02	-18.4006	-69.244952	0.000314	3.142119	1.064579	0.000126
1548	1.5393e+02	-18.3540	-69.196507	0.000122	1.216304	0.412095	0.000049
1549	1.5403e+02	-18.3203	-69.091541	0.000264	2.635326	0.892873	0.000105
1550	1.5413e+02	-18.2706	-69.030984	0.000152	1.520380	0.515119	0.000061
1551	1.5422e+02	-18.2321	-68.921981	0.000274	2.736684	0.927214	0.000110
1552	1.5432e+02	-18.1936	-68.849313	0.000182	1.824456	0.618143	0.000073
1553	1.5442e+02	-18.1663	-68.748384	0.000253	2.533967	0.858531	0.000101
1554	1.5452e+02	-18.1326	-68.647456	0.000253	2.533967	0.858531	0.000101
1555	1.5462e+02	-18.0717	-68.566713	0.000203	2.027174	0.686825	0.000081
1556	1.5472e+02	-18.0460	-68.498082	0.000172	1.723098	0.583801	0.000069
1557	1.5482e+02	-18.0011	-68.352745	0.000365	3.648913	1.236285	0.000146
1558	1.5492e+02	-17.9674	-68.308337	0.000111	1.114945	0.377754	0.000045
1559	1.5502e+02	-17.9113	-68.207408	0.000253	2.533967	0.858531	0.000101
1560	1.5512e+02	-17.8808	-68.110517	0.000243	2.432608	0.824190	0.000097
1561	1.5522e+02	-17.8423	-68.041886	0.000172	1.723098	0.583801	0.000069
1562	1.5532e+02	-17.8086	-67.965180	0.000193	1.925815	0.652484	0.000077
1563	1.5542e+02	-17.7589	-67.876363	0.000223	2.229891	0.755508	0.000089
1564	1.5552e+02	-17.7220	-67.795620	0.000203	2.027174	0.686825	0.000081
1565	1.5562e+02	-17.6851	-67.658358	0.000345	3.446195	1.167603	0.000138
1566	1.5572e+02	-17.6482	-67.605875	0.000132	1.317663	0.446436	0.000053
1567	1.5582e+02	-17.5968	-67.517058	0.000223	2.229891	0.755508	0.000089
1568	1.5592e+02	-17.5647	-67.448427	0.000172	1.723098	0.583801	0.000069
1569	1.5602e+02	-17.5198	-67.331350	0.000294	2.939402	0.995896	0.000118
1570	1.5612e+02	-17.4781	-67.214273	0.000294	2.939402	0.995896	0.000118
1571	1.5622e+02	-17.4476	-67.145642	0.000172	1.723098	0.583801	0.000069
1572	1.5631e+02	-17.3979	-67.068936	0.000193	1.925815	0.652484	0.000077
1573	1.5641e+02	-17.3562	-66.939748	0.000324	3.243478	1.098920	0.000130
1574	1.5651e+02	-17.3305	-66.875154	0.000162	1.621739	0.549460	0.000065
1575	1.5661e+02	-17.2920	-66.782299	0.000233	2.331250	0.789849	0.000093
1576	1.5671e+02	-17.2439	-66.693482	0.000223	2.229891	0.755508	0.000089
1577	1.5681e+02	-17.2054	-66.596591	0.000243	2.432608	0.824190	0.000097
1578	1.5691e+02	-17.1621	-66.527960	0.000172	1.723098	0.583801	0.000069
1579	1.5701e+02	-17.1220	-66.427031	0.000253	2.533967	0.858531	0.000101
1580	1.5711e+02	-17.0819	-66.305917	0.000304	3.040760	1.030238	0.000122
1581	1.5721e+02	-17.0434	-66.249397	0.000142	1.419022	0.480778	0.000057
1582	1.5731e+02	-17.0065	-66.120209	0.000324	3.243478	1.098920	0.000130
1583	1.5741e+02	-16.9760	-66.039466	0.000203	2.027174	0.686825	0.000081
1584	1.5751e+02	-16.9327	-65.962761	0.000193	1.925815	0.652484	0.000077
1585	1.5761e+02	-16.8942	-65.873944	0.000223	2.229891	0.755508	0.000089
1586	1.5771e+02	-16.8396	-65.760904	0.000284	2.838043	0.961555	0.000114
1587	1.5781e+02	-16.8059	-65.664013	0.000243	2.432608	0.824190	0.000097
1588	1.5791e+02	-16.7658	-65.542899	0.000304	3.040760	1.030238	0.000122
1589	1.5801e+02	-16.7225	-65.409673	0.000334	3.344836	1.133261	0.000134
1590	1.5811e+02	-16.6872	-65.373339	0.000091	0.912228	0.309071	0.000037
1591	1.5821e+02	-16.6455	-65.264336	0.000274	2.736684	0.927214	0.000110
1592	1.5830e+02	-16.5990	-65.147259	0.000294	2.939402	0.995896	0.000118
1593	1.5840e+02	-16.5685	-65.082665	0.000162	1.621739	0.549460	0.000065
1594	1.5850e+02	-16.5220	-64.965588	0.000294	2.939402	0.995896	0.000118
1595	1.5860e+02	-16.4835	-64.864660	0.000253	2.533967	0.858531	0.000101
1596	1.5870e+02	-16.4514	-64.812177	0.000132	1.317663	0.446436	0.000053
1597	1.5880e+02	-16.4049	-64.678952	0.000334	3.344836	1.133261	0.000134
1598	1.5890e+02	-16.3616	-64.578023	0.000253	2.533967	0.858531	0.000101
1599	1.5900e+02	-16.3327	-64.481132	0.000243	2.432608	0.824190	0.000097
1600	1.5910e+02	-16.2846	-64.388278	0.000233	2.331250	0.789849	0.000093
1601	1.5920e+02	-16.2429	-64.251015	0.000345	3.446195	1.167603	0.000138
1602	1.5930e+02	-16.2140	-64.154124	0.000243	2.432608	0.824190	0.000097
1603	1.5940e+02	-16.1755	-64.069344	0.000213	2.128532	0.721166	0.000085
1604	1.5950e+02	-16.1354	-63.948230	0.000304	3.040760	1.030238	0.000122
1605	1.5960e+02	-16.0872	-63.883636	0.000162	1.621739	0.549460	0.000065
1606	1.5970e+02	-16.0455	-63.746373	0.000345	3.446195	1.167603	0.000138
1607	1.5980e+02	-16.0070	-63.673705	0.000182	1.824456	0.618143	0.000073
1608	1.5990e+02	-15.9701	-63.532405	0.000355	3.547554	1.201944	0.000142
1609	1.6000e+02	-15.9332	-63.463774	0.000172	1.723098	0.583801	0.000069
1610	1.6010e+02	-15.8899	-63.358808	0.000264	2.635326	0.892873	0.000105
1611	1.6019e+02	-15.8610	-63.286140	0.000182	1.824456	0.618143	0.000073
1612	1.6029e+02	-15.8049	-63.181174	0.000264	2.635326	0.892873	0.000105
1613	1.6039e+02	-15.7600	-63.096394	0.000213	2.128532	0.721166	0.000085
1614	1.6049e+02	-15.7311	-62.987392	0.000274	2.736684	0.927214	0.000110
1615	1.6059e+02	-15.6878	-62.870315	0.000294	2.939402	0.995896	0.000118
1616	1.6069e+02	-15.6477	-62.773424	0.000243	2.432608	0.824190	0.000097
1617	1.6079e+02	-15.6092	-62.668458	0.000264	2.635326	0.892873	0.000105
1618	1.6089e+02	-15.5675	-62.607901	0.000152	1.520380	0.515119	0.000061
1619	1.6099e+02	-15.5338	-62.474676	0.000334	3.344836	1.133261	0.000134
1620	1.6109e+02	-15.4937	-62.373747	0.000253	2.533967	0.858531	0.000101
1621	1.6119e+02	-15.4552	-62.276856	0.000243	2.432608	0.824190	0.000097
1622	1.6129e+02	-15.4087	-62.224373	0.000132	1.317663	0.446436	0.000053
1623	1.6139e+02	-15.3718	-62.099222	0.000314	3.142119	1.064579	0.000126
1624	1.6149e+02	-15.3317	-61.994256	0.000264	2.635326	0.892873	0.000105
1625	1.6159e+02	-15.2867	-61.848920	0.000365	3.648913	1.236285	0.000146
1626	1.6169e+02	-15.2482	-61.776251	0.000182	1.824456	0.618143	0.000073
1627	1.6179e+02	-15.2129	-61.715694	0.000152	1.520380	0.515119	0.000061
1628	1.6189e+02	-15.1809	-61.598617	0.000294	2.939402	0.995896	0.000118
1629	1.6199e+02	-15.1279	-61.477503	0.000304	3.040760	1.030238	0.000122
1630	1.6209e+02	-15.0942	-61.376575	0.000253	2.533967	0.858531	0.000101
1631	1.6219e+02	-15.0573	-61.299869	0.000193	1.925815	0.652484	0.000077
1632	1.6228e+02	-15.0140	-61.194904	0.000264	2.635326	0.892873	0.000105
1633	1.6238e+02	-14.9771	-61.061678	0.000334	3.344836	1.133261	0.000134
1634	1.6248e+02	-14.9306	-60.964787	0.000243	2.432608	0.824190	0.000097
1635	1.6258e+02	-14.8937	-60.871933	0.000233	2.331250	0.789849	0.000093
1636	1.6268e+02	-14.8536	-60.775041	0.000243	2.432608	0.824190	0.000097
1637	1.6278e+02	-14.8119	-60.714484	0.000152	1.520380	0.515119	0.000061
1638	1.6288e+02	-14.7686	-60.577222	0.000345	3.446195	1.167603	0.000138
1639	1.6298e+02	-14.7285	-60.500516	0.000193	1.925815	0.652484	0.000077
1640	1.6308e+02	-14.7092	-60.375365	0.000314	3.142119	1.064579	0.000126
1641	1.6318e+02	-14.6563	-60.290585	0.000213	2.128532	0.721166	0.000085
1642	1.6328e+02	-14.6130	-60.169471	0.000304	3.040760	1.030238	0.000122
1643	1.6338e+02	-14.5777	-60.068543	0.000253	2.533967	0.858531	0.000101
1644	1.6348e+02	-14.5311	-59.979726	0.000223	2.229891	0.755508	0.000089
1645	1.6358e+02	-14.4926	-59.907057	0.000182	1.824456	0.618143	0.000073
1646	1.6368e+02	-14.4525	-59.753646	0.000385	3.851630	1.304968	0.000154
1647	1.6378e+02	-14.4124	-59.701163	0.000132	1.317663	0.446436	0.000053
1648	1.6388e+02	-14.3803	-59.531604	0.000426	4.257065	1.442333	0.000170
1649	1.6398e+02	-14.3402	-59.499307	0.000081	0.810869	0.274730	0.000032
1650	1.6408e+02	-14.2873	-59.374155	0.000314	3.142119	1.064579	0.000126
1651	1.6418e+02	-14.2504	-59.220744	0.000385	3.851630	1.304968	0.000154
1652	1.6427e+02	-14.2119	-59.152113	0.000172	1.723098	0.583801	0.000069
1653	1.6437e+02	-14.1798	-59.026962	0.000314	3.142119	1.064579	0.000126
1654	1.6447e+02	-14.1413	-58.909885	0.000294	2.939402	0.995896	0.000118
1655	1.6457e+02	-14.0932	-58.812993	0.000243	2.432608	0.824190	0.000097
1656	1.6467e+02	-14.0563	-58.679768	0.000334	3.344836	1.133261	0.000134
1657	1.6477e+02	-14.0050	-58.611137	0.000172	1.723098	0.583801	0.000069
1658	1.6487e+02	-13.9713	-58.485985	0.000314	3.142119	1.064579	0.000126
1659	1.6497e+02	-13.9247	-58.372946	0.000284	2.838043	0.961555	0.000114
1660	1.6507e+02	-13.9007	-58.280092	0.000233	2.331250	0.789849	0.000093
1661	1.6517e+02	-13.8606	-58.175126	0.000264	2.635326	0.892873	0.000105
1662	1.6527e+02	-13.8140	-58.058049	0.000294	2.939402	0.995896	0.000118
1663	1.6537e+02	-13.7820	-57.981343	0.000193	1.925815	0.652484	0.000077
1664	1.6547e+02	-13.7370	-57.848118	0.000334	3.344836	1.133261	0.000134
1665	1.6557e+02	-13.7050	-57.702781	0.000365	3.648913	1.236285	0.000146
1666	1.6567e+02	-13.6584	-57.658373	0.000111	1.114945	0.377754	0.000045
1667	1.6577e+02	-13.6103	-57.541296	0.000294	2.939402	0.995896	0.000118
1668	1.6587e+02	-13.5766	-57.440367	0.000253	2.533967	0.858531	0.000101
1669	1.6597e+02	-13.5397	-57.282919	0.000395	3.952989	1.339309	0.000158
1670	1.6607e+02	-13.4980	-57.226399	0.000142	1.419022	0.480778	0.000057
1671	1.6616e+02	-13.4643	-57.117396	0.000274	2.736684	0.927214	0.000110
1672	1.6626e+02	-13.4162	-56.996282	0.000304	3.040760	1.030238	0.000122
1673	1.6636e+02	-13.3825	-56.871131	0.000314	3.142119	1.064579	0.000126
1674	1.6646e+02	-13.3376	-56.770203	0.000253	2.533967	0.858531	0.000101
1675	1.6656e+02	-13.3007	-56.677349	0.000233	2.331250	0.789849	0.000093
1676	1.6666e+02	-13.2510	-56.564309	0.000284	2.838043	0.961555	0.000114
1677	1.6676e+02	-13.2237	-56.475492	0.000223	2.229891	0.755508	0.000089
1678	1.6686e+02	-13.1772	-56.338229	0.000345	3.446195	1.167603	0.000138
1679	1.6696e+02	-13.1371	-56.221152	0.000294	2.939402	0.995896	0.000118
1680	1.6706e+02	-13.0970	-56.148484	0.000182	1.824456	0.618143	0.000073
1681	1.6716e+02	-13.0617	-56.015258	0.000334	3.344836	1.133261	0.000134
1682	1.6726e+02	-13.0232	-55.869921	0.000365	3.648913	1.236285	0.000146
1683	1.6736e+02	-12.9831	-55.801290	0.000172	1.723098	0.583801	0.000069
1684	1.6746e+02	-12.9430	-55.696325	0.000264	2.635326	0.892873	0.000105
1685	1.6756e+02	-12.8868	-55.591359	0.000264	2.635326	0.892873	0.000105
1686	1.6766e+02	-12.8643	-55.478319	0.000284	2.838043	0.961555	0.000114
1687	1.6776e+02	-12.8194	-55.361242	0.000294	2.939402	0.995896	0.000118
1688	1.6786e+02	-12.7825	-55.256277	0.000264	2.635326	0.892873	0.000105
1689	1.6796e+02	-12.7504	-55.123051	0.000334	3.344836	1.133261	0.000134
1690	1.6806e+02	-12.6975	-55.026160	0.000243	2.432608	0.824190	0.000097
1691	1.6816e+02	-12.6670	-54.917157	0.000274	2.736684	0.927214	0.000110
1692	1.6825e+02	-12.6189	-54.816229	0.000253	2.533967	0.858531	0.000101
1693	1.6835e+02	-12.5772	-54.683004	0.000334	3.344836	1.133261	0.000134
1694	1.6845e+02	-12.5419	-54.545741	0.000345	3.446195	1.167603	0.000138
1695	1.6855e+02	-12.4906	-54.456924	0.000223	2.229891	0.755508	0.000089
1696	1.6865e+02	-12.4665	-54.360033	0.000243	2.432608	0.824190	0.000097
1697	1.6875e+02	-12.4200	-54.218733	0.000355	3.547554	1.201944	0.000142
1698	1.6885e+02	-12.3847	-54.129916	0.000223	2.229891	0.755508	0.000089
1699	1.6895e+02	-12.3366	-54.024950	0.000264	2.635326	0.892873	0.000105
1700	1.6905e+02	-12.3061	-53.867502	0.000395	3.952989	1.339309	0.000158
1701	1.6915e+02	-12.2612	-53.794834	0.000182	1.824456	0.618143	0.000073
1702	1.6925e+02	-12.2291	-53.665645	0.000324	3.243478	1.098920	0.000130
1703	1.6935e+02	-12.1906	-53.540494	0.000314	3.142119	1.064579	0.000126
1704	1.6945e+02	-12.1424	-53.407269	0.000334	3.344836	1.133261	0.000134
1705	1.6955e+02	-12.0959	-53.334600	0.000182	1.824456	0.618143	0.000073
1706	1.6965e+02	-12.0638	-53.181189	0.000385	3.851630	1.304968	0.000154
1707	1.6975e+02	-12.0253	-53.100446	0.000203	2.027174	0.686825	0.000081
1708	1.6985e+02	-11.9852	-52.971258	0.000324	3.243478	1.098920	0.000130
1709	1.6995e+02	-11.9499	-52.850144	0.000304	3.040760	1.030238	0.000122
1710	1.7005e+02	-11.9050	-52.729030	0.000304	3.040760	1.030238	0.000122
1711	1.7015e+02	-11.8633	-52.587730	0.000355	3.547554	1.201944	0.000142
1712	1.7024e+02	-11.8232	-52.462579	0.000314	3.142119	1.064579	0.000126
1713	1.7034e+02	-11.7879	-52.385873	0.000193	1.925815	0.652484	0.000077
1714	1.7044e+02	-11.7398	-52.224388	0.000405	4.054347	1.373650	0.000162
1715	1.7054e+02	-11.7029	-52.111348	0.000284	2.838043	0.961555	0.000114
1716	1.7064e+02	-11.6644	-52.018494	0.000233	2.331250	0.789849	0.000093
1717	1.7074e+02	-11.6243	-51.897380	0.000304	3.040760	1.030238	0.000122
1718	1.7084e+02	-11.5858	-51.780303	0.000294	2.939402	0.995896	0.000118
1719	1.7094e+02	-11.5537	-51.659189	0.000304	3.040760	1.030238	0.000122
1720	1.7104e+02	-11.5007	-51.513852	0.000365	3.648913	1.236285	0.000146
1721	1.7114e+02	-11.4671	-51.384664	0.000324	3.243478	1.098920	0.000130
1722	1.7124e+02	-11.4205	-51.295847	0.000223	2.229891	0.755508	0.000089
1723	1.7134e+02	-11.3933	-51.118213	0.000446	4.459782	1.511015	0.000179
1724	1.7144e+02	-11.3499	-51.029396	0.000223	2.229891	0.755508	0.000089
1725	1.7154e+02	-11.3050	-50.932504	0.000243	2.432608	0.824190	0.000097
1726	1.7164e+02	-11.2649	-50.831576	0.000253	2.533967	0.858531	0.000101
1727	1.7174e+02	-11.2200	-50.694313	0.000345	3.446195	1.167603	0.000138
1728	1.7184e+02	-11.1799	-50.532828	0.000405	4.054347	1.373650	0.000162
1729	1.7194e+02	-11.1606	-50.444011	0.000223	2.229891	0.755508	0.000089
1730	1.7204e+02	-11.1125	-50.314823	0.000324	3.243478	1.098920	0.000130
1731	1.7213e+02	-11.0740	-50.205820	0.000274	2.736684	0.927214	0.000110
1732	1.7223e+02	-11.0323	-50.080669	0.000314	3.142119	1.064579	0.000126
1733	1.7233e+02	-10.9890	-49.915146	0.000416	4.155706	1.407991	0.000166
1734	1.7243e+02	-10.9505	-49.846515	0.000172	1.723098	0.583801	0.000069
1735	1.7253e+02	-10.8992	-49.713289	0.000334	3.344836	1.133261	0.000134
1736	1.7263e+02	-10.8655	-49.588138	0.000314	3.142119	1.064579	0.000126
1737	1.7273e+02	-10.8350	-49.471061	0.000294	2.939402	0.995896	0.000118
1738	1.7283e+02	-10.7901	-49.345910	0.000314	3.142119	1.064579	0.000126
1739	1.7293e+02	-10.7532	-49.236907	0.000274	2.736684	0.927214	0.000110
1740	1.7303e+02	-10.7131	-49.091571	0.000365	3.648913	1.236285	0.000146
1741	1.7313e+02	-10.6794	-48.958345	0.000334	3.344836	1.133261	0.000134
1742	1.7323e+02	-10.6232	-48.877602	0.000203	2.027174	0.686825	0.000081
1743	1.7333e+02	-10.5927	-48.720154	0.000395	3.952989	1.339309	0.000158
1744	1.7343e+02	-10.5478	-48.611151	0.000274	2.736684	0.927214	0.000110
1745	1.7353e+02	-10.5061	-48.477926	0.000334	3.344836	1.133261	0.000134
1746	1.7363e+02	-10.4756	-48.425443	0.000132	1.317663	0.446436	0.000053
1747	1.7373e+02	-10.4323	-48.272032	0.000385	3.851630	1.304968	0.000154
1748	1.7383e+02	-10.3922	-48.126695	0.000365	3.648913	1.236285	0.000146
1749	1.7393e+02	-10.3649	-48.013655	0.000284	2.838043	0.961555	0.000114
1750	1.7403e+02	-10.3104	-47.876393	0.000345	3.446195	1.167603	0.000138
1751	1.7413e+02	-10.2751	-47.787576	0.000223	2.229891	0.755508	0.000089
1752	1.7422e+02	-10.2254	-47.646276	0.000355	3.547554	1.201944	0.000142
1753	1.7432e+02	-10.1901	-47.492865	0.000385	3.851630	1.304968	0.000154
1754	1.7442e+02	-10.1596	-47.400011	0.000233	2.331250	0.789849	0.000093
1755	1.7452e+02	-10.1179	-47.291008	0.000274	2.736684	0.927214	0.000110
1756	1.7462e+02	-10.0746	-47.145671	0.000365	3.648913	1.236285	0.000146
1757	1.7472e+02	-10.0313	-47.008409	0.000345	3.446195	1.167603	0.000138
1758	1.7482e+02	-9.9944	-46.895369	0.000284	2.838043	0.961555	0.000114
1759	1.7492e+02	-9.9543	-46.729846	0.000416	4.155706	1.407991	0.000166
1760	1.7502e+02	-9.9077	-46.620844	0.000274	2.736684	0.927214	0.000110
1761	1.7512e+02	-9.8708	-46.503767	0.000294	2.939402	0.995896	0.000118
1762	1.7522e+02	-9.8323	-46.370541	0.000334	3.344836	1.133261	0.000134
1763	1.7532e+02	-9.7874	-46.261538	0.000274	2.736684	0.927214	0.000110
1764	1.7542e+02	-9.7521	-46.152536	0.000274	2.736684	0.927214	0.000110
1765	1.7552e+02	-9.7217	-46.023347	0.000324	3.243478	1.098920	0.000130
1766	1.7562e+02	-9.6703	-45.865899	0.000395	3.952989	1.339309	0.000158
1767	1.7572e+02	-9.6318	-45.777082	0.000223	2.229891	0.755508	0.000089
1768	1.7582e+02	-9.5981	-45.627708	0.000375	3.750271	1.270626	0.000150
1769	1.7592e+02	-9.5612	-45.494483	0.000334	3.344836	1.133261	0.000134
1770	1.7602e+02	-9.5115	-45.369331	0.000314	3.142119	1.064579	0.000126
1771	1.7612e+02	-9.4746	-45.236106	0.000334	3.344836	1.133261	0.000134
1772	1.7621e+02	-9.4313	-45.143252	0.000233	2.331250	0.789849	0.000093
1773	1.7631e+02	-9.3960	-45.001952	0.000355	3.547554	1.201944	0.000142
1774	1.7641e+02	-9.3559	-44.856615	0.000365	3.648913	1.236285	0.000146
1775	1.7651e+02	-9.3110	-44.775872	0.000203	2.027174	0.686825	0.000081
1776	1.7661e+02	-9.2837	-44.646684	0.000324	3.243478	1.098920	0.000130
1777	1.7671e+02	-9.2388	-44.473087	0.000436	4.358423	1.476674	0.000174
1778	1.7681e+02	-9.1890	-44.360047	0.000284	2.838043	0.961555	0.000114
1779	1.7691e+02	-9.1666	-44.251045	0.000274	2.736684	0.927214	0.000110
1780	1.7701e+02	-9.1088	-44.129931	0.000304	3.040760	1.030238	0.000122
1781	1.7711e+02	-9.0784	-43.984594	0.000365	3.648913	1.236285	0.000146
1782	1.7721e+02	-9.0366	-43.859443	0.000314	3.142119	1.064579	0.000126
1783	1.7731e+02	-8.9917	-43.762551	0.000243	2.432608	0.824190	0.000097
1784	1.7741e+02	-8.9564	-43.617215	0.000365	3.648913	1.236285	0.000146
1785	1.7751e+02	-8.9099	-43.492063	0.000314	3.142119	1.064579	0.000126
1786	1.7761e+02	-8.8730	-43.366912	0.000314	3.142119	1.064579	0.000126
1787	1.7771e+02	-8.8313	-43.177167	0.000476	4.763858	1.614039	0.000191
1788	1.7781e+02	-8.7976	-43.108535	0.000172	1.723098	0.583801	0.000069
1789	1.7791e+02	-8.7559	-42.979347	0.000324	3.243478	1.098920	0.000130
1790	1.7801e+02	-8.7254	-42.846122	0.000334	3.344836	1.133261	0.000134
1791	1.7810e+02	-8.6853	-42.716933	0.000324	3.243478	1.098920	0.000130
1792	1.7820e+02	-8.6276	-42.587745	0.000324	3.243478	1.098920	0.000130
1793	1.7830e+02	-8.5923	-42.482779	0.000264	2.635326	0.892873	0.000105
1794	1.7840e+02	-8.5602	-42.365702	0.000294	2.939402	0.995896	0.000118
1795	1.7850e+02	-8.5233	-42.208254	0.000395	3.952989	1.339309	0.000158
1796	1.7860e+02	-8.4768	-42.119437	0.000223	2.229891	0.755508	0.000089
1797	1.7870e+02	-8.4399	-41.966026	0.000385	3.851630	1.304968	0.000154
1798	1.7880e+02	-8.4078	-41.848949	0.000294	2.939402	0.995896	0.000118
1799	1.7890e+02	-8.3661	-41.715724	0.000334	3.344836	1.133261	0.000134
1800	1.7900e+02	-8.3147	-41.618832	0.000243	2.432608	0.824190	0.000097
1801	1.7910e+02	-8.2827	-41.489644	0.000324	3.243478	1.098920	0.000130
1802	1.7920e+02	-8.2393	-41.312010	0.000446	4.459782	1.511015	0.000179
1803	1.7930e+02	-8.2024	-41.219156	0.000233	2.331250	0.789849	0.000093
1804	1.7940e+02	-8.1591	-41.106116	0.000284	2.838043	0.961555	0.000114
1805	1.7950e+02	-8.1142	-41.005188	0.000253	2.533967	0.858531	0.000101
1806	1.7960e+02	-8.0805	-40.839665	0.000416	4.155706	1.407991	0.000166
1807	1.7970e+02	-8.0404	-40.690291	0.000375	3.750271	1.270626	0.000150
1808	1.7980e+02	-7.9955	-40.573214	0.000294	2.939402	0.995896	0.000118
1809	1.7990e+02	-7.9586	-40.492471	0.000203	2.027174	0.686825	0.000081
1810	1.8000e+02	-7.9249	-40.326949	0.000416	4.155706	1.407991	0.000166
1811	1.8009e+02	-7.8768	-40.221983	0.000264	2.635326	0.892873	0.000105
1812	1.8019e+02	-7.8431	-40.108944	0.000284	2.838043	0.961555	0.000114
1813	1.8029e+02	-7.8014	-39.939384	0.000426	4.257065	1.442333	0.000170
1814	1.8039e+02	-7.7677	-39.769824	0.000426	4.257065	1.442333	0.000170
1815	1.8049e+02	-7.7276	-39.681007	0.000223	2.229891	0.755508	0.000089
1816	1.8059e+02	-7.6891	-39.559893	0.000304	3.040760	1.030238	0.000122
1817	1.8069e+02	-7.6426	-39.422630	0.000345	3.446195	1.167603	0.000138
1818	1.8079e+02	-7.6025	-39.261145	0.000405	4.054347	1.373650	0.000162
1819	1.8089e+02	-7.5672	-39.131957	0.000324	3.243478	1.098920	0.000130
1820	1.8099e+02	-7.5271	-38.982583	0.000375	3.750271	1.270626	0.000150
1821	1.8109e+02	-7.4870	-38.853394	0.000324	3.243478	1.098920	0.000130
1822	1.8119e+02	-7.4436	-38.736317	0.000294	2.939402	0.995896	0.000118
1823	1.8129e+02	-7.3923	-38.647500	0.000223	2.229891	0.755508	0.000089
1824	1.8139e+02	-7.3570	-38.477941	0.000426	4.257065	1.442333	0.000170
1825	1.8149e+02	-7.3217	-38.372975	0.000264	2.635326	0.892873	0.000105
1826	1.8159e+02	-7.2784	-38.235713	0.000345	3.446195	1.167603	0.000138
1827	1.8169e+02	-7.2415	-38.106524	0.000324	3.243478	1.098920	0.000130
1828	1.8179e+02	-7.2046	-37.953113	0.000385	3.851630	1.304968	0.000154
1829	1.8189e+02	-7.1581	-37.819888	0.000334	3.344836	1.133261	0.000134
1830	1.8199e+02	-7.1180	-37.674551	0.000365	3.648913	1.236285	0.000146
1831	1.8209e+02	-7.0827	-37.529214	0.000365	3.648913	1.236285	0.000146
1832	1.8218e+02	-7.0490	-37.464620	0.000162	1.621739	0.549460	0.000065
1833	1.8228e+02	-7.0025	-37.327357	0.000345	3.446195	1.167603	0.000138
1834	1.8238e+02	-6.9656	-37.173946	0.000385	3.851630	1.304968	0.000154
1835	1.8248e+02	-6.9239	-36.992275	0.000456	4.561141	1.545356	0.000183
1836	1.8258e+02	-6.8870	-36.875198	0.000294	2.939402	0.995896	0.000118
1837	1.8268e+02	-6.8501	-36.733898	0.000355	3.547554	1.201944	0.000142
1838	1.8278e+02	-6.7955	-36.592598	0.000355	3.547554	1.201944	0.000142
1839	1.8288e+02	-6.7683	-36.459373	0.000334	3.344836	1.133261	0.000134
1840	1.8298e+02	-6.7282	-36.350370	0.000274	2.736684	0.927214	0.000110
1841	1.8308e+02	-6.6897	-36.237330	0.000284	2.838043	0.961555	0.000114
1842	1.8318e+02	-6.6415	-36.083919	0.000385	3.851630	1.304968	0.000154
1843	1.8328e+02	-6.5982	-35.934545	0.000375	3.750271	1.270626	0.000150
1844	1.8338e+02	-6.5581	-35.781134	0.000385	3.851630	1.304968	0.000154
1845	1.8348e+02	-6.5228	-35.639834	0.000355	3.547554	1.201944	0.000142
1846	1.8358e+02	-6.4843	-35.555054	0.000213	2.128532	0.721166	0.000085
1847	1.8368e+02	-6.4602	-35.397606	0.000395	3.952989	1.339309	0.000158
1848	1.8378e+02	-6.4137	-35.260344	0.000345	3.446195	1.167603	0.000138
1849	1.8388e+02	-6.3688	-35.115007	0.000365	3.648913	1.236285	0.000146
1850	1.8398e+02	-6.3239	-35.006004	0.000274	2.736684	0.927214	0.000110
1851	1.8407e+02	-6.2966	-34.852593	0.000385	3.851630	1.304968	0.000154
1852	1.8417e+02	-6.2517	-34.723404	0.000324	3.243478	1.098920	0.000130
1853	1.8427e+02	-6.2164	-34.614402	0.000274	2.736684	0.927214	0.000110
1854	1.8437e+02	-6.1699	-34.432731	0.000456	4.561141	1.545356	0.000183
1855	1.8447e+02	-6.1314	-34.315654	0.000294	2.939402	0.995896	0.000118
1856	1.8457e+02	-6.1009	-34.166280	0.000375	3.750271	1.270626	0.000150
1857	1.8467e+02	-6.0496	-34.089574	0.000193	1.925815	0.652484	0.000077
1858	1.8477e+02	-6.0095	-33.920014	0.000426	4.257065	1.442333	0.000170
1859	1.8487e+02	-5.9742	-33.758529	0.000405	4.054347	1.373650	0.000162
1860	1.8497e+02	-5.9292	-33.597044	0.000405	4.054347	1.373650	0.000162
1861	1.8507e+02	-5.8827	-33.471892	0.000314	3.142119	1.064579	0.000126
1862	1.8517e+02	-5.8522	-33.330593	0.000355	3.547554	1.201944	0.000142
1863	1.8527e+02	-5.8073	-33.185256	0.000365	3.648913	1.236285	0.000146
1864	1.8537e+02	-5.7768	-33.060105	0.000314	3.142119	1.064579	0.000126
1865	1.8547e+02	-5.7271	-32.890545	0.000426	4.257065	1.442333	0.000170
1866	1.8557e+02	-5.6918	-32.773468	0.000294	2.939402	0.995896	0.000118
1867	1.8567e+02	-5.6469	-32.628131	0.000365	3.648913	1.236285	0.000146
1868	1.8577e+02	-5.6116	-32.498943	0.000324	3.243478	1.098920	0.000130
1869	1.8587e+02	-5.5747	-32.313234	0.000466	4.662499	1.579698	0.000187
1870	1.8597e+02	-5.5266	-32.163860	0.000375	3.750271	1.270626	0.000150
1871	1.8606e+02	-5.4897	-32.066969	0.000243	2.432608	0.824190	0.000097
1872	1.8616e+02	-5.4432	-31.949892	0.000294	2.939402	0.995896	0.000118
1873	1.8626e+02	-5.4159	-31.784370	0.000416	4.155706	1.407991	0.000166
1874	1.8636e+02	-5.3758	-31.610773	0.000436	4.358423	1.476674	0.000174
1875	1.8646e+02	-5.3373	-31.489659	0.000304	3.040760	1.030238	0.000122
1876	1.8656e+02	-5.2908	-31.340285	0.000375	3.750271	1.270626	0.000150
1877	1.8666e+02	-5.2555	-31.215134	0.000314	3.142119	1.064579	0.000126
1878	1.8676e+02	-5.2122	-31.077871	0.000345	3.446195	1.167603	0.000138
1879	1.8686e+02	-5.1720	-30.904274	0.000436	4.358423	1.476674	0.000174
1880	1.8696e+02	-5.1287	-30.758937	0.000365	3.648913	1.236285	0.000146
1881	1.8706e+02	-5.0934	-30.585340	0.000436	4.358423	1.476674	0.000174
1882	1.8716e+02	-5.0437	-30.480375	0.000264	2.635326	0.892873	0.000105
1883	1.8726e+02	-5.0212	-30.326964	0.000385	3.851630	1.304968	0.000154
1884	1.8736e+02	-4.9779	-30.165478	0.000405	4.054347	1.373650	0.000162
1885	1.8746e+02	-4.9394	-30.003993	0.000405	4.054347	1.373650	0.000162
1886	1.8756e+02	-4.9025	-29.878842	0.000314	3.142119	1.064579	0.000126
1887	1.8766e+02	-4.8464	-29.745616	0.000334	3.344836	1.133261	0.000134
1888	1.8776e+02	-4.8079	-29.584131	0.000405	4.054347	1.373650	0.000162
1889	1.8786e+02	-4.7630	-29.450905	0.000334	3.344836	1.133261	0.000134
1890	1.8796e+02	-4.7405	-29.277308	0.000436	4.358423	1.476674	0.000174
1891	1.8806e+02	-4.6956	-29.119860	0.000395	3.952989	1.339309	0.000158
1892	1.8815e+02	-4.6571	-28.970486	0.000375	3.750271	1.270626	0.000150
1893	1.8825e+02	-4.6138	-28.800926	0.000426	4.257065	1.442333	0.000170
1894	1.8835e+02	-4.5817	-28.671738	0.000324	3.243478	1.098920	0.000130
1895	1.8845e+02	-4.5304	-28.530438	0.000355	3.547554	1.201944	0.000142
1896	1.8855e+02	-4.4999	-28.377027	0.000385	3.851630	1.304968	0.000154
1897	1.8865e+02	-4.4566	-28.219579	0.000395	3.952989	1.339309	0.000158
1898	1.8875e+02	-4.4132	-28.090390	0.000324	3.243478	1.098920	0.000130
1899	1.8885e+02	-4.3876	-27.916794	0.000436	4.358423	1.476674	0.000174
1900	1.8895e+02	-4.3330	-27.767420	0.000375	3.750271	1.270626	0.000150
1901	1.8905e+02	-4.2961	-27.601897	0.000416	4.155706	1.407991	0.000166
1902	1.8915e+02	-4.2657	-27.500969	0.000253	2.533967	0.858531	0.000101
1903	1.8925e+02	-4.2175	-27.327372	0.000436	4.358423	1.476674	0.000174
1904	1.8935e+02	-4.1758	-27.165886	0.000405	4.054347	1.373650	0.000162
1905	1.8945e+02	-4.1405	-27.068995	0.000243	2.432608	0.824190	0.000097
1906	1.8955e+02	-4.0988	-26.919621	0.000375	3.750271	1.270626	0.000150
1907	1.8965e+02	-4.0683	-26.758136	0.000405	4.054347	1.373650	0.000162
1908	1.8975e+02	-4.0218	-26.620873	0.000345	3.446195	1.167603	0.000138
1909	1.8985e+02	-3.9705	-26.455350	0.000416	4.155706	1.407991	0.000166
1910	1.8995e+02	-3.9352	-26.269642	0.000466	4.662499	1.579698	0.000187
1911	1.9004e+02	-3.8967	-26.152565	0.000294	2.939402	0.995896	0.000118
1912	1.9014e+02	-3.8566	-25.995117	0.000395	3.952989	1.339309	0.000158
1913	1.9024e+02	-3.8165	-25.882077	0.000284	2.838043	0.961555	0.000114
1914	1.9034e+02	-3.7796	-25.728666	0.000385	3.851630	1.304968	0.000154
1915	1.9044e+02	-3.7298	-25.555069	0.000436	4.358423	1.476674	0.000174
1916	1.9054e+02	-3.6962	-25.413769	0.000355	3.547554	1.201944	0.000142
1917	1.9064e+02	-3.6673	-25.228061	0.000466	4.662499	1.579698	0.000187
1918	1.9074e+02	-3.6240	-25.115021	0.000284	2.838043	0.961555	0.000114
1919	1.9084e+02	-3.5855	-24.949499	0.000416	4.155706	1.407991	0.000166
1920	1.9094e+02	-3.5566	-24.796088	0.000385	3.851630	1.304968	0.000154
1921	1.9104e+02	-3.4988	-24.638639	0.000395	3.952989	1.339309	0.000158
1922	1.9114e+02	-3.4619	-24.521562	0.000294	2.939402	0.995896	0.000118
1923	1.9124e+02	-3.4218	-24.396411	0.000314	3.142119	1.064579	0.000126
1924	1.9134e+02	-3.3801	-24.154183	0.000608	6.081521	2.060475	0.000243
1925	1.9144e+02	-3.3384	-24.049218	0.000264	2.635326	0.892873	0.000105
1926	1.9154e+02	-3.3015	-23.867546	0.000456	4.561141	1.545356	0.000183
1927	1.9164e+02	-3.2630	-23.710098	0.000395	3.952989	1.339309	0.000158
1928	1.9174e+02	-3.2229	-23.580910	0.000324	3.243478	1.098920	0.000130
1929	1.9184e+02	-3.1796	-23.407313	0.000436	4.358423	1.476674	0.000174
1930	1.9194e+02	-3.1427	-23.249865	0.000395	3.952989	1.339309	0.000158
1931	1.9203e+02	-3.1026	-23.112602	0.000345	3.446195	1.167603	0.000138
1932	1.9213e+02	-3.0641	-22.967265	0.000365	3.648913	1.236285	0.000146
1933	1.9223e+02	-3.0192	-22.825965	0.000355	3.547554	1.201944	0.000142
1934	1.9233e+02	-2.9871	-22.644294	0.000456	4.561141	1.545356	0.000183
1935	1.9243e+02	-2.9390	-22.519143	0.000314	3.142119	1.064579	0.000126
1936	1.9253e+02	-2.9101	-22.317286	0.000507	5.067934	1.717063	0.000203
1937	1.9263e+02	-2.8555	-22.196172	0.000304	3.040760	1.030238	0.000122
1938	1.9273e+02	-2.8251	-21.990278	0.000517	5.169293	1.751404	0.000207
1939	1.9283e+02	-2.7849	-21.889350	0.000253	2.533967	0.858531	0.000101
1940	1.9293e+02	-2.7448	-21.731902	0.000395	3.952989	1.339309	0.000158
1941	1.9303e+02	-2.7047	-21.574453	0.000395	3.952989	1.339309	0.000158
1942	1.9313e+02	-2.6662	-21.392782	0.000456	4.561141	1.545356	0.000183
1943	1.9323e+02	-2.6229	-21.239371	0.000385	3.851630	1.304968	0.000154
1944	1.9333e+02	-2.5892	-21.102109	0.000345	3.446195	1.167603	0.000138
1945	1.9343e+02	-2.5459	-20.948697	0.000385	3.851630	1.304968	0.000154
1946	1.9353e+02	-2.5058	-20.799323	0.000375	3.750271	1.270626	0.000150
1947	1.9363e+02	-2.4641	-20.637838	0.000405	4.054347	1.373650	0.000162
1948	1.9373e+02	-2.4256	-20.488464	0.000375	3.750271	1.270626	0.000150
1949	1.9383e+02	-2.3839	-20.335053	0.000385	3.851630	1.304968	0.000154
1950	1.9393e+02	-2.3438	-20.185679	0.000375	3.750271	1.270626	0.000150
1951	1.9403e+02	-2.3053	-19.991896	0.000487	4.865217	1.648380	0.000195
1952	1.9412e+02	-2.2636	-19.874819	0.000294	2.939402	0.995896	0.000118
1953	1.9422e+02	-2.2347	-19.737557	0.000345	3.446195	1.167603	0.000138
1954	1.9432e+02	-2.1914	-19.559923	0.000446	4.459782	1.511015	0.000179
1955	1.9442e+02	-2.1449	-19.430734	0.000324	3.243478	1.098920	0.000130
1956	1.9452e+02	-2.1128	-19.265212	0.000416	4.155706	1.407991	0.000166
1957	1.9462e+02	-2.0663	-19.107763	0.000395	3.952989	1.339309	0.000158
1958	1.9472e+02	-2.0245	-19.014909	0.000233	2.331250	0.789849	0.000093
1959	1.9482e+02	-1.9876	-18.821127	0.000487	4.865217	1.648380	0.000195
1960	1.9492e+02	-1.9475	-18.619270	0.000507	5.067934	1.717063	0.000203
1961	1.9502e+02	-1.9058	-18.502193	0.000294	2.939402	0.995896	0.000118
1962	1.9512e+02	-1.8737	-18.320522	0.000456	4.561141	1.545356	0.000183
1963	1.9522e+02	-1.8304	-18.211519	0.000274	2.736684	0.927214	0.000110
1964	1.9532e+02	-1.7775	-18.033885	0.000446	4.459782	1.511015	0.000179
1965	1.9542e+02	-1.7486	-17.888548	0.000365	3.648913	1.236285	0.000146
1966	1.9552e+02	-1.7037	-17.670543	0.000547	5.473369	1.854428	0.000219
1967	1.9562e+02	-1.6684	-17.569615	0.000253	2.533967	0.858531	0.000101
1968	1.9572e+02	-1.6363	-17.424278	0.000365	3.648913	1.236285	0.000146
1969	1.9582e+02	-1.5930	-17.258755	0.000416	4.155706	1.407991	0.000166
1970	1.9592e+02	-1.5545	-17.069010	0.000476	4.763858	1.614039	0.000191
1971	1.9601e+02	-1.5096	-16.911562	0.000395	3.952989	1.339309	0.000158
1972	1.9611e+02	-1.4743	-16.766225	0.000365	3.648913	1.236285	0.000146
1973	1.9621e+02	-1.4294	-16.624925	0.000355	3.547554	1.201944	0.000142
1974	1.9631e+02	-1.3893	-16.487662	0.000345	3.446195	1.167603	0.000138
1975	1.9641e+02	-1.3508	-16.342325	0.000365	3.648913	1.236285	0.000146
1976	1.9651e+02	-1.3074	-16.168729	0.000436	4.358423	1.476674	0.000174
1977	1.9661e+02	-1.2706	-16.019355	0.000375	3.750271	1.270626	0.000150
1978	1.9671e+02	-1.2272	-15.837684	0.000456	4.561141	1.545356	0.000183
1979	1.9681e+02	-1.2032	-15.724644	0.000284	2.838043	0.961555	0.000114
1980	1.9691e+02	-1.1502	-15.534898	0.000476	4.763858	1.614039	0.000191
1981	1.9701e+02	-1.1133	-15.349190	0.000466	4.662499	1.579698	0.000187
1982	1.9711e+02	-1.0732	-15.256336	0.000233	2.331250	0.789849	0.000093
1983	1.9721e+02	-1.0363	-15.078702	0.000446	4.459782	1.511015	0.000179
1984	1.9731e+02	-0.9914	-14.929328	0.000375	3.750271	1.270626	0.000150
1985	1.9741e+02	-0.9545	-14.731508	0.000497	4.966575	1.682721	0.000199
1986	1.9751e+02	-0.9160	-14.614431	0.000294	2.939402	0.995896	0.000118
1987	1.9761e+02	-0.8615	-14.456983	0.000395	3.952989	1.339309	0.000158
1988	1.9771e+02	-0.8374	-14.271275	0.000466	4.662499	1.579698	0.000187
1989	1.9781e+02	-0.7893	-14.121901	0.000375	3.750271	1.270626	0.000150
1990	1.9791e+02	-0.7556	-13.964453	0.000395	3.952989	1.339309	0.000158
1991	1.9800e+02	-0.7235	-13.774707	0.000476	4.763858	1.614039	0.000191
1992	1.9810e+02	-0.6690	-13.617259	0.000395	3.952989	1.339309	0.000158
1993	1.9820e+02	-0.6369	-13.496145	0.000304	3.040760	1.030238	0.000122
1994	1.9830e+02	-0.5936	-13.314474	0.000456	4.561141	1.545356	0.000183
1995	1.9840e+02	-0.5486	-13.181248	0.000334	3.344836	1.133261	0.000134
1996	1.9850e+02	-0.5118	-13.019763	0.000405	4.054347	1.373650	0.000162
1997	1.9860e+02	-0.4749	-12.834055	0.000466	4.662499	1.579698	0.000187
1998	1.9870e+02	-0.4380	-12.664495	0.000426	4.257065	1.442333	0.000170
1999	1.9880e+02	-0.3850	-12.503009	0.000405	4.054347	1.373650	0.000162
2000	1.9890e+02	-0.3545	-12.402081	0.000253	2.533967	0.858531	0.000101
2001	1.9900e+02	-0.3192	-12.196187	0.000517	5.169293	1.751404	0.000207
2002	1.9910e+02	-0.2904	-12.038739	0.000395	3.952989	1.339309	0.000158
2003	1.9920e+02	-0.2294	-11.877253	0.000405	4.054347	1.373650	0.000162
2004	1.9930e+02	-0.2005	-11.711731	0.000416	4.155706	1.407991	0.000166
2005	1.9940e+02	-0.1524	-11.546208	0.000416	4.155706	1.407991	0.000166
2006	1.9950e+02	-0.1107	-11.380686	0.000416	4.155706	1.407991	0.000166
2007	1.9960e+02	-0.0722	-11.239386	0.000355	3.547554	1.201944	0.000142
2008	1.9970e+02	-0.0305	-11.106160	0.000334	3.344836	1.133261	0.000134
2009	1.9980e+02	0.0032	-10.892192	0.000334	3.344836	1.133261	0.000215

PMax (uC/cm2):	7.77e+01
Pr (uC/cm2):	6.13e+00
-Pr (uC/cm2):	-4.82e+00
PLoss (uC/cm2):	-4.77e+00
-Vc:	-1.50e+00
C (Max-Eff) (nF):	3.88e-01
K (Eff):	1.32e+03
Vert. (+/-Pr) Shift (uC/cm2):	6.52e-01
Offset (uC/cm2):	6.07e+00

A (Loop Area - uC/cm2·Volts):	4.84e-02



Hysteresis Version: 5.48.1 - Radiant Technologies, Inc., 1999 - 9/12/24

