»»»»»»»»»»»»»»»»»»»»»»»»»»»»»»»»»»»» Hysteresis ««««««««««««««««««««««««««««««««««««
»»»  Executed Version:	5.48.1
»»»  Vision Version:	5.48.4 (R)
»»»  Vision Compiled:	9/18/24
»»»  Driver Version:	5.47.0
»»»  Windows Version:	Windows 8 or 8.1
»»»  Processor Information:	x86 (AMD or Intel) - 32 Processors
»»»  Tester Name:	PMF21124-494 (100V)
»»»  Tester S/N:	PMF21124-494
»»»  Internal Amp Type:	100V RevK 270k
»»»  Internal Amp S/N:	iAB2-596/K     
»»»  Execution Count:	1
»»»»»»»»»»»»»»»»»»»»»»»»»»»»»»»»»»»»»»»»»»««««««««««««««««««««««««««««««««««««««««««

Stored:	6/19/2025 - 21:6:23
Configured:	06/19/25 10:04:32 AM
Executed:	06/19/25 09:05:52 PM

»»»»»»»»»»»»»»»»»»»»»»»»»»»»»»»»»»» Sample Info ««««««««««««««««««««««««««««««««««««
Sample Name:	
Lot Name:	
Wafer Name:	
Die Row/Column:	0/0
Capacitor Number:	0
Sample Area (cm2):	1.00e-04
Sample Thickness (microns):	3.00e-01

Amplifier:	Internal

»»»»»»»»»»»»»»»»»»»»»»»»»»»»»»»»»»» Tester Info «««««««««««««««««««««««««««««««««««
Tester Name:	PMF21124-494 (100V)
Tester Serial Number:	PMF21124-494
Return Signal Amp. Level:	0.19 [Index: 3]

»»»»»»»»»»»»»»»»»»»»»»»»»»»»»»»» Hysteresis Info ««««««««««««««««««««««««««««««««««
Task Name:	Hyst-1168
Volts:	20.00
Field:	666.67 (kV/cm)
DCBias:	0.00
DCField:	0.00 (kV/cm)
Hysteresis Period (ms):	2.00e+02
Preset:	Enabled
Preset Delay (ms):	1.00e+03
Profile:	Standard Bipolar

»»»»»»»»»»»»»»»»»»»»»»»»»»»»»»»»»»»»»» Data «««««««««««««««««««««««««««««««««««««««
Points:	2009

Valid Data

Point	Time (ms)	Drive Voltage	Measured Polarization (uC/cm2)	Capacitance (uF)	Normalized Capacitance (uF/cm2)	Dielectric Constant	Instantaneous Current (mA)
   1	0.0000e+00	0.0016	-6.408953	0.000294	2.939697	0.995996	0.000118
   2	9.9500e-02	0.0305	-6.291876	0.000294	2.939697	0.995996	0.000118
   3	1.9900e-01	0.0802	-6.134428	0.000395	3.953385	1.339443	0.000158
   4	2.9850e-01	0.1107	-5.968905	0.000416	4.156123	1.408133	0.000166
   5	3.9800e-01	0.1524	-5.835680	0.000335	3.345172	1.133375	0.000134
   6	4.9750e-01	0.2021	-5.722640	0.000284	2.838328	0.961651	0.000114
   7	5.9700e-01	0.2342	-5.549043	0.000436	4.358860	1.476822	0.000174
   8	6.9650e-01	0.2807	-5.367372	0.000456	4.561598	1.545511	0.000183
   9	7.9600e-01	0.3128	-5.246258	0.000304	3.041065	1.030341	0.000122
  10	8.9550e-01	0.3545	-5.052475	0.000487	4.865705	1.648545	0.000195
  11	9.9500e-01	0.3962	-4.923287	0.000324	3.243803	1.099030	0.000130
  12	1.0945e+00	0.4364	-4.810247	0.000284	2.838328	0.961651	0.000114
  13	1.1940e+00	0.4700	-4.656836	0.000385	3.852016	1.305098	0.000154
  14	1.2935e+00	0.5198	-4.527648	0.000324	3.243803	1.099030	0.000130
  15	1.3930e+00	0.5551	-4.350014	0.000446	4.460229	1.511167	0.000179
  16	1.4925e+00	0.5920	-4.176417	0.000436	4.358860	1.476822	0.000174
  17	1.5920e+00	0.6433	-4.006857	0.000426	4.257492	1.442477	0.000170
  18	1.6915e+00	0.6818	-3.865557	0.000355	3.547910	1.202064	0.000142
  19	1.7910e+00	0.7123	-3.736369	0.000324	3.243803	1.099030	0.000130
  20	1.8905e+00	0.7556	-3.526438	0.000527	5.271180	1.785924	0.000211
  21	1.9900e+00	0.7973	-3.373027	0.000385	3.852016	1.305098	0.000154
  22	2.0895e+00	0.8310	-3.211541	0.000405	4.054754	1.373788	0.000162
  23	2.1890e+00	0.8775	-3.046019	0.000416	4.156123	1.408133	0.000166
  24	2.2885e+00	0.9112	-2.892608	0.000385	3.852016	1.305098	0.000154
  25	2.3880e+00	0.9513	-2.735159	0.000395	3.953385	1.339443	0.000158
  26	2.4875e+00	0.9946	-2.557525	0.000446	4.460229	1.511167	0.000179
  27	2.5870e+00	1.0299	-2.428337	0.000324	3.243803	1.099030	0.000130
  28	2.6865e+00	1.0668	-2.291075	0.000345	3.446541	1.167720	0.000138
  29	2.7860e+00	1.1069	-2.093255	0.000497	4.967074	1.682890	0.000199
  30	2.8855e+00	1.1583	-1.935807	0.000395	3.953385	1.339443	0.000158
  31	2.9850e+00	1.1935	-1.786433	0.000375	3.750647	1.270754	0.000150
  32	3.0845e+00	1.2401	-1.661281	0.000314	3.142434	1.064686	0.000126
  33	3.1840e+00	1.2770	-1.507870	0.000385	3.852016	1.305098	0.000154
  34	3.2835e+00	1.3074	-1.338310	0.000426	4.257492	1.442477	0.000170
  35	3.3830e+00	1.3604	-1.172788	0.000416	4.156123	1.408133	0.000166
  36	3.4825e+00	1.3893	-0.995154	0.000446	4.460229	1.511167	0.000179
  37	3.5820e+00	1.4358	-0.817520	0.000446	4.460229	1.511167	0.000179
  38	3.6815e+00	1.4759	-0.656035	0.000405	4.054754	1.373788	0.000162
  39	3.7810e+00	1.5160	-0.474363	0.000456	4.561598	1.545511	0.000183
  40	3.8805e+00	1.5593	-0.312878	0.000405	4.054754	1.373788	0.000162
  41	3.9800e+00	1.5802	-0.187727	0.000314	3.142434	1.064686	0.000126
  42	4.0795e+00	1.6315	-0.026241	0.000405	4.054754	1.373788	0.000162
  43	4.1790e+00	1.6700	0.098910	0.000314	3.142434	1.064686	0.000126
  44	4.2785e+00	1.7037	0.284618	0.000466	4.662967	1.579856	0.000187
  45	4.3780e+00	1.7422	0.454178	0.000426	4.257492	1.442477	0.000170
  46	4.4775e+00	1.7839	0.603552	0.000375	3.750647	1.270754	0.000150
  47	4.5770e+00	1.8272	0.756963	0.000385	3.852016	1.305098	0.000154
  48	4.6765e+00	1.8721	0.922486	0.000416	4.156123	1.408133	0.000166
  49	4.7760e+00	1.9106	1.079934	0.000395	3.953385	1.339443	0.000158
  50	4.8755e+00	1.9475	1.237382	0.000395	3.953385	1.339443	0.000158
  51	4.9750e+00	1.9892	1.398868	0.000405	4.054754	1.373788	0.000162
  52	5.0745e+00	2.0342	1.556316	0.000395	3.953385	1.339443	0.000158
  53	5.1740e+00	2.0727	1.721838	0.000416	4.156123	1.408133	0.000166
  54	5.2735e+00	2.1112	1.867175	0.000365	3.649279	1.236409	0.000146
  55	5.3730e+00	2.1497	2.052884	0.000466	4.662967	1.579856	0.000187
  56	5.4725e+00	2.1866	2.190146	0.000345	3.446541	1.167720	0.000138
  57	5.5720e+00	2.2235	2.311260	0.000304	3.041065	1.030341	0.000122
  58	5.6715e+00	2.2684	2.529266	0.000547	5.473918	1.854614	0.000219
  59	5.7710e+00	2.3101	2.674602	0.000365	3.649279	1.236409	0.000146
  60	5.8705e+00	2.3470	2.852236	0.000446	4.460229	1.511167	0.000179
  61	5.9700e+00	2.3791	3.017759	0.000416	4.156123	1.408133	0.000166
  62	6.0695e+00	2.4288	3.187319	0.000426	4.257492	1.442477	0.000170
  63	6.1690e+00	2.4641	3.340730	0.000385	3.852016	1.305098	0.000154
  64	6.2685e+00	2.5170	3.514327	0.000436	4.358860	1.476822	0.000174
  65	6.3680e+00	2.5443	3.679849	0.000416	4.156123	1.408133	0.000166
  66	6.4675e+00	2.5812	3.805000	0.000314	3.142434	1.064686	0.000126
  67	6.5670e+00	2.6277	4.002820	0.000497	4.967074	1.682890	0.000199
  68	6.6665e+00	2.6727	4.111823	0.000274	2.736959	0.927307	0.000110
  69	6.7660e+00	2.7095	4.329828	0.000547	5.473918	1.854614	0.000219
  70	6.8655e+00	2.7497	4.487276	0.000395	3.953385	1.339443	0.000158
  71	6.9650e+00	2.7866	4.636650	0.000375	3.750647	1.270754	0.000150
  72	7.0645e+00	2.8283	4.802173	0.000416	4.156123	1.408133	0.000166
  73	7.1640e+00	2.8684	5.012104	0.000527	5.271180	1.785924	0.000211
  74	7.2635e+00	2.9133	5.157441	0.000365	3.649279	1.236409	0.000146
  75	7.3630e+00	2.9518	5.314889	0.000395	3.953385	1.339443	0.000158
  76	7.4625e+00	2.9855	5.452152	0.000345	3.446541	1.167720	0.000138
  77	7.5620e+00	3.0288	5.654009	0.000507	5.068442	1.717235	0.000203
  78	7.6615e+00	3.0769	5.803383	0.000375	3.750647	1.270754	0.000150
  79	7.7610e+00	3.1058	5.956794	0.000385	3.852016	1.305098	0.000154
  80	7.8605e+00	3.1507	6.154613	0.000497	4.967074	1.682890	0.000199
  81	7.9600e+00	3.1844	6.295913	0.000355	3.547910	1.202064	0.000142
  82	8.0595e+00	3.2293	6.453361	0.000395	3.953385	1.339443	0.000158
  83	8.1590e+00	3.2694	6.594661	0.000355	3.547910	1.202064	0.000142
  84	8.2585e+00	3.3063	6.812667	0.000547	5.473918	1.854614	0.000219
  85	8.3580e+00	3.3448	6.970115	0.000395	3.953385	1.339443	0.000158
  86	8.4575e+00	3.3753	7.115452	0.000365	3.649279	1.236409	0.000146
  87	8.5570e+00	3.4186	7.272900	0.000395	3.953385	1.339443	0.000158
  88	8.6565e+00	3.4619	7.494942	0.000558	5.575287	1.888958	0.000223
  89	8.7560e+00	3.5052	7.640279	0.000365	3.649279	1.236409	0.000146
  90	8.8555e+00	3.5486	7.769468	0.000324	3.243803	1.099030	0.000130
  91	8.9550e+00	3.5823	7.947102	0.000446	4.460229	1.511167	0.000179
  92	9.0545e+00	3.6240	8.144921	0.000497	4.967074	1.682890	0.000199
  93	9.1540e+00	3.6593	8.314481	0.000426	4.257492	1.442477	0.000170
  94	9.2535e+00	3.7042	8.500189	0.000466	4.662967	1.579856	0.000187
  95	9.3530e+00	3.7411	8.669749	0.000426	4.257492	1.442477	0.000170
  96	9.4525e+00	3.7780	8.819123	0.000375	3.750647	1.270754	0.000150
  97	9.5520e+00	3.8309	8.936200	0.000294	2.939697	0.995996	0.000118
  98	9.6515e+00	3.8630	9.121908	0.000466	4.662967	1.579856	0.000187
  99	9.7510e+00	3.8999	9.331839	0.000527	5.271180	1.785924	0.000211
 100	9.8505e+00	3.9416	9.493325	0.000405	4.054754	1.373788	0.000162
 101	9.9500e+00	3.9785	9.630587	0.000345	3.446541	1.167720	0.000138
 102	1.0050e+01	4.0282	9.828407	0.000497	4.967074	1.682890	0.000199
 103	1.0149e+01	4.0603	9.973744	0.000365	3.649279	1.236409	0.000146
 104	1.0248e+01	4.1068	10.127155	0.000385	3.852016	1.305098	0.000154
 105	1.0348e+01	4.1469	10.341123	0.000537	5.372549	1.820269	0.000215
 106	1.0447e+01	4.1903	10.462237	0.000304	3.041065	1.030341	0.000122
 107	1.0547e+01	4.2223	10.635834	0.000436	4.358860	1.476822	0.000174
 108	1.0646e+01	4.2657	10.813468	0.000446	4.460229	1.511167	0.000179
 109	1.0746e+01	4.3058	11.035511	0.000558	5.575287	1.888958	0.000223
 110	1.0845e+01	4.3411	11.160662	0.000314	3.142434	1.064686	0.000126
 111	1.0945e+01	4.3860	11.370593	0.000527	5.271180	1.785924	0.000211
 112	1.1044e+01	4.4197	11.511893	0.000355	3.547910	1.202064	0.000142
 113	1.1144e+01	4.4662	11.697601	0.000466	4.662967	1.579856	0.000187
 114	1.1243e+01	4.4967	11.855049	0.000395	3.953385	1.339443	0.000158
 115	1.1343e+01	4.5352	11.976163	0.000304	3.041065	1.030341	0.000122
 116	1.1443e+01	4.5769	12.153797	0.000446	4.460229	1.511167	0.000179
 117	1.1542e+01	4.6154	12.343543	0.000476	4.764336	1.614201	0.000191
 118	1.1642e+01	4.6651	12.513102	0.000426	4.257492	1.442477	0.000170
 119	1.1741e+01	4.7068	12.654402	0.000355	3.547910	1.202064	0.000142
 120	1.1841e+01	4.7469	12.832036	0.000446	4.460229	1.511167	0.000179
 121	1.1940e+01	4.7838	12.973336	0.000355	3.547910	1.202064	0.000142
 122	1.2040e+01	4.8175	13.155007	0.000456	4.561598	1.545511	0.000183
 123	1.2139e+01	4.8528	13.352826	0.000497	4.967074	1.682890	0.000199
 124	1.2239e+01	4.9090	13.498163	0.000365	3.649279	1.236409	0.000146
 125	1.2338e+01	4.9362	13.728280	0.000578	5.778024	1.957648	0.000231
 126	1.2438e+01	4.9699	13.873617	0.000365	3.649279	1.236409	0.000146
 127	1.2537e+01	5.0196	14.043177	0.000426	4.257492	1.442477	0.000170
 128	1.2636e+01	5.0549	14.240996	0.000497	4.967074	1.682890	0.000199
 129	1.2736e+01	5.1015	14.378259	0.000345	3.446541	1.167720	0.000138
 130	1.2835e+01	5.1448	14.547819	0.000426	4.257492	1.442477	0.000170
 131	1.2935e+01	5.1785	14.721415	0.000436	4.358860	1.476822	0.000174
 132	1.3034e+01	5.2266	14.874827	0.000385	3.852016	1.305098	0.000154
 133	1.3134e+01	5.2539	15.068609	0.000487	4.865705	1.648545	0.000195
 134	1.3233e+01	5.2940	15.222020	0.000385	3.852016	1.305098	0.000154
 135	1.3333e+01	5.3325	15.435988	0.000537	5.372549	1.820269	0.000215
 136	1.3432e+01	5.3742	15.597474	0.000405	4.054754	1.373788	0.000162
 137	1.3532e+01	5.4191	15.775108	0.000446	4.460229	1.511167	0.000179
 138	1.3632e+01	5.4528	15.952742	0.000446	4.460229	1.511167	0.000179
 139	1.3731e+01	5.4977	16.081930	0.000324	3.243803	1.099030	0.000130
 140	1.3831e+01	5.5330	16.271676	0.000476	4.764336	1.614201	0.000191
 141	1.3930e+01	5.5779	16.433161	0.000405	4.054754	1.373788	0.000162
 142	1.4030e+01	5.6212	16.618869	0.000466	4.662967	1.579856	0.000187
 143	1.4129e+01	5.6678	16.824763	0.000517	5.169811	1.751579	0.000207
 144	1.4229e+01	5.6902	16.945877	0.000304	3.041065	1.030341	0.000122
 145	1.4328e+01	5.7383	17.115437	0.000426	4.257492	1.442477	0.000170
 146	1.4428e+01	5.7849	17.293071	0.000446	4.460229	1.511167	0.000179
 147	1.4527e+01	5.8169	17.454556	0.000405	4.054754	1.373788	0.000162
 148	1.4627e+01	5.8522	17.668525	0.000537	5.372549	1.820269	0.000215
 149	1.4726e+01	5.8988	17.821936	0.000385	3.852016	1.305098	0.000154
 150	1.4825e+01	5.9276	17.987458	0.000416	4.156123	1.408133	0.000166
 151	1.4925e+01	5.9726	18.124721	0.000345	3.446541	1.167720	0.000138
 152	1.5024e+01	6.0111	18.310429	0.000466	4.662967	1.579856	0.000187
 153	1.5124e+01	6.0560	18.504212	0.000487	4.865705	1.648545	0.000195
 154	1.5223e+01	6.0945	18.665697	0.000405	4.054754	1.373788	0.000162
 155	1.5323e+01	6.1394	18.831220	0.000416	4.156123	1.408133	0.000166
 156	1.5422e+01	6.1779	19.012891	0.000456	4.561598	1.545511	0.000183
 157	1.5522e+01	6.2116	19.210710	0.000497	4.967074	1.682890	0.000199
 158	1.5621e+01	6.2597	19.339899	0.000324	3.243803	1.099030	0.000130
 159	1.5721e+01	6.2934	19.557904	0.000547	5.473918	1.854614	0.000219
 160	1.5820e+01	6.3431	19.695167	0.000345	3.446541	1.167720	0.000138
 161	1.5920e+01	6.3720	19.864726	0.000426	4.257492	1.442477	0.000170
 162	1.6020e+01	6.4169	20.034286	0.000426	4.257492	1.442477	0.000170
 163	1.6119e+01	6.4458	20.207883	0.000436	4.358860	1.476822	0.000174
 164	1.6218e+01	6.4859	20.381480	0.000436	4.358860	1.476822	0.000174
 165	1.6318e+01	6.5324	20.559114	0.000446	4.460229	1.511167	0.000179
 166	1.6418e+01	6.5725	20.680228	0.000304	3.041065	1.030341	0.000122
 167	1.6517e+01	6.6126	20.853825	0.000436	4.358860	1.476822	0.000174
 168	1.6616e+01	6.6544	21.047607	0.000487	4.865705	1.648545	0.000195
 169	1.6716e+01	6.6945	21.184870	0.000345	3.446541	1.167720	0.000138
 170	1.6816e+01	6.7426	21.366541	0.000456	4.561598	1.545511	0.000183
 171	1.6915e+01	6.7731	21.556286	0.000476	4.764336	1.614201	0.000191
 172	1.7015e+01	6.8100	21.741995	0.000466	4.662967	1.579856	0.000187
 173	1.7114e+01	6.8517	21.903480	0.000405	4.054754	1.373788	0.000162
 174	1.7213e+01	6.8870	22.093225	0.000476	4.764336	1.614201	0.000191
 175	1.7313e+01	6.9287	22.210302	0.000294	2.939697	0.995996	0.000118
 176	1.7413e+01	6.9704	22.379862	0.000426	4.257492	1.442477	0.000170
 177	1.7512e+01	7.0089	22.565570	0.000466	4.662967	1.579856	0.000187
 178	1.7611e+01	7.0522	22.731093	0.000416	4.156123	1.408133	0.000166
 179	1.7711e+01	7.0891	22.868355	0.000345	3.446541	1.167720	0.000138
 180	1.7811e+01	7.1212	23.037915	0.000426	4.257492	1.442477	0.000170
 181	1.7910e+01	7.1725	23.263995	0.000568	5.676655	1.923303	0.000227
 182	1.8009e+01	7.2094	23.413369	0.000375	3.750647	1.270754	0.000150
 183	1.8109e+01	7.2447	23.603114	0.000476	4.764336	1.614201	0.000191
 184	1.8209e+01	7.3009	23.764600	0.000405	4.054754	1.373788	0.000162
 185	1.8308e+01	7.3346	23.950308	0.000466	4.662967	1.579856	0.000187
 186	1.8407e+01	7.3666	24.055273	0.000264	2.635590	0.892962	0.000105
 187	1.8507e+01	7.4100	24.265204	0.000527	5.271180	1.785924	0.000211
 188	1.8607e+01	7.4436	24.414578	0.000375	3.750647	1.270754	0.000150
 189	1.8706e+01	7.4886	24.604324	0.000476	4.764336	1.614201	0.000191
 190	1.8805e+01	7.5222	24.785995	0.000456	4.561598	1.545511	0.000183
 191	1.8905e+01	7.5640	24.955555	0.000426	4.257492	1.442477	0.000170
 192	1.9005e+01	7.6041	25.117040	0.000405	4.054754	1.373788	0.000162
 193	1.9104e+01	7.6522	25.298711	0.000456	4.561598	1.545511	0.000183
 194	1.9203e+01	7.7003	25.444048	0.000365	3.649279	1.236409	0.000146
 195	1.9303e+01	7.7260	25.625719	0.000456	4.561598	1.545511	0.000183
 196	1.9402e+01	7.7757	25.787205	0.000405	4.054754	1.373788	0.000162
 197	1.9502e+01	7.8046	25.928504	0.000355	3.547910	1.202064	0.000142
 198	1.9602e+01	7.8511	26.110175	0.000456	4.561598	1.545511	0.000183
 199	1.9701e+01	7.8832	26.291846	0.000456	4.561598	1.545511	0.000183
 200	1.9800e+01	7.9297	26.465443	0.000436	4.358860	1.476822	0.000174
 201	1.9900e+01	7.9618	26.675374	0.000527	5.271180	1.785924	0.000211
 202	2.0000e+01	8.0067	26.808600	0.000335	3.345172	1.133375	0.000134
 203	2.0099e+01	8.0468	26.994308	0.000466	4.662967	1.579856	0.000187
 204	2.0198e+01	8.0725	27.159831	0.000416	4.156123	1.408133	0.000166
 205	2.0298e+01	8.1254	27.313242	0.000385	3.852016	1.305098	0.000154
 206	2.0398e+01	8.1639	27.490876	0.000446	4.460229	1.511167	0.000179
 207	2.0497e+01	8.2105	27.664473	0.000436	4.358860	1.476822	0.000174
 208	2.0596e+01	8.2393	27.793661	0.000324	3.243803	1.099030	0.000130
 209	2.0696e+01	8.2794	27.979369	0.000466	4.662967	1.579856	0.000187
 210	2.0796e+01	8.3276	28.181226	0.000507	5.068442	1.717235	0.000203
 211	2.0895e+01	8.3773	28.290229	0.000274	2.736959	0.927307	0.000110
 212	2.0994e+01	8.4142	28.512271	0.000558	5.575287	1.888958	0.000223
 213	2.1094e+01	8.4383	28.629348	0.000294	2.939697	0.995996	0.000118
 214	2.1194e+01	8.4896	28.827168	0.000497	4.967074	1.682890	0.000199
 215	2.1293e+01	8.5233	28.972505	0.000365	3.649279	1.236409	0.000146
 216	2.1392e+01	8.5634	29.146101	0.000436	4.358860	1.476822	0.000174
 217	2.1492e+01	8.5923	29.299513	0.000385	3.852016	1.305098	0.000154
 218	2.1591e+01	8.6436	29.428701	0.000324	3.243803	1.099030	0.000130
 219	2.1691e+01	8.6837	29.618446	0.000476	4.764336	1.614201	0.000191
 220	2.1791e+01	8.7238	29.783969	0.000416	4.156123	1.408133	0.000166
 221	2.1890e+01	8.7559	29.981789	0.000497	4.967074	1.682890	0.000199
 222	2.1989e+01	8.7976	30.119051	0.000345	3.446541	1.167720	0.000138
 223	2.2089e+01	8.8409	30.264388	0.000365	3.649279	1.236409	0.000146
 224	2.2189e+01	8.8874	30.421836	0.000395	3.953385	1.339443	0.000158
 225	2.2288e+01	8.9083	30.591396	0.000426	4.257492	1.442477	0.000170
 226	2.2387e+01	8.9596	30.781141	0.000476	4.764336	1.614201	0.000191
 227	2.2487e+01	8.9981	30.958775	0.000446	4.460229	1.511167	0.000179
 228	2.2587e+01	9.0382	31.100075	0.000355	3.547910	1.202064	0.000142
 229	2.2686e+01	9.0816	31.257523	0.000395	3.953385	1.339443	0.000158
 230	2.2785e+01	9.1185	31.443232	0.000466	4.662967	1.579856	0.000187
 231	2.2885e+01	9.1521	31.620866	0.000446	4.460229	1.511167	0.000179
 232	2.2985e+01	9.2035	31.762165	0.000355	3.547910	1.202064	0.000142
 233	2.3084e+01	9.2436	31.964022	0.000507	5.068442	1.717235	0.000203
 234	2.3183e+01	9.2805	32.081099	0.000294	2.939697	0.995996	0.000118
 235	2.3283e+01	9.3270	32.274882	0.000487	4.865705	1.648545	0.000195
 236	2.3383e+01	9.3575	32.404070	0.000324	3.243803	1.099030	0.000130
 237	2.3482e+01	9.3992	32.565555	0.000405	4.054754	1.373788	0.000162
 238	2.3581e+01	9.4425	32.743189	0.000446	4.460229	1.511167	0.000179
 239	2.3681e+01	9.4810	32.928898	0.000466	4.662967	1.579856	0.000187
 240	2.3780e+01	9.5147	33.045975	0.000294	2.939697	0.995996	0.000118
 241	2.3880e+01	9.5548	33.243794	0.000497	4.967074	1.682890	0.000199
 242	2.3980e+01	9.5869	33.393168	0.000375	3.750647	1.270754	0.000150
 243	2.4079e+01	9.6479	33.586951	0.000487	4.865705	1.648545	0.000195
 244	2.4178e+01	9.6799	33.736325	0.000375	3.750647	1.270754	0.000150
 245	2.4278e+01	9.7217	33.905884	0.000426	4.257492	1.442477	0.000170
 246	2.4378e+01	9.7666	34.067370	0.000405	4.054754	1.373788	0.000162
 247	2.4477e+01	9.7970	34.176373	0.000274	2.736959	0.927307	0.000110
 248	2.4576e+01	9.8356	34.386304	0.000527	5.271180	1.785924	0.000211
 249	2.4676e+01	9.8676	34.535678	0.000375	3.750647	1.270754	0.000150
 250	2.4776e+01	9.9190	34.705237	0.000426	4.257492	1.442477	0.000170
 251	2.4875e+01	9.9543	34.862686	0.000395	3.953385	1.339443	0.000158
 252	2.4974e+01	10.0024	35.048394	0.000466	4.662967	1.579856	0.000187
 253	2.5074e+01	10.0393	35.221991	0.000436	4.358860	1.476822	0.000174
 254	2.5174e+01	10.0730	35.387513	0.000416	4.156123	1.408133	0.000166
 255	2.5273e+01	10.1179	35.544962	0.000395	3.953385	1.339443	0.000158
 256	2.5372e+01	10.1532	35.714521	0.000426	4.257492	1.442477	0.000170
 257	2.5472e+01	10.2013	35.859858	0.000365	3.649279	1.236409	0.000146
 258	2.5572e+01	10.2318	35.997121	0.000345	3.446541	1.167720	0.000138
 259	2.5671e+01	10.2799	36.158606	0.000405	4.054754	1.373788	0.000162
 260	2.5770e+01	10.3120	36.348352	0.000476	4.764336	1.614201	0.000191
 261	2.5870e+01	10.3505	36.497726	0.000375	3.750647	1.270754	0.000150
 262	2.5970e+01	10.3906	36.667285	0.000426	4.257492	1.442477	0.000170
 263	2.6069e+01	10.4339	36.877216	0.000527	5.271180	1.785924	0.000211
 264	2.6169e+01	10.4756	37.002368	0.000314	3.142434	1.064686	0.000126
 265	2.6268e+01	10.5141	37.171927	0.000426	4.257492	1.442477	0.000170
 266	2.6367e+01	10.5623	37.329376	0.000395	3.953385	1.339443	0.000158
 267	2.6467e+01	10.5976	37.523158	0.000487	4.865705	1.648545	0.000195
 268	2.6567e+01	10.6345	37.664458	0.000355	3.547910	1.202064	0.000142
 269	2.6666e+01	10.6842	37.821906	0.000395	3.953385	1.339443	0.000158
 270	2.6765e+01	10.7131	37.979354	0.000395	3.953385	1.339443	0.000158
 271	2.6865e+01	10.7548	38.136803	0.000395	3.953385	1.339443	0.000158
 272	2.6965e+01	10.7933	38.334622	0.000497	4.967074	1.682890	0.000199
 273	2.7064e+01	10.8302	38.475922	0.000355	3.547910	1.202064	0.000142
 274	2.7163e+01	10.8703	38.649519	0.000436	4.358860	1.476822	0.000174
 275	2.7263e+01	10.9136	38.806967	0.000395	3.953385	1.339443	0.000158
 276	2.7363e+01	10.9553	38.972490	0.000416	4.156123	1.408133	0.000166
 277	2.7462e+01	10.9954	39.105715	0.000335	3.345172	1.133375	0.000134
 278	2.7561e+01	11.0323	39.247015	0.000355	3.547910	1.202064	0.000142
 279	2.7661e+01	11.0644	39.440798	0.000487	4.865705	1.648545	0.000195
 280	2.7761e+01	11.1189	39.610357	0.000426	4.257492	1.442477	0.000170
 281	2.7860e+01	11.1574	39.783954	0.000436	4.358860	1.476822	0.000174
 282	2.7959e+01	11.1927	39.921217	0.000345	3.446541	1.167720	0.000138
 283	2.8059e+01	11.2296	40.042331	0.000304	3.041065	1.030341	0.000122
 284	2.8159e+01	11.2762	40.232076	0.000476	4.764336	1.614201	0.000191
 285	2.8258e+01	11.3130	40.377413	0.000365	3.649279	1.236409	0.000146
 286	2.8358e+01	11.3499	40.530824	0.000385	3.852016	1.305098	0.000154
 287	2.8457e+01	11.3997	40.696347	0.000416	4.156123	1.408133	0.000166
 288	2.8556e+01	11.4334	40.853795	0.000395	3.953385	1.339443	0.000158
 289	2.8656e+01	11.4638	41.035466	0.000456	4.561598	1.545511	0.000183
 290	2.8756e+01	11.5152	41.196952	0.000405	4.054754	1.373788	0.000162
 291	2.8855e+01	11.5521	41.358437	0.000405	4.054754	1.373788	0.000162
 292	2.8954e+01	11.5938	41.507811	0.000375	3.750647	1.270754	0.000150
 293	2.9054e+01	11.6243	41.701594	0.000487	4.865705	1.648545	0.000195
 294	2.9154e+01	11.6788	41.859042	0.000395	3.953385	1.339443	0.000158
 295	2.9253e+01	11.7141	42.004379	0.000365	3.649279	1.236409	0.000146
 296	2.9352e+01	11.7574	42.190087	0.000466	4.662967	1.579856	0.000187
 297	2.9452e+01	11.7863	42.367721	0.000446	4.460229	1.511167	0.000179
 298	2.9552e+01	11.8264	42.557466	0.000476	4.764336	1.614201	0.000191
 299	2.9651e+01	11.8697	42.710878	0.000385	3.852016	1.305098	0.000154
 300	2.9750e+01	11.9066	42.864289	0.000385	3.852016	1.305098	0.000154
 301	2.9850e+01	11.9531	43.013663	0.000375	3.750647	1.270754	0.000150
 302	2.9950e+01	11.9868	43.122665	0.000274	2.736959	0.927307	0.000110
 303	3.0049e+01	12.0317	43.356819	0.000588	5.879393	1.991992	0.000235
 304	3.0148e+01	12.0702	43.465822	0.000274	2.736959	0.927307	0.000110
 305	3.0248e+01	12.1055	43.639419	0.000436	4.358860	1.476822	0.000174
 306	3.0348e+01	12.1473	43.800904	0.000405	4.054754	1.373788	0.000162
 307	3.0447e+01	12.1874	43.982575	0.000456	4.561598	1.545511	0.000183
 308	3.0547e+01	12.2291	44.115801	0.000335	3.345172	1.133375	0.000134
 309	3.0646e+01	12.2692	44.325732	0.000527	5.271180	1.785924	0.000211
 310	3.0745e+01	12.3077	44.471069	0.000365	3.649279	1.236409	0.000146
 311	3.0845e+01	12.3478	44.600257	0.000324	3.243803	1.099030	0.000130
 312	3.0945e+01	12.3847	44.769817	0.000426	4.257492	1.442477	0.000170
 313	3.1044e+01	12.4360	44.939376	0.000426	4.257492	1.442477	0.000170
 314	3.1143e+01	12.4745	45.129122	0.000476	4.764336	1.614201	0.000191
 315	3.1243e+01	12.5098	45.286570	0.000395	3.953385	1.339443	0.000158
 316	3.1343e+01	12.5483	45.516687	0.000578	5.778024	1.957648	0.000231
 317	3.1442e+01	12.5900	45.645875	0.000324	3.243803	1.099030	0.000130
 318	3.1541e+01	12.6301	45.750841	0.000264	2.635590	0.892962	0.000105
 319	3.1641e+01	12.6622	45.892141	0.000355	3.547910	1.202064	0.000142
 320	3.1741e+01	12.7071	46.065737	0.000436	4.358860	1.476822	0.000174
 321	3.1840e+01	12.7504	46.251446	0.000466	4.662967	1.579856	0.000187
 322	3.1939e+01	12.7954	46.396782	0.000365	3.649279	1.236409	0.000146
 323	3.2039e+01	12.8242	46.562305	0.000416	4.156123	1.408133	0.000166
 324	3.2139e+01	12.8676	46.723790	0.000405	4.054754	1.373788	0.000162
 325	3.2238e+01	12.9189	46.877202	0.000385	3.852016	1.305098	0.000154
 326	3.2337e+01	12.9381	47.022539	0.000365	3.649279	1.236409	0.000146
 327	3.2437e+01	12.9750	47.200172	0.000446	4.460229	1.511167	0.000179
 328	3.2536e+01	13.0248	47.353584	0.000385	3.852016	1.305098	0.000154
 329	3.2636e+01	13.0665	47.511032	0.000395	3.953385	1.339443	0.000158
 330	3.2736e+01	13.1034	47.680592	0.000426	4.257492	1.442477	0.000170
 331	3.2835e+01	13.1435	47.842077	0.000405	4.054754	1.373788	0.000162
 332	3.2934e+01	13.1900	47.987414	0.000365	3.649279	1.236409	0.000146
 333	3.3034e+01	13.2285	48.161011	0.000436	4.358860	1.476822	0.000174
 334	3.3133e+01	13.2686	48.322496	0.000405	4.054754	1.373788	0.000162
 335	3.3233e+01	13.3055	48.500130	0.000446	4.460229	1.511167	0.000179
 336	3.3333e+01	13.3408	48.657578	0.000395	3.953385	1.339443	0.000158
 337	3.3432e+01	13.3905	48.794841	0.000345	3.446541	1.167720	0.000138
 338	3.3532e+01	13.4146	48.968438	0.000436	4.358860	1.476822	0.000174
 339	3.3631e+01	13.4675	49.109738	0.000355	3.547910	1.202064	0.000142
 340	3.3730e+01	13.4980	49.279297	0.000426	4.257492	1.442477	0.000170
 341	3.3830e+01	13.5429	49.440783	0.000405	4.054754	1.373788	0.000162
 342	3.3929e+01	13.5766	49.618417	0.000446	4.460229	1.511167	0.000179
 343	3.4029e+01	13.6199	49.763754	0.000365	3.649279	1.236409	0.000146
 344	3.4129e+01	13.6536	49.901016	0.000345	3.446541	1.167720	0.000138
 345	3.4228e+01	13.6985	50.078650	0.000446	4.460229	1.511167	0.000179
 346	3.4328e+01	13.7370	50.228024	0.000375	3.750647	1.270754	0.000150
 347	3.4427e+01	13.7772	50.365287	0.000345	3.446541	1.167720	0.000138
 348	3.4526e+01	13.8349	50.555032	0.000476	4.764336	1.614201	0.000191
 349	3.4626e+01	13.8654	50.716518	0.000405	4.054754	1.373788	0.000162
 350	3.4725e+01	13.8991	50.873966	0.000395	3.953385	1.339443	0.000158
 351	3.4825e+01	13.9360	51.039489	0.000416	4.156123	1.408133	0.000166
 352	3.4925e+01	13.9809	51.176751	0.000345	3.446541	1.167720	0.000138
 353	3.5024e+01	14.0242	51.423016	0.000618	6.183500	2.095026	0.000248
 354	3.5123e+01	14.0531	51.515871	0.000233	2.331483	0.789928	0.000093
 355	3.5223e+01	14.0980	51.641022	0.000314	3.142434	1.064686	0.000126
 356	3.5322e+01	14.1301	51.786359	0.000365	3.649279	1.236409	0.000146
 357	3.5422e+01	14.1766	51.963993	0.000446	4.460229	1.511167	0.000179
 358	3.5522e+01	14.2215	52.137589	0.000436	4.358860	1.476822	0.000174
 359	3.5621e+01	14.2616	52.327335	0.000476	4.764336	1.614201	0.000191
 360	3.5721e+01	14.2985	52.452486	0.000314	3.142434	1.064686	0.000126
 361	3.5820e+01	14.3418	52.618009	0.000416	4.156123	1.408133	0.000166
 362	3.5919e+01	14.3900	52.767383	0.000375	3.750647	1.270754	0.000150
 363	3.6019e+01	14.4156	52.961165	0.000487	4.865705	1.648545	0.000195
 364	3.6118e+01	14.4525	53.118613	0.000395	3.953385	1.339443	0.000158
 365	3.6218e+01	14.5023	53.231653	0.000284	2.838328	0.961651	0.000114
 366	3.6318e+01	14.5360	53.425436	0.000487	4.865705	1.648545	0.000195
 367	3.6417e+01	14.5729	53.590958	0.000416	4.156123	1.408133	0.000166
 368	3.6517e+01	14.6194	53.760518	0.000426	4.257492	1.442477	0.000170
 369	3.6616e+01	14.6547	53.930078	0.000426	4.257492	1.442477	0.000170
 370	3.6715e+01	14.6964	54.111749	0.000456	4.561598	1.545511	0.000183
 371	3.6815e+01	14.7429	54.285346	0.000436	4.358860	1.476822	0.000174
 372	3.6914e+01	14.7750	54.374163	0.000223	2.230115	0.755583	0.000089
 373	3.7014e+01	14.8183	54.563908	0.000476	4.764336	1.614201	0.000191
 374	3.7114e+01	14.8552	54.693096	0.000324	3.243803	1.099030	0.000130
 375	3.7213e+01	14.8905	54.818248	0.000314	3.142434	1.064686	0.000126
 376	3.7313e+01	14.9386	54.967622	0.000375	3.750647	1.270754	0.000150
 377	3.7412e+01	14.9739	55.125070	0.000395	3.953385	1.339443	0.000158
 378	3.7511e+01	15.0156	55.274444	0.000375	3.750647	1.270754	0.000150
 379	3.7611e+01	15.0557	55.464189	0.000476	4.764336	1.614201	0.000191
 380	3.7711e+01	15.0958	55.601452	0.000345	3.446541	1.167720	0.000138
 381	3.7810e+01	15.1343	55.766975	0.000416	4.156123	1.408133	0.000166
 382	3.7910e+01	15.1841	55.936534	0.000426	4.257492	1.442477	0.000170
 383	3.8009e+01	15.2161	56.085908	0.000375	3.750647	1.270754	0.000150
 384	3.8108e+01	15.2546	56.219134	0.000335	3.345172	1.133375	0.000134
 385	3.8208e+01	15.2964	56.392731	0.000436	4.358860	1.476822	0.000174
 386	3.8307e+01	15.3397	56.550179	0.000395	3.953385	1.339443	0.000158
 387	3.8407e+01	15.3766	56.723776	0.000436	4.358860	1.476822	0.000174
 388	3.8507e+01	15.4135	56.885261	0.000405	4.054754	1.373788	0.000162
 389	3.8606e+01	15.4632	57.038672	0.000385	3.852016	1.305098	0.000154
 390	3.8706e+01	15.4969	57.196121	0.000395	3.953385	1.339443	0.000158
 391	3.8805e+01	15.5370	57.325309	0.000324	3.243803	1.099030	0.000130
 392	3.8904e+01	15.5659	57.458534	0.000335	3.345172	1.133375	0.000134
 393	3.9004e+01	15.6124	57.615983	0.000395	3.953385	1.339443	0.000158
 394	3.9103e+01	15.6557	57.741134	0.000314	3.142434	1.064686	0.000126
 395	3.9203e+01	15.6878	57.902619	0.000405	4.054754	1.373788	0.000162
 396	3.9303e+01	15.7327	58.039882	0.000345	3.446541	1.167720	0.000138
 397	3.9402e+01	15.7792	58.205405	0.000416	4.156123	1.408133	0.000166
 398	3.9502e+01	15.8161	58.379001	0.000436	4.358860	1.476822	0.000174
 399	3.9601e+01	15.8610	58.524338	0.000365	3.649279	1.236409	0.000146
 400	3.9700e+01	15.8899	58.689861	0.000416	4.156123	1.408133	0.000166
 401	3.9800e+01	15.9364	58.855383	0.000416	4.156123	1.408133	0.000166
 402	3.9900e+01	15.9750	58.996683	0.000355	3.547910	1.202064	0.000142
 403	3.9999e+01	16.0167	59.162206	0.000416	4.156123	1.408133	0.000166
 404	4.0099e+01	16.0552	59.315617	0.000385	3.852016	1.305098	0.000154
 405	4.0198e+01	16.0889	59.452879	0.000345	3.446541	1.167720	0.000138
 406	4.0297e+01	16.1241	59.630513	0.000446	4.460229	1.511167	0.000179
 407	4.0397e+01	16.1739	59.840444	0.000527	5.271180	1.785924	0.000211
 408	4.0496e+01	16.2156	59.957521	0.000294	2.939697	0.995996	0.000118
 409	4.0596e+01	16.2573	60.119007	0.000405	4.054754	1.373788	0.000162
 410	4.0696e+01	16.2926	60.215898	0.000243	2.432852	0.824273	0.000097
 411	4.0795e+01	16.3295	60.357198	0.000355	3.547910	1.202064	0.000142
 412	4.0895e+01	16.3696	60.498498	0.000355	3.547910	1.202064	0.000142
 413	4.0994e+01	16.4129	60.684206	0.000466	4.662967	1.579856	0.000187
 414	4.1093e+01	16.4466	60.873951	0.000476	4.764336	1.614201	0.000191
 415	4.1193e+01	16.4867	60.986991	0.000284	2.838328	0.961651	0.000114
 416	4.1292e+01	16.5300	61.136365	0.000375	3.750647	1.270754	0.000150
 417	4.1392e+01	16.5653	61.305925	0.000426	4.257492	1.442477	0.000170
 418	4.1492e+01	16.6038	61.463373	0.000395	3.953385	1.339443	0.000158
 419	4.1591e+01	16.6487	61.616784	0.000385	3.852016	1.305098	0.000154
 420	4.1691e+01	16.6888	61.782307	0.000416	4.156123	1.408133	0.000166
 421	4.1790e+01	16.7370	61.935718	0.000385	3.852016	1.305098	0.000154
 422	4.1889e+01	16.7706	62.105278	0.000426	4.257492	1.442477	0.000170
 423	4.1989e+01	16.8124	62.210243	0.000264	2.635590	0.892962	0.000105
 424	4.2089e+01	16.8509	62.428248	0.000547	5.473918	1.854614	0.000219
 425	4.2188e+01	16.8813	62.573585	0.000365	3.649279	1.236409	0.000146
 426	4.2288e+01	16.9471	62.722959	0.000375	3.750647	1.270754	0.000150
 427	4.2387e+01	16.9648	62.860222	0.000345	3.446541	1.167720	0.000138
 428	4.2486e+01	17.0049	62.965188	0.000264	2.635590	0.892962	0.000105
 429	4.2586e+01	17.0450	63.130710	0.000416	4.156123	1.408133	0.000166
 430	4.2685e+01	17.0915	63.296233	0.000416	4.156123	1.408133	0.000166
 431	4.2785e+01	17.1204	63.441570	0.000365	3.649279	1.236409	0.000146
 432	4.2885e+01	17.1717	63.603055	0.000405	4.054754	1.373788	0.000162
 433	4.2984e+01	17.2038	63.748392	0.000365	3.649279	1.236409	0.000146
 434	4.3084e+01	17.2471	63.893729	0.000365	3.649279	1.236409	0.000146
 435	4.3183e+01	17.2904	64.079437	0.000466	4.662967	1.579856	0.000187
 436	4.3282e+01	17.3321	64.228811	0.000375	3.750647	1.270754	0.000150
 437	4.3382e+01	17.3610	64.333777	0.000264	2.635590	0.892962	0.000105
 438	4.3481e+01	17.4027	64.527559	0.000487	4.865705	1.648545	0.000195
 439	4.3581e+01	17.4428	64.685007	0.000395	3.953385	1.339443	0.000158
 440	4.3681e+01	17.4861	64.834381	0.000375	3.750647	1.270754	0.000150
 441	4.3780e+01	17.5230	64.987793	0.000385	3.852016	1.305098	0.000154
 442	4.3880e+01	17.5680	65.185612	0.000497	4.967074	1.682890	0.000199
 443	4.3979e+01	17.6016	65.359209	0.000436	4.358860	1.476822	0.000174
 444	4.4078e+01	17.6530	65.468212	0.000274	2.736959	0.927307	0.000110
 445	4.4178e+01	17.6867	65.569140	0.000253	2.534221	0.858617	0.000101
 446	4.4278e+01	17.7268	65.734663	0.000416	4.156123	1.408133	0.000166
 447	4.4377e+01	17.7556	65.908259	0.000436	4.358860	1.476822	0.000174
 448	4.4477e+01	17.8230	66.025336	0.000294	2.939697	0.995996	0.000118
 449	4.4576e+01	17.8503	66.178748	0.000385	3.852016	1.305098	0.000154
 450	4.4675e+01	17.8856	66.275639	0.000243	2.432852	0.824273	0.000097
 451	4.4775e+01	17.9161	66.473458	0.000497	4.967074	1.682890	0.000199
 452	4.4874e+01	17.9690	66.606684	0.000335	3.345172	1.133375	0.000134
 453	4.4974e+01	18.0027	66.768169	0.000405	4.054754	1.373788	0.000162
 454	4.5074e+01	18.0428	66.929655	0.000405	4.054754	1.373788	0.000162
 455	4.5173e+01	18.0781	67.066917	0.000345	3.446541	1.167720	0.000138
 456	4.5273e+01	18.1230	67.232440	0.000416	4.156123	1.408133	0.000166
 457	4.5372e+01	18.1695	67.381814	0.000375	3.750647	1.270754	0.000150
 458	4.5471e+01	18.2048	67.567522	0.000466	4.662967	1.579856	0.000187
 459	4.5571e+01	18.2417	67.704785	0.000345	3.446541	1.167720	0.000138
 460	4.5670e+01	18.2850	67.866270	0.000405	4.054754	1.373788	0.000162
 461	4.5770e+01	18.3171	68.051979	0.000466	4.662967	1.579856	0.000187
 462	4.5870e+01	18.3604	68.189241	0.000345	3.446541	1.167720	0.000138
 463	4.5969e+01	18.3989	68.342652	0.000385	3.852016	1.305098	0.000154
 464	4.6069e+01	18.4439	68.467804	0.000314	3.142434	1.064686	0.000126
 465	4.6168e+01	18.4808	68.601029	0.000335	3.345172	1.133375	0.000134
 466	4.6267e+01	18.5161	68.778663	0.000446	4.460229	1.511167	0.000179
 467	4.6367e+01	18.5546	68.919963	0.000355	3.547910	1.202064	0.000142
 468	4.6467e+01	18.5995	69.065300	0.000365	3.649279	1.236409	0.000146
 469	4.6566e+01	18.6444	69.226785	0.000405	4.054754	1.373788	0.000162
 470	4.6666e+01	18.6877	69.408456	0.000456	4.561598	1.545511	0.000183
 471	4.6765e+01	18.7246	69.517459	0.000274	2.736959	0.927307	0.000110
 472	4.6864e+01	18.7695	69.691056	0.000436	4.358860	1.476822	0.000174
 473	4.6964e+01	18.7984	69.816207	0.000314	3.142434	1.064686	0.000126
 474	4.7063e+01	18.8401	70.001915	0.000466	4.662967	1.579856	0.000187
 475	4.7163e+01	18.8818	70.167438	0.000416	4.156123	1.408133	0.000166
 476	4.7263e+01	18.9235	70.328923	0.000405	4.054754	1.373788	0.000162
 477	4.7362e+01	18.9620	70.490409	0.000405	4.054754	1.373788	0.000162
 478	4.7462e+01	19.0021	70.676117	0.000466	4.662967	1.579856	0.000187
 479	4.7561e+01	19.0406	70.817417	0.000355	3.547910	1.202064	0.000142
 480	4.7660e+01	19.0775	70.991013	0.000436	4.358860	1.476822	0.000174
 481	4.7760e+01	19.1209	71.055608	0.000162	1.621902	0.549515	0.000065
 482	4.7859e+01	19.1577	71.217093	0.000405	4.054754	1.373788	0.000162
 483	4.7959e+01	19.1979	71.366467	0.000375	3.750647	1.270754	0.000150
 484	4.8059e+01	19.2428	71.515841	0.000375	3.750647	1.270754	0.000150
 485	4.8158e+01	19.2813	71.677326	0.000405	4.054754	1.373788	0.000162
 486	4.8258e+01	19.3182	71.826700	0.000375	3.750647	1.270754	0.000150
 487	4.8357e+01	19.3631	71.955889	0.000324	3.243803	1.099030	0.000130
 488	4.8456e+01	19.4000	72.117374	0.000405	4.054754	1.373788	0.000162
 489	4.8556e+01	19.4385	72.270785	0.000385	3.852016	1.305098	0.000154
 490	4.8656e+01	19.4754	72.408048	0.000345	3.446541	1.167720	0.000138
 491	4.8755e+01	19.5155	72.597793	0.000476	4.764336	1.614201	0.000191
 492	4.8855e+01	19.5636	72.739093	0.000355	3.547910	1.202064	0.000142
 493	4.8954e+01	19.6021	72.908653	0.000426	4.257492	1.442477	0.000170
 494	4.9053e+01	19.6374	73.025730	0.000294	2.939697	0.995996	0.000118
 495	4.9153e+01	19.6791	73.207401	0.000456	4.561598	1.545511	0.000183
 496	4.9252e+01	19.7176	73.405221	0.000497	4.967074	1.682890	0.000199
 497	4.9352e+01	19.7529	73.530372	0.000314	3.142434	1.064686	0.000126
 498	4.9452e+01	19.7978	73.695894	0.000416	4.156123	1.408133	0.000166
 499	4.9551e+01	19.8331	73.772600	0.000193	1.926008	0.652549	0.000077
 500	4.9651e+01	19.8748	73.942160	0.000426	4.257492	1.442477	0.000170
 501	4.9750e+01	19.9182	74.075385	0.000335	3.345172	1.133375	0.000134
 502	4.9849e+01	19.9551	74.216685	0.000355	3.547910	1.202064	0.000142
 503	4.9949e+01	19.9936	74.374133	0.000395	3.953385	1.339443	0.000158
 504	5.0048e+01	19.9534	74.329725	0.000112	1.115057	0.377792	-0.000045
 505	5.0148e+01	19.9166	74.192462	0.000345	3.446541	1.167720	-0.000138
 506	5.0248e+01	19.8845	74.091534	0.000253	2.534221	0.858617	-0.000101
 507	5.0347e+01	19.8315	73.986568	0.000264	2.635590	0.892962	-0.000105
 508	5.0447e+01	19.8010	73.930048	0.000142	1.419164	0.480826	-0.000057
 509	5.0546e+01	19.7545	73.808934	0.000304	3.041065	1.030341	-0.000122
 510	5.0645e+01	19.7128	73.724154	0.000213	2.128746	0.721239	-0.000085
 511	5.0745e+01	19.6775	73.627263	0.000243	2.432852	0.824273	-0.000097
 512	5.0844e+01	19.6374	73.546520	0.000203	2.027377	0.686894	-0.000081
 513	5.0944e+01	19.5973	73.469815	0.000193	1.926008	0.652549	-0.000077
 514	5.1044e+01	19.5684	73.332552	0.000345	3.446541	1.167720	-0.000138
 515	5.1143e+01	19.5171	73.227587	0.000264	2.635590	0.892962	-0.000105
 516	5.1242e+01	19.4754	73.090324	0.000345	3.446541	1.167720	-0.000138
 517	5.1342e+01	19.4385	73.009581	0.000203	2.027377	0.686894	-0.000081
 518	5.1441e+01	19.3984	72.868282	0.000355	3.547910	1.202064	-0.000142
 519	5.1541e+01	19.3567	72.751205	0.000294	2.939697	0.995996	-0.000118
 520	5.1641e+01	19.3246	72.646239	0.000264	2.635590	0.892962	-0.000105
 521	5.1740e+01	19.2813	72.533199	0.000284	2.838328	0.961651	-0.000114
 522	5.1840e+01	19.2396	72.432271	0.000253	2.534221	0.858617	-0.000101
 523	5.1939e+01	19.1979	72.307120	0.000314	3.142434	1.064686	-0.000126
 524	5.2038e+01	19.1642	72.202154	0.000264	2.635590	0.892962	-0.000105
 525	5.2138e+01	19.1225	72.093151	0.000274	2.736959	0.927307	-0.000110
 526	5.2237e+01	19.0823	71.951852	0.000355	3.547910	1.202064	-0.000142
 527	5.2337e+01	19.0455	71.875146	0.000193	1.926008	0.652549	-0.000077
 528	5.2437e+01	18.9957	71.782292	0.000233	2.331483	0.789928	-0.000093
 529	5.2536e+01	18.9604	71.657141	0.000314	3.142434	1.064686	-0.000126
 530	5.2636e+01	18.9235	71.568324	0.000223	2.230115	0.755583	-0.000089
 531	5.2735e+01	18.8850	71.499692	0.000172	1.723270	0.583860	-0.000069
 532	5.2834e+01	18.8353	71.386653	0.000284	2.838328	0.961651	-0.000114
 533	5.2934e+01	18.7984	71.217093	0.000426	4.257492	1.442477	-0.000170
 534	5.3033e+01	18.7647	71.067719	0.000375	3.750647	1.270754	-0.000150
 535	5.3133e+01	18.7278	70.958716	0.000274	2.736959	0.927307	-0.000110
 536	5.3233e+01	18.6845	70.845676	0.000284	2.838328	0.961651	-0.000114
 537	5.3332e+01	18.6348	70.716488	0.000324	3.243803	1.099030	-0.000130
 538	5.3431e+01	18.5915	70.615560	0.000253	2.534221	0.858617	-0.000101
 539	5.3531e+01	18.5642	70.506557	0.000274	2.736959	0.927307	-0.000110
 540	5.3630e+01	18.5289	70.369294	0.000345	3.446541	1.167720	-0.000138
 541	5.3730e+01	18.4808	70.248180	0.000304	3.041065	1.030341	-0.000122
 542	5.3830e+01	18.4487	70.147252	0.000253	2.534221	0.858617	-0.000101
 543	5.3929e+01	18.3957	70.030175	0.000294	2.939697	0.995996	-0.000118
 544	5.4029e+01	18.3637	69.917135	0.000284	2.838328	0.961651	-0.000114
 545	5.4128e+01	18.3171	69.800058	0.000294	2.939697	0.995996	-0.000118
 546	5.4227e+01	18.2754	69.682981	0.000294	2.939697	0.995996	-0.000118
 547	5.4327e+01	18.2481	69.553793	0.000324	3.243803	1.099030	-0.000130
 548	5.4426e+01	18.2016	69.469013	0.000213	2.128746	0.721239	-0.000085
 549	5.4526e+01	18.1647	69.327713	0.000355	3.547910	1.202064	-0.000142
 550	5.4626e+01	18.1310	69.190451	0.000345	3.446541	1.167720	-0.000138
 551	5.4725e+01	18.0861	69.041077	0.000375	3.750647	1.270754	-0.000150
 552	5.4825e+01	18.0460	68.919963	0.000304	3.041065	1.030341	-0.000122
 553	5.4924e+01	18.0059	68.738292	0.000456	4.561598	1.545511	-0.000183
 554	5.5023e+01	17.9658	68.637363	0.000253	2.534221	0.858617	-0.000101
 555	5.5123e+01	17.9225	68.540472	0.000243	2.432852	0.824273	-0.000097
 556	5.5222e+01	17.8856	68.366875	0.000436	4.358860	1.476822	-0.000174
 557	5.5322e+01	17.8455	68.257872	0.000274	2.736959	0.927307	-0.000110
 558	5.5422e+01	17.8086	68.173093	0.000213	2.128746	0.721239	-0.000085
 559	5.5521e+01	17.7733	68.035830	0.000345	3.446541	1.167720	-0.000138
 560	5.5620e+01	17.7252	67.882419	0.000385	3.852016	1.305098	-0.000154
 561	5.5720e+01	17.6931	67.805713	0.000193	1.926008	0.652549	-0.000077
 562	5.5819e+01	17.6482	67.664414	0.000355	3.547910	1.202064	-0.000142
 563	5.5919e+01	17.6016	67.559448	0.000264	2.635590	0.892962	-0.000105
 564	5.6019e+01	17.5663	67.434297	0.000314	3.142434	1.064686	-0.000126
 565	5.6118e+01	17.5262	67.276849	0.000395	3.953385	1.339443	-0.000158
 566	5.6218e+01	17.4829	67.220329	0.000142	1.419164	0.480826	-0.000057
 567	5.6317e+01	17.4557	67.046732	0.000436	4.358860	1.476822	-0.000174
 568	5.6416e+01	17.4156	66.881209	0.000416	4.156123	1.408133	-0.000166
 569	5.6516e+01	17.3658	66.752021	0.000324	3.243803	1.099030	-0.000130
 570	5.6615e+01	17.3305	66.606684	0.000365	3.649279	1.236409	-0.000146
 571	5.6715e+01	17.2872	66.509793	0.000243	2.432852	0.824273	-0.000097
 572	5.6815e+01	17.2551	66.368493	0.000355	3.547910	1.202064	-0.000142
 573	5.6914e+01	17.2006	66.215082	0.000385	3.852016	1.305098	-0.000154
 574	5.7014e+01	17.1717	66.098005	0.000294	2.939697	0.995996	-0.000118
 575	5.7113e+01	17.1316	66.013225	0.000213	2.128746	0.721239	-0.000085
 576	5.7212e+01	17.0899	65.871925	0.000355	3.547910	1.202064	-0.000142
 577	5.7312e+01	17.0514	65.746774	0.000314	3.142434	1.064686	-0.000126
 578	5.7411e+01	16.9985	65.621623	0.000314	3.142434	1.064686	-0.000126
 579	5.7511e+01	16.9680	65.496472	0.000314	3.142434	1.064686	-0.000126
 580	5.7611e+01	16.9231	65.375358	0.000304	3.041065	1.030341	-0.000122
 581	5.7710e+01	16.8894	65.274429	0.000253	2.534221	0.858617	-0.000101
 582	5.7809e+01	16.8460	65.161389	0.000284	2.838328	0.961651	-0.000114
 583	5.7909e+01	16.8075	65.052387	0.000274	2.736959	0.927307	-0.000110
 584	5.8008e+01	16.7690	64.907050	0.000365	3.649279	1.236409	-0.000146
 585	5.8108e+01	16.7305	64.781899	0.000314	3.142434	1.064686	-0.000126
 586	5.8208e+01	16.7033	64.604265	0.000446	4.460229	1.511167	-0.000179
 587	5.8307e+01	16.6535	64.418556	0.000466	4.662967	1.579856	-0.000187
 588	5.8407e+01	16.6118	64.337814	0.000203	2.027377	0.686894	-0.000081
 589	5.8506e+01	16.5701	64.200551	0.000345	3.446541	1.167720	-0.000138
 590	5.8605e+01	16.5364	64.055214	0.000365	3.649279	1.236409	-0.000146
 591	5.8705e+01	16.4947	63.917952	0.000345	3.446541	1.167720	-0.000138
 592	5.8804e+01	16.4578	63.780689	0.000345	3.446541	1.167720	-0.000138
 593	5.8904e+01	16.4097	63.667649	0.000284	2.838328	0.961651	-0.000114
 594	5.9004e+01	16.3696	63.562684	0.000264	2.635590	0.892962	-0.000105
 595	5.9103e+01	16.3279	63.385050	0.000446	4.460229	1.511167	-0.000179
 596	5.9203e+01	16.2894	63.276047	0.000274	2.736959	0.927307	-0.000110
 597	5.9302e+01	16.2557	63.138784	0.000345	3.446541	1.167720	-0.000138
 598	5.9401e+01	16.2172	63.025745	0.000284	2.838328	0.961651	-0.000114
 599	5.9501e+01	16.1642	62.973262	0.000132	1.317795	0.446481	-0.000053
 600	5.9600e+01	16.1257	62.803702	0.000426	4.257492	1.442477	-0.000170
 601	5.9700e+01	16.1065	62.694699	0.000274	2.736959	0.927307	-0.000110
 602	5.9800e+01	16.0471	62.565511	0.000324	3.243803	1.099030	-0.000130
 603	5.9899e+01	16.0151	62.408063	0.000395	3.953385	1.339443	-0.000158
 604	5.9998e+01	15.9782	62.250615	0.000395	3.953385	1.339443	-0.000158
 605	6.0098e+01	15.9332	62.125463	0.000314	3.142434	1.064686	-0.000126
 606	6.0197e+01	15.8947	61.968015	0.000395	3.953385	1.339443	-0.000158
 607	6.0297e+01	15.8562	61.854975	0.000284	2.838328	0.961651	-0.000114
 608	6.0397e+01	15.8129	61.705601	0.000375	3.750647	1.270754	-0.000150
 609	6.0496e+01	15.7792	61.612747	0.000233	2.331483	0.789928	-0.000093
 610	6.0596e+01	15.7311	61.410890	0.000507	5.068442	1.717235	-0.000203
 611	6.0695e+01	15.6894	61.330148	0.000203	2.027377	0.686894	-0.000081
 612	6.0794e+01	15.6573	61.176736	0.000385	3.852016	1.305098	-0.000154
 613	6.0894e+01	15.6124	61.067734	0.000274	2.736959	0.927307	-0.000110
 614	6.0993e+01	15.5723	60.934508	0.000335	3.345172	1.133375	-0.000134
 615	6.1093e+01	15.5274	60.785134	0.000375	3.750647	1.270754	-0.000150
 616	6.1193e+01	15.4953	60.692280	0.000233	2.331483	0.789928	-0.000093
 617	6.1292e+01	15.4520	60.563092	0.000324	3.243803	1.099030	-0.000130
 618	6.1392e+01	15.4199	60.421792	0.000355	3.547910	1.202064	-0.000142
 619	6.1491e+01	15.3702	60.272418	0.000375	3.750647	1.270754	-0.000150
 620	6.1590e+01	15.3365	60.135155	0.000345	3.446541	1.167720	-0.000138
 621	6.1690e+01	15.2996	59.997893	0.000345	3.446541	1.167720	-0.000138
 622	6.1789e+01	15.2530	59.828333	0.000426	4.257492	1.442477	-0.000170
 623	6.1889e+01	15.2145	59.670885	0.000395	3.953385	1.339443	-0.000158
 624	6.1989e+01	15.1760	59.549771	0.000304	3.041065	1.030341	-0.000122
 625	6.2088e+01	15.1391	59.420582	0.000324	3.243803	1.099030	-0.000130
 626	6.2188e+01	15.1022	59.259097	0.000405	4.054754	1.373788	-0.000162
 627	6.2287e+01	15.0541	59.105686	0.000385	3.852016	1.305098	-0.000154
 628	6.2386e+01	15.0124	59.016869	0.000223	2.230115	0.755583	-0.000089
 629	6.2486e+01	14.9771	58.891718	0.000314	3.142434	1.064686	-0.000126
 630	6.2586e+01	14.9386	58.770604	0.000304	3.041065	1.030341	-0.000122
 631	6.2685e+01	14.8889	58.597007	0.000436	4.358860	1.476822	-0.000174
 632	6.2785e+01	14.8552	58.512227	0.000213	2.128746	0.721239	-0.000085
 633	6.2884e+01	14.8055	58.383038	0.000324	3.243803	1.099030	-0.000130
 634	6.2983e+01	14.7638	58.265962	0.000294	2.939697	0.995996	-0.000118
 635	6.3083e+01	14.7349	58.156959	0.000274	2.736959	0.927307	-0.000110
 636	6.3182e+01	14.6932	58.047956	0.000274	2.736959	0.927307	-0.000110
 637	6.3282e+01	14.6563	57.898582	0.000375	3.750647	1.270754	-0.000150
 638	6.3382e+01	14.6226	57.761320	0.000345	3.446541	1.167720	-0.000138
 639	6.3481e+01	14.5729	57.644243	0.000294	2.939697	0.995996	-0.000118
 640	6.3581e+01	14.5327	57.462572	0.000456	4.561598	1.545511	-0.000183
 641	6.3680e+01	14.4942	57.325309	0.000345	3.446541	1.167720	-0.000138
 642	6.3779e+01	14.4654	57.179972	0.000365	3.649279	1.236409	-0.000146
 643	6.3879e+01	14.4221	57.042709	0.000345	3.446541	1.167720	-0.000138
 644	6.3978e+01	14.3755	56.885261	0.000395	3.953385	1.339443	-0.000158
 645	6.4078e+01	14.3418	56.756073	0.000324	3.243803	1.099030	-0.000130
 646	6.4177e+01	14.2969	56.606699	0.000375	3.750647	1.270754	-0.000150
 647	6.4277e+01	14.2520	56.477510	0.000324	3.243803	1.099030	-0.000130
 648	6.4376e+01	14.2199	56.400805	0.000193	1.926008	0.652549	-0.000077
 649	6.4476e+01	14.1734	56.186837	0.000537	5.372549	1.820269	-0.000215
 650	6.4576e+01	14.1413	56.114168	0.000182	1.824639	0.618205	-0.000073
 651	6.4675e+01	14.1060	55.989017	0.000314	3.142434	1.064686	-0.000126
 652	6.4775e+01	14.0515	55.855792	0.000335	3.345172	1.133375	-0.000134
 653	6.4874e+01	14.0258	55.714492	0.000355	3.547910	1.202064	-0.000142
 654	6.4974e+01	13.9873	55.625675	0.000223	2.230115	0.755583	-0.000089
 655	6.5073e+01	13.9408	55.472264	0.000385	3.852016	1.305098	-0.000154
 656	6.5172e+01	13.9055	55.330964	0.000355	3.547910	1.202064	-0.000142
 657	6.5272e+01	13.8686	55.161404	0.000426	4.257492	1.442477	-0.000170
 658	6.5371e+01	13.8189	55.036253	0.000314	3.142434	1.064686	-0.000126
 659	6.5471e+01	13.7900	54.854582	0.000456	4.561598	1.545511	-0.000183
 660	6.5570e+01	13.7386	54.725393	0.000324	3.243803	1.099030	-0.000130
 661	6.5670e+01	13.7018	54.596205	0.000324	3.243803	1.099030	-0.000130
 662	6.5769e+01	13.6616	54.422608	0.000436	4.358860	1.476822	-0.000174
 663	6.5869e+01	13.6167	54.305531	0.000294	2.939697	0.995996	-0.000118
 664	6.5969e+01	13.5846	54.164232	0.000355	3.547910	1.202064	-0.000142
 665	6.6068e+01	13.5349	54.059266	0.000264	2.635590	0.892962	-0.000105
 666	6.6168e+01	13.4996	53.917966	0.000355	3.547910	1.202064	-0.000142
 667	6.6267e+01	13.4627	53.768592	0.000375	3.750647	1.270754	-0.000150
 668	6.6367e+01	13.4242	53.647478	0.000304	3.041065	1.030341	-0.000122
 669	6.6466e+01	13.3873	53.530401	0.000294	2.939697	0.995996	-0.000118
 670	6.6566e+01	13.3376	53.376990	0.000385	3.852016	1.305098	-0.000154
 671	6.6665e+01	13.3007	53.223579	0.000385	3.852016	1.305098	-0.000154
 672	6.6764e+01	13.2670	53.163022	0.000152	1.520533	0.515170	-0.000061
 673	6.6864e+01	13.2221	52.961165	0.000507	5.068442	1.717235	-0.000203
 674	6.6963e+01	13.1772	52.840051	0.000304	3.041065	1.030341	-0.000122
 675	6.7063e+01	13.1355	52.702788	0.000345	3.446541	1.167720	-0.000138
 676	6.7162e+01	13.1082	52.525155	0.000446	4.460229	1.511167	-0.000179
 677	6.7262e+01	13.0601	52.387892	0.000345	3.446541	1.167720	-0.000138
 678	6.7362e+01	13.0232	52.214295	0.000436	4.358860	1.476822	-0.000174
 679	6.7461e+01	12.9782	52.089144	0.000314	3.142434	1.064686	-0.000126
 680	6.7561e+01	12.9494	51.927658	0.000405	4.054754	1.373788	-0.000162
 681	6.7660e+01	12.9077	51.798470	0.000324	3.243803	1.099030	-0.000130
 682	6.7760e+01	12.8659	51.669282	0.000324	3.243803	1.099030	-0.000130
 683	6.7859e+01	12.8274	51.523945	0.000365	3.649279	1.236409	-0.000146
 684	6.7959e+01	12.7857	51.382645	0.000355	3.547910	1.202064	-0.000142
 685	6.8058e+01	12.7504	51.253457	0.000324	3.243803	1.099030	-0.000130
 686	6.8157e+01	12.7119	51.160603	0.000233	2.331483	0.789928	-0.000093
 687	6.8257e+01	12.6638	51.031414	0.000324	3.243803	1.099030	-0.000130
 688	6.8356e+01	12.6285	50.882040	0.000375	3.750647	1.270754	-0.000150
 689	6.8456e+01	12.5884	50.760926	0.000304	3.041065	1.030341	-0.000122
 690	6.8555e+01	12.5451	50.635775	0.000314	3.142434	1.064686	-0.000126
 691	6.8655e+01	12.5130	50.450067	0.000466	4.662967	1.579856	-0.000187
 692	6.8754e+01	12.4777	50.345101	0.000264	2.635590	0.892962	-0.000105
 693	6.8854e+01	12.4280	50.179579	0.000416	4.156123	1.408133	-0.000166
 694	6.8954e+01	12.3911	50.030205	0.000375	3.750647	1.270754	-0.000150
 695	6.9053e+01	12.3494	49.812199	0.000547	5.473918	1.854614	-0.000219
 696	6.9153e+01	12.3045	49.719345	0.000233	2.331483	0.789928	-0.000093
 697	6.9252e+01	12.2724	49.545748	0.000436	4.358860	1.476822	-0.000174
 698	6.9352e+01	12.2355	49.408486	0.000345	3.446541	1.167720	-0.000138
 699	6.9451e+01	12.1922	49.283335	0.000314	3.142434	1.064686	-0.000126
 700	6.9550e+01	12.1537	49.142035	0.000355	3.547910	1.202064	-0.000142
 701	6.9650e+01	12.1216	49.000735	0.000355	3.547910	1.202064	-0.000142
 702	6.9749e+01	12.0654	48.851361	0.000375	3.750647	1.270754	-0.000150
 703	6.9849e+01	12.0317	48.734284	0.000294	2.939697	0.995996	-0.000118
 704	6.9948e+01	11.9852	48.629319	0.000264	2.635590	0.892962	-0.000105
 705	7.0048e+01	11.9515	48.479945	0.000375	3.750647	1.270754	-0.000150
 706	7.0147e+01	11.9034	48.354793	0.000314	3.142434	1.064686	-0.000126
 707	7.0247e+01	11.8729	48.205419	0.000375	3.750647	1.270754	-0.000150
 708	7.0347e+01	11.8248	48.064120	0.000355	3.547910	1.202064	-0.000142
 709	7.0446e+01	11.7815	47.910708	0.000385	3.852016	1.305098	-0.000154
 710	7.0546e+01	11.7526	47.809780	0.000253	2.534221	0.858617	-0.000101
 711	7.0645e+01	11.7125	47.611960	0.000497	4.967074	1.682890	-0.000199
 712	7.0745e+01	11.6852	47.478735	0.000335	3.345172	1.133375	-0.000134
 713	7.0844e+01	11.6275	47.276878	0.000507	5.068442	1.717235	-0.000203
 714	7.0944e+01	11.5954	47.127504	0.000375	3.750647	1.270754	-0.000150
 715	7.1043e+01	11.5569	46.998316	0.000324	3.243803	1.099030	-0.000130
 716	7.1142e+01	11.5120	46.812607	0.000466	4.662967	1.579856	-0.000187
 717	7.1242e+01	11.4735	46.691493	0.000304	3.041065	1.030341	-0.000122
 718	7.1341e+01	11.4302	46.542119	0.000375	3.750647	1.270754	-0.000150
 719	7.1441e+01	11.3965	46.392745	0.000375	3.750647	1.270754	-0.000150
 720	7.1540e+01	11.3499	46.243371	0.000375	3.750647	1.270754	-0.000150
 721	7.1640e+01	11.3114	46.077849	0.000416	4.156123	1.408133	-0.000166
 722	7.1740e+01	11.2762	46.017292	0.000152	1.520533	0.515170	-0.000061
 723	7.1839e+01	11.2377	45.855806	0.000405	4.054754	1.373788	-0.000162
 724	7.1939e+01	11.1959	45.738729	0.000294	2.939697	0.995996	-0.000118
 725	7.2038e+01	11.1446	45.544947	0.000487	4.865705	1.648545	-0.000195
 726	7.2138e+01	11.1157	45.403647	0.000355	3.547910	1.202064	-0.000142
 727	7.2237e+01	11.0724	45.250236	0.000385	3.852016	1.305098	-0.000154
 728	7.2337e+01	11.0355	45.129122	0.000304	3.041065	1.030341	-0.000122
 729	7.2436e+01	11.0018	44.979748	0.000375	3.750647	1.270754	-0.000150
 730	7.2535e+01	10.9665	44.794040	0.000466	4.662967	1.579856	-0.000187
 731	7.2635e+01	10.9216	44.624480	0.000426	4.257492	1.442477	-0.000170
 732	7.2734e+01	10.8735	44.422623	0.000507	5.068442	1.717235	-0.000203
 733	7.2834e+01	10.8382	44.309583	0.000284	2.838328	0.961651	-0.000114
 734	7.2933e+01	10.7933	44.164246	0.000365	3.649279	1.236409	-0.000146
 735	7.3033e+01	10.7612	44.035058	0.000324	3.243803	1.099030	-0.000130
 736	7.3132e+01	10.7179	43.857424	0.000446	4.460229	1.511167	-0.000179
 737	7.3232e+01	10.6665	43.708050	0.000375	3.750647	1.270754	-0.000150
 738	7.3332e+01	10.6377	43.611159	0.000243	2.432852	0.824273	-0.000097
 739	7.3431e+01	10.5944	43.481970	0.000324	3.243803	1.099030	-0.000130
 740	7.3531e+01	10.5526	43.312411	0.000426	4.257492	1.442477	-0.000170
 741	7.3630e+01	10.5157	43.195334	0.000294	2.939697	0.995996	-0.000118
 742	7.3730e+01	10.4692	43.066145	0.000324	3.243803	1.099030	-0.000130
 743	7.3829e+01	10.4339	42.912734	0.000385	3.852016	1.305098	-0.000154
 744	7.3928e+01	10.3954	42.767397	0.000365	3.649279	1.236409	-0.000146
 745	7.4028e+01	10.3633	42.605912	0.000405	4.054754	1.373788	-0.000162
 746	7.4127e+01	10.3152	42.488835	0.000294	2.939697	0.995996	-0.000118
 747	7.4227e+01	10.2751	42.339461	0.000375	3.750647	1.270754	-0.000150
 748	7.4326e+01	10.2414	42.153753	0.000466	4.662967	1.579856	-0.000187
 749	7.4426e+01	10.1949	41.992267	0.000405	4.054754	1.373788	-0.000162
 750	7.4525e+01	10.1532	41.830782	0.000405	4.054754	1.373788	-0.000162
 751	7.4625e+01	10.1211	41.600665	0.000578	5.778024	1.957648	-0.000231
 752	7.4725e+01	10.0682	41.483588	0.000294	2.939697	0.995996	-0.000118
 753	7.4824e+01	10.0313	41.326140	0.000395	3.953385	1.339443	-0.000158
 754	7.4924e+01	9.9960	41.172729	0.000385	3.852016	1.305098	-0.000154
 755	7.5023e+01	9.9639	41.023355	0.000375	3.750647	1.270754	-0.000150
 756	7.5123e+01	9.9126	40.918389	0.000264	2.635590	0.892962	-0.000105
 757	7.5222e+01	9.8805	40.793238	0.000314	3.142434	1.064686	-0.000126
 758	7.5322e+01	9.8404	40.627715	0.000416	4.156123	1.408133	-0.000166
 759	7.5421e+01	9.7987	40.466230	0.000405	4.054754	1.373788	-0.000162
 760	7.5520e+01	9.7666	40.328967	0.000345	3.446541	1.167720	-0.000138
 761	7.5620e+01	9.7088	40.215928	0.000284	2.838328	0.961651	-0.000114
 762	7.5719e+01	9.6831	40.070591	0.000365	3.649279	1.236409	-0.000146
 763	7.5819e+01	9.6318	39.921217	0.000375	3.750647	1.270754	-0.000150
 764	7.5918e+01	9.6029	39.759731	0.000405	4.054754	1.373788	-0.000162
 765	7.6018e+01	9.5548	39.614394	0.000365	3.649279	1.236409	-0.000146
 766	7.6118e+01	9.5259	39.444835	0.000426	4.257492	1.442477	-0.000170
 767	7.6217e+01	9.4810	39.307572	0.000345	3.446541	1.167720	-0.000138
 768	7.6317e+01	9.4441	39.146087	0.000405	4.054754	1.373788	-0.000162
 769	7.6416e+01	9.3960	38.960378	0.000466	4.662967	1.579856	-0.000187
 770	7.6516e+01	9.3607	38.819079	0.000355	3.547910	1.202064	-0.000142
 771	7.6615e+01	9.3206	38.673742	0.000365	3.649279	1.236409	-0.000146
 772	7.6715e+01	9.2773	38.512256	0.000405	4.054754	1.373788	-0.000162
 773	7.6814e+01	9.2436	38.354808	0.000395	3.953385	1.339443	-0.000158
 774	7.6913e+01	9.1987	38.221583	0.000335	3.345172	1.133375	-0.000134
 775	7.7013e+01	9.1602	38.060097	0.000405	4.054754	1.373788	-0.000162
 776	7.7112e+01	9.1281	37.938983	0.000304	3.041065	1.030341	-0.000122
 777	7.7212e+01	9.0832	37.797683	0.000355	3.547910	1.202064	-0.000142
 778	7.7311e+01	9.0415	37.644272	0.000385	3.852016	1.305098	-0.000154
 779	7.7411e+01	8.9965	37.478750	0.000416	4.156123	1.408133	-0.000166
 780	7.7510e+01	8.9628	37.289004	0.000476	4.764336	1.614201	-0.000191
 781	7.7610e+01	8.9163	37.188076	0.000253	2.534221	0.858617	-0.000101
 782	7.7710e+01	8.8810	36.998330	0.000476	4.764336	1.614201	-0.000191
 783	7.7809e+01	8.8329	36.897402	0.000253	2.534221	0.858617	-0.000101
 784	7.7909e+01	8.7976	36.743991	0.000385	3.852016	1.305098	-0.000154
 785	7.8008e+01	8.7639	36.586543	0.000395	3.953385	1.339443	-0.000158
 786	7.8108e+01	8.7174	36.376612	0.000527	5.271180	1.785924	-0.000211
 787	7.8207e+01	8.6821	36.207052	0.000426	4.257492	1.442477	-0.000170
 788	7.8306e+01	8.6468	36.041529	0.000416	4.156123	1.408133	-0.000166
 789	7.8406e+01	8.6115	35.859858	0.000456	4.561598	1.545511	-0.000183
 790	7.8505e+01	8.5666	35.726633	0.000335	3.345172	1.133375	-0.000134
 791	7.8605e+01	8.5265	35.585333	0.000355	3.547910	1.202064	-0.000142
 792	7.8704e+01	8.4784	35.464219	0.000304	3.041065	1.030341	-0.000122
 793	7.8804e+01	8.4479	35.330993	0.000335	3.345172	1.133375	-0.000134
 794	7.8903e+01	8.4078	35.169508	0.000405	4.054754	1.373788	-0.000162
 795	7.9003e+01	8.3645	35.032245	0.000345	3.446541	1.167720	-0.000138
 796	7.9103e+01	8.3244	34.878834	0.000385	3.852016	1.305098	-0.000154
 797	7.9202e+01	8.2859	34.737534	0.000355	3.547910	1.202064	-0.000142
 798	7.9302e+01	8.2474	34.600272	0.000345	3.446541	1.167720	-0.000138
 799	7.9401e+01	8.2040	34.438786	0.000405	4.054754	1.373788	-0.000162
 800	7.9501e+01	8.1671	34.245004	0.000487	4.865705	1.648545	-0.000195
 801	7.9600e+01	8.1270	34.144076	0.000253	2.534221	0.858617	-0.000101
 802	7.9700e+01	8.0869	33.950293	0.000487	4.865705	1.648545	-0.000195
 803	7.9799e+01	8.0516	33.829179	0.000304	3.041065	1.030341	-0.000122
 804	7.9898e+01	8.0115	33.635396	0.000487	4.865705	1.648545	-0.000195
 805	7.9998e+01	7.9698	33.502171	0.000335	3.345172	1.133375	-0.000134
 806	8.0097e+01	7.9169	33.352797	0.000375	3.750647	1.270754	-0.000150
 807	8.0197e+01	7.8880	33.154977	0.000497	4.967074	1.682890	-0.000199
 808	8.0296e+01	7.8447	32.989455	0.000416	4.156123	1.408133	-0.000166
 809	8.0396e+01	7.8078	32.900638	0.000223	2.230115	0.755583	-0.000089
 810	8.0496e+01	7.7629	32.735115	0.000416	4.156123	1.408133	-0.000166
 811	8.0595e+01	7.7372	32.609964	0.000314	3.142434	1.064686	-0.000126
 812	8.0695e+01	7.6843	32.476738	0.000335	3.345172	1.133375	-0.000134
 813	8.0794e+01	7.6506	32.246622	0.000578	5.778024	1.957648	-0.000231
 814	8.0894e+01	7.6057	32.177990	0.000172	1.723270	0.583860	-0.000069
 815	8.0993e+01	7.5624	31.996319	0.000456	4.561598	1.545511	-0.000183
 816	8.1093e+01	7.5255	31.834834	0.000405	4.054754	1.373788	-0.000162
 817	8.1192e+01	7.4918	31.697571	0.000345	3.446541	1.167720	-0.000138
 818	8.1291e+01	7.4452	31.528012	0.000426	4.257492	1.442477	-0.000170
 819	8.1391e+01	7.4003	31.374600	0.000385	3.852016	1.305098	-0.000154
 820	8.1490e+01	7.3666	31.237338	0.000345	3.446541	1.167720	-0.000138
 821	8.1590e+01	7.3249	31.063741	0.000436	4.358860	1.476822	-0.000174
 822	8.1689e+01	7.2912	30.894181	0.000426	4.257492	1.442477	-0.000170
 823	8.1789e+01	7.2527	30.764993	0.000324	3.243803	1.099030	-0.000130
 824	8.1888e+01	7.2126	30.555062	0.000527	5.271180	1.785924	-0.000211
 825	8.1988e+01	7.1645	30.429911	0.000314	3.142434	1.064686	-0.000126
 826	8.2088e+01	7.1260	30.276499	0.000385	3.852016	1.305098	-0.000154
 827	8.2187e+01	7.0827	30.131163	0.000365	3.649279	1.236409	-0.000146
 828	8.2287e+01	7.0474	29.981789	0.000375	3.750647	1.270754	-0.000150
 829	8.2386e+01	7.0153	29.844526	0.000345	3.446541	1.167720	-0.000138
 830	8.2486e+01	6.9784	29.695152	0.000375	3.750647	1.270754	-0.000150
 831	8.2585e+01	6.9303	29.505407	0.000476	4.764336	1.614201	-0.000191
 832	8.2684e+01	6.8918	29.347958	0.000395	3.953385	1.339443	-0.000158
 833	8.2784e+01	6.8453	29.198584	0.000375	3.750647	1.270754	-0.000150
 834	8.2883e+01	6.8164	29.049210	0.000375	3.750647	1.270754	-0.000150
 835	8.2983e+01	6.7715	28.887725	0.000405	4.054754	1.373788	-0.000162
 836	8.3082e+01	6.7346	28.726239	0.000405	4.054754	1.373788	-0.000162
 837	8.3182e+01	6.6913	28.601088	0.000314	3.142434	1.064686	-0.000126
 838	8.3281e+01	6.6560	28.419417	0.000456	4.561598	1.545511	-0.000183
 839	8.3381e+01	6.6110	28.266006	0.000385	3.852016	1.305098	-0.000154
 840	8.3481e+01	6.5677	28.076260	0.000476	4.764336	1.614201	-0.000191
 841	8.3580e+01	6.5324	27.922849	0.000385	3.852016	1.305098	-0.000154
 842	8.3680e+01	6.4875	27.741178	0.000456	4.561598	1.545511	-0.000183
 843	8.3779e+01	6.4586	27.640250	0.000253	2.534221	0.858617	-0.000101
 844	8.3879e+01	6.4073	27.458579	0.000456	4.561598	1.545511	-0.000183
 845	8.3978e+01	6.3736	27.305168	0.000385	3.852016	1.305098	-0.000154
 846	8.4078e+01	6.3367	27.155794	0.000375	3.750647	1.270754	-0.000150
 847	8.4177e+01	6.2934	27.018531	0.000345	3.446541	1.167720	-0.000138
 848	8.4276e+01	6.2549	26.844934	0.000436	4.358860	1.476822	-0.000174
 849	8.4376e+01	6.2180	26.691523	0.000385	3.852016	1.305098	-0.000154
 850	8.4475e+01	6.1715	26.542149	0.000375	3.750647	1.270754	-0.000150
 851	8.4575e+01	6.1330	26.404886	0.000345	3.446541	1.167720	-0.000138
 852	8.4674e+01	6.0961	26.275698	0.000324	3.243803	1.099030	-0.000130
 853	8.4774e+01	6.0512	26.073841	0.000507	5.068442	1.717235	-0.000203
 854	8.4874e+01	6.0079	25.880059	0.000487	4.865705	1.648545	-0.000195
 855	8.4973e+01	5.9774	25.767019	0.000284	2.838328	0.961651	-0.000114
 856	8.5073e+01	5.9357	25.605533	0.000405	4.054754	1.373788	-0.000162
 857	8.5172e+01	5.8907	25.440011	0.000416	4.156123	1.408133	-0.000166
 858	8.5272e+01	5.8554	25.294674	0.000365	3.649279	1.236409	-0.000146
 859	8.5371e+01	5.8266	25.104929	0.000476	4.764336	1.614201	-0.000191
 860	8.5471e+01	5.7817	24.935369	0.000426	4.257492	1.442477	-0.000170
 861	8.5570e+01	5.7351	24.818292	0.000294	2.939697	0.995996	-0.000118
 862	8.5669e+01	5.6982	24.636621	0.000456	4.561598	1.545511	-0.000183
 863	8.5769e+01	5.6517	24.499358	0.000345	3.446541	1.167720	-0.000138
 864	8.5868e+01	5.6180	24.341910	0.000395	3.953385	1.339443	-0.000158
 865	8.5968e+01	5.5827	24.180425	0.000405	4.054754	1.373788	-0.000162
 866	8.6067e+01	5.5298	24.002791	0.000446	4.460229	1.511167	-0.000179
 867	8.6167e+01	5.4961	23.873602	0.000324	3.243803	1.099030	-0.000130
 868	8.6266e+01	5.4464	23.675783	0.000497	4.967074	1.682890	-0.000199
 869	8.6366e+01	5.4223	23.550631	0.000314	3.142434	1.064686	-0.000126
 870	8.6466e+01	5.3742	23.385109	0.000416	4.156123	1.408133	-0.000166
 871	8.6565e+01	5.3357	23.243809	0.000355	3.547910	1.202064	-0.000142
 872	8.6665e+01	5.2924	23.066175	0.000446	4.460229	1.511167	-0.000179
 873	8.6764e+01	5.2555	22.924875	0.000355	3.547910	1.202064	-0.000142
 874	8.6864e+01	5.2202	22.747241	0.000446	4.460229	1.511167	-0.000179
 875	8.6963e+01	5.1769	22.581719	0.000416	4.156123	1.408133	-0.000166
 876	8.7063e+01	5.1384	22.448493	0.000335	3.345172	1.133375	-0.000134
 877	8.7162e+01	5.0983	22.254711	0.000487	4.865705	1.648545	-0.000195
 878	8.7261e+01	5.0549	22.117448	0.000345	3.446541	1.167720	-0.000138
 879	8.7361e+01	5.0196	21.947888	0.000426	4.257492	1.442477	-0.000170
 880	8.7460e+01	4.9844	21.782366	0.000416	4.156123	1.408133	-0.000166
 881	8.7560e+01	4.9330	21.612806	0.000426	4.257492	1.442477	-0.000170
 882	8.7659e+01	4.9025	21.459395	0.000385	3.852016	1.305098	-0.000154
 883	8.7759e+01	4.8624	21.330207	0.000324	3.243803	1.099030	-0.000130
 884	8.7859e+01	4.8175	21.188907	0.000355	3.547910	1.202064	-0.000142
 885	8.7958e+01	4.7790	20.995124	0.000487	4.865705	1.648545	-0.000195
 886	8.8058e+01	4.7421	20.821528	0.000436	4.358860	1.476822	-0.000174
 887	8.8157e+01	4.6972	20.672154	0.000375	3.750647	1.270754	-0.000150
 888	8.8257e+01	4.6619	20.490482	0.000456	4.561598	1.545511	-0.000183
 889	8.8356e+01	4.6266	20.324960	0.000416	4.156123	1.408133	-0.000166
 890	8.8456e+01	4.5785	20.187697	0.000345	3.446541	1.167720	-0.000138
 891	8.8555e+01	4.5368	19.989878	0.000497	4.967074	1.682890	-0.000199
 892	8.8654e+01	4.5015	19.864726	0.000314	3.142434	1.064686	-0.000126
 893	8.8754e+01	4.4534	19.674981	0.000476	4.764336	1.614201	-0.000191
 894	8.8853e+01	4.4181	19.485236	0.000476	4.764336	1.614201	-0.000191
 895	8.8953e+01	4.3796	19.315676	0.000426	4.257492	1.442477	-0.000170
 896	8.9052e+01	4.3475	19.190525	0.000314	3.142434	1.064686	-0.000126
 897	8.9152e+01	4.3009	19.025002	0.000416	4.156123	1.408133	-0.000166
 898	8.9251e+01	4.2657	18.827183	0.000497	4.967074	1.682890	-0.000199
 899	8.9351e+01	4.2272	18.726254	0.000253	2.534221	0.858617	-0.000101
 900	8.9451e+01	4.1822	18.528434	0.000497	4.967074	1.682890	-0.000199
 901	8.9550e+01	4.1341	18.366949	0.000405	4.054754	1.373788	-0.000162
 902	8.9650e+01	4.0940	18.157018	0.000527	5.271180	1.785924	-0.000211
 903	8.9749e+01	4.0619	18.039941	0.000294	2.939697	0.995996	-0.000118
 904	8.9849e+01	4.0234	17.894604	0.000365	3.649279	1.236409	-0.000146
 905	8.9948e+01	3.9881	17.733119	0.000405	4.054754	1.373788	-0.000162
 906	9.0047e+01	3.9384	17.535299	0.000497	4.967074	1.682890	-0.000199
 907	9.0147e+01	3.9047	17.402074	0.000335	3.345172	1.133375	-0.000134
 908	9.0246e+01	3.8598	17.252700	0.000375	3.750647	1.270754	-0.000150
 909	9.0346e+01	3.8229	17.079103	0.000436	4.358860	1.476822	-0.000174
 910	9.0445e+01	3.7844	16.917617	0.000405	4.054754	1.373788	-0.000162
 911	9.0545e+01	3.7411	16.711723	0.000517	5.169811	1.751579	-0.000207
 912	9.0644e+01	3.7042	16.590609	0.000304	3.041065	1.030341	-0.000122
 913	9.0744e+01	3.6737	16.360493	0.000578	5.778024	1.957648	-0.000231
 914	9.0844e+01	3.6272	16.211119	0.000375	3.750647	1.270754	-0.000150
 915	9.0943e+01	3.5758	16.069819	0.000355	3.547910	1.202064	-0.000142
 916	9.1043e+01	3.5454	15.948705	0.000304	3.041065	1.030341	-0.000122
 917	9.1142e+01	3.5052	15.742811	0.000517	5.169811	1.751579	-0.000207
 918	9.1242e+01	3.4619	15.577288	0.000416	4.156123	1.408133	-0.000166
 919	9.1341e+01	3.4315	15.431951	0.000365	3.649279	1.236409	-0.000146
 920	9.1441e+01	3.3865	15.222020	0.000527	5.271180	1.785924	-0.000211
 921	9.1540e+01	3.3416	15.088795	0.000335	3.345172	1.133375	-0.000134
 922	9.1639e+01	3.2919	14.927309	0.000405	4.054754	1.373788	-0.000162
 923	9.1739e+01	3.2678	14.810232	0.000294	2.939697	0.995996	-0.000118
 924	9.1838e+01	3.2165	14.644710	0.000416	4.156123	1.408133	-0.000166
 925	9.1938e+01	3.1876	14.446890	0.000497	4.967074	1.682890	-0.000199
 926	9.2037e+01	3.1443	14.301553	0.000365	3.649279	1.236409	-0.000146
 927	9.2137e+01	3.0946	14.140068	0.000405	4.054754	1.373788	-0.000162
 928	9.2237e+01	3.0689	13.958397	0.000456	4.561598	1.545511	-0.000183
 929	9.2336e+01	3.0240	13.809023	0.000375	3.750647	1.270754	-0.000150
 930	9.2436e+01	2.9919	13.643500	0.000416	4.156123	1.408133	-0.000166
 931	9.2535e+01	2.9422	13.494126	0.000375	3.750647	1.270754	-0.000150
 932	9.2635e+01	2.9101	13.304381	0.000476	4.764336	1.614201	-0.000191
 933	9.2734e+01	2.8700	13.126747	0.000446	4.460229	1.511167	-0.000179
 934	9.2834e+01	2.8379	12.985447	0.000355	3.547910	1.202064	-0.000142
 935	9.2933e+01	2.7898	12.836073	0.000375	3.750647	1.270754	-0.000150
 936	9.3032e+01	2.7497	12.654402	0.000456	4.561598	1.545511	-0.000183
 937	9.3132e+01	2.7063	12.500991	0.000385	3.852016	1.305098	-0.000154
 938	9.3231e+01	2.6727	12.331431	0.000426	4.257492	1.442477	-0.000170
 939	9.3331e+01	2.6309	12.137649	0.000487	4.865705	1.648545	-0.000195
 940	9.3430e+01	2.5828	11.968089	0.000426	4.257492	1.442477	-0.000170
 941	9.3530e+01	2.5395	11.822752	0.000365	3.649279	1.236409	-0.000146
 942	9.3629e+01	2.5138	11.657229	0.000416	4.156123	1.408133	-0.000166
 943	9.3729e+01	2.4641	11.431150	0.000568	5.676655	1.923303	-0.000227
 944	9.3829e+01	2.4320	11.297924	0.000335	3.345172	1.133375	-0.000134
 945	9.3928e+01	2.3855	11.156625	0.000355	3.547910	1.202064	-0.000142
 946	9.4028e+01	2.3534	11.003213	0.000385	3.852016	1.305098	-0.000154
 947	9.4127e+01	2.3085	10.841728	0.000405	4.054754	1.373788	-0.000162
 948	9.4227e+01	2.2700	10.740800	0.000253	2.534221	0.858617	-0.000101
 949	9.4326e+01	2.2315	10.542980	0.000497	4.967074	1.682890	-0.000199
 950	9.4425e+01	2.1866	10.357272	0.000466	4.662967	1.579856	-0.000187
 951	9.4525e+01	2.1529	10.131192	0.000568	5.676655	1.923303	-0.000227
 952	9.4624e+01	2.1048	9.953558	0.000446	4.460229	1.511167	-0.000179
 953	9.4724e+01	2.0679	9.828407	0.000314	3.142434	1.064686	-0.000126
 954	9.4823e+01	2.0374	9.699219	0.000324	3.243803	1.099030	-0.000130
 955	9.4923e+01	1.9860	9.493325	0.000517	5.169811	1.751579	-0.000207
 956	9.5022e+01	1.9507	9.287431	0.000517	5.169811	1.751579	-0.000207
 957	9.5122e+01	1.9074	9.150168	0.000345	3.446541	1.167720	-0.000138
 958	9.5222e+01	1.8689	8.984646	0.000416	4.156123	1.408133	-0.000166
 959	9.5321e+01	1.8304	8.831234	0.000385	3.852016	1.305098	-0.000154
 960	9.5421e+01	1.7951	8.665712	0.000416	4.156123	1.408133	-0.000166
 961	9.5520e+01	1.7534	8.504226	0.000405	4.054754	1.373788	-0.000162
 962	9.5620e+01	1.7101	8.362927	0.000355	3.547910	1.202064	-0.000142
 963	9.5719e+01	1.6636	8.209516	0.000385	3.852016	1.305098	-0.000154
 964	9.5819e+01	1.6363	8.080327	0.000324	3.243803	1.099030	-0.000130
 965	9.5918e+01	1.5962	7.898656	0.000456	4.561598	1.545511	-0.000183
 966	9.6017e+01	1.5529	7.753319	0.000365	3.649279	1.236409	-0.000146
 967	9.6117e+01	1.5160	7.571648	0.000456	4.561598	1.545511	-0.000183
 968	9.6216e+01	1.4727	7.414200	0.000395	3.953385	1.339443	-0.000158
 969	9.6316e+01	1.4342	7.208306	0.000517	5.169811	1.751579	-0.000207
 970	9.6415e+01	1.3925	7.050858	0.000395	3.953385	1.339443	-0.000158
 971	9.6515e+01	1.3540	6.865149	0.000466	4.662967	1.579856	-0.000187
 972	9.6615e+01	1.3042	6.663293	0.000507	5.068442	1.717235	-0.000203
 973	9.6714e+01	1.2738	6.562364	0.000253	2.534221	0.858617	-0.000101
 974	9.6814e+01	1.2337	6.404916	0.000395	3.953385	1.339443	-0.000158
 975	9.6913e+01	1.1935	6.239393	0.000416	4.156123	1.408133	-0.000166
 976	9.7013e+01	1.1534	6.065796	0.000436	4.358860	1.476822	-0.000174
 977	9.7112e+01	1.1117	5.876051	0.000476	4.764336	1.614201	-0.000191
 978	9.7212e+01	1.0636	5.750900	0.000314	3.142434	1.064686	-0.000126
 979	9.7311e+01	1.0251	5.549043	0.000507	5.068442	1.717235	-0.000203
 980	9.7410e+01	0.9914	5.452152	0.000243	2.432852	0.824273	-0.000097
 981	9.7510e+01	0.9481	5.290666	0.000405	4.054754	1.373788	-0.000162
 982	9.7609e+01	0.9128	5.157441	0.000335	3.345172	1.133375	-0.000134
 983	9.7709e+01	0.8727	4.991918	0.000416	4.156123	1.408133	-0.000166
 984	9.7808e+01	0.8374	4.846581	0.000365	3.649279	1.236409	-0.000146
 985	9.7908e+01	0.7925	4.664910	0.000456	4.561598	1.545511	-0.000183
 986	9.8007e+01	0.7556	4.515536	0.000375	3.750647	1.270754	-0.000150
 987	9.8107e+01	0.7139	4.273308	0.000608	6.082131	2.060682	-0.000243
 988	9.8207e+01	0.6738	4.115860	0.000395	3.953385	1.339443	-0.000158
 989	9.8306e+01	0.6353	3.942263	0.000436	4.358860	1.476822	-0.000174
 990	9.8406e+01	0.5984	3.736369	0.000517	5.169811	1.751579	-0.000207
 991	9.8505e+01	0.5567	3.591032	0.000365	3.649279	1.236409	-0.000146
 992	9.8605e+01	0.5198	3.441658	0.000375	3.750647	1.270754	-0.000150
 993	9.8704e+01	0.4797	3.272099	0.000426	4.257492	1.442477	-0.000170
 994	9.8803e+01	0.4444	3.090427	0.000456	4.561598	1.545511	-0.000183
 995	9.8903e+01	0.4011	2.961239	0.000324	3.243803	1.099030	-0.000130
 996	9.9002e+01	0.3577	2.763419	0.000497	4.967074	1.682890	-0.000199
 997	9.9102e+01	0.3080	2.618083	0.000365	3.649279	1.236409	-0.000146
 998	9.9201e+01	0.2807	2.517154	0.000253	2.534221	0.858617	-0.000101
 999	9.9301e+01	0.2294	2.339520	0.000446	4.460229	1.511167	-0.000179
1000	9.9400e+01	0.1893	2.206295	0.000335	3.345172	1.133375	-0.000134
1001	9.9500e+01	0.1588	2.028661	0.000446	4.460229	1.511167	-0.000179
1002	9.9600e+01	0.1203	1.846990	0.000456	4.561598	1.545511	-0.000183
1003	9.9699e+01	0.0738	1.693578	0.000385	3.852016	1.305098	-0.000154
1004	9.9799e+01	0.0289	1.515944	0.000446	4.460229	1.511167	-0.000179
1005	9.9898e+01	0.0032	1.354459	0.000405	4.054754	1.373788	-0.000162
1006	9.9998e+01	-0.0273	1.176825	0.000446	4.460229	1.511167	-0.000179
1007	1.0010e+02	-0.0674	0.966894	0.000527	5.271180	1.785924	-0.000211
1008	1.0020e+02	-0.1187	0.833669	0.000335	3.345172	1.133375	-0.000134
1009	1.0030e+02	-0.1540	0.672183	0.000405	4.054754	1.373788	-0.000162
1010	1.0040e+02	-0.1893	0.506661	0.000416	4.156123	1.408133	-0.000166
1011	1.0050e+02	-0.2310	0.341138	0.000416	4.156123	1.408133	-0.000166
1012	1.0059e+02	-0.2743	0.179653	0.000405	4.054754	1.373788	-0.000162
1013	1.0069e+02	-0.3112	-0.010093	0.000476	4.764336	1.614201	-0.000191
1014	1.0079e+02	-0.3529	-0.167541	0.000395	3.953385	1.339443	-0.000158
1015	1.0089e+02	-0.3882	-0.264432	0.000243	2.432852	0.824273	-0.000097
1016	1.0099e+02	-0.4299	-0.421881	0.000395	3.953385	1.339443	-0.000158
1017	1.0109e+02	-0.4813	-0.575292	0.000385	3.852016	1.305098	-0.000154
1018	1.0119e+02	-0.5182	-0.761000	0.000466	4.662967	1.579856	-0.000187
1019	1.0129e+02	-0.5486	-0.934597	0.000436	4.358860	1.476822	-0.000174
1020	1.0139e+02	-0.5936	-1.100119	0.000416	4.156123	1.408133	-0.000166
1021	1.0149e+02	-0.6369	-1.269679	0.000426	4.257492	1.442477	-0.000170
1022	1.0159e+02	-0.6690	-1.451350	0.000456	4.561598	1.545511	-0.000183
1023	1.0169e+02	-0.7123	-1.616873	0.000416	4.156123	1.408133	-0.000166
1024	1.0179e+02	-0.7540	-1.806618	0.000476	4.764336	1.614201	-0.000191
1025	1.0189e+02	-0.7925	-1.951955	0.000365	3.649279	1.236409	-0.000146
1026	1.0199e+02	-0.8342	-2.109403	0.000395	3.953385	1.339443	-0.000158
1027	1.0209e+02	-0.8615	-2.270889	0.000405	4.054754	1.373788	-0.000162
1028	1.0219e+02	-0.9032	-2.444486	0.000436	4.358860	1.476822	-0.000174
1029	1.0229e+02	-0.9449	-2.589823	0.000365	3.649279	1.236409	-0.000146
1030	1.0239e+02	-0.9962	-2.795716	0.000517	5.169811	1.751579	-0.000207
1031	1.0248e+02	-1.0444	-2.941053	0.000365	3.649279	1.236409	-0.000146
1032	1.0258e+02	-1.0684	-3.114650	0.000436	4.358860	1.476822	-0.000174
1033	1.0268e+02	-1.1182	-3.255950	0.000355	3.547910	1.202064	-0.000142
1034	1.0278e+02	-1.1599	-3.373027	0.000294	2.939697	0.995996	-0.000118
1035	1.0288e+02	-1.1968	-3.586995	0.000537	5.372549	1.820269	-0.000215
1036	1.0298e+02	-1.2288	-3.700035	0.000284	2.838328	0.961651	-0.000114
1037	1.0308e+02	-1.2641	-3.857483	0.000395	3.953385	1.339443	-0.000158
1038	1.0318e+02	-1.3058	-4.010894	0.000385	3.852016	1.305098	-0.000154
1039	1.0328e+02	-1.3508	-4.172380	0.000405	4.054754	1.373788	-0.000162
1040	1.0338e+02	-1.3893	-4.358088	0.000466	4.662967	1.579856	-0.000187
1041	1.0348e+02	-1.4262	-4.572056	0.000537	5.372549	1.820269	-0.000215
1042	1.0358e+02	-1.4759	-4.749690	0.000446	4.460229	1.511167	-0.000179
1043	1.0368e+02	-1.5096	-4.858693	0.000274	2.736959	0.927307	-0.000110
1044	1.0378e+02	-1.5465	-5.080735	0.000558	5.575287	1.888958	-0.000223
1045	1.0388e+02	-1.5882	-5.238184	0.000395	3.953385	1.339443	-0.000158
1046	1.0398e+02	-1.6251	-5.407743	0.000426	4.257492	1.442477	-0.000170
1047	1.0408e+02	-1.6748	-5.585377	0.000446	4.460229	1.511167	-0.000179
1048	1.0418e+02	-1.7037	-5.783197	0.000497	4.967074	1.682890	-0.000199
1049	1.0428e+02	-1.7470	-5.904311	0.000304	3.041065	1.030341	-0.000122
1050	1.0438e+02	-1.7807	-6.041574	0.000345	3.446541	1.167720	-0.000138
1051	1.0447e+02	-1.8320	-6.190948	0.000375	3.750647	1.270754	-0.000150
1052	1.0457e+02	-1.8689	-6.344359	0.000385	3.852016	1.305098	-0.000154
1053	1.0467e+02	-1.9122	-6.489696	0.000365	3.649279	1.236409	-0.000146
1054	1.0477e+02	-1.9524	-6.655218	0.000416	4.156123	1.408133	-0.000166
1055	1.0487e+02	-1.9925	-6.869186	0.000537	5.372549	1.820269	-0.000215
1056	1.0497e+02	-2.0342	-7.006449	0.000345	3.446541	1.167720	-0.000138
1057	1.0507e+02	-2.0630	-7.200232	0.000487	4.865705	1.648545	-0.000195
1058	1.0517e+02	-2.1112	-7.365754	0.000416	4.156123	1.408133	-0.000166
1059	1.0527e+02	-2.1497	-7.551462	0.000466	4.662967	1.579856	-0.000187
1060	1.0537e+02	-2.1818	-7.721022	0.000426	4.257492	1.442477	-0.000170
1061	1.0547e+02	-2.2283	-7.943065	0.000558	5.575287	1.888958	-0.000223
1062	1.0557e+02	-2.2716	-8.088401	0.000365	3.649279	1.236409	-0.000146
1063	1.0567e+02	-2.3053	-8.245850	0.000395	3.953385	1.339443	-0.000158
1064	1.0577e+02	-2.3438	-8.463855	0.000547	5.473918	1.854614	-0.000219
1065	1.0587e+02	-2.3871	-8.512301	0.000122	1.216426	0.412136	-0.000049
1066	1.0597e+02	-2.4304	-8.710120	0.000497	4.967074	1.682890	-0.000199
1067	1.0607e+02	-2.4689	-8.851420	0.000355	3.547910	1.202064	-0.000142
1068	1.0617e+02	-2.5026	-9.016943	0.000416	4.156123	1.408133	-0.000166
1069	1.0627e+02	-2.5491	-9.154205	0.000345	3.446541	1.167720	-0.000138
1070	1.0637e+02	-2.5812	-9.335876	0.000456	4.561598	1.545511	-0.000183
1071	1.0647e+02	-2.6277	-9.477176	0.000355	3.547910	1.202064	-0.000142
1072	1.0656e+02	-2.6646	-9.670959	0.000487	4.865705	1.648545	-0.000195
1073	1.0666e+02	-2.7079	-9.828407	0.000395	3.953385	1.339443	-0.000158
1074	1.0676e+02	-2.7432	-9.953558	0.000314	3.142434	1.064686	-0.000126
1075	1.0686e+02	-2.7849	-10.167526	0.000537	5.372549	1.820269	-0.000215
1076	1.0696e+02	-2.8267	-10.353235	0.000466	4.662967	1.579856	-0.000187
1077	1.0706e+02	-2.8700	-10.514720	0.000405	4.054754	1.373788	-0.000162
1078	1.0716e+02	-2.9053	-10.676205	0.000405	4.054754	1.373788	-0.000162
1079	1.0726e+02	-2.9486	-10.857877	0.000456	4.561598	1.545511	-0.000183
1080	1.0736e+02	-2.9791	-11.035511	0.000446	4.460229	1.511167	-0.000179
1081	1.0746e+02	-3.0224	-11.196996	0.000405	4.054754	1.373788	-0.000162
1082	1.0756e+02	-3.0657	-11.346370	0.000375	3.750647	1.270754	-0.000150
1083	1.0766e+02	-3.0994	-11.552264	0.000517	5.169811	1.751579	-0.000207
1084	1.0776e+02	-3.1427	-11.713749	0.000405	4.054754	1.373788	-0.000162
1085	1.0786e+02	-3.1908	-11.802566	0.000223	2.230115	0.755583	-0.000089
1086	1.0796e+02	-3.2197	-11.968089	0.000416	4.156123	1.408133	-0.000166
1087	1.0806e+02	-3.2678	-12.085166	0.000294	2.939697	0.995996	-0.000118
1088	1.0816e+02	-3.2999	-12.278948	0.000487	4.865705	1.648545	-0.000195
1089	1.0826e+02	-3.3400	-12.452545	0.000436	4.358860	1.476822	-0.000174
1090	1.0836e+02	-3.3881	-12.561548	0.000274	2.736959	0.927307	-0.000110
1091	1.0845e+02	-3.4282	-12.783590	0.000558	5.575287	1.888958	-0.000223
1092	1.0855e+02	-3.4667	-12.945076	0.000405	4.054754	1.373788	-0.000162
1093	1.0865e+02	-3.5069	-13.086375	0.000355	3.547910	1.202064	-0.000142
1094	1.0875e+02	-3.5550	-13.288232	0.000507	5.068442	1.717235	-0.000203
1095	1.0885e+02	-3.5758	-13.417421	0.000324	3.243803	1.099030	-0.000130
1096	1.0895e+02	-3.6240	-13.603129	0.000466	4.662967	1.579856	-0.000187
1097	1.0905e+02	-3.6641	-13.800949	0.000497	4.967074	1.682890	-0.000199
1098	1.0915e+02	-3.7058	-13.966471	0.000416	4.156123	1.408133	-0.000166
1099	1.0925e+02	-3.7379	-14.115845	0.000375	3.750647	1.270754	-0.000150
1100	1.0935e+02	-3.7812	-14.245033	0.000324	3.243803	1.099030	-0.000130
1101	1.0945e+02	-3.8213	-14.438816	0.000487	4.865705	1.648545	-0.000195
1102	1.0955e+02	-3.8470	-14.572041	0.000335	3.345172	1.133375	-0.000134
1103	1.0965e+02	-3.9015	-14.733527	0.000405	4.054754	1.373788	-0.000162
1104	1.0975e+02	-3.9496	-14.878864	0.000365	3.649279	1.236409	-0.000146
1105	1.0985e+02	-3.9865	-15.012089	0.000335	3.345172	1.133375	-0.000134
1106	1.0995e+02	-4.0250	-15.169538	0.000395	3.953385	1.339443	-0.000158
1107	1.1005e+02	-4.0667	-15.331023	0.000405	4.054754	1.373788	-0.000162
1108	1.1015e+02	-4.1020	-15.496546	0.000416	4.156123	1.408133	-0.000166
1109	1.1025e+02	-4.1389	-15.637845	0.000355	3.547910	1.202064	-0.000142
1110	1.1035e+02	-4.1854	-15.835665	0.000497	4.967074	1.682890	-0.000199
1111	1.1044e+02	-4.2223	-15.972928	0.000345	3.446541	1.167720	-0.000138
1112	1.1054e+02	-4.2673	-16.138450	0.000416	4.156123	1.408133	-0.000166
1113	1.1064e+02	-4.2977	-16.308010	0.000426	4.257492	1.442477	-0.000170
1114	1.1074e+02	-4.3411	-16.509867	0.000507	5.068442	1.717235	-0.000203
1115	1.1084e+02	-4.3780	-16.691538	0.000456	4.561598	1.545511	-0.000183
1116	1.1094e+02	-4.4181	-16.816689	0.000314	3.142434	1.064686	-0.000126
1117	1.1104e+02	-4.4598	-16.998360	0.000456	4.561598	1.545511	-0.000183
1118	1.1114e+02	-4.4919	-17.167920	0.000426	4.257492	1.442477	-0.000170
1119	1.1124e+02	-4.5352	-17.313257	0.000365	3.649279	1.236409	-0.000146
1120	1.1134e+02	-4.5753	-17.454556	0.000355	3.547910	1.202064	-0.000142
1121	1.1144e+02	-4.6170	-17.603930	0.000375	3.750647	1.270754	-0.000150
1122	1.1154e+02	-4.6539	-17.753304	0.000375	3.750647	1.270754	-0.000150
1123	1.1164e+02	-4.7020	-17.910753	0.000395	3.953385	1.339443	-0.000158
1124	1.1174e+02	-4.7341	-18.072238	0.000405	4.054754	1.373788	-0.000162
1125	1.1184e+02	-4.7758	-18.209501	0.000345	3.446541	1.167720	-0.000138
1126	1.1194e+02	-4.8175	-18.362912	0.000385	3.852016	1.305098	-0.000154
1127	1.1204e+02	-4.8608	-18.540546	0.000446	4.460229	1.511167	-0.000179
1128	1.1214e+02	-4.8897	-18.677808	0.000345	3.446541	1.167720	-0.000138
1129	1.1224e+02	-4.9394	-18.839294	0.000405	4.054754	1.373788	-0.000162
1130	1.1234e+02	-4.9844	-19.025002	0.000466	4.662967	1.579856	-0.000187
1131	1.1244e+02	-5.0164	-19.210710	0.000466	4.662967	1.579856	-0.000187
1132	1.1253e+02	-5.0614	-19.356047	0.000365	3.649279	1.236409	-0.000146
1133	1.1263e+02	-5.0966	-19.533681	0.000446	4.460229	1.511167	-0.000179
1134	1.1273e+02	-5.1319	-19.674981	0.000355	3.547910	1.202064	-0.000142
1135	1.1283e+02	-5.1849	-19.824355	0.000375	3.750647	1.270754	-0.000150
1136	1.1293e+02	-5.2105	-20.001989	0.000446	4.460229	1.511167	-0.000179
1137	1.1303e+02	-5.2555	-20.175586	0.000436	4.358860	1.476822	-0.000174
1138	1.1313e+02	-5.2972	-20.256329	0.000203	2.027377	0.686894	-0.000081
1139	1.1323e+02	-5.3341	-20.409740	0.000385	3.852016	1.305098	-0.000154
1140	1.1333e+02	-5.3742	-20.542965	0.000335	3.345172	1.133375	-0.000134
1141	1.1343e+02	-5.4079	-20.720599	0.000446	4.460229	1.511167	-0.000179
1142	1.1353e+02	-5.4592	-20.869973	0.000375	3.750647	1.270754	-0.000150
1143	1.1363e+02	-5.4881	-20.999162	0.000324	3.243803	1.099030	-0.000130
1144	1.1373e+02	-5.5298	-21.168721	0.000426	4.257492	1.442477	-0.000170
1145	1.1383e+02	-5.5715	-21.293872	0.000314	3.142434	1.064686	-0.000126
1146	1.1393e+02	-5.6132	-21.451321	0.000395	3.953385	1.339443	-0.000158
1147	1.1403e+02	-5.6517	-21.624918	0.000436	4.358860	1.476822	-0.000174
1148	1.1413e+02	-5.7030	-21.794477	0.000426	4.257492	1.442477	-0.000170
1149	1.1423e+02	-5.7271	-21.968074	0.000436	4.358860	1.476822	-0.000174
1150	1.1433e+02	-5.7704	-22.125522	0.000395	3.953385	1.339443	-0.000158
1151	1.1442e+02	-5.8121	-22.295082	0.000426	4.257492	1.442477	-0.000170
1152	1.1452e+02	-5.8571	-22.468679	0.000436	4.358860	1.476822	-0.000174
1153	1.1462e+02	-5.8988	-22.605942	0.000345	3.446541	1.167720	-0.000138
1154	1.1472e+02	-5.9260	-22.718981	0.000284	2.838328	0.961651	-0.000114
1155	1.1482e+02	-5.9661	-22.896615	0.000446	4.460229	1.511167	-0.000179
1156	1.1492e+02	-6.0159	-23.078286	0.000456	4.561598	1.545511	-0.000183
1157	1.1502e+02	-6.0544	-23.223623	0.000365	3.649279	1.236409	-0.000146
1158	1.1512e+02	-6.0961	-23.340700	0.000294	2.939697	0.995996	-0.000118
1159	1.1522e+02	-6.1378	-23.453740	0.000284	2.838328	0.961651	-0.000114
1160	1.1532e+02	-6.1779	-23.651560	0.000497	4.967074	1.682890	-0.000199
1161	1.1542e+02	-6.2132	-23.764600	0.000284	2.838328	0.961651	-0.000114
1162	1.1552e+02	-6.2533	-23.942233	0.000446	4.460229	1.511167	-0.000179
1163	1.1562e+02	-6.2886	-24.095645	0.000385	3.852016	1.305098	-0.000154
1164	1.1572e+02	-6.3367	-24.236944	0.000355	3.547910	1.202064	-0.000142
1165	1.1582e+02	-6.3640	-24.374207	0.000345	3.446541	1.167720	-0.000138
1166	1.1592e+02	-6.4009	-24.563952	0.000476	4.764336	1.614201	-0.000191
1167	1.1602e+02	-6.4458	-24.721401	0.000395	3.953385	1.339443	-0.000158
1168	1.1612e+02	-6.4827	-24.866738	0.000365	3.649279	1.236409	-0.000146
1169	1.1622e+02	-6.5228	-25.044372	0.000446	4.460229	1.511167	-0.000179
1170	1.1632e+02	-6.5677	-25.234117	0.000476	4.764336	1.614201	-0.000191
1171	1.1642e+02	-6.6094	-25.347157	0.000284	2.838328	0.961651	-0.000114
1172	1.1651e+02	-6.6415	-25.492494	0.000365	3.649279	1.236409	-0.000146
1173	1.1661e+02	-6.6816	-25.645905	0.000385	3.852016	1.305098	-0.000154
1174	1.1671e+02	-6.7217	-25.799316	0.000385	3.852016	1.305098	-0.000154
1175	1.1681e+02	-6.7715	-25.944653	0.000365	3.649279	1.236409	-0.000146
1176	1.1691e+02	-6.8100	-26.037507	0.000233	2.331483	0.789928	-0.000093
1177	1.1701e+02	-6.8437	-26.182844	0.000365	3.649279	1.236409	-0.000146
1178	1.1711e+02	-6.8854	-26.348366	0.000416	4.156123	1.408133	-0.000166
1179	1.1721e+02	-6.9255	-26.481592	0.000335	3.345172	1.133375	-0.000134
1180	1.1731e+02	-6.9624	-26.643077	0.000405	4.054754	1.373788	-0.000162
1181	1.1741e+02	-7.0153	-26.808600	0.000416	4.156123	1.408133	-0.000166
1182	1.1751e+02	-7.0522	-26.929714	0.000304	3.041065	1.030341	-0.000122
1183	1.1761e+02	-7.0939	-27.123496	0.000487	4.865705	1.648545	-0.000195
1184	1.1771e+02	-7.1260	-27.256722	0.000335	3.345172	1.133375	-0.000134
1185	1.1781e+02	-7.1629	-27.442430	0.000466	4.662967	1.579856	-0.000187
1186	1.1791e+02	-7.1998	-27.587767	0.000365	3.649279	1.236409	-0.000146
1187	1.1801e+02	-7.2399	-27.733104	0.000365	3.649279	1.236409	-0.000146
1188	1.1811e+02	-7.2912	-27.926886	0.000487	4.865705	1.648545	-0.000195
1189	1.1821e+02	-7.3281	-28.056075	0.000324	3.243803	1.099030	-0.000130
1190	1.1831e+02	-7.3634	-28.201412	0.000365	3.649279	1.236409	-0.000146
1191	1.1841e+02	-7.4019	-28.370971	0.000426	4.257492	1.442477	-0.000170
1192	1.1850e+02	-7.4549	-28.475937	0.000264	2.635590	0.892962	-0.000105
1193	1.1860e+02	-7.4870	-28.621274	0.000365	3.649279	1.236409	-0.000146
1194	1.1870e+02	-7.5255	-28.754499	0.000335	3.345172	1.133375	-0.000134
1195	1.1880e+02	-7.5624	-28.920022	0.000416	4.156123	1.408133	-0.000166
1196	1.1890e+02	-7.6025	-29.037099	0.000294	2.939697	0.995996	-0.000118
1197	1.1900e+02	-7.6442	-29.174361	0.000345	3.446541	1.167720	-0.000138
1198	1.1910e+02	-7.6763	-29.335847	0.000405	4.054754	1.373788	-0.000162
1199	1.1920e+02	-7.7132	-29.477147	0.000355	3.547910	1.202064	-0.000142
1200	1.1930e+02	-7.7613	-29.614409	0.000345	3.446541	1.167720	-0.000138
1201	1.1940e+02	-7.7966	-29.779932	0.000416	4.156123	1.408133	-0.000166
1202	1.1950e+02	-7.8271	-29.945454	0.000416	4.156123	1.408133	-0.000166
1203	1.1960e+02	-7.8816	-30.115014	0.000426	4.257492	1.442477	-0.000170
1204	1.1970e+02	-7.9217	-30.264388	0.000375	3.750647	1.270754	-0.000150
1205	1.1980e+02	-7.9618	-30.401651	0.000345	3.446541	1.167720	-0.000138
1206	1.1990e+02	-8.0019	-30.583322	0.000456	4.561598	1.545511	-0.000183
1207	1.2000e+02	-8.0388	-30.720584	0.000345	3.446541	1.167720	-0.000138
1208	1.2010e+02	-8.0805	-30.865921	0.000365	3.649279	1.236409	-0.000146
1209	1.2020e+02	-8.1303	-30.982998	0.000294	2.939697	0.995996	-0.000118
1210	1.2030e+02	-8.1688	-31.136409	0.000385	3.852016	1.305098	-0.000154
1211	1.2039e+02	-8.1928	-31.253486	0.000294	2.939697	0.995996	-0.000118
1212	1.2049e+02	-8.2474	-31.390749	0.000345	3.446541	1.167720	-0.000138
1213	1.2059e+02	-8.2714	-31.536086	0.000365	3.649279	1.236409	-0.000146
1214	1.2069e+02	-8.3228	-31.701608	0.000416	4.156123	1.408133	-0.000166
1215	1.2079e+02	-8.3693	-31.842908	0.000355	3.547910	1.202064	-0.000142
1216	1.2089e+02	-8.3966	-31.964022	0.000304	3.041065	1.030341	-0.000122
1217	1.2099e+02	-8.4495	-32.169916	0.000517	5.169811	1.751579	-0.000207
1218	1.2109e+02	-8.4816	-32.303142	0.000335	3.345172	1.133375	-0.000134
1219	1.2119e+02	-8.5297	-32.472701	0.000426	4.257492	1.442477	-0.000170
1220	1.2129e+02	-8.5474	-32.642261	0.000426	4.257492	1.442477	-0.000170
1221	1.2139e+02	-8.6067	-32.779524	0.000345	3.446541	1.167720	-0.000138
1222	1.2149e+02	-8.6388	-32.941009	0.000405	4.054754	1.373788	-0.000162
1223	1.2159e+02	-8.6741	-33.090383	0.000375	3.750647	1.270754	-0.000150
1224	1.2169e+02	-8.7142	-33.280128	0.000476	4.764336	1.614201	-0.000191
1225	1.2179e+02	-8.7527	-33.397205	0.000294	2.939697	0.995996	-0.000118
1226	1.2189e+02	-8.7880	-33.554654	0.000395	3.953385	1.339443	-0.000158
1227	1.2199e+02	-8.8409	-33.679805	0.000314	3.142434	1.064686	-0.000126
1228	1.2209e+02	-8.8842	-33.808993	0.000324	3.243803	1.099030	-0.000130
1229	1.2219e+02	-8.9227	-33.942219	0.000335	3.345172	1.133375	-0.000134
1230	1.2229e+02	-8.9596	-34.071407	0.000324	3.243803	1.099030	-0.000130
1231	1.2239e+02	-8.9917	-34.236930	0.000416	4.156123	1.408133	-0.000166
1232	1.2248e+02	-9.0399	-34.390341	0.000385	3.852016	1.305098	-0.000154
1233	1.2258e+02	-9.0848	-34.551826	0.000405	4.054754	1.373788	-0.000162
1234	1.2268e+02	-9.1072	-34.660829	0.000274	2.736959	0.927307	-0.000110
1235	1.2278e+02	-9.1586	-34.862686	0.000507	5.068442	1.717235	-0.000203
1236	1.2288e+02	-9.2019	-34.987837	0.000314	3.142434	1.064686	-0.000126
1237	1.2298e+02	-9.2292	-35.161434	0.000436	4.358860	1.476822	-0.000174
1238	1.2308e+02	-9.2709	-35.326956	0.000416	4.156123	1.408133	-0.000166
1239	1.2318e+02	-9.3062	-35.476330	0.000375	3.750647	1.270754	-0.000150
1240	1.2328e+02	-9.3623	-35.593407	0.000294	2.939697	0.995996	-0.000118
1241	1.2338e+02	-9.3944	-35.775078	0.000456	4.561598	1.545511	-0.000183
1242	1.2348e+02	-9.4329	-35.851784	0.000193	1.926008	0.652549	-0.000077
1243	1.2358e+02	-9.4778	-36.033455	0.000456	4.561598	1.545511	-0.000183
1244	1.2368e+02	-9.5115	-36.182829	0.000375	3.750647	1.270754	-0.000150
1245	1.2378e+02	-9.5580	-36.312017	0.000324	3.243803	1.099030	-0.000130
1246	1.2388e+02	-9.5949	-36.412946	0.000253	2.534221	0.858617	-0.000101
1247	1.2398e+02	-9.6350	-36.574431	0.000405	4.054754	1.373788	-0.000162
1248	1.2408e+02	-9.6767	-36.727842	0.000385	3.852016	1.305098	-0.000154
1249	1.2418e+02	-9.7136	-36.861068	0.000335	3.345172	1.133375	-0.000134
1250	1.2428e+02	-9.7537	-37.010442	0.000375	3.750647	1.270754	-0.000150
1251	1.2438e+02	-9.8019	-37.107333	0.000243	2.432852	0.824273	-0.000097
1252	1.2447e+02	-9.8356	-37.301116	0.000487	4.865705	1.648545	-0.000195
1253	1.2457e+02	-9.8724	-37.450490	0.000375	3.750647	1.270754	-0.000150
1254	1.2467e+02	-9.9126	-37.620049	0.000426	4.257492	1.442477	-0.000170
1255	1.2477e+02	-9.9478	-37.773461	0.000385	3.852016	1.305098	-0.000154
1256	1.2487e+02	-9.9960	-37.902649	0.000324	3.243803	1.099030	-0.000130
1257	1.2497e+02	-10.0361	-38.064134	0.000405	4.054754	1.373788	-0.000162
1258	1.2507e+02	-10.0762	-38.161026	0.000243	2.432852	0.824273	-0.000097
1259	1.2517e+02	-10.1083	-38.366919	0.000517	5.169811	1.751579	-0.000207
1260	1.2527e+02	-10.1500	-38.508219	0.000355	3.547910	1.202064	-0.000142
1261	1.2537e+02	-10.1901	-38.641445	0.000335	3.345172	1.133375	-0.000134
1262	1.2547e+02	-10.2302	-38.746410	0.000264	2.635590	0.892962	-0.000105
1263	1.2557e+02	-10.2703	-38.811004	0.000162	1.621902	0.549515	-0.000065
1264	1.2567e+02	-10.3088	-38.976527	0.000416	4.156123	1.408133	-0.000166
1265	1.2577e+02	-10.3553	-39.138012	0.000405	4.054754	1.373788	-0.000162
1266	1.2587e+02	-10.3874	-39.327758	0.000476	4.764336	1.614201	-0.000191
1267	1.2597e+02	-10.4307	-39.416575	0.000223	2.230115	0.755583	-0.000089
1268	1.2607e+02	-10.4708	-39.533652	0.000294	2.939697	0.995996	-0.000118
1269	1.2617e+02	-10.5077	-39.727434	0.000487	4.865705	1.648545	-0.000195
1270	1.2627e+02	-10.5478	-39.836437	0.000274	2.736959	0.927307	-0.000110
1271	1.2636e+02	-10.5911	-40.050405	0.000537	5.372549	1.820269	-0.000215
1272	1.2646e+02	-10.6200	-40.155371	0.000264	2.635590	0.892962	-0.000105
1273	1.2656e+02	-10.6730	-40.304745	0.000375	3.750647	1.270754	-0.000150
1274	1.2666e+02	-10.7147	-40.454119	0.000375	3.750647	1.270754	-0.000150
1275	1.2676e+02	-10.7403	-40.619641	0.000416	4.156123	1.408133	-0.000166
1276	1.2686e+02	-10.7933	-40.756904	0.000345	3.446541	1.167720	-0.000138
1277	1.2696e+02	-10.8350	-40.869944	0.000284	2.838328	0.961651	-0.000114
1278	1.2706e+02	-10.8671	-41.027392	0.000395	3.953385	1.339443	-0.000158
1279	1.2716e+02	-10.9168	-41.152543	0.000314	3.142434	1.064686	-0.000126
1280	1.2726e+02	-10.9489	-41.285769	0.000335	3.345172	1.133375	-0.000134
1281	1.2736e+02	-10.9906	-41.431106	0.000365	3.649279	1.236409	-0.000146
1282	1.2746e+02	-11.0291	-41.544145	0.000284	2.838328	0.961651	-0.000114
1283	1.2756e+02	-11.0756	-41.681408	0.000345	3.446541	1.167720	-0.000138
1284	1.2766e+02	-11.1109	-41.814633	0.000335	3.345172	1.133375	-0.000134
1285	1.2776e+02	-11.1414	-41.939785	0.000314	3.142434	1.064686	-0.000126
1286	1.2786e+02	-11.1991	-42.097233	0.000395	3.953385	1.339443	-0.000158
1287	1.2796e+02	-11.2328	-42.270830	0.000436	4.358860	1.476822	-0.000174
1288	1.2806e+02	-11.2601	-42.416167	0.000365	3.649279	1.236409	-0.000146
1289	1.2816e+02	-11.3082	-42.565541	0.000375	3.750647	1.270754	-0.000150
1290	1.2826e+02	-11.3371	-42.759323	0.000487	4.865705	1.648545	-0.000195
1291	1.2835e+02	-11.3884	-42.884474	0.000314	3.142434	1.064686	-0.000126
1292	1.2845e+02	-11.4237	-42.997514	0.000284	2.838328	0.961651	-0.000114
1293	1.2855e+02	-11.4671	-43.138814	0.000355	3.547910	1.202064	-0.000142
1294	1.2865e+02	-11.5023	-43.284151	0.000365	3.649279	1.236409	-0.000146
1295	1.2875e+02	-11.5425	-43.437562	0.000385	3.852016	1.305098	-0.000154
1296	1.2885e+02	-11.5874	-43.510230	0.000182	1.824639	0.618205	-0.000073
1297	1.2895e+02	-11.6259	-43.704013	0.000487	4.865705	1.648545	-0.000195
1298	1.2905e+02	-11.6740	-43.800904	0.000243	2.432852	0.824273	-0.000097
1299	1.2915e+02	-11.7141	-43.938167	0.000345	3.446541	1.167720	-0.000138
1300	1.2925e+02	-11.7446	-44.022947	0.000213	2.128746	0.721239	-0.000085
1301	1.2935e+02	-11.7863	-44.164246	0.000355	3.547910	1.202064	-0.000142
1302	1.2945e+02	-11.8200	-44.297472	0.000335	3.345172	1.133375	-0.000134
1303	1.2955e+02	-11.8713	-44.438772	0.000355	3.547910	1.202064	-0.000142
1304	1.2965e+02	-11.9034	-44.604294	0.000416	4.156123	1.408133	-0.000166
1305	1.2975e+02	-11.9467	-44.753668	0.000375	3.750647	1.270754	-0.000150
1306	1.2985e+02	-11.9804	-44.907079	0.000385	3.852016	1.305098	-0.000154
1307	1.2995e+02	-12.0334	-45.044342	0.000345	3.446541	1.167720	-0.000138
1308	1.3005e+02	-12.0638	-45.173530	0.000324	3.243803	1.099030	-0.000130
1309	1.3015e+02	-12.1007	-45.310793	0.000345	3.446541	1.167720	-0.000138
1310	1.3025e+02	-12.1553	-45.444018	0.000335	3.345172	1.133375	-0.000134
1311	1.3034e+02	-12.1809	-45.617615	0.000436	4.358860	1.476822	-0.000174
1312	1.3044e+02	-12.2226	-45.726618	0.000274	2.736959	0.927307	-0.000110
1313	1.3054e+02	-12.2595	-45.855806	0.000324	3.243803	1.099030	-0.000130
1314	1.3064e+02	-12.2932	-45.997106	0.000355	3.547910	1.202064	-0.000142
1315	1.3074e+02	-12.3478	-46.126294	0.000324	3.243803	1.099030	-0.000130
1316	1.3084e+02	-12.3879	-46.243371	0.000294	2.939697	0.995996	-0.000118
1317	1.3094e+02	-12.4264	-46.320077	0.000193	1.926008	0.652549	-0.000077
1318	1.3104e+02	-12.4649	-46.473488	0.000385	3.852016	1.305098	-0.000154
1319	1.3114e+02	-12.5002	-46.622862	0.000375	3.750647	1.270754	-0.000150
1320	1.3124e+02	-12.5531	-46.715716	0.000233	2.331483	0.789928	-0.000093
1321	1.3134e+02	-12.5788	-46.885276	0.000426	4.257492	1.442477	-0.000170
1322	1.3144e+02	-12.6189	-47.022539	0.000345	3.446541	1.167720	-0.000138
1323	1.3154e+02	-12.6622	-47.167875	0.000365	3.649279	1.236409	-0.000146
1324	1.3164e+02	-12.7039	-47.284952	0.000294	2.939697	0.995996	-0.000118
1325	1.3174e+02	-12.7408	-47.458549	0.000436	4.358860	1.476822	-0.000174
1326	1.3184e+02	-12.7825	-47.615997	0.000395	3.953385	1.339443	-0.000158
1327	1.3194e+02	-12.8226	-47.753260	0.000345	3.446541	1.167720	-0.000138
1328	1.3204e+02	-12.8643	-47.842077	0.000223	2.230115	0.755583	-0.000089
1329	1.3214e+02	-12.8996	-47.991451	0.000375	3.750647	1.270754	-0.000150
1330	1.3224e+02	-12.9381	-48.140825	0.000375	3.750647	1.270754	-0.000150
1331	1.3234e+02	-12.9782	-48.241754	0.000253	2.534221	0.858617	-0.000101
1332	1.3243e+02	-13.0151	-48.431499	0.000476	4.764336	1.614201	-0.000191
1333	1.3253e+02	-13.0585	-48.532427	0.000253	2.534221	0.858617	-0.000101
1334	1.3263e+02	-13.1002	-48.641430	0.000274	2.736959	0.927307	-0.000110
1335	1.3273e+02	-13.1371	-48.790804	0.000375	3.750647	1.270754	-0.000150
1336	1.3283e+02	-13.1772	-48.899807	0.000274	2.736959	0.927307	-0.000110
1337	1.3293e+02	-13.2189	-49.033032	0.000335	3.345172	1.133375	-0.000134
1338	1.3303e+02	-13.2590	-49.178369	0.000365	3.649279	1.236409	-0.000146
1339	1.3313e+02	-13.2975	-49.323706	0.000365	3.649279	1.236409	-0.000146
1340	1.3323e+02	-13.3392	-49.432709	0.000274	2.736959	0.927307	-0.000110
1341	1.3333e+02	-13.3809	-49.565934	0.000335	3.345172	1.133375	-0.000134
1342	1.3343e+02	-13.4274	-49.731457	0.000416	4.156123	1.408133	-0.000166
1343	1.3353e+02	-13.4563	-49.872756	0.000355	3.547910	1.202064	-0.000142
1344	1.3363e+02	-13.4948	-50.046353	0.000436	4.358860	1.476822	-0.000174
1345	1.3373e+02	-13.5477	-50.131133	0.000213	2.128746	0.721239	-0.000085
1346	1.3383e+02	-13.5766	-50.284544	0.000385	3.852016	1.305098	-0.000154
1347	1.3393e+02	-13.6183	-50.393547	0.000274	2.736959	0.927307	-0.000110
1348	1.3403e+02	-13.6536	-50.555032	0.000405	4.054754	1.373788	-0.000162
1349	1.3413e+02	-13.7018	-50.696332	0.000355	3.547910	1.202064	-0.000142
1350	1.3423e+02	-13.7403	-50.809372	0.000284	2.838328	0.961651	-0.000114
1351	1.3432e+02	-13.7804	-50.930486	0.000304	3.041065	1.030341	-0.000122
1352	1.3442e+02	-13.8301	-51.079860	0.000375	3.750647	1.270754	-0.000150
1353	1.3452e+02	-13.8590	-51.209048	0.000324	3.243803	1.099030	-0.000130
1354	1.3462e+02	-13.8927	-51.334199	0.000314	3.142434	1.064686	-0.000126
1355	1.3472e+02	-13.9392	-51.451276	0.000294	2.939697	0.995996	-0.000118
1356	1.3482e+02	-13.9761	-51.596613	0.000365	3.649279	1.236409	-0.000146
1357	1.3492e+02	-14.0210	-51.697542	0.000253	2.534221	0.858617	-0.000101
1358	1.3502e+02	-14.0499	-51.867101	0.000426	4.257492	1.442477	-0.000170
1359	1.3512e+02	-14.0852	-52.008401	0.000355	3.547910	1.202064	-0.000142
1360	1.3522e+02	-14.1317	-52.157775	0.000375	3.750647	1.270754	-0.000150
1361	1.3532e+02	-14.1766	-52.291001	0.000335	3.345172	1.133375	-0.000134
1362	1.3542e+02	-14.2119	-52.383855	0.000233	2.331483	0.789928	-0.000093
1363	1.3552e+02	-14.2520	-52.549377	0.000416	4.156123	1.408133	-0.000166
1364	1.3562e+02	-14.2889	-52.694714	0.000365	3.649279	1.236409	-0.000146
1365	1.3572e+02	-14.3338	-52.823903	0.000324	3.243803	1.099030	-0.000130
1366	1.3582e+02	-14.3707	-52.916757	0.000233	2.331483	0.789928	-0.000093
1367	1.3592e+02	-14.4172	-53.070168	0.000385	3.852016	1.305098	-0.000154
1368	1.3602e+02	-14.4541	-53.183208	0.000284	2.838328	0.961651	-0.000114
1369	1.3612e+02	-14.5023	-53.348730	0.000416	4.156123	1.408133	-0.000166
1370	1.3622e+02	-14.5376	-53.445621	0.000243	2.432852	0.824273	-0.000097
1371	1.3631e+02	-14.5745	-53.558661	0.000284	2.838328	0.961651	-0.000114
1372	1.3641e+02	-14.6162	-53.663627	0.000264	2.635590	0.892962	-0.000105
1373	1.3651e+02	-14.6579	-53.804927	0.000355	3.547910	1.202064	-0.000142
1374	1.3661e+02	-14.6932	-53.938152	0.000335	3.345172	1.133375	-0.000134
1375	1.3671e+02	-14.7253	-54.063303	0.000314	3.142434	1.064686	-0.000126
1376	1.3681e+02	-14.7766	-54.208640	0.000365	3.649279	1.236409	-0.000146
1377	1.3691e+02	-14.8103	-54.374163	0.000416	4.156123	1.408133	-0.000166
1378	1.3701e+02	-14.8424	-54.499314	0.000314	3.142434	1.064686	-0.000126
1379	1.3711e+02	-14.8937	-54.656762	0.000395	3.953385	1.339443	-0.000158
1380	1.3721e+02	-14.9402	-54.785951	0.000324	3.243803	1.099030	-0.000130
1381	1.3731e+02	-14.9707	-54.915139	0.000324	3.243803	1.099030	-0.000130
1382	1.3741e+02	-15.0076	-55.104884	0.000476	4.764336	1.614201	-0.000191
1383	1.3751e+02	-15.0509	-55.209850	0.000264	2.635590	0.892962	-0.000105
1384	1.3761e+02	-15.0910	-55.379409	0.000426	4.257492	1.442477	-0.000170
1385	1.3771e+02	-15.1311	-55.492449	0.000284	2.838328	0.961651	-0.000114
1386	1.3781e+02	-15.1760	-55.593378	0.000253	2.534221	0.858617	-0.000101
1387	1.3791e+02	-15.2194	-55.758900	0.000416	4.156123	1.408133	-0.000166
1388	1.3801e+02	-15.2579	-55.819457	0.000152	1.520533	0.515170	-0.000061
1389	1.3811e+02	-15.2964	-55.964794	0.000365	3.649279	1.236409	-0.000146
1390	1.3821e+02	-15.3349	-56.089945	0.000314	3.142434	1.064686	-0.000126
1391	1.3831e+02	-15.3702	-56.215097	0.000314	3.142434	1.064686	-0.000126
1392	1.3840e+02	-15.4119	-56.360433	0.000365	3.649279	1.236409	-0.000146
1393	1.3850e+02	-15.4632	-56.529993	0.000426	4.257492	1.442477	-0.000170
1394	1.3860e+02	-15.4841	-56.683404	0.000385	3.852016	1.305098	-0.000154
1395	1.3870e+02	-15.5226	-56.828741	0.000365	3.649279	1.236409	-0.000146
1396	1.3880e+02	-15.5723	-56.905447	0.000193	1.926008	0.652549	-0.000077
1397	1.3890e+02	-15.6012	-57.111341	0.000517	5.169811	1.751579	-0.000207
1398	1.3900e+02	-15.6493	-57.192083	0.000203	2.027377	0.686894	-0.000081
1399	1.3910e+02	-15.6862	-57.381829	0.000476	4.764336	1.614201	-0.000191
1400	1.3920e+02	-15.7215	-57.474683	0.000233	2.331483	0.789928	-0.000093
1401	1.3930e+02	-15.7728	-57.620020	0.000365	3.649279	1.236409	-0.000146
1402	1.3940e+02	-15.8113	-57.793617	0.000436	4.358860	1.476822	-0.000174
1403	1.3950e+02	-15.8562	-57.850137	0.000142	1.419164	0.480826	-0.000057
1404	1.3960e+02	-15.8947	-57.983362	0.000335	3.345172	1.133375	-0.000134
1405	1.3970e+02	-15.9381	-58.092365	0.000274	2.736959	0.927307	-0.000110
1406	1.3980e+02	-15.9669	-58.261924	0.000426	4.257492	1.442477	-0.000170
1407	1.3990e+02	-16.0135	-58.346704	0.000213	2.128746	0.721239	-0.000085
1408	1.4000e+02	-16.0552	-58.540487	0.000487	4.865705	1.648545	-0.000195
1409	1.4010e+02	-16.0889	-58.629304	0.000223	2.230115	0.755583	-0.000089
1410	1.4020e+02	-16.1338	-58.839235	0.000527	5.271180	1.785924	-0.000211
1411	1.4029e+02	-16.1707	-58.924015	0.000213	2.128746	0.721239	-0.000085
1412	1.4039e+02	-16.2076	-59.093574	0.000426	4.257492	1.442477	-0.000170
1413	1.4049e+02	-16.2413	-59.214688	0.000304	3.041065	1.030341	-0.000122
1414	1.4059e+02	-16.2878	-59.412508	0.000497	4.967074	1.682890	-0.000199
1415	1.4069e+02	-16.3183	-59.473065	0.000152	1.520533	0.515170	-0.000061
1416	1.4079e+02	-16.3680	-59.658773	0.000466	4.662967	1.579856	-0.000187
1417	1.4089e+02	-16.4049	-59.775850	0.000294	2.939697	0.995996	-0.000118
1418	1.4099e+02	-16.4514	-59.892927	0.000294	2.939697	0.995996	-0.000118
1419	1.4109e+02	-16.4771	-60.066524	0.000436	4.358860	1.476822	-0.000174
1420	1.4119e+02	-16.5316	-60.143230	0.000193	1.926008	0.652549	-0.000077
1421	1.4129e+02	-16.5701	-60.328938	0.000466	4.662967	1.579856	-0.000187
1422	1.4139e+02	-16.6086	-60.425829	0.000243	2.432852	0.824273	-0.000097
1423	1.4149e+02	-16.6439	-60.526758	0.000253	2.534221	0.858617	-0.000101
1424	1.4159e+02	-16.6969	-60.635760	0.000274	2.736959	0.927307	-0.000110
1425	1.4169e+02	-16.7225	-60.853766	0.000547	5.473918	1.854614	-0.000219
1426	1.4179e+02	-16.7642	-60.962768	0.000274	2.736959	0.927307	-0.000110
1427	1.4189e+02	-16.7995	-61.108105	0.000365	3.649279	1.236409	-0.000146
1428	1.4199e+02	-16.8380	-61.225182	0.000294	2.939697	0.995996	-0.000118
1429	1.4209e+02	-16.8862	-61.378593	0.000385	3.852016	1.305098	-0.000154
1430	1.4219e+02	-16.9231	-61.564301	0.000466	4.662967	1.579856	-0.000187
1431	1.4228e+02	-16.9648	-61.693490	0.000324	3.243803	1.099030	-0.000130
1432	1.4238e+02	-17.0017	-61.806530	0.000284	2.838328	0.961651	-0.000114
1433	1.4248e+02	-17.0353	-61.935718	0.000324	3.243803	1.099030	-0.000130
1434	1.4258e+02	-17.0835	-62.077018	0.000355	3.547910	1.202064	-0.000142
1435	1.4268e+02	-17.1204	-62.222355	0.000365	3.649279	1.236409	-0.000146
1436	1.4278e+02	-17.1669	-62.359617	0.000345	3.446541	1.167720	-0.000138
1437	1.4288e+02	-17.2070	-62.504954	0.000365	3.649279	1.236409	-0.000146
1438	1.4298e+02	-17.2567	-62.609920	0.000264	2.635590	0.892962	-0.000105
1439	1.4308e+02	-17.2968	-62.743145	0.000335	3.345172	1.133375	-0.000134
1440	1.4318e+02	-17.3337	-62.872333	0.000324	3.243803	1.099030	-0.000130
1441	1.4328e+02	-17.3642	-63.017670	0.000365	3.649279	1.236409	-0.000146
1442	1.4338e+02	-17.4043	-63.122636	0.000264	2.635590	0.892962	-0.000105
1443	1.4348e+02	-17.4396	-63.344678	0.000558	5.575287	1.888958	-0.000223
1444	1.4358e+02	-17.4797	-63.441570	0.000243	2.432852	0.824273	-0.000097
1445	1.4368e+02	-17.5134	-63.599018	0.000395	3.953385	1.339443	-0.000158
1446	1.4378e+02	-17.5615	-63.788763	0.000476	4.764336	1.614201	-0.000191
1447	1.4388e+02	-17.6065	-63.930063	0.000355	3.547910	1.202064	-0.000142
1448	1.4398e+02	-17.6353	-64.091548	0.000405	4.054754	1.373788	-0.000162
1449	1.4408e+02	-17.6867	-64.253034	0.000405	4.054754	1.373788	-0.000162
1450	1.4418e+02	-17.7236	-64.321665	0.000172	1.723270	0.583860	-0.000069
1451	1.4428e+02	-17.7589	-64.487188	0.000416	4.156123	1.408133	-0.000166
1452	1.4437e+02	-17.8118	-64.632525	0.000365	3.649279	1.236409	-0.000146
1453	1.4447e+02	-17.8407	-64.757676	0.000314	3.142434	1.064686	-0.000126
1454	1.4457e+02	-17.8792	-64.947421	0.000476	4.764336	1.614201	-0.000191
1455	1.4467e+02	-17.9257	-65.080647	0.000335	3.345172	1.133375	-0.000134
1456	1.4477e+02	-17.9642	-65.205798	0.000314	3.142434	1.064686	-0.000126
1457	1.4487e+02	-18.0043	-65.363246	0.000395	3.953385	1.339443	-0.000158
1458	1.4497e+02	-18.0428	-65.492435	0.000324	3.243803	1.099030	-0.000130
1459	1.4507e+02	-18.0845	-65.666031	0.000436	4.358860	1.476822	-0.000174
1460	1.4517e+02	-18.1230	-65.791183	0.000314	3.142434	1.064686	-0.000126
1461	1.4527e+02	-18.1551	-65.972854	0.000456	4.561598	1.545511	-0.000183
1462	1.4537e+02	-18.1936	-66.182785	0.000527	5.271180	1.785924	-0.000211
1463	1.4547e+02	-18.2385	-66.307936	0.000314	3.142434	1.064686	-0.000126
1464	1.4557e+02	-18.2834	-66.461347	0.000385	3.852016	1.305098	-0.000154
1465	1.4567e+02	-18.3284	-66.626870	0.000416	4.156123	1.408133	-0.000166
1466	1.4577e+02	-18.3572	-66.739909	0.000284	2.838328	0.961651	-0.000114
1467	1.4587e+02	-18.3989	-66.937729	0.000497	4.967074	1.682890	-0.000199
1468	1.4597e+02	-18.4374	-67.115363	0.000446	4.460229	1.511167	-0.000179
1469	1.4607e+02	-18.4856	-67.236477	0.000304	3.041065	1.030341	-0.000122
1470	1.4617e+02	-18.5241	-67.414111	0.000446	4.460229	1.511167	-0.000179
1471	1.4626e+02	-18.5594	-67.559448	0.000365	3.649279	1.236409	-0.000146
1472	1.4636e+02	-18.5963	-67.724971	0.000416	4.156123	1.408133	-0.000166
1473	1.4646e+02	-18.6348	-67.833973	0.000274	2.736959	0.927307	-0.000110
1474	1.4656e+02	-18.6797	-68.039867	0.000517	5.169811	1.751579	-0.000207
1475	1.4666e+02	-18.7294	-68.205390	0.000416	4.156123	1.408133	-0.000166
1476	1.4676e+02	-18.7599	-68.322467	0.000294	2.939697	0.995996	-0.000118
1477	1.4686e+02	-18.7968	-68.524323	0.000507	5.068442	1.717235	-0.000203
1478	1.4696e+02	-18.8337	-68.689846	0.000416	4.156123	1.408133	-0.000166
1479	1.4706e+02	-18.8818	-68.851331	0.000405	4.054754	1.373788	-0.000162
1480	1.4716e+02	-18.9155	-69.077411	0.000568	5.676655	1.923303	-0.000227
1481	1.4726e+02	-18.9572	-69.214674	0.000345	3.446541	1.167720	-0.000138
1482	1.4736e+02	-18.9893	-69.404419	0.000476	4.764336	1.614201	-0.000191
1483	1.4746e+02	-19.0438	-69.594164	0.000476	4.764336	1.614201	-0.000191
1484	1.4756e+02	-19.0856	-69.743538	0.000375	3.750647	1.270754	-0.000150
1485	1.4766e+02	-19.1209	-69.921172	0.000446	4.460229	1.511167	-0.000179
1486	1.4776e+02	-19.1561	-70.094769	0.000436	4.358860	1.476822	-0.000174
1487	1.4786e+02	-19.1995	-70.268366	0.000436	4.358860	1.476822	-0.000174
1488	1.4796e+02	-19.2412	-70.466186	0.000497	4.967074	1.682890	-0.000199
1489	1.4806e+02	-19.2829	-70.664005	0.000497	4.967074	1.682890	-0.000199
1490	1.4816e+02	-19.3134	-70.833565	0.000426	4.257492	1.442477	-0.000170
1491	1.4825e+02	-19.3583	-71.063682	0.000578	5.778024	1.957648	-0.000231
1492	1.4835e+02	-19.3936	-71.172684	0.000274	2.736959	0.927307	-0.000110
1493	1.4845e+02	-19.4289	-71.390690	0.000547	5.473918	1.854614	-0.000219
1494	1.4855e+02	-19.4706	-71.556212	0.000416	4.156123	1.408133	-0.000166
1495	1.4865e+02	-19.5075	-71.798441	0.000608	6.082131	2.060682	-0.000243
1496	1.4875e+02	-19.5604	-72.000297	0.000507	5.068442	1.717235	-0.000203
1497	1.4885e+02	-19.5925	-72.210228	0.000527	5.271180	1.785924	-0.000211
1498	1.4895e+02	-19.6262	-72.416122	0.000517	5.169811	1.751579	-0.000207
1499	1.4905e+02	-19.6775	-72.577608	0.000405	4.054754	1.373788	-0.000162
1500	1.4915e+02	-19.7096	-72.827910	0.000628	6.284869	2.129371	-0.000252
1501	1.4925e+02	-19.7561	-73.021693	0.000487	4.865705	1.648545	-0.000195
1502	1.4935e+02	-19.7946	-73.239698	0.000547	5.473918	1.854614	-0.000219
1503	1.4945e+02	-19.8395	-73.469815	0.000578	5.778024	1.957648	-0.000231
1504	1.4955e+02	-19.8748	-73.631300	0.000405	4.054754	1.373788	-0.000162
1505	1.4965e+02	-19.9133	-73.877565	0.000618	6.183500	2.095026	-0.000248
1506	1.4975e+02	-19.9470	-74.055199	0.000446	4.460229	1.511167	-0.000179
1507	1.4985e+02	-19.9903	-74.317613	0.000659	6.588975	2.232405	-0.000264
1508	1.4995e+02	-19.9470	-74.321650	-0.000010	-0.101369	-0.034345	-0.000004
1509	1.5005e+02	-19.9182	-74.353947	-0.000081	-0.810951	-0.274758	-0.000032
1510	1.5015e+02	-19.8700	-74.333762	0.000051	0.506844	0.171723	0.000020
1511	1.5025e+02	-19.8299	-74.333762	0.000000	0.000000	0.000000	0.000000
1512	1.5034e+02	-19.7914	-74.374133	-0.000101	-1.013688	-0.343447	-0.000041
1513	1.5044e+02	-19.7529	-74.374133	0.000000	0.000000	0.000000	0.000000
1514	1.5054e+02	-19.7096	-74.366059	0.000020	0.202738	0.068689	0.000008
1515	1.5064e+02	-19.6679	-74.370096	-0.000010	-0.101369	-0.034345	-0.000004
1516	1.5074e+02	-19.6438	-74.349910	0.000051	0.506844	0.171723	0.000020
1517	1.5084e+02	-19.5925	-74.321650	0.000071	0.709582	0.240413	0.000028
1518	1.5094e+02	-19.5508	-74.341836	-0.000051	-0.506844	-0.171723	-0.000020
1519	1.5104e+02	-19.5123	-74.273205	0.000172	1.723270	0.583860	0.000069
1520	1.5114e+02	-19.4722	-74.236871	0.000091	0.912320	0.309102	0.000037
1521	1.5124e+02	-19.4337	-74.216685	0.000051	0.506844	0.171723	0.000020
1522	1.5134e+02	-19.3968	-74.164202	0.000132	1.317795	0.446481	0.000053
1523	1.5144e+02	-19.3615	-74.131905	0.000081	0.810951	0.274758	0.000032
1524	1.5154e+02	-19.3166	-74.071348	0.000152	1.520533	0.515170	0.000061
1525	1.5164e+02	-19.2845	-74.091534	-0.000051	-0.506844	-0.171723	-0.000020
1526	1.5174e+02	-19.2380	-73.974457	0.000294	2.939697	0.995996	0.000118
1527	1.5184e+02	-19.2011	-73.897751	0.000193	1.926008	0.652549	0.000077
1528	1.5194e+02	-19.1690	-73.841231	0.000142	1.419164	0.480826	0.000057
1529	1.5204e+02	-19.1128	-73.808934	0.000081	0.810951	0.274758	0.000032
1530	1.5214e+02	-19.0823	-73.812971	-0.000010	-0.101369	-0.034345	-0.000004
1531	1.5224e+02	-19.0342	-73.728191	0.000213	2.128746	0.721239	0.000085
1532	1.5233e+02	-18.9893	-73.651486	0.000193	1.926008	0.652549	0.000077
1533	1.5243e+02	-18.9508	-73.611114	0.000101	1.013688	0.343447	0.000041
1534	1.5253e+02	-18.9107	-73.538446	0.000182	1.824639	0.618205	0.000073
1535	1.5263e+02	-18.8690	-73.481926	0.000142	1.419164	0.480826	0.000057
1536	1.5273e+02	-18.8353	-73.417332	0.000162	1.621902	0.549515	0.000065
1537	1.5283e+02	-18.7888	-73.364849	0.000132	1.317795	0.446481	0.000053
1538	1.5293e+02	-18.7599	-73.300255	0.000162	1.621902	0.549515	0.000065
1539	1.5303e+02	-18.7198	-73.211438	0.000223	2.230115	0.755583	0.000089
1540	1.5313e+02	-18.6781	-73.122621	0.000223	2.230115	0.755583	0.000089
1541	1.5323e+02	-18.6460	-73.082250	0.000101	1.013688	0.343447	0.000041
1542	1.5333e+02	-18.6107	-72.936913	0.000365	3.649279	1.236409	0.000146
1543	1.5343e+02	-18.5594	-72.912690	0.000061	0.608213	0.206068	0.000024
1544	1.5353e+02	-18.5241	-72.815799	0.000243	2.432852	0.824273	0.000097
1545	1.5363e+02	-18.4743	-72.694685	0.000304	3.041065	1.030341	0.000122
1546	1.5373e+02	-18.4262	-72.642202	0.000132	1.317795	0.446481	0.000053
1547	1.5383e+02	-18.3989	-72.597793	0.000112	1.115057	0.377792	0.000045
1548	1.5393e+02	-18.3508	-72.553385	0.000112	1.115057	0.377792	0.000045
1549	1.5403e+02	-18.3219	-72.480716	0.000182	1.824639	0.618205	0.000073
1550	1.5413e+02	-18.2802	-72.379788	0.000253	2.534221	0.858617	0.000101
1551	1.5422e+02	-18.2385	-72.335380	0.000112	1.115057	0.377792	0.000045
1552	1.5432e+02	-18.2032	-72.282897	0.000132	1.317795	0.446481	0.000053
1553	1.5442e+02	-18.1695	-72.137560	0.000365	3.649279	1.236409	0.000146
1554	1.5452e+02	-18.1182	-72.085077	0.000132	1.317795	0.446481	0.000053
1555	1.5462e+02	-18.0845	-72.036632	0.000122	1.216426	0.412136	0.000049
1556	1.5472e+02	-18.0332	-71.887258	0.000375	3.750647	1.270754	0.000150
1557	1.5482e+02	-18.0075	-71.846886	0.000101	1.013688	0.343447	0.000041
1558	1.5492e+02	-17.9610	-71.749995	0.000243	2.432852	0.824273	0.000097
1559	1.5502e+02	-17.9225	-71.717698	0.000081	0.810951	0.274758	0.000032
1560	1.5512e+02	-17.8808	-71.568324	0.000375	3.750647	1.270754	0.000150
1561	1.5522e+02	-17.8439	-71.507767	0.000152	1.520533	0.515170	0.000061
1562	1.5532e+02	-17.8054	-71.366467	0.000355	3.547910	1.202064	0.000142
1563	1.5542e+02	-17.7589	-71.322059	0.000112	1.115057	0.377792	0.000045
1564	1.5552e+02	-17.7252	-71.297836	0.000061	0.608213	0.206068	0.000024
1565	1.5562e+02	-17.6786	-71.188833	0.000274	2.736959	0.927307	0.000110
1566	1.5572e+02	-17.6353	-71.140387	0.000122	1.216426	0.412136	0.000049
1567	1.5582e+02	-17.6065	-70.986976	0.000385	3.852016	1.305098	0.000154
1568	1.5592e+02	-17.5647	-70.910271	0.000193	1.926008	0.652549	0.000077
1569	1.5602e+02	-17.5198	-70.861825	0.000122	1.216426	0.412136	0.000049
1570	1.5612e+02	-17.4877	-70.724562	0.000345	3.446541	1.167720	0.000138
1571	1.5622e+02	-17.4412	-70.676117	0.000122	1.216426	0.412136	0.000049
1572	1.5631e+02	-17.4043	-70.555003	0.000304	3.041065	1.030341	0.000122
1573	1.5641e+02	-17.3658	-70.482334	0.000182	1.824639	0.618205	0.000073
1574	1.5651e+02	-17.3177	-70.401592	0.000203	2.027377	0.686894	0.000081
1575	1.5661e+02	-17.2776	-70.288552	0.000284	2.838328	0.961651	0.000114
1576	1.5671e+02	-17.2487	-70.215883	0.000182	1.824639	0.618205	0.000073
1577	1.5681e+02	-17.2054	-70.118992	0.000243	2.432852	0.824273	0.000097
1578	1.5691e+02	-17.1605	-70.014027	0.000264	2.635590	0.892962	0.000105
1579	1.5701e+02	-17.1236	-69.909061	0.000264	2.635590	0.892962	0.000105
1580	1.5711e+02	-17.0722	-69.832355	0.000193	1.926008	0.652549	0.000077
1581	1.5721e+02	-17.0498	-69.735464	0.000243	2.432852	0.824273	0.000097
1582	1.5731e+02	-17.0097	-69.687019	0.000122	1.216426	0.412136	0.000049
1583	1.5741e+02	-16.9632	-69.557830	0.000324	3.243803	1.099030	0.000130
1584	1.5751e+02	-16.9198	-69.485162	0.000182	1.824639	0.618205	0.000073
1585	1.5761e+02	-16.8829	-69.400382	0.000213	2.128746	0.721239	0.000085
1586	1.5771e+02	-16.8412	-69.267156	0.000335	3.345172	1.133375	0.000134
1587	1.5781e+02	-16.8075	-69.198525	0.000172	1.723270	0.583860	0.000069
1588	1.5791e+02	-16.7674	-69.105671	0.000233	2.331483	0.789928	0.000093
1589	1.5801e+02	-16.7209	-69.008780	0.000243	2.432852	0.824273	0.000097
1590	1.5811e+02	-16.6936	-68.911888	0.000243	2.432852	0.824273	0.000097
1591	1.5821e+02	-16.6503	-68.798849	0.000284	2.838328	0.961651	0.000114
1592	1.5830e+02	-16.6054	-68.738292	0.000152	1.520533	0.515170	0.000061
1593	1.5840e+02	-16.5717	-68.661586	0.000193	1.926008	0.652549	0.000077
1594	1.5850e+02	-16.5284	-68.552583	0.000274	2.736959	0.927307	0.000110
1595	1.5860e+02	-16.4931	-68.459729	0.000233	2.331483	0.789928	0.000093
1596	1.5870e+02	-16.4434	-68.354764	0.000264	2.635590	0.892962	0.000105
1597	1.5880e+02	-16.4001	-68.298244	0.000142	1.419164	0.480826	0.000057
1598	1.5890e+02	-16.3680	-68.128684	0.000426	4.257492	1.442477	0.000170
1599	1.5900e+02	-16.3247	-68.051979	0.000193	1.926008	0.652549	0.000077
1600	1.5910e+02	-16.2926	-67.959124	0.000233	2.331483	0.789928	0.000093
1601	1.5920e+02	-16.2461	-67.870307	0.000223	2.230115	0.755583	0.000089
1602	1.5930e+02	-16.2092	-67.773416	0.000243	2.432852	0.824273	0.000097
1603	1.5940e+02	-16.1659	-67.636154	0.000345	3.446541	1.167720	0.000138
1604	1.5950e+02	-16.1354	-67.527151	0.000274	2.736959	0.927307	0.000110
1605	1.5960e+02	-16.0921	-67.458520	0.000172	1.723270	0.583860	0.000069
1606	1.5970e+02	-16.0520	-67.357591	0.000253	2.534221	0.858617	0.000101
1607	1.5980e+02	-16.0135	-67.256663	0.000253	2.534221	0.858617	0.000101
1608	1.5990e+02	-15.9653	-67.167846	0.000223	2.230115	0.755583	0.000089
1609	1.6000e+02	-15.9284	-67.083066	0.000213	2.128746	0.721239	0.000085
1610	1.6010e+02	-15.8915	-66.990212	0.000233	2.331483	0.789928	0.000093
1611	1.6019e+02	-15.8466	-66.865061	0.000314	3.142434	1.064686	0.000126
1612	1.6029e+02	-15.8113	-66.784318	0.000203	2.027377	0.686894	0.000081
1613	1.6039e+02	-15.7664	-66.691464	0.000233	2.331483	0.789928	0.000093
1614	1.6049e+02	-15.7359	-66.558238	0.000335	3.345172	1.133375	0.000134
1615	1.6059e+02	-15.6910	-66.481533	0.000193	1.926008	0.652549	0.000077
1616	1.6069e+02	-15.6429	-66.360419	0.000304	3.041065	1.030341	0.000122
1617	1.6079e+02	-15.6140	-66.267565	0.000233	2.331483	0.789928	0.000093
1618	1.6089e+02	-15.5691	-66.170673	0.000243	2.432852	0.824273	0.000097
1619	1.6099e+02	-15.5338	-66.073782	0.000243	2.432852	0.824273	0.000097
1620	1.6109e+02	-15.4841	-65.976891	0.000243	2.432852	0.824273	0.000097
1621	1.6119e+02	-15.4504	-65.843665	0.000335	3.345172	1.133375	0.000134
1622	1.6129e+02	-15.4199	-65.775034	0.000172	1.723270	0.583860	0.000069
1623	1.6139e+02	-15.3702	-65.686217	0.000223	2.230115	0.755583	0.000089
1624	1.6149e+02	-15.3397	-65.637771	0.000122	1.216426	0.412136	0.000049
1625	1.6159e+02	-15.2899	-65.456100	0.000456	4.561598	1.545511	0.000183
1626	1.6169e+02	-15.2611	-65.363246	0.000233	2.331483	0.789928	0.000093
1627	1.6179e+02	-15.2194	-65.286541	0.000193	1.926008	0.652549	0.000077
1628	1.6189e+02	-15.1712	-65.153315	0.000335	3.345172	1.133375	0.000134
1629	1.6199e+02	-15.1327	-65.112944	0.000101	1.013688	0.343447	0.000041
1630	1.6209e+02	-15.0862	-64.967607	0.000365	3.649279	1.236409	0.000146
1631	1.6219e+02	-15.0477	-64.915124	0.000132	1.317795	0.446481	0.000053
1632	1.6228e+02	-15.0108	-64.777861	0.000345	3.446541	1.167720	0.000138
1633	1.6238e+02	-14.9707	-64.628487	0.000375	3.750647	1.270754	0.000150
1634	1.6248e+02	-14.9338	-64.563893	0.000162	1.621902	0.549515	0.000065
1635	1.6258e+02	-14.8937	-64.418556	0.000365	3.649279	1.236409	0.000146
1636	1.6268e+02	-14.8568	-64.313591	0.000264	2.635590	0.892962	0.000105
1637	1.6278e+02	-14.8151	-64.180365	0.000335	3.345172	1.133375	0.000134
1638	1.6288e+02	-14.7750	-64.059251	0.000304	3.041065	1.030341	0.000122
1639	1.6298e+02	-14.7236	-63.958323	0.000253	2.534221	0.858617	0.000101
1640	1.6308e+02	-14.7028	-63.869506	0.000223	2.230115	0.755583	0.000089
1641	1.6318e+02	-14.6595	-63.716095	0.000385	3.852016	1.305098	0.000154
1642	1.6328e+02	-14.6081	-63.651501	0.000162	1.621902	0.549515	0.000065
1643	1.6338e+02	-14.5841	-63.574795	0.000193	1.926008	0.652549	0.000077
1644	1.6348e+02	-14.5343	-63.490015	0.000213	2.128746	0.721239	0.000085
1645	1.6358e+02	-14.5023	-63.328530	0.000405	4.054754	1.373788	0.000162
1646	1.6368e+02	-14.4461	-63.239713	0.000223	2.230115	0.755583	0.000089
1647	1.6378e+02	-14.4140	-63.146859	0.000233	2.331483	0.789928	0.000093
1648	1.6388e+02	-14.3691	-63.049967	0.000243	2.432852	0.824273	0.000097
1649	1.6398e+02	-14.3322	-62.949039	0.000253	2.534221	0.858617	0.000101
1650	1.6408e+02	-14.2969	-62.823888	0.000314	3.142434	1.064686	0.000126
1651	1.6418e+02	-14.2472	-62.702774	0.000304	3.041065	1.030341	0.000122
1652	1.6427e+02	-14.2183	-62.565511	0.000345	3.446541	1.167720	0.000138
1653	1.6437e+02	-14.1718	-62.464583	0.000253	2.534221	0.858617	0.000101
1654	1.6447e+02	-14.1445	-62.327320	0.000345	3.446541	1.167720	0.000138
1655	1.6457e+02	-14.0932	-62.218317	0.000274	2.736959	0.927307	0.000110
1656	1.6467e+02	-14.0595	-62.125463	0.000233	2.331483	0.789928	0.000093
1657	1.6477e+02	-14.0146	-61.988201	0.000345	3.446541	1.167720	0.000138
1658	1.6487e+02	-13.9697	-61.903421	0.000213	2.128746	0.721239	0.000085
1659	1.6497e+02	-13.9424	-61.798455	0.000264	2.635590	0.892962	0.000105
1660	1.6507e+02	-13.9071	-61.677341	0.000304	3.041065	1.030341	0.000122
1661	1.6517e+02	-13.8590	-61.616784	0.000152	1.520533	0.515170	0.000061
1662	1.6527e+02	-13.8189	-61.471447	0.000365	3.649279	1.236409	0.000146
1663	1.6537e+02	-13.7675	-61.362445	0.000274	2.736959	0.927307	0.000110
1664	1.6547e+02	-13.7306	-61.265553	0.000243	2.432852	0.824273	0.000097
1665	1.6557e+02	-13.6985	-61.241331	0.000061	0.608213	0.206068	0.000024
1666	1.6567e+02	-13.6600	-61.108105	0.000335	3.345172	1.133375	0.000134
1667	1.6577e+02	-13.6167	-60.995065	0.000284	2.838328	0.961651	0.000114
1668	1.6587e+02	-13.5654	-60.857803	0.000345	3.446541	1.167720	0.000138
1669	1.6597e+02	-13.5365	-60.700354	0.000395	3.953385	1.339443	0.000158
1670	1.6607e+02	-13.4980	-60.583277	0.000294	2.939697	0.995996	0.000118
1671	1.6616e+02	-13.4579	-60.486386	0.000243	2.432852	0.824273	0.000097
1672	1.6626e+02	-13.4242	-60.361235	0.000314	3.142434	1.064686	0.000126
1673	1.6636e+02	-13.3873	-60.248195	0.000284	2.838328	0.961651	0.000114
1674	1.6646e+02	-13.3344	-60.151304	0.000243	2.432852	0.824273	0.000097
1675	1.6656e+02	-13.3023	-60.014041	0.000345	3.446541	1.167720	0.000138
1676	1.6666e+02	-13.2606	-59.961559	0.000132	1.317795	0.446481	0.000053
1677	1.6676e+02	-13.2237	-59.820259	0.000355	3.547910	1.202064	0.000142
1678	1.6686e+02	-13.1884	-59.707219	0.000284	2.838328	0.961651	0.000114
1679	1.6696e+02	-13.1339	-59.569956	0.000345	3.446541	1.167720	0.000138
1680	1.6706e+02	-13.0889	-59.440768	0.000324	3.243803	1.099030	0.000130
1681	1.6716e+02	-13.0617	-59.420582	0.000051	0.506844	0.171723	0.000020
1682	1.6726e+02	-13.0055	-59.287357	0.000335	3.345172	1.133375	0.000134
1683	1.6736e+02	-12.9815	-59.178354	0.000274	2.736959	0.927307	0.000110
1684	1.6746e+02	-12.9381	-59.065314	0.000284	2.838328	0.961651	0.000114
1685	1.6756e+02	-12.9061	-58.936126	0.000324	3.243803	1.099030	0.000130
1686	1.6766e+02	-12.8611	-58.810975	0.000314	3.142434	1.064686	0.000126
1687	1.6776e+02	-12.8258	-58.673712	0.000345	3.446541	1.167720	0.000138
1688	1.6786e+02	-12.7777	-58.613155	0.000152	1.520533	0.515170	0.000061
1689	1.6796e+02	-12.7312	-58.455707	0.000395	3.953385	1.339443	0.000158
1690	1.6806e+02	-12.7087	-58.306333	0.000375	3.750647	1.270754	0.000150
1691	1.6816e+02	-12.6574	-58.229627	0.000193	1.926008	0.652549	0.000077
1692	1.6825e+02	-12.6285	-58.132736	0.000243	2.432852	0.824273	0.000097
1693	1.6835e+02	-12.5868	-57.979325	0.000385	3.852016	1.305098	0.000154
1694	1.6845e+02	-12.5499	-57.910694	0.000172	1.723270	0.583860	0.000069
1695	1.6855e+02	-12.5034	-57.777468	0.000335	3.345172	1.133375	0.000134
1696	1.6865e+02	-12.4761	-57.668465	0.000274	2.736959	0.927307	0.000110
1697	1.6875e+02	-12.4216	-57.531203	0.000345	3.446541	1.167720	0.000138
1698	1.6885e+02	-12.3863	-57.418163	0.000284	2.838328	0.961651	0.000114
1699	1.6895e+02	-12.3398	-57.333383	0.000213	2.128746	0.721239	0.000085
1700	1.6905e+02	-12.3077	-57.204195	0.000324	3.243803	1.099030	0.000130
1701	1.6915e+02	-12.2531	-57.087118	0.000294	2.939697	0.995996	0.000118
1702	1.6925e+02	-12.2194	-56.974078	0.000284	2.838328	0.961651	0.000114
1703	1.6935e+02	-12.1793	-56.824704	0.000375	3.750647	1.270754	0.000150
1704	1.6945e+02	-12.1553	-56.731850	0.000233	2.331483	0.789928	0.000093
1705	1.6955e+02	-12.0943	-56.582476	0.000375	3.750647	1.270754	0.000150
1706	1.6965e+02	-12.0590	-56.509807	0.000182	1.824639	0.618205	0.000073
1707	1.6975e+02	-12.0269	-56.384656	0.000314	3.142434	1.064686	0.000126
1708	1.6985e+02	-11.9852	-56.219134	0.000416	4.156123	1.408133	0.000166
1709	1.6995e+02	-11.9483	-56.138391	0.000203	2.027377	0.686894	0.000081
1710	1.7005e+02	-11.8954	-56.017277	0.000304	3.041065	1.030341	0.000122
1711	1.7015e+02	-11.8697	-55.892126	0.000314	3.142434	1.064686	0.000126
1712	1.7024e+02	-11.8360	-55.730640	0.000405	4.054754	1.373788	0.000162
1713	1.7034e+02	-11.7879	-55.653935	0.000193	1.926008	0.652549	0.000077
1714	1.7044e+02	-11.7462	-55.512635	0.000355	3.547910	1.202064	0.000142
1715	1.7054e+02	-11.7077	-55.407669	0.000264	2.635590	0.892962	0.000105
1716	1.7064e+02	-11.6756	-55.286555	0.000304	3.041065	1.030341	0.000122
1717	1.7074e+02	-11.6243	-55.221961	0.000162	1.621902	0.549515	0.000065
1718	1.7084e+02	-11.5906	-55.108921	0.000284	2.838328	0.961651	0.000114
1719	1.7094e+02	-11.5505	-54.987807	0.000304	3.041065	1.030341	0.000122
1720	1.7104e+02	-11.5072	-54.907065	0.000203	2.027377	0.686894	0.000081
1721	1.7114e+02	-11.4703	-54.757691	0.000375	3.750647	1.270754	0.000150
1722	1.7124e+02	-11.4253	-54.620428	0.000345	3.446541	1.167720	0.000138
1723	1.7134e+02	-11.3901	-54.471054	0.000375	3.750647	1.270754	0.000150
1724	1.7144e+02	-11.3467	-54.370126	0.000253	2.534221	0.858617	0.000101
1725	1.7154e+02	-11.3114	-54.261123	0.000274	2.736959	0.927307	0.000110
1726	1.7164e+02	-11.2633	-54.119823	0.000355	3.547910	1.202064	0.000142
1727	1.7174e+02	-11.2344	-54.014858	0.000264	2.635590	0.892962	0.000105
1728	1.7184e+02	-11.1927	-53.897781	0.000294	2.939697	0.995996	0.000118
1729	1.7194e+02	-11.1526	-53.808964	0.000223	2.230115	0.755583	0.000089
1730	1.7204e+02	-11.1077	-53.675738	0.000335	3.345172	1.133375	0.000134
1731	1.7213e+02	-11.0692	-53.542513	0.000335	3.345172	1.133375	0.000134
1732	1.7223e+02	-11.0339	-53.449659	0.000233	2.331483	0.789928	0.000093
1733	1.7233e+02	-10.9842	-53.304322	0.000365	3.649279	1.236409	0.000146
1734	1.7243e+02	-10.9553	-53.187245	0.000294	2.939697	0.995996	0.000118
1735	1.7253e+02	-10.9040	-53.094391	0.000233	2.331483	0.789928	0.000093
1736	1.7263e+02	-10.8671	-53.058056	0.000091	0.912320	0.309102	0.000037
1737	1.7273e+02	-10.8189	-52.844088	0.000537	5.372549	1.820269	0.000215
1738	1.7283e+02	-10.7917	-52.763346	0.000203	2.027377	0.686894	0.000081
1739	1.7293e+02	-10.7516	-52.642231	0.000304	3.041065	1.030341	0.000122
1740	1.7303e+02	-10.7083	-52.456523	0.000466	4.662967	1.579856	0.000187
1741	1.7313e+02	-10.6714	-52.379818	0.000193	1.926008	0.652549	0.000077
1742	1.7323e+02	-10.6473	-52.254666	0.000314	3.142434	1.064686	0.000126
1743	1.7333e+02	-10.5831	-52.089144	0.000416	4.156123	1.408133	0.000166
1744	1.7343e+02	-10.5478	-51.984178	0.000264	2.635590	0.892962	0.000105
1745	1.7353e+02	-10.5093	-51.867101	0.000294	2.939697	0.995996	0.000118
1746	1.7363e+02	-10.4788	-51.721765	0.000365	3.649279	1.236409	0.000146
1747	1.7373e+02	-10.4355	-51.608725	0.000284	2.838328	0.961651	0.000114
1748	1.7383e+02	-10.3858	-51.507796	0.000253	2.534221	0.858617	0.000101
1749	1.7393e+02	-10.3601	-51.366497	0.000355	3.547910	1.202064	0.000142
1750	1.7403e+02	-10.3216	-51.293828	0.000182	1.824639	0.618205	0.000073
1751	1.7413e+02	-10.2735	-51.136380	0.000395	3.953385	1.339443	0.000158
1752	1.7422e+02	-10.2254	-51.027377	0.000274	2.736959	0.927307	0.000110
1753	1.7432e+02	-10.1837	-50.902226	0.000314	3.142434	1.064686	0.000126
1754	1.7442e+02	-10.1548	-50.817446	0.000213	2.128746	0.721239	0.000085
1755	1.7452e+02	-10.1163	-50.696332	0.000304	3.041065	1.030341	0.000122
1756	1.7462e+02	-10.0794	-50.563107	0.000335	3.345172	1.133375	0.000134
1757	1.7472e+02	-10.0313	-50.389510	0.000436	4.358860	1.476822	0.000174
1758	1.7482e+02	-9.9896	-50.272433	0.000294	2.939697	0.995996	0.000118
1759	1.7492e+02	-9.9495	-50.135170	0.000345	3.446541	1.167720	0.000138
1760	1.7502e+02	-9.9142	-50.001945	0.000335	3.345172	1.133375	0.000134
1761	1.7512e+02	-9.8724	-49.872756	0.000324	3.243803	1.099030	0.000130
1762	1.7522e+02	-9.8372	-49.755679	0.000294	2.939697	0.995996	0.000118
1763	1.7532e+02	-9.7906	-49.622454	0.000335	3.345172	1.133375	0.000134
1764	1.7542e+02	-9.7634	-49.497303	0.000314	3.142434	1.064686	0.000126
1765	1.7552e+02	-9.7120	-49.392337	0.000264	2.635590	0.892962	0.000105
1766	1.7562e+02	-9.6799	-49.267186	0.000314	3.142434	1.064686	0.000126
1767	1.7572e+02	-9.6366	-49.154146	0.000284	2.838328	0.961651	0.000114
1768	1.7582e+02	-9.6029	-48.976512	0.000446	4.460229	1.511167	0.000179
1769	1.7592e+02	-9.5580	-48.895769	0.000203	2.027377	0.686894	0.000081
1770	1.7602e+02	-9.5083	-48.786767	0.000274	2.736959	0.927307	0.000110
1771	1.7612e+02	-9.4778	-48.697950	0.000223	2.230115	0.755583	0.000089
1772	1.7621e+02	-9.4425	-48.520316	0.000446	4.460229	1.511167	0.000179
1773	1.7631e+02	-9.4008	-48.407276	0.000284	2.838328	0.961651	0.000114
1774	1.7641e+02	-9.3591	-48.253865	0.000385	3.852016	1.305098	0.000154
1775	1.7651e+02	-9.3190	-48.136788	0.000294	2.939697	0.995996	0.000118
1776	1.7661e+02	-9.2805	-48.007600	0.000324	3.243803	1.099030	0.000130
1777	1.7671e+02	-9.2404	-47.858226	0.000375	3.750647	1.270754	0.000150
1778	1.7681e+02	-9.1955	-47.737112	0.000304	3.041065	1.030341	0.000122
1779	1.7691e+02	-9.1666	-47.628109	0.000274	2.736959	0.927307	0.000110
1780	1.7701e+02	-9.1201	-47.482772	0.000365	3.649279	1.236409	0.000146
1781	1.7711e+02	-9.0816	-47.406066	0.000193	1.926008	0.652549	0.000077
1782	1.7721e+02	-9.0463	-47.252655	0.000385	3.852016	1.305098	0.000154
1783	1.7731e+02	-9.0046	-47.123467	0.000324	3.243803	1.099030	0.000130
1784	1.7741e+02	-8.9693	-46.961981	0.000405	4.054754	1.373788	0.000162
1785	1.7751e+02	-8.9243	-46.869127	0.000233	2.331483	0.789928	0.000093
1786	1.7761e+02	-8.8826	-46.715716	0.000385	3.852016	1.305098	0.000154
1787	1.7771e+02	-8.8409	-46.582491	0.000335	3.345172	1.133375	0.000134
1788	1.7781e+02	-8.7928	-46.473488	0.000274	2.736959	0.927307	0.000110
1789	1.7791e+02	-8.7495	-46.368523	0.000264	2.635590	0.892962	0.000105
1790	1.7801e+02	-8.7190	-46.283743	0.000213	2.128746	0.721239	0.000085
1791	1.7810e+02	-8.6853	-46.142443	0.000355	3.547910	1.202064	0.000142
1792	1.7820e+02	-8.6324	-45.948660	0.000487	4.865705	1.648545	0.000195
1793	1.7830e+02	-8.5923	-45.843695	0.000264	2.635590	0.892962	0.000105
1794	1.7840e+02	-8.5650	-45.690284	0.000385	3.852016	1.305098	0.000154
1795	1.7850e+02	-8.5185	-45.597430	0.000233	2.331483	0.789928	0.000093
1796	1.7860e+02	-8.4800	-45.448056	0.000375	3.750647	1.270754	0.000150
1797	1.7870e+02	-8.4351	-45.322904	0.000314	3.142434	1.064686	0.000126
1798	1.7880e+02	-8.4078	-45.137196	0.000466	4.662967	1.579856	0.000187
1799	1.7890e+02	-8.3629	-45.040305	0.000243	2.432852	0.824273	0.000097
1800	1.7900e+02	-8.3244	-44.870745	0.000426	4.257492	1.442477	0.000170
1801	1.7910e+02	-8.2843	-44.777891	0.000233	2.331483	0.789928	0.000093
1802	1.7920e+02	-8.2409	-44.624480	0.000385	3.852016	1.305098	0.000154
1803	1.7930e+02	-8.2040	-44.511440	0.000284	2.838328	0.961651	0.000114
1804	1.7940e+02	-8.1671	-44.394363	0.000294	2.939697	0.995996	0.000118
1805	1.7950e+02	-8.1286	-44.273249	0.000304	3.041065	1.030341	0.000122
1806	1.7960e+02	-8.0805	-44.135986	0.000345	3.446541	1.167720	0.000138
1807	1.7970e+02	-8.0404	-44.010835	0.000314	3.142434	1.064686	0.000126
1808	1.7980e+02	-8.0003	-43.897795	0.000284	2.838328	0.961651	0.000114
1809	1.7990e+02	-7.9650	-43.667679	0.000578	5.778024	1.957648	0.000231
1810	1.8000e+02	-7.9217	-43.538490	0.000324	3.243803	1.099030	0.000130
1811	1.8009e+02	-7.8736	-43.425451	0.000284	2.838328	0.961651	0.000114
1812	1.8019e+02	-7.8463	-43.292225	0.000335	3.345172	1.133375	0.000134
1813	1.8029e+02	-7.7918	-43.126703	0.000416	4.156123	1.408133	0.000166
1814	1.8039e+02	-7.7597	-43.013663	0.000284	2.838328	0.961651	0.000114
1815	1.8049e+02	-7.7244	-42.852177	0.000405	4.054754	1.373788	0.000162
1816	1.8059e+02	-7.6811	-42.735100	0.000294	2.939697	0.995996	0.000118
1817	1.8069e+02	-7.6538	-42.609949	0.000314	3.142434	1.064686	0.000126
1818	1.8079e+02	-7.5944	-42.436352	0.000436	4.358860	1.476822	0.000174
1819	1.8089e+02	-7.5640	-42.299090	0.000345	3.446541	1.167720	0.000138
1820	1.8099e+02	-7.5206	-42.214310	0.000213	2.128746	0.721239	0.000085
1821	1.8109e+02	-7.4886	-42.081084	0.000335	3.345172	1.133375	0.000134
1822	1.8119e+02	-7.4468	-41.943822	0.000345	3.446541	1.167720	0.000138
1823	1.8129e+02	-7.3987	-41.802522	0.000355	3.547910	1.202064	0.000142
1824	1.8139e+02	-7.3618	-41.709668	0.000233	2.331483	0.789928	0.000093
1825	1.8149e+02	-7.3249	-41.572405	0.000345	3.446541	1.167720	0.000138
1826	1.8159e+02	-7.2832	-41.398808	0.000436	4.358860	1.476822	0.000174
1827	1.8169e+02	-7.2463	-41.241360	0.000395	3.953385	1.339443	0.000158
1828	1.8179e+02	-7.2014	-41.087949	0.000385	3.852016	1.305098	0.000154
1829	1.8189e+02	-7.1677	-40.974909	0.000284	2.838328	0.961651	0.000114
1830	1.8199e+02	-7.1276	-40.829572	0.000365	3.649279	1.236409	0.000146
1831	1.8209e+02	-7.0795	-40.684235	0.000365	3.649279	1.236409	0.000146
1832	1.8218e+02	-7.0458	-40.546973	0.000345	3.446541	1.167720	0.000138
1833	1.8228e+02	-6.9993	-40.397599	0.000375	3.750647	1.270754	0.000150
1834	1.8238e+02	-6.9640	-40.272448	0.000314	3.142434	1.064686	0.000126
1835	1.8248e+02	-6.9319	-40.143259	0.000324	3.243803	1.099030	0.000130
1836	1.8258e+02	-6.8966	-39.973700	0.000426	4.257492	1.442477	0.000170
1837	1.8268e+02	-6.8517	-39.836437	0.000345	3.446541	1.167720	0.000138
1838	1.8278e+02	-6.8084	-39.727434	0.000274	2.736959	0.927307	0.000110
1839	1.8288e+02	-6.7667	-39.565949	0.000405	4.054754	1.373788	0.000162
1840	1.8298e+02	-6.7265	-39.460983	0.000264	2.635590	0.892962	0.000105
1841	1.8308e+02	-6.6784	-39.327758	0.000335	3.345172	1.133375	0.000134
1842	1.8318e+02	-6.6415	-39.251052	0.000193	1.926008	0.652549	0.000077
1843	1.8328e+02	-6.6062	-39.081493	0.000426	4.257492	1.442477	0.000170
1844	1.8338e+02	-6.5517	-38.924044	0.000395	3.953385	1.339443	0.000158
1845	1.8348e+02	-6.5292	-38.750447	0.000436	4.358860	1.476822	0.000174
1846	1.8358e+02	-6.4891	-38.584925	0.000416	4.156123	1.408133	0.000166
1847	1.8368e+02	-6.4506	-38.455736	0.000324	3.243803	1.099030	0.000130
1848	1.8378e+02	-6.4073	-38.318474	0.000345	3.446541	1.167720	0.000138
1849	1.8388e+02	-6.3768	-38.181211	0.000345	3.446541	1.167720	0.000138
1850	1.8398e+02	-6.3351	-38.060097	0.000304	3.041065	1.030341	0.000122
1851	1.8407e+02	-6.2918	-37.894575	0.000416	4.156123	1.408133	0.000166
1852	1.8417e+02	-6.2533	-37.745201	0.000375	3.750647	1.270754	0.000150
1853	1.8427e+02	-6.2148	-37.607938	0.000345	3.446541	1.167720	0.000138
1854	1.8437e+02	-6.1715	-37.474712	0.000335	3.345172	1.133375	0.000134
1855	1.8447e+02	-6.1330	-37.349561	0.000314	3.142434	1.064686	0.000126
1856	1.8457e+02	-6.0929	-37.220373	0.000324	3.243803	1.099030	0.000130
1857	1.8467e+02	-6.0464	-37.091185	0.000324	3.243803	1.099030	0.000130
1858	1.8477e+02	-6.0143	-36.933736	0.000395	3.953385	1.339443	0.000158
1859	1.8487e+02	-5.9758	-36.768214	0.000416	4.156123	1.408133	0.000166
1860	1.8497e+02	-5.9292	-36.683434	0.000213	2.128746	0.721239	0.000085
1861	1.8507e+02	-5.8956	-36.521948	0.000405	4.054754	1.373788	0.000162
1862	1.8517e+02	-5.8490	-36.388723	0.000335	3.345172	1.133375	0.000134
1863	1.8527e+02	-5.8137	-36.223200	0.000416	4.156123	1.408133	0.000166
1864	1.8537e+02	-5.7736	-36.057678	0.000416	4.156123	1.408133	0.000166
1865	1.8547e+02	-5.7399	-35.904267	0.000385	3.852016	1.305098	0.000154
1866	1.8557e+02	-5.6934	-35.771041	0.000335	3.345172	1.133375	0.000134
1867	1.8567e+02	-5.6629	-35.605519	0.000416	4.156123	1.408133	0.000166
1868	1.8577e+02	-5.6132	-35.448070	0.000395	3.953385	1.339443	0.000158
1869	1.8587e+02	-5.5763	-35.290622	0.000395	3.953385	1.339443	0.000158
1870	1.8597e+02	-5.5346	-35.169508	0.000304	3.041065	1.030341	0.000122
1871	1.8606e+02	-5.4961	-35.003985	0.000416	4.156123	1.408133	0.000166
1872	1.8616e+02	-5.4512	-34.874797	0.000324	3.243803	1.099030	0.000130
1873	1.8626e+02	-5.4223	-34.729460	0.000365	3.649279	1.236409	0.000146
1874	1.8636e+02	-5.3774	-34.608346	0.000304	3.041065	1.030341	0.000122
1875	1.8646e+02	-5.3405	-34.422638	0.000466	4.662967	1.579856	0.000187
1876	1.8656e+02	-5.2892	-34.358044	0.000162	1.621902	0.549515	0.000065
1877	1.8666e+02	-5.2571	-34.180410	0.000446	4.460229	1.511167	0.000179
1878	1.8676e+02	-5.2073	-34.075444	0.000264	2.635590	0.892962	0.000105
1879	1.8686e+02	-5.1817	-33.926070	0.000375	3.750647	1.270754	0.000150
1880	1.8696e+02	-5.1384	-33.776696	0.000375	3.750647	1.270754	0.000150
1881	1.8706e+02	-5.0918	-33.578877	0.000497	4.967074	1.682890	0.000199
1882	1.8716e+02	-5.0598	-33.413354	0.000416	4.156123	1.408133	0.000166
1883	1.8726e+02	-5.0116	-33.300314	0.000284	2.838328	0.961651	0.000114
1884	1.8736e+02	-4.9811	-33.118643	0.000456	4.561598	1.545511	0.000183
1885	1.8746e+02	-4.9378	-32.985418	0.000335	3.345172	1.133375	0.000134
1886	1.8756e+02	-4.8977	-32.795672	0.000476	4.764336	1.614201	0.000191
1887	1.8766e+02	-4.8528	-32.706855	0.000223	2.230115	0.755583	0.000089
1888	1.8776e+02	-4.8207	-32.529221	0.000446	4.460229	1.511167	0.000179
1889	1.8786e+02	-4.7790	-32.379847	0.000375	3.750647	1.270754	0.000150
1890	1.8796e+02	-4.7405	-32.274882	0.000264	2.635590	0.892962	0.000105
1891	1.8806e+02	-4.6876	-32.109359	0.000416	4.156123	1.408133	0.000166
1892	1.8815e+02	-4.6539	-31.935762	0.000436	4.358860	1.476822	0.000174
1893	1.8825e+02	-4.6170	-31.826760	0.000274	2.736959	0.927307	0.000110
1894	1.8835e+02	-4.5817	-31.741980	0.000213	2.128746	0.721239	0.000085
1895	1.8845e+02	-4.5352	-31.592606	0.000375	3.750647	1.270754	0.000150
1896	1.8855e+02	-4.5063	-31.435157	0.000395	3.953385	1.339443	0.000158
1897	1.8865e+02	-4.4646	-31.281746	0.000385	3.852016	1.305098	0.000154
1898	1.8875e+02	-4.4245	-31.148521	0.000335	3.345172	1.133375	0.000134
1899	1.8885e+02	-4.3796	-30.982998	0.000416	4.156123	1.408133	0.000166
1900	1.8895e+02	-4.3330	-30.797290	0.000466	4.662967	1.579856	0.000187
1901	1.8905e+02	-4.3170	-30.643879	0.000385	3.852016	1.305098	0.000154
1902	1.8915e+02	-4.2592	-30.486431	0.000395	3.953385	1.339443	0.000158
1903	1.8925e+02	-4.2223	-30.320908	0.000416	4.156123	1.408133	0.000166
1904	1.8935e+02	-4.1774	-30.191720	0.000324	3.243803	1.099030	0.000130
1905	1.8945e+02	-4.1357	-30.001974	0.000476	4.764336	1.614201	0.000191
1906	1.8955e+02	-4.0972	-29.913157	0.000223	2.230115	0.755583	0.000089
1907	1.8965e+02	-4.0571	-29.687078	0.000568	5.676655	1.923303	0.000227
1908	1.8975e+02	-4.0202	-29.614409	0.000182	1.824639	0.618205	0.000073
1909	1.8985e+02	-3.9705	-29.465035	0.000375	3.750647	1.270754	0.000150
1910	1.8995e+02	-3.9416	-29.323735	0.000355	3.547910	1.202064	0.000142
1911	1.9004e+02	-3.9031	-29.202621	0.000304	3.041065	1.030341	0.000122
1912	1.9014e+02	-3.8550	-29.000765	0.000507	5.068442	1.717235	0.000203
1913	1.9024e+02	-3.8165	-28.859465	0.000355	3.547910	1.202064	0.000142
1914	1.9034e+02	-3.7940	-28.754499	0.000264	2.635590	0.892962	0.000105
1915	1.9044e+02	-3.7282	-28.605125	0.000375	3.750647	1.270754	0.000150
1916	1.9054e+02	-3.6913	-28.427491	0.000446	4.460229	1.511167	0.000179
1917	1.9064e+02	-3.6609	-28.245820	0.000456	4.561598	1.545511	0.000183
1918	1.9074e+02	-3.6175	-28.068186	0.000446	4.460229	1.511167	0.000179
1919	1.9084e+02	-3.5806	-27.906701	0.000405	4.054754	1.373788	0.000162
1920	1.9094e+02	-3.5325	-27.781550	0.000314	3.142434	1.064686	0.000126
1921	1.9104e+02	-3.4940	-27.620064	0.000405	4.054754	1.373788	0.000162
1922	1.9114e+02	-3.4667	-27.474727	0.000365	3.649279	1.236409	0.000146
1923	1.9124e+02	-3.4234	-27.325353	0.000375	3.750647	1.270754	0.000150
1924	1.9134e+02	-3.3817	-27.159831	0.000416	4.156123	1.408133	0.000166
1925	1.9144e+02	-3.3352	-27.030642	0.000324	3.243803	1.099030	0.000130
1926	1.9154e+02	-3.3095	-26.881268	0.000375	3.750647	1.270754	0.000150
1927	1.9164e+02	-3.2694	-26.715746	0.000416	4.156123	1.408133	0.000166
1928	1.9174e+02	-3.2245	-26.586557	0.000324	3.243803	1.099030	0.000130
1929	1.9184e+02	-3.1844	-26.453332	0.000335	3.345172	1.133375	0.000134
1930	1.9194e+02	-3.1475	-26.303958	0.000375	3.750647	1.270754	0.000150
1931	1.9203e+02	-3.0994	-26.130361	0.000436	4.358860	1.476822	0.000174
1932	1.9213e+02	-3.0593	-25.985024	0.000365	3.649279	1.236409	0.000146
1933	1.9223e+02	-3.0256	-25.823539	0.000405	4.054754	1.373788	0.000162
1934	1.9233e+02	-2.9742	-25.637831	0.000466	4.662967	1.579856	0.000187
1935	1.9243e+02	-2.9438	-25.476345	0.000405	4.054754	1.373788	0.000162
1936	1.9253e+02	-2.9085	-25.314860	0.000405	4.054754	1.373788	0.000162
1937	1.9263e+02	-2.8587	-25.141263	0.000436	4.358860	1.476822	0.000174
1938	1.9273e+02	-2.8283	-24.951517	0.000476	4.764336	1.614201	0.000191
1939	1.9283e+02	-2.7962	-24.781958	0.000426	4.257492	1.442477	0.000170
1940	1.9293e+02	-2.7384	-24.664881	0.000294	2.939697	0.995996	0.000118
1941	1.9303e+02	-2.6983	-24.535692	0.000324	3.243803	1.099030	0.000130
1942	1.9313e+02	-2.6710	-24.382281	0.000385	3.852016	1.305098	0.000154
1943	1.9323e+02	-2.6213	-24.220796	0.000405	4.054754	1.373788	0.000162
1944	1.9333e+02	-2.5876	-24.079496	0.000355	3.547910	1.202064	0.000142
1945	1.9343e+02	-2.5427	-23.970493	0.000274	2.736959	0.927307	0.000110
1946	1.9353e+02	-2.5042	-23.788822	0.000456	4.561598	1.545511	0.000183
1947	1.9363e+02	-2.4673	-23.615225	0.000436	4.358860	1.476822	0.000174
1948	1.9373e+02	-2.4240	-23.449703	0.000416	4.156123	1.408133	0.000166
1949	1.9383e+02	-2.3871	-23.324552	0.000314	3.142434	1.064686	0.000126
1950	1.9393e+02	-2.3486	-23.183252	0.000355	3.547910	1.202064	0.000142
1951	1.9403e+02	-2.3085	-23.017729	0.000416	4.156123	1.408133	0.000166
1952	1.9412e+02	-2.2684	-22.864318	0.000385	3.852016	1.305098	0.000154
1953	1.9422e+02	-2.2283	-22.682647	0.000456	4.561598	1.545511	0.000183
1954	1.9432e+02	-2.1882	-22.488865	0.000487	4.865705	1.648545	0.000195
1955	1.9442e+02	-2.1433	-22.291045	0.000497	4.967074	1.682890	0.000199
1956	1.9452e+02	-2.1096	-22.157819	0.000335	3.345172	1.133375	0.000134
1957	1.9462e+02	-2.0775	-21.980186	0.000446	4.460229	1.511167	0.000179
1958	1.9472e+02	-2.0342	-21.846960	0.000335	3.345172	1.133375	0.000134
1959	1.9482e+02	-1.9892	-21.737957	0.000274	2.736959	0.927307	0.000110
1960	1.9492e+02	-1.9507	-21.564361	0.000436	4.358860	1.476822	0.000174
1961	1.9502e+02	-1.9138	-21.390764	0.000436	4.358860	1.476822	0.000174
1962	1.9512e+02	-1.8705	-21.265613	0.000314	3.142434	1.064686	0.000126
1963	1.9522e+02	-1.8288	-21.116238	0.000375	3.750647	1.270754	0.000150
1964	1.9532e+02	-1.7871	-20.914382	0.000507	5.068442	1.717235	0.000203
1965	1.9542e+02	-1.7486	-20.781156	0.000335	3.345172	1.133375	0.000134
1966	1.9552e+02	-1.7037	-20.619671	0.000405	4.054754	1.373788	0.000162
1967	1.9562e+02	-1.6764	-20.442037	0.000446	4.460229	1.511167	0.000179
1968	1.9572e+02	-1.6283	-20.276514	0.000416	4.156123	1.408133	0.000166
1969	1.9582e+02	-1.5930	-20.106955	0.000426	4.257492	1.442477	0.000170
1970	1.9592e+02	-1.5561	-19.937395	0.000426	4.257492	1.442477	0.000170
1971	1.9601e+02	-1.5144	-19.755724	0.000456	4.561598	1.545511	0.000183
1972	1.9611e+02	-1.4791	-19.565978	0.000476	4.764336	1.614201	0.000191
1973	1.9621e+02	-1.4278	-19.432753	0.000335	3.345172	1.133375	0.000134
1974	1.9631e+02	-1.4005	-19.251082	0.000456	4.561598	1.545511	0.000183
1975	1.9641e+02	-1.3636	-19.129968	0.000304	3.041065	1.030341	0.000122
1976	1.9651e+02	-1.3139	-18.968482	0.000405	4.054754	1.373788	0.000162
1977	1.9661e+02	-1.2722	-18.778737	0.000476	4.764336	1.614201	0.000191
1978	1.9671e+02	-1.2256	-18.601103	0.000446	4.460229	1.511167	0.000179
1979	1.9681e+02	-1.1903	-18.504212	0.000243	2.432852	0.824273	0.000097
1980	1.9691e+02	-1.1534	-18.346763	0.000395	3.953385	1.339443	0.000158
1981	1.9701e+02	-1.1198	-18.144907	0.000507	5.068442	1.717235	0.000203
1982	1.9711e+02	-1.0652	-17.959198	0.000466	4.662967	1.579856	0.000187
1983	1.9721e+02	-1.0395	-17.825973	0.000335	3.345172	1.133375	0.000134
1984	1.9731e+02	-0.9962	-17.628153	0.000497	4.967074	1.682890	0.000199
1985	1.9741e+02	-0.9641	-17.438408	0.000476	4.764336	1.614201	0.000191
1986	1.9751e+02	-0.9160	-17.272885	0.000416	4.156123	1.408133	0.000166
1987	1.9761e+02	-0.8631	-17.115437	0.000395	3.953385	1.339443	0.000158
1988	1.9771e+02	-0.8406	-16.957989	0.000395	3.953385	1.339443	0.000158
1989	1.9781e+02	-0.7941	-16.792466	0.000416	4.156123	1.408133	0.000166
1990	1.9791e+02	-0.7572	-16.598684	0.000487	4.865705	1.648545	0.000195
1991	1.9800e+02	-0.7091	-16.441235	0.000395	3.953385	1.339443	0.000158
1992	1.9810e+02	-0.6738	-16.299936	0.000355	3.547910	1.202064	0.000142
1993	1.9820e+02	-0.6337	-16.130376	0.000426	4.257492	1.442477	0.000170
1994	1.9830e+02	-0.5855	-15.972928	0.000395	3.953385	1.339443	0.000158
1995	1.9840e+02	-0.5422	-15.823554	0.000375	3.750647	1.270754	0.000150
1996	1.9850e+02	-0.5182	-15.621697	0.000507	5.068442	1.717235	0.000203
1997	1.9860e+02	-0.4781	-15.484434	0.000345	3.446541	1.167720	0.000138
1998	1.9870e+02	-0.4283	-15.331023	0.000385	3.852016	1.305098	0.000154
1999	1.9880e+02	-0.3946	-15.177612	0.000385	3.852016	1.305098	0.000154
2000	1.9890e+02	-0.3626	-14.975755	0.000507	5.068442	1.717235	0.000203
2001	1.9900e+02	-0.3176	-14.830418	0.000365	3.649279	1.236409	0.000146
2002	1.9910e+02	-0.2727	-14.652784	0.000446	4.460229	1.511167	0.000179
2003	1.9920e+02	-0.2342	-14.487262	0.000416	4.156123	1.408133	0.000166
2004	1.9930e+02	-0.1989	-14.362110	0.000314	3.142434	1.064686	0.000126
2005	1.9940e+02	-0.1492	-14.160254	0.000507	5.068442	1.717235	0.000203
2006	1.9950e+02	-0.1203	-13.926100	0.000588	5.879393	1.991992	0.000235
2007	1.9960e+02	-0.0786	-13.792874	0.000335	3.345172	1.133375	0.000134
2008	1.9970e+02	-0.0305	-13.615240	0.000446	4.460229	1.511167	0.000179
2009	1.9980e+02	0.0048	-13.477978	0.000446	4.460229	1.511167	0.000138

PMax (uC/cm2):	8.08e+01
Pr (uC/cm2):	7.74e+00
-Pr (uC/cm2):	-7.07e+00
PLoss (uC/cm2):	-7.07e+00
-Vc:	-1.89e+00
C (Max-Eff) (nF):	4.04e-01
K (Eff):	1.37e+03
Vert. (+/-Pr) Shift (uC/cm2):	3.34e-01
Offset (uC/cm2):	6.40e+00

A (Loop Area - uC/cm2·Volts):	8.33e-02



Hysteresis Version: 5.48.1 - Radiant Technologies, Inc., 1999 - 9/12/24

