»»»»»»»»»»»»»»»»»»»»»»»»»»»»»»»»»»»» Hysteresis ««««««««««««««««««««««««««««««««««««
»»»  Executed Version:	5.48.1
»»»  Vision Version:	5.48.4 (R)
»»»  Vision Compiled:	9/18/24
»»»  Driver Version:	5.47.0
»»»  Windows Version:	Windows 8 or 8.1
»»»  Processor Information:	x86 (AMD or Intel) - 32 Processors
»»»  Tester Name:	PMF21124-494 (100V)
»»»  Tester S/N:	PMF21124-494
»»»  Internal Amp Type:	100V RevK 270k
»»»  Internal Amp S/N:	iAB2-596/K     
»»»  Execution Count:	1
»»»»»»»»»»»»»»»»»»»»»»»»»»»»»»»»»»»»»»»»»»««««««««««««««««««««««««««««««««««««««««««

Stored:	6/19/2025 - 21:11:24
Configured:	06/19/25 10:04:32 AM
Executed:	06/19/25 09:10:29 PM

»»»»»»»»»»»»»»»»»»»»»»»»»»»»»»»»»»» Sample Info ««««««««««««««««««««««««««««««««««««
Sample Name:	
Lot Name:	
Wafer Name:	
Die Row/Column:	0/0
Capacitor Number:	0
Sample Area (cm2):	1.00e-04
Sample Thickness (microns):	3.00e-01

Amplifier:	Internal

»»»»»»»»»»»»»»»»»»»»»»»»»»»»»»»»»»» Tester Info «««««««««««««««««««««««««««««««««««
Tester Name:	PMF21124-494 (100V)
Tester Serial Number:	PMF21124-494
Return Signal Amp. Level:	0.19 [Index: 3]

»»»»»»»»»»»»»»»»»»»»»»»»»»»»»»»» Hysteresis Info ««««««««««««««««««««««««««««««««««
Task Name:	Hyst-1168
Volts:	20.00
Field:	666.67 (kV/cm)
DCBias:	0.00
DCField:	0.00 (kV/cm)
Hysteresis Period (ms):	2.00e+02
Preset:	Enabled
Preset Delay (ms):	1.00e+03
Profile:	Standard Bipolar

»»»»»»»»»»»»»»»»»»»»»»»»»»»»»»»»»»»»»» Data «««««««««««««««««««««««««««««««««««««««
Points:	2009

Valid Data

Point	Time (ms)	Drive Voltage	Measured Polarization (uC/cm2)	Capacitance (uF)	Normalized Capacitance (uF/cm2)	Dielectric Constant	Instantaneous Current (mA)
   1	0.0000e+00	0.0144	-8.659656	0.000304	3.041065	1.030341	0.000122
   2	9.9500e-02	0.0433	-8.538542	0.000304	3.041065	1.030341	0.000122
   3	1.9900e-01	0.0850	-8.381094	0.000395	3.953385	1.339443	0.000158
   4	2.9850e-01	0.1059	-8.247868	0.000335	3.345172	1.133375	0.000134
   5	3.9800e-01	0.1620	-8.074271	0.000436	4.358860	1.476822	0.000174
   6	4.9750e-01	0.1941	-7.957195	0.000294	2.939697	0.995996	0.000118
   7	5.9700e-01	0.2278	-7.815895	0.000355	3.547910	1.202064	0.000142
   8	6.9650e-01	0.2791	-7.618075	0.000497	4.967074	1.682890	0.000199
   9	7.9600e-01	0.3160	-7.480813	0.000345	3.446541	1.167720	0.000138
  10	8.9550e-01	0.3577	-7.315290	0.000416	4.156123	1.408133	0.000166
  11	9.9500e-01	0.3930	-7.186102	0.000324	3.243803	1.099030	0.000130
  12	1.0945e+00	0.4347	-7.012505	0.000436	4.358860	1.476822	0.000174
  13	1.1940e+00	0.4716	-6.859094	0.000385	3.852016	1.305098	0.000154
  14	1.2935e+00	0.5166	-6.697608	0.000405	4.054754	1.373788	0.000162
  15	1.3930e+00	0.5551	-6.540160	0.000395	3.953385	1.339443	0.000158
  16	1.4925e+00	0.5952	-6.406934	0.000335	3.345172	1.133375	0.000134
  17	1.5920e+00	0.6401	-6.221226	0.000466	4.662967	1.579856	0.000187
  18	1.6915e+00	0.6722	-6.035518	0.000466	4.662967	1.579856	0.000187
  19	1.7910e+00	0.7187	-5.910367	0.000314	3.142434	1.064686	0.000126
  20	1.8905e+00	0.7492	-5.740807	0.000426	4.257492	1.442477	0.000170
  21	1.9900e+00	0.7941	-5.587396	0.000385	3.852016	1.305098	0.000154
  22	2.0895e+00	0.8310	-5.413799	0.000436	4.358860	1.476822	0.000174
  23	2.1890e+00	0.8583	-5.256351	0.000395	3.953385	1.339443	0.000158
  24	2.2885e+00	0.9032	-5.102940	0.000385	3.852016	1.305098	0.000154
  25	2.3880e+00	0.9545	-4.973751	0.000324	3.243803	1.099030	0.000130
  26	2.4875e+00	1.0042	-4.747672	0.000568	5.676655	1.923303	0.000227
  27	2.5870e+00	1.0395	-4.622520	0.000314	3.142434	1.064686	0.000126
  28	2.6865e+00	1.0684	-4.461035	0.000405	4.054754	1.373788	0.000162
  29	2.7860e+00	1.1069	-4.251104	0.000527	5.271180	1.785924	0.000211
  30	2.8855e+00	1.1583	-4.117878	0.000335	3.345172	1.133375	0.000134
  31	2.9850e+00	1.1823	-3.944282	0.000436	4.358860	1.476822	0.000174
  32	3.0845e+00	1.2256	-3.778759	0.000416	4.156123	1.408133	0.000166
  33	3.1840e+00	1.2722	-3.661682	0.000294	2.939697	0.995996	0.000118
  34	3.2835e+00	1.3091	-3.492122	0.000426	4.257492	1.442477	0.000170
  35	3.3830e+00	1.3524	-3.314488	0.000446	4.460229	1.511167	0.000179
  36	3.4825e+00	1.3957	-3.148966	0.000416	4.156123	1.408133	0.000166
  37	3.5820e+00	1.4342	-3.003629	0.000365	3.649279	1.236409	0.000146
  38	3.6815e+00	1.4647	-2.813884	0.000476	4.764336	1.614201	0.000191
  39	3.7810e+00	1.5208	-2.644324	0.000426	4.257492	1.442477	0.000170
  40	3.8805e+00	1.5497	-2.486876	0.000395	3.953385	1.339443	0.000158
  41	3.9800e+00	1.5930	-2.337502	0.000375	3.750647	1.270754	0.000150
  42	4.0795e+00	1.6459	-2.147756	0.000476	4.764336	1.614201	0.000191
  43	4.1790e+00	1.6716	-2.006456	0.000355	3.547910	1.202064	0.000142
  44	4.2785e+00	1.7085	-1.844971	0.000405	4.054754	1.373788	0.000162
  45	4.3780e+00	1.7502	-1.663300	0.000456	4.561598	1.545511	0.000183
  46	4.4775e+00	1.7935	-1.526037	0.000345	3.446541	1.167720	0.000138
  47	4.5770e+00	1.8320	-1.360515	0.000416	4.156123	1.408133	0.000166
  48	4.6765e+00	1.8721	-1.170769	0.000476	4.764336	1.614201	0.000191
  49	4.7760e+00	1.9058	-1.009284	0.000405	4.054754	1.373788	0.000162
  50	4.8755e+00	1.9556	-0.867984	0.000355	3.547910	1.202064	0.000142
  51	4.9750e+00	1.9989	-0.690350	0.000446	4.460229	1.511167	0.000179
  52	5.0745e+00	2.0294	-0.504642	0.000466	4.662967	1.579856	0.000187
  53	5.1740e+00	2.0646	-0.351231	0.000385	3.852016	1.305098	0.000154
  54	5.2735e+00	2.1112	-0.197820	0.000385	3.852016	1.305098	0.000154
  55	5.3730e+00	2.1497	0.008074	0.000517	5.169811	1.751579	0.000207
  56	5.4725e+00	2.1850	0.157448	0.000375	3.750647	1.270754	0.000150
  57	5.5720e+00	2.2315	0.322971	0.000416	4.156123	1.408133	0.000166
  58	5.6715e+00	2.2748	0.488493	0.000416	4.156123	1.408133	0.000166
  59	5.7710e+00	2.3085	0.678239	0.000476	4.764336	1.614201	0.000191
  60	5.8705e+00	2.3486	0.823576	0.000365	3.649279	1.236409	0.000146
  61	5.9700e+00	2.3839	1.009284	0.000466	4.662967	1.579856	0.000187
  62	6.0695e+00	2.4240	1.211141	0.000507	5.068442	1.717235	0.000203
  63	6.1690e+00	2.4657	1.352440	0.000355	3.547910	1.202064	0.000142
  64	6.2685e+00	2.5058	1.526037	0.000436	4.358860	1.476822	0.000174
  65	6.3680e+00	2.5507	1.667337	0.000355	3.547910	1.202064	0.000142
  66	6.4675e+00	2.5989	1.840934	0.000436	4.358860	1.476822	0.000174
  67	6.5670e+00	2.6261	2.030679	0.000476	4.764336	1.614201	0.000191
  68	6.6665e+00	2.6710	2.171979	0.000355	3.547910	1.202064	0.000142
  69	6.7660e+00	2.7112	2.385947	0.000537	5.372549	1.820269	0.000215
  70	6.8655e+00	2.7432	2.551470	0.000416	4.156123	1.408133	0.000166
  71	6.9650e+00	2.7882	2.729104	0.000446	4.460229	1.511167	0.000179
  72	7.0645e+00	2.8315	2.886552	0.000395	3.953385	1.339443	0.000158
  73	7.1640e+00	2.8764	3.044000	0.000395	3.953385	1.339443	0.000158
  74	7.2635e+00	2.9101	3.217597	0.000436	4.358860	1.476822	0.000174
  75	7.3630e+00	2.9422	3.395231	0.000446	4.460229	1.511167	0.000179
  76	7.4625e+00	2.9839	3.580939	0.000466	4.662967	1.579856	0.000187
  77	7.5620e+00	3.0272	3.710128	0.000324	3.243803	1.099030	0.000130
  78	7.6615e+00	3.0625	3.899873	0.000476	4.764336	1.614201	0.000191
  79	7.7610e+00	3.1122	4.073470	0.000436	4.358860	1.476822	0.000174
  80	7.8605e+00	3.1475	4.234955	0.000405	4.054754	1.373788	0.000162
  81	7.9600e+00	3.1844	4.428738	0.000487	4.865705	1.648545	0.000195
  82	8.0595e+00	3.2341	4.541778	0.000284	2.838328	0.961651	0.000114
  83	8.1590e+00	3.2662	4.779969	0.000598	5.980762	2.026337	0.000239
  84	8.2585e+00	3.3143	4.953566	0.000436	4.358860	1.476822	0.000174
  85	8.3580e+00	3.3464	5.102940	0.000375	3.750647	1.270754	0.000150
  86	8.4575e+00	3.3833	5.264425	0.000405	4.054754	1.373788	0.000162
  87	8.5570e+00	3.4234	5.470319	0.000517	5.169811	1.751579	0.000207
  88	8.6565e+00	3.4603	5.647953	0.000446	4.460229	1.511167	0.000179
  89	8.7560e+00	3.5165	5.805401	0.000395	3.953385	1.339443	0.000158
  90	8.8555e+00	3.5486	5.999184	0.000487	4.865705	1.648545	0.000195
  91	8.9550e+00	3.5839	6.140483	0.000355	3.547910	1.202064	0.000142
  92	9.0545e+00	3.6272	6.330229	0.000476	4.764336	1.614201	0.000191
  93	9.1540e+00	3.6689	6.515937	0.000466	4.662967	1.579856	0.000187
  94	9.2535e+00	3.7026	6.717794	0.000507	5.068442	1.717235	0.000203
  95	9.3530e+00	3.7427	6.846982	0.000324	3.243803	1.099030	0.000130
  96	9.4525e+00	3.7940	7.077099	0.000578	5.778024	1.957648	0.000231
  97	9.5520e+00	3.8229	7.206287	0.000324	3.243803	1.099030	0.000130
  98	9.6515e+00	3.8550	7.351624	0.000365	3.649279	1.236409	0.000146
  99	9.7510e+00	3.9031	7.585778	0.000588	5.879393	1.991992	0.000235
 100	9.8505e+00	3.9432	7.743226	0.000395	3.953385	1.339443	0.000158
 101	9.9500e+00	3.9817	7.912786	0.000426	4.257492	1.442477	0.000170
 102	1.0050e+01	4.0234	8.086383	0.000436	4.358860	1.476822	0.000174
 103	1.0149e+01	4.0635	8.312462	0.000568	5.676655	1.923303	0.000227
 104	1.0248e+01	4.1084	8.441651	0.000324	3.243803	1.099030	0.000130
 105	1.0348e+01	4.1437	8.631396	0.000476	4.764336	1.614201	0.000191
 106	1.0447e+01	4.1806	8.809030	0.000446	4.460229	1.511167	0.000179
 107	1.0547e+01	4.2223	8.942256	0.000335	3.345172	1.133375	0.000134
 108	1.0646e+01	4.2673	9.168335	0.000568	5.676655	1.923303	0.000227
 109	1.0746e+01	4.3058	9.321746	0.000385	3.852016	1.305098	0.000154
 110	1.0845e+01	4.3443	9.515529	0.000487	4.865705	1.648545	0.000195
 111	1.0945e+01	4.3812	9.656829	0.000355	3.547910	1.202064	0.000142
 112	1.1044e+01	4.4148	9.818314	0.000405	4.054754	1.373788	0.000162
 113	1.1144e+01	4.4582	10.024208	0.000517	5.169811	1.751579	0.000207
 114	1.1243e+01	4.4967	10.177619	0.000385	3.852016	1.305098	0.000154
 115	1.1343e+01	4.5384	10.383513	0.000517	5.169811	1.751579	0.000207
 116	1.1443e+01	4.5785	10.581333	0.000497	4.967074	1.682890	0.000199
 117	1.1542e+01	4.6138	10.702447	0.000304	3.041065	1.030341	0.000122
 118	1.1642e+01	4.6539	10.884118	0.000456	4.561598	1.545511	0.000183
 119	1.1741e+01	4.6940	11.049641	0.000416	4.156123	1.408133	0.000166
 120	1.1841e+01	4.7405	11.231312	0.000456	4.561598	1.545511	0.000183
 121	1.1940e+01	4.7742	11.392797	0.000405	4.054754	1.373788	0.000162
 122	1.2040e+01	4.8175	11.562357	0.000426	4.257492	1.442477	0.000170
 123	1.2139e+01	4.8576	11.715768	0.000385	3.852016	1.305098	0.000154
 124	1.2239e+01	4.8993	11.937810	0.000558	5.575287	1.888958	0.000223
 125	1.2338e+01	4.9442	12.119481	0.000456	4.561598	1.545511	0.000183
 126	1.2438e+01	4.9795	12.309227	0.000476	4.764336	1.614201	0.000191
 127	1.2537e+01	5.0229	12.446489	0.000345	3.446541	1.167720	0.000138
 128	1.2636e+01	5.0630	12.644309	0.000497	4.967074	1.682890	0.000199
 129	1.2736e+01	5.0902	12.789646	0.000365	3.649279	1.236409	0.000146
 130	1.2835e+01	5.1400	12.959206	0.000426	4.257492	1.442477	0.000170
 131	1.2935e+01	5.1785	13.144914	0.000466	4.662967	1.579856	0.000187
 132	1.3034e+01	5.2186	13.330622	0.000466	4.662967	1.579856	0.000187
 133	1.3134e+01	5.2635	13.516330	0.000466	4.662967	1.579856	0.000187
 134	1.3233e+01	5.3004	13.665704	0.000375	3.750647	1.270754	0.000150
 135	1.3333e+01	5.3389	13.867561	0.000507	5.068442	1.717235	0.000203
 136	1.3432e+01	5.3758	14.004824	0.000345	3.446541	1.167720	0.000138
 137	1.3532e+01	5.4191	14.214755	0.000527	5.271180	1.785924	0.000211
 138	1.3632e+01	5.4480	14.388352	0.000436	4.358860	1.476822	0.000174
 139	1.3731e+01	5.4961	14.561949	0.000436	4.358860	1.476822	0.000174
 140	1.3831e+01	5.5234	14.727471	0.000416	4.156123	1.408133	0.000166
 141	1.3930e+01	5.5843	14.929328	0.000507	5.068442	1.717235	0.000203
 142	1.4030e+01	5.6212	15.090813	0.000405	4.054754	1.373788	0.000162
 143	1.4129e+01	5.6565	15.224039	0.000335	3.345172	1.133375	0.000134
 144	1.4229e+01	5.7014	15.417821	0.000487	4.865705	1.648545	0.000195
 145	1.4328e+01	5.7399	15.623715	0.000517	5.169811	1.751579	0.000207
 146	1.4428e+01	5.7768	15.756941	0.000335	3.345172	1.133375	0.000134
 147	1.4527e+01	5.8137	15.934575	0.000446	4.460229	1.511167	0.000179
 148	1.4627e+01	5.8587	16.100097	0.000416	4.156123	1.408133	0.000166
 149	1.4726e+01	5.8956	16.249471	0.000375	3.750647	1.270754	0.000150
 150	1.4825e+01	5.9325	16.459402	0.000527	5.271180	1.785924	0.000211
 151	1.4925e+01	5.9774	16.632999	0.000436	4.358860	1.476822	0.000174
 152	1.5024e+01	6.0191	16.802559	0.000426	4.257492	1.442477	0.000170
 153	1.5124e+01	6.0528	16.968082	0.000416	4.156123	1.408133	0.000166
 154	1.5223e+01	6.0929	17.133604	0.000416	4.156123	1.408133	0.000166
 155	1.5323e+01	6.1330	17.327387	0.000487	4.865705	1.648545	0.000195
 156	1.5422e+01	6.1715	17.468686	0.000355	3.547910	1.202064	0.000142
 157	1.5522e+01	6.2148	17.662469	0.000487	4.865705	1.648545	0.000195
 158	1.5621e+01	6.2597	17.832029	0.000426	4.257492	1.442477	0.000170
 159	1.5721e+01	6.2918	17.969291	0.000345	3.446541	1.167720	0.000138
 160	1.5820e+01	6.3399	18.134814	0.000416	4.156123	1.408133	0.000166
 161	1.5920e+01	6.3704	18.328596	0.000487	4.865705	1.648545	0.000195
 162	1.6020e+01	6.4233	18.514304	0.000466	4.662967	1.579856	0.000187
 163	1.6119e+01	6.4522	18.687901	0.000436	4.358860	1.476822	0.000174
 164	1.6218e+01	6.4891	18.809015	0.000304	3.041065	1.030341	0.000122
 165	1.6318e+01	6.5276	19.006835	0.000497	4.967074	1.682890	0.000199
 166	1.6418e+01	6.5677	19.188506	0.000456	4.561598	1.545511	0.000183
 167	1.6517e+01	6.6078	19.370177	0.000456	4.561598	1.545511	0.000183
 168	1.6616e+01	6.6544	19.511477	0.000355	3.547910	1.202064	0.000142
 169	1.6716e+01	6.6961	19.677000	0.000416	4.156123	1.408133	0.000166
 170	1.6816e+01	6.7330	19.850596	0.000436	4.358860	1.476822	0.000174
 171	1.6915e+01	6.7763	20.012082	0.000405	4.054754	1.373788	0.000162
 172	1.7015e+01	6.8196	20.161456	0.000375	3.750647	1.270754	0.000150
 173	1.7114e+01	6.8485	20.335053	0.000436	4.358860	1.476822	0.000174
 174	1.7213e+01	6.8838	20.508650	0.000436	4.358860	1.476822	0.000174
 175	1.7313e+01	6.9271	20.670135	0.000405	4.054754	1.373788	0.000162
 176	1.7413e+01	6.9736	20.831620	0.000405	4.054754	1.373788	0.000162
 177	1.7512e+01	7.0121	21.029440	0.000497	4.967074	1.682890	0.000199
 178	1.7611e+01	7.0442	21.166703	0.000345	3.446541	1.167720	0.000138
 179	1.7711e+01	7.0779	21.320114	0.000385	3.852016	1.305098	0.000154
 180	1.7811e+01	7.1340	21.517933	0.000497	4.967074	1.682890	0.000199
 181	1.7910e+01	7.1805	21.683456	0.000416	4.156123	1.408133	0.000166
 182	1.8009e+01	7.2126	21.853016	0.000426	4.257492	1.442477	0.000170
 183	1.8109e+01	7.2463	22.002390	0.000375	3.750647	1.270754	0.000150
 184	1.8209e+01	7.2896	22.163875	0.000405	4.054754	1.373788	0.000162
 185	1.8308e+01	7.3346	22.353621	0.000476	4.764336	1.614201	0.000191
 186	1.8407e+01	7.3731	22.494920	0.000355	3.547910	1.202064	0.000142
 187	1.8507e+01	7.4100	22.737148	0.000608	6.082131	2.060682	0.000243
 188	1.8607e+01	7.4485	22.854225	0.000294	2.939697	0.995996	0.000118
 189	1.8706e+01	7.4854	23.039934	0.000466	4.662967	1.579856	0.000187
 190	1.8805e+01	7.5239	23.177196	0.000345	3.446541	1.167720	0.000138
 191	1.8905e+01	7.5816	23.370979	0.000487	4.865705	1.648545	0.000195
 192	1.9005e+01	7.5976	23.548613	0.000446	4.460229	1.511167	0.000179
 193	1.9104e+01	7.6490	23.697987	0.000375	3.750647	1.270754	0.000150
 194	1.9203e+01	7.6827	23.863509	0.000416	4.156123	1.408133	0.000166
 195	1.9303e+01	7.7308	24.012883	0.000375	3.750647	1.270754	0.000150
 196	1.9402e+01	7.7629	24.198592	0.000466	4.662967	1.579856	0.000187
 197	1.9502e+01	7.8014	24.404486	0.000517	5.169811	1.751579	0.000207
 198	1.9602e+01	7.8479	24.578082	0.000436	4.358860	1.476822	0.000174
 199	1.9701e+01	7.8784	24.739568	0.000405	4.054754	1.373788	0.000162
 200	1.9800e+01	7.9233	24.897016	0.000395	3.953385	1.339443	0.000158
 201	1.9900e+01	7.9602	25.054464	0.000395	3.953385	1.339443	0.000158
 202	2.0000e+01	8.0131	25.219987	0.000416	4.156123	1.408133	0.000166
 203	2.0099e+01	8.0404	25.389547	0.000426	4.257492	1.442477	0.000170
 204	2.0198e+01	8.0885	25.530846	0.000355	3.547910	1.202064	0.000142
 205	2.0298e+01	8.1367	25.700406	0.000426	4.257492	1.442477	0.000170
 206	2.0398e+01	8.1639	25.886114	0.000466	4.662967	1.579856	0.000187
 207	2.0497e+01	8.2040	26.047600	0.000405	4.054754	1.373788	0.000162
 208	2.0596e+01	8.2409	26.205048	0.000395	3.953385	1.339443	0.000158
 209	2.0696e+01	8.2794	26.390756	0.000466	4.662967	1.579856	0.000187
 210	2.0796e+01	8.3260	26.536093	0.000365	3.649279	1.236409	0.000146
 211	2.0895e+01	8.3693	26.741987	0.000517	5.169811	1.751579	0.000207
 212	2.0994e+01	8.4046	26.871175	0.000324	3.243803	1.099030	0.000130
 213	2.1094e+01	8.4431	27.036698	0.000416	4.156123	1.408133	0.000166
 214	2.1194e+01	8.4880	27.202221	0.000416	4.156123	1.408133	0.000166
 215	2.1293e+01	8.5153	27.379855	0.000446	4.460229	1.511167	0.000179
 216	2.1392e+01	8.5666	27.533266	0.000385	3.852016	1.305098	0.000154
 217	2.1492e+01	8.6067	27.710900	0.000446	4.460229	1.511167	0.000179
 218	2.1591e+01	8.6516	27.872385	0.000405	4.054754	1.373788	0.000162
 219	2.1691e+01	8.6789	28.058093	0.000466	4.662967	1.579856	0.000187
 220	2.1791e+01	8.7302	28.211505	0.000385	3.852016	1.305098	0.000154
 221	2.1890e+01	8.7575	28.372990	0.000405	4.054754	1.373788	0.000162
 222	2.1989e+01	8.8088	28.566772	0.000487	4.865705	1.648545	0.000195
 223	2.2089e+01	8.8329	28.736332	0.000426	4.257492	1.442477	0.000170
 224	2.2189e+01	8.8858	28.889743	0.000385	3.852016	1.305098	0.000154
 225	2.2288e+01	8.9131	29.022969	0.000335	3.345172	1.133375	0.000134
 226	2.2387e+01	8.9612	29.236937	0.000537	5.372549	1.820269	0.000215
 227	2.2487e+01	8.9885	29.386311	0.000375	3.750647	1.270754	0.000150
 228	2.2587e+01	9.0479	29.543759	0.000395	3.953385	1.339443	0.000158
 229	2.2686e+01	9.0864	29.689096	0.000365	3.649279	1.236409	0.000146
 230	2.2785e+01	9.1153	29.886916	0.000497	4.967074	1.682890	0.000199
 231	2.2885e+01	9.1554	30.032253	0.000365	3.649279	1.236409	0.000146
 232	2.2985e+01	9.2003	30.213924	0.000456	4.561598	1.545511	0.000183
 233	2.3084e+01	9.2500	30.359261	0.000365	3.649279	1.236409	0.000146
 234	2.3183e+01	9.2821	30.544969	0.000466	4.662967	1.579856	0.000187
 235	2.3283e+01	9.3206	30.738752	0.000487	4.865705	1.648545	0.000195
 236	2.3383e+01	9.3607	30.863903	0.000314	3.142434	1.064686	0.000126
 237	2.3482e+01	9.4024	31.069797	0.000517	5.169811	1.751579	0.000207
 238	2.3581e+01	9.4393	31.219171	0.000375	3.750647	1.270754	0.000150
 239	2.3681e+01	9.4746	31.412953	0.000487	4.865705	1.648545	0.000195
 240	2.3780e+01	9.5147	31.554253	0.000355	3.547910	1.202064	0.000142
 241	2.3880e+01	9.5628	31.719775	0.000416	4.156123	1.408133	0.000166
 242	2.3980e+01	9.6094	31.881261	0.000405	4.054754	1.373788	0.000162
 243	2.4079e+01	9.6382	32.071006	0.000476	4.764336	1.614201	0.000191
 244	2.4178e+01	9.6799	32.268826	0.000497	4.967074	1.682890	0.000199
 245	2.4278e+01	9.7104	32.418200	0.000375	3.750647	1.270754	0.000150
 246	2.4378e+01	9.7505	32.559500	0.000355	3.547910	1.202064	0.000142
 247	2.4477e+01	9.8003	32.720985	0.000405	4.054754	1.373788	0.000162
 248	2.4576e+01	9.8372	32.910731	0.000476	4.764336	1.614201	0.000191
 249	2.4676e+01	9.8805	33.072216	0.000405	4.054754	1.373788	0.000162
 250	2.4776e+01	9.9045	33.193330	0.000304	3.041065	1.030341	0.000122
 251	2.4875e+01	9.9559	33.447670	0.000639	6.386237	2.163716	0.000256
 252	2.4974e+01	10.0008	33.552635	0.000264	2.635590	0.892962	0.000105
 253	2.5074e+01	10.0281	33.742380	0.000476	4.764336	1.614201	0.000191
 254	2.5174e+01	10.0874	33.899829	0.000395	3.953385	1.339443	0.000158
 255	2.5273e+01	10.1195	34.077463	0.000446	4.460229	1.511167	0.000179
 256	2.5372e+01	10.1596	34.259134	0.000456	4.561598	1.545511	0.000183
 257	2.5472e+01	10.2013	34.436768	0.000446	4.460229	1.511167	0.000179
 258	2.5572e+01	10.2398	34.590179	0.000385	3.852016	1.305098	0.000154
 259	2.5671e+01	10.2895	34.727442	0.000345	3.446541	1.167720	0.000138
 260	2.5770e+01	10.3168	34.933336	0.000517	5.169811	1.751579	0.000207
 261	2.5870e+01	10.3537	35.094821	0.000405	4.054754	1.373788	0.000162
 262	2.5970e+01	10.3970	35.248232	0.000385	3.852016	1.305098	0.000154
 263	2.6069e+01	10.4420	35.429903	0.000456	4.561598	1.545511	0.000183
 264	2.6169e+01	10.4740	35.571203	0.000355	3.547910	1.202064	0.000142
 265	2.6268e+01	10.5125	35.777097	0.000517	5.169811	1.751579	0.000207
 266	2.6367e+01	10.5559	35.922434	0.000365	3.649279	1.236409	0.000146
 267	2.6467e+01	10.5960	36.104105	0.000456	4.561598	1.545511	0.000183
 268	2.6567e+01	10.6425	36.285776	0.000456	4.561598	1.545511	0.000183
 269	2.6666e+01	10.6826	36.435150	0.000375	3.750647	1.270754	0.000150
 270	2.6765e+01	10.7243	36.616821	0.000456	4.561598	1.545511	0.000183
 271	2.6865e+01	10.7484	36.770232	0.000385	3.852016	1.305098	0.000154
 272	2.6965e+01	10.7901	36.980163	0.000527	5.271180	1.785924	0.000211
 273	2.7064e+01	10.8382	37.101277	0.000304	3.041065	1.030341	0.000122
 274	2.7163e+01	10.8751	37.258726	0.000395	3.953385	1.339443	0.000158
 275	2.7263e+01	10.9184	37.456545	0.000497	4.967074	1.682890	0.000199
 276	2.7363e+01	10.9553	37.658402	0.000507	5.068442	1.717235	0.000203
 277	2.7462e+01	10.9922	37.767405	0.000274	2.736959	0.927307	0.000110
 278	2.7561e+01	11.0387	37.932927	0.000416	4.156123	1.408133	0.000166
 279	2.7661e+01	11.0772	38.118636	0.000466	4.662967	1.579856	0.000187
 280	2.7761e+01	11.1093	38.255898	0.000345	3.446541	1.167720	0.000138
 281	2.7860e+01	11.1542	38.429495	0.000436	4.358860	1.476822	0.000174
 282	2.7959e+01	11.1879	38.611166	0.000456	4.561598	1.545511	0.000183
 283	2.8059e+01	11.2425	38.776689	0.000416	4.156123	1.408133	0.000166
 284	2.8159e+01	11.2874	38.909914	0.000335	3.345172	1.133375	0.000134
 285	2.8258e+01	11.3147	39.099660	0.000476	4.764336	1.614201	0.000191
 286	2.8358e+01	11.3499	39.232885	0.000335	3.345172	1.133375	0.000134
 287	2.8457e+01	11.3981	39.426668	0.000487	4.865705	1.648545	0.000195
 288	2.8556e+01	11.4350	39.588153	0.000405	4.054754	1.373788	0.000162
 289	2.8656e+01	11.4767	39.745601	0.000395	3.953385	1.339443	0.000158
 290	2.8756e+01	11.5104	39.903050	0.000395	3.953385	1.339443	0.000158
 291	2.8855e+01	11.5569	40.068572	0.000416	4.156123	1.408133	0.000166
 292	2.8954e+01	11.5874	40.238132	0.000426	4.257492	1.442477	0.000170
 293	2.9054e+01	11.6387	40.407692	0.000426	4.257492	1.442477	0.000170
 294	2.9154e+01	11.6692	40.597437	0.000476	4.764336	1.614201	0.000191
 295	2.9253e+01	11.7125	40.762960	0.000416	4.156123	1.408133	0.000166
 296	2.9352e+01	11.7510	40.900222	0.000345	3.446541	1.167720	0.000138
 297	2.9452e+01	11.7911	41.069782	0.000426	4.257492	1.442477	0.000170
 298	2.9552e+01	11.8328	41.279713	0.000527	5.271180	1.785924	0.000211
 299	2.9651e+01	11.8745	41.376604	0.000243	2.432852	0.824273	0.000097
 300	2.9750e+01	11.9146	41.586535	0.000527	5.271180	1.785924	0.000211
 301	2.9850e+01	11.9483	41.699575	0.000284	2.838328	0.961651	0.000114
 302	2.9950e+01	11.9932	41.933729	0.000588	5.879393	1.991992	0.000235
 303	3.0049e+01	12.0253	42.062917	0.000324	3.243803	1.099030	0.000130
 304	3.0148e+01	12.0783	42.216328	0.000385	3.852016	1.305098	0.000154
 305	3.0248e+01	12.1104	42.406074	0.000476	4.764336	1.614201	0.000191
 306	3.0348e+01	12.1473	42.559485	0.000385	3.852016	1.305098	0.000154
 307	3.0447e+01	12.1922	42.737119	0.000446	4.460229	1.511167	0.000179
 308	3.0547e+01	12.2467	42.906679	0.000426	4.257492	1.442477	0.000170
 309	3.0646e+01	12.2708	43.043941	0.000345	3.446541	1.167720	0.000138
 310	3.0745e+01	12.3109	43.217538	0.000436	4.358860	1.476822	0.000174
 311	3.0845e+01	12.3526	43.366912	0.000375	3.750647	1.270754	0.000150
 312	3.0945e+01	12.3879	43.524360	0.000395	3.953385	1.339443	0.000158
 313	3.1044e+01	12.4264	43.697957	0.000436	4.358860	1.476822	0.000174
 314	3.1143e+01	12.4681	43.863480	0.000416	4.156123	1.408133	0.000166
 315	3.1243e+01	12.5050	44.020928	0.000395	3.953385	1.339443	0.000158
 316	3.1343e+01	12.5595	44.190488	0.000426	4.257492	1.442477	0.000170
 317	3.1442e+01	12.5916	44.347936	0.000395	3.953385	1.339443	0.000158
 318	3.1541e+01	12.6317	44.525570	0.000446	4.460229	1.511167	0.000179
 319	3.1641e+01	12.6670	44.642647	0.000294	2.939697	0.995996	0.000118
 320	3.1741e+01	12.7087	44.844504	0.000507	5.068442	1.717235	0.000203
 321	3.1840e+01	12.7537	45.001952	0.000395	3.953385	1.339443	0.000158
 322	3.1939e+01	12.7857	45.159400	0.000395	3.953385	1.339443	0.000158
 323	3.2039e+01	12.8339	45.300700	0.000355	3.547910	1.202064	0.000142
 324	3.2139e+01	12.8659	45.462186	0.000405	4.054754	1.373788	0.000162
 325	3.2238e+01	12.9061	45.619634	0.000395	3.953385	1.339443	0.000158
 326	3.2337e+01	12.9526	45.785156	0.000416	4.156123	1.408133	0.000166
 327	3.2437e+01	12.9863	45.942605	0.000395	3.953385	1.339443	0.000158
 328	3.2536e+01	13.0183	46.108127	0.000416	4.156123	1.408133	0.000166
 329	3.2636e+01	13.0569	46.221167	0.000284	2.838328	0.961651	0.000114
 330	3.2736e+01	13.1050	46.406875	0.000466	4.662967	1.579856	0.000187
 331	3.2835e+01	13.1451	46.580472	0.000436	4.358860	1.476822	0.000174
 332	3.2934e+01	13.1820	46.733883	0.000385	3.852016	1.305098	0.000154
 333	3.3034e+01	13.2317	46.895369	0.000405	4.054754	1.373788	0.000162
 334	3.3133e+01	13.2638	47.089151	0.000487	4.865705	1.648545	0.000195
 335	3.3233e+01	13.3007	47.186043	0.000243	2.432852	0.824273	0.000097
 336	3.3333e+01	13.3408	47.387899	0.000507	5.068442	1.717235	0.000203
 337	3.3432e+01	13.3921	47.545348	0.000395	3.953385	1.339443	0.000158
 338	3.3532e+01	13.4242	47.727019	0.000456	4.561598	1.545511	0.000183
 339	3.3631e+01	13.4659	47.864281	0.000345	3.446541	1.167720	0.000138
 340	3.3730e+01	13.5092	48.058064	0.000487	4.865705	1.648545	0.000195
 341	3.3830e+01	13.5477	48.179178	0.000304	3.041065	1.030341	0.000122
 342	3.3929e+01	13.5846	48.320478	0.000355	3.547910	1.202064	0.000142
 343	3.4029e+01	13.6280	48.490037	0.000426	4.257492	1.442477	0.000170
 344	3.4129e+01	13.6649	48.647486	0.000395	3.953385	1.339443	0.000158
 345	3.4228e+01	13.7018	48.808971	0.000405	4.054754	1.373788	0.000162
 346	3.4328e+01	13.7435	48.958345	0.000375	3.750647	1.270754	0.000150
 347	3.4427e+01	13.7900	49.135979	0.000446	4.460229	1.511167	0.000179
 348	3.4526e+01	13.8237	49.281316	0.000365	3.649279	1.236409	0.000146
 349	3.4626e+01	13.8622	49.426653	0.000365	3.649279	1.236409	0.000146
 350	3.4725e+01	13.9167	49.580064	0.000385	3.852016	1.305098	0.000154
 351	3.4825e+01	13.9456	49.713289	0.000335	3.345172	1.133375	0.000134
 352	3.4925e+01	13.9729	49.915146	0.000507	5.068442	1.717235	0.000203
 353	3.5024e+01	14.0194	50.068557	0.000385	3.852016	1.305098	0.000154
 354	3.5123e+01	14.0547	50.201783	0.000335	3.345172	1.133375	0.000134
 355	3.5223e+01	14.0964	50.359231	0.000395	3.953385	1.339443	0.000158
 356	3.5322e+01	14.1381	50.548977	0.000476	4.764336	1.614201	0.000191
 357	3.5422e+01	14.1798	50.722573	0.000436	4.358860	1.476822	0.000174
 358	3.5522e+01	14.2263	50.803316	0.000203	2.027377	0.686894	0.000081
 359	3.5621e+01	14.2632	51.013247	0.000527	5.271180	1.785924	0.000211
 360	3.5721e+01	14.2985	51.170695	0.000395	3.953385	1.339443	0.000158
 361	3.5820e+01	14.3418	51.364478	0.000487	4.865705	1.648545	0.000195
 362	3.5919e+01	14.3803	51.477518	0.000284	2.838328	0.961651	0.000114
 363	3.6019e+01	14.4108	51.667263	0.000476	4.764336	1.614201	0.000191
 364	3.6118e+01	14.4557	51.788377	0.000304	3.041065	1.030341	0.000122
 365	3.6218e+01	14.4942	51.941788	0.000385	3.852016	1.305098	0.000154
 366	3.6318e+01	14.5456	52.119422	0.000446	4.460229	1.511167	0.000179
 367	3.6417e+01	14.5777	52.252648	0.000335	3.345172	1.133375	0.000134
 368	3.6517e+01	14.6178	52.422208	0.000426	4.257492	1.442477	0.000170
 369	3.6616e+01	14.6563	52.595804	0.000436	4.358860	1.476822	0.000174
 370	3.6715e+01	14.7044	52.769401	0.000436	4.358860	1.476822	0.000174
 371	3.6815e+01	14.7317	52.906664	0.000345	3.446541	1.167720	0.000138
 372	3.6914e+01	14.7846	53.039889	0.000335	3.345172	1.133375	0.000134
 373	3.7014e+01	14.8231	53.201375	0.000405	4.054754	1.373788	0.000162
 374	3.7114e+01	14.8552	53.383046	0.000456	4.561598	1.545511	0.000183
 375	3.7213e+01	14.9001	53.548568	0.000416	4.156123	1.408133	0.000166
 376	3.7313e+01	14.9386	53.710054	0.000405	4.054754	1.373788	0.000162
 377	3.7412e+01	14.9723	53.855391	0.000365	3.649279	1.236409	0.000146
 378	3.7511e+01	15.0124	54.012839	0.000395	3.953385	1.339443	0.000158
 379	3.7611e+01	15.0525	54.174324	0.000405	4.054754	1.373788	0.000162
 380	3.7711e+01	15.0926	54.311587	0.000345	3.446541	1.167720	0.000138
 381	3.7810e+01	15.1295	54.501332	0.000476	4.764336	1.614201	0.000191
 382	3.7910e+01	15.1825	54.642632	0.000355	3.547910	1.202064	0.000142
 383	3.8009e+01	15.2049	54.816229	0.000436	4.358860	1.476822	0.000174
 384	3.8108e+01	15.2595	54.953492	0.000345	3.446541	1.167720	0.000138
 385	3.8208e+01	15.2883	55.127089	0.000436	4.358860	1.476822	0.000174
 386	3.8307e+01	15.3333	55.244165	0.000294	2.939697	0.995996	0.000118
 387	3.8407e+01	15.3830	55.409688	0.000416	4.156123	1.408133	0.000166
 388	3.8507e+01	15.4135	55.595396	0.000466	4.662967	1.579856	0.000187
 389	3.8606e+01	15.4600	55.696325	0.000253	2.534221	0.858617	0.000101
 390	3.8706e+01	15.4953	55.873959	0.000446	4.460229	1.511167	0.000179
 391	3.8805e+01	15.5402	56.039481	0.000416	4.156123	1.408133	0.000166
 392	3.8904e+01	15.5755	56.209041	0.000426	4.257492	1.442477	0.000170
 393	3.9004e+01	15.6108	56.378601	0.000426	4.257492	1.442477	0.000170
 394	3.9103e+01	15.6525	56.548160	0.000426	4.257492	1.442477	0.000170
 395	3.9203e+01	15.6926	56.693497	0.000365	3.649279	1.236409	0.000146
 396	3.9303e+01	15.7327	56.871131	0.000446	4.460229	1.511167	0.000179
 397	3.9402e+01	15.7664	57.016468	0.000365	3.649279	1.236409	0.000146
 398	3.9502e+01	15.8097	57.165842	0.000375	3.750647	1.270754	0.000150
 399	3.9601e+01	15.8482	57.347513	0.000456	4.561598	1.545511	0.000183
 400	3.9700e+01	15.8979	57.513036	0.000416	4.156123	1.408133	0.000166
 401	3.9800e+01	15.9429	57.646261	0.000335	3.345172	1.133375	0.000134
 402	3.9900e+01	15.9701	57.791598	0.000365	3.649279	1.236409	0.000146
 403	3.9999e+01	16.0102	57.965195	0.000436	4.358860	1.476822	0.000174
 404	4.0099e+01	16.0568	58.098420	0.000335	3.345172	1.133375	0.000134
 405	4.0198e+01	16.1001	58.267980	0.000426	4.257492	1.442477	0.000170
 406	4.0297e+01	16.1241	58.449651	0.000456	4.561598	1.545511	0.000183
 407	4.0397e+01	16.1803	58.607100	0.000395	3.953385	1.339443	0.000158
 408	4.0496e+01	16.2156	58.744362	0.000345	3.446541	1.167720	0.000138
 409	4.0596e+01	16.2509	58.901810	0.000395	3.953385	1.339443	0.000158
 410	4.0696e+01	16.2910	59.071370	0.000426	4.257492	1.442477	0.000170
 411	4.0795e+01	16.3279	59.220744	0.000375	3.750647	1.270754	0.000150
 412	4.0895e+01	16.3680	59.414527	0.000487	4.865705	1.648545	0.000195
 413	4.0994e+01	16.4049	59.555826	0.000355	3.547910	1.202064	0.000142
 414	4.1093e+01	16.4498	59.717312	0.000405	4.054754	1.373788	0.000162
 415	4.1193e+01	16.4883	59.838426	0.000304	3.041065	1.030341	0.000122
 416	4.1292e+01	16.5332	60.024134	0.000466	4.662967	1.579856	0.000187
 417	4.1392e+01	16.5717	60.209842	0.000466	4.662967	1.579856	0.000187
 418	4.1492e+01	16.6134	60.347105	0.000345	3.446541	1.167720	0.000138
 419	4.1591e+01	16.6535	60.500516	0.000385	3.852016	1.305098	0.000154
 420	4.1691e+01	16.6872	60.678150	0.000446	4.460229	1.511167	0.000179
 421	4.1790e+01	16.7273	60.819450	0.000355	3.547910	1.202064	0.000142
 422	4.1889e+01	16.7739	60.972861	0.000385	3.852016	1.305098	0.000154
 423	4.1989e+01	16.8124	61.154532	0.000456	4.561598	1.545511	0.000183
 424	4.2089e+01	16.8460	61.328129	0.000436	4.358860	1.476822	0.000174
 425	4.2188e+01	16.8878	61.473466	0.000365	3.649279	1.236409	0.000146
 426	4.2288e+01	16.9295	61.634951	0.000405	4.054754	1.373788	0.000162
 427	4.2387e+01	16.9696	61.772214	0.000345	3.446541	1.167720	0.000138
 428	4.2486e+01	17.0145	61.933699	0.000405	4.054754	1.373788	0.000162
 429	4.2586e+01	17.0450	62.091148	0.000395	3.953385	1.339443	0.000158
 430	4.2685e+01	17.0915	62.248596	0.000395	3.953385	1.339443	0.000158
 431	4.2785e+01	17.1284	62.426230	0.000446	4.460229	1.511167	0.000179
 432	4.2885e+01	17.1749	62.607901	0.000456	4.561598	1.545511	0.000183
 433	4.2984e+01	17.2134	62.745164	0.000345	3.446541	1.167720	0.000138
 434	4.3084e+01	17.2487	62.902612	0.000395	3.953385	1.339443	0.000158
 435	4.3183e+01	17.2888	63.080246	0.000446	4.460229	1.511167	0.000179
 436	4.3282e+01	17.3177	63.233657	0.000385	3.852016	1.305098	0.000154
 437	4.3382e+01	17.3706	63.370920	0.000345	3.446541	1.167720	0.000138
 438	4.3481e+01	17.4043	63.532405	0.000405	4.054754	1.373788	0.000162
 439	4.3581e+01	17.4460	63.689853	0.000395	3.953385	1.339443	0.000158
 440	4.3681e+01	17.4958	63.895747	0.000517	5.169811	1.751579	0.000207
 441	4.3780e+01	17.5295	64.016861	0.000304	3.041065	1.030341	0.000122
 442	4.3880e+01	17.5696	64.174310	0.000395	3.953385	1.339443	0.000158
 443	4.3979e+01	17.6097	64.327721	0.000385	3.852016	1.305098	0.000154
 444	4.4078e+01	17.6417	64.489206	0.000405	4.054754	1.373788	0.000162
 445	4.4178e+01	17.6883	64.662803	0.000436	4.358860	1.476822	0.000174
 446	4.4278e+01	17.7220	64.828326	0.000416	4.156123	1.408133	0.000166
 447	4.4377e+01	17.7589	64.997885	0.000426	4.257492	1.442477	0.000170
 448	4.4477e+01	17.8054	65.118999	0.000304	3.041065	1.030341	0.000122
 449	4.4576e+01	17.8471	65.288559	0.000426	4.257492	1.442477	0.000170
 450	4.4675e+01	17.8872	65.421785	0.000335	3.345172	1.133375	0.000134
 451	4.4775e+01	17.9273	65.615567	0.000487	4.865705	1.648545	0.000195
 452	4.4874e+01	17.9562	65.748793	0.000335	3.345172	1.133375	0.000134
 453	4.4974e+01	18.0091	65.918352	0.000426	4.257492	1.442477	0.000170
 454	4.5074e+01	18.0412	66.083875	0.000416	4.156123	1.408133	0.000166
 455	4.5173e+01	18.0797	66.229212	0.000365	3.649279	1.236409	0.000146
 456	4.5273e+01	18.1262	66.370512	0.000355	3.547910	1.202064	0.000142
 457	4.5372e+01	18.1663	66.576405	0.000517	5.169811	1.751579	0.000207
 458	4.5471e+01	18.2032	66.709631	0.000335	3.345172	1.133375	0.000134
 459	4.5571e+01	18.2433	66.891302	0.000456	4.561598	1.545511	0.000183
 460	4.5670e+01	18.2850	67.040676	0.000375	3.750647	1.270754	0.000150
 461	4.5770e+01	18.3252	67.222347	0.000456	4.561598	1.545511	0.000183
 462	4.5870e+01	18.3492	67.371721	0.000375	3.750647	1.270754	0.000150
 463	4.5969e+01	18.4054	67.521095	0.000375	3.750647	1.270754	0.000150
 464	4.6069e+01	18.4487	67.670469	0.000375	3.750647	1.270754	0.000150
 465	4.6168e+01	18.4840	67.868289	0.000497	4.967074	1.682890	0.000199
 466	4.6267e+01	18.5257	67.977292	0.000274	2.736959	0.927307	0.000110
 467	4.6367e+01	18.5706	68.183185	0.000517	5.169811	1.751579	0.000207
 468	4.6467e+01	18.6059	68.328522	0.000365	3.649279	1.236409	0.000146
 469	4.6566e+01	18.6412	68.494045	0.000416	4.156123	1.408133	0.000166
 470	4.6666e+01	18.6861	68.639382	0.000365	3.649279	1.236409	0.000146
 471	4.6765e+01	18.7150	68.800867	0.000405	4.054754	1.373788	0.000162
 472	4.6864e+01	18.7615	68.934093	0.000335	3.345172	1.133375	0.000134
 473	4.6964e+01	18.8048	69.107690	0.000436	4.358860	1.476822	0.000174
 474	4.7063e+01	18.8449	69.248989	0.000355	3.547910	1.202064	0.000142
 475	4.7163e+01	18.8770	69.418549	0.000426	4.257492	1.442477	0.000170
 476	4.7263e+01	18.9187	69.612332	0.000487	4.865705	1.648545	0.000195
 477	4.7362e+01	18.9684	69.741520	0.000324	3.243803	1.099030	0.000130
 478	4.7462e+01	19.0086	69.854560	0.000284	2.838328	0.961651	0.000114
 479	4.7561e+01	19.0326	70.056416	0.000507	5.068442	1.717235	0.000203
 480	4.7660e+01	19.0888	70.217902	0.000405	4.054754	1.373788	0.000162
 481	4.7760e+01	19.1128	70.359202	0.000355	3.547910	1.202064	0.000142
 482	4.7859e+01	19.1610	70.524724	0.000416	4.156123	1.408133	0.000166
 483	4.7959e+01	19.2027	70.661987	0.000345	3.446541	1.167720	0.000138
 484	4.8059e+01	19.2380	70.884029	0.000558	5.575287	1.888958	0.000223
 485	4.8158e+01	19.2829	70.993032	0.000274	2.736959	0.927307	0.000110
 486	4.8258e+01	19.3294	71.118183	0.000314	3.142434	1.064686	0.000126
 487	4.8357e+01	19.3551	71.303891	0.000466	4.662967	1.579856	0.000187
 488	4.8456e+01	19.3952	71.416931	0.000284	2.838328	0.961651	0.000114
 489	4.8556e+01	19.4337	71.638974	0.000558	5.575287	1.888958	0.000223
 490	4.8656e+01	19.4818	71.747976	0.000274	2.736959	0.927307	0.000110
 491	4.8755e+01	19.5299	71.941759	0.000487	4.865705	1.648545	0.000195
 492	4.8855e+01	19.5508	72.070947	0.000324	3.243803	1.099030	0.000130
 493	4.8954e+01	19.5941	72.244544	0.000436	4.358860	1.476822	0.000174
 494	4.9053e+01	19.6374	72.410067	0.000416	4.156123	1.408133	0.000166
 495	4.9153e+01	19.6727	72.555403	0.000365	3.649279	1.236409	0.000146
 496	4.9252e+01	19.7176	72.704778	0.000375	3.750647	1.270754	0.000150
 497	4.9352e+01	19.7577	72.874337	0.000426	4.257492	1.442477	0.000170
 498	4.9452e+01	19.7962	73.015637	0.000355	3.547910	1.202064	0.000142
 499	4.9551e+01	19.8363	73.177122	0.000405	4.054754	1.373788	0.000162
 500	4.9651e+01	19.8732	73.378979	0.000507	5.068442	1.717235	0.000203
 501	4.9750e+01	19.9182	73.496056	0.000294	2.939697	0.995996	0.000118
 502	4.9849e+01	19.9502	73.649467	0.000385	3.852016	1.305098	0.000154
 503	4.9949e+01	20.0000	73.839213	0.000476	4.764336	1.614201	0.000191
 504	5.0048e+01	19.9567	73.722136	0.000294	2.939697	0.995996	-0.000118
 505	5.0148e+01	19.9230	73.605059	0.000294	2.939697	0.995996	-0.000118
 506	5.0248e+01	19.8813	73.524316	0.000203	2.027377	0.686894	-0.000081
 507	5.0347e+01	19.8444	73.435499	0.000223	2.230115	0.755583	-0.000089
 508	5.0447e+01	19.7978	73.334571	0.000253	2.534221	0.858617	-0.000101
 509	5.0546e+01	19.7593	73.221531	0.000284	2.838328	0.961651	-0.000114
 510	5.0645e+01	19.7192	73.120602	0.000253	2.534221	0.858617	-0.000101
 511	5.0745e+01	19.6775	73.003526	0.000294	2.939697	0.995996	-0.000118
 512	5.0844e+01	19.6358	72.918746	0.000213	2.128746	0.721239	-0.000085
 513	5.0944e+01	19.5989	72.797632	0.000304	3.041065	1.030341	-0.000122
 514	5.1044e+01	19.5524	72.712852	0.000213	2.128746	0.721239	-0.000085
 515	5.1143e+01	19.5203	72.579626	0.000335	3.345172	1.133375	-0.000134
 516	5.1242e+01	19.4802	72.462549	0.000294	2.939697	0.995996	-0.000118
 517	5.1342e+01	19.4369	72.401992	0.000152	1.520533	0.515170	-0.000061
 518	5.1441e+01	19.4048	72.260693	0.000355	3.547910	1.202064	-0.000142
 519	5.1541e+01	19.3695	72.139579	0.000304	3.041065	1.030341	-0.000122
 520	5.1641e+01	19.3278	72.034613	0.000264	2.635590	0.892962	-0.000105
 521	5.1740e+01	19.2829	71.905425	0.000324	3.243803	1.099030	-0.000130
 522	5.1840e+01	19.2476	71.776236	0.000324	3.243803	1.099030	-0.000130
 523	5.1939e+01	19.2011	71.715679	0.000152	1.520533	0.515170	-0.000061
 524	5.2038e+01	19.1658	71.598602	0.000294	2.939697	0.995996	-0.000118
 525	5.2138e+01	19.1209	71.481525	0.000294	2.939697	0.995996	-0.000118
 526	5.2237e+01	19.0775	71.348300	0.000335	3.345172	1.133375	-0.000134
 527	5.2337e+01	19.0326	71.223149	0.000314	3.142434	1.064686	-0.000126
 528	5.2437e+01	18.9925	71.114146	0.000274	2.736959	0.927307	-0.000110
 529	5.2536e+01	18.9588	71.001106	0.000284	2.838328	0.961651	-0.000114
 530	5.2636e+01	18.9235	70.900178	0.000253	2.534221	0.858617	-0.000101
 531	5.2735e+01	18.8786	70.779064	0.000304	3.041065	1.030341	-0.000122
 532	5.2834e+01	18.8385	70.633727	0.000365	3.649279	1.236409	-0.000146
 533	5.2934e+01	18.8064	70.552984	0.000203	2.027377	0.686894	-0.000081
 534	5.3033e+01	18.7679	70.456093	0.000243	2.432852	0.824273	-0.000097
 535	5.3133e+01	18.7182	70.314793	0.000355	3.547910	1.202064	-0.000142
 536	5.3233e+01	18.6861	70.205790	0.000274	2.736959	0.927307	-0.000110
 537	5.3332e+01	18.6412	70.084676	0.000304	3.041065	1.030341	-0.000122
 538	5.3431e+01	18.6139	69.995859	0.000223	2.230115	0.755583	-0.000089
 539	5.3531e+01	18.5722	69.830337	0.000416	4.156123	1.408133	-0.000166
 540	5.3630e+01	18.5209	69.705186	0.000314	3.142434	1.064686	-0.000126
 541	5.3730e+01	18.4840	69.604257	0.000253	2.534221	0.858617	-0.000101
 542	5.3830e+01	18.4487	69.503329	0.000253	2.534221	0.858617	-0.000101
 543	5.3929e+01	18.4006	69.386252	0.000294	2.939697	0.995996	-0.000118
 544	5.4029e+01	18.3540	69.196507	0.000476	4.764336	1.614201	-0.000191
 545	5.4128e+01	18.3219	69.107690	0.000223	2.230115	0.755583	-0.000089
 546	5.4227e+01	18.2850	68.966390	0.000355	3.547910	1.202064	-0.000142
 547	5.4327e+01	18.2385	68.877573	0.000223	2.230115	0.755583	-0.000089
 548	5.4426e+01	18.2032	68.772607	0.000264	2.635590	0.892962	-0.000105
 549	5.4526e+01	18.1631	68.627270	0.000365	3.649279	1.236409	-0.000146
 550	5.4626e+01	18.1214	68.481934	0.000365	3.649279	1.236409	-0.000146
 551	5.4725e+01	18.0829	68.360819	0.000304	3.041065	1.030341	-0.000122
 552	5.4825e+01	18.0412	68.235668	0.000314	3.142434	1.064686	-0.000126
 553	5.4924e+01	17.9963	68.118591	0.000294	2.939697	0.995996	-0.000118
 554	5.5023e+01	17.9594	68.041886	0.000193	1.926008	0.652549	-0.000077
 555	5.5123e+01	17.9273	67.864252	0.000446	4.460229	1.511167	-0.000179
 556	5.5222e+01	17.8856	67.751212	0.000284	2.838328	0.961651	-0.000114
 557	5.5322e+01	17.8455	67.638172	0.000284	2.838328	0.961651	-0.000114
 558	5.5422e+01	17.8118	67.517058	0.000304	3.041065	1.030341	-0.000122
 559	5.5521e+01	17.7701	67.408055	0.000274	2.736959	0.927307	-0.000110
 560	5.5620e+01	17.7236	67.270793	0.000345	3.446541	1.167720	-0.000138
 561	5.5720e+01	17.6835	67.145642	0.000314	3.142434	1.064686	-0.000126
 562	5.5819e+01	17.6434	67.060862	0.000213	2.128746	0.721239	-0.000085
 563	5.5919e+01	17.6081	66.907451	0.000385	3.852016	1.305098	-0.000154
 564	5.6019e+01	17.5680	66.798448	0.000274	2.736959	0.927307	-0.000110
 565	5.6118e+01	17.5246	66.641000	0.000395	3.953385	1.339443	-0.000158
 566	5.6218e+01	17.4910	66.556220	0.000213	2.128746	0.721239	-0.000085
 567	5.6317e+01	17.4524	66.374549	0.000456	4.561598	1.545511	-0.000183
 568	5.6416e+01	17.3995	66.269583	0.000264	2.635590	0.892962	-0.000105
 569	5.6516e+01	17.3658	66.136358	0.000335	3.345172	1.133375	-0.000134
 570	5.6615e+01	17.3257	66.007169	0.000324	3.243803	1.099030	-0.000130
 571	5.6715e+01	17.2888	65.865870	0.000355	3.547910	1.202064	-0.000142
 572	5.6815e+01	17.2455	65.785127	0.000203	2.027377	0.686894	-0.000081
 573	5.6914e+01	17.2022	65.631716	0.000385	3.852016	1.305098	-0.000154
 574	5.7014e+01	17.1669	65.514639	0.000294	2.939697	0.995996	-0.000118
 575	5.7113e+01	17.1252	65.409673	0.000264	2.635590	0.892962	-0.000105
 576	5.7212e+01	17.0947	65.272411	0.000345	3.446541	1.167720	-0.000138
 577	5.7312e+01	17.0434	65.179556	0.000233	2.331483	0.789928	-0.000093
 578	5.7411e+01	17.0081	65.018071	0.000405	4.054754	1.373788	-0.000162
 579	5.7511e+01	16.9728	64.860623	0.000395	3.953385	1.339443	-0.000158
 580	5.7611e+01	16.9279	64.771806	0.000223	2.230115	0.755583	-0.000089
 581	5.7710e+01	16.8926	64.614357	0.000395	3.953385	1.339443	-0.000158
 582	5.7809e+01	16.8428	64.517466	0.000243	2.432852	0.824273	-0.000097
 583	5.7909e+01	16.8108	64.388278	0.000324	3.243803	1.099030	-0.000130
 584	5.8008e+01	16.7674	64.251015	0.000345	3.446541	1.167720	-0.000138
 585	5.8108e+01	16.7289	64.101641	0.000375	3.750647	1.270754	-0.000150
 586	5.8208e+01	16.6840	64.024936	0.000193	1.926008	0.652549	-0.000077
 587	5.8307e+01	16.6519	63.875562	0.000375	3.750647	1.270754	-0.000150
 588	5.8407e+01	16.6263	63.774633	0.000253	2.534221	0.858617	-0.000101
 589	5.8506e+01	16.5605	63.617185	0.000395	3.953385	1.339443	-0.000158
 590	5.8605e+01	16.5332	63.504145	0.000284	2.838328	0.961651	-0.000114
 591	5.8705e+01	16.4707	63.387068	0.000294	2.939697	0.995996	-0.000118
 592	5.8804e+01	16.4658	63.233657	0.000385	3.852016	1.305098	-0.000154
 593	5.8904e+01	16.4097	63.124654	0.000274	2.736959	0.927307	-0.000110
 594	5.9004e+01	16.3760	63.023726	0.000253	2.534221	0.858617	-0.000101
 595	5.9103e+01	16.3279	62.890501	0.000335	3.345172	1.133375	-0.000134
 596	5.9203e+01	16.2878	62.769386	0.000304	3.041065	1.030341	-0.000122
 597	5.9302e+01	16.2493	62.595790	0.000436	4.358860	1.476822	-0.000174
 598	5.9401e+01	16.2124	62.478713	0.000294	2.939697	0.995996	-0.000118
 599	5.9501e+01	16.1707	62.357599	0.000304	3.041065	1.030341	-0.000122
 600	5.9600e+01	16.1306	62.200150	0.000395	3.953385	1.339443	-0.000158
 601	5.9700e+01	16.0824	62.119408	0.000203	2.027377	0.686894	-0.000081
 602	5.9800e+01	16.0487	61.998294	0.000304	3.041065	1.030341	-0.000122
 603	5.9899e+01	16.0151	61.836808	0.000405	4.054754	1.373788	-0.000162
 604	5.9998e+01	15.9701	61.703583	0.000335	3.345172	1.133375	-0.000134
 605	6.0098e+01	15.9316	61.598617	0.000264	2.635590	0.892962	-0.000105
 606	6.0197e+01	15.8963	61.465392	0.000335	3.345172	1.133375	-0.000134
 607	6.0297e+01	15.8498	61.352352	0.000284	2.838328	0.961651	-0.000114
 608	6.0397e+01	15.8097	61.211052	0.000355	3.547910	1.202064	-0.000142
 609	6.0496e+01	15.7744	61.061678	0.000375	3.750647	1.270754	-0.000150
 610	6.0596e+01	15.7295	60.964787	0.000243	2.432852	0.824273	-0.000097
 611	6.0695e+01	15.6894	60.823487	0.000355	3.547910	1.202064	-0.000142
 612	6.0794e+01	15.6734	60.714484	0.000274	2.736959	0.927307	-0.000110
 613	6.0894e+01	15.6060	60.544925	0.000426	4.257492	1.442477	-0.000170
 614	6.0993e+01	15.5739	60.411699	0.000335	3.345172	1.133375	-0.000134
 615	6.1093e+01	15.5338	60.258288	0.000385	3.852016	1.305098	-0.000154
 616	6.1193e+01	15.4985	60.161397	0.000243	2.432852	0.824273	-0.000097
 617	6.1292e+01	15.4504	60.007986	0.000385	3.852016	1.305098	-0.000154
 618	6.1392e+01	15.4199	59.907057	0.000253	2.534221	0.858617	-0.000101
 619	6.1491e+01	15.3798	59.765757	0.000355	3.547910	1.202064	-0.000142
 620	6.1590e+01	15.3317	59.616383	0.000375	3.750647	1.270754	-0.000150
 621	6.1690e+01	15.2948	59.462972	0.000385	3.852016	1.305098	-0.000154
 622	6.1789e+01	15.2595	59.337821	0.000314	3.142434	1.064686	-0.000126
 623	6.1889e+01	15.2145	59.200558	0.000345	3.446541	1.167720	-0.000138
 624	6.1989e+01	15.1696	59.083482	0.000294	2.939697	0.995996	-0.000118
 625	6.2088e+01	15.1327	58.978516	0.000264	2.635590	0.892962	-0.000105
 626	6.2188e+01	15.0958	58.833179	0.000365	3.649279	1.236409	-0.000146
 627	6.2287e+01	15.0557	58.687842	0.000365	3.649279	1.236409	-0.000146
 628	6.2386e+01	15.0220	58.566728	0.000304	3.041065	1.030341	-0.000122
 629	6.2486e+01	14.9675	58.401206	0.000416	4.156123	1.408133	-0.000166
 630	6.2586e+01	14.9306	58.316426	0.000213	2.128746	0.721239	-0.000085
 631	6.2685e+01	14.9081	58.146866	0.000426	4.257492	1.442477	-0.000170
 632	6.2785e+01	14.8616	57.997492	0.000375	3.750647	1.270754	-0.000150
 633	6.2884e+01	14.8199	57.916749	0.000203	2.027377	0.686894	-0.000081
 634	6.2983e+01	14.7766	57.759301	0.000395	3.953385	1.339443	-0.000158
 635	6.3083e+01	14.7317	57.597816	0.000405	4.054754	1.373788	-0.000162
 636	6.3182e+01	14.6916	57.508999	0.000223	2.230115	0.755583	-0.000089
 637	6.3282e+01	14.6611	57.351550	0.000395	3.953385	1.339443	-0.000158
 638	6.3382e+01	14.6274	57.210251	0.000355	3.547910	1.202064	-0.000142
 639	6.3481e+01	14.5680	57.072988	0.000345	3.446541	1.167720	-0.000138
 640	6.3581e+01	14.5376	56.984171	0.000223	2.230115	0.755583	-0.000089
 641	6.3680e+01	14.4926	56.867094	0.000294	2.939697	0.995996	-0.000118
 642	6.3779e+01	14.4541	56.677349	0.000476	4.764336	1.614201	-0.000191
 643	6.3879e+01	14.4237	56.515863	0.000405	4.054754	1.373788	-0.000162
 644	6.3978e+01	14.3836	56.418972	0.000243	2.432852	0.824273	-0.000097
 645	6.4078e+01	14.3450	56.269598	0.000375	3.750647	1.270754	-0.000150
 646	6.4177e+01	14.3049	56.140410	0.000324	3.243803	1.099030	-0.000130
 647	6.4277e+01	14.2552	55.970850	0.000426	4.257492	1.442477	-0.000170
 648	6.4376e+01	14.2199	55.845699	0.000314	3.142434	1.064686	-0.000126
 649	6.4476e+01	14.1862	55.704399	0.000355	3.547910	1.202064	-0.000142
 650	6.4576e+01	14.1349	55.559062	0.000365	3.649279	1.236409	-0.000146
 651	6.4675e+01	14.1044	55.413725	0.000365	3.649279	1.236409	-0.000146
 652	6.4775e+01	14.0595	55.304722	0.000274	2.736959	0.927307	-0.000110
 653	6.4874e+01	14.0258	55.159386	0.000365	3.649279	1.236409	-0.000146
 654	6.4974e+01	13.9761	55.030197	0.000324	3.243803	1.099030	-0.000130
 655	6.5073e+01	13.9408	54.844489	0.000466	4.662967	1.579856	-0.000187
 656	6.5172e+01	13.9007	54.723375	0.000304	3.041065	1.030341	-0.000122
 657	6.5272e+01	13.8622	54.586112	0.000345	3.446541	1.167720	-0.000138
 658	6.5371e+01	13.8173	54.440775	0.000365	3.649279	1.236409	-0.000146
 659	6.5471e+01	13.7772	54.331773	0.000274	2.736959	0.927307	-0.000110
 660	6.5570e+01	13.7370	54.178362	0.000385	3.852016	1.305098	-0.000154
 661	6.5670e+01	13.6969	54.008802	0.000426	4.257492	1.442477	-0.000170
 662	6.5769e+01	13.6584	53.899799	0.000274	2.736959	0.927307	-0.000110
 663	6.5869e+01	13.6199	53.742351	0.000395	3.953385	1.339443	-0.000158
 664	6.5969e+01	13.5782	53.613163	0.000324	3.243803	1.099030	-0.000130
 665	6.6068e+01	13.5461	53.467826	0.000365	3.649279	1.236409	-0.000146
 666	6.6168e+01	13.5044	53.346712	0.000304	3.041065	1.030341	-0.000122
 667	6.6267e+01	13.4707	53.193300	0.000385	3.852016	1.305098	-0.000154
 668	6.6367e+01	13.4274	53.031815	0.000405	4.054754	1.373788	-0.000162
 669	6.6466e+01	13.3761	52.930887	0.000253	2.534221	0.858617	-0.000101
 670	6.6566e+01	13.3392	52.753253	0.000446	4.460229	1.511167	-0.000179
 671	6.6665e+01	13.2991	52.603879	0.000375	3.750647	1.270754	-0.000150
 672	6.6764e+01	13.2670	52.450468	0.000385	3.852016	1.305098	-0.000154
 673	6.6864e+01	13.2221	52.329353	0.000304	3.041065	1.030341	-0.000122
 674	6.6963e+01	13.1820	52.184017	0.000365	3.649279	1.236409	-0.000146
 675	6.7063e+01	13.1451	52.050791	0.000335	3.345172	1.133375	-0.000134
 676	6.7162e+01	13.1034	51.869120	0.000456	4.561598	1.545511	-0.000183
 677	6.7262e+01	13.0601	51.739932	0.000324	3.243803	1.099030	-0.000130
 678	6.7362e+01	13.0296	51.590558	0.000375	3.750647	1.270754	-0.000150
 679	6.7461e+01	12.9766	51.461369	0.000324	3.243803	1.099030	-0.000130
 680	6.7561e+01	12.9430	51.299884	0.000405	4.054754	1.373788	-0.000162
 681	6.7660e+01	12.9109	51.186844	0.000284	2.838328	0.961651	-0.000114
 682	6.7760e+01	12.8692	51.017284	0.000426	4.257492	1.442477	-0.000170
 683	6.7859e+01	12.8226	50.880022	0.000345	3.446541	1.167720	-0.000138
 684	6.7959e+01	12.7889	50.726611	0.000385	3.852016	1.305098	-0.000154
 685	6.8058e+01	12.7504	50.585311	0.000355	3.547910	1.202064	-0.000142
 686	6.8157e+01	12.7071	50.460160	0.000314	3.142434	1.064686	-0.000126
 687	6.8257e+01	12.6654	50.306748	0.000385	3.852016	1.305098	-0.000154
 688	6.8356e+01	12.6333	50.133152	0.000436	4.358860	1.476822	-0.000174
 689	6.8456e+01	12.5852	49.999926	0.000335	3.345172	1.133375	-0.000134
 690	6.8555e+01	12.5644	49.898998	0.000253	2.534221	0.858617	-0.000101
 691	6.8655e+01	12.5146	49.685030	0.000537	5.372549	1.820269	-0.000215
 692	6.8754e+01	12.4617	49.555841	0.000324	3.243803	1.099030	-0.000130
 693	6.8854e+01	12.4216	49.450876	0.000264	2.635590	0.892962	-0.000105
 694	6.8954e+01	12.3895	49.253056	0.000497	4.967074	1.682890	-0.000199
 695	6.9053e+01	12.3462	49.115793	0.000345	3.446541	1.167720	-0.000138
 696	6.9153e+01	12.3109	48.962382	0.000385	3.852016	1.305098	-0.000154
 697	6.9252e+01	12.2724	48.877602	0.000213	2.128746	0.721239	-0.000085
 698	6.9352e+01	12.2291	48.704006	0.000436	4.358860	1.476822	-0.000174
 699	6.9451e+01	12.1922	48.558669	0.000365	3.649279	1.236409	-0.000146
 700	6.9550e+01	12.1537	48.409295	0.000375	3.750647	1.270754	-0.000150
 701	6.9650e+01	12.1039	48.255883	0.000385	3.852016	1.305098	-0.000154
 702	6.9749e+01	12.0751	48.122658	0.000335	3.345172	1.133375	-0.000134
 703	6.9849e+01	12.0285	47.949061	0.000436	4.358860	1.476822	-0.000174
 704	6.9948e+01	11.9884	47.823910	0.000314	3.142434	1.064686	-0.000126
 705	7.0048e+01	11.9499	47.662425	0.000405	4.054754	1.373788	-0.000162
 706	7.0147e+01	11.9130	47.533236	0.000324	3.243803	1.099030	-0.000130
 707	7.0247e+01	11.8745	47.363676	0.000426	4.257492	1.442477	-0.000170
 708	7.0347e+01	11.8312	47.230451	0.000335	3.345172	1.133375	-0.000134
 709	7.0446e+01	11.7895	47.060891	0.000426	4.257492	1.442477	-0.000170
 710	7.0546e+01	11.7462	46.943814	0.000294	2.939697	0.995996	-0.000118
 711	7.0645e+01	11.7141	46.774255	0.000426	4.257492	1.442477	-0.000170
 712	7.0745e+01	11.6756	46.673326	0.000253	2.534221	0.858617	-0.000101
 713	7.0844e+01	11.6275	46.475507	0.000497	4.967074	1.682890	-0.000199
 714	7.0944e+01	11.5970	46.382652	0.000233	2.331483	0.789928	-0.000093
 715	7.1043e+01	11.5569	46.200981	0.000456	4.561598	1.545511	-0.000183
 716	7.1142e+01	11.5072	46.039496	0.000405	4.054754	1.373788	-0.000162
 717	7.1242e+01	11.4719	45.882048	0.000395	3.953385	1.339443	-0.000158
 718	7.1341e+01	11.4286	45.752859	0.000324	3.243803	1.099030	-0.000130
 719	7.1441e+01	11.4045	45.587337	0.000416	4.156123	1.408133	-0.000166
 720	7.1540e+01	11.3596	45.429888	0.000395	3.953385	1.339443	-0.000158
 721	7.1640e+01	11.3130	45.268403	0.000405	4.054754	1.373788	-0.000162
 722	7.1740e+01	11.2697	45.171512	0.000243	2.432852	0.824273	-0.000097
 723	7.1839e+01	11.2344	44.957544	0.000537	5.372549	1.820269	-0.000215
 724	7.1939e+01	11.1943	44.844504	0.000284	2.838328	0.961651	-0.000114
 725	7.2038e+01	11.1494	44.699167	0.000365	3.649279	1.236409	-0.000146
 726	7.2138e+01	11.1157	44.533644	0.000416	4.156123	1.408133	-0.000166
 727	7.2237e+01	11.0676	44.384270	0.000375	3.750647	1.270754	-0.000150
 728	7.2337e+01	11.0387	44.267193	0.000294	2.939697	0.995996	-0.000118
 729	7.2436e+01	10.9954	44.101671	0.000416	4.156123	1.408133	-0.000166
 730	7.2535e+01	10.9473	43.936148	0.000416	4.156123	1.408133	-0.000166
 731	7.2635e+01	10.9136	43.786774	0.000375	3.750647	1.270754	-0.000150
 732	7.2734e+01	10.8831	43.677772	0.000274	2.736959	0.927307	-0.000110
 733	7.2834e+01	10.8366	43.540509	0.000345	3.446541	1.167720	-0.000138
 734	7.2933e+01	10.7997	43.399209	0.000355	3.547910	1.202064	-0.000142
 735	7.3033e+01	10.7516	43.201390	0.000497	4.967074	1.682890	-0.000199
 736	7.3132e+01	10.7163	43.068164	0.000335	3.345172	1.133375	-0.000134
 737	7.3232e+01	10.6826	42.918790	0.000375	3.750647	1.270754	-0.000150
 738	7.3332e+01	10.6345	42.785565	0.000335	3.345172	1.133375	-0.000134
 739	7.3431e+01	10.6024	42.624079	0.000405	4.054754	1.373788	-0.000162
 740	7.3531e+01	10.5559	42.494891	0.000324	3.243803	1.099030	-0.000130
 741	7.3630e+01	10.5141	42.337442	0.000395	3.953385	1.339443	-0.000158
 742	7.3730e+01	10.4756	42.196143	0.000355	3.547910	1.202064	-0.000142
 743	7.3829e+01	10.4339	42.022546	0.000436	4.358860	1.476822	-0.000174
 744	7.3928e+01	10.3986	41.861060	0.000405	4.054754	1.373788	-0.000162
 745	7.4028e+01	10.3505	41.743984	0.000294	2.939697	0.995996	-0.000118
 746	7.4127e+01	10.3248	41.630944	0.000284	2.838328	0.961651	-0.000114
 747	7.4227e+01	10.2783	41.416976	0.000537	5.372549	1.820269	-0.000215
 748	7.4326e+01	10.2318	41.267602	0.000375	3.750647	1.270754	-0.000150
 749	7.4426e+01	10.1981	41.114190	0.000385	3.852016	1.305098	-0.000154
 750	7.4525e+01	10.1596	41.001151	0.000284	2.838328	0.961651	-0.000114
 751	7.4625e+01	10.1115	40.839665	0.000405	4.054754	1.373788	-0.000162
 752	7.4725e+01	10.0842	40.694328	0.000365	3.649279	1.236409	-0.000146
 753	7.4824e+01	10.0393	40.536880	0.000395	3.953385	1.339443	-0.000158
 754	7.4924e+01	9.9976	40.399617	0.000345	3.446541	1.167720	-0.000138
 755	7.5023e+01	9.9527	40.286578	0.000284	2.838328	0.961651	-0.000114
 756	7.5123e+01	9.9158	40.121055	0.000416	4.156123	1.408133	-0.000166
 757	7.5222e+01	9.8917	39.955532	0.000416	4.156123	1.408133	-0.000166
 758	7.5322e+01	9.8339	39.838455	0.000294	2.939697	0.995996	-0.000118
 759	7.5421e+01	9.7970	39.644673	0.000487	4.865705	1.648545	-0.000195
 760	7.5520e+01	9.7521	39.547782	0.000243	2.432852	0.824273	-0.000097
 761	7.5620e+01	9.7136	39.402445	0.000365	3.649279	1.236409	-0.000146
 762	7.5719e+01	9.6687	39.232885	0.000426	4.257492	1.442477	-0.000170
 763	7.5819e+01	9.6398	39.075437	0.000395	3.953385	1.339443	-0.000158
 764	7.5918e+01	9.5965	38.934137	0.000355	3.547910	1.202064	-0.000142
 765	7.6018e+01	9.5596	38.800912	0.000335	3.345172	1.133375	-0.000134
 766	7.6118e+01	9.5179	38.615203	0.000466	4.662967	1.579856	-0.000187
 767	7.6217e+01	9.4826	38.490052	0.000314	3.142434	1.064686	-0.000126
 768	7.6317e+01	9.4409	38.352790	0.000345	3.446541	1.167720	-0.000138
 769	7.6416e+01	9.4056	38.203415	0.000375	3.750647	1.270754	-0.000150
 770	7.6516e+01	9.3591	38.033856	0.000426	4.257492	1.442477	-0.000170
 771	7.6615e+01	9.3190	37.888519	0.000365	3.649279	1.236409	-0.000146
 772	7.6715e+01	9.2869	37.743182	0.000365	3.649279	1.236409	-0.000146
 773	7.6814e+01	9.2484	37.577659	0.000416	4.156123	1.408133	-0.000166
 774	7.6913e+01	9.2083	37.468657	0.000274	2.736959	0.927307	-0.000110
 775	7.7013e+01	9.1650	37.307171	0.000405	4.054754	1.373788	-0.000162
 776	7.7112e+01	9.1249	37.165872	0.000355	3.547910	1.202064	-0.000142
 777	7.7212e+01	9.0896	37.012460	0.000385	3.852016	1.305098	-0.000154
 778	7.7311e+01	9.0415	36.891346	0.000304	3.041065	1.030341	-0.000122
 779	7.7411e+01	9.0014	36.697564	0.000487	4.865705	1.648545	-0.000195
 780	7.7510e+01	8.9628	36.556264	0.000355	3.547910	1.202064	-0.000142
 781	7.7610e+01	8.9260	36.398816	0.000395	3.953385	1.339443	-0.000158
 782	7.7710e+01	8.8794	36.253479	0.000365	3.649279	1.236409	-0.000146
 783	7.7809e+01	8.8393	36.079882	0.000436	4.358860	1.476822	-0.000174
 784	7.7909e+01	8.8088	35.987028	0.000233	2.331483	0.789928	-0.000093
 785	7.8008e+01	8.7591	35.809394	0.000446	4.460229	1.511167	-0.000179
 786	7.8108e+01	8.7270	35.664057	0.000365	3.649279	1.236409	-0.000146
 787	7.8207e+01	8.6853	35.470275	0.000487	4.865705	1.648545	-0.000195
 788	7.8306e+01	8.6484	35.337049	0.000335	3.345172	1.133375	-0.000134
 789	7.8406e+01	8.6083	35.187675	0.000375	3.750647	1.270754	-0.000150
 790	7.8505e+01	8.5538	35.018115	0.000426	4.257492	1.442477	-0.000170
 791	7.8605e+01	8.5201	34.888927	0.000324	3.243803	1.099030	-0.000130
 792	7.8704e+01	8.4848	34.735516	0.000385	3.852016	1.305098	-0.000154
 793	7.8804e+01	8.4431	34.574030	0.000405	4.054754	1.373788	-0.000162
 794	7.8903e+01	8.4110	34.428694	0.000365	3.649279	1.236409	-0.000146
 795	7.9003e+01	8.3693	34.291431	0.000345	3.446541	1.167720	-0.000138
 796	7.9103e+01	8.3308	34.121871	0.000426	4.257492	1.442477	-0.000170
 797	7.9202e+01	8.2859	33.980572	0.000355	3.547910	1.202064	-0.000142
 798	7.9302e+01	8.2377	33.827160	0.000385	3.852016	1.305098	-0.000154
 799	7.9401e+01	8.2040	33.661638	0.000416	4.156123	1.408133	-0.000166
 800	7.9501e+01	8.1671	33.540524	0.000304	3.041065	1.030341	-0.000122
 801	7.9600e+01	8.1222	33.379038	0.000405	4.054754	1.373788	-0.000162
 802	7.9700e+01	8.0789	33.197367	0.000456	4.561598	1.545511	-0.000183
 803	7.9799e+01	8.0404	33.060105	0.000345	3.446541	1.167720	-0.000138
 804	7.9898e+01	8.0019	32.890545	0.000426	4.257492	1.442477	-0.000170
 805	7.9998e+01	7.9634	32.773468	0.000294	2.939697	0.995996	-0.000118
 806	8.0097e+01	7.9201	32.591797	0.000456	4.561598	1.545511	-0.000183
 807	8.0197e+01	7.8848	32.426274	0.000416	4.156123	1.408133	-0.000166
 808	8.0296e+01	7.8511	32.293049	0.000335	3.345172	1.133375	-0.000134
 809	8.0396e+01	7.7982	32.143675	0.000375	3.750647	1.270754	-0.000150
 810	8.0496e+01	7.7629	31.982189	0.000405	4.054754	1.373788	-0.000162
 811	8.0595e+01	7.7260	31.816667	0.000416	4.156123	1.408133	-0.000166
 812	8.0695e+01	7.6843	31.699590	0.000294	2.939697	0.995996	-0.000118
 813	8.0794e+01	7.6522	31.546179	0.000385	3.852016	1.305098	-0.000154
 814	8.0894e+01	7.6041	31.368545	0.000446	4.460229	1.511167	-0.000179
 815	8.0993e+01	7.5688	31.219171	0.000375	3.750647	1.270754	-0.000150
 816	8.1093e+01	7.5287	31.061722	0.000395	3.953385	1.339443	-0.000158
 817	8.1192e+01	7.4886	30.924460	0.000345	3.446541	1.167720	-0.000138
 818	8.1291e+01	7.4501	30.758937	0.000416	4.156123	1.408133	-0.000166
 819	8.1391e+01	7.4100	30.601489	0.000395	3.953385	1.339443	-0.000158
 820	8.1490e+01	7.3634	30.427892	0.000436	4.358860	1.476822	-0.000174
 821	8.1590e+01	7.3394	30.262369	0.000416	4.156123	1.408133	-0.000166
 822	8.1689e+01	7.2896	30.117033	0.000365	3.649279	1.236409	-0.000146
 823	8.1789e+01	7.2543	29.947473	0.000426	4.257492	1.442477	-0.000170
 824	8.1888e+01	7.2223	29.814247	0.000335	3.345172	1.133375	-0.000134
 825	8.1988e+01	7.1645	29.644688	0.000426	4.257492	1.442477	-0.000170
 826	8.2088e+01	7.1356	29.467054	0.000446	4.460229	1.511167	-0.000179
 827	8.2187e+01	7.0875	29.325754	0.000355	3.547910	1.202064	-0.000142
 828	8.2287e+01	7.0394	29.140046	0.000466	4.662967	1.579856	-0.000187
 829	8.2386e+01	7.0089	29.006820	0.000335	3.345172	1.133375	-0.000134
 830	8.2486e+01	6.9752	28.845335	0.000405	4.054754	1.373788	-0.000162
 831	8.2585e+01	6.9303	28.724221	0.000304	3.041065	1.030341	-0.000122
 832	8.2684e+01	6.9014	28.526401	0.000497	4.967074	1.682890	-0.000199
 833	8.2784e+01	6.8501	28.368953	0.000395	3.953385	1.339443	-0.000158
 834	8.2883e+01	6.8052	28.219579	0.000375	3.750647	1.270754	-0.000150
 835	8.2983e+01	6.7634	28.094428	0.000314	3.142434	1.064686	-0.000126
 836	8.3082e+01	6.7378	27.864311	0.000578	5.778024	1.957648	-0.000231
 837	8.3182e+01	6.6880	27.731085	0.000335	3.345172	1.133375	-0.000134
 838	8.3281e+01	6.6544	27.589786	0.000355	3.547910	1.202064	-0.000142
 839	8.3381e+01	6.6126	27.396003	0.000487	4.865705	1.648545	-0.000195
 840	8.3481e+01	6.5758	27.278926	0.000294	2.939697	0.995996	-0.000118
 841	8.3580e+01	6.5340	27.117441	0.000405	4.054754	1.373788	-0.000162
 842	8.3680e+01	6.4955	26.947881	0.000426	4.257492	1.442477	-0.000170
 843	8.3779e+01	6.4490	26.794470	0.000385	3.852016	1.305098	-0.000154
 844	8.3879e+01	6.4169	26.628947	0.000416	4.156123	1.408133	-0.000166
 845	8.3978e+01	6.3704	26.455350	0.000436	4.358860	1.476822	-0.000174
 846	8.4078e+01	6.3367	26.293865	0.000405	4.054754	1.373788	-0.000162
 847	8.4177e+01	6.2950	26.152565	0.000355	3.547910	1.202064	-0.000142
 848	8.4276e+01	6.2645	25.999154	0.000385	3.852016	1.305098	-0.000154
 849	8.4376e+01	6.2132	25.809409	0.000476	4.764336	1.614201	-0.000191
 850	8.4475e+01	6.1683	25.635812	0.000436	4.358860	1.476822	-0.000174
 851	8.4575e+01	6.1394	25.466252	0.000426	4.257492	1.442477	-0.000170
 852	8.4674e+01	6.0833	25.304767	0.000405	4.054754	1.373788	-0.000162
 853	8.4774e+01	6.0544	25.179616	0.000314	3.142434	1.064686	-0.000126
 854	8.4874e+01	6.0191	24.969685	0.000527	5.271180	1.785924	-0.000211
 855	8.4973e+01	5.9742	24.812236	0.000395	3.953385	1.339443	-0.000158
 856	8.5073e+01	5.9389	24.614417	0.000497	4.967074	1.682890	-0.000199
 857	8.5172e+01	5.9036	24.505414	0.000274	2.736959	0.927307	-0.000110
 858	8.5272e+01	5.8522	24.327780	0.000446	4.460229	1.511167	-0.000179
 859	8.5371e+01	5.8137	24.182443	0.000365	3.649279	1.236409	-0.000146
 860	8.5471e+01	5.7752	24.012883	0.000426	4.257492	1.442477	-0.000170
 861	8.5570e+01	5.7367	23.875621	0.000345	3.446541	1.167720	-0.000138
 862	8.5669e+01	5.6982	23.665690	0.000527	5.271180	1.785924	-0.000211
 863	8.5769e+01	5.6597	23.576873	0.000223	2.230115	0.755583	-0.000089
 864	8.5868e+01	5.6164	23.362905	0.000537	5.372549	1.820269	-0.000215
 865	8.5968e+01	5.5715	23.209493	0.000385	3.852016	1.305098	-0.000154
 866	8.6067e+01	5.5394	23.052045	0.000395	3.953385	1.339443	-0.000158
 867	8.6167e+01	5.4913	22.866337	0.000466	4.662967	1.579856	-0.000187
 868	8.6266e+01	5.4576	22.696777	0.000426	4.257492	1.442477	-0.000170
 869	8.6366e+01	5.4159	22.583737	0.000284	2.838328	0.961651	-0.000114
 870	8.6466e+01	5.3870	22.377843	0.000517	5.169811	1.751579	-0.000207
 871	8.6565e+01	5.3389	22.228469	0.000375	3.750647	1.270754	-0.000150
 872	8.6665e+01	5.2940	22.087170	0.000355	3.547910	1.202064	-0.000142
 873	8.6764e+01	5.2571	21.897424	0.000476	4.764336	1.614201	-0.000191
 874	8.6864e+01	5.2266	21.744013	0.000385	3.852016	1.305098	-0.000154
 875	8.6963e+01	5.1769	21.598676	0.000365	3.649279	1.236409	-0.000146
 876	8.7063e+01	5.1432	21.404894	0.000487	4.865705	1.648545	-0.000195
 877	8.7162e+01	5.0854	21.243408	0.000405	4.054754	1.373788	-0.000162
 878	8.7261e+01	5.0614	21.089997	0.000385	3.852016	1.305098	-0.000154
 879	8.7361e+01	5.0164	20.940623	0.000375	3.750647	1.270754	-0.000150
 880	8.7460e+01	4.9763	20.754915	0.000466	4.662967	1.579856	-0.000187
 881	8.7560e+01	4.9410	20.565169	0.000476	4.764336	1.614201	-0.000191
 882	8.7659e+01	4.9106	20.448093	0.000294	2.939697	0.995996	-0.000118
 883	8.7759e+01	4.8592	20.282570	0.000416	4.156123	1.408133	-0.000166
 884	8.7859e+01	4.8191	20.133196	0.000375	3.750647	1.270754	-0.000150
 885	8.7958e+01	4.7854	19.963636	0.000426	4.257492	1.442477	-0.000170
 886	8.8058e+01	4.7437	19.761779	0.000507	5.068442	1.717235	-0.000203
 887	8.8157e+01	4.7020	19.624517	0.000345	3.446541	1.167720	-0.000138
 888	8.8257e+01	4.6539	19.438809	0.000466	4.662967	1.579856	-0.000187
 889	8.8356e+01	4.6186	19.317695	0.000304	3.041065	1.030341	-0.000122
 890	8.8456e+01	4.5817	19.131986	0.000466	4.662967	1.579856	-0.000187
 891	8.8555e+01	4.5400	18.926092	0.000517	5.169811	1.751579	-0.000207
 892	8.8654e+01	4.5063	18.804978	0.000304	3.041065	1.030341	-0.000122
 893	8.8754e+01	4.4598	18.623307	0.000456	4.561598	1.545511	-0.000183
 894	8.8853e+01	4.4341	18.486045	0.000345	3.446541	1.167720	-0.000138
 895	8.8953e+01	4.3763	18.308411	0.000446	4.460229	1.511167	-0.000179
 896	8.9052e+01	4.3411	18.191334	0.000294	2.939697	0.995996	-0.000118
 897	8.9152e+01	4.2993	17.993514	0.000497	4.967074	1.682890	-0.000199
 898	8.9251e+01	4.2608	17.864326	0.000324	3.243803	1.099030	-0.000130
 899	8.9351e+01	4.2207	17.642283	0.000558	5.575287	1.888958	-0.000223
 900	8.9451e+01	4.1710	17.492909	0.000375	3.750647	1.270754	-0.000150
 901	8.9550e+01	4.1421	17.323349	0.000426	4.257492	1.442477	-0.000170
 902	8.9650e+01	4.1068	17.194161	0.000324	3.243803	1.099030	-0.000130
 903	8.9749e+01	4.0715	17.024601	0.000426	4.257492	1.442477	-0.000170
 904	8.9849e+01	4.0266	16.859079	0.000416	4.156123	1.408133	-0.000166
 905	8.9948e+01	3.9833	16.665296	0.000487	4.865705	1.648545	-0.000195
 906	9.0047e+01	3.9416	16.540145	0.000314	3.142434	1.064686	-0.000126
 907	9.0147e+01	3.8951	16.382697	0.000395	3.953385	1.339443	-0.000158
 908	9.0246e+01	3.8614	16.209100	0.000436	4.358860	1.476822	-0.000174
 909	9.0346e+01	3.8261	16.039540	0.000426	4.257492	1.442477	-0.000170
 910	9.0445e+01	3.7844	15.869981	0.000426	4.257492	1.442477	-0.000170
 911	9.0545e+01	3.7475	15.700421	0.000426	4.257492	1.442477	-0.000170
 912	9.0644e+01	3.7074	15.559121	0.000355	3.547910	1.202064	-0.000142
 913	9.0744e+01	3.6721	15.397636	0.000405	4.054754	1.373788	-0.000162
 914	9.0844e+01	3.6191	15.224039	0.000436	4.358860	1.476822	-0.000174
 915	9.0943e+01	3.5871	15.066591	0.000395	3.953385	1.339443	-0.000158
 916	9.1043e+01	3.5373	14.937402	0.000324	3.243803	1.099030	-0.000130
 917	9.1142e+01	3.5117	14.767843	0.000426	4.257492	1.442477	-0.000170
 918	9.1242e+01	3.4635	14.606357	0.000405	4.054754	1.373788	-0.000162
 919	9.1341e+01	3.4186	14.444872	0.000405	4.054754	1.373788	-0.000162
 920	9.1441e+01	3.3833	14.287423	0.000395	3.953385	1.339443	-0.000158
 921	9.1540e+01	3.3464	14.073455	0.000537	5.372549	1.820269	-0.000215
 922	9.1639e+01	3.3031	13.964453	0.000274	2.736959	0.927307	-0.000110
 923	9.1739e+01	3.2694	13.746447	0.000547	5.473918	1.854614	-0.000219
 924	9.1838e+01	3.2213	13.597073	0.000375	3.750647	1.270754	-0.000150
 925	9.1938e+01	3.1828	13.459811	0.000345	3.446541	1.167720	-0.000138
 926	9.2037e+01	3.1427	13.322548	0.000345	3.446541	1.167720	-0.000138
 927	9.2137e+01	3.1058	13.128765	0.000487	4.865705	1.648545	-0.000195
 928	9.2237e+01	3.0673	12.999577	0.000324	3.243803	1.099030	-0.000130
 929	9.2336e+01	3.0320	12.805795	0.000487	4.865705	1.648545	-0.000195
 930	9.2436e+01	2.9823	12.616049	0.000476	4.764336	1.614201	-0.000191
 931	9.2535e+01	2.9438	12.515121	0.000253	2.534221	0.858617	-0.000101
 932	9.2635e+01	2.9117	12.349598	0.000416	4.156123	1.408133	-0.000166
 933	9.2734e+01	2.8652	12.184076	0.000416	4.156123	1.408133	-0.000166
 934	9.2834e+01	2.8299	12.034702	0.000375	3.750647	1.270754	-0.000150
 935	9.2933e+01	2.7930	11.836882	0.000497	4.967074	1.682890	-0.000199
 936	9.3032e+01	2.7432	11.719805	0.000294	2.939697	0.995996	-0.000118
 937	9.3132e+01	2.7031	11.501800	0.000547	5.473918	1.854614	-0.000219
 938	9.3231e+01	2.6662	11.404908	0.000243	2.432852	0.824273	-0.000097
 939	9.3331e+01	2.6358	11.203052	0.000507	5.068442	1.717235	-0.000203
 940	9.3430e+01	2.5860	11.049641	0.000385	3.852016	1.305098	-0.000154
 941	9.3530e+01	2.5475	10.904304	0.000365	3.649279	1.236409	-0.000146
 942	9.3629e+01	2.5090	10.722633	0.000456	4.561598	1.545511	-0.000183
 943	9.3729e+01	2.4625	10.577296	0.000365	3.649279	1.236409	-0.000146
 944	9.3829e+01	2.4256	10.387550	0.000476	4.764336	1.614201	-0.000191
 945	9.3928e+01	2.3823	10.238176	0.000375	3.750647	1.270754	-0.000150
 946	9.4028e+01	2.3502	10.072654	0.000416	4.156123	1.408133	-0.000166
 947	9.4127e+01	2.3037	9.911168	0.000405	4.054754	1.373788	-0.000162
 948	9.4227e+01	2.2732	9.749683	0.000405	4.054754	1.373788	-0.000162
 949	9.4326e+01	2.2331	9.568012	0.000456	4.561598	1.545511	-0.000183
 950	9.4425e+01	2.1834	9.410563	0.000395	3.953385	1.339443	-0.000158
 951	9.4525e+01	2.1497	9.277338	0.000335	3.345172	1.133375	-0.000134
 952	9.4624e+01	2.1144	9.075481	0.000507	5.068442	1.717235	-0.000203
 953	9.4724e+01	2.0727	8.934181	0.000355	3.547910	1.202064	-0.000142
 954	9.4823e+01	2.0294	8.784807	0.000375	3.750647	1.270754	-0.000150
 955	9.4923e+01	1.9812	8.615248	0.000426	4.257492	1.442477	-0.000170
 956	9.5022e+01	1.9475	8.437614	0.000446	4.460229	1.511167	-0.000179
 957	9.5122e+01	1.9106	8.259980	0.000446	4.460229	1.511167	-0.000179
 958	9.5222e+01	1.8705	8.114643	0.000365	3.649279	1.236409	-0.000146
 959	9.5321e+01	1.8288	7.932972	0.000456	4.561598	1.545511	-0.000183
 960	9.5421e+01	1.7887	7.795709	0.000345	3.446541	1.167720	-0.000138
 961	9.5520e+01	1.7518	7.605964	0.000476	4.764336	1.614201	-0.000191
 962	9.5620e+01	1.7149	7.444478	0.000405	4.054754	1.373788	-0.000162
 963	9.5719e+01	1.6716	7.291067	0.000385	3.852016	1.305098	-0.000154
 964	9.5819e+01	1.6299	7.109396	0.000456	4.561598	1.545511	-0.000183
 965	9.5918e+01	1.5898	6.951948	0.000395	3.953385	1.339443	-0.000158
 966	9.6017e+01	1.5529	6.810648	0.000355	3.547910	1.202064	-0.000142
 967	9.6117e+01	1.5064	6.657237	0.000385	3.852016	1.305098	-0.000154
 968	9.6216e+01	1.4711	6.431157	0.000568	5.676655	1.923303	-0.000227
 969	9.6316e+01	1.4326	6.322155	0.000274	2.736959	0.927307	-0.000110
 970	9.6415e+01	1.3925	6.148558	0.000436	4.358860	1.476822	-0.000174
 971	9.6515e+01	1.3460	6.007258	0.000355	3.547910	1.202064	-0.000142
 972	9.6615e+01	1.3155	5.821550	0.000466	4.662967	1.579856	-0.000187
 973	9.6714e+01	1.2738	5.708510	0.000284	2.838328	0.961651	-0.000114
 974	9.6814e+01	1.2385	5.510690	0.000497	4.967074	1.682890	-0.000199
 975	9.6913e+01	1.1919	5.345168	0.000416	4.156123	1.408133	-0.000166
 976	9.7013e+01	1.1534	5.175608	0.000426	4.257492	1.442477	-0.000170
 977	9.7112e+01	1.1101	5.022197	0.000385	3.852016	1.305098	-0.000154
 978	9.7212e+01	1.0748	4.836489	0.000466	4.662967	1.579856	-0.000187
 979	9.7311e+01	1.0299	4.650780	0.000466	4.662967	1.579856	-0.000187
 980	9.7410e+01	0.9962	4.473146	0.000446	4.460229	1.511167	-0.000179
 981	9.7510e+01	0.9497	4.335884	0.000345	3.446541	1.167720	-0.000138
 982	9.7609e+01	0.9096	4.190547	0.000365	3.649279	1.236409	-0.000146
 983	9.7709e+01	0.8679	3.976579	0.000537	5.372549	1.820269	-0.000215
 984	9.7808e+01	0.8374	3.843353	0.000335	3.345172	1.133375	-0.000134
 985	9.7908e+01	0.7909	3.669756	0.000436	4.358860	1.476822	-0.000174
 986	9.8007e+01	0.7508	3.516345	0.000385	3.852016	1.305098	-0.000154
 987	9.8107e+01	0.7091	3.350823	0.000416	4.156123	1.408133	-0.000166
 988	9.8207e+01	0.6690	3.193374	0.000395	3.953385	1.339443	-0.000158
 989	9.8306e+01	0.6289	3.007666	0.000466	4.662967	1.579856	-0.000187
 990	9.8406e+01	0.5952	2.817921	0.000476	4.764336	1.614201	-0.000191
 991	9.8505e+01	0.5567	2.636250	0.000456	4.561598	1.545511	-0.000183
 992	9.8605e+01	0.5150	2.511098	0.000314	3.142434	1.064686	-0.000126
 993	9.8704e+01	0.4732	2.313279	0.000497	4.967074	1.682890	-0.000199
 994	9.8803e+01	0.4331	2.171979	0.000355	3.547910	1.202064	-0.000142
 995	9.8903e+01	0.3866	2.018568	0.000385	3.852016	1.305098	-0.000154
 996	9.9002e+01	0.3577	1.820748	0.000497	4.967074	1.682890	-0.000199
 997	9.9102e+01	0.3208	1.667337	0.000385	3.852016	1.305098	-0.000154
 998	9.9201e+01	0.2759	1.481629	0.000466	4.662967	1.579856	-0.000187
 999	9.9301e+01	0.2310	1.299958	0.000456	4.561598	1.545511	-0.000183
1000	9.9400e+01	0.2037	1.142509	0.000395	3.953385	1.339443	-0.000158
1001	9.9500e+01	0.1588	0.993135	0.000375	3.750647	1.270754	-0.000150
1002	9.9600e+01	0.1267	0.795316	0.000497	4.967074	1.682890	-0.000199
1003	9.9699e+01	0.0738	0.641905	0.000385	3.852016	1.305098	-0.000154
1004	9.9799e+01	0.0321	0.508679	0.000335	3.345172	1.133375	-0.000134
1005	9.9898e+01	0.0096	0.359305	0.000375	3.750647	1.270754	-0.000150
1006	9.9998e+01	-0.0289	0.173597	0.000466	4.662967	1.579856	-0.000187
1007	1.0010e+02	-0.0738	0.008074	0.000416	4.156123	1.408133	-0.000166
1008	1.0020e+02	-0.1171	-0.145337	0.000385	3.852016	1.305098	-0.000154
1009	1.0030e+02	-0.1604	-0.339119	0.000487	4.865705	1.648545	-0.000195
1010	1.0040e+02	-0.1877	-0.496568	0.000395	3.953385	1.339443	-0.000158
1011	1.0050e+02	-0.2326	-0.702462	0.000517	5.169811	1.751579	-0.000207
1012	1.0059e+02	-0.2631	-0.867984	0.000416	4.156123	1.408133	-0.000166
1013	1.0069e+02	-0.3096	-1.041581	0.000436	4.358860	1.476822	-0.000174
1014	1.0079e+02	-0.3465	-1.223252	0.000456	4.561598	1.545511	-0.000183
1015	1.0089e+02	-0.4027	-1.412998	0.000476	4.764336	1.614201	-0.000191
1016	1.0099e+02	-0.4412	-1.522000	0.000274	2.736959	0.927307	-0.000110
1017	1.0109e+02	-0.4716	-1.679448	0.000395	3.953385	1.339443	-0.000158
1018	1.0119e+02	-0.5134	-1.901491	0.000558	5.575287	1.888958	-0.000223
1019	1.0129e+02	-0.5535	-2.050865	0.000375	3.750647	1.270754	-0.000150
1020	1.0139e+02	-0.5952	-2.208313	0.000395	3.953385	1.339443	-0.000158
1021	1.0149e+02	-0.6289	-2.394021	0.000466	4.662967	1.579856	-0.000187
1022	1.0159e+02	-0.6802	-2.535321	0.000355	3.547910	1.202064	-0.000142
1023	1.0169e+02	-0.7203	-2.733141	0.000497	4.967074	1.682890	-0.000199
1024	1.0179e+02	-0.7492	-2.878478	0.000365	3.649279	1.236409	-0.000146
1025	1.0189e+02	-0.7877	-3.072260	0.000487	4.865705	1.648545	-0.000195
1026	1.0199e+02	-0.8374	-3.241820	0.000426	4.257492	1.442477	-0.000170
1027	1.0209e+02	-0.8727	-3.379083	0.000345	3.446541	1.167720	-0.000138
1028	1.0219e+02	-0.9160	-3.564791	0.000466	4.662967	1.579856	-0.000187
1029	1.0229e+02	-0.9593	-3.774722	0.000527	5.271180	1.785924	-0.000211
1030	1.0239e+02	-0.9946	-3.960430	0.000466	4.662967	1.579856	-0.000187
1031	1.0248e+02	-1.0379	-4.081544	0.000304	3.041065	1.030341	-0.000122
1032	1.0258e+02	-1.0652	-4.263215	0.000456	4.561598	1.545511	-0.000183
1033	1.0268e+02	-1.1182	-4.396441	0.000335	3.345172	1.133375	-0.000134
1034	1.0278e+02	-1.1534	-4.598298	0.000507	5.068442	1.717235	-0.000203
1035	1.0288e+02	-1.1968	-4.727486	0.000324	3.243803	1.099030	-0.000130
1036	1.0298e+02	-1.2288	-4.933380	0.000517	5.169811	1.751579	-0.000207
1037	1.0308e+02	-1.2754	-5.086791	0.000385	3.852016	1.305098	-0.000154
1038	1.0318e+02	-1.3123	-5.244239	0.000395	3.953385	1.339443	-0.000158
1039	1.0328e+02	-1.3556	-5.438022	0.000487	4.865705	1.648545	-0.000195
1040	1.0338e+02	-1.4005	-5.611619	0.000436	4.358860	1.476822	-0.000174
1041	1.0348e+02	-1.4294	-5.777141	0.000416	4.156123	1.408133	-0.000166
1042	1.0358e+02	-1.4663	-5.902292	0.000314	3.142434	1.064686	-0.000126
1043	1.0368e+02	-1.5096	-6.079926	0.000446	4.460229	1.511167	-0.000179
1044	1.0378e+02	-1.5433	-6.249486	0.000426	4.257492	1.442477	-0.000170
1045	1.0388e+02	-1.5898	-6.443269	0.000487	4.865705	1.648545	-0.000195
1046	1.0398e+02	-1.6219	-6.612828	0.000426	4.257492	1.442477	-0.000170
1047	1.0408e+02	-1.6684	-6.737980	0.000314	3.142434	1.064686	-0.000126
1048	1.0418e+02	-1.7149	-6.935799	0.000497	4.967074	1.682890	-0.000199
1049	1.0428e+02	-1.7518	-7.113433	0.000446	4.460229	1.511167	-0.000179
1050	1.0438e+02	-1.7823	-7.287030	0.000436	4.358860	1.476822	-0.000174
1051	1.0447e+02	-1.8352	-7.452553	0.000416	4.156123	1.408133	-0.000166
1052	1.0457e+02	-1.8657	-7.622112	0.000426	4.257492	1.442477	-0.000170
1053	1.0467e+02	-1.9122	-7.787635	0.000416	4.156123	1.408133	-0.000166
1054	1.0477e+02	-1.9524	-7.973343	0.000466	4.662967	1.579856	-0.000187
1055	1.0487e+02	-1.9844	-8.114643	0.000355	3.547910	1.202064	-0.000142
1056	1.0497e+02	-2.0294	-8.296314	0.000456	4.561598	1.545511	-0.000183
1057	1.0507e+02	-2.0470	-8.477985	0.000456	4.561598	1.545511	-0.000183
1058	1.0517e+02	-2.1112	-8.615248	0.000345	3.446541	1.167720	-0.000138
1059	1.0527e+02	-2.1433	-8.809030	0.000487	4.865705	1.648545	-0.000195
1060	1.0537e+02	-2.1850	-8.962441	0.000385	3.852016	1.305098	-0.000154
1061	1.0547e+02	-2.2315	-9.115852	0.000385	3.852016	1.305098	-0.000154
1062	1.0557e+02	-2.2636	-9.313672	0.000497	4.967074	1.682890	-0.000199
1063	1.0567e+02	-2.3133	-9.487269	0.000436	4.358860	1.476822	-0.000174
1064	1.0577e+02	-2.3406	-9.640680	0.000385	3.852016	1.305098	-0.000154
1065	1.0587e+02	-2.3791	-9.826388	0.000466	4.662967	1.579856	-0.000187
1066	1.0597e+02	-2.4320	-9.955577	0.000324	3.243803	1.099030	-0.000130
1067	1.0607e+02	-2.4593	-10.137248	0.000456	4.561598	1.545511	-0.000183
1068	1.0617e+02	-2.5074	-10.282585	0.000365	3.649279	1.236409	-0.000146
1069	1.0627e+02	-2.5443	-10.464256	0.000456	4.561598	1.545511	-0.000183
1070	1.0637e+02	-2.5860	-10.605556	0.000355	3.547910	1.202064	-0.000142
1071	1.0647e+02	-2.6229	-10.771078	0.000416	4.156123	1.408133	-0.000166
1072	1.0656e+02	-2.6694	-10.944675	0.000436	4.358860	1.476822	-0.000174
1073	1.0666e+02	-2.6999	-11.102123	0.000395	3.953385	1.339443	-0.000158
1074	1.0676e+02	-2.7416	-11.303980	0.000507	5.068442	1.717235	-0.000203
1075	1.0686e+02	-2.7817	-11.433168	0.000324	3.243803	1.099030	-0.000130
1076	1.0696e+02	-2.8234	-11.582542	0.000375	3.750647	1.270754	-0.000150
1077	1.0706e+02	-2.8668	-11.744028	0.000405	4.054754	1.373788	-0.000162
1078	1.0716e+02	-2.9069	-11.917625	0.000436	4.358860	1.476822	-0.000174
1079	1.0726e+02	-2.9486	-12.099296	0.000456	4.561598	1.545511	-0.000183
1080	1.0736e+02	-2.9855	-12.268856	0.000426	4.257492	1.442477	-0.000170
1081	1.0746e+02	-3.0272	-12.430341	0.000405	4.054754	1.373788	-0.000162
1082	1.0756e+02	-3.0657	-12.603938	0.000436	4.358860	1.476822	-0.000174
1083	1.0766e+02	-3.1010	-12.741200	0.000345	3.446541	1.167720	-0.000138
1084	1.0776e+02	-3.1475	-12.926909	0.000466	4.662967	1.579856	-0.000187
1085	1.0786e+02	-3.1796	-13.068208	0.000355	3.547910	1.202064	-0.000142
1086	1.0796e+02	-3.2181	-13.253917	0.000466	4.662967	1.579856	-0.000187
1087	1.0806e+02	-3.2630	-13.399254	0.000365	3.649279	1.236409	-0.000146
1088	1.0816e+02	-3.2999	-13.568813	0.000426	4.257492	1.442477	-0.000170
1089	1.0826e+02	-3.3384	-13.734336	0.000416	4.156123	1.408133	-0.000166
1090	1.0836e+02	-3.3849	-13.859487	0.000314	3.142434	1.064686	-0.000126
1091	1.0845e+02	-3.4218	-14.049232	0.000476	4.764336	1.614201	-0.000191
1092	1.0855e+02	-3.4555	-14.174384	0.000314	3.142434	1.064686	-0.000126
1093	1.0865e+02	-3.5052	-14.364129	0.000476	4.764336	1.614201	-0.000191
1094	1.0875e+02	-3.5470	-14.537726	0.000436	4.358860	1.476822	-0.000174
1095	1.0885e+02	-3.5742	-14.679026	0.000355	3.547910	1.202064	-0.000142
1096	1.0895e+02	-3.6159	-14.840511	0.000405	4.054754	1.373788	-0.000162
1097	1.0905e+02	-3.6657	-14.957588	0.000294	2.939697	0.995996	-0.000118
1098	1.0915e+02	-3.6945	-15.179630	0.000558	5.575287	1.888958	-0.000223
1099	1.0925e+02	-3.7507	-15.312856	0.000335	3.345172	1.133375	-0.000134
1100	1.0935e+02	-3.7780	-15.462230	0.000375	3.750647	1.270754	-0.000150
1101	1.0945e+02	-3.8197	-15.619678	0.000395	3.953385	1.339443	-0.000158
1102	1.0955e+02	-3.8534	-15.789238	0.000426	4.257492	1.442477	-0.000170
1103	1.0965e+02	-3.9079	-15.983020	0.000487	4.865705	1.648545	-0.000195
1104	1.0975e+02	-3.9352	-16.116246	0.000335	3.345172	1.133375	-0.000134
1105	1.0985e+02	-3.9785	-16.305991	0.000476	4.764336	1.614201	-0.000191
1106	1.0995e+02	-4.0186	-16.475551	0.000426	4.257492	1.442477	-0.000170
1107	1.1005e+02	-4.0587	-16.596665	0.000304	3.041065	1.030341	-0.000122
1108	1.1015e+02	-4.1020	-16.746039	0.000375	3.750647	1.270754	-0.000150
1109	1.1025e+02	-4.1405	-16.907524	0.000405	4.054754	1.373788	-0.000162
1110	1.1035e+02	-4.1758	-17.097270	0.000476	4.764336	1.614201	-0.000191
1111	1.1044e+02	-4.2159	-17.291052	0.000487	4.865705	1.648545	-0.000195
1112	1.1054e+02	-4.2592	-17.379869	0.000223	2.230115	0.755583	-0.000089
1113	1.1064e+02	-4.3058	-17.565578	0.000466	4.662967	1.579856	-0.000187
1114	1.1074e+02	-4.3378	-17.698803	0.000335	3.345172	1.133375	-0.000134
1115	1.1084e+02	-4.3812	-17.848177	0.000375	3.750647	1.270754	-0.000150
1116	1.1094e+02	-4.4181	-18.033885	0.000466	4.662967	1.579856	-0.000187
1117	1.1104e+02	-4.4566	-18.219594	0.000466	4.662967	1.579856	-0.000187
1118	1.1114e+02	-4.5031	-18.389153	0.000426	4.257492	1.442477	-0.000170
1119	1.1124e+02	-4.5320	-18.490082	0.000253	2.534221	0.858617	-0.000101
1120	1.1134e+02	-4.5737	-18.679827	0.000476	4.764336	1.614201	-0.000191
1121	1.1144e+02	-4.6266	-18.817090	0.000345	3.446541	1.167720	-0.000138
1122	1.1154e+02	-4.6587	-19.014909	0.000497	4.967074	1.682890	-0.000199
1123	1.1164e+02	-4.6956	-19.164283	0.000375	3.750647	1.270754	-0.000150
1124	1.1174e+02	-4.7293	-19.313657	0.000375	3.750647	1.270754	-0.000150
1125	1.1184e+02	-4.7694	-19.495328	0.000456	4.561598	1.545511	-0.000183
1126	1.1194e+02	-4.8127	-19.652777	0.000395	3.953385	1.339443	-0.000158
1127	1.1204e+02	-4.8528	-19.765817	0.000284	2.838328	0.961651	-0.000114
1128	1.1214e+02	-4.8977	-19.939413	0.000436	4.358860	1.476822	-0.000174
1129	1.1224e+02	-4.9362	-20.096862	0.000395	3.953385	1.339443	-0.000158
1130	1.1234e+02	-4.9747	-20.282570	0.000466	4.662967	1.579856	-0.000187
1131	1.1244e+02	-5.0180	-20.448093	0.000416	4.156123	1.408133	-0.000166
1132	1.1253e+02	-5.0614	-20.593429	0.000365	3.649279	1.236409	-0.000146
1133	1.1263e+02	-5.0918	-20.779138	0.000466	4.662967	1.579856	-0.000187
1134	1.1273e+02	-5.1368	-20.884103	0.000264	2.635590	0.892962	-0.000105
1135	1.1283e+02	-5.1737	-21.009254	0.000314	3.142434	1.064686	-0.000126
1136	1.1293e+02	-5.2218	-21.199000	0.000476	4.764336	1.614201	-0.000191
1137	1.1303e+02	-5.2603	-21.372597	0.000436	4.358860	1.476822	-0.000174
1138	1.1313e+02	-5.2876	-21.517933	0.000365	3.649279	1.236409	-0.000146
1139	1.1323e+02	-5.3389	-21.703642	0.000466	4.662967	1.579856	-0.000187
1140	1.1333e+02	-5.3790	-21.840904	0.000345	3.446541	1.167720	-0.000138
1141	1.1343e+02	-5.4111	-21.998353	0.000395	3.953385	1.339443	-0.000158
1142	1.1353e+02	-5.4608	-22.163875	0.000416	4.156123	1.408133	-0.000166
1143	1.1363e+02	-5.4913	-22.329398	0.000416	4.156123	1.408133	-0.000166
1144	1.1373e+02	-5.5282	-22.478772	0.000375	3.750647	1.270754	-0.000150
1145	1.1383e+02	-5.5779	-22.620072	0.000355	3.547910	1.202064	-0.000142
1146	1.1393e+02	-5.6148	-22.773483	0.000385	3.852016	1.305098	-0.000154
1147	1.1403e+02	-5.6565	-22.963228	0.000476	4.764336	1.614201	-0.000191
1148	1.1413e+02	-5.6950	-23.124714	0.000405	4.054754	1.373788	-0.000162
1149	1.1423e+02	-5.7383	-23.286199	0.000405	4.054754	1.373788	-0.000162
1150	1.1433e+02	-5.7768	-23.423462	0.000345	3.446541	1.167720	-0.000138
1151	1.1442e+02	-5.8121	-23.576873	0.000385	3.852016	1.305098	-0.000154
1152	1.1452e+02	-5.8554	-23.722210	0.000365	3.649279	1.236409	-0.000146
1153	1.1462e+02	-5.8907	-23.891769	0.000426	4.257492	1.442477	-0.000170
1154	1.1472e+02	-5.9260	-24.049218	0.000395	3.953385	1.339443	-0.000158
1155	1.1482e+02	-5.9758	-24.190517	0.000355	3.547910	1.202064	-0.000142
1156	1.1492e+02	-6.0030	-24.364114	0.000436	4.358860	1.476822	-0.000174
1157	1.1502e+02	-6.0528	-24.513488	0.000375	3.750647	1.270754	-0.000150
1158	1.1512e+02	-6.0977	-24.679011	0.000416	4.156123	1.408133	-0.000166
1159	1.1522e+02	-6.1330	-24.844533	0.000416	4.156123	1.408133	-0.000166
1160	1.1532e+02	-6.1667	-25.006019	0.000405	4.054754	1.373788	-0.000162
1161	1.1542e+02	-6.2116	-25.167504	0.000405	4.054754	1.373788	-0.000162
1162	1.1552e+02	-6.2501	-25.333027	0.000416	4.156123	1.408133	-0.000166
1163	1.1562e+02	-6.3014	-25.518735	0.000466	4.662967	1.579856	-0.000187
1164	1.1572e+02	-6.3335	-25.660035	0.000355	3.547910	1.202064	-0.000142
1165	1.1582e+02	-6.3736	-25.793260	0.000335	3.345172	1.133375	-0.000134
1166	1.1592e+02	-6.4073	-25.987043	0.000487	4.865705	1.648545	-0.000195
1167	1.1602e+02	-6.4474	-26.132380	0.000365	3.649279	1.236409	-0.000146
1168	1.1612e+02	-6.4827	-26.253494	0.000304	3.041065	1.030341	-0.000122
1169	1.1622e+02	-6.5324	-26.439202	0.000466	4.662967	1.579856	-0.000187
1170	1.1632e+02	-6.5613	-26.592613	0.000385	3.852016	1.305098	-0.000154
1171	1.1642e+02	-6.6030	-26.717764	0.000314	3.142434	1.064686	-0.000126
1172	1.1651e+02	-6.6463	-26.927695	0.000527	5.271180	1.785924	-0.000211
1173	1.1661e+02	-6.6800	-27.044772	0.000294	2.939697	0.995996	-0.000118
1174	1.1671e+02	-6.7233	-27.246629	0.000507	5.068442	1.717235	-0.000203
1175	1.1681e+02	-6.7650	-27.391966	0.000365	3.649279	1.236409	-0.000146
1176	1.1691e+02	-6.8068	-27.521154	0.000324	3.243803	1.099030	-0.000130
1177	1.1701e+02	-6.8421	-27.666491	0.000365	3.649279	1.236409	-0.000146
1178	1.1711e+02	-6.8790	-27.836051	0.000426	4.257492	1.442477	-0.000170
1179	1.1721e+02	-6.9223	-28.001573	0.000416	4.156123	1.408133	-0.000166
1180	1.1731e+02	-6.9720	-28.183245	0.000456	4.561598	1.545511	-0.000183
1181	1.1741e+02	-7.0153	-28.344730	0.000405	4.054754	1.373788	-0.000162
1182	1.1751e+02	-7.0458	-28.494104	0.000375	3.750647	1.270754	-0.000150
1183	1.1761e+02	-7.0939	-28.667701	0.000436	4.358860	1.476822	-0.000174
1184	1.1771e+02	-7.1244	-28.800926	0.000335	3.345172	1.133375	-0.000134
1185	1.1781e+02	-7.1645	-28.958375	0.000395	3.953385	1.339443	-0.000158
1186	1.1791e+02	-7.2046	-29.136009	0.000446	4.460229	1.511167	-0.000179
1187	1.1801e+02	-7.2495	-29.293457	0.000395	3.953385	1.339443	-0.000158
1188	1.1811e+02	-7.2768	-29.475128	0.000456	4.561598	1.545511	-0.000183
1189	1.1821e+02	-7.3281	-29.656799	0.000456	4.561598	1.545511	-0.000183
1190	1.1831e+02	-7.3666	-29.806173	0.000375	3.750647	1.270754	-0.000150
1191	1.1841e+02	-7.3939	-29.911139	0.000264	2.635590	0.892962	-0.000105
1192	1.1850e+02	-7.4420	-30.056476	0.000365	3.649279	1.236409	-0.000146
1193	1.1860e+02	-7.4821	-30.209887	0.000385	3.852016	1.305098	-0.000154
1194	1.1870e+02	-7.5142	-30.391558	0.000456	4.561598	1.545511	-0.000183
1195	1.1880e+02	-7.5656	-30.532858	0.000355	3.547910	1.202064	-0.000142
1196	1.1890e+02	-7.5912	-30.690306	0.000395	3.953385	1.339443	-0.000158
1197	1.1900e+02	-7.6361	-30.855828	0.000416	4.156123	1.408133	-0.000166
1198	1.1910e+02	-7.6827	-30.997128	0.000355	3.547910	1.202064	-0.000142
1199	1.1920e+02	-7.7212	-31.150539	0.000385	3.852016	1.305098	-0.000154
1200	1.1930e+02	-7.7693	-31.324136	0.000436	4.358860	1.476822	-0.000174
1201	1.1940e+02	-7.8030	-31.449287	0.000314	3.142434	1.064686	-0.000126
1202	1.1950e+02	-7.8431	-31.618847	0.000426	4.257492	1.442477	-0.000170
1203	1.1960e+02	-7.8848	-31.780333	0.000405	4.054754	1.373788	-0.000162
1204	1.1970e+02	-7.9185	-31.941818	0.000405	4.054754	1.373788	-0.000162
1205	1.1980e+02	-7.9682	-32.095229	0.000385	3.852016	1.305098	-0.000154
1206	1.1990e+02	-8.0035	-32.220380	0.000314	3.142434	1.064686	-0.000126
1207	1.2000e+02	-8.0420	-32.369754	0.000375	3.750647	1.270754	-0.000150
1208	1.2010e+02	-8.0725	-32.535277	0.000416	4.156123	1.408133	-0.000166
1209	1.2020e+02	-8.1190	-32.672540	0.000345	3.446541	1.167720	-0.000138
1210	1.2030e+02	-8.1655	-32.894582	0.000558	5.575287	1.888958	-0.000223
1211	1.2039e+02	-8.2040	-33.064142	0.000426	4.257492	1.442477	-0.000170
1212	1.2049e+02	-8.2442	-33.177181	0.000284	2.838328	0.961651	-0.000114
1213	1.2059e+02	-8.2730	-33.306370	0.000324	3.243803	1.099030	-0.000130
1214	1.2069e+02	-8.3276	-33.451707	0.000365	3.649279	1.236409	-0.000146
1215	1.2079e+02	-8.3468	-33.613192	0.000405	4.054754	1.373788	-0.000162
1216	1.2089e+02	-8.4030	-33.815049	0.000507	5.068442	1.717235	-0.000203
1217	1.2099e+02	-8.4367	-33.952312	0.000345	3.446541	1.167720	-0.000138
1218	1.2109e+02	-8.4768	-34.073426	0.000304	3.041065	1.030341	-0.000122
1219	1.2119e+02	-8.5185	-34.251060	0.000446	4.460229	1.511167	-0.000179
1220	1.2129e+02	-8.5457	-34.388322	0.000345	3.446541	1.167720	-0.000138
1221	1.2139e+02	-8.6067	-34.545771	0.000395	3.953385	1.339443	-0.000158
1222	1.2149e+02	-8.6420	-34.687070	0.000355	3.547910	1.202064	-0.000142
1223	1.2159e+02	-8.6789	-34.848556	0.000405	4.054754	1.373788	-0.000162
1224	1.2169e+02	-8.7238	-35.034264	0.000466	4.662967	1.579856	-0.000187
1225	1.2179e+02	-8.7575	-35.155378	0.000304	3.041065	1.030341	-0.000122
1226	1.2189e+02	-8.8008	-35.296678	0.000355	3.547910	1.202064	-0.000142
1227	1.2199e+02	-8.8409	-35.454126	0.000395	3.953385	1.339443	-0.000158
1228	1.2209e+02	-8.8858	-35.631760	0.000446	4.460229	1.511167	-0.000179
1229	1.2219e+02	-8.9163	-35.740763	0.000274	2.736959	0.927307	-0.000110
1230	1.2229e+02	-8.9612	-35.938582	0.000497	4.967074	1.682890	-0.000199
1231	1.2239e+02	-8.9933	-36.079882	0.000355	3.547910	1.202064	-0.000142
1232	1.2248e+02	-9.0447	-36.180810	0.000253	2.534221	0.858617	-0.000101
1233	1.2258e+02	-9.0800	-36.354407	0.000436	4.358860	1.476822	-0.000174
1234	1.2268e+02	-9.1217	-36.491670	0.000345	3.446541	1.167720	-0.000138
1235	1.2278e+02	-9.1586	-36.673341	0.000456	4.561598	1.545511	-0.000183
1236	1.2288e+02	-9.1923	-36.790418	0.000294	2.939697	0.995996	-0.000118
1237	1.2298e+02	-9.2468	-36.947866	0.000395	3.953385	1.339443	-0.000158
1238	1.2308e+02	-9.2709	-37.073017	0.000314	3.142434	1.064686	-0.000126
1239	1.2318e+02	-9.3222	-37.254689	0.000456	4.561598	1.545511	-0.000183
1240	1.2328e+02	-9.3559	-37.379840	0.000314	3.142434	1.064686	-0.000126
1241	1.2338e+02	-9.3944	-37.549399	0.000426	4.257492	1.442477	-0.000170
1242	1.2348e+02	-9.4361	-37.662439	0.000284	2.838328	0.961651	-0.000114
1243	1.2358e+02	-9.4714	-37.803739	0.000355	3.547910	1.202064	-0.000142
1244	1.2368e+02	-9.5163	-37.997522	0.000487	4.865705	1.648545	-0.000195
1245	1.2378e+02	-9.5628	-38.098450	0.000253	2.534221	0.858617	-0.000101
1246	1.2388e+02	-9.5949	-38.280121	0.000456	4.561598	1.545511	-0.000183
1247	1.2398e+02	-9.6382	-38.425458	0.000365	3.649279	1.236409	-0.000146
1248	1.2408e+02	-9.6751	-38.510238	0.000213	2.128746	0.721239	-0.000085
1249	1.2418e+02	-9.7056	-38.728243	0.000547	5.473918	1.854614	-0.000219
1250	1.2428e+02	-9.7521	-38.857431	0.000324	3.243803	1.099030	-0.000130
1251	1.2438e+02	-9.7987	-38.990657	0.000335	3.345172	1.133375	-0.000134
1252	1.2447e+02	-9.8307	-39.131957	0.000355	3.547910	1.202064	-0.000142
1253	1.2457e+02	-9.8692	-39.293442	0.000405	4.054754	1.373788	-0.000162
1254	1.2467e+02	-9.9126	-39.434742	0.000355	3.547910	1.202064	-0.000142
1255	1.2477e+02	-9.9559	-39.563930	0.000324	3.243803	1.099030	-0.000130
1256	1.2487e+02	-9.9847	-39.701193	0.000345	3.446541	1.167720	-0.000138
1257	1.2497e+02	-10.0249	-39.838455	0.000345	3.446541	1.167720	-0.000138
1258	1.2507e+02	-10.0698	-40.028201	0.000476	4.764336	1.614201	-0.000191
1259	1.2517e+02	-10.1019	-40.108944	0.000203	2.027377	0.686894	-0.000081
1260	1.2527e+02	-10.1484	-40.258318	0.000375	3.750647	1.270754	-0.000150
1261	1.2537e+02	-10.1933	-40.419803	0.000405	4.054754	1.373788	-0.000162
1262	1.2547e+02	-10.2334	-40.581288	0.000405	4.054754	1.373788	-0.000162
1263	1.2557e+02	-10.2751	-40.714514	0.000335	3.345172	1.133375	-0.000134
1264	1.2567e+02	-10.3104	-40.888111	0.000436	4.358860	1.476822	-0.000174
1265	1.2577e+02	-10.3489	-40.980965	0.000233	2.331483	0.789928	-0.000093
1266	1.2587e+02	-10.3906	-41.110153	0.000324	3.243803	1.099030	-0.000130
1267	1.2597e+02	-10.4323	-41.255490	0.000365	3.649279	1.236409	-0.000146
1268	1.2607e+02	-10.4708	-41.429087	0.000436	4.358860	1.476822	-0.000174
1269	1.2617e+02	-10.5141	-41.530015	0.000253	2.534221	0.858617	-0.000101
1270	1.2627e+02	-10.5542	-41.711686	0.000456	4.561598	1.545511	-0.000183
1271	1.2636e+02	-10.5944	-41.848949	0.000345	3.446541	1.167720	-0.000138
1272	1.2646e+02	-10.6345	-42.010434	0.000405	4.054754	1.373788	-0.000162
1273	1.2656e+02	-10.6649	-42.107326	0.000243	2.432852	0.824273	-0.000097
1274	1.2666e+02	-10.7163	-42.248625	0.000355	3.547910	1.202064	-0.000142
1275	1.2676e+02	-10.7484	-42.381851	0.000335	3.345172	1.133375	-0.000134
1276	1.2686e+02	-10.7837	-42.551411	0.000426	4.257492	1.442477	-0.000170
1277	1.2696e+02	-10.8254	-42.692710	0.000355	3.547910	1.202064	-0.000142
1278	1.2706e+02	-10.8719	-42.829973	0.000345	3.446541	1.167720	-0.000138
1279	1.2716e+02	-10.9152	-42.918790	0.000223	2.230115	0.755583	-0.000089
1280	1.2726e+02	-10.9457	-43.116610	0.000497	4.967074	1.682890	-0.000199
1281	1.2736e+02	-10.9890	-43.217538	0.000253	2.534221	0.858617	-0.000101
1282	1.2746e+02	-11.0291	-43.379024	0.000405	4.054754	1.373788	-0.000162
1283	1.2756e+02	-11.0804	-43.544546	0.000416	4.156123	1.408133	-0.000166
1284	1.2766e+02	-11.1093	-43.701994	0.000395	3.953385	1.339443	-0.000158
1285	1.2776e+02	-11.1558	-43.774663	0.000182	1.824639	0.618205	-0.000073
1286	1.2786e+02	-11.1863	-43.972482	0.000497	4.967074	1.682890	-0.000199
1287	1.2796e+02	-11.2232	-44.101671	0.000324	3.243803	1.099030	-0.000130
1288	1.2806e+02	-11.2649	-44.214711	0.000284	2.838328	0.961651	-0.000114
1289	1.2816e+02	-11.3066	-44.404456	0.000476	4.764336	1.614201	-0.000191
1290	1.2826e+02	-11.3403	-44.525570	0.000304	3.041065	1.030341	-0.000122
1291	1.2835e+02	-11.3836	-44.654758	0.000324	3.243803	1.099030	-0.000130
1292	1.2845e+02	-11.4286	-44.771835	0.000294	2.939697	0.995996	-0.000118
1293	1.2855e+02	-11.4751	-44.917172	0.000365	3.649279	1.236409	-0.000146
1294	1.2865e+02	-11.5072	-45.070583	0.000385	3.852016	1.305098	-0.000154
1295	1.2875e+02	-11.5441	-45.260329	0.000476	4.764336	1.614201	-0.000191
1296	1.2885e+02	-11.5777	-45.332997	0.000182	1.824639	0.618205	-0.000073
1297	1.2895e+02	-11.6323	-45.482371	0.000375	3.750647	1.270754	-0.000150
1298	1.2905e+02	-11.6548	-45.619634	0.000345	3.446541	1.167720	-0.000138
1299	1.2915e+02	-11.7125	-45.789194	0.000426	4.257492	1.442477	-0.000170
1300	1.2925e+02	-11.7446	-45.906270	0.000294	2.939697	0.995996	-0.000118
1301	1.2935e+02	-11.7815	-46.096016	0.000476	4.764336	1.614201	-0.000191
1302	1.2945e+02	-11.8216	-46.209056	0.000284	2.838328	0.961651	-0.000114
1303	1.2955e+02	-11.8665	-46.305947	0.000243	2.432852	0.824273	-0.000097
1304	1.2965e+02	-11.8954	-46.451284	0.000365	3.649279	1.236409	-0.000146
1305	1.2975e+02	-11.9531	-46.572398	0.000304	3.041065	1.030341	-0.000122
1306	1.2985e+02	-11.9836	-46.750032	0.000446	4.460229	1.511167	-0.000179
1307	1.2995e+02	-12.0285	-46.846923	0.000243	2.432852	0.824273	-0.000097
1308	1.3005e+02	-12.0735	-46.980149	0.000335	3.345172	1.133375	-0.000134
1309	1.3015e+02	-12.0911	-47.165857	0.000466	4.662967	1.579856	-0.000187
1310	1.3025e+02	-12.1392	-47.262748	0.000243	2.432852	0.824273	-0.000097
1311	1.3034e+02	-12.1890	-47.444419	0.000456	4.561598	1.545511	-0.000183
1312	1.3044e+02	-12.2307	-47.549385	0.000264	2.635590	0.892962	-0.000105
1313	1.3054e+02	-12.2595	-47.710870	0.000405	4.054754	1.373788	-0.000162
1314	1.3064e+02	-12.3045	-47.840058	0.000324	3.243803	1.099030	-0.000130
1315	1.3074e+02	-12.3414	-47.977321	0.000345	3.446541	1.167720	-0.000138
1316	1.3084e+02	-12.3879	-48.114584	0.000345	3.446541	1.167720	-0.000138
1317	1.3094e+02	-12.4264	-48.280106	0.000416	4.156123	1.408133	-0.000166
1318	1.3104e+02	-12.4617	-48.413332	0.000335	3.345172	1.133375	-0.000134
1319	1.3114e+02	-12.5066	-48.530409	0.000294	2.939697	0.995996	-0.000118
1320	1.3124e+02	-12.5467	-48.691894	0.000405	4.054754	1.373788	-0.000162
1321	1.3134e+02	-12.5804	-48.829157	0.000345	3.446541	1.167720	-0.000138
1322	1.3144e+02	-12.6269	-48.966419	0.000345	3.446541	1.167720	-0.000138
1323	1.3154e+02	-12.6590	-49.059273	0.000233	2.331483	0.789928	-0.000093
1324	1.3164e+02	-12.7007	-49.228833	0.000426	4.257492	1.442477	-0.000170
1325	1.3174e+02	-12.7360	-49.386281	0.000395	3.953385	1.339443	-0.000158
1326	1.3184e+02	-12.7761	-49.531618	0.000365	3.649279	1.236409	-0.000146
1327	1.3194e+02	-12.8274	-49.640621	0.000274	2.736959	0.927307	-0.000110
1328	1.3204e+02	-12.8531	-49.814218	0.000436	4.358860	1.476822	-0.000174
1329	1.3214e+02	-12.8964	-49.943406	0.000324	3.243803	1.099030	-0.000130
1330	1.3224e+02	-12.9510	-50.096817	0.000385	3.852016	1.305098	-0.000154
1331	1.3234e+02	-12.9686	-50.189671	0.000233	2.331483	0.789928	-0.000093
1332	1.3243e+02	-13.0200	-50.347120	0.000395	3.953385	1.339443	-0.000158
1333	1.3253e+02	-13.0569	-50.484382	0.000345	3.446541	1.167720	-0.000138
1334	1.3263e+02	-13.1002	-50.625682	0.000355	3.547910	1.202064	-0.000142
1335	1.3273e+02	-13.1339	-50.754870	0.000324	3.243803	1.099030	-0.000130
1336	1.3283e+02	-13.1804	-50.920393	0.000416	4.156123	1.408133	-0.000166
1337	1.3293e+02	-13.2157	-51.033433	0.000284	2.838328	0.961651	-0.000114
1338	1.3303e+02	-13.2510	-51.162621	0.000324	3.243803	1.099030	-0.000130
1339	1.3313e+02	-13.3039	-51.324107	0.000405	4.054754	1.373788	-0.000162
1340	1.3323e+02	-13.3456	-51.453295	0.000324	3.243803	1.099030	-0.000130
1341	1.3333e+02	-13.3713	-51.594595	0.000355	3.547910	1.202064	-0.000142
1342	1.3343e+02	-13.4242	-51.756080	0.000405	4.054754	1.373788	-0.000162
1343	1.3353e+02	-13.4691	-51.901417	0.000365	3.649279	1.236409	-0.000146
1344	1.3363e+02	-13.4980	-51.990234	0.000223	2.230115	0.755583	-0.000089
1345	1.3373e+02	-13.5317	-52.127497	0.000345	3.446541	1.167720	-0.000138
1346	1.3383e+02	-13.5766	-52.293019	0.000416	4.156123	1.408133	-0.000166
1347	1.3393e+02	-13.6167	-52.438356	0.000365	3.649279	1.236409	-0.000146
1348	1.3403e+02	-13.6584	-52.587730	0.000375	3.750647	1.270754	-0.000150
1349	1.3413e+02	-13.6985	-52.700770	0.000284	2.838328	0.961651	-0.000114
1350	1.3423e+02	-13.7258	-52.894552	0.000487	4.865705	1.648545	-0.000195
1351	1.3432e+02	-13.7772	-52.987407	0.000233	2.331483	0.789928	-0.000093
1352	1.3442e+02	-13.8092	-53.104483	0.000294	2.939697	0.995996	-0.000118
1353	1.3452e+02	-13.8654	-53.282117	0.000446	4.460229	1.511167	-0.000179
1354	1.3462e+02	-13.8878	-53.411306	0.000324	3.243803	1.099030	-0.000130
1355	1.3472e+02	-13.9328	-53.540494	0.000324	3.243803	1.099030	-0.000130
1356	1.3482e+02	-13.9793	-53.689868	0.000375	3.750647	1.270754	-0.000150
1357	1.3492e+02	-14.0194	-53.831168	0.000355	3.547910	1.202064	-0.000142
1358	1.3502e+02	-14.0611	-54.004765	0.000436	4.358860	1.476822	-0.000174
1359	1.3512e+02	-14.0900	-54.146065	0.000355	3.547910	1.202064	-0.000142
1360	1.3522e+02	-14.1349	-54.238919	0.000233	2.331483	0.789928	-0.000093
1361	1.3532e+02	-14.1750	-54.384256	0.000365	3.649279	1.236409	-0.000146
1362	1.3542e+02	-14.2135	-54.521518	0.000345	3.446541	1.167720	-0.000138
1363	1.3552e+02	-14.2600	-54.658781	0.000345	3.446541	1.167720	-0.000138
1364	1.3562e+02	-14.2905	-54.783932	0.000314	3.142434	1.064686	-0.000126
1365	1.3572e+02	-14.3258	-54.921195	0.000345	3.446541	1.167720	-0.000138
1366	1.3582e+02	-14.3771	-55.050383	0.000324	3.243803	1.099030	-0.000130
1367	1.3592e+02	-14.4124	-55.219943	0.000426	4.257492	1.442477	-0.000170
1368	1.3602e+02	-14.4525	-55.365280	0.000365	3.649279	1.236409	-0.000146
1369	1.3612e+02	-14.4942	-55.506579	0.000355	3.547910	1.202064	-0.000142
1370	1.3622e+02	-14.5424	-55.623656	0.000294	2.939697	0.995996	-0.000118
1371	1.3631e+02	-14.5809	-55.777067	0.000385	3.852016	1.305098	-0.000154
1372	1.3641e+02	-14.6210	-55.861847	0.000213	2.128746	0.721239	-0.000085
1373	1.3651e+02	-14.6563	-56.015258	0.000385	3.852016	1.305098	-0.000154
1374	1.3661e+02	-14.6868	-56.128298	0.000284	2.838328	0.961651	-0.000114
1375	1.3671e+02	-14.7285	-56.314006	0.000466	4.662967	1.579856	-0.000187
1376	1.3681e+02	-14.7798	-56.414935	0.000253	2.534221	0.858617	-0.000101
1377	1.3691e+02	-14.8199	-56.572383	0.000395	3.953385	1.339443	-0.000158
1378	1.3701e+02	-14.8568	-56.681386	0.000274	2.736959	0.927307	-0.000110
1379	1.3711e+02	-14.8937	-56.806537	0.000314	3.142434	1.064686	-0.000126
1380	1.3721e+02	-14.9306	-57.012431	0.000517	5.169811	1.751579	-0.000207
1381	1.3731e+02	-14.9707	-57.085099	0.000182	1.824639	0.618205	-0.000073
1382	1.3741e+02	-15.0108	-57.202176	0.000294	2.939697	0.995996	-0.000118
1383	1.3751e+02	-15.0541	-57.359625	0.000395	3.953385	1.339443	-0.000158
1384	1.3761e+02	-15.0910	-57.517073	0.000395	3.953385	1.339443	-0.000158
1385	1.3771e+02	-15.1440	-57.626076	0.000274	2.736959	0.927307	-0.000110
1386	1.3781e+02	-15.1696	-57.823895	0.000497	4.967074	1.682890	-0.000199
1387	1.3791e+02	-15.2113	-57.924824	0.000253	2.534221	0.858617	-0.000101
1388	1.3801e+02	-15.2482	-58.074198	0.000375	3.750647	1.270754	-0.000150
1389	1.3811e+02	-15.2915	-58.243757	0.000426	4.257492	1.442477	-0.000170
1390	1.3821e+02	-15.3300	-58.348723	0.000264	2.635590	0.892962	-0.000105
1391	1.3831e+02	-15.3637	-58.502134	0.000385	3.852016	1.305098	-0.000154
1392	1.3840e+02	-15.4167	-58.615174	0.000284	2.838328	0.961651	-0.000114
1393	1.3850e+02	-15.4504	-58.744362	0.000324	3.243803	1.099030	-0.000130
1394	1.3860e+02	-15.4841	-58.893736	0.000375	3.750647	1.270754	-0.000150
1395	1.3870e+02	-15.5290	-58.962367	0.000172	1.723270	0.583860	-0.000069
1396	1.3880e+02	-15.5787	-59.123853	0.000405	4.054754	1.373788	-0.000162
1397	1.3890e+02	-15.6076	-59.269190	0.000365	3.649279	1.236409	-0.000146
1398	1.3900e+02	-15.6509	-59.426638	0.000395	3.953385	1.339443	-0.000158
1399	1.3910e+02	-15.6974	-59.535641	0.000274	2.736959	0.927307	-0.000110
1400	1.3920e+02	-15.7279	-59.676940	0.000355	3.547910	1.202064	-0.000142
1401	1.3930e+02	-15.7728	-59.794017	0.000294	2.939697	0.995996	-0.000118
1402	1.3940e+02	-15.8081	-59.939354	0.000365	3.649279	1.236409	-0.000146
1403	1.3950e+02	-15.8546	-60.044320	0.000264	2.635590	0.892962	-0.000105
1404	1.3960e+02	-15.8867	-60.185620	0.000355	3.547910	1.202064	-0.000142
1405	1.3970e+02	-15.9316	-60.347105	0.000405	4.054754	1.373788	-0.000162
1406	1.3980e+02	-15.9637	-60.448033	0.000253	2.534221	0.858617	-0.000101
1407	1.3990e+02	-16.0070	-60.593370	0.000365	3.649279	1.236409	-0.000146
1408	1.4000e+02	-16.0471	-60.730633	0.000345	3.446541	1.167720	-0.000138
1409	1.4010e+02	-16.0937	-60.859821	0.000324	3.243803	1.099030	-0.000130
1410	1.4020e+02	-16.1354	-61.005158	0.000365	3.649279	1.236409	-0.000146
1411	1.4029e+02	-16.1594	-61.098012	0.000233	2.331483	0.789928	-0.000093
1412	1.4039e+02	-16.2028	-61.251423	0.000385	3.852016	1.305098	-0.000154
1413	1.4049e+02	-16.2461	-61.376575	0.000314	3.142434	1.064686	-0.000126
1414	1.4059e+02	-16.2878	-61.529986	0.000385	3.852016	1.305098	-0.000154
1415	1.4069e+02	-16.3279	-61.647063	0.000294	2.939697	0.995996	-0.000118
1416	1.4079e+02	-16.3600	-61.735880	0.000223	2.230115	0.755583	-0.000089
1417	1.4089e+02	-16.4097	-61.893328	0.000395	3.953385	1.339443	-0.000158
1418	1.4099e+02	-16.4514	-62.046739	0.000385	3.852016	1.305098	-0.000154
1419	1.4109e+02	-16.4979	-62.143630	0.000243	2.432852	0.824273	-0.000097
1420	1.4119e+02	-16.5236	-62.293004	0.000375	3.750647	1.270754	-0.000150
1421	1.4129e+02	-16.5717	-62.418156	0.000314	3.142434	1.064686	-0.000126
1422	1.4139e+02	-16.6070	-62.563493	0.000365	3.649279	1.236409	-0.000146
1423	1.4149e+02	-16.6423	-62.676532	0.000284	2.838328	0.961651	-0.000114
1424	1.4159e+02	-16.6936	-62.801684	0.000314	3.142434	1.064686	-0.000126
1425	1.4169e+02	-16.7289	-62.963169	0.000405	4.054754	1.373788	-0.000162
1426	1.4179e+02	-16.7706	-63.076209	0.000284	2.838328	0.961651	-0.000114
1427	1.4189e+02	-16.8059	-63.217509	0.000355	3.547910	1.202064	-0.000142
1428	1.4199e+02	-16.8396	-63.322474	0.000264	2.635590	0.892962	-0.000105
1429	1.4209e+02	-16.8942	-63.435514	0.000284	2.838328	0.961651	-0.000114
1430	1.4219e+02	-16.9263	-63.568739	0.000335	3.345172	1.133375	-0.000134
1431	1.4228e+02	-16.9680	-63.722150	0.000385	3.852016	1.305098	-0.000154
1432	1.4238e+02	-17.0065	-63.831153	0.000274	2.736959	0.927307	-0.000110
1433	1.4248e+02	-17.0498	-63.936119	0.000264	2.635590	0.892962	-0.000105
1434	1.4258e+02	-17.0867	-64.081456	0.000365	3.649279	1.236409	-0.000146
1435	1.4268e+02	-17.1284	-64.182384	0.000253	2.534221	0.858617	-0.000101
1436	1.4278e+02	-17.1573	-64.331758	0.000375	3.750647	1.270754	-0.000150
1437	1.4288e+02	-17.2038	-64.513429	0.000456	4.561598	1.545511	-0.000183
1438	1.4298e+02	-17.2407	-64.561875	0.000122	1.216426	0.412136	-0.000049
1439	1.4308e+02	-17.2808	-64.743546	0.000456	4.561598	1.545511	-0.000183
1440	1.4318e+02	-17.3177	-64.868697	0.000314	3.142434	1.064686	-0.000126
1441	1.4328e+02	-17.3594	-65.009997	0.000355	3.547910	1.202064	-0.000142
1442	1.4338e+02	-17.3995	-65.086702	0.000193	1.926008	0.652549	-0.000077
1443	1.4348e+02	-17.4444	-65.260299	0.000436	4.358860	1.476822	-0.000174
1444	1.4358e+02	-17.4845	-65.389488	0.000324	3.243803	1.099030	-0.000130
1445	1.4368e+02	-17.5278	-65.510602	0.000304	3.041065	1.030341	-0.000122
1446	1.4378e+02	-17.5663	-65.688236	0.000446	4.460229	1.511167	-0.000179
1447	1.4388e+02	-17.6000	-65.748793	0.000152	1.520533	0.515170	-0.000061
1448	1.4398e+02	-17.6385	-65.882018	0.000335	3.345172	1.133375	-0.000134
1449	1.4408e+02	-17.6786	-66.063689	0.000456	4.561598	1.545511	-0.000183
1450	1.4418e+02	-17.7252	-66.168655	0.000264	2.635590	0.892962	-0.000105
1451	1.4428e+02	-17.7685	-66.233249	0.000162	1.621902	0.549515	-0.000065
1452	1.4437e+02	-17.7974	-66.390697	0.000395	3.953385	1.339443	-0.000158
1453	1.4447e+02	-17.8391	-66.548146	0.000395	3.953385	1.339443	-0.000158
1454	1.4457e+02	-17.8840	-66.661185	0.000284	2.838328	0.961651	-0.000114
1455	1.4467e+02	-17.9161	-66.802485	0.000355	3.547910	1.202064	-0.000142
1456	1.4477e+02	-17.9642	-66.951859	0.000375	3.750647	1.270754	-0.000150
1457	1.4487e+02	-17.9979	-67.081047	0.000324	3.243803	1.099030	-0.000130
1458	1.4497e+02	-18.0412	-67.214273	0.000335	3.345172	1.133375	-0.000134
1459	1.4507e+02	-18.0877	-67.343461	0.000324	3.243803	1.099030	-0.000130
1460	1.4517e+02	-18.1198	-67.448427	0.000264	2.635590	0.892962	-0.000105
1461	1.4527e+02	-18.1695	-67.593764	0.000365	3.649279	1.236409	-0.000146
1462	1.4537e+02	-18.2048	-67.710841	0.000294	2.939697	0.995996	-0.000118
1463	1.4547e+02	-18.2401	-67.872326	0.000405	4.054754	1.373788	-0.000162
1464	1.4557e+02	-18.2818	-67.961143	0.000223	2.230115	0.755583	-0.000089
1465	1.4567e+02	-18.3235	-68.094368	0.000335	3.345172	1.133375	-0.000134
1466	1.4577e+02	-18.3572	-68.251817	0.000395	3.953385	1.339443	-0.000158
1467	1.4587e+02	-18.3957	-68.312374	0.000152	1.520533	0.515170	-0.000061
1468	1.4597e+02	-18.4391	-68.490008	0.000446	4.460229	1.511167	-0.000179
1469	1.4607e+02	-18.4776	-68.643419	0.000385	3.852016	1.305098	-0.000154
1470	1.4617e+02	-18.5273	-68.744347	0.000253	2.534221	0.858617	-0.000101
1471	1.4626e+02	-18.5626	-68.881610	0.000345	3.446541	1.167720	-0.000138
1472	1.4636e+02	-18.5915	-69.035021	0.000385	3.852016	1.305098	-0.000154
1473	1.4646e+02	-18.6396	-69.152098	0.000294	2.939697	0.995996	-0.000118
1474	1.4656e+02	-18.6749	-69.293398	0.000355	3.547910	1.202064	-0.000142
1475	1.4666e+02	-18.7198	-69.402400	0.000274	2.736959	0.927307	-0.000110
1476	1.4676e+02	-18.7551	-69.539663	0.000345	3.446541	1.167720	-0.000138
1477	1.4686e+02	-18.7984	-69.680963	0.000355	3.547910	1.202064	-0.000142
1478	1.4696e+02	-18.8417	-69.806114	0.000314	3.142434	1.064686	-0.000126
1479	1.4706e+02	-18.8818	-69.935302	0.000324	3.243803	1.099030	-0.000130
1480	1.4716e+02	-18.9235	-70.092751	0.000395	3.953385	1.339443	-0.000158
1481	1.4726e+02	-18.9572	-70.201753	0.000274	2.736959	0.927307	-0.000110
1482	1.4736e+02	-19.0086	-70.334979	0.000335	3.345172	1.133375	-0.000134
1483	1.4746e+02	-19.0438	-70.468204	0.000335	3.345172	1.133375	-0.000134
1484	1.4756e+02	-19.0840	-70.593356	0.000314	3.142434	1.064686	-0.000126
1485	1.4766e+02	-19.1080	-70.714470	0.000304	3.041065	1.030341	-0.000122
1486	1.4776e+02	-19.1577	-70.912289	0.000497	4.967074	1.682890	-0.000199
1487	1.4786e+02	-19.1914	-71.001106	0.000223	2.230115	0.755583	-0.000089
1488	1.4796e+02	-19.2380	-71.134332	0.000335	3.345172	1.133375	-0.000134
1489	1.4806e+02	-19.2684	-71.279669	0.000365	3.649279	1.236409	-0.000146
1490	1.4816e+02	-19.3134	-71.408857	0.000324	3.243803	1.099030	-0.000130
1491	1.4825e+02	-19.3551	-71.529971	0.000304	3.041065	1.030341	-0.000122
1492	1.4835e+02	-19.3936	-71.715679	0.000466	4.662967	1.579856	-0.000187
1493	1.4845e+02	-19.4273	-71.828719	0.000284	2.838328	0.961651	-0.000114
1494	1.4855e+02	-19.4658	-71.998279	0.000426	4.257492	1.442477	-0.000170
1495	1.4865e+02	-19.5091	-72.091133	0.000233	2.331483	0.789928	-0.000093
1496	1.4875e+02	-19.5476	-72.240507	0.000375	3.750647	1.270754	-0.000150
1497	1.4885e+02	-19.5957	-72.385844	0.000365	3.649279	1.236409	-0.000146
1498	1.4895e+02	-19.6262	-72.535218	0.000375	3.750647	1.270754	-0.000150
1499	1.4905e+02	-19.6743	-72.656332	0.000304	3.041065	1.030341	-0.000122
1500	1.4915e+02	-19.7032	-72.821854	0.000416	4.156123	1.408133	-0.000166
1501	1.4925e+02	-19.7465	-72.983340	0.000405	4.054754	1.373788	-0.000162
1502	1.4935e+02	-19.7882	-73.092343	0.000274	2.736959	0.927307	-0.000110
1503	1.4945e+02	-19.8283	-73.213457	0.000304	3.041065	1.030341	-0.000122
1504	1.4955e+02	-19.8684	-73.334571	0.000304	3.041065	1.030341	-0.000122
1505	1.4965e+02	-19.9133	-73.504130	0.000426	4.257492	1.442477	-0.000170
1506	1.4975e+02	-19.9551	-73.617170	0.000284	2.838328	0.961651	-0.000114
1507	1.4985e+02	-19.9903	-73.839213	0.000558	5.575287	1.888958	-0.000223
1508	1.4995e+02	-19.9534	-73.730210	0.000274	2.736959	0.927307	0.000110
1509	1.5005e+02	-19.9101	-73.730210	0.000000	0.000000	0.000000	0.000000
1510	1.5015e+02	-19.8700	-73.653504	0.000193	1.926008	0.652549	0.000077
1511	1.5025e+02	-19.8315	-73.584873	0.000172	1.723270	0.583860	0.000069
1512	1.5034e+02	-19.7898	-73.524316	0.000152	1.520533	0.515170	0.000061
1513	1.5044e+02	-19.7593	-73.463759	0.000152	1.520533	0.515170	0.000061
1514	1.5054e+02	-19.7096	-73.455685	0.000020	0.202738	0.068689	0.000008
1515	1.5064e+02	-19.6775	-73.326496	0.000324	3.243803	1.099030	0.000130
1516	1.5074e+02	-19.6390	-73.314385	0.000030	0.304107	0.103034	0.000012
1517	1.5084e+02	-19.5909	-73.237679	0.000193	1.926008	0.652549	0.000077
1518	1.5094e+02	-19.5524	-73.173085	0.000162	1.621902	0.549515	0.000065
1519	1.5104e+02	-19.5091	-73.112528	0.000152	1.520533	0.515170	0.000061
1520	1.5114e+02	-19.4658	-73.047934	0.000162	1.621902	0.549515	0.000065
1521	1.5124e+02	-19.4401	-72.979303	0.000172	1.723270	0.583860	0.000069
1522	1.5134e+02	-19.3904	-72.922783	0.000142	1.419164	0.480826	0.000057
1523	1.5144e+02	-19.3503	-72.842040	0.000203	2.027377	0.686894	0.000081
1524	1.5154e+02	-19.3230	-72.765335	0.000193	1.926008	0.652549	0.000077
1525	1.5164e+02	-19.2668	-72.664406	0.000253	2.534221	0.858617	0.000101
1526	1.5174e+02	-19.2380	-72.628072	0.000091	0.912320	0.309102	0.000037
1527	1.5184e+02	-19.1898	-72.543292	0.000213	2.128746	0.721239	0.000085
1528	1.5194e+02	-19.1529	-72.494846	0.000122	1.216426	0.412136	0.000049
1529	1.5204e+02	-19.1241	-72.406029	0.000223	2.230115	0.755583	0.000089
1530	1.5214e+02	-19.0823	-72.313175	0.000233	2.331483	0.789928	0.000093
1531	1.5224e+02	-19.0342	-72.220321	0.000233	2.331483	0.789928	0.000093
1532	1.5233e+02	-19.0086	-72.171876	0.000122	1.216426	0.412136	0.000049
1533	1.5243e+02	-18.9476	-72.050762	0.000304	3.041065	1.030341	0.000122
1534	1.5253e+02	-18.9155	-72.018464	0.000081	0.810951	0.274758	0.000032
1535	1.5263e+02	-18.8802	-71.921573	0.000243	2.432852	0.824273	0.000097
1536	1.5273e+02	-18.8385	-71.832756	0.000223	2.230115	0.755583	0.000089
1537	1.5283e+02	-18.7984	-71.772199	0.000152	1.520533	0.515170	0.000061
1538	1.5293e+02	-18.7567	-71.651085	0.000304	3.041065	1.030341	0.000122
1539	1.5303e+02	-18.7150	-71.562268	0.000223	2.230115	0.755583	0.000089
1540	1.5313e+02	-18.6765	-71.525934	0.000091	0.912320	0.309102	0.000037
1541	1.5323e+02	-18.6380	-71.400783	0.000314	3.142434	1.064686	0.000126
1542	1.5333e+02	-18.5979	-71.328114	0.000182	1.824639	0.618205	0.000073
1543	1.5343e+02	-18.5626	-71.271594	0.000142	1.419164	0.480826	0.000057
1544	1.5353e+02	-18.5241	-71.158555	0.000284	2.838328	0.961651	0.000114
1545	1.5363e+02	-18.4808	-71.045515	0.000284	2.838328	0.961651	0.000114
1546	1.5373e+02	-18.4391	-70.993032	0.000132	1.317795	0.446481	0.000053
1547	1.5383e+02	-18.4006	-70.916326	0.000193	1.926008	0.652549	0.000077
1548	1.5393e+02	-18.3604	-70.827509	0.000223	2.230115	0.755583	0.000089
1549	1.5403e+02	-18.3139	-70.714470	0.000284	2.838328	0.961651	0.000114
1550	1.5413e+02	-18.2850	-70.629690	0.000213	2.128746	0.721239	0.000085
1551	1.5422e+02	-18.2273	-70.552984	0.000193	1.926008	0.652549	0.000077
1552	1.5432e+02	-18.2000	-70.472241	0.000203	2.027377	0.686894	0.000081
1553	1.5442e+02	-18.1535	-70.359202	0.000284	2.838328	0.961651	0.000114
1554	1.5452e+02	-18.1278	-70.274422	0.000213	2.128746	0.721239	0.000085
1555	1.5462e+02	-18.0813	-70.197716	0.000193	1.926008	0.652549	0.000077
1556	1.5472e+02	-18.0428	-70.088714	0.000274	2.736959	0.927307	0.000110
1557	1.5482e+02	-18.0043	-70.032194	0.000142	1.419164	0.480826	0.000057
1558	1.5492e+02	-17.9546	-69.911080	0.000304	3.041065	1.030341	0.000122
1559	1.5502e+02	-17.9129	-69.810151	0.000253	2.534221	0.858617	0.000101
1560	1.5512e+02	-17.8840	-69.749594	0.000152	1.520533	0.515170	0.000061
1561	1.5522e+02	-17.8439	-69.693074	0.000142	1.419164	0.480826	0.000057
1562	1.5532e+02	-17.8038	-69.547737	0.000365	3.649279	1.236409	0.000146
1563	1.5542e+02	-17.7621	-69.458920	0.000223	2.230115	0.755583	0.000089
1564	1.5552e+02	-17.7204	-69.357992	0.000253	2.534221	0.858617	0.000101
1565	1.5562e+02	-17.6786	-69.317621	0.000101	1.013688	0.343447	0.000041
1566	1.5572e+02	-17.6369	-69.168247	0.000375	3.750647	1.270754	0.000150
1567	1.5582e+02	-17.6000	-69.079430	0.000223	2.230115	0.755583	0.000089
1568	1.5592e+02	-17.5663	-69.010798	0.000172	1.723270	0.583860	0.000069
1569	1.5602e+02	-17.5246	-68.893721	0.000294	2.939697	0.995996	0.000118
1570	1.5612e+02	-17.4813	-68.792793	0.000253	2.534221	0.858617	0.000101
1571	1.5622e+02	-17.4364	-68.687827	0.000264	2.635590	0.892962	0.000105
1572	1.5631e+02	-17.3931	-68.639382	0.000122	1.216426	0.412136	0.000049
1573	1.5641e+02	-17.3546	-68.534416	0.000264	2.635590	0.892962	0.000105
1574	1.5651e+02	-17.3337	-68.372931	0.000405	4.054754	1.373788	0.000162
1575	1.5661e+02	-17.2808	-68.340634	0.000081	0.810951	0.274758	0.000032
1576	1.5671e+02	-17.2487	-68.227594	0.000284	2.838328	0.961651	0.000114
1577	1.5681e+02	-17.2102	-68.094368	0.000335	3.345172	1.133375	0.000134
1578	1.5691e+02	-17.1701	-68.037849	0.000142	1.419164	0.480826	0.000057
1579	1.5701e+02	-17.1284	-67.912697	0.000314	3.142434	1.064686	0.000126
1580	1.5711e+02	-17.0947	-67.807732	0.000264	2.635590	0.892962	0.000105
1581	1.5721e+02	-17.0434	-67.694692	0.000284	2.838328	0.961651	0.000114
1582	1.5731e+02	-17.0017	-67.670469	0.000061	0.608213	0.206068	0.000024
1583	1.5741e+02	-16.9664	-67.508984	0.000405	4.054754	1.373788	0.000162
1584	1.5751e+02	-16.9198	-67.456501	0.000132	1.317795	0.446481	0.000053
1585	1.5761e+02	-16.8846	-67.327313	0.000324	3.243803	1.099030	0.000130
1586	1.5771e+02	-16.8428	-67.238496	0.000223	2.230115	0.755583	0.000089
1587	1.5781e+02	-16.8059	-67.105270	0.000335	3.345172	1.133375	0.000134
1588	1.5791e+02	-16.7658	-67.024528	0.000203	2.027377	0.686894	0.000081
1589	1.5801e+02	-16.7225	-66.923599	0.000253	2.534221	0.858617	0.000101
1590	1.5811e+02	-16.6840	-66.798448	0.000314	3.142434	1.064686	0.000126
1591	1.5821e+02	-16.6519	-66.737891	0.000152	1.520533	0.515170	0.000061
1592	1.5830e+02	-16.6118	-66.616777	0.000304	3.041065	1.030341	0.000122
1593	1.5840e+02	-16.5669	-66.515848	0.000253	2.534221	0.858617	0.000101
1594	1.5850e+02	-16.5204	-66.431069	0.000213	2.128746	0.721239	0.000085
1595	1.5860e+02	-16.4867	-66.289769	0.000355	3.547910	1.202064	0.000142
1596	1.5870e+02	-16.4370	-66.196915	0.000233	2.331483	0.789928	0.000093
1597	1.5880e+02	-16.4049	-66.087912	0.000274	2.736959	0.927307	0.000110
1598	1.5890e+02	-16.3616	-65.999095	0.000223	2.230115	0.755583	0.000089
1599	1.5900e+02	-16.3247	-65.849721	0.000375	3.750647	1.270754	0.000150
1600	1.5910e+02	-16.2878	-65.764941	0.000213	2.128746	0.721239	0.000085
1601	1.5920e+02	-16.2396	-65.655939	0.000274	2.736959	0.927307	0.000110
1602	1.5930e+02	-16.2092	-65.575196	0.000203	2.027377	0.686894	0.000081
1603	1.5940e+02	-16.1707	-65.474267	0.000253	2.534221	0.858617	0.000101
1604	1.5950e+02	-16.1274	-65.332968	0.000355	3.547910	1.202064	0.000142
1605	1.5960e+02	-16.1001	-65.228002	0.000264	2.635590	0.892962	0.000105
1606	1.5970e+02	-16.0552	-65.131111	0.000243	2.432852	0.824273	0.000097
1607	1.5980e+02	-16.0070	-65.018071	0.000284	2.838328	0.961651	0.000114
1608	1.5990e+02	-15.9669	-64.917143	0.000253	2.534221	0.858617	0.000101
1609	1.6000e+02	-15.9397	-64.775843	0.000355	3.547910	1.202064	0.000142
1610	1.6010e+02	-15.8899	-64.707212	0.000172	1.723270	0.583860	0.000069
1611	1.6019e+02	-15.8450	-64.630506	0.000193	1.926008	0.652549	0.000077
1612	1.6029e+02	-15.8065	-64.493243	0.000345	3.446541	1.167720	0.000138
1613	1.6039e+02	-15.7696	-64.388278	0.000264	2.635590	0.892962	0.000105
1614	1.6049e+02	-15.7263	-64.279275	0.000274	2.736959	0.927307	0.000110
1615	1.6059e+02	-15.6846	-64.222755	0.000142	1.419164	0.480826	0.000057
1616	1.6069e+02	-15.6461	-64.049158	0.000436	4.358860	1.476822	0.000174
1617	1.6079e+02	-15.6156	-63.968416	0.000203	2.027377	0.686894	0.000081
1618	1.6089e+02	-15.5787	-63.871525	0.000243	2.432852	0.824273	0.000097
1619	1.6099e+02	-15.5434	-63.782708	0.000223	2.230115	0.755583	0.000089
1620	1.6109e+02	-15.4841	-63.625259	0.000395	3.953385	1.339443	0.000158
1621	1.6119e+02	-15.4520	-63.544517	0.000203	2.027377	0.686894	0.000081
1622	1.6129e+02	-15.4167	-63.431477	0.000284	2.838328	0.961651	0.000114
1623	1.6139e+02	-15.3734	-63.338623	0.000233	2.331483	0.789928	0.000093
1624	1.6149e+02	-15.3333	-63.201360	0.000345	3.446541	1.167720	0.000138
1625	1.6159e+02	-15.2883	-63.072172	0.000324	3.243803	1.099030	0.000130
1626	1.6169e+02	-15.2514	-63.011615	0.000152	1.520533	0.515170	0.000061
1627	1.6179e+02	-15.2097	-62.890501	0.000304	3.041065	1.030341	0.000122
1628	1.6189e+02	-15.1744	-62.777461	0.000284	2.838328	0.961651	0.000114
1629	1.6199e+02	-15.1311	-62.636161	0.000355	3.547910	1.202064	0.000142
1630	1.6209e+02	-15.0846	-62.563493	0.000182	1.824639	0.618205	0.000073
1631	1.6219e+02	-15.0509	-62.462564	0.000253	2.534221	0.858617	0.000101
1632	1.6228e+02	-15.0172	-62.349524	0.000284	2.838328	0.961651	0.000114
1633	1.6238e+02	-14.9739	-62.264744	0.000213	2.128746	0.721239	0.000085
1634	1.6248e+02	-14.9402	-62.131519	0.000335	3.345172	1.133375	0.000134
1635	1.6258e+02	-14.8905	-62.014442	0.000294	2.939697	0.995996	0.000118
1636	1.6268e+02	-14.8568	-61.881217	0.000335	3.345172	1.133375	0.000134
1637	1.6278e+02	-14.8071	-61.739917	0.000355	3.547910	1.202064	0.000142
1638	1.6288e+02	-14.7734	-61.675323	0.000162	1.621902	0.549515	0.000065
1639	1.6298e+02	-14.7349	-61.582469	0.000233	2.331483	0.789928	0.000093
1640	1.6308e+02	-14.6916	-61.469429	0.000284	2.838328	0.961651	0.000114
1641	1.6318e+02	-14.6482	-61.356389	0.000284	2.838328	0.961651	0.000114
1642	1.6328e+02	-14.6194	-61.223163	0.000335	3.345172	1.133375	0.000134
1643	1.6338e+02	-14.5729	-61.138384	0.000213	2.128746	0.721239	0.000085
1644	1.6348e+02	-14.5327	-61.009195	0.000324	3.243803	1.099030	0.000130
1645	1.6358e+02	-14.4894	-60.932490	0.000193	1.926008	0.652549	0.000077
1646	1.6368e+02	-14.4557	-60.795227	0.000345	3.446541	1.167720	0.000138
1647	1.6378e+02	-14.4060	-60.666039	0.000324	3.243803	1.099030	0.000130
1648	1.6388e+02	-14.3723	-60.573185	0.000233	2.331483	0.789928	0.000093
1649	1.6398e+02	-14.3386	-60.468219	0.000264	2.635590	0.892962	0.000105
1650	1.6408e+02	-14.3001	-60.343068	0.000314	3.142434	1.064686	0.000126
1651	1.6418e+02	-14.2616	-60.246177	0.000243	2.432852	0.824273	0.000097
1652	1.6427e+02	-14.2199	-60.145248	0.000253	2.534221	0.858617	0.000101
1653	1.6437e+02	-14.1734	-59.995874	0.000375	3.750647	1.270754	0.000150
1654	1.6447e+02	-14.1397	-59.907057	0.000223	2.230115	0.755583	0.000089
1655	1.6457e+02	-14.0964	-59.798055	0.000274	2.736959	0.927307	0.000110
1656	1.6467e+02	-14.0499	-59.685015	0.000284	2.838328	0.961651	0.000114
1657	1.6477e+02	-14.0210	-59.539678	0.000365	3.649279	1.236409	0.000146
1658	1.6487e+02	-13.9825	-59.495269	0.000112	1.115057	0.377792	0.000045
1659	1.6497e+02	-13.9360	-59.349932	0.000365	3.649279	1.236409	0.000146
1660	1.6507e+02	-13.9023	-59.240930	0.000274	2.736959	0.927307	0.000110
1661	1.6517e+02	-13.8606	-59.135964	0.000264	2.635590	0.892962	0.000105
1662	1.6527e+02	-13.8157	-58.982553	0.000385	3.852016	1.305098	0.000154
1663	1.6537e+02	-13.7755	-58.921996	0.000152	1.520533	0.515170	0.000061
1664	1.6547e+02	-13.7370	-58.784733	0.000345	3.446541	1.167720	0.000138
1665	1.6557e+02	-13.6953	-58.716102	0.000172	1.723270	0.583860	0.000069
1666	1.6567e+02	-13.6568	-58.590951	0.000314	3.142434	1.064686	0.000126
1667	1.6577e+02	-13.6231	-58.485985	0.000264	2.635590	0.892962	0.000105
1668	1.6587e+02	-13.5766	-58.348723	0.000345	3.446541	1.167720	0.000138
1669	1.6597e+02	-13.5349	-58.247794	0.000253	2.534221	0.858617	0.000101
1670	1.6607e+02	-13.4980	-58.158977	0.000223	2.230115	0.755583	0.000089
1671	1.6616e+02	-13.4643	-57.973269	0.000466	4.662967	1.579856	0.000187
1672	1.6626e+02	-13.4258	-57.916749	0.000142	1.419164	0.480826	0.000057
1673	1.6636e+02	-13.3921	-57.787561	0.000324	3.243803	1.099030	0.000130
1674	1.6646e+02	-13.3360	-57.698744	0.000223	2.230115	0.755583	0.000089
1675	1.6656e+02	-13.3007	-57.557444	0.000355	3.547910	1.202064	0.000142
1676	1.6666e+02	-13.2606	-57.456516	0.000253	2.534221	0.858617	0.000101
1677	1.6676e+02	-13.2237	-57.359625	0.000243	2.432852	0.824273	0.000097
1678	1.6686e+02	-13.1756	-57.210251	0.000375	3.750647	1.270754	0.000150
1679	1.6696e+02	-13.1419	-57.125471	0.000213	2.128746	0.721239	0.000085
1680	1.6706e+02	-13.0970	-57.028579	0.000243	2.432852	0.824273	0.000097
1681	1.6716e+02	-13.0601	-56.931688	0.000243	2.432852	0.824273	0.000097
1682	1.6726e+02	-13.0151	-56.810574	0.000304	3.041065	1.030341	0.000122
1683	1.6736e+02	-12.9734	-56.693497	0.000294	2.939697	0.995996	0.000118
1684	1.6746e+02	-12.9462	-56.576420	0.000294	2.939697	0.995996	0.000118
1685	1.6756e+02	-12.9028	-56.455306	0.000304	3.041065	1.030341	0.000122
1686	1.6766e+02	-12.8579	-56.350341	0.000264	2.635590	0.892962	0.000105
1687	1.6776e+02	-12.8226	-56.196929	0.000385	3.852016	1.305098	0.000154
1688	1.6786e+02	-12.7809	-56.124261	0.000182	1.824639	0.618205	0.000073
1689	1.6796e+02	-12.7440	-56.047555	0.000193	1.926008	0.652549	0.000077
1690	1.6806e+02	-12.7039	-55.890107	0.000395	3.953385	1.339443	0.000158
1691	1.6816e+02	-12.6718	-55.801290	0.000223	2.230115	0.755583	0.000089
1692	1.6825e+02	-12.6285	-55.664028	0.000345	3.446541	1.167720	0.000138
1693	1.6835e+02	-12.5884	-55.575211	0.000223	2.230115	0.755583	0.000089
1694	1.6845e+02	-12.5467	-55.474282	0.000253	2.534221	0.858617	0.000101
1695	1.6855e+02	-12.5002	-55.332982	0.000355	3.547910	1.202064	0.000142
1696	1.6865e+02	-12.4697	-55.264351	0.000172	1.723270	0.583860	0.000069
1697	1.6875e+02	-12.4184	-55.082680	0.000456	4.561598	1.545511	0.000183
1698	1.6885e+02	-12.3879	-54.981752	0.000253	2.534221	0.858617	0.000101
1699	1.6895e+02	-12.3398	-54.868712	0.000284	2.838328	0.961651	0.000114
1700	1.6905e+02	-12.2948	-54.787969	0.000203	2.027377	0.686894	0.000081
1701	1.6915e+02	-12.2676	-54.622447	0.000416	4.156123	1.408133	0.000166
1702	1.6925e+02	-12.2210	-54.537667	0.000213	2.128746	0.721239	0.000085
1703	1.6935e+02	-12.1874	-54.384256	0.000385	3.852016	1.305098	0.000154
1704	1.6945e+02	-12.1521	-54.271216	0.000284	2.838328	0.961651	0.000114
1705	1.6955e+02	-12.1087	-54.178362	0.000233	2.331483	0.789928	0.000093
1706	1.6965e+02	-12.0783	-54.045136	0.000335	3.345172	1.133375	0.000134
1707	1.6975e+02	-12.0157	-53.924022	0.000304	3.041065	1.030341	0.000122
1708	1.6985e+02	-11.9820	-53.770611	0.000385	3.852016	1.305098	0.000154
1709	1.6995e+02	-11.9419	-53.697942	0.000182	1.824639	0.618205	0.000073
1710	1.7005e+02	-11.9018	-53.609125	0.000223	2.230115	0.755583	0.000089
1711	1.7015e+02	-11.8633	-53.435529	0.000436	4.358860	1.476822	0.000174
1712	1.7024e+02	-11.8296	-53.350749	0.000213	2.128746	0.721239	0.000085
1713	1.7034e+02	-11.7959	-53.213486	0.000345	3.446541	1.167720	0.000138
1714	1.7044e+02	-11.7542	-53.072186	0.000355	3.547910	1.202064	0.000142
1715	1.7054e+02	-11.7061	-52.987407	0.000213	2.128746	0.721239	0.000085
1716	1.7064e+02	-11.6612	-52.882441	0.000264	2.635590	0.892962	0.000105
1717	1.7074e+02	-11.6275	-52.777476	0.000264	2.635590	0.892962	0.000105
1718	1.7084e+02	-11.5890	-52.644250	0.000335	3.345172	1.133375	0.000134
1719	1.7094e+02	-11.5489	-52.523136	0.000304	3.041065	1.030341	0.000122
1720	1.7104e+02	-11.5072	-52.442393	0.000203	2.027377	0.686894	0.000081
1721	1.7114e+02	-11.4767	-52.293019	0.000375	3.750647	1.270754	0.000150
1722	1.7124e+02	-11.4270	-52.184017	0.000274	2.736959	0.927307	0.000110
1723	1.7134e+02	-11.3965	-52.026568	0.000395	3.953385	1.339443	0.000158
1724	1.7144e+02	-11.3419	-51.970048	0.000142	1.419164	0.480826	0.000057
1725	1.7154e+02	-11.3163	-51.772229	0.000497	4.967074	1.682890	0.000199
1726	1.7164e+02	-11.2729	-51.695523	0.000193	1.926008	0.652549	0.000077
1727	1.7174e+02	-11.2232	-51.554223	0.000355	3.547910	1.202064	0.000142
1728	1.7184e+02	-11.1895	-51.469444	0.000213	2.128746	0.721239	0.000085
1729	1.7194e+02	-11.1542	-51.307958	0.000405	4.054754	1.373788	0.000162
1730	1.7204e+02	-11.1093	-51.174733	0.000335	3.345172	1.133375	0.000134
1731	1.7213e+02	-11.0692	-51.053619	0.000304	3.041065	1.030341	0.000122
1732	1.7223e+02	-11.0243	-50.940579	0.000284	2.838328	0.961651	0.000114
1733	1.7233e+02	-10.9938	-50.811390	0.000324	3.243803	1.099030	0.000130
1734	1.7243e+02	-10.9505	-50.694313	0.000294	2.939697	0.995996	0.000118
1735	1.7253e+02	-10.9088	-50.544939	0.000375	3.750647	1.270754	0.000150
1736	1.7263e+02	-10.8735	-50.452085	0.000233	2.331483	0.789928	0.000093
1737	1.7273e+02	-10.8334	-50.326934	0.000314	3.142434	1.064686	0.000126
1738	1.7283e+02	-10.7917	-50.205820	0.000304	3.041065	1.030341	0.000122
1739	1.7293e+02	-10.7484	-50.088743	0.000294	2.939697	0.995996	0.000118
1740	1.7303e+02	-10.7163	-49.955518	0.000335	3.345172	1.133375	0.000134
1741	1.7313e+02	-10.6649	-49.842478	0.000284	2.838328	0.961651	0.000114
1742	1.7323e+02	-10.6377	-49.721364	0.000304	3.041065	1.030341	0.000122
1743	1.7333e+02	-10.5944	-49.576027	0.000365	3.649279	1.236409	0.000146
1744	1.7343e+02	-10.5510	-49.426653	0.000375	3.750647	1.270754	0.000150
1745	1.7353e+02	-10.5125	-49.325724	0.000253	2.534221	0.858617	0.000101
1746	1.7363e+02	-10.4628	-49.192499	0.000335	3.345172	1.133375	0.000134
1747	1.7373e+02	-10.4227	-49.107719	0.000213	2.128746	0.721239	0.000085
1748	1.7383e+02	-10.3842	-48.966419	0.000355	3.547910	1.202064	0.000142
1749	1.7393e+02	-10.3617	-48.796860	0.000426	4.257492	1.442477	0.000170
1750	1.7403e+02	-10.3200	-48.683820	0.000284	2.838328	0.961651	0.000114
1751	1.7413e+02	-10.2751	-48.582891	0.000253	2.534221	0.858617	0.000101
1752	1.7422e+02	-10.2302	-48.453703	0.000324	3.243803	1.099030	0.000130
1753	1.7432e+02	-10.1901	-48.276069	0.000446	4.460229	1.511167	0.000179
1754	1.7442e+02	-10.1516	-48.191289	0.000213	2.128746	0.721239	0.000085
1755	1.7452e+02	-10.1115	-48.058064	0.000335	3.345172	1.133375	0.000134
1756	1.7462e+02	-10.0762	-47.949061	0.000274	2.736959	0.927307	0.000110
1757	1.7472e+02	-10.0313	-47.819873	0.000324	3.243803	1.099030	0.000130
1758	1.7482e+02	-9.9976	-47.654350	0.000416	4.156123	1.408133	0.000166
1759	1.7492e+02	-9.9446	-47.569570	0.000213	2.128746	0.721239	0.000085
1760	1.7502e+02	-9.9110	-47.387899	0.000456	4.561598	1.545511	0.000183
1761	1.7512e+02	-9.8757	-47.319268	0.000172	1.723270	0.583860	0.000069
1762	1.7522e+02	-9.8372	-47.153745	0.000416	4.156123	1.408133	0.000166
1763	1.7532e+02	-9.7922	-47.012446	0.000355	3.547910	1.202064	0.000142
1764	1.7542e+02	-9.7473	-46.895369	0.000294	2.939697	0.995996	0.000118
1765	1.7552e+02	-9.7200	-46.770218	0.000314	3.142434	1.064686	0.000126
1766	1.7562e+02	-9.6831	-46.572398	0.000497	4.967074	1.682890	0.000199
1767	1.7572e+02	-9.6254	-46.475507	0.000243	2.432852	0.824273	0.000097
1768	1.7582e+02	-9.5949	-46.326133	0.000375	3.750647	1.270754	0.000150
1769	1.7592e+02	-9.5596	-46.257501	0.000172	1.723270	0.583860	0.000069
1770	1.7602e+02	-9.5067	-46.104090	0.000385	3.852016	1.305098	0.000154
1771	1.7612e+02	-9.4826	-45.958753	0.000365	3.649279	1.236409	0.000146
1772	1.7621e+02	-9.4377	-45.825528	0.000335	3.345172	1.133375	0.000134
1773	1.7631e+02	-9.3880	-45.680191	0.000365	3.649279	1.236409	0.000146
1774	1.7641e+02	-9.3575	-45.603485	0.000193	1.926008	0.652549	0.000077
1775	1.7651e+02	-9.3126	-45.409703	0.000487	4.865705	1.648545	0.000195
1776	1.7661e+02	-9.2644	-45.300700	0.000274	2.736959	0.927307	0.000110
1777	1.7671e+02	-9.2372	-45.167475	0.000335	3.345172	1.133375	0.000134
1778	1.7681e+02	-9.1987	-45.010026	0.000395	3.953385	1.339443	0.000158
1779	1.7691e+02	-9.1570	-44.868727	0.000355	3.547910	1.202064	0.000142
1780	1.7701e+02	-9.1136	-44.751650	0.000294	2.939697	0.995996	0.000118
1781	1.7711e+02	-9.0735	-44.586127	0.000416	4.156123	1.408133	0.000166
1782	1.7721e+02	-9.0382	-44.456939	0.000324	3.243803	1.099030	0.000130
1783	1.7731e+02	-8.9933	-44.343899	0.000284	2.838328	0.961651	0.000114
1784	1.7741e+02	-8.9564	-44.210673	0.000335	3.345172	1.133375	0.000134
1785	1.7751e+02	-8.9211	-44.057262	0.000385	3.852016	1.305098	0.000154
1786	1.7761e+02	-8.8762	-43.936148	0.000304	3.041065	1.030341	0.000122
1787	1.7771e+02	-8.8377	-43.774663	0.000405	4.054754	1.373788	0.000162
1788	1.7781e+02	-8.7880	-43.706031	0.000172	1.723270	0.583860	0.000069
1789	1.7791e+02	-8.7607	-43.532435	0.000436	4.358860	1.476822	0.000174
1790	1.7801e+02	-8.7142	-43.419395	0.000284	2.838328	0.961651	0.000114
1791	1.7810e+02	-8.6741	-43.274058	0.000365	3.649279	1.236409	0.000146
1792	1.7820e+02	-8.6452	-43.124684	0.000375	3.750647	1.270754	0.000150
1793	1.7830e+02	-8.5987	-42.991458	0.000335	3.345172	1.133375	0.000134
1794	1.7840e+02	-8.5682	-42.918790	0.000182	1.824639	0.618205	0.000073
1795	1.7850e+02	-8.5201	-42.745193	0.000436	4.358860	1.476822	0.000174
1796	1.7860e+02	-8.4752	-42.599856	0.000365	3.649279	1.236409	0.000146
1797	1.7870e+02	-8.4367	-42.434334	0.000416	4.156123	1.408133	0.000166
1798	1.7880e+02	-8.4014	-42.321294	0.000284	2.838328	0.961651	0.000114
1799	1.7890e+02	-8.3645	-42.208254	0.000284	2.838328	0.961651	0.000114
1800	1.7900e+02	-8.3212	-42.050806	0.000395	3.953385	1.339443	0.000158
1801	1.7910e+02	-8.2794	-41.913543	0.000345	3.446541	1.167720	0.000138
1802	1.7920e+02	-8.2377	-41.780318	0.000335	3.345172	1.133375	0.000134
1803	1.7930e+02	-8.2040	-41.626907	0.000385	3.852016	1.305098	0.000154
1804	1.7940e+02	-8.1623	-41.473495	0.000385	3.852016	1.305098	0.000154
1805	1.7950e+02	-8.1174	-41.336233	0.000345	3.446541	1.167720	0.000138
1806	1.7960e+02	-8.0853	-41.211082	0.000314	3.142434	1.064686	0.000126
1807	1.7970e+02	-8.0452	-41.061708	0.000375	3.750647	1.270754	0.000150
1808	1.7980e+02	-8.0019	-40.920408	0.000355	3.547910	1.202064	0.000142
1809	1.7990e+02	-7.9586	-40.787182	0.000335	3.345172	1.133375	0.000134
1810	1.8000e+02	-7.9185	-40.629734	0.000395	3.953385	1.339443	0.000158
1811	1.8009e+02	-7.8816	-40.516694	0.000284	2.838328	0.961651	0.000114
1812	1.8019e+02	-7.8367	-40.391543	0.000314	3.142434	1.064686	0.000126
1813	1.8029e+02	-7.7966	-40.213909	0.000446	4.460229	1.511167	0.000179
1814	1.8039e+02	-7.7645	-40.096832	0.000294	2.939697	0.995996	0.000118
1815	1.8049e+02	-7.7196	-39.947458	0.000375	3.750647	1.270754	0.000150
1816	1.8059e+02	-7.6811	-39.810196	0.000345	3.446541	1.167720	0.000138
1817	1.8069e+02	-7.6426	-39.721379	0.000223	2.230115	0.755583	0.000089
1818	1.8079e+02	-7.6041	-39.572005	0.000375	3.750647	1.270754	0.000150
1819	1.8089e+02	-7.5559	-39.454928	0.000294	2.939697	0.995996	0.000118
1820	1.8099e+02	-7.5126	-39.232885	0.000558	5.575287	1.888958	0.000223
1821	1.8109e+02	-7.4821	-39.115808	0.000294	2.939697	0.995996	0.000118
1822	1.8119e+02	-7.4452	-38.986620	0.000324	3.243803	1.099030	0.000130
1823	1.8129e+02	-7.3955	-38.877617	0.000274	2.736959	0.927307	0.000110
1824	1.8139e+02	-7.3650	-38.695946	0.000456	4.561598	1.545511	0.000183
1825	1.8149e+02	-7.3313	-38.590981	0.000264	2.635590	0.892962	0.000105
1826	1.8159e+02	-7.2864	-38.453718	0.000345	3.446541	1.167720	0.000138
1827	1.8169e+02	-7.2527	-38.296270	0.000395	3.953385	1.339443	0.000158
1828	1.8179e+02	-7.2062	-38.150933	0.000365	3.649279	1.236409	0.000146
1829	1.8189e+02	-7.1661	-38.001559	0.000375	3.750647	1.270754	0.000150
1830	1.8199e+02	-7.1260	-37.876407	0.000314	3.142434	1.064686	0.000126
1831	1.8209e+02	-7.0843	-37.747219	0.000324	3.243803	1.099030	0.000130
1832	1.8218e+02	-7.0442	-37.634179	0.000284	2.838328	0.961651	0.000114
1833	1.8228e+02	-7.0009	-37.484805	0.000375	3.750647	1.270754	0.000150
1834	1.8238e+02	-6.9608	-37.335431	0.000375	3.750647	1.270754	0.000150
1835	1.8248e+02	-6.9271	-37.210280	0.000314	3.142434	1.064686	0.000126
1836	1.8258e+02	-6.8838	-37.068980	0.000355	3.547910	1.202064	0.000142
1837	1.8268e+02	-6.8388	-36.915569	0.000385	3.852016	1.305098	0.000154
1838	1.8278e+02	-6.8068	-36.762158	0.000385	3.852016	1.305098	0.000154
1839	1.8288e+02	-6.7667	-36.657193	0.000264	2.635590	0.892962	0.000105
1840	1.8298e+02	-6.7265	-36.499744	0.000395	3.953385	1.339443	0.000158
1841	1.8308e+02	-6.6913	-36.350370	0.000375	3.750647	1.270754	0.000150
1842	1.8318e+02	-6.6399	-36.213108	0.000345	3.446541	1.167720	0.000138
1843	1.8328e+02	-6.6030	-36.096031	0.000294	2.939697	0.995996	0.000118
1844	1.8338e+02	-6.5645	-35.934545	0.000405	4.054754	1.373788	0.000162
1845	1.8348e+02	-6.5180	-35.821505	0.000284	2.838328	0.961651	0.000114
1846	1.8358e+02	-6.4923	-35.607537	0.000537	5.372549	1.820269	0.000215
1847	1.8368e+02	-6.4490	-35.534869	0.000182	1.824639	0.618205	0.000073
1848	1.8378e+02	-6.4121	-35.393569	0.000355	3.547910	1.202064	0.000142
1849	1.8388e+02	-6.3688	-35.260344	0.000335	3.345172	1.133375	0.000134
1850	1.8398e+02	-6.3303	-35.086747	0.000436	4.358860	1.476822	0.000174
1851	1.8407e+02	-6.2950	-34.945447	0.000355	3.547910	1.202064	0.000142
1852	1.8417e+02	-6.2565	-34.856630	0.000223	2.230115	0.755583	0.000089
1853	1.8427e+02	-6.2100	-34.674959	0.000456	4.561598	1.545511	0.000183
1854	1.8437e+02	-6.1667	-34.549808	0.000314	3.142434	1.064686	0.000126
1855	1.8447e+02	-6.1218	-34.404471	0.000365	3.649279	1.236409	0.000146
1856	1.8457e+02	-6.0961	-34.311617	0.000233	2.331483	0.789928	0.000093
1857	1.8467e+02	-6.0480	-34.077463	0.000588	5.879393	1.991992	0.000235
1858	1.8477e+02	-6.0111	-33.972497	0.000264	2.635590	0.892962	0.000105
1859	1.8487e+02	-5.9613	-33.815049	0.000395	3.953385	1.339443	0.000158
1860	1.8497e+02	-5.9357	-33.673749	0.000355	3.547910	1.202064	0.000142
1861	1.8507e+02	-5.8972	-33.572821	0.000253	2.534221	0.858617	0.000101
1862	1.8517e+02	-5.8506	-33.407298	0.000416	4.156123	1.408133	0.000166
1863	1.8527e+02	-5.8073	-33.253887	0.000385	3.852016	1.305098	0.000154
1864	1.8537e+02	-5.7688	-33.120662	0.000335	3.345172	1.133375	0.000134
1865	1.8547e+02	-5.7335	-32.963213	0.000395	3.953385	1.339443	0.000158
1866	1.8557e+02	-5.6902	-32.777505	0.000466	4.662967	1.579856	0.000187
1867	1.8567e+02	-5.6597	-32.668502	0.000274	2.736959	0.927307	0.000110
1868	1.8577e+02	-5.6196	-32.559500	0.000274	2.736959	0.927307	0.000110
1869	1.8587e+02	-5.5811	-32.373791	0.000466	4.662967	1.579856	0.000187
1870	1.8597e+02	-5.5282	-32.204232	0.000426	4.257492	1.442477	0.000170
1871	1.8606e+02	-5.4801	-32.099266	0.000264	2.635590	0.892962	0.000105
1872	1.8616e+02	-5.4608	-31.937781	0.000405	4.054754	1.373788	0.000162
1873	1.8626e+02	-5.4175	-31.776295	0.000405	4.054754	1.373788	0.000162
1874	1.8636e+02	-5.3694	-31.667293	0.000274	2.736959	0.927307	0.000110
1875	1.8646e+02	-5.3389	-31.513882	0.000385	3.852016	1.305098	0.000154
1876	1.8656e+02	-5.2859	-31.356433	0.000395	3.953385	1.339443	0.000158
1877	1.8666e+02	-5.2523	-31.182836	0.000436	4.358860	1.476822	0.000174
1878	1.8676e+02	-5.2138	-31.077871	0.000264	2.635590	0.892962	0.000105
1879	1.8686e+02	-5.1737	-30.888126	0.000476	4.764336	1.614201	0.000191
1880	1.8696e+02	-5.1319	-30.734714	0.000385	3.852016	1.305098	0.000154
1881	1.8706e+02	-5.1047	-30.609563	0.000314	3.142434	1.064686	0.000126
1882	1.8716e+02	-5.0581	-30.472301	0.000345	3.446541	1.167720	0.000138
1883	1.8726e+02	-5.0132	-30.322927	0.000375	3.750647	1.270754	0.000150
1884	1.8736e+02	-4.9747	-30.185664	0.000345	3.446541	1.167720	0.000138
1885	1.8746e+02	-4.9314	-30.016104	0.000426	4.257492	1.442477	0.000170
1886	1.8756e+02	-4.8977	-29.870767	0.000365	3.649279	1.236409	0.000146
1887	1.8766e+02	-4.8544	-29.749653	0.000304	3.041065	1.030341	0.000122
1888	1.8776e+02	-4.8143	-29.592205	0.000395	3.953385	1.339443	0.000158
1889	1.8786e+02	-4.7774	-29.442831	0.000375	3.750647	1.270754	0.000150
1890	1.8796e+02	-4.7341	-29.293457	0.000375	3.750647	1.270754	0.000150
1891	1.8806e+02	-4.6956	-29.168306	0.000314	3.142434	1.064686	0.000126
1892	1.8815e+02	-4.6555	-28.970486	0.000497	4.967074	1.682890	0.000199
1893	1.8825e+02	-4.6186	-28.833223	0.000345	3.446541	1.167720	0.000138
1894	1.8835e+02	-4.5769	-28.655589	0.000446	4.460229	1.511167	0.000179
1895	1.8845e+02	-4.5368	-28.558698	0.000243	2.432852	0.824273	0.000097
1896	1.8855e+02	-4.5015	-28.372990	0.000466	4.662967	1.579856	0.000187
1897	1.8865e+02	-4.4646	-28.215542	0.000395	3.953385	1.339443	0.000158
1898	1.8875e+02	-4.4229	-28.078279	0.000345	3.446541	1.167720	0.000138
1899	1.8885e+02	-4.3828	-27.932942	0.000365	3.649279	1.236409	0.000146
1900	1.8895e+02	-4.3330	-27.795680	0.000345	3.446541	1.167720	0.000138
1901	1.8905e+02	-4.3042	-27.601897	0.000487	4.865705	1.648545	0.000195
1902	1.8915e+02	-4.2592	-27.492894	0.000274	2.736959	0.927307	0.000110
1903	1.8925e+02	-4.2175	-27.299112	0.000487	4.865705	1.648545	0.000195
1904	1.8935e+02	-4.1742	-27.161849	0.000345	3.446541	1.167720	0.000138
1905	1.8945e+02	-4.1469	-26.968067	0.000487	4.865705	1.648545	0.000195
1906	1.8955e+02	-4.1020	-26.842916	0.000314	3.142434	1.064686	0.000126
1907	1.8965e+02	-4.0635	-26.669319	0.000436	4.358860	1.476822	0.000174
1908	1.8975e+02	-4.0122	-26.556279	0.000284	2.838328	0.961651	0.000114
1909	1.8985e+02	-3.9817	-26.362496	0.000487	4.865705	1.648545	0.000195
1910	1.8995e+02	-3.9480	-26.225234	0.000345	3.446541	1.167720	0.000138
1911	1.9004e+02	-3.8967	-26.071823	0.000385	3.852016	1.305098	0.000154
1912	1.9014e+02	-3.8518	-25.865929	0.000517	5.169811	1.751579	0.000207
1913	1.9024e+02	-3.8245	-25.736740	0.000324	3.243803	1.099030	0.000130
1914	1.9034e+02	-3.7780	-25.567181	0.000426	4.257492	1.442477	0.000170
1915	1.9044e+02	-3.7395	-25.450104	0.000294	2.939697	0.995996	0.000118
1916	1.9054e+02	-3.6978	-25.260358	0.000476	4.764336	1.614201	0.000191
1917	1.9064e+02	-3.6544	-25.090799	0.000426	4.257492	1.442477	0.000170
1918	1.9074e+02	-3.6208	-24.933350	0.000395	3.953385	1.339443	0.000158
1919	1.9084e+02	-3.5855	-24.792051	0.000355	3.547910	1.202064	0.000142
1920	1.9094e+02	-3.5438	-24.626528	0.000416	4.156123	1.408133	0.000166
1921	1.9104e+02	-3.5052	-24.505414	0.000304	3.041065	1.030341	0.000122
1922	1.9114e+02	-3.4587	-24.327780	0.000446	4.460229	1.511167	0.000179
1923	1.9124e+02	-3.4218	-24.121886	0.000517	5.169811	1.751579	0.000207
1924	1.9134e+02	-3.3769	-23.964438	0.000395	3.953385	1.339443	0.000158
1925	1.9144e+02	-3.3336	-23.839287	0.000314	3.142434	1.064686	0.000126
1926	1.9154e+02	-3.2951	-23.677801	0.000405	4.054754	1.373788	0.000162
1927	1.9164e+02	-3.2534	-23.540538	0.000345	3.446541	1.167720	0.000138
1928	1.9174e+02	-3.2197	-23.362905	0.000446	4.460229	1.511167	0.000179
1929	1.9184e+02	-3.1828	-23.221605	0.000355	3.547910	1.202064	0.000142
1930	1.9194e+02	-3.1459	-23.043971	0.000446	4.460229	1.511167	0.000179
1931	1.9203e+02	-3.1058	-22.838077	0.000517	5.169811	1.751579	0.000207
1932	1.9213e+02	-3.0609	-22.700814	0.000345	3.446541	1.167720	0.000138
1933	1.9223e+02	-3.0288	-22.523180	0.000446	4.460229	1.511167	0.000179
1934	1.9233e+02	-2.9903	-22.385918	0.000345	3.446541	1.167720	0.000138
1935	1.9243e+02	-2.9470	-22.208284	0.000446	4.460229	1.511167	0.000179
1936	1.9253e+02	-2.9021	-22.046798	0.000405	4.054754	1.373788	0.000162
1937	1.9263e+02	-2.8620	-21.873201	0.000436	4.358860	1.476822	0.000174
1938	1.9273e+02	-2.8234	-21.719790	0.000385	3.852016	1.305098	0.000154
1939	1.9283e+02	-2.7866	-21.558305	0.000405	4.054754	1.373788	0.000162
1940	1.9293e+02	-2.7432	-21.364522	0.000487	4.865705	1.648545	0.000195
1941	1.9303e+02	-2.7015	-21.259557	0.000264	2.635590	0.892962	0.000105
1942	1.9313e+02	-2.6598	-21.053663	0.000517	5.169811	1.751579	0.000207
1943	1.9323e+02	-2.6213	-20.916400	0.000345	3.446541	1.167720	0.000138
1944	1.9333e+02	-2.5764	-20.734729	0.000456	4.561598	1.545511	0.000183
1945	1.9343e+02	-2.5459	-20.532872	0.000507	5.068442	1.717235	0.000203
1946	1.9353e+02	-2.5170	-20.464241	0.000172	1.723270	0.583860	0.000069
1947	1.9363e+02	-2.4561	-20.217976	0.000618	6.183500	2.095026	0.000248
1948	1.9373e+02	-2.4208	-20.044379	0.000436	4.358860	1.476822	0.000174
1949	1.9383e+02	-2.3791	-19.890968	0.000385	3.852016	1.305098	0.000154
1950	1.9393e+02	-2.3550	-19.729482	0.000405	4.054754	1.373788	0.000162
1951	1.9403e+02	-2.3037	-19.555886	0.000436	4.358860	1.476822	0.000174
1952	1.9412e+02	-2.2620	-19.386326	0.000426	4.257492	1.442477	0.000170
1953	1.9422e+02	-2.2315	-19.265212	0.000304	3.041065	1.030341	0.000122
1954	1.9432e+02	-2.1866	-19.103726	0.000405	4.054754	1.373788	0.000162
1955	1.9442e+02	-2.1577	-18.909944	0.000487	4.865705	1.648545	0.000195
1956	1.9452e+02	-2.0967	-18.756533	0.000385	3.852016	1.305098	0.000154
1957	1.9462e+02	-2.0646	-18.566787	0.000476	4.764336	1.614201	0.000191
1958	1.9472e+02	-2.0358	-18.429525	0.000345	3.446541	1.167720	0.000138
1959	1.9482e+02	-1.9925	-18.231705	0.000497	4.967074	1.682890	0.000199
1960	1.9492e+02	-1.9540	-18.090405	0.000355	3.547910	1.202064	0.000142
1961	1.9502e+02	-1.9058	-17.900660	0.000476	4.764336	1.614201	0.000191
1962	1.9512e+02	-1.8721	-17.779546	0.000304	3.041065	1.030341	0.000122
1963	1.9522e+02	-1.8304	-17.577689	0.000507	5.068442	1.717235	0.000203
1964	1.9532e+02	-1.7935	-17.456575	0.000304	3.041065	1.030341	0.000122
1965	1.9542e+02	-1.7406	-17.206273	0.000628	6.284869	2.129371	0.000252
1966	1.9552e+02	-1.7085	-17.048824	0.000395	3.953385	1.339443	0.000158
1967	1.9562e+02	-1.6620	-16.911562	0.000345	3.446541	1.167720	0.000138
1968	1.9572e+02	-1.6331	-16.733928	0.000446	4.460229	1.511167	0.000179
1969	1.9582e+02	-1.5898	-16.580516	0.000385	3.852016	1.305098	0.000154
1970	1.9592e+02	-1.5465	-16.419031	0.000405	4.054754	1.373788	0.000162
1971	1.9601e+02	-1.4984	-16.245434	0.000436	4.358860	1.476822	0.000174
1972	1.9611e+02	-1.4647	-16.039540	0.000517	5.169811	1.751579	0.000207
1973	1.9621e+02	-1.4310	-15.902278	0.000345	3.446541	1.167720	0.000138
1974	1.9631e+02	-1.3828	-15.692347	0.000527	5.271180	1.785924	0.000211
1975	1.9641e+02	-1.3476	-15.551047	0.000355	3.547910	1.202064	0.000142
1976	1.9651e+02	-1.3123	-15.373413	0.000446	4.460229	1.511167	0.000179
1977	1.9661e+02	-1.2722	-15.224039	0.000375	3.750647	1.270754	0.000150
1978	1.9671e+02	-1.2224	-15.050442	0.000436	4.358860	1.476822	0.000174
1979	1.9681e+02	-1.2048	-14.864734	0.000466	4.662967	1.579856	0.000187
1980	1.9691e+02	-1.1486	-14.674988	0.000476	4.764336	1.614201	0.000191
1981	1.9701e+02	-1.1101	-14.513503	0.000405	4.054754	1.373788	0.000162
1982	1.9711e+02	-1.0652	-14.400463	0.000284	2.838328	0.961651	0.000114
1983	1.9721e+02	-1.0251	-14.202644	0.000497	4.967074	1.682890	0.000199
1984	1.9731e+02	-0.9866	-14.020972	0.000456	4.561598	1.545511	0.000183
1985	1.9741e+02	-0.9465	-13.867561	0.000385	3.852016	1.305098	0.000154
1986	1.9751e+02	-0.9176	-13.702039	0.000416	4.156123	1.408133	0.000166
1987	1.9761e+02	-0.8647	-13.528442	0.000436	4.358860	1.476822	0.000174
1988	1.9771e+02	-0.8390	-13.338696	0.000476	4.764336	1.614201	0.000191
1989	1.9781e+02	-0.7941	-13.181248	0.000395	3.953385	1.339443	0.000158
1990	1.9791e+02	-0.7460	-13.019763	0.000405	4.054754	1.373788	0.000162
1991	1.9800e+02	-0.7171	-12.866352	0.000385	3.852016	1.305098	0.000154
1992	1.9810e+02	-0.6754	-12.704866	0.000405	4.054754	1.373788	0.000162
1993	1.9820e+02	-0.6240	-12.482824	0.000558	5.575287	1.888958	0.000223
1994	1.9830e+02	-0.5968	-12.337487	0.000365	3.649279	1.236409	0.000146
1995	1.9840e+02	-0.5503	-12.188113	0.000375	3.750647	1.270754	0.000150
1996	1.9850e+02	-0.5198	-12.014516	0.000436	4.358860	1.476822	0.000174
1997	1.9860e+02	-0.4716	-11.828808	0.000466	4.662967	1.579856	0.000187
1998	1.9870e+02	-0.4267	-11.675397	0.000385	3.852016	1.305098	0.000154
1999	1.9880e+02	-0.3995	-11.509874	0.000416	4.156123	1.408133	0.000166
2000	1.9890e+02	-0.3465	-11.324166	0.000466	4.662967	1.579856	0.000187
2001	1.9900e+02	-0.3192	-11.182866	0.000355	3.547910	1.202064	0.000142
2002	1.9910e+02	-0.2663	-10.981009	0.000507	5.068442	1.717235	0.000203
2003	1.9920e+02	-0.2374	-10.819524	0.000405	4.054754	1.373788	0.000162
2004	1.9930e+02	-0.1813	-10.654001	0.000416	4.156123	1.408133	0.000166
2005	1.9940e+02	-0.1556	-10.472330	0.000456	4.561598	1.545511	0.000183
2006	1.9950e+02	-0.1155	-10.331030	0.000355	3.547910	1.202064	0.000142
2007	1.9960e+02	-0.0786	-10.157434	0.000436	4.358860	1.476822	0.000174
2008	1.9970e+02	-0.0353	-9.979800	0.000446	4.460229	1.511167	0.000179
2009	1.9980e+02	0.0048	-9.802166	0.000446	4.460229	1.511167	0.000179

PMax (uC/cm2):	8.25e+01
Pr (uC/cm2):	8.96e+00
-Pr (uC/cm2):	-1.15e+00
PLoss (uC/cm2):	-1.14e+00
-Vc:	-2.12e+00
C (Max-Eff) (nF):	4.12e-01
K (Eff):	1.40e+03
Vert. (+/-Pr) Shift (uC/cm2):	3.91e+00
Offset (uC/cm2):	8.65e+00

A (Loop Area - uC/cm2·Volts):	-9.26e-04



Hysteresis Version: 5.48.1 - Radiant Technologies, Inc., 1999 - 9/12/24

