»»»»»»»»»»»»»»»»»»»»»»»»»»»»»»»»»»»» Hysteresis ««««««««««««««««««««««««««««««««««««
»»»  Executed Version:	5.48.1
»»»  Vision Version:	5.48.4 (R)
»»»  Vision Compiled:	9/18/24
»»»  Driver Version:	5.47.0
»»»  Windows Version:	Windows 8 or 8.1
»»»  Processor Information:	x86 (AMD or Intel) - 32 Processors
»»»  Tester Name:	PMF21124-494 (100V)
»»»  Tester S/N:	PMF21124-494
»»»  Internal Amp Type:	100V RevK 270k
»»»  Internal Amp S/N:	iAB2-596/K     
»»»  Execution Count:	1
»»»»»»»»»»»»»»»»»»»»»»»»»»»»»»»»»»»»»»»»»»««««««««««««««««««««««««««««««««««««««««««

Stored:	6/19/2025 - 20:47:43
Configured:	06/19/25 10:04:32 AM
Executed:	06/19/25 08:46:55 PM

»»»»»»»»»»»»»»»»»»»»»»»»»»»»»»»»»»» Sample Info ««««««««««««««««««««««««««««««««««««
Sample Name:	
Lot Name:	
Wafer Name:	
Die Row/Column:	0/0
Capacitor Number:	0
Sample Area (cm2):	1.00e-04
Sample Thickness (microns):	3.00e-01

Amplifier:	Internal

»»»»»»»»»»»»»»»»»»»»»»»»»»»»»»»»»»» Tester Info «««««««««««««««««««««««««««««««««««
Tester Name:	PMF21124-494 (100V)
Tester Serial Number:	PMF21124-494
Return Signal Amp. Level:	0.19 [Index: 3]

»»»»»»»»»»»»»»»»»»»»»»»»»»»»»»»» Hysteresis Info ««««««««««««««««««««««««««««««««««
Task Name:	Hyst-1168
Volts:	20.00
Field:	666.67 (kV/cm)
DCBias:	0.00
DCField:	0.00 (kV/cm)
Hysteresis Period (ms):	2.00e+02
Preset:	Enabled
Preset Delay (ms):	1.00e+03
Profile:	Standard Bipolar

»»»»»»»»»»»»»»»»»»»»»»»»»»»»»»»»»»»»»» Data «««««««««««««««««««««««««««««««««««««««
Points:	2009

Valid Data

Point	Time (ms)	Drive Voltage	Measured Polarization (uC/cm2)	Capacitance (uF)	Normalized Capacitance (uF/cm2)	Dielectric Constant	Instantaneous Current (mA)
   1	0.0000e+00	0.0016	-5.365353	0.000152	1.520777	0.515253	0.000061
   2	9.9500e-02	0.0337	-5.304796	0.000152	1.520777	0.515253	0.000061
   3	1.9900e-01	0.0786	-5.163497	0.000355	3.548479	1.202257	0.000142
   4	2.9850e-01	0.1219	-5.026234	0.000345	3.447094	1.167907	0.000138
   5	3.9800e-01	0.1604	-4.876860	0.000375	3.751249	1.270958	0.000150
   6	4.9750e-01	0.1957	-4.751709	0.000314	3.142939	1.064856	0.000126
   7	5.9700e-01	0.2326	-4.642706	0.000274	2.737398	0.927456	0.000110
   8	6.9650e-01	0.2711	-4.501406	0.000355	3.548479	1.202257	0.000142
   9	7.9600e-01	0.3192	-4.323772	0.000446	4.460945	1.511409	0.000179
  10	8.9550e-01	0.3610	-4.218807	0.000264	2.636013	0.893105	0.000105
  11	9.9500e-01	0.3930	-4.045210	0.000436	4.359560	1.477059	0.000174
  12	1.0945e+00	0.4380	-3.960430	0.000213	2.129087	0.721354	0.000085
  13	1.1940e+00	0.4765	-3.766648	0.000487	4.866486	1.648810	0.000195
  14	1.2935e+00	0.5166	-3.645534	0.000304	3.041554	1.030506	0.000122
  15	1.3930e+00	0.5567	-3.475974	0.000426	4.258175	1.442709	0.000170
  16	1.4925e+00	0.5936	-3.399268	0.000193	1.926317	0.652654	0.000077
  17	1.5920e+00	0.6337	-3.229709	0.000426	4.258175	1.442709	0.000170
  18	1.6915e+00	0.6770	-3.039963	0.000477	4.765101	1.614460	0.000191
  19	1.7910e+00	0.7187	-2.939035	0.000253	2.534628	0.858755	0.000101
  20	1.8905e+00	0.7508	-2.813884	0.000314	3.142939	1.064856	0.000126
  21	1.9900e+00	0.7941	-2.656435	0.000395	3.954020	1.339658	0.000158
  22	2.0895e+00	0.8406	-2.507061	0.000375	3.751249	1.270958	0.000150
  23	2.1890e+00	0.8823	-2.333464	0.000436	4.359560	1.477059	0.000174
  24	2.2885e+00	0.9144	-2.244647	0.000223	2.230473	0.755705	0.000089
  25	2.3880e+00	0.9529	-2.087199	0.000395	3.954020	1.339658	0.000158
  26	2.4875e+00	0.9962	-1.945899	0.000355	3.548479	1.202257	0.000142
  27	2.5870e+00	1.0331	-1.800563	0.000365	3.649864	1.236607	0.000146
  28	2.6865e+00	1.0764	-1.602743	0.000497	4.967871	1.683160	0.000199
  29	2.7860e+00	1.1117	-1.497777	0.000264	2.636013	0.893105	0.000105
  30	2.8855e+00	1.1567	-1.360515	0.000345	3.447094	1.167907	0.000138
  31	2.9850e+00	1.1984	-1.194992	0.000416	4.156790	1.408359	0.000166
  32	3.0845e+00	1.2337	-1.049655	0.000365	3.649864	1.236607	0.000146
  33	3.1840e+00	1.2770	-0.872021	0.000446	4.460945	1.511409	0.000179
  34	3.2835e+00	1.3203	-0.758982	0.000284	2.838783	0.961806	0.000114
  35	3.3830e+00	1.3556	-0.597496	0.000406	4.055405	1.374008	0.000162
  36	3.4825e+00	1.3973	-0.440048	0.000395	3.954020	1.339658	0.000158
  37	3.5820e+00	1.4310	-0.290674	0.000375	3.751249	1.270958	0.000150
  38	3.6815e+00	1.4695	-0.161485	0.000324	3.244324	1.099207	0.000130
  39	3.7810e+00	1.5208	0.004037	0.000416	4.156790	1.408359	0.000166
  40	3.8805e+00	1.5529	0.157448	0.000385	3.852634	1.305308	0.000154
  41	3.9800e+00	1.5834	0.298748	0.000355	3.548479	1.202257	0.000142
  42	4.0795e+00	1.6315	0.436011	0.000345	3.447094	1.167907	0.000138
  43	4.1790e+00	1.6748	0.605570	0.000426	4.258175	1.442709	0.000170
  44	4.2785e+00	1.7165	0.746870	0.000355	3.548479	1.202257	0.000142
  45	4.3780e+00	1.7582	0.908356	0.000406	4.055405	1.374008	0.000162
  46	4.4775e+00	1.7919	1.049655	0.000355	3.548479	1.202257	0.000142
  47	4.5770e+00	1.8385	1.170769	0.000304	3.041554	1.030506	0.000122
  48	4.6765e+00	1.8770	1.429146	0.000649	6.488648	2.198413	0.000260
  49	4.7760e+00	1.9090	1.546223	0.000294	2.940168	0.996156	0.000118
  50	4.8755e+00	1.9524	1.655226	0.000274	2.737398	0.927456	0.000110
  51	4.9750e+00	1.9909	1.824785	0.000426	4.258175	1.442709	0.000170
  52	5.0745e+00	2.0326	1.986271	0.000406	4.055405	1.374008	0.000162
  53	5.1740e+00	2.0679	2.155830	0.000426	4.258175	1.442709	0.000170
  54	5.2735e+00	2.1096	2.297130	0.000355	3.548479	1.202257	0.000142
  55	5.3730e+00	2.1465	2.410170	0.000284	2.838783	0.961806	0.000114
  56	5.4725e+00	2.1930	2.616064	0.000517	5.170641	1.751861	0.000207
  57	5.5720e+00	2.2395	2.761401	0.000365	3.649864	1.236607	0.000146
  58	5.6715e+00	2.2668	2.910775	0.000375	3.751249	1.270958	0.000150
  59	5.7710e+00	2.3037	3.068223	0.000395	3.954020	1.339658	0.000158
  60	5.8705e+00	2.3470	3.237783	0.000426	4.258175	1.442709	0.000170
  61	5.9700e+00	2.3935	3.350823	0.000284	2.838783	0.961806	0.000114
  62	6.0695e+00	2.4288	3.552679	0.000507	5.069256	1.717510	0.000203
  63	6.1690e+00	2.4625	3.698016	0.000365	3.649864	1.236607	0.000146
  64	6.2685e+00	2.5106	3.823168	0.000314	3.142939	1.064856	0.000126
  65	6.3680e+00	2.5507	4.029061	0.000517	5.170641	1.751861	0.000207
  66	6.4675e+00	2.5876	4.134027	0.000264	2.636013	0.893105	0.000105
  67	6.5670e+00	2.6245	4.299550	0.000416	4.156790	1.408359	0.000166
  68	6.6665e+00	2.6694	4.497369	0.000497	4.967871	1.683160	0.000199
  69	6.7660e+00	2.7095	4.675003	0.000446	4.460945	1.511409	0.000179
  70	6.8655e+00	2.7464	4.788043	0.000284	2.838783	0.961806	0.000114
  71	6.9650e+00	2.7914	4.937417	0.000375	3.751249	1.270958	0.000150
  72	7.0645e+00	2.8267	5.094865	0.000395	3.954020	1.339658	0.000158
  73	7.1640e+00	2.8603	5.256351	0.000406	4.055405	1.374008	0.000162
  74	7.2635e+00	2.9085	5.425910	0.000426	4.258175	1.442709	0.000170
  75	7.3630e+00	2.9470	5.542987	0.000294	2.940168	0.996156	0.000118
  76	7.4625e+00	2.9903	5.696399	0.000385	3.852634	1.305308	0.000154
  77	7.5620e+00	3.0240	5.890181	0.000487	4.866486	1.648810	0.000195
  78	7.6615e+00	3.0785	6.035518	0.000365	3.649864	1.236607	0.000146
  79	7.7610e+00	3.1058	6.188929	0.000385	3.852634	1.305308	0.000154
  80	7.8605e+00	3.1507	6.370600	0.000456	4.562330	1.545759	0.000183
  81	7.9600e+00	3.1828	6.532086	0.000406	4.055405	1.374008	0.000162
  82	8.0595e+00	3.2309	6.665311	0.000335	3.345709	1.133557	0.000134
  83	8.1590e+00	3.2678	6.859094	0.000487	4.866486	1.648810	0.000195
  84	8.2585e+00	3.3063	7.016542	0.000395	3.954020	1.339658	0.000158
  85	8.3580e+00	3.3480	7.210324	0.000487	4.866486	1.648810	0.000195
  86	8.4575e+00	3.3881	7.331439	0.000304	3.041554	1.030506	0.000122
  87	8.5570e+00	3.4315	7.500998	0.000426	4.258175	1.442709	0.000170
  88	8.6565e+00	3.4667	7.654409	0.000385	3.852634	1.305308	0.000154
  89	8.7560e+00	3.5101	7.823969	0.000426	4.258175	1.442709	0.000170
  90	8.8555e+00	3.5454	7.973343	0.000375	3.751249	1.270958	0.000150
  91	8.9550e+00	3.5903	8.187311	0.000537	5.373411	1.820561	0.000215
  92	9.0545e+00	3.6175	8.312462	0.000314	3.142939	1.064856	0.000126
  93	9.1540e+00	3.6641	8.490096	0.000446	4.460945	1.511409	0.000179
  94	9.2535e+00	3.7010	8.639470	0.000375	3.751249	1.270958	0.000150
  95	9.3530e+00	3.7475	8.756547	0.000294	2.940168	0.996156	0.000118
  96	9.4525e+00	3.7876	8.970516	0.000537	5.373411	1.820561	0.000215
  97	9.5520e+00	3.8197	9.148150	0.000446	4.460945	1.511409	0.000179
  98	9.6515e+00	3.8710	9.313672	0.000416	4.156790	1.408359	0.000166
  99	9.7510e+00	3.9031	9.467083	0.000385	3.852634	1.305308	0.000154
 100	9.8505e+00	3.9416	9.648754	0.000456	4.562330	1.545759	0.000183
 101	9.9500e+00	3.9769	9.834463	0.000466	4.663715	1.580110	0.000187
 102	1.0050e+01	4.0202	9.935391	0.000253	2.534628	0.858755	0.000101
 103	1.0149e+01	4.0603	10.104951	0.000426	4.258175	1.442709	0.000170
 104	1.0248e+01	4.1052	10.266436	0.000406	4.055405	1.374008	0.000162
 105	1.0348e+01	4.1453	10.431959	0.000416	4.156790	1.408359	0.000166
 106	1.0447e+01	4.1870	10.597481	0.000416	4.156790	1.408359	0.000166
 107	1.0547e+01	4.2191	10.758967	0.000406	4.055405	1.374008	0.000162
 108	1.0646e+01	4.2496	10.916415	0.000395	3.954020	1.339658	0.000158
 109	1.0746e+01	4.3058	11.041566	0.000314	3.142939	1.064856	0.000126
 110	1.0845e+01	4.3491	11.215163	0.000436	4.359560	1.477059	0.000174
 111	1.0945e+01	4.3780	11.408946	0.000487	4.866486	1.648810	0.000195
 112	1.1044e+01	4.4181	11.521985	0.000284	2.838783	0.961806	0.000114
 113	1.1144e+01	4.4582	11.707694	0.000466	4.663715	1.580110	0.000187
 114	1.1243e+01	4.5095	11.861105	0.000385	3.852634	1.305308	0.000154
 115	1.1343e+01	4.5352	11.998367	0.000345	3.447094	1.167907	0.000138
 116	1.1443e+01	4.5849	12.171964	0.000436	4.359560	1.477059	0.000174
 117	1.1542e+01	4.6202	12.337487	0.000416	4.156790	1.408359	0.000166
 118	1.1642e+01	4.6571	12.503009	0.000416	4.156790	1.408359	0.000166
 119	1.1741e+01	4.6924	12.664495	0.000406	4.055405	1.374008	0.000162
 120	1.1841e+01	4.7357	12.825980	0.000406	4.055405	1.374008	0.000162
 121	1.1940e+01	4.7822	12.955169	0.000324	3.244324	1.099207	0.000130
 122	1.2040e+01	4.8239	13.108580	0.000385	3.852634	1.305308	0.000154
 123	1.2139e+01	4.8608	13.290251	0.000456	4.562330	1.545759	0.000183
 124	1.2239e+01	4.9009	13.471922	0.000456	4.562330	1.545759	0.000183
 125	1.2338e+01	4.9410	13.613222	0.000355	3.548479	1.202257	0.000142
 126	1.2438e+01	4.9811	13.758559	0.000365	3.649864	1.236607	0.000146
 127	1.2537e+01	5.0148	13.907933	0.000375	3.751249	1.270958	0.000150
 128	1.2636e+01	5.0565	14.089604	0.000456	4.562330	1.545759	0.000183
 129	1.2736e+01	5.0902	14.243015	0.000385	3.852634	1.305308	0.000154
 130	1.2835e+01	5.1400	14.364129	0.000304	3.041554	1.030506	0.000122
 131	1.2935e+01	5.1833	14.578097	0.000537	5.373411	1.820561	0.000215
 132	1.3034e+01	5.2234	14.727471	0.000375	3.751249	1.270958	0.000150
 133	1.3134e+01	5.2635	14.856660	0.000324	3.244324	1.099207	0.000130
 134	1.3233e+01	5.2972	14.997959	0.000355	3.548479	1.202257	0.000142
 135	1.3333e+01	5.3373	15.187705	0.000477	4.765101	1.614460	0.000191
 136	1.3432e+01	5.3694	15.353227	0.000416	4.156790	1.408359	0.000166
 137	1.3532e+01	5.4175	15.518750	0.000416	4.156790	1.408359	0.000166
 138	1.3632e+01	5.4592	15.660050	0.000355	3.548479	1.202257	0.000142
 139	1.3731e+01	5.4993	15.829609	0.000426	4.258175	1.442709	0.000170
 140	1.3831e+01	5.5458	15.962835	0.000335	3.345709	1.133557	0.000134
 141	1.3930e+01	5.5795	16.108172	0.000365	3.649864	1.236607	0.000146
 142	1.4030e+01	5.6148	16.301954	0.000487	4.866486	1.648810	0.000195
 143	1.4129e+01	5.6517	16.447291	0.000365	3.649864	1.236607	0.000146
 144	1.4229e+01	5.6966	16.596665	0.000375	3.751249	1.270958	0.000150
 145	1.4328e+01	5.7367	16.766225	0.000426	4.258175	1.442709	0.000170
 146	1.4428e+01	5.7704	16.968082	0.000507	5.069256	1.717510	0.000203
 147	1.4527e+01	5.8202	17.085158	0.000294	2.940168	0.996156	0.000118
 148	1.4627e+01	5.8506	17.218384	0.000335	3.345709	1.133557	0.000134
 149	1.4726e+01	5.8956	17.396018	0.000446	4.460945	1.511409	0.000179
 150	1.4825e+01	5.9421	17.533281	0.000345	3.447094	1.167907	0.000138
 151	1.4925e+01	5.9774	17.718989	0.000466	4.663715	1.580110	0.000187
 152	1.5024e+01	6.0127	17.840103	0.000304	3.041554	1.030506	0.000122
 153	1.5124e+01	6.0640	18.021774	0.000456	4.562330	1.545759	0.000183
 154	1.5223e+01	6.0993	18.191334	0.000426	4.258175	1.442709	0.000170
 155	1.5323e+01	6.1378	18.368968	0.000446	4.460945	1.511409	0.000179
 156	1.5422e+01	6.1731	18.518342	0.000375	3.751249	1.270958	0.000150
 157	1.5522e+01	6.2084	18.667716	0.000375	3.751249	1.270958	0.000150
 158	1.5621e+01	6.2533	18.821127	0.000385	3.852634	1.305308	0.000154
 159	1.5721e+01	6.2934	18.954352	0.000335	3.345709	1.133557	0.000134
 160	1.5820e+01	6.3335	19.136023	0.000456	4.562330	1.545759	0.000183
 161	1.5920e+01	6.3720	19.289435	0.000385	3.852634	1.305308	0.000154
 162	1.6020e+01	6.4169	19.463031	0.000436	4.359560	1.477059	0.000174
 163	1.6119e+01	6.4426	19.592220	0.000324	3.244324	1.099207	0.000130
 164	1.6218e+01	6.4971	19.753705	0.000406	4.055405	1.374008	0.000162
 165	1.6318e+01	6.5405	19.903079	0.000375	3.751249	1.270958	0.000150
 166	1.6418e+01	6.5661	20.084750	0.000456	4.562330	1.545759	0.000183
 167	1.6517e+01	6.6159	20.181642	0.000243	2.433243	0.824405	0.000097
 168	1.6616e+01	6.6511	20.347164	0.000416	4.156790	1.408359	0.000166
 169	1.6716e+01	6.6784	20.540947	0.000487	4.866486	1.648810	0.000195
 170	1.6816e+01	6.7298	20.670135	0.000324	3.244324	1.099207	0.000130
 171	1.6915e+01	6.7667	20.827583	0.000395	3.954020	1.339658	0.000158
 172	1.7015e+01	6.8148	20.956772	0.000324	3.244324	1.099207	0.000130
 173	1.7114e+01	6.8501	21.130368	0.000436	4.359560	1.477059	0.000174
 174	1.7213e+01	6.8950	21.279742	0.000375	3.751249	1.270958	0.000150
 175	1.7313e+01	6.9271	21.441228	0.000406	4.055405	1.374008	0.000162
 176	1.7413e+01	6.9704	21.602713	0.000406	4.055405	1.374008	0.000162
 177	1.7512e+01	7.0089	21.744013	0.000355	3.548479	1.202257	0.000142
 178	1.7611e+01	7.0538	21.897424	0.000385	3.852634	1.305308	0.000154
 179	1.7711e+01	7.0859	22.054873	0.000395	3.954020	1.339658	0.000158
 180	1.7811e+01	7.1244	22.163875	0.000274	2.737398	0.927456	0.000110
 181	1.7910e+01	7.1581	22.341509	0.000446	4.460945	1.511409	0.000179
 182	1.8009e+01	7.2126	22.519143	0.000446	4.460945	1.511409	0.000179
 183	1.8109e+01	7.2415	22.680629	0.000406	4.055405	1.374008	0.000162
 184	1.8209e+01	7.2944	22.817891	0.000345	3.447094	1.167907	0.000138
 185	1.8308e+01	7.3233	22.991488	0.000436	4.359560	1.477059	0.000174
 186	1.8407e+01	7.3634	23.152973	0.000406	4.055405	1.374008	0.000162
 187	1.8507e+01	7.4148	23.290236	0.000345	3.447094	1.167907	0.000138
 188	1.8607e+01	7.4485	23.451722	0.000406	4.055405	1.374008	0.000162
 189	1.8706e+01	7.4950	23.605133	0.000385	3.852634	1.305308	0.000154
 190	1.8805e+01	7.5287	23.762581	0.000395	3.954020	1.339658	0.000158
 191	1.8905e+01	7.5736	23.952326	0.000477	4.765101	1.614460	0.000191
 192	1.9005e+01	7.5976	24.045180	0.000233	2.331858	0.790055	0.000093
 193	1.9104e+01	7.6410	24.263186	0.000547	5.474796	1.854911	0.000219
 194	1.9203e+01	7.6859	24.396411	0.000335	3.345709	1.133557	0.000134
 195	1.9303e+01	7.7244	24.598268	0.000507	5.069256	1.717510	0.000203
 196	1.9402e+01	7.7677	24.699196	0.000253	2.534628	0.858755	0.000101
 197	1.9502e+01	7.8062	24.901053	0.000507	5.069256	1.717510	0.000203
 198	1.9602e+01	7.8543	25.034279	0.000335	3.345709	1.133557	0.000134
 199	1.9701e+01	7.8960	25.203838	0.000426	4.258175	1.442709	0.000170
 200	1.9800e+01	7.9329	25.345138	0.000355	3.548479	1.202257	0.000142
 201	1.9900e+01	7.9795	25.518735	0.000436	4.359560	1.477059	0.000174
 202	2.0000e+01	8.0147	25.619663	0.000253	2.534628	0.858755	0.000101
 203	2.0099e+01	8.0468	25.833632	0.000537	5.373411	1.820561	0.000215
 204	2.0198e+01	8.0853	25.987043	0.000385	3.852634	1.305308	0.000154
 205	2.0298e+01	8.1254	26.152565	0.000416	4.156790	1.408359	0.000166
 206	2.0398e+01	8.1671	26.293865	0.000355	3.548479	1.202257	0.000142
 207	2.0497e+01	8.2057	26.471499	0.000446	4.460945	1.511409	0.000179
 208	2.0596e+01	8.2506	26.620873	0.000375	3.751249	1.270958	0.000150
 209	2.0696e+01	8.2827	26.774284	0.000385	3.852634	1.305308	0.000154
 210	2.0796e+01	8.3292	26.903473	0.000324	3.244324	1.099207	0.000130
 211	2.0895e+01	8.3693	27.032661	0.000324	3.244324	1.099207	0.000130
 212	2.0994e+01	8.4062	27.258741	0.000568	5.677567	1.923612	0.000227
 213	2.1094e+01	8.4463	27.408115	0.000375	3.751249	1.270958	0.000150
 214	2.1194e+01	8.4832	27.561526	0.000385	3.852634	1.305308	0.000154
 215	2.1293e+01	8.5153	27.686677	0.000314	3.142939	1.064856	0.000126
 216	2.1392e+01	8.5730	27.888534	0.000507	5.069256	1.717510	0.000203
 217	2.1492e+01	8.6131	28.025796	0.000345	3.447094	1.167907	0.000138
 218	2.1591e+01	8.6452	28.195356	0.000426	4.258175	1.442709	0.000170
 219	2.1691e+01	8.6821	28.352804	0.000395	3.954020	1.339658	0.000158
 220	2.1791e+01	8.7302	28.514290	0.000406	4.055405	1.374008	0.000162
 221	2.1890e+01	8.7575	28.687887	0.000436	4.359560	1.477059	0.000174
 222	2.1989e+01	8.8040	28.817075	0.000324	3.244324	1.099207	0.000130
 223	2.2089e+01	8.8457	29.006820	0.000477	4.765101	1.614460	0.000191
 224	2.2189e+01	8.8891	29.136009	0.000324	3.244324	1.099207	0.000130
 225	2.2288e+01	8.9243	29.289420	0.000385	3.852634	1.305308	0.000154
 226	2.2387e+01	8.9645	29.446868	0.000395	3.954020	1.339658	0.000158
 227	2.2487e+01	9.0094	29.616428	0.000426	4.258175	1.442709	0.000170
 228	2.2587e+01	9.0431	29.802136	0.000466	4.663715	1.580110	0.000187
 229	2.2686e+01	9.0784	29.935361	0.000335	3.345709	1.133557	0.000134
 230	2.2785e+01	9.1313	30.080698	0.000365	3.649864	1.236607	0.000146
 231	2.2885e+01	9.1570	30.250258	0.000426	4.258175	1.442709	0.000170
 232	2.2985e+01	9.2083	30.379446	0.000324	3.244324	1.099207	0.000130
 233	2.3084e+01	9.2452	30.573229	0.000487	4.866486	1.648810	0.000195
 234	2.3183e+01	9.2869	30.722603	0.000375	3.751249	1.270958	0.000150
 235	2.3283e+01	9.3206	30.904274	0.000456	4.562330	1.545759	0.000183
 236	2.3383e+01	9.3511	31.077871	0.000436	4.359560	1.477059	0.000174
 237	2.3482e+01	9.4088	31.207059	0.000324	3.244324	1.099207	0.000130
 238	2.3581e+01	9.4345	31.372582	0.000416	4.156790	1.408359	0.000166
 239	2.3681e+01	9.4762	31.538104	0.000416	4.156790	1.408359	0.000166
 240	2.3780e+01	9.5195	31.667293	0.000324	3.244324	1.099207	0.000130
 241	2.3880e+01	9.5660	31.853001	0.000466	4.663715	1.580110	0.000187
 242	2.3980e+01	9.5997	31.998338	0.000365	3.649864	1.236607	0.000146
 243	2.4079e+01	9.6302	32.184046	0.000466	4.663715	1.580110	0.000187
 244	2.4178e+01	9.6783	32.280937	0.000243	2.433243	0.824405	0.000097
 245	2.4278e+01	9.7152	32.434349	0.000385	3.852634	1.305308	0.000154
 246	2.4378e+01	9.7537	32.607945	0.000436	4.359560	1.477059	0.000174
 247	2.4477e+01	9.7954	32.745208	0.000345	3.447094	1.167907	0.000138
 248	2.4576e+01	9.8356	32.934953	0.000477	4.765101	1.614460	0.000191
 249	2.4676e+01	9.8724	33.112587	0.000446	4.460945	1.511409	0.000179
 250	2.4776e+01	9.9158	33.286184	0.000436	4.359560	1.477059	0.000174
 251	2.4875e+01	9.9575	33.435558	0.000375	3.751249	1.270958	0.000150
 252	2.4974e+01	9.9944	33.556672	0.000304	3.041554	1.030506	0.000122
 253	2.5074e+01	10.0377	33.750455	0.000487	4.866486	1.648810	0.000195
 254	2.5174e+01	10.0794	33.907903	0.000395	3.954020	1.339658	0.000158
 255	2.5273e+01	10.1195	34.077463	0.000426	4.258175	1.442709	0.000170
 256	2.5372e+01	10.1644	34.230874	0.000385	3.852634	1.305308	0.000154
 257	2.5472e+01	10.1949	34.364099	0.000335	3.345709	1.133557	0.000134
 258	2.5572e+01	10.2366	34.533659	0.000426	4.258175	1.442709	0.000170
 259	2.5671e+01	10.2767	34.695145	0.000406	4.055405	1.374008	0.000162
 260	2.5770e+01	10.3232	34.852593	0.000395	3.954020	1.339658	0.000158
 261	2.5870e+01	10.3537	35.066561	0.000537	5.373411	1.820561	0.000215
 262	2.5970e+01	10.3986	35.167489	0.000253	2.534628	0.858755	0.000101
 263	2.6069e+01	10.4323	35.337049	0.000426	4.258175	1.442709	0.000170
 264	2.6169e+01	10.4740	35.490460	0.000385	3.852634	1.305308	0.000154
 265	2.6268e+01	10.5190	35.668094	0.000446	4.460945	1.511409	0.000179
 266	2.6367e+01	10.5591	35.833617	0.000416	4.156790	1.408359	0.000166
 267	2.6467e+01	10.6056	35.991065	0.000395	3.954020	1.339658	0.000158
 268	2.6567e+01	10.6329	36.168699	0.000446	4.460945	1.511409	0.000179
 269	2.6666e+01	10.6714	36.281739	0.000284	2.838783	0.961806	0.000114
 270	2.6765e+01	10.7163	36.435150	0.000385	3.852634	1.305308	0.000154
 271	2.6865e+01	10.7564	36.628933	0.000487	4.866486	1.648810	0.000195
 272	2.6965e+01	10.7853	36.794455	0.000416	4.156790	1.408359	0.000166
 273	2.7064e+01	10.8366	36.915569	0.000304	3.041554	1.030506	0.000122
 274	2.7163e+01	10.8799	37.093203	0.000446	4.460945	1.511409	0.000179
 275	2.7263e+01	10.9168	37.198169	0.000264	2.636013	0.893105	0.000105
 276	2.7363e+01	10.9537	37.391951	0.000487	4.866486	1.648810	0.000195
 277	2.7462e+01	10.9842	37.525177	0.000335	3.345709	1.133557	0.000134
 278	2.7561e+01	11.0419	37.702811	0.000446	4.460945	1.511409	0.000179
 279	2.7661e+01	11.0676	37.815850	0.000284	2.838783	0.961806	0.000114
 280	2.7761e+01	11.1173	37.989447	0.000436	4.359560	1.477059	0.000174
 281	2.7860e+01	11.1574	38.130747	0.000355	3.548479	1.202257	0.000142
 282	2.7959e+01	11.1959	38.288195	0.000395	3.954020	1.339658	0.000158
 283	2.8059e+01	11.2296	38.473904	0.000466	4.663715	1.580110	0.000187
 284	2.8159e+01	11.2681	38.586943	0.000284	2.838783	0.961806	0.000114
 285	2.8258e+01	11.3227	38.764577	0.000446	4.460945	1.511409	0.000179
 286	2.8358e+01	11.3548	38.877617	0.000284	2.838783	0.961806	0.000114
 287	2.8457e+01	11.4013	39.059288	0.000456	4.562330	1.545759	0.000183
 288	2.8556e+01	11.4286	39.204625	0.000365	3.649864	1.236607	0.000146
 289	2.8656e+01	11.4703	39.341888	0.000345	3.447094	1.167907	0.000138
 290	2.8756e+01	11.5152	39.491262	0.000375	3.751249	1.270958	0.000150
 291	2.8855e+01	11.5617	39.668896	0.000446	4.460945	1.511409	0.000179
 292	2.8954e+01	11.5922	39.806158	0.000345	3.447094	1.167907	0.000138
 293	2.9054e+01	11.6371	39.967644	0.000406	4.055405	1.374008	0.000162
 294	2.9154e+01	11.6756	40.112981	0.000365	3.649864	1.236607	0.000146
 295	2.9253e+01	11.7125	40.278503	0.000416	4.156790	1.408359	0.000166
 296	2.9352e+01	11.7558	40.383469	0.000264	2.636013	0.893105	0.000105
 297	2.9452e+01	11.7815	40.565140	0.000456	4.562330	1.545759	0.000183
 298	2.9552e+01	11.8344	40.730662	0.000416	4.156790	1.408359	0.000166
 299	2.9651e+01	11.8761	40.884074	0.000385	3.852634	1.305308	0.000154
 300	2.9750e+01	11.9162	40.997113	0.000284	2.838783	0.961806	0.000114
 301	2.9850e+01	11.9483	41.166673	0.000426	4.258175	1.442709	0.000170
 302	2.9950e+01	11.9900	41.299899	0.000335	3.345709	1.133557	0.000134
 303	3.0049e+01	12.0317	41.465421	0.000416	4.156790	1.408359	0.000166
 304	3.0148e+01	12.0670	41.622869	0.000395	3.954020	1.339658	0.000158
 305	3.0248e+01	12.1152	41.743984	0.000304	3.041554	1.030506	0.000122
 306	3.0348e+01	12.1440	41.913543	0.000426	4.258175	1.442709	0.000170
 307	3.0447e+01	12.1906	42.079066	0.000416	4.156790	1.408359	0.000166
 308	3.0547e+01	12.2307	42.220366	0.000355	3.548479	1.202257	0.000142
 309	3.0646e+01	12.2628	42.329368	0.000274	2.737398	0.927456	0.000110
 310	3.0745e+01	12.3093	42.507002	0.000446	4.460945	1.511409	0.000179
 311	3.0845e+01	12.3510	42.656376	0.000375	3.751249	1.270958	0.000150
 312	3.0945e+01	12.3943	42.781527	0.000314	3.142939	1.064856	0.000126
 313	3.1044e+01	12.4264	42.943013	0.000406	4.055405	1.374008	0.000162
 314	3.1143e+01	12.4697	43.104498	0.000406	4.055405	1.374008	0.000162
 315	3.1243e+01	12.5066	43.270021	0.000416	4.156790	1.408359	0.000166
 316	3.1343e+01	12.5499	43.399209	0.000324	3.244324	1.099207	0.000130
 317	3.1442e+01	12.5852	43.552620	0.000385	3.852634	1.305308	0.000154
 318	3.1541e+01	12.6301	43.681809	0.000324	3.244324	1.099207	0.000130
 319	3.1641e+01	12.6686	43.831183	0.000375	3.751249	1.270958	0.000150
 320	3.1741e+01	12.7135	43.988631	0.000395	3.954020	1.339658	0.000158
 321	3.1840e+01	12.7440	44.142042	0.000385	3.852634	1.305308	0.000154
 322	3.1939e+01	12.7889	44.283342	0.000355	3.548479	1.202257	0.000142
 323	3.2039e+01	12.8242	44.416567	0.000335	3.345709	1.133557	0.000134
 324	3.2139e+01	12.8643	44.549793	0.000335	3.345709	1.133557	0.000134
 325	3.2238e+01	12.9093	44.723390	0.000436	4.359560	1.477059	0.000174
 326	3.2337e+01	12.9413	44.844504	0.000304	3.041554	1.030506	0.000122
 327	3.2437e+01	12.9879	45.014063	0.000426	4.258175	1.442709	0.000170
 328	3.2536e+01	13.0280	45.163438	0.000375	3.751249	1.270958	0.000150
 329	3.2636e+01	13.0585	45.320886	0.000395	3.954020	1.339658	0.000158
 330	3.2736e+01	13.1098	45.450074	0.000324	3.244324	1.099207	0.000130
 331	3.2835e+01	13.1467	45.559077	0.000274	2.737398	0.927456	0.000110
 332	3.2934e+01	13.1836	45.748822	0.000477	4.765101	1.614460	0.000191
 333	3.3034e+01	13.2221	45.890122	0.000355	3.548479	1.202257	0.000142
 334	3.3133e+01	13.2670	46.035459	0.000365	3.649864	1.236607	0.000146
 335	3.3233e+01	13.3039	46.156573	0.000304	3.041554	1.030506	0.000122
 336	3.3333e+01	13.3440	46.334207	0.000446	4.460945	1.511409	0.000179
 337	3.3432e+01	13.3745	46.459358	0.000314	3.142939	1.064856	0.000126
 338	3.3532e+01	13.4290	46.584509	0.000314	3.142939	1.064856	0.000126
 339	3.3631e+01	13.4643	46.733883	0.000375	3.751249	1.270958	0.000150
 340	3.3730e+01	13.4996	46.883257	0.000375	3.751249	1.270958	0.000150
 341	3.3830e+01	13.5445	47.024557	0.000355	3.548479	1.202257	0.000142
 342	3.3929e+01	13.5830	47.141634	0.000294	2.940168	0.996156	0.000118
 343	3.4029e+01	13.6215	47.299082	0.000395	3.954020	1.339658	0.000158
 344	3.4129e+01	13.6697	47.460568	0.000406	4.055405	1.374008	0.000162
 345	3.4228e+01	13.6985	47.525162	0.000162	1.622162	0.549603	0.000065
 346	3.4328e+01	13.7386	47.743167	0.000547	5.474796	1.854911	0.000219
 347	3.4427e+01	13.7820	47.860244	0.000294	2.940168	0.996156	0.000118
 348	3.4526e+01	13.8173	48.013655	0.000385	3.852634	1.305308	0.000154
 349	3.4626e+01	13.8622	48.154955	0.000355	3.548479	1.202257	0.000142
 350	3.4725e+01	13.8846	48.288181	0.000335	3.345709	1.133557	0.000134
 351	3.4825e+01	13.9424	48.449666	0.000406	4.055405	1.374008	0.000162
 352	3.4925e+01	13.9777	48.582891	0.000335	3.345709	1.133557	0.000134
 353	3.5024e+01	14.0226	48.724191	0.000355	3.548479	1.202257	0.000142
 354	3.5123e+01	14.0595	48.861454	0.000345	3.447094	1.167907	0.000138
 355	3.5223e+01	14.0980	49.026976	0.000416	4.156790	1.408359	0.000166
 356	3.5322e+01	14.1445	49.156165	0.000324	3.244324	1.099207	0.000130
 357	3.5422e+01	14.1814	49.317650	0.000406	4.055405	1.374008	0.000162
 358	3.5522e+01	14.2183	49.430690	0.000284	2.838783	0.961806	0.000114
 359	3.5621e+01	14.2713	49.559878	0.000324	3.244324	1.099207	0.000130
 360	3.5721e+01	14.3001	49.737512	0.000446	4.460945	1.511409	0.000179
 361	3.5820e+01	14.3418	49.898998	0.000406	4.055405	1.374008	0.000162
 362	3.5919e+01	14.3819	50.020112	0.000304	3.041554	1.030506	0.000122
 363	3.6019e+01	14.4253	50.141226	0.000304	3.041554	1.030506	0.000122
 364	3.6118e+01	14.4622	50.339046	0.000497	4.967871	1.683160	0.000199
 365	3.6218e+01	14.5007	50.448048	0.000274	2.737398	0.927456	0.000110
 366	3.6318e+01	14.5408	50.621645	0.000436	4.359560	1.477059	0.000174
 367	3.6417e+01	14.5857	50.766982	0.000365	3.649864	1.236607	0.000146
 368	3.6517e+01	14.6162	50.908282	0.000355	3.548479	1.202257	0.000142
 369	3.6616e+01	14.6563	51.065730	0.000395	3.954020	1.339658	0.000158
 370	3.6715e+01	14.6932	51.198955	0.000335	3.345709	1.133557	0.000134
 371	3.6815e+01	14.7349	51.356404	0.000395	3.954020	1.339658	0.000158
 372	3.6914e+01	14.7782	51.497703	0.000355	3.548479	1.202257	0.000142
 373	3.7014e+01	14.8167	51.663226	0.000416	4.156790	1.408359	0.000166
 374	3.7114e+01	14.8552	51.808563	0.000365	3.649864	1.236607	0.000146
 375	3.7213e+01	14.9049	51.929677	0.000304	3.041554	1.030506	0.000122
 376	3.7313e+01	14.9338	52.034643	0.000264	2.636013	0.893105	0.000105
 377	3.7412e+01	14.9755	52.208239	0.000436	4.359560	1.477059	0.000174
 378	3.7511e+01	15.0204	52.369725	0.000406	4.055405	1.374008	0.000162
 379	3.7611e+01	15.0493	52.494876	0.000314	3.142939	1.064856	0.000126
 380	3.7711e+01	15.0926	52.680584	0.000466	4.663715	1.580110	0.000187
 381	3.7810e+01	15.1391	52.809773	0.000324	3.244324	1.099207	0.000130
 382	3.7910e+01	15.1744	52.967221	0.000395	3.954020	1.339658	0.000158
 383	3.8009e+01	15.2178	53.108521	0.000355	3.548479	1.202257	0.000142
 384	3.8108e+01	15.2530	53.274043	0.000416	4.156790	1.408359	0.000166
 385	3.8208e+01	15.2964	53.379009	0.000264	2.636013	0.893105	0.000105
 386	3.8307e+01	15.3349	53.532420	0.000385	3.852634	1.305308	0.000154
 387	3.8407e+01	15.3862	53.665645	0.000335	3.345709	1.133557	0.000134
 388	3.8507e+01	15.4231	53.810982	0.000365	3.649864	1.236607	0.000146
 389	3.8606e+01	15.4439	53.992653	0.000456	4.562330	1.545759	0.000183
 390	3.8706e+01	15.4969	54.142027	0.000375	3.751249	1.270958	0.000150
 391	3.8805e+01	15.5354	54.291401	0.000375	3.751249	1.270958	0.000150
 392	3.8904e+01	15.5723	54.416553	0.000314	3.142939	1.064856	0.000126
 393	3.9004e+01	15.6076	54.582075	0.000416	4.156790	1.408359	0.000166
 394	3.9103e+01	15.6589	54.695115	0.000284	2.838783	0.961806	0.000114
 395	3.9203e+01	15.6974	54.852563	0.000395	3.954020	1.339658	0.000158
 396	3.9303e+01	15.7327	55.026160	0.000436	4.359560	1.477059	0.000174
 397	3.9402e+01	15.7728	55.135163	0.000274	2.737398	0.927456	0.000110
 398	3.9502e+01	15.8129	55.304722	0.000426	4.258175	1.442709	0.000170
 399	3.9601e+01	15.8418	55.441985	0.000345	3.447094	1.167907	0.000138
 400	3.9700e+01	15.8963	55.603471	0.000406	4.055405	1.374008	0.000162
 401	3.9800e+01	15.9316	55.728622	0.000314	3.142939	1.064856	0.000126
 402	3.9900e+01	15.9637	55.861847	0.000335	3.345709	1.133557	0.000134
 403	3.9999e+01	16.0118	56.003147	0.000355	3.548479	1.202257	0.000142
 404	4.0099e+01	16.0568	56.176744	0.000436	4.359560	1.477059	0.000174
 405	4.0198e+01	16.0856	56.318044	0.000355	3.548479	1.202257	0.000142
 406	4.0297e+01	16.1241	56.459343	0.000355	3.548479	1.202257	0.000142
 407	4.0397e+01	16.1659	56.641014	0.000456	4.562330	1.545759	0.000183
 408	4.0496e+01	16.2076	56.741943	0.000253	2.534628	0.858755	0.000101
 409	4.0596e+01	16.2509	56.891317	0.000375	3.751249	1.270958	0.000150
 410	4.0696e+01	16.2942	57.060877	0.000426	4.258175	1.442709	0.000170
 411	4.0795e+01	16.3295	57.214288	0.000385	3.852634	1.305308	0.000154
 412	4.0895e+01	16.3648	57.351550	0.000345	3.447094	1.167907	0.000138
 413	4.0994e+01	16.4161	57.472664	0.000304	3.041554	1.030506	0.000122
 414	4.1093e+01	16.4498	57.638187	0.000416	4.156790	1.408359	0.000166
 415	4.1193e+01	16.4867	57.791598	0.000385	3.852634	1.305308	0.000154
 416	4.1292e+01	16.5268	57.916749	0.000314	3.142939	1.064856	0.000126
 417	4.1392e+01	16.5605	58.062086	0.000365	3.649864	1.236607	0.000146
 418	4.1492e+01	16.6086	58.191275	0.000324	3.244324	1.099207	0.000130
 419	4.1591e+01	16.6471	58.368909	0.000446	4.460945	1.511409	0.000179
 420	4.1691e+01	16.7001	58.473874	0.000264	2.636013	0.893105	0.000105
 421	4.1790e+01	16.7305	58.671694	0.000497	4.967871	1.683160	0.000199
 422	4.1889e+01	16.7706	58.825105	0.000385	3.852634	1.305308	0.000154
 423	4.1989e+01	16.8140	58.950256	0.000314	3.142939	1.064856	0.000126
 424	4.2089e+01	16.8525	59.083482	0.000335	3.345709	1.133557	0.000134
 425	4.2188e+01	16.8862	59.232856	0.000375	3.751249	1.270958	0.000150
 426	4.2288e+01	16.9182	59.414527	0.000456	4.562330	1.545759	0.000183
 427	4.2387e+01	16.9712	59.547752	0.000335	3.345709	1.133557	0.000134
 428	4.2486e+01	17.0161	59.697126	0.000375	3.751249	1.270958	0.000150
 429	4.2586e+01	17.0482	59.854574	0.000395	3.954020	1.339658	0.000158
 430	4.2685e+01	17.0851	59.947429	0.000233	2.331858	0.790055	0.000093
 431	4.2785e+01	17.1284	60.149285	0.000507	5.069256	1.717510	0.000203
 432	4.2885e+01	17.1685	60.322882	0.000436	4.359560	1.477059	0.000174
 433	4.2984e+01	17.2150	60.456108	0.000335	3.345709	1.133557	0.000134
 434	4.3084e+01	17.2471	60.548962	0.000233	2.331858	0.790055	0.000093
 435	4.3183e+01	17.2888	60.714484	0.000416	4.156790	1.408359	0.000166
 436	4.3282e+01	17.3257	60.892118	0.000446	4.460945	1.511409	0.000179
 437	4.3382e+01	17.3626	61.037455	0.000365	3.649864	1.236607	0.000146
 438	4.3481e+01	17.4091	61.182792	0.000365	3.649864	1.236607	0.000146
 439	4.3581e+01	17.4460	61.303906	0.000304	3.041554	1.030506	0.000122
 440	4.3681e+01	17.4845	61.441169	0.000345	3.447094	1.167907	0.000138
 441	4.3780e+01	17.5295	61.590543	0.000375	3.751249	1.270958	0.000150
 442	4.3880e+01	17.5631	61.719731	0.000324	3.244324	1.099207	0.000130
 443	4.3979e+01	17.6065	61.852957	0.000335	3.345709	1.133557	0.000134
 444	4.4078e+01	17.6482	62.022516	0.000426	4.258175	1.442709	0.000170
 445	4.4178e+01	17.6867	62.179965	0.000395	3.954020	1.339658	0.000158
 446	4.4278e+01	17.7236	62.309153	0.000324	3.244324	1.099207	0.000130
 447	4.4377e+01	17.7653	62.426230	0.000294	2.940168	0.996156	0.000118
 448	4.4477e+01	17.7990	62.591752	0.000416	4.156790	1.408359	0.000166
 449	4.4576e+01	17.8455	62.720941	0.000324	3.244324	1.099207	0.000130
 450	4.4675e+01	17.8888	62.846092	0.000314	3.142939	1.064856	0.000126
 451	4.4775e+01	17.9177	62.991429	0.000365	3.649864	1.236607	0.000146
 452	4.4874e+01	17.9546	63.156951	0.000416	4.156790	1.408359	0.000166
 453	4.4974e+01	18.0107	63.302288	0.000365	3.649864	1.236607	0.000146
 454	4.5074e+01	18.0508	63.435514	0.000335	3.345709	1.133557	0.000134
 455	4.5173e+01	18.0925	63.568739	0.000335	3.345709	1.133557	0.000134
 456	4.5273e+01	18.1150	63.706002	0.000345	3.447094	1.167907	0.000138
 457	4.5372e+01	18.1599	63.875562	0.000426	4.258175	1.442709	0.000170
 458	4.5471e+01	18.2048	64.020899	0.000365	3.649864	1.236607	0.000146
 459	4.5571e+01	18.2481	64.142013	0.000304	3.041554	1.030506	0.000122
 460	4.5670e+01	18.2834	64.279275	0.000345	3.447094	1.167907	0.000138
 461	4.5770e+01	18.3155	64.420575	0.000355	3.548479	1.202257	0.000142
 462	4.5870e+01	18.3653	64.561875	0.000355	3.548479	1.202257	0.000142
 463	4.5969e+01	18.4086	64.674915	0.000284	2.838783	0.961806	0.000114
 464	4.6069e+01	18.4487	64.787954	0.000284	2.838783	0.961806	0.000114
 465	4.6168e+01	18.4840	64.973663	0.000466	4.663715	1.580110	0.000187
 466	4.6267e+01	18.5241	65.110925	0.000345	3.447094	1.167907	0.000138
 467	4.6367e+01	18.5578	65.252225	0.000355	3.548479	1.202257	0.000142
 468	4.6467e+01	18.5963	65.393525	0.000355	3.548479	1.202257	0.000142
 469	4.6566e+01	18.6428	65.494453	0.000253	2.534628	0.858755	0.000101
 470	4.6666e+01	18.6781	65.664013	0.000426	4.258175	1.442709	0.000170
 471	4.6765e+01	18.7246	65.785127	0.000304	3.041554	1.030506	0.000122
 472	4.6864e+01	18.7695	65.926427	0.000355	3.548479	1.202257	0.000142
 473	4.6964e+01	18.8080	66.079838	0.000385	3.852634	1.305308	0.000154
 474	4.7063e+01	18.8481	66.196915	0.000294	2.940168	0.996156	0.000118
 475	4.7163e+01	18.8914	66.354363	0.000395	3.954020	1.339658	0.000158
 476	4.7263e+01	18.9203	66.483551	0.000324	3.244324	1.099207	0.000130
 477	4.7362e+01	18.9572	66.604665	0.000304	3.041554	1.030506	0.000122
 478	4.7462e+01	18.9973	66.774225	0.000426	4.258175	1.442709	0.000170
 479	4.7561e+01	19.0374	66.887265	0.000284	2.838783	0.961806	0.000114
 480	4.7660e+01	19.0840	67.064899	0.000446	4.460945	1.511409	0.000179
 481	4.7760e+01	19.1289	67.181976	0.000294	2.940168	0.996156	0.000118
 482	4.7859e+01	19.1610	67.315201	0.000335	3.345709	1.133557	0.000134
 483	4.7959e+01	19.1962	67.416130	0.000253	2.534628	0.858755	0.000101
 484	4.8059e+01	19.2364	67.553392	0.000345	3.447094	1.167907	0.000138
 485	4.8158e+01	19.2813	67.710841	0.000395	3.954020	1.339658	0.000158
 486	4.8258e+01	19.3278	67.831955	0.000304	3.041554	1.030506	0.000122
 487	4.8357e+01	19.3615	67.965180	0.000335	3.345709	1.133557	0.000134
 488	4.8456e+01	19.4032	68.130703	0.000416	4.156790	1.408359	0.000166
 489	4.8556e+01	19.4401	68.247780	0.000294	2.940168	0.996156	0.000118
 490	4.8656e+01	19.4866	68.401191	0.000385	3.852634	1.305308	0.000154
 491	4.8755e+01	19.5187	68.546528	0.000365	3.649864	1.236607	0.000146
 492	4.8855e+01	19.5588	68.659567	0.000284	2.838783	0.961806	0.000114
 493	4.8954e+01	19.5925	68.821053	0.000406	4.055405	1.374008	0.000162
 494	4.9053e+01	19.6374	68.930056	0.000274	2.737398	0.927456	0.000110
 495	4.9153e+01	19.6807	69.087504	0.000395	3.954020	1.339658	0.000158
 496	4.9252e+01	19.7176	69.228804	0.000355	3.548479	1.202257	0.000142
 497	4.9352e+01	19.7577	69.353955	0.000314	3.142939	1.064856	0.000126
 498	4.9452e+01	19.8026	69.495255	0.000355	3.548479	1.202257	0.000142
 499	4.9551e+01	19.8395	69.588109	0.000233	2.331858	0.790055	0.000093
 500	4.9651e+01	19.8716	69.725371	0.000345	3.447094	1.167907	0.000138
 501	4.9750e+01	19.9278	69.858597	0.000335	3.345709	1.133557	0.000134
 502	4.9849e+01	19.9567	70.028157	0.000426	4.258175	1.442709	0.000170
 503	4.9949e+01	19.9903	70.137159	0.000274	2.737398	0.927456	0.000110
 504	5.0048e+01	19.9599	70.028157	0.000274	2.737398	0.927456	-0.000110
 505	5.0148e+01	19.9101	69.898968	0.000324	3.244324	1.099207	-0.000130
 506	5.0248e+01	19.8845	69.850523	0.000122	1.216621	0.412202	-0.000049
 507	5.0347e+01	19.8412	69.721334	0.000324	3.244324	1.099207	-0.000130
 508	5.0447e+01	19.7978	69.660777	0.000152	1.520777	0.515253	-0.000061
 509	5.0546e+01	19.7529	69.543700	0.000294	2.940168	0.996156	-0.000118
 510	5.0645e+01	19.7160	69.418549	0.000314	3.142939	1.064856	-0.000126
 511	5.0745e+01	19.6823	69.337806	0.000203	2.027702	0.687004	-0.000081
 512	5.0844e+01	19.6278	69.216692	0.000304	3.041554	1.030506	-0.000122
 513	5.0944e+01	19.6021	69.152098	0.000162	1.622162	0.549603	-0.000065
 514	5.1044e+01	19.5492	69.059244	0.000233	2.331858	0.790055	-0.000093
 515	5.1143e+01	19.5171	68.901796	0.000395	3.954020	1.339658	-0.000158
 516	5.1242e+01	19.4802	68.808942	0.000233	2.331858	0.790055	-0.000093
 517	5.1342e+01	19.4449	68.671679	0.000345	3.447094	1.167907	-0.000138
 518	5.1441e+01	19.4112	68.578825	0.000233	2.331858	0.790055	-0.000093
 519	5.1541e+01	19.3583	68.481934	0.000243	2.433243	0.824405	-0.000097
 520	5.1641e+01	19.3262	68.385042	0.000243	2.433243	0.824405	-0.000097
 521	5.1740e+01	19.2813	68.280077	0.000264	2.636013	0.893105	-0.000105
 522	5.1840e+01	19.2396	68.171074	0.000274	2.737398	0.927456	-0.000110
 523	5.1939e+01	19.1962	68.053997	0.000294	2.940168	0.996156	-0.000118
 524	5.2038e+01	19.1642	67.908660	0.000365	3.649864	1.236607	-0.000146
 525	5.2138e+01	19.1144	67.815806	0.000233	2.331858	0.790055	-0.000093
 526	5.2237e+01	19.0743	67.722952	0.000233	2.331858	0.790055	-0.000093
 527	5.2337e+01	19.0503	67.605875	0.000294	2.940168	0.996156	-0.000118
 528	5.2437e+01	19.0005	67.533207	0.000182	1.824932	0.618304	-0.000073
 529	5.2536e+01	18.9652	67.355573	0.000446	4.460945	1.511409	-0.000179
 530	5.2636e+01	18.9235	67.319238	0.000091	0.912466	0.309152	-0.000037
 531	5.2735e+01	18.8738	67.173902	0.000365	3.649864	1.236607	-0.000146
 532	5.2834e+01	18.8545	67.089122	0.000213	2.129087	0.721354	-0.000085
 533	5.2934e+01	18.8000	66.963970	0.000314	3.142939	1.064856	-0.000126
 534	5.3033e+01	18.7647	66.838819	0.000314	3.142939	1.064856	-0.000126
 535	5.3133e+01	18.7150	66.741928	0.000243	2.433243	0.824405	-0.000097
 536	5.3233e+01	18.6861	66.632925	0.000274	2.737398	0.927456	-0.000110
 537	5.3332e+01	18.6428	66.515848	0.000294	2.940168	0.996156	-0.000118
 538	5.3431e+01	18.6091	66.394734	0.000304	3.041554	1.030506	-0.000122
 539	5.3531e+01	18.5626	66.305917	0.000223	2.230473	0.755705	-0.000089
 540	5.3630e+01	18.5273	66.144432	0.000406	4.055405	1.374008	-0.000162
 541	5.3730e+01	18.4776	66.075801	0.000172	1.723547	0.583954	-0.000069
 542	5.3830e+01	18.4358	65.978909	0.000243	2.433243	0.824405	-0.000097
 543	5.3929e+01	18.4070	65.849721	0.000324	3.244324	1.099207	-0.000130
 544	5.4029e+01	18.3669	65.736681	0.000284	2.838783	0.961806	-0.000114
 545	5.4128e+01	18.3268	65.607493	0.000324	3.244324	1.099207	-0.000130
 546	5.4227e+01	18.2770	65.526750	0.000203	2.027702	0.687004	-0.000081
 547	5.4327e+01	18.2481	65.393525	0.000335	3.345709	1.133557	-0.000134
 548	5.4426e+01	18.2113	65.248188	0.000365	3.649864	1.236607	-0.000146
 549	5.4526e+01	18.1776	65.167445	0.000203	2.027702	0.687004	-0.000081
 550	5.4626e+01	18.1214	65.046331	0.000304	3.041554	1.030506	-0.000122
 551	5.4725e+01	18.0893	64.913106	0.000335	3.345709	1.133557	-0.000134
 552	5.4825e+01	18.0508	64.796029	0.000294	2.940168	0.996156	-0.000118
 553	5.4924e+01	17.9995	64.707212	0.000223	2.230473	0.755705	-0.000089
 554	5.5023e+01	17.9738	64.630506	0.000193	1.926317	0.652654	-0.000077
 555	5.5123e+01	17.9209	64.473058	0.000395	3.954020	1.339658	-0.000158
 556	5.5222e+01	17.8936	64.388278	0.000213	2.129087	0.721354	-0.000085
 557	5.5322e+01	17.8391	64.251015	0.000345	3.447094	1.167907	-0.000138
 558	5.5422e+01	17.8022	64.142013	0.000274	2.737398	0.927456	-0.000110
 559	5.5521e+01	17.7621	64.012824	0.000324	3.244324	1.099207	-0.000130
 560	5.5620e+01	17.7204	63.867487	0.000365	3.649864	1.236607	-0.000146
 561	5.5720e+01	17.6867	63.815005	0.000132	1.318007	0.446553	-0.000053
 562	5.5819e+01	17.6450	63.689853	0.000314	3.142939	1.064856	-0.000126
 563	5.5919e+01	17.6081	63.560665	0.000324	3.244324	1.099207	-0.000130
 564	5.6019e+01	17.5583	63.439551	0.000304	3.041554	1.030506	-0.000122
 565	5.6118e+01	17.5327	63.342660	0.000243	2.433243	0.824405	-0.000097
 566	5.6218e+01	17.4893	63.233657	0.000274	2.737398	0.927456	-0.000110
 567	5.6317e+01	17.4541	63.120617	0.000284	2.838783	0.961806	-0.000114
 568	5.6416e+01	17.4075	63.007577	0.000284	2.838783	0.961806	-0.000114
 569	5.6516e+01	17.3642	62.850129	0.000395	3.954020	1.339658	-0.000158
 570	5.6615e+01	17.3305	62.765349	0.000213	2.129087	0.721354	-0.000085
 571	5.6715e+01	17.2904	62.656347	0.000274	2.737398	0.927456	-0.000110
 572	5.6815e+01	17.2519	62.547344	0.000274	2.737398	0.927456	-0.000110
 573	5.6914e+01	17.1990	62.369710	0.000446	4.460945	1.511409	-0.000179
 574	5.7014e+01	17.1701	62.297042	0.000182	1.824932	0.618304	-0.000073
 575	5.7113e+01	17.1268	62.179965	0.000294	2.940168	0.996156	-0.000118
 576	5.7212e+01	17.0963	62.054813	0.000314	3.142939	1.064856	-0.000126
 577	5.7312e+01	17.0418	61.933699	0.000304	3.041554	1.030506	-0.000122
 578	5.7411e+01	17.0033	61.792400	0.000355	3.548479	1.202257	-0.000142
 579	5.7511e+01	16.9632	61.711657	0.000203	2.027702	0.687004	-0.000081
 580	5.7611e+01	16.9343	61.570357	0.000355	3.548479	1.202257	-0.000142
 581	5.7710e+01	16.8878	61.461354	0.000274	2.737398	0.927456	-0.000110
 582	5.7809e+01	16.8557	61.348315	0.000284	2.838783	0.961806	-0.000114
 583	5.7909e+01	16.8140	61.247386	0.000253	2.534628	0.858755	-0.000101
 584	5.8008e+01	16.7706	61.122235	0.000314	3.142939	1.064856	-0.000126
 585	5.8108e+01	16.7273	61.025344	0.000243	2.433243	0.824405	-0.000097
 586	5.8208e+01	16.6904	60.863858	0.000406	4.055405	1.374008	-0.000162
 587	5.8307e+01	16.6503	60.766967	0.000243	2.433243	0.824405	-0.000097
 588	5.8407e+01	16.6102	60.653927	0.000284	2.838783	0.961806	-0.000114
 589	5.8506e+01	16.5717	60.544925	0.000274	2.737398	0.927456	-0.000110
 590	5.8605e+01	16.5236	60.407662	0.000345	3.447094	1.167907	-0.000138
 591	5.8705e+01	16.4851	60.314808	0.000233	2.331858	0.790055	-0.000093
 592	5.8804e+01	16.4562	60.209842	0.000264	2.636013	0.893105	-0.000105
 593	5.8904e+01	16.4241	60.072580	0.000345	3.447094	1.167907	-0.000138
 594	5.9004e+01	16.3696	59.927243	0.000365	3.649864	1.236607	-0.000146
 595	5.9103e+01	16.3231	59.854574	0.000182	1.824932	0.618304	-0.000073
 596	5.9203e+01	16.2894	59.753646	0.000253	2.534628	0.858755	-0.000101
 597	5.9302e+01	16.2573	59.592161	0.000406	4.055405	1.374008	-0.000162
 598	5.9401e+01	16.2156	59.475084	0.000294	2.940168	0.996156	-0.000118
 599	5.9501e+01	16.1675	59.402415	0.000182	1.824932	0.618304	-0.000073
 600	5.9600e+01	16.1306	59.269190	0.000335	3.345709	1.133557	-0.000134
 601	5.9700e+01	16.0921	59.148076	0.000304	3.041554	1.030506	-0.000122
 602	5.9800e+01	16.0536	58.978516	0.000426	4.258175	1.442709	-0.000170
 603	5.9899e+01	16.0118	58.897773	0.000203	2.027702	0.687004	-0.000081
 604	5.9998e+01	15.9717	58.776659	0.000304	3.041554	1.030506	-0.000122
 605	6.0098e+01	15.9268	58.667657	0.000274	2.737398	0.927456	-0.000110
 606	6.0197e+01	15.8931	58.546542	0.000304	3.041554	1.030506	-0.000122
 607	6.0297e+01	15.8610	58.429466	0.000294	2.940168	0.996156	-0.000118
 608	6.0397e+01	15.8145	58.312389	0.000294	2.940168	0.996156	-0.000118
 609	6.0496e+01	15.7744	58.150903	0.000406	4.055405	1.374008	-0.000162
 610	6.0596e+01	15.7407	58.049975	0.000253	2.534628	0.858755	-0.000101
 611	6.0695e+01	15.6958	57.920786	0.000324	3.244324	1.099207	-0.000130
 612	6.0794e+01	15.6589	57.848118	0.000182	1.824932	0.618304	-0.000073
 613	6.0894e+01	15.6124	57.638187	0.000527	5.272026	1.786211	-0.000211
 614	6.0993e+01	15.5771	57.541296	0.000243	2.433243	0.824405	-0.000097
 615	6.1093e+01	15.5402	57.468627	0.000182	1.824932	0.618304	-0.000073
 616	6.1193e+01	15.4857	57.303105	0.000416	4.156790	1.408359	-0.000166
 617	6.1292e+01	15.4472	57.210251	0.000233	2.331858	0.790055	-0.000093
 618	6.1392e+01	15.4135	57.028579	0.000456	4.562330	1.545759	-0.000183
 619	6.1491e+01	15.3686	56.935725	0.000233	2.331858	0.790055	-0.000093
 620	6.1590e+01	15.3429	56.790388	0.000365	3.649864	1.236607	-0.000146
 621	6.1690e+01	15.2915	56.685423	0.000264	2.636013	0.893105	-0.000105
 622	6.1789e+01	15.2595	56.568346	0.000294	2.940168	0.996156	-0.000118
 623	6.1889e+01	15.2178	56.390712	0.000446	4.460945	1.511409	-0.000179
 624	6.1989e+01	15.1760	56.281709	0.000274	2.737398	0.927456	-0.000110
 625	6.2088e+01	15.1263	56.192892	0.000223	2.230473	0.755705	-0.000089
 626	6.2188e+01	15.0926	56.011221	0.000456	4.562330	1.545759	-0.000183
 627	6.2287e+01	15.0605	55.898181	0.000284	2.838783	0.961806	-0.000114
 628	6.2386e+01	15.0156	55.777067	0.000304	3.041554	1.030506	-0.000122
 629	6.2486e+01	14.9771	55.643842	0.000335	3.345709	1.133557	-0.000134
 630	6.2586e+01	14.9482	55.526765	0.000294	2.940168	0.996156	-0.000118
 631	6.2685e+01	14.9001	55.425837	0.000253	2.534628	0.858755	-0.000101
 632	6.2785e+01	14.8584	55.288574	0.000345	3.447094	1.167907	-0.000138
 633	6.2884e+01	14.8119	55.159386	0.000324	3.244324	1.099207	-0.000130
 634	6.2983e+01	14.7830	55.030197	0.000324	3.244324	1.099207	-0.000130
 635	6.3083e+01	14.7365	54.896972	0.000335	3.345709	1.133557	-0.000134
 636	6.3182e+01	14.6932	54.743561	0.000385	3.852634	1.305308	-0.000154
 637	6.3282e+01	14.6595	54.634558	0.000274	2.737398	0.927456	-0.000110
 638	6.3382e+01	14.6178	54.521518	0.000284	2.838783	0.961806	-0.000114
 639	6.3481e+01	14.5777	54.364070	0.000395	3.954020	1.339658	-0.000158
 640	6.3581e+01	14.5424	54.226807	0.000345	3.447094	1.167907	-0.000138
 641	6.3680e+01	14.5071	54.093582	0.000335	3.345709	1.133557	-0.000134
 642	6.3779e+01	14.4590	53.984579	0.000274	2.737398	0.927456	-0.000110
 643	6.3879e+01	14.4221	53.851354	0.000335	3.345709	1.133557	-0.000134
 644	6.3978e+01	14.3884	53.697942	0.000385	3.852634	1.305308	-0.000154
 645	6.4078e+01	14.3370	53.532420	0.000416	4.156790	1.408359	-0.000166
 646	6.4177e+01	14.3049	53.427454	0.000264	2.636013	0.893105	-0.000105
 647	6.4277e+01	14.2600	53.326526	0.000253	2.534628	0.858755	-0.000101
 648	6.4376e+01	14.2199	53.152929	0.000436	4.359560	1.477059	-0.000174
 649	6.4476e+01	14.1798	53.052001	0.000253	2.534628	0.858755	-0.000101
 650	6.4576e+01	14.1381	52.918775	0.000335	3.345709	1.133557	-0.000134
 651	6.4675e+01	14.0980	52.781513	0.000345	3.447094	1.167907	-0.000138
 652	6.4775e+01	14.0659	52.660399	0.000304	3.041554	1.030506	-0.000122
 653	6.4874e+01	14.0226	52.490839	0.000426	4.258175	1.442709	-0.000170
 654	6.4974e+01	13.9889	52.393948	0.000243	2.433243	0.824405	-0.000097
 655	6.5073e+01	13.9392	52.244574	0.000375	3.751249	1.270958	-0.000150
 656	6.5172e+01	13.8927	52.155757	0.000223	2.230473	0.755705	-0.000089
 657	6.5272e+01	13.8670	51.966011	0.000477	4.765101	1.614460	-0.000191
 658	6.5371e+01	13.8301	51.869120	0.000243	2.433243	0.824405	-0.000097
 659	6.5471e+01	13.7900	51.739932	0.000324	3.244324	1.099207	-0.000130
 660	6.5570e+01	13.7499	51.606706	0.000335	3.345709	1.133557	-0.000134
 661	6.5670e+01	13.7066	51.477518	0.000324	3.244324	1.099207	-0.000130
 662	6.5769e+01	13.6633	51.324107	0.000385	3.852634	1.305308	-0.000154
 663	6.5869e+01	13.6247	51.198955	0.000314	3.142939	1.064856	-0.000126
 664	6.5969e+01	13.5846	51.045544	0.000385	3.852634	1.305308	-0.000154
 665	6.6068e+01	13.5397	50.880022	0.000416	4.156790	1.408359	-0.000166
 666	6.6168e+01	13.4980	50.783130	0.000243	2.433243	0.824405	-0.000097
 667	6.6267e+01	13.4595	50.657979	0.000314	3.142939	1.064856	-0.000126
 668	6.6367e+01	13.4322	50.516679	0.000355	3.548479	1.202257	-0.000142
 669	6.6466e+01	13.3921	50.363268	0.000385	3.852634	1.305308	-0.000154
 670	6.6566e+01	13.3472	50.209857	0.000385	3.852634	1.305308	-0.000154
 671	6.6665e+01	13.3023	50.096817	0.000284	2.838783	0.961806	-0.000114
 672	6.6764e+01	13.2702	49.983778	0.000284	2.838783	0.961806	-0.000114
 673	6.6864e+01	13.2157	49.806144	0.000446	4.460945	1.511409	-0.000179
 674	6.6963e+01	13.1836	49.693104	0.000284	2.838783	0.961806	-0.000114
 675	6.7063e+01	13.1435	49.555841	0.000345	3.447094	1.167907	-0.000138
 676	6.7162e+01	13.1002	49.402430	0.000385	3.852634	1.305308	-0.000154
 677	6.7262e+01	13.0649	49.289390	0.000284	2.838783	0.961806	-0.000114
 678	6.7362e+01	13.0200	49.152128	0.000345	3.447094	1.167907	-0.000138
 679	6.7461e+01	12.9815	48.966419	0.000466	4.663715	1.580110	-0.000187
 680	6.7561e+01	12.9430	48.825120	0.000355	3.548479	1.202257	-0.000142
 681	6.7660e+01	12.9061	48.728228	0.000243	2.433243	0.824405	-0.000097
 682	6.7760e+01	12.8708	48.603077	0.000314	3.142939	1.064856	-0.000126
 683	6.7859e+01	12.8130	48.469852	0.000335	3.345709	1.133557	-0.000134
 684	6.7959e+01	12.7841	48.288181	0.000456	4.562330	1.545759	-0.000183
 685	6.8058e+01	12.7488	48.179178	0.000274	2.737398	0.927456	-0.000110
 686	6.8157e+01	12.7135	48.049990	0.000324	3.244324	1.099207	-0.000130
 687	6.8257e+01	12.6766	47.884467	0.000416	4.156790	1.408359	-0.000166
 688	6.8356e+01	12.6253	47.755279	0.000324	3.244324	1.099207	-0.000130
 689	6.8456e+01	12.5884	47.609942	0.000365	3.649864	1.236607	-0.000146
 690	6.8555e+01	12.5515	47.492865	0.000294	2.940168	0.996156	-0.000118
 691	6.8655e+01	12.5018	47.327342	0.000416	4.156790	1.408359	-0.000166
 692	6.8754e+01	12.4729	47.234488	0.000233	2.331858	0.790055	-0.000093
 693	6.8854e+01	12.4344	47.085114	0.000375	3.751249	1.270958	-0.000150
 694	6.8954e+01	12.3911	46.968037	0.000294	2.940168	0.996156	-0.000118
 695	6.9053e+01	12.3430	46.802515	0.000416	4.156790	1.408359	-0.000166
 696	6.9153e+01	12.3173	46.661215	0.000355	3.548479	1.202257	-0.000142
 697	6.9252e+01	12.2660	46.527989	0.000335	3.345709	1.133557	-0.000134
 698	6.9352e+01	12.2210	46.402838	0.000314	3.142939	1.064856	-0.000126
 699	6.9451e+01	12.1890	46.253464	0.000375	3.751249	1.270958	-0.000150
 700	6.9550e+01	12.1521	46.148499	0.000264	2.636013	0.893105	-0.000105
 701	6.9650e+01	12.1071	45.958753	0.000477	4.765101	1.614460	-0.000191
 702	6.9749e+01	12.0735	45.829565	0.000324	3.244324	1.099207	-0.000130
 703	6.9849e+01	12.0269	45.696339	0.000335	3.345709	1.133557	-0.000134
 704	6.9948e+01	11.9997	45.559077	0.000345	3.447094	1.167907	-0.000138
 705	7.0048e+01	11.9515	45.417777	0.000355	3.548479	1.202257	-0.000142
 706	7.0147e+01	11.9050	45.300700	0.000294	2.940168	0.996156	-0.000118
 707	7.0247e+01	11.8745	45.139215	0.000406	4.055405	1.374008	-0.000162
 708	7.0347e+01	11.8280	45.014063	0.000314	3.142939	1.064856	-0.000126
 709	7.0446e+01	11.7975	44.901024	0.000284	2.838783	0.961806	-0.000114
 710	7.0546e+01	11.7462	44.743575	0.000395	3.954020	1.339658	-0.000158
 711	7.0645e+01	11.7141	44.626498	0.000294	2.940168	0.996156	-0.000118
 712	7.0745e+01	11.6612	44.485199	0.000355	3.548479	1.202257	-0.000142
 713	7.0844e+01	11.6339	44.347936	0.000345	3.447094	1.167907	-0.000138
 714	7.0944e+01	11.5890	44.210673	0.000345	3.447094	1.167907	-0.000138
 715	7.1043e+01	11.5569	44.041114	0.000426	4.258175	1.442709	-0.000170
 716	7.1142e+01	11.5152	43.948260	0.000233	2.331858	0.790055	-0.000093
 717	7.1242e+01	11.4719	43.786774	0.000406	4.055405	1.374008	-0.000162
 718	7.1341e+01	11.4318	43.657586	0.000324	3.244324	1.099207	-0.000130
 719	7.1441e+01	11.3933	43.540509	0.000294	2.940168	0.996156	-0.000118
 720	7.1540e+01	11.3580	43.374986	0.000416	4.156790	1.408359	-0.000166
 721	7.1640e+01	11.3098	43.270021	0.000264	2.636013	0.893105	-0.000105
 722	7.1740e+01	11.2762	43.136795	0.000335	3.345709	1.133557	-0.000134
 723	7.1839e+01	11.2312	42.995496	0.000355	3.548479	1.202257	-0.000142
 724	7.1939e+01	11.1991	42.862270	0.000335	3.345709	1.133557	-0.000134
 725	7.2038e+01	11.1542	42.712896	0.000375	3.751249	1.270958	-0.000150
 726	7.2138e+01	11.1125	42.575633	0.000345	3.447094	1.167907	-0.000138
 727	7.2237e+01	11.0724	42.430297	0.000365	3.649864	1.236607	-0.000146
 728	7.2337e+01	11.0371	42.301108	0.000324	3.244324	1.099207	-0.000130
 729	7.2436e+01	10.9922	42.167883	0.000335	3.345709	1.133557	-0.000134
 730	7.2535e+01	10.9601	42.046769	0.000304	3.041554	1.030506	-0.000122
 731	7.2635e+01	10.9136	41.869135	0.000446	4.460945	1.511409	-0.000179
 732	7.2734e+01	10.8655	41.756095	0.000284	2.838783	0.961806	-0.000114
 733	7.2834e+01	10.8366	41.602684	0.000385	3.852634	1.305308	-0.000154
 734	7.2933e+01	10.7933	41.473495	0.000324	3.244324	1.099207	-0.000130
 735	7.3033e+01	10.7548	41.316047	0.000395	3.954020	1.339658	-0.000158
 736	7.3132e+01	10.7163	41.198970	0.000294	2.940168	0.996156	-0.000118
 737	7.3232e+01	10.6778	41.053633	0.000365	3.649864	1.236607	-0.000146
 738	7.3332e+01	10.6345	40.924445	0.000324	3.244324	1.099207	-0.000130
 739	7.3431e+01	10.6024	40.754885	0.000426	4.258175	1.442709	-0.000170
 740	7.3531e+01	10.5623	40.613586	0.000355	3.548479	1.202257	-0.000142
 741	7.3630e+01	10.5157	40.492471	0.000304	3.041554	1.030506	-0.000122
 742	7.3730e+01	10.4788	40.363283	0.000324	3.244324	1.099207	-0.000130
 743	7.3829e+01	10.4371	40.254280	0.000274	2.737398	0.927456	-0.000110
 744	7.3928e+01	10.4002	40.068572	0.000466	4.663715	1.580110	-0.000187
 745	7.4028e+01	10.3617	39.963607	0.000264	2.636013	0.893105	-0.000105
 746	7.4127e+01	10.3136	39.790010	0.000436	4.359560	1.477059	-0.000174
 747	7.4227e+01	10.2751	39.656784	0.000335	3.345709	1.133557	-0.000134
 748	7.4326e+01	10.2366	39.519522	0.000345	3.447094	1.167907	-0.000138
 749	7.4426e+01	10.2029	39.422630	0.000243	2.433243	0.824405	-0.000097
 750	7.4525e+01	10.1516	39.261145	0.000406	4.055405	1.374008	-0.000162
 751	7.4625e+01	10.1147	39.115808	0.000365	3.649864	1.236607	-0.000146
 752	7.4725e+01	10.0874	38.986620	0.000324	3.244324	1.099207	-0.000130
 753	7.4824e+01	10.0409	38.861469	0.000314	3.142939	1.064856	-0.000126
 754	7.4924e+01	9.9944	38.708057	0.000385	3.852634	1.305308	-0.000154
 755	7.5023e+01	9.9559	38.562721	0.000365	3.649864	1.236607	-0.000146
 756	7.5123e+01	9.9126	38.437569	0.000314	3.142939	1.064856	-0.000126
 757	7.5222e+01	9.8708	38.288195	0.000375	3.751249	1.270958	-0.000150
 758	7.5322e+01	9.8452	38.134784	0.000385	3.852634	1.305308	-0.000154
 759	7.5421e+01	9.8003	38.029819	0.000264	2.636013	0.893105	-0.000105
 760	7.5520e+01	9.7618	37.904667	0.000314	3.142939	1.064856	-0.000126
 761	7.5620e+01	9.7200	37.775479	0.000324	3.244324	1.099207	-0.000130
 762	7.5719e+01	9.6815	37.618031	0.000395	3.954020	1.339658	-0.000158
 763	7.5819e+01	9.6398	37.504991	0.000284	2.838783	0.961806	-0.000114
 764	7.5918e+01	9.6013	37.351580	0.000385	3.852634	1.305308	-0.000154
 765	7.6018e+01	9.5644	37.206243	0.000365	3.649864	1.236607	-0.000146
 766	7.6118e+01	9.5227	37.060906	0.000365	3.649864	1.236607	-0.000146
 767	7.6217e+01	9.4826	36.939792	0.000304	3.041554	1.030506	-0.000122
 768	7.6317e+01	9.4457	36.806567	0.000335	3.345709	1.133557	-0.000134
 769	7.6416e+01	9.4072	36.637007	0.000426	4.258175	1.442709	-0.000170
 770	7.6516e+01	9.3655	36.528004	0.000274	2.737398	0.927456	-0.000110
 771	7.6615e+01	9.3222	36.358444	0.000426	4.258175	1.442709	-0.000170
 772	7.6715e+01	9.2917	36.257516	0.000253	2.534628	0.858755	-0.000101
 773	7.6814e+01	9.2452	36.108142	0.000375	3.751249	1.270958	-0.000150
 774	7.6913e+01	9.2051	35.938582	0.000426	4.258175	1.442709	-0.000170
 775	7.7013e+01	9.1586	35.785171	0.000385	3.852634	1.305308	-0.000154
 776	7.7112e+01	9.1233	35.631760	0.000385	3.852634	1.305308	-0.000154
 777	7.7212e+01	9.0816	35.526794	0.000264	2.636013	0.893105	-0.000105
 778	7.7311e+01	9.0447	35.373383	0.000385	3.852634	1.305308	-0.000154
 779	7.7411e+01	9.0030	35.199786	0.000436	4.359560	1.477059	-0.000174
 780	7.7510e+01	8.9580	35.070598	0.000324	3.244324	1.099207	-0.000130
 781	7.7610e+01	8.9276	34.961595	0.000274	2.737398	0.927456	-0.000110
 782	7.7710e+01	8.8858	34.800110	0.000406	4.055405	1.374008	-0.000162
 783	7.7809e+01	8.8425	34.650736	0.000375	3.751249	1.270958	-0.000150
 784	7.7909e+01	8.8024	34.497325	0.000385	3.852634	1.305308	-0.000154
 785	7.8008e+01	8.7623	34.364099	0.000335	3.345709	1.133557	-0.000134
 786	7.8108e+01	8.7254	34.242985	0.000304	3.041554	1.030506	-0.000122
 787	7.8207e+01	8.6853	34.073426	0.000426	4.258175	1.442709	-0.000170
 788	7.8306e+01	8.6500	33.928089	0.000365	3.649864	1.236607	-0.000146
 789	7.8406e+01	8.5987	33.774678	0.000385	3.852634	1.305308	-0.000154
 790	7.8505e+01	8.5714	33.657601	0.000294	2.940168	0.996156	-0.000118
 791	7.8605e+01	8.5217	33.504189	0.000385	3.852634	1.305308	-0.000154
 792	7.8704e+01	8.4864	33.362890	0.000355	3.548479	1.202257	-0.000142
 793	7.8804e+01	8.4511	33.181219	0.000456	4.562330	1.545759	-0.000183
 794	7.8903e+01	8.4062	33.080290	0.000253	2.534628	0.858755	-0.000101
 795	7.9003e+01	8.3597	32.902656	0.000446	4.460945	1.511409	-0.000179
 796	7.9103e+01	8.3196	32.745208	0.000395	3.954020	1.339658	-0.000158
 797	7.9202e+01	8.2907	32.595834	0.000375	3.751249	1.270958	-0.000150
 798	7.9302e+01	8.2474	32.474720	0.000304	3.041554	1.030506	-0.000122
 799	7.9401e+01	8.2073	32.305160	0.000426	4.258175	1.442709	-0.000170
 800	7.9501e+01	8.1655	32.163860	0.000355	3.548479	1.202257	-0.000142
 801	7.9600e+01	8.1222	32.002375	0.000406	4.055405	1.374008	-0.000162
 802	7.9700e+01	8.0869	31.893372	0.000274	2.737398	0.927456	-0.000110
 803	7.9799e+01	8.0436	31.703627	0.000477	4.765101	1.614460	-0.000191
 804	7.9898e+01	8.0051	31.558290	0.000365	3.649864	1.236607	-0.000146
 805	7.9998e+01	7.9634	31.408916	0.000375	3.751249	1.270958	-0.000150
 806	8.0097e+01	7.9265	31.271653	0.000345	3.447094	1.167907	-0.000138
 807	8.0197e+01	7.8912	31.166688	0.000264	2.636013	0.893105	-0.000105
 808	8.0296e+01	7.8511	30.985017	0.000456	4.562330	1.545759	-0.000183
 809	8.0396e+01	7.8014	30.831606	0.000385	3.852634	1.305308	-0.000154
 810	8.0496e+01	7.7773	30.686269	0.000365	3.649864	1.236607	-0.000146
 811	8.0595e+01	7.7212	30.532858	0.000385	3.852634	1.305308	-0.000154
 812	8.0695e+01	7.6827	30.395595	0.000345	3.447094	1.167907	-0.000138
 813	8.0794e+01	7.6490	30.209887	0.000466	4.663715	1.580110	-0.000187
 814	8.0894e+01	7.6057	30.052438	0.000395	3.954020	1.339658	-0.000158
 815	8.0993e+01	7.5640	29.967659	0.000213	2.129087	0.721354	-0.000085
 816	8.1093e+01	7.5255	29.781950	0.000466	4.663715	1.580110	-0.000187
 817	8.1192e+01	7.4870	29.620465	0.000406	4.055405	1.374008	-0.000162
 818	8.1291e+01	7.4436	29.483202	0.000345	3.447094	1.167907	-0.000138
 819	8.1391e+01	7.4116	29.297494	0.000466	4.663715	1.580110	-0.000187
 820	8.1490e+01	7.3634	29.160231	0.000345	3.447094	1.167907	-0.000138
 821	8.1590e+01	7.3313	29.022969	0.000345	3.447094	1.167907	-0.000138
 822	8.1689e+01	7.2832	28.865521	0.000395	3.954020	1.339658	-0.000158
 823	8.1789e+01	7.2479	28.756518	0.000274	2.737398	0.927456	-0.000110
 824	8.1888e+01	7.2030	28.566772	0.000477	4.765101	1.614460	-0.000191
 825	8.1988e+01	7.1693	28.453733	0.000284	2.838783	0.961806	-0.000114
 826	8.2088e+01	7.1196	28.292247	0.000406	4.055405	1.374008	-0.000162
 827	8.2187e+01	7.0923	28.150948	0.000355	3.548479	1.202257	-0.000142
 828	8.2287e+01	7.0490	27.953128	0.000497	4.967871	1.683160	-0.000199
 829	8.2386e+01	7.0089	27.823940	0.000324	3.244324	1.099207	-0.000130
 830	8.2486e+01	6.9752	27.650343	0.000436	4.359560	1.477059	-0.000174
 831	8.2585e+01	6.9271	27.525191	0.000314	3.142939	1.064856	-0.000126
 832	8.2684e+01	6.8854	27.355632	0.000426	4.258175	1.442709	-0.000170
 833	8.2784e+01	6.8597	27.177998	0.000446	4.460945	1.511409	-0.000179
 834	8.2883e+01	6.8036	27.077069	0.000253	2.534628	0.858755	-0.000101
 835	8.2983e+01	6.7683	26.907510	0.000426	4.258175	1.442709	-0.000170
 836	8.3082e+01	6.7362	26.770247	0.000345	3.447094	1.167907	-0.000138
 837	8.3182e+01	6.6913	26.604725	0.000416	4.156790	1.408359	-0.000166
 838	8.3281e+01	6.6560	26.455350	0.000375	3.751249	1.270958	-0.000150
 839	8.3381e+01	6.6126	26.261568	0.000487	4.866486	1.648810	-0.000195
 840	8.3481e+01	6.5709	26.128342	0.000335	3.345709	1.133557	-0.000134
 841	8.3580e+01	6.5324	25.966857	0.000406	4.055405	1.374008	-0.000162
 842	8.3680e+01	6.4843	25.805372	0.000406	4.055405	1.374008	-0.000162
 843	8.3779e+01	6.4538	25.672146	0.000335	3.345709	1.133557	-0.000134
 844	8.3879e+01	6.4169	25.551032	0.000304	3.041554	1.030506	-0.000122
 845	8.3978e+01	6.3768	25.333027	0.000547	5.474796	1.854911	-0.000219
 846	8.4078e+01	6.3335	25.207876	0.000314	3.142939	1.064856	-0.000126
 847	8.4177e+01	6.2886	25.046390	0.000406	4.055405	1.374008	-0.000162
 848	8.4276e+01	6.2581	24.937387	0.000274	2.737398	0.927456	-0.000110
 849	8.4376e+01	6.2180	24.743605	0.000487	4.866486	1.648810	-0.000195
 850	8.4475e+01	6.1715	24.557897	0.000466	4.663715	1.580110	-0.000187
 851	8.4575e+01	6.1330	24.420634	0.000345	3.447094	1.167907	-0.000138
 852	8.4674e+01	6.0897	24.238963	0.000456	4.562330	1.545759	-0.000183
 853	8.4774e+01	6.0592	24.089589	0.000375	3.751249	1.270958	-0.000150
 854	8.4874e+01	6.0143	23.940215	0.000375	3.751249	1.270958	-0.000150
 855	8.4973e+01	5.9726	23.782767	0.000395	3.954020	1.339658	-0.000158
 856	8.5073e+01	5.9373	23.633393	0.000375	3.751249	1.270958	-0.000150
 857	8.5172e+01	5.9068	23.512279	0.000304	3.041554	1.030506	-0.000122
 858	8.5272e+01	5.8474	23.334645	0.000446	4.460945	1.511409	-0.000179
 859	8.5371e+01	5.8105	23.173159	0.000406	4.055405	1.374008	-0.000162
 860	8.5471e+01	5.7801	23.011674	0.000406	4.055405	1.374008	-0.000162
 861	8.5570e+01	5.7287	22.870374	0.000355	3.548479	1.202257	-0.000142
 862	8.5669e+01	5.6950	22.733111	0.000345	3.447094	1.167907	-0.000138
 863	8.5769e+01	5.6517	22.591812	0.000355	3.548479	1.202257	-0.000142
 864	8.5868e+01	5.6084	22.422252	0.000426	4.258175	1.442709	-0.000170
 865	8.5968e+01	5.5875	22.272878	0.000375	3.751249	1.270958	-0.000150
 866	8.6067e+01	5.5378	22.103318	0.000426	4.258175	1.442709	-0.000170
 867	8.6167e+01	5.4993	21.957981	0.000365	3.649864	1.236607	-0.000146
 868	8.6266e+01	5.4656	21.820719	0.000345	3.447094	1.167907	-0.000138
 869	8.6366e+01	5.4127	21.651159	0.000426	4.258175	1.442709	-0.000170
 870	8.6466e+01	5.3694	21.509859	0.000355	3.548479	1.202257	-0.000142
 871	8.6565e+01	5.3373	21.368559	0.000355	3.548479	1.202257	-0.000142
 872	8.6665e+01	5.2988	21.178814	0.000477	4.765101	1.614460	-0.000191
 873	8.6764e+01	5.2651	21.065774	0.000284	2.838783	0.961806	-0.000114
 874	8.6864e+01	5.2234	20.904289	0.000406	4.055405	1.374008	-0.000162
 875	8.6963e+01	5.1785	20.718581	0.000466	4.663715	1.580110	-0.000187
 876	8.7063e+01	5.1432	20.569207	0.000375	3.751249	1.270958	-0.000150
 877	8.7162e+01	5.1047	20.427907	0.000355	3.548479	1.202257	-0.000142
 878	8.7261e+01	5.0565	20.310830	0.000294	2.940168	0.996156	-0.000118
 879	8.7361e+01	5.0212	20.121085	0.000477	4.765101	1.614460	-0.000191
 880	8.7460e+01	4.9844	19.975748	0.000365	3.649864	1.236607	-0.000146
 881	8.7560e+01	4.9426	19.838485	0.000345	3.447094	1.167907	-0.000138
 882	8.7659e+01	4.9090	19.717371	0.000304	3.041554	1.030506	-0.000122
 883	8.7759e+01	4.8640	19.535700	0.000456	4.562330	1.545759	-0.000183
 884	8.7859e+01	4.8127	19.382289	0.000385	3.852634	1.305308	-0.000154
 885	8.7958e+01	4.7822	19.228878	0.000385	3.852634	1.305308	-0.000154
 886	8.8058e+01	4.7405	19.055281	0.000436	4.359560	1.477059	-0.000174
 887	8.8157e+01	4.7052	18.930129	0.000314	3.142939	1.064856	-0.000126
 888	8.8257e+01	4.6571	18.780755	0.000375	3.751249	1.270958	-0.000150
 889	8.8356e+01	4.6170	18.631381	0.000375	3.751249	1.270958	-0.000150
 890	8.8456e+01	4.5721	18.482007	0.000375	3.751249	1.270958	-0.000150
 891	8.8555e+01	4.5384	18.292262	0.000477	4.765101	1.614460	-0.000191
 892	8.8654e+01	4.5031	18.175185	0.000294	2.940168	0.996156	-0.000118
 893	8.8754e+01	4.4582	18.041960	0.000335	3.345709	1.133557	-0.000134
 894	8.8853e+01	4.4181	17.840103	0.000507	5.069256	1.717510	-0.000203
 895	8.8953e+01	4.3828	17.743212	0.000243	2.433243	0.824405	-0.000097
 896	8.9052e+01	4.3378	17.581726	0.000406	4.055405	1.374008	-0.000162
 897	8.9152e+01	4.3042	17.436389	0.000365	3.649864	1.236607	-0.000146
 898	8.9251e+01	4.2673	17.250681	0.000466	4.663715	1.580110	-0.000187
 899	8.9351e+01	4.2239	17.089196	0.000406	4.055405	1.374008	-0.000162
 900	8.9451e+01	4.1838	16.951933	0.000345	3.447094	1.167907	-0.000138
 901	8.9550e+01	4.1502	16.786410	0.000416	4.156790	1.408359	-0.000166
 902	8.9650e+01	4.1052	16.616851	0.000426	4.258175	1.442709	-0.000170
 903	8.9749e+01	4.0587	16.503811	0.000284	2.838783	0.961806	-0.000114
 904	8.9849e+01	4.0170	16.346363	0.000395	3.954020	1.339658	-0.000158
 905	8.9948e+01	3.9849	16.192951	0.000385	3.852634	1.305308	-0.000154
 906	9.0047e+01	3.9512	15.995132	0.000497	4.967871	1.683160	-0.000199
 907	9.0147e+01	3.8999	15.918426	0.000193	1.926317	0.652654	-0.000077
 908	9.0246e+01	3.8534	15.724644	0.000487	4.866486	1.648810	-0.000195
 909	9.0346e+01	3.8197	15.571233	0.000385	3.852634	1.305308	-0.000154
 910	9.0445e+01	3.7812	15.417821	0.000385	3.852634	1.305308	-0.000154
 911	9.0545e+01	3.7427	15.268447	0.000375	3.751249	1.270958	-0.000150
 912	9.0644e+01	3.6945	15.123110	0.000365	3.649864	1.236607	-0.000146
 913	9.0744e+01	3.6641	14.965662	0.000395	3.954020	1.339658	-0.000158
 914	9.0844e+01	3.6272	14.804177	0.000406	4.055405	1.374008	-0.000162
 915	9.0943e+01	3.5774	14.658840	0.000365	3.649864	1.236607	-0.000146
 916	9.1043e+01	3.5421	14.517540	0.000355	3.548479	1.202257	-0.000142
 917	9.1142e+01	3.5069	14.347980	0.000426	4.258175	1.442709	-0.000170
 918	9.1242e+01	3.4635	14.214755	0.000335	3.345709	1.133557	-0.000134
 919	9.1341e+01	3.4282	14.057307	0.000395	3.954020	1.339658	-0.000158
 920	9.1441e+01	3.3930	13.899858	0.000395	3.954020	1.339658	-0.000158
 921	9.1540e+01	3.3528	13.742410	0.000395	3.954020	1.339658	-0.000158
 922	9.1639e+01	3.3047	13.617259	0.000314	3.142939	1.064856	-0.000126
 923	9.1739e+01	3.2646	13.471922	0.000365	3.649864	1.236607	-0.000146
 924	9.1838e+01	3.2261	13.310437	0.000406	4.055405	1.374008	-0.000162
 925	9.1938e+01	3.1876	13.173174	0.000345	3.447094	1.167907	-0.000138
 926	9.2037e+01	3.1443	13.019763	0.000385	3.852634	1.305308	-0.000154
 927	9.2137e+01	3.1106	12.862314	0.000395	3.954020	1.339658	-0.000158
 928	9.2237e+01	3.0737	12.688718	0.000436	4.359560	1.477059	-0.000174
 929	9.2336e+01	3.0352	12.567604	0.000304	3.041554	1.030506	-0.000122
 930	9.2436e+01	2.9967	12.385932	0.000456	4.562330	1.545759	-0.000183
 931	9.2535e+01	2.9454	12.272893	0.000284	2.838783	0.961806	-0.000114
 932	9.2635e+01	2.9181	12.107370	0.000416	4.156790	1.408359	-0.000166
 933	9.2734e+01	2.8684	11.949922	0.000395	3.954020	1.339658	-0.000158
 934	9.2834e+01	2.8170	11.816696	0.000335	3.345709	1.133557	-0.000134
 935	9.2933e+01	2.7866	11.675397	0.000355	3.548479	1.202257	-0.000142
 936	9.3032e+01	2.7513	11.526023	0.000375	3.751249	1.270958	-0.000150
 937	9.3132e+01	2.7015	11.360500	0.000416	4.156790	1.408359	-0.000166
 938	9.3231e+01	2.6727	11.203052	0.000395	3.954020	1.339658	-0.000158
 939	9.3331e+01	2.6342	11.110198	0.000233	2.331858	0.790055	-0.000093
 940	9.3430e+01	2.5892	10.944675	0.000416	4.156790	1.408359	-0.000166
 941	9.3530e+01	2.5555	10.771078	0.000436	4.359560	1.477059	-0.000174
 942	9.3629e+01	2.5138	10.569221	0.000507	5.069256	1.717510	-0.000203
 943	9.3729e+01	2.4625	10.484442	0.000213	2.129087	0.721354	-0.000085
 944	9.3829e+01	2.4288	10.331030	0.000385	3.852634	1.305308	-0.000154
 945	9.3928e+01	2.3887	10.137248	0.000487	4.866486	1.648810	-0.000195
 946	9.4028e+01	2.3486	9.999985	0.000345	3.447094	1.167907	-0.000138
 947	9.4127e+01	2.3149	9.830426	0.000426	4.258175	1.442709	-0.000170
 948	9.4227e+01	2.2716	9.685089	0.000365	3.649864	1.236607	-0.000146
 949	9.4326e+01	2.2315	9.531677	0.000385	3.852634	1.305308	-0.000154
 950	9.4425e+01	2.1834	9.341932	0.000477	4.765101	1.614460	-0.000191
 951	9.4525e+01	2.1465	9.188521	0.000385	3.852634	1.305308	-0.000154
 952	9.4624e+01	2.1112	9.039147	0.000375	3.751249	1.270958	-0.000150
 953	9.4724e+01	2.0759	8.905921	0.000335	3.345709	1.133557	-0.000134
 954	9.4823e+01	2.0342	8.760585	0.000365	3.649864	1.236607	-0.000146
 955	9.4923e+01	2.0005	8.591025	0.000426	4.258175	1.442709	-0.000170
 956	9.5022e+01	1.9395	8.417428	0.000436	4.359560	1.477059	-0.000174
 957	9.5122e+01	1.9155	8.268054	0.000375	3.751249	1.270958	-0.000150
 958	9.5222e+01	1.8737	8.098494	0.000426	4.258175	1.442709	-0.000170
 959	9.5321e+01	1.8352	7.932972	0.000416	4.156790	1.408359	-0.000166
 960	9.5421e+01	1.7855	7.815895	0.000294	2.940168	0.996156	-0.000118
 961	9.5520e+01	1.7518	7.638261	0.000446	4.460945	1.511409	-0.000179
 962	9.5620e+01	1.7085	7.484850	0.000385	3.852634	1.305308	-0.000154
 963	9.5719e+01	1.6796	7.287030	0.000497	4.967871	1.683160	-0.000199
 964	9.5819e+01	1.6363	7.186102	0.000253	2.534628	0.858755	-0.000101
 965	9.5918e+01	1.5978	7.032690	0.000385	3.852634	1.305308	-0.000154
 966	9.6017e+01	1.5545	6.814685	0.000547	5.474796	1.854911	-0.000219
 967	9.6117e+01	1.5112	6.721831	0.000233	2.331858	0.790055	-0.000093
 968	9.6216e+01	1.4743	6.556308	0.000416	4.156790	1.408359	-0.000166
 969	9.6316e+01	1.4310	6.366563	0.000477	4.765101	1.614460	-0.000191
 970	9.6415e+01	1.3909	6.209115	0.000395	3.954020	1.339658	-0.000158
 971	9.6515e+01	1.3476	6.079926	0.000324	3.244324	1.099207	-0.000130
 972	9.6615e+01	1.3235	5.930552	0.000375	3.751249	1.270958	-0.000150
 973	9.6714e+01	1.2673	5.777141	0.000385	3.852634	1.305308	-0.000154
 974	9.6814e+01	1.2272	5.599507	0.000446	4.460945	1.511409	-0.000179
 975	9.6913e+01	1.1903	5.438022	0.000406	4.055405	1.374008	-0.000162
 976	9.7013e+01	1.1550	5.288648	0.000375	3.751249	1.270958	-0.000150
 977	9.7112e+01	1.1182	5.078717	0.000527	5.272026	1.786211	-0.000211
 978	9.7212e+01	1.0780	4.969714	0.000274	2.737398	0.927456	-0.000110
 979	9.7311e+01	1.0395	4.775932	0.000487	4.866486	1.648810	-0.000195
 980	9.7410e+01	0.9930	4.642706	0.000335	3.345709	1.133557	-0.000134
 981	9.7510e+01	0.9433	4.473146	0.000426	4.258175	1.442709	-0.000170
 982	9.7609e+01	0.9096	4.307624	0.000416	4.156790	1.408359	-0.000166
 983	9.7709e+01	0.8743	4.170361	0.000345	3.447094	1.167907	-0.000138
 984	9.7808e+01	0.8326	4.025024	0.000365	3.649864	1.236607	-0.000146
 985	9.7908e+01	0.7941	3.847390	0.000446	4.460945	1.511409	-0.000179
 986	9.8007e+01	0.7620	3.738388	0.000274	2.737398	0.927456	-0.000110
 987	9.8107e+01	0.7267	3.548642	0.000477	4.765101	1.614460	-0.000191
 988	9.8207e+01	0.6738	3.379083	0.000426	4.258175	1.442709	-0.000170
 989	9.8306e+01	0.6321	3.217597	0.000406	4.055405	1.374008	-0.000162
 990	9.8406e+01	0.6032	3.092446	0.000314	3.142939	1.064856	-0.000126
 991	9.8505e+01	0.5599	2.870404	0.000558	5.576181	1.889261	-0.000223
 992	9.8605e+01	0.5134	2.757364	0.000284	2.838783	0.961806	-0.000114
 993	9.8704e+01	0.4700	2.571655	0.000466	4.663715	1.580110	-0.000187
 994	9.8803e+01	0.4315	2.438430	0.000335	3.345709	1.133557	-0.000134
 995	9.8903e+01	0.3995	2.301167	0.000345	3.447094	1.167907	-0.000138
 996	9.9002e+01	0.3529	2.123533	0.000446	4.460945	1.511409	-0.000179
 997	9.9102e+01	0.3225	1.978197	0.000365	3.649864	1.236607	-0.000146
 998	9.9201e+01	0.2759	1.816711	0.000406	4.055405	1.374008	-0.000162
 999	9.9301e+01	0.2406	1.667337	0.000375	3.751249	1.270958	-0.000150
1000	9.9400e+01	0.2005	1.469517	0.000497	4.967871	1.683160	-0.000199
1001	9.9500e+01	0.1556	1.340329	0.000324	3.244324	1.099207	-0.000130
1002	9.9600e+01	0.1187	1.174806	0.000416	4.156790	1.408359	-0.000166
1003	9.9699e+01	0.0802	1.033507	0.000355	3.548479	1.202257	-0.000142
1004	9.9799e+01	0.0369	0.835687	0.000497	4.967871	1.683160	-0.000199
1005	9.9898e+01	0.0048	0.722647	0.000284	2.838783	0.961806	-0.000114
1006	9.9998e+01	-0.0369	0.524828	0.000497	4.967871	1.683160	-0.000199
1007	1.0010e+02	-0.0722	0.387565	0.000345	3.447094	1.167907	-0.000138
1008	1.0020e+02	-0.1091	0.222042	0.000416	4.156790	1.408359	-0.000166
1009	1.0030e+02	-0.1556	0.056520	0.000416	4.156790	1.408359	-0.000166
1010	1.0040e+02	-0.1973	-0.100928	0.000395	3.954020	1.339658	-0.000158
1011	1.0050e+02	-0.2326	-0.230117	0.000324	3.244324	1.099207	-0.000130
1012	1.0059e+02	-0.2727	-0.419862	0.000477	4.765101	1.614460	-0.000191
1013	1.0069e+02	-0.3144	-0.613645	0.000487	4.866486	1.648810	-0.000195
1014	1.0079e+02	-0.3529	-0.706499	0.000233	2.331858	0.790055	-0.000093
1015	1.0089e+02	-0.3946	-0.900281	0.000487	4.866486	1.648810	-0.000195
1016	1.0099e+02	-0.4299	-1.094064	0.000487	4.866486	1.648810	-0.000195
1017	1.0109e+02	-0.4684	-1.223252	0.000324	3.244324	1.099207	-0.000130
1018	1.0119e+02	-0.5198	-1.380700	0.000395	3.954020	1.339658	-0.000158
1019	1.0129e+02	-0.5422	-1.550260	0.000426	4.258175	1.442709	-0.000170
1020	1.0139e+02	-0.5855	-1.719820	0.000426	4.258175	1.442709	-0.000170
1021	1.0149e+02	-0.6353	-1.893417	0.000436	4.359560	1.477059	-0.000174
1022	1.0159e+02	-0.6738	-2.071051	0.000446	4.460945	1.511409	-0.000179
1023	1.0169e+02	-0.7219	-2.155830	0.000213	2.129087	0.721354	-0.000085
1024	1.0179e+02	-0.7508	-2.333464	0.000446	4.460945	1.511409	-0.000179
1025	1.0189e+02	-0.7845	-2.503024	0.000426	4.258175	1.442709	-0.000170
1026	1.0199e+02	-0.8310	-2.644324	0.000355	3.548479	1.202257	-0.000142
1027	1.0209e+02	-0.8695	-2.813884	0.000426	4.258175	1.442709	-0.000170
1028	1.0219e+02	-0.9128	-2.995555	0.000456	4.562330	1.545759	-0.000183
1029	1.0229e+02	-0.9529	-3.157040	0.000406	4.055405	1.374008	-0.000162
1030	1.0239e+02	-0.9898	-3.294303	0.000345	3.447094	1.167907	-0.000138
1031	1.0248e+02	-1.0267	-3.475974	0.000456	4.562330	1.545759	-0.000183
1032	1.0258e+02	-1.0732	-3.613236	0.000345	3.447094	1.167907	-0.000138
1033	1.0268e+02	-1.1165	-3.722239	0.000274	2.737398	0.927456	-0.000110
1034	1.0278e+02	-1.1502	-3.940244	0.000547	5.474796	1.854911	-0.000219
1035	1.0288e+02	-1.1887	-4.069433	0.000324	3.244324	1.099207	-0.000130
1036	1.0298e+02	-1.2337	-4.210733	0.000355	3.548479	1.202257	-0.000142
1037	1.0308e+02	-1.2754	-4.356069	0.000365	3.649864	1.236607	-0.000146
1038	1.0318e+02	-1.3074	-4.525629	0.000426	4.258175	1.442709	-0.000170
1039	1.0328e+02	-1.3460	-4.699226	0.000436	4.359560	1.477059	-0.000174
1040	1.0338e+02	-1.3877	-4.844563	0.000365	3.649864	1.236607	-0.000146
1041	1.0348e+02	-1.4214	-4.981826	0.000345	3.447094	1.167907	-0.000138
1042	1.0358e+02	-1.4679	-5.139274	0.000395	3.954020	1.339658	-0.000158
1043	1.0368e+02	-1.5080	-5.280574	0.000355	3.548479	1.202257	-0.000142
1044	1.0378e+02	-1.5497	-5.462245	0.000456	4.562330	1.545759	-0.000183
1045	1.0388e+02	-1.5962	-5.595470	0.000335	3.345709	1.133557	-0.000134
1046	1.0398e+02	-1.6315	-5.712547	0.000294	2.940168	0.996156	-0.000118
1047	1.0408e+02	-1.6652	-5.918441	0.000517	5.170641	1.751861	-0.000207
1048	1.0418e+02	-1.7133	-6.047629	0.000324	3.244324	1.099207	-0.000130
1049	1.0428e+02	-1.7422	-6.217189	0.000426	4.258175	1.442709	-0.000170
1050	1.0438e+02	-1.7807	-6.354452	0.000345	3.447094	1.167907	-0.000138
1051	1.0447e+02	-1.8320	-6.540160	0.000466	4.663715	1.580110	-0.000187
1052	1.0457e+02	-1.8609	-6.657237	0.000294	2.940168	0.996156	-0.000118
1053	1.0467e+02	-1.9090	-6.842945	0.000466	4.663715	1.580110	-0.000187
1054	1.0477e+02	-1.9411	-7.016542	0.000436	4.359560	1.477059	-0.000174
1055	1.0487e+02	-1.9941	-7.141693	0.000314	3.142939	1.064856	-0.000126
1056	1.0497e+02	-2.0245	-7.274919	0.000335	3.345709	1.133557	-0.000134
1057	1.0507e+02	-2.0695	-7.468701	0.000487	4.866486	1.648810	-0.000195
1058	1.0517e+02	-2.1048	-7.630187	0.000406	4.055405	1.374008	-0.000162
1059	1.0527e+02	-2.1497	-7.755338	0.000314	3.142939	1.064856	-0.000126
1060	1.0537e+02	-2.1834	-7.904712	0.000375	3.751249	1.270958	-0.000150
1061	1.0547e+02	-2.2235	-8.062160	0.000395	3.954020	1.339658	-0.000158
1062	1.0557e+02	-2.2668	-8.223645	0.000406	4.055405	1.374008	-0.000162
1063	1.0567e+02	-2.3053	-8.324574	0.000253	2.534628	0.858755	-0.000101
1064	1.0577e+02	-2.3358	-8.506245	0.000456	4.562330	1.545759	-0.000183
1065	1.0587e+02	-2.3807	-8.631396	0.000314	3.142939	1.064856	-0.000126
1066	1.0597e+02	-2.4256	-8.825179	0.000487	4.866486	1.648810	-0.000195
1067	1.0607e+02	-2.4689	-8.954367	0.000324	3.244324	1.099207	-0.000130
1068	1.0617e+02	-2.4994	-9.095667	0.000355	3.548479	1.202257	-0.000142
1069	1.0627e+02	-2.5395	-9.261189	0.000416	4.156790	1.408359	-0.000166
1070	1.0637e+02	-2.5844	-9.426712	0.000416	4.156790	1.408359	-0.000166
1071	1.0647e+02	-2.6261	-9.555900	0.000324	3.244324	1.099207	-0.000130
1072	1.0656e+02	-2.6646	-9.705274	0.000375	3.751249	1.270958	-0.000150
1073	1.0666e+02	-2.6999	-9.858685	0.000385	3.852634	1.305308	-0.000154
1074	1.0676e+02	-2.7432	-10.028245	0.000426	4.258175	1.442709	-0.000170
1075	1.0686e+02	-2.7849	-10.157434	0.000324	3.244324	1.099207	-0.000130
1076	1.0696e+02	-2.8251	-10.306808	0.000375	3.751249	1.270958	-0.000150
1077	1.0706e+02	-2.8523	-10.472330	0.000416	4.156790	1.408359	-0.000166
1078	1.0716e+02	-2.9069	-10.645927	0.000436	4.359560	1.477059	-0.000174
1079	1.0726e+02	-2.9390	-10.779152	0.000335	3.345709	1.133557	-0.000134
1080	1.0736e+02	-2.9823	-10.928526	0.000375	3.751249	1.270958	-0.000150
1081	1.0746e+02	-3.0304	-11.081938	0.000385	3.852634	1.305308	-0.000154
1082	1.0756e+02	-3.0609	-11.215163	0.000335	3.345709	1.133557	-0.000134
1083	1.0766e+02	-3.1026	-11.372611	0.000395	3.954020	1.339658	-0.000158
1084	1.0776e+02	-3.1379	-11.526023	0.000385	3.852634	1.305308	-0.000154
1085	1.0786e+02	-3.1844	-11.671359	0.000365	3.649864	1.236607	-0.000146
1086	1.0796e+02	-3.2229	-11.792473	0.000304	3.041554	1.030506	-0.000122
1087	1.0806e+02	-3.2662	-11.982219	0.000477	4.765101	1.614460	-0.000191
1088	1.0816e+02	-3.3015	-12.095259	0.000284	2.838783	0.961806	-0.000114
1089	1.0826e+02	-3.3400	-12.220410	0.000314	3.142939	1.064856	-0.000126
1090	1.0836e+02	-3.3737	-12.381895	0.000406	4.055405	1.374008	-0.000162
1091	1.0845e+02	-3.4282	-12.519158	0.000345	3.447094	1.167907	-0.000138
1092	1.0855e+02	-3.4571	-12.676606	0.000395	3.954020	1.339658	-0.000158
1093	1.0865e+02	-3.5004	-12.846166	0.000426	4.258175	1.442709	-0.000170
1094	1.0875e+02	-3.5438	-12.987466	0.000355	3.548479	1.202257	-0.000142
1095	1.0885e+02	-3.5806	-13.124728	0.000345	3.447094	1.167907	-0.000138
1096	1.0895e+02	-3.6288	-13.274102	0.000375	3.751249	1.270958	-0.000150
1097	1.0905e+02	-3.6577	-13.399254	0.000314	3.142939	1.064856	-0.000126
1098	1.0915e+02	-3.7074	-13.588999	0.000477	4.765101	1.614460	-0.000191
1099	1.0925e+02	-3.7443	-13.742410	0.000385	3.852634	1.305308	-0.000154
1100	1.0935e+02	-3.7844	-13.823153	0.000203	2.027702	0.687004	-0.000081
1101	1.0945e+02	-3.8373	-13.988675	0.000416	4.156790	1.408359	-0.000166
1102	1.0955e+02	-3.8614	-14.134012	0.000365	3.649864	1.236607	-0.000146
1103	1.0965e+02	-3.9015	-14.238978	0.000264	2.636013	0.893105	-0.000105
1104	1.0975e+02	-3.9384	-14.440835	0.000507	5.069256	1.717510	-0.000203
1105	1.0985e+02	-3.9849	-14.574060	0.000335	3.345709	1.133557	-0.000134
1106	1.0995e+02	-4.0170	-14.771880	0.000497	4.967871	1.683160	-0.000199
1107	1.1005e+02	-4.0619	-14.852622	0.000203	2.027702	0.687004	-0.000081
1108	1.1015e+02	-4.0956	-15.014108	0.000406	4.055405	1.374008	-0.000162
1109	1.1025e+02	-4.1357	-15.167519	0.000385	3.852634	1.305308	-0.000154
1110	1.1035e+02	-4.1854	-15.304782	0.000345	3.447094	1.167907	-0.000138
1111	1.1044e+02	-4.2191	-15.446081	0.000355	3.548479	1.202257	-0.000142
1112	1.1054e+02	-4.2608	-15.627752	0.000456	4.562330	1.545759	-0.000183
1113	1.1064e+02	-4.3009	-15.765015	0.000345	3.447094	1.167907	-0.000138
1114	1.1074e+02	-4.3362	-15.902278	0.000345	3.447094	1.167907	-0.000138
1115	1.1084e+02	-4.3812	-16.023392	0.000304	3.041554	1.030506	-0.000122
1116	1.1094e+02	-4.4181	-16.209100	0.000466	4.663715	1.580110	-0.000187
1117	1.1104e+02	-4.4598	-16.350400	0.000355	3.548479	1.202257	-0.000142
1118	1.1114e+02	-4.4935	-16.495737	0.000365	3.649864	1.236607	-0.000146
1119	1.1124e+02	-4.5368	-16.641074	0.000365	3.649864	1.236607	-0.000146
1120	1.1134e+02	-4.5753	-16.830819	0.000477	4.765101	1.614460	-0.000191
1121	1.1144e+02	-4.6250	-16.935784	0.000264	2.636013	0.893105	-0.000105
1122	1.1154e+02	-4.6571	-17.073047	0.000345	3.447094	1.167907	-0.000138
1123	1.1164e+02	-4.7004	-17.234532	0.000406	4.055405	1.374008	-0.000162
1124	1.1174e+02	-4.7293	-17.387944	0.000385	3.852634	1.305308	-0.000154
1125	1.1184e+02	-4.7774	-17.529243	0.000355	3.548479	1.202257	-0.000142
1126	1.1194e+02	-4.8111	-17.739174	0.000527	5.272026	1.786211	-0.000211
1127	1.1204e+02	-4.8560	-17.844140	0.000264	2.636013	0.893105	-0.000105
1128	1.1214e+02	-4.9025	-17.977365	0.000335	3.345709	1.133557	-0.000134
1129	1.1224e+02	-4.9346	-18.138851	0.000406	4.055405	1.374008	-0.000162
1130	1.1234e+02	-4.9747	-18.272076	0.000335	3.345709	1.133557	-0.000134
1131	1.1244e+02	-5.0196	-18.449710	0.000446	4.460945	1.511409	-0.000179
1132	1.1253e+02	-5.0533	-18.562750	0.000284	2.838783	0.961806	-0.000114
1133	1.1263e+02	-5.0950	-18.760570	0.000497	4.967871	1.683160	-0.000199
1134	1.1273e+02	-5.1368	-18.897832	0.000345	3.447094	1.167907	-0.000138
1135	1.1283e+02	-5.1849	-19.063355	0.000416	4.156790	1.408359	-0.000166
1136	1.1293e+02	-5.2234	-19.188506	0.000314	3.142939	1.064856	-0.000126
1137	1.1303e+02	-5.2507	-19.305583	0.000294	2.940168	0.996156	-0.000118
1138	1.1313e+02	-5.2843	-19.487254	0.000456	4.562330	1.545759	-0.000183
1139	1.1323e+02	-5.3373	-19.652777	0.000416	4.156790	1.408359	-0.000166
1140	1.1333e+02	-5.3678	-19.798114	0.000365	3.649864	1.236607	-0.000146
1141	1.1343e+02	-5.4127	-19.919228	0.000304	3.041554	1.030506	-0.000122
1142	1.1353e+02	-5.4496	-20.028230	0.000274	2.737398	0.927456	-0.000110
1143	1.1363e+02	-5.4913	-20.222013	0.000487	4.866486	1.648810	-0.000195
1144	1.1373e+02	-5.5394	-20.387535	0.000416	4.156790	1.408359	-0.000166
1145	1.1383e+02	-5.5843	-20.524798	0.000345	3.447094	1.167907	-0.000138
1146	1.1393e+02	-5.6036	-20.670135	0.000365	3.649864	1.236607	-0.000146
1147	1.1403e+02	-5.6453	-20.815472	0.000365	3.649864	1.236607	-0.000146
1148	1.1413e+02	-5.6918	-20.944660	0.000324	3.244324	1.099207	-0.000130
1149	1.1423e+02	-5.7399	-21.102109	0.000395	3.954020	1.339658	-0.000158
1150	1.1433e+02	-5.7784	-21.211111	0.000274	2.737398	0.927456	-0.000110
1151	1.1442e+02	-5.8250	-21.404894	0.000487	4.866486	1.648810	-0.000195
1152	1.1452e+02	-5.8490	-21.530045	0.000314	3.142939	1.064856	-0.000126
1153	1.1462e+02	-5.8988	-21.695567	0.000416	4.156790	1.408359	-0.000166
1154	1.1472e+02	-5.9244	-21.857053	0.000406	4.055405	1.374008	-0.000162
1155	1.1482e+02	-5.9742	-22.010464	0.000385	3.852634	1.305308	-0.000154
1156	1.1492e+02	-6.0095	-22.123504	0.000284	2.838783	0.961806	-0.000114
1157	1.1502e+02	-6.0528	-22.313249	0.000477	4.765101	1.614460	-0.000191
1158	1.1512e+02	-6.0849	-22.434363	0.000304	3.041554	1.030506	-0.000122
1159	1.1522e+02	-6.1298	-22.543366	0.000274	2.737398	0.927456	-0.000110
1160	1.1532e+02	-6.1715	-22.712926	0.000426	4.258175	1.442709	-0.000170
1161	1.1542e+02	-6.2052	-22.846151	0.000335	3.345709	1.133557	-0.000134
1162	1.1552e+02	-6.2453	-23.007637	0.000406	4.055405	1.374008	-0.000162
1163	1.1562e+02	-6.2902	-23.177196	0.000426	4.258175	1.442709	-0.000170
1164	1.1572e+02	-6.3351	-23.282162	0.000264	2.636013	0.893105	-0.000105
1165	1.1582e+02	-6.3672	-23.423462	0.000355	3.548479	1.202257	-0.000142
1166	1.1592e+02	-6.4105	-23.617244	0.000487	4.866486	1.648810	-0.000195
1167	1.1602e+02	-6.4442	-23.762581	0.000365	3.649864	1.236607	-0.000146
1168	1.1612e+02	-6.4843	-23.875621	0.000284	2.838783	0.961806	-0.000114
1169	1.1622e+02	-6.5180	-24.029032	0.000385	3.852634	1.305308	-0.000154
1170	1.1632e+02	-6.5613	-24.198592	0.000426	4.258175	1.442709	-0.000170
1171	1.1642e+02	-6.6062	-24.327780	0.000324	3.244324	1.099207	-0.000130
1172	1.1651e+02	-6.6495	-24.456968	0.000324	3.244324	1.099207	-0.000130
1173	1.1661e+02	-6.6848	-24.610379	0.000385	3.852634	1.305308	-0.000154
1174	1.1671e+02	-6.7153	-24.775902	0.000416	4.156790	1.408359	-0.000166
1175	1.1681e+02	-6.7602	-24.925276	0.000375	3.751249	1.270958	-0.000150
1176	1.1691e+02	-6.8036	-25.070613	0.000365	3.649864	1.236607	-0.000146
1177	1.1701e+02	-6.8372	-25.191727	0.000304	3.041554	1.030506	-0.000122
1178	1.1711e+02	-6.8854	-25.357250	0.000416	4.156790	1.408359	-0.000166
1179	1.1721e+02	-6.9223	-25.494512	0.000345	3.447094	1.167907	-0.000138
1180	1.1731e+02	-6.9688	-25.655998	0.000406	4.055405	1.374008	-0.000162
1181	1.1741e+02	-6.9977	-25.821520	0.000416	4.156790	1.408359	-0.000166
1182	1.1751e+02	-7.0458	-25.958783	0.000345	3.447094	1.167907	-0.000138
1183	1.1761e+02	-7.0891	-26.108157	0.000375	3.751249	1.270958	-0.000150
1184	1.1771e+02	-7.1292	-26.225234	0.000294	2.940168	0.996156	-0.000118
1185	1.1781e+02	-7.1613	-26.410942	0.000466	4.663715	1.580110	-0.000187
1186	1.1791e+02	-7.2078	-26.528019	0.000294	2.940168	0.996156	-0.000118
1187	1.1801e+02	-7.2463	-26.697579	0.000426	4.258175	1.442709	-0.000170
1188	1.1811e+02	-7.2704	-26.822730	0.000314	3.142939	1.064856	-0.000126
1189	1.1821e+02	-7.3281	-26.980178	0.000395	3.954020	1.339658	-0.000158
1190	1.1831e+02	-7.3650	-27.137626	0.000395	3.954020	1.339658	-0.000158
1191	1.1841e+02	-7.4083	-27.295075	0.000395	3.954020	1.339658	-0.000158
1192	1.1850e+02	-7.4485	-27.408115	0.000284	2.838783	0.961806	-0.000114
1193	1.1860e+02	-7.4821	-27.573637	0.000416	4.156790	1.408359	-0.000166
1194	1.1870e+02	-7.5190	-27.710900	0.000345	3.447094	1.167907	-0.000138
1195	1.1880e+02	-7.5607	-27.836051	0.000314	3.142939	1.064856	-0.000126
1196	1.1890e+02	-7.5976	-27.985425	0.000375	3.751249	1.270958	-0.000150
1197	1.1900e+02	-7.6474	-28.114613	0.000324	3.244324	1.099207	-0.000130
1198	1.1910e+02	-7.6859	-28.255913	0.000355	3.548479	1.202257	-0.000142
1199	1.1920e+02	-7.7212	-28.397213	0.000355	3.548479	1.202257	-0.000142
1200	1.1930e+02	-7.7581	-28.538513	0.000355	3.548479	1.202257	-0.000142
1201	1.1940e+02	-7.8014	-28.691924	0.000385	3.852634	1.305308	-0.000154
1202	1.1950e+02	-7.8399	-28.800926	0.000274	2.737398	0.927456	-0.000110
1203	1.1960e+02	-7.8736	-28.922040	0.000304	3.041554	1.030506	-0.000122
1204	1.1970e+02	-7.9169	-29.063340	0.000355	3.548479	1.202257	-0.000142
1205	1.1980e+02	-7.9602	-29.228863	0.000416	4.156790	1.408359	-0.000166
1206	1.1990e+02	-7.9987	-29.390348	0.000406	4.055405	1.374008	-0.000162
1207	1.2000e+02	-8.0372	-29.507425	0.000294	2.940168	0.996156	-0.000118
1208	1.2010e+02	-8.0789	-29.632576	0.000314	3.142939	1.064856	-0.000126
1209	1.2020e+02	-8.1126	-29.765802	0.000335	3.345709	1.133557	-0.000134
1210	1.2030e+02	-8.1607	-29.935361	0.000426	4.258175	1.442709	-0.000170
1211	1.2039e+02	-8.2105	-30.100884	0.000416	4.156790	1.408359	-0.000166
1212	1.2049e+02	-8.2458	-30.173553	0.000182	1.824932	0.618304	-0.000073
1213	1.2059e+02	-8.2762	-30.355224	0.000456	4.562330	1.545759	-0.000183
1214	1.2069e+02	-8.3163	-30.452115	0.000243	2.433243	0.824405	-0.000097
1215	1.2079e+02	-8.3629	-30.605526	0.000385	3.852634	1.305308	-0.000154
1216	1.2089e+02	-8.3901	-30.742789	0.000345	3.447094	1.167907	-0.000138
1217	1.2099e+02	-8.4367	-30.871977	0.000324	3.244324	1.099207	-0.000130
1218	1.2109e+02	-8.4736	-31.013277	0.000355	3.548479	1.202257	-0.000142
1219	1.2119e+02	-8.5217	-31.190911	0.000446	4.460945	1.511409	-0.000179
1220	1.2129e+02	-8.5602	-31.312025	0.000304	3.041554	1.030506	-0.000122
1221	1.2139e+02	-8.5955	-31.421027	0.000274	2.737398	0.927456	-0.000110
1222	1.2149e+02	-8.6388	-31.570401	0.000375	3.751249	1.270958	-0.000150
1223	1.2159e+02	-8.6725	-31.703627	0.000335	3.345709	1.133557	-0.000134
1224	1.2169e+02	-8.7126	-31.836852	0.000335	3.345709	1.133557	-0.000134
1225	1.2179e+02	-8.7543	-31.957967	0.000304	3.041554	1.030506	-0.000122
1226	1.2189e+02	-8.8056	-32.107341	0.000375	3.751249	1.270958	-0.000150
1227	1.2199e+02	-8.8265	-32.216343	0.000274	2.737398	0.927456	-0.000110
1228	1.2209e+02	-8.8730	-32.398014	0.000456	4.562330	1.545759	-0.000183
1229	1.2219e+02	-8.9243	-32.515091	0.000294	2.940168	0.996156	-0.000118
1230	1.2229e+02	-8.9548	-32.611982	0.000243	2.433243	0.824405	-0.000097
1231	1.2239e+02	-9.0014	-32.777505	0.000416	4.156790	1.408359	-0.000166
1232	1.2248e+02	-9.0350	-32.894582	0.000294	2.940168	0.996156	-0.000118
1233	1.2258e+02	-9.0687	-33.056067	0.000406	4.055405	1.374008	-0.000162
1234	1.2268e+02	-9.1136	-33.193330	0.000345	3.447094	1.167907	-0.000138
1235	1.2278e+02	-9.1570	-33.290221	0.000243	2.433243	0.824405	-0.000097
1236	1.2288e+02	-9.1939	-33.411335	0.000304	3.041554	1.030506	-0.000122
1237	1.2298e+02	-9.2292	-33.552635	0.000355	3.548479	1.202257	-0.000142
1238	1.2308e+02	-9.2741	-33.710083	0.000395	3.954020	1.339658	-0.000158
1239	1.2318e+02	-9.3206	-33.819086	0.000274	2.737398	0.927456	-0.000110
1240	1.2328e+02	-9.3623	-33.964423	0.000365	3.649864	1.236607	-0.000146
1241	1.2338e+02	-9.3992	-34.129946	0.000416	4.156790	1.408359	-0.000166
1242	1.2348e+02	-9.4361	-34.238948	0.000274	2.737398	0.927456	-0.000110
1243	1.2358e+02	-9.4714	-34.343914	0.000264	2.636013	0.893105	-0.000105
1244	1.2368e+02	-9.5147	-34.493288	0.000375	3.751249	1.270958	-0.000150
1245	1.2378e+02	-9.5660	-34.606328	0.000284	2.838783	0.961806	-0.000114
1246	1.2388e+02	-9.5981	-34.763776	0.000395	3.954020	1.339658	-0.000158
1247	1.2398e+02	-9.6334	-34.933336	0.000426	4.258175	1.442709	-0.000170
1248	1.2408e+02	-9.6687	-35.001967	0.000172	1.723547	0.583954	-0.000069
1249	1.2418e+02	-9.7184	-35.183638	0.000456	4.562330	1.545759	-0.000183
1250	1.2428e+02	-9.7537	-35.304752	0.000304	3.041554	1.030506	-0.000122
1251	1.2438e+02	-9.7938	-35.433940	0.000324	3.244324	1.099207	-0.000130
1252	1.2447e+02	-9.8339	-35.534869	0.000253	2.534628	0.858755	-0.000101
1253	1.2457e+02	-9.8708	-35.684243	0.000375	3.751249	1.270958	-0.000150
1254	1.2467e+02	-9.9254	-35.777097	0.000233	2.331858	0.790055	-0.000093
1255	1.2477e+02	-9.9543	-35.938582	0.000406	4.055405	1.374008	-0.000162
1256	1.2487e+02	-9.9912	-36.035474	0.000243	2.433243	0.824405	-0.000097
1257	1.2497e+02	-10.0313	-36.196959	0.000406	4.055405	1.374008	-0.000162
1258	1.2507e+02	-10.0810	-36.318073	0.000304	3.041554	1.030506	-0.000122
1259	1.2517e+02	-10.1083	-36.451299	0.000335	3.345709	1.133557	-0.000134
1260	1.2527e+02	-10.1548	-36.588561	0.000345	3.447094	1.167907	-0.000138
1261	1.2537e+02	-10.1885	-36.693527	0.000264	2.636013	0.893105	-0.000105
1262	1.2547e+02	-10.2334	-36.838864	0.000365	3.649864	1.236607	-0.000146
1263	1.2557e+02	-10.2703	-36.943829	0.000264	2.636013	0.893105	-0.000105
1264	1.2567e+02	-10.3152	-37.101277	0.000395	3.954020	1.339658	-0.000158
1265	1.2577e+02	-10.3521	-37.214317	0.000284	2.838783	0.961806	-0.000114
1266	1.2587e+02	-10.3922	-37.323320	0.000274	2.737398	0.927456	-0.000110
1267	1.2597e+02	-10.4275	-37.432323	0.000274	2.737398	0.927456	-0.000110
1268	1.2607e+02	-10.4708	-37.593808	0.000406	4.055405	1.374008	-0.000162
1269	1.2617e+02	-10.5190	-37.714922	0.000304	3.041554	1.030506	-0.000122
1270	1.2627e+02	-10.5510	-37.852185	0.000345	3.447094	1.167907	-0.000138
1271	1.2636e+02	-10.5911	-37.981373	0.000324	3.244324	1.099207	-0.000130
1272	1.2646e+02	-10.6280	-38.106524	0.000314	3.142939	1.064856	-0.000126
1273	1.2656e+02	-10.6778	-38.223601	0.000294	2.940168	0.996156	-0.000118
1274	1.2666e+02	-10.7131	-38.316455	0.000233	2.331858	0.790055	-0.000093
1275	1.2676e+02	-10.7548	-38.469866	0.000385	3.852634	1.305308	-0.000154
1276	1.2686e+02	-10.7965	-38.623278	0.000385	3.852634	1.305308	-0.000154
1277	1.2696e+02	-10.8286	-38.760540	0.000345	3.447094	1.167907	-0.000138
1278	1.2706e+02	-10.8735	-38.873580	0.000284	2.838783	0.961806	-0.000114
1279	1.2716e+02	-10.9008	-38.966434	0.000233	2.331858	0.790055	-0.000093
1280	1.2726e+02	-10.9473	-39.152142	0.000466	4.663715	1.580110	-0.000187
1281	1.2736e+02	-10.9842	-39.224811	0.000182	1.824932	0.618304	-0.000073
1282	1.2746e+02	-11.0323	-39.366111	0.000355	3.548479	1.202257	-0.000142
1283	1.2756e+02	-11.0612	-39.559893	0.000487	4.866486	1.648810	-0.000195
1284	1.2766e+02	-11.1109	-39.628524	0.000172	1.723547	0.583954	-0.000069
1285	1.2776e+02	-11.1510	-39.785973	0.000395	3.954020	1.339658	-0.000158
1286	1.2786e+02	-11.1847	-39.907087	0.000304	3.041554	1.030506	-0.000122
1287	1.2796e+02	-11.2360	-40.048387	0.000355	3.548479	1.202257	-0.000142
1288	1.2806e+02	-11.2617	-40.185649	0.000345	3.447094	1.167907	-0.000138
1289	1.2816e+02	-11.3130	-40.322912	0.000345	3.447094	1.167907	-0.000138
1290	1.2826e+02	-11.3467	-40.448063	0.000314	3.142939	1.064856	-0.000126
1291	1.2835e+02	-11.3868	-40.557066	0.000274	2.737398	0.927456	-0.000110
1292	1.2845e+02	-11.4253	-40.666068	0.000274	2.737398	0.927456	-0.000110
1293	1.2855e+02	-11.4590	-40.799294	0.000335	3.345709	1.133557	-0.000134
1294	1.2865e+02	-11.5007	-40.920408	0.000304	3.041554	1.030506	-0.000122
1295	1.2875e+02	-11.5569	-41.053633	0.000335	3.345709	1.133557	-0.000134
1296	1.2885e+02	-11.5858	-41.219156	0.000416	4.156790	1.408359	-0.000166
1297	1.2895e+02	-11.6307	-41.328159	0.000274	2.737398	0.927456	-0.000110
1298	1.2905e+02	-11.6644	-41.453310	0.000314	3.142939	1.064856	-0.000126
1299	1.2915e+02	-11.7029	-41.590572	0.000345	3.447094	1.167907	-0.000138
1300	1.2925e+02	-11.7494	-41.731872	0.000355	3.548479	1.202257	-0.000142
1301	1.2935e+02	-11.7895	-41.820689	0.000223	2.230473	0.755705	-0.000089
1302	1.2945e+02	-11.8200	-41.933729	0.000284	2.838783	0.961806	-0.000114
1303	1.2955e+02	-11.8665	-42.123474	0.000477	4.765101	1.614460	-0.000191
1304	1.2965e+02	-11.9034	-42.252663	0.000324	3.244324	1.099207	-0.000130
1305	1.2975e+02	-11.9499	-42.365702	0.000284	2.838783	0.961806	-0.000114
1306	1.2985e+02	-11.9852	-42.470668	0.000264	2.636013	0.893105	-0.000105
1307	1.2995e+02	-12.0269	-42.616005	0.000365	3.649864	1.236607	-0.000146
1308	1.3005e+02	-12.0574	-42.741156	0.000314	3.142939	1.064856	-0.000126
1309	1.3015e+02	-12.1136	-42.858233	0.000294	2.940168	0.996156	-0.000118
1310	1.3025e+02	-12.1408	-42.999533	0.000355	3.548479	1.202257	-0.000142
1311	1.3034e+02	-12.1809	-43.132758	0.000335	3.345709	1.133557	-0.000134
1312	1.3044e+02	-12.2194	-43.253872	0.000304	3.041554	1.030506	-0.000122
1313	1.3054e+02	-12.2644	-43.399209	0.000365	3.649864	1.236607	-0.000146
1314	1.3064e+02	-12.3093	-43.536472	0.000345	3.447094	1.167907	-0.000138
1315	1.3074e+02	-12.3462	-43.649512	0.000284	2.838783	0.961806	-0.000114
1316	1.3084e+02	-12.3815	-43.806960	0.000395	3.954020	1.339658	-0.000158
1317	1.3094e+02	-12.4264	-43.924037	0.000294	2.940168	0.996156	-0.000118
1318	1.3104e+02	-12.4601	-44.020928	0.000243	2.433243	0.824405	-0.000097
1319	1.3114e+02	-12.5130	-44.202599	0.000456	4.562330	1.545759	-0.000183
1320	1.3124e+02	-12.5515	-44.303528	0.000253	2.534628	0.858755	-0.000101
1321	1.3134e+02	-12.5852	-44.420605	0.000294	2.940168	0.996156	-0.000118
1322	1.3144e+02	-12.6221	-44.537681	0.000294	2.940168	0.996156	-0.000118
1323	1.3154e+02	-12.6670	-44.666870	0.000324	3.244324	1.099207	-0.000130
1324	1.3164e+02	-12.6959	-44.763761	0.000243	2.433243	0.824405	-0.000097
1325	1.3174e+02	-12.7440	-44.953506	0.000477	4.765101	1.614460	-0.000191
1326	1.3184e+02	-12.7825	-45.094806	0.000355	3.548479	1.202257	-0.000142
1327	1.3194e+02	-12.8210	-45.219957	0.000314	3.142939	1.064856	-0.000126
1328	1.3204e+02	-12.8547	-45.324923	0.000264	2.636013	0.893105	-0.000105
1329	1.3214e+02	-12.8996	-45.462186	0.000345	3.447094	1.167907	-0.000138
1330	1.3224e+02	-12.9349	-45.571188	0.000274	2.737398	0.927456	-0.000110
1331	1.3234e+02	-12.9782	-45.688265	0.000294	2.940168	0.996156	-0.000118
1332	1.3243e+02	-13.0248	-45.825528	0.000345	3.447094	1.167907	-0.000138
1333	1.3253e+02	-13.0520	-45.958753	0.000335	3.345709	1.133557	-0.000134
1334	1.3263e+02	-13.0937	-46.091979	0.000335	3.345709	1.133557	-0.000134
1335	1.3273e+02	-13.1451	-46.188870	0.000243	2.433243	0.824405	-0.000097
1336	1.3283e+02	-13.1804	-46.322095	0.000335	3.345709	1.133557	-0.000134
1337	1.3293e+02	-13.2157	-46.471469	0.000375	3.751249	1.270958	-0.000150
1338	1.3303e+02	-13.2606	-46.624881	0.000385	3.852634	1.305308	-0.000154
1339	1.3313e+02	-13.2959	-46.774255	0.000375	3.751249	1.270958	-0.000150
1340	1.3323e+02	-13.3392	-46.871146	0.000243	2.433243	0.824405	-0.000097
1341	1.3333e+02	-13.3729	-47.008409	0.000345	3.447094	1.167907	-0.000138
1342	1.3343e+02	-13.4258	-47.133560	0.000314	3.142939	1.064856	-0.000126
1343	1.3353e+02	-13.4659	-47.258711	0.000314	3.142939	1.064856	-0.000126
1344	1.3363e+02	-13.4932	-47.391936	0.000335	3.345709	1.133557	-0.000134
1345	1.3373e+02	-13.5429	-47.500939	0.000274	2.737398	0.927456	-0.000110
1346	1.3383e+02	-13.5750	-47.642239	0.000355	3.548479	1.202257	-0.000142
1347	1.3393e+02	-13.6231	-47.827947	0.000466	4.663715	1.580110	-0.000187
1348	1.3403e+02	-13.6536	-47.852170	0.000061	0.608311	0.206101	-0.000024
1349	1.3413e+02	-13.6969	-48.058064	0.000517	5.170641	1.751861	-0.000207
1350	1.3423e+02	-13.7451	-48.175141	0.000294	2.940168	0.996156	-0.000118
1351	1.3432e+02	-13.7739	-48.280106	0.000264	2.636013	0.893105	-0.000105
1352	1.3442e+02	-13.8140	-48.397183	0.000294	2.940168	0.996156	-0.000118
1353	1.3452e+02	-13.8574	-48.554632	0.000395	3.954020	1.339658	-0.000158
1354	1.3462e+02	-13.8878	-48.675746	0.000304	3.041554	1.030506	-0.000122
1355	1.3472e+02	-13.9360	-48.800897	0.000314	3.142939	1.064856	-0.000126
1356	1.3482e+02	-13.9761	-48.917974	0.000294	2.940168	0.996156	-0.000118
1357	1.3492e+02	-14.0050	-49.087533	0.000426	4.258175	1.442709	-0.000170
1358	1.3502e+02	-14.0659	-49.208648	0.000304	3.041554	1.030506	-0.000122
1359	1.3512e+02	-14.1044	-49.333799	0.000314	3.142939	1.064856	-0.000126
1360	1.3522e+02	-14.1365	-49.479136	0.000365	3.649864	1.236607	-0.000146
1361	1.3532e+02	-14.1766	-49.531618	0.000132	1.318007	0.446553	-0.000053
1362	1.3542e+02	-14.2167	-49.709252	0.000446	4.460945	1.511409	-0.000179
1363	1.3552e+02	-14.2584	-49.785958	0.000193	1.926317	0.652654	-0.000077
1364	1.3562e+02	-14.2953	-49.931295	0.000365	3.649864	1.236607	-0.000146
1365	1.3572e+02	-14.3370	-50.048372	0.000294	2.940168	0.996156	-0.000118
1366	1.3582e+02	-14.3739	-50.209857	0.000406	4.055405	1.374008	-0.000162
1367	1.3592e+02	-14.4188	-50.322897	0.000284	2.838783	0.961806	-0.000114
1368	1.3602e+02	-14.4590	-50.460160	0.000345	3.447094	1.167907	-0.000138
1369	1.3612e+02	-14.4975	-50.601459	0.000355	3.548479	1.202257	-0.000142
1370	1.3622e+02	-14.5392	-50.678165	0.000193	1.926317	0.652654	-0.000077
1371	1.3631e+02	-14.5777	-50.831576	0.000385	3.852634	1.305308	-0.000154
1372	1.3641e+02	-14.6194	-50.936542	0.000264	2.636013	0.893105	-0.000105
1373	1.3651e+02	-14.6659	-51.033433	0.000243	2.433243	0.824405	-0.000097
1374	1.3661e+02	-14.6884	-51.211067	0.000446	4.460945	1.511409	-0.000179
1375	1.3671e+02	-14.7285	-51.320070	0.000274	2.737398	0.927456	-0.000110
1376	1.3681e+02	-14.7654	-51.437146	0.000294	2.940168	0.996156	-0.000118
1377	1.3691e+02	-14.8135	-51.534038	0.000243	2.433243	0.824405	-0.000097
1378	1.3701e+02	-14.8520	-51.699560	0.000416	4.156790	1.408359	-0.000166
1379	1.3711e+02	-14.8841	-51.788377	0.000223	2.230473	0.755705	-0.000089
1380	1.3721e+02	-14.9322	-51.889306	0.000253	2.534628	0.858755	-0.000101
1381	1.3731e+02	-14.9707	-51.998308	0.000274	2.737398	0.927456	-0.000110
1382	1.3741e+02	-15.0156	-52.167868	0.000426	4.258175	1.442709	-0.000170
1383	1.3751e+02	-15.0509	-52.309168	0.000355	3.548479	1.202257	-0.000142
1384	1.3761e+02	-15.0974	-52.430282	0.000304	3.041554	1.030506	-0.000122
1385	1.3771e+02	-15.1407	-52.482765	0.000132	1.318007	0.446553	-0.000053
1386	1.3781e+02	-15.1584	-52.624064	0.000355	3.548479	1.202257	-0.000142
1387	1.3791e+02	-15.2178	-52.781513	0.000395	3.954020	1.339658	-0.000158
1388	1.3801e+02	-15.2546	-52.874367	0.000233	2.331858	0.790055	-0.000093
1389	1.3811e+02	-15.2915	-53.003555	0.000324	3.244324	1.099207	-0.000130
1390	1.3821e+02	-15.3333	-53.120632	0.000294	2.940168	0.996156	-0.000118
1391	1.3831e+02	-15.3669	-53.278080	0.000395	3.954020	1.339658	-0.000158
1392	1.3840e+02	-15.4103	-53.383046	0.000264	2.636013	0.893105	-0.000105
1393	1.3850e+02	-15.4536	-53.492049	0.000274	2.737398	0.927456	-0.000110
1394	1.3860e+02	-15.4808	-53.597014	0.000264	2.636013	0.893105	-0.000105
1395	1.3870e+02	-15.5274	-53.738314	0.000355	3.548479	1.202257	-0.000142
1396	1.3880e+02	-15.5739	-53.823094	0.000213	2.129087	0.721354	-0.000085
1397	1.3890e+02	-15.6108	-53.980542	0.000395	3.954020	1.339658	-0.000158
1398	1.3900e+02	-15.6397	-54.093582	0.000284	2.838783	0.961806	-0.000114
1399	1.3910e+02	-15.6846	-54.194510	0.000253	2.534628	0.858755	-0.000101
1400	1.3920e+02	-15.7279	-54.351958	0.000395	3.954020	1.339658	-0.000158
1401	1.3930e+02	-15.7776	-54.420590	0.000172	1.723547	0.583954	-0.000069
1402	1.3940e+02	-15.8097	-54.574001	0.000385	3.852634	1.305308	-0.000154
1403	1.3950e+02	-15.8530	-54.699152	0.000314	3.142939	1.064856	-0.000126
1404	1.3960e+02	-15.8963	-54.824303	0.000314	3.142939	1.064856	-0.000126
1405	1.3970e+02	-15.9300	-54.925232	0.000253	2.534628	0.858755	-0.000101
1406	1.3980e+02	-15.9669	-55.066531	0.000355	3.548479	1.202257	-0.000142
1407	1.3990e+02	-16.0167	-55.183608	0.000294	2.940168	0.996156	-0.000118
1408	1.4000e+02	-16.0503	-55.308760	0.000314	3.142939	1.064856	-0.000126
1409	1.4010e+02	-16.0889	-55.389502	0.000203	2.027702	0.687004	-0.000081
1410	1.4020e+02	-16.1257	-55.514654	0.000314	3.142939	1.064856	-0.000126
1411	1.4029e+02	-16.1675	-55.627693	0.000284	2.838783	0.961806	-0.000114
1412	1.4039e+02	-16.2076	-55.764956	0.000345	3.447094	1.167907	-0.000138
1413	1.4049e+02	-16.2541	-55.894144	0.000324	3.244324	1.099207	-0.000130
1414	1.4059e+02	-16.2926	-56.007184	0.000284	2.838783	0.961806	-0.000114
1415	1.4069e+02	-16.3247	-56.136372	0.000324	3.244324	1.099207	-0.000130
1416	1.4079e+02	-16.3632	-56.233264	0.000243	2.433243	0.824405	-0.000097
1417	1.4089e+02	-16.4081	-56.402823	0.000426	4.258175	1.442709	-0.000170
1418	1.4099e+02	-16.4434	-56.495678	0.000233	2.331858	0.790055	-0.000093
1419	1.4109e+02	-16.4867	-56.645052	0.000375	3.751249	1.270958	-0.000150
1420	1.4119e+02	-16.5204	-56.754054	0.000274	2.737398	0.927456	-0.000110
1421	1.4129e+02	-16.5653	-56.850945	0.000243	2.433243	0.824405	-0.000097
1422	1.4139e+02	-16.6134	-56.984171	0.000335	3.345709	1.133557	-0.000134
1423	1.4149e+02	-16.6423	-57.097211	0.000284	2.838783	0.961806	-0.000114
1424	1.4159e+02	-16.6792	-57.226399	0.000324	3.244324	1.099207	-0.000130
1425	1.4169e+02	-16.7129	-57.351550	0.000314	3.142939	1.064856	-0.000126
1426	1.4179e+02	-16.7610	-57.452479	0.000253	2.534628	0.858755	-0.000101
1427	1.4189e+02	-16.7931	-57.549370	0.000243	2.433243	0.824405	-0.000097
1428	1.4199e+02	-16.8396	-57.686633	0.000345	3.447094	1.167907	-0.000138
1429	1.4209e+02	-16.8781	-57.791598	0.000264	2.636013	0.893105	-0.000105
1430	1.4219e+02	-16.9166	-57.932898	0.000355	3.548479	1.202257	-0.000142
1431	1.4228e+02	-16.9632	-58.058049	0.000314	3.142939	1.064856	-0.000126
1432	1.4238e+02	-17.0097	-58.191275	0.000335	3.345709	1.133557	-0.000134
1433	1.4248e+02	-17.0514	-58.280092	0.000223	2.230473	0.755705	-0.000089
1434	1.4258e+02	-17.0755	-58.437540	0.000395	3.954020	1.339658	-0.000158
1435	1.4268e+02	-17.1252	-58.522320	0.000213	2.129087	0.721354	-0.000085
1436	1.4278e+02	-17.1621	-58.659582	0.000345	3.447094	1.167907	-0.000138
1437	1.4288e+02	-17.2086	-58.768585	0.000274	2.737398	0.927456	-0.000110
1438	1.4298e+02	-17.2423	-58.905848	0.000345	3.447094	1.167907	-0.000138
1439	1.4308e+02	-17.2920	-59.039073	0.000335	3.345709	1.133557	-0.000134
1440	1.4318e+02	-17.3273	-59.164224	0.000314	3.142939	1.064856	-0.000126
1441	1.4328e+02	-17.3546	-59.240930	0.000193	1.926317	0.652654	-0.000077
1442	1.4338e+02	-17.3947	-59.406452	0.000416	4.156790	1.408359	-0.000166
1443	1.4348e+02	-17.4460	-59.523529	0.000294	2.940168	0.996156	-0.000118
1444	1.4358e+02	-17.4926	-59.652718	0.000324	3.244324	1.099207	-0.000130
1445	1.4368e+02	-17.5214	-59.810166	0.000395	3.954020	1.339658	-0.000158
1446	1.4378e+02	-17.5631	-59.943391	0.000335	3.345709	1.133557	-0.000134
1447	1.4388e+02	-17.6097	-60.040283	0.000243	2.433243	0.824405	-0.000097
1448	1.4398e+02	-17.6385	-60.185620	0.000365	3.649864	1.236607	-0.000146
1449	1.4408e+02	-17.6931	-60.302697	0.000294	2.940168	0.996156	-0.000118
1450	1.4418e+02	-17.7188	-60.423811	0.000304	3.041554	1.030506	-0.000122
1451	1.4428e+02	-17.7573	-60.577222	0.000385	3.852634	1.305308	-0.000154
1452	1.4437e+02	-17.8038	-60.722559	0.000365	3.649864	1.236607	-0.000146
1453	1.4447e+02	-17.8567	-60.884044	0.000406	4.055405	1.374008	-0.000162
1454	1.4457e+02	-17.8760	-60.989010	0.000264	2.636013	0.893105	-0.000105
1455	1.4467e+02	-17.9225	-61.154532	0.000416	4.156790	1.408359	-0.000166
1456	1.4477e+02	-17.9594	-61.287758	0.000335	3.345709	1.133557	-0.000134
1457	1.4487e+02	-18.0011	-61.392723	0.000264	2.636013	0.893105	-0.000105
1458	1.4497e+02	-18.0460	-61.550171	0.000395	3.954020	1.339658	-0.000158
1459	1.4507e+02	-18.0749	-61.634951	0.000213	2.129087	0.721354	-0.000085
1460	1.4517e+02	-18.1166	-61.832771	0.000497	4.967871	1.683160	-0.000199
1461	1.4527e+02	-18.1567	-61.978108	0.000365	3.649864	1.236607	-0.000146
1462	1.4537e+02	-18.1952	-62.123445	0.000365	3.649864	1.236607	-0.000146
1463	1.4547e+02	-18.2241	-62.276856	0.000385	3.852634	1.305308	-0.000154
1464	1.4557e+02	-18.2818	-62.373747	0.000243	2.433243	0.824405	-0.000097
1465	1.4567e+02	-18.3139	-62.519084	0.000365	3.649864	1.236607	-0.000146
1466	1.4577e+02	-18.3604	-62.684607	0.000416	4.156790	1.408359	-0.000166
1467	1.4587e+02	-18.3845	-62.842055	0.000395	3.954020	1.339658	-0.000158
1468	1.4597e+02	-18.4358	-62.987392	0.000365	3.649864	1.236607	-0.000146
1469	1.4607e+02	-18.4872	-63.108506	0.000304	3.041554	1.030506	-0.000122
1470	1.4617e+02	-18.5209	-63.294214	0.000466	4.663715	1.580110	-0.000187
1471	1.4626e+02	-18.5513	-63.395142	0.000253	2.534628	0.858755	-0.000101
1472	1.4636e+02	-18.5963	-63.596999	0.000507	5.069256	1.717510	-0.000203
1473	1.4646e+02	-18.6364	-63.734262	0.000345	3.447094	1.167907	-0.000138
1474	1.4656e+02	-18.6749	-63.907859	0.000436	4.359560	1.477059	-0.000174
1475	1.4666e+02	-18.7182	-64.057233	0.000375	3.751249	1.270958	-0.000150
1476	1.4676e+02	-18.7551	-64.206607	0.000375	3.751249	1.270958	-0.000150
1477	1.4686e+02	-18.8064	-64.396352	0.000477	4.765101	1.614460	-0.000191
1478	1.4696e+02	-18.8433	-64.557838	0.000406	4.055405	1.374008	-0.000162
1479	1.4706e+02	-18.8722	-64.703174	0.000365	3.649864	1.236607	-0.000146
1480	1.4716e+02	-18.9203	-64.884846	0.000456	4.562330	1.545759	-0.000183
1481	1.4726e+02	-18.9572	-65.050368	0.000416	4.156790	1.408359	-0.000166
1482	1.4736e+02	-18.9973	-65.191668	0.000355	3.548479	1.202257	-0.000142
1483	1.4746e+02	-19.0390	-65.385450	0.000487	4.866486	1.648810	-0.000195
1484	1.4756e+02	-19.0711	-65.490416	0.000264	2.636013	0.893105	-0.000105
1485	1.4766e+02	-19.1144	-65.732644	0.000608	6.083107	2.061012	-0.000243
1486	1.4776e+02	-19.1561	-65.894130	0.000406	4.055405	1.374008	-0.000162
1487	1.4786e+02	-19.2011	-66.091949	0.000497	4.967871	1.683160	-0.000199
1488	1.4796e+02	-19.2396	-66.229212	0.000345	3.447094	1.167907	-0.000138
1489	1.4806e+02	-19.2652	-66.418957	0.000477	4.765101	1.614460	-0.000191
1490	1.4816e+02	-19.3214	-66.612740	0.000487	4.866486	1.648810	-0.000195
1491	1.4825e+02	-19.3567	-66.770188	0.000395	3.954020	1.339658	-0.000158
1492	1.4835e+02	-19.3904	-66.955896	0.000466	4.663715	1.580110	-0.000187
1493	1.4845e+02	-19.4305	-67.129493	0.000436	4.359560	1.477059	-0.000174
1494	1.4855e+02	-19.4738	-67.327313	0.000497	4.967871	1.683160	-0.000199
1495	1.4865e+02	-19.4994	-67.525132	0.000497	4.967871	1.683160	-0.000199
1496	1.4875e+02	-19.5476	-67.686618	0.000406	4.055405	1.374008	-0.000162
1497	1.4885e+02	-19.5957	-67.928846	0.000608	6.083107	2.061012	-0.000243
1498	1.4895e+02	-19.6278	-68.094368	0.000416	4.156790	1.408359	-0.000166
1499	1.4905e+02	-19.6615	-68.280077	0.000466	4.663715	1.580110	-0.000187
1500	1.4915e+02	-19.7080	-68.481934	0.000507	5.069256	1.717510	-0.000203
1501	1.4925e+02	-19.7609	-68.695902	0.000537	5.373411	1.820561	-0.000215
1502	1.4935e+02	-19.7946	-68.873536	0.000446	4.460945	1.511409	-0.000179
1503	1.4945e+02	-19.8251	-69.071355	0.000497	4.967871	1.683160	-0.000199
1504	1.4955e+02	-19.8668	-69.309546	0.000598	5.981722	2.026662	-0.000239
1505	1.4965e+02	-19.9053	-69.551774	0.000608	6.083107	2.061012	-0.000243
1506	1.4975e+02	-19.9502	-69.733446	0.000456	4.562330	1.545759	-0.000183
1507	1.4985e+02	-19.9871	-69.931265	0.000497	4.967871	1.683160	-0.000199
1508	1.4995e+02	-19.9486	-69.975674	-0.000112	-1.115236	-0.377852	-0.000045
1509	1.5005e+02	-19.9069	-70.007971	-0.000081	-0.811081	-0.274802	-0.000032
1510	1.5015e+02	-19.8748	-70.040268	-0.000081	-0.811081	-0.274802	-0.000032
1511	1.5025e+02	-19.8299	-70.044305	-0.000010	-0.101385	-0.034350	-0.000004
1512	1.5034e+02	-19.7930	-70.108899	-0.000162	-1.622162	-0.549603	-0.000065
1513	1.5044e+02	-19.7513	-70.076602	0.000081	0.811081	0.274802	0.000032
1514	1.5054e+02	-19.7176	-70.104862	-0.000071	-0.709696	-0.240451	-0.000028
1515	1.5064e+02	-19.6695	-70.125048	-0.000051	-0.506926	-0.171751	-0.000020
1516	1.5074e+02	-19.6406	-70.112936	0.000030	0.304155	0.103051	0.000012
1517	1.5084e+02	-19.5925	-70.100825	0.000030	0.304155	0.103051	0.000012
1518	1.5094e+02	-19.5604	-70.137159	-0.000091	-0.912466	-0.309152	-0.000037
1519	1.5104e+02	-19.5139	-70.080639	0.000142	1.419392	0.480903	0.000057
1520	1.5114e+02	-19.4642	-70.108899	-0.000071	-0.709696	-0.240451	-0.000028
1521	1.5124e+02	-19.4305	-70.088714	0.000051	0.506926	0.171751	0.000020
1522	1.5134e+02	-19.3952	-70.036231	0.000132	1.318007	0.446553	0.000053
1523	1.5144e+02	-19.3519	-70.040268	-0.000010	-0.101385	-0.034350	-0.000004
1524	1.5154e+02	-19.3118	-70.052379	-0.000030	-0.304155	-0.103051	-0.000012
1525	1.5164e+02	-19.2749	-69.983748	0.000172	1.723547	0.583954	0.000069
1526	1.5174e+02	-19.2283	-69.951451	0.000081	0.811081	0.274802	0.000032
1527	1.5184e+02	-19.1946	-69.911080	0.000101	1.013851	0.343502	0.000041
1528	1.5194e+02	-19.1577	-69.907042	0.000010	0.101385	0.034350	0.000004
1529	1.5204e+02	-19.1080	-69.834374	0.000182	1.824932	0.618304	0.000073
1530	1.5214e+02	-19.0840	-69.789966	0.000112	1.115236	0.377852	0.000045
1531	1.5224e+02	-19.0310	-69.745557	0.000112	1.115236	0.377852	0.000045
1532	1.5233e+02	-19.0005	-69.693074	0.000132	1.318007	0.446553	0.000053
1533	1.5243e+02	-18.9508	-69.668851	0.000061	0.608311	0.206101	0.000024
1534	1.5253e+02	-18.9187	-69.644629	0.000061	0.608311	0.206101	0.000024
1535	1.5263e+02	-18.8722	-69.559849	0.000213	2.129087	0.721354	0.000085
1536	1.5273e+02	-18.8369	-69.519477	0.000101	1.013851	0.343502	0.000041
1537	1.5283e+02	-18.7920	-69.462958	0.000142	1.419392	0.480903	0.000057
1538	1.5293e+02	-18.7487	-69.418549	0.000112	1.115236	0.377852	0.000045
1539	1.5303e+02	-18.7246	-69.353955	0.000162	1.622162	0.549603	0.000065
1540	1.5313e+02	-18.6717	-69.313583	0.000101	1.013851	0.343502	0.000041
1541	1.5323e+02	-18.6348	-69.216692	0.000243	2.433243	0.824405	0.000097
1542	1.5333e+02	-18.5963	-69.144024	0.000182	1.824932	0.618304	0.000073
1543	1.5343e+02	-18.5546	-69.135950	0.000020	0.202770	0.068700	0.000008
1544	1.5353e+02	-18.5177	-69.018873	0.000294	2.940168	0.996156	0.000118
1545	1.5363e+02	-18.4792	-68.962353	0.000142	1.419392	0.480903	0.000057
1546	1.5373e+02	-18.4374	-68.917944	0.000112	1.115236	0.377852	0.000045
1547	1.5383e+02	-18.4022	-68.825090	0.000233	2.331858	0.790055	0.000093
1548	1.5393e+02	-18.3492	-68.748384	0.000193	1.926317	0.652654	0.000077
1549	1.5403e+02	-18.3252	-68.748384	0.000000	0.000000	0.000000	0.000000
1550	1.5413e+02	-18.2850	-68.655530	0.000233	2.331858	0.790055	0.000093
1551	1.5422e+02	-18.2417	-68.594973	0.000152	1.520777	0.515253	0.000061
1552	1.5432e+02	-18.2032	-68.514231	0.000203	2.027702	0.687004	0.000081
1553	1.5442e+02	-18.1615	-68.389079	0.000314	3.142939	1.064856	0.000126
1554	1.5452e+02	-18.1086	-68.360819	0.000071	0.709696	0.240451	0.000028
1555	1.5462e+02	-18.0765	-68.292188	0.000172	1.723547	0.583954	0.000069
1556	1.5472e+02	-18.0396	-68.203371	0.000223	2.230473	0.755705	0.000089
1557	1.5482e+02	-18.0011	-68.150888	0.000132	1.318007	0.446553	0.000053
1558	1.5492e+02	-17.9578	-68.058034	0.000233	2.331858	0.790055	0.000093
1559	1.5502e+02	-17.9161	-67.953069	0.000264	2.636013	0.893105	0.000105
1560	1.5512e+02	-17.8792	-67.900586	0.000132	1.318007	0.446553	0.000053
1561	1.5522e+02	-17.8391	-67.811769	0.000223	2.230473	0.755705	0.000089
1562	1.5532e+02	-17.7893	-67.751212	0.000152	1.520777	0.515253	0.000061
1563	1.5542e+02	-17.7669	-67.646246	0.000264	2.636013	0.893105	0.000105
1564	1.5552e+02	-17.7139	-67.601838	0.000112	1.115236	0.377852	0.000045
1565	1.5562e+02	-17.6786	-67.492835	0.000274	2.737398	0.927456	0.000110
1566	1.5572e+02	-17.6482	-67.395944	0.000243	2.433243	0.824405	0.000097
1567	1.5582e+02	-17.6049	-67.371721	0.000061	0.608311	0.206101	0.000024
1568	1.5592e+02	-17.5647	-67.226384	0.000365	3.649864	1.236607	0.000146
1569	1.5602e+02	-17.5230	-67.157753	0.000172	1.723547	0.583954	0.000069
1570	1.5612e+02	-17.4797	-67.101233	0.000142	1.419392	0.480903	0.000057
1571	1.5622e+02	-17.4364	-67.012416	0.000223	2.230473	0.755705	0.000089
1572	1.5631e+02	-17.4027	-66.907451	0.000264	2.636013	0.893105	0.000105
1573	1.5641e+02	-17.3578	-66.806522	0.000253	2.534628	0.858755	0.000101
1574	1.5651e+02	-17.3193	-66.774225	0.000081	0.811081	0.274802	0.000032
1575	1.5661e+02	-17.2904	-66.701557	0.000182	1.824932	0.618304	0.000073
1576	1.5671e+02	-17.2471	-66.568331	0.000335	3.345709	1.133557	0.000134
1577	1.5681e+02	-17.2086	-66.495663	0.000182	1.824932	0.618304	0.000073
1578	1.5691e+02	-17.1685	-66.394734	0.000253	2.534628	0.858755	0.000101
1579	1.5701e+02	-17.1204	-66.305917	0.000223	2.230473	0.755705	0.000089
1580	1.5711e+02	-17.0819	-66.269583	0.000091	0.912466	0.309152	0.000037
1581	1.5721e+02	-17.0402	-66.140395	0.000324	3.244324	1.099207	0.000130
1582	1.5731e+02	-17.0097	-66.055615	0.000213	2.129087	0.721354	0.000085
1583	1.5741e+02	-16.9632	-65.962761	0.000233	2.331858	0.790055	0.000093
1584	1.5751e+02	-16.9231	-65.898167	0.000162	1.622162	0.549603	0.000065
1585	1.5761e+02	-16.8878	-65.809350	0.000223	2.230473	0.755705	0.000089
1586	1.5771e+02	-16.8428	-65.708421	0.000253	2.534628	0.858755	0.000101
1587	1.5781e+02	-16.7963	-65.599419	0.000274	2.737398	0.927456	0.000110
1588	1.5791e+02	-16.7658	-65.494453	0.000264	2.636013	0.893105	0.000105
1589	1.5801e+02	-16.7273	-65.397562	0.000243	2.433243	0.824405	0.000097
1590	1.5811e+02	-16.6808	-65.332968	0.000162	1.622162	0.549603	0.000065
1591	1.5821e+02	-16.6503	-65.219928	0.000284	2.838783	0.961806	0.000114
1592	1.5830e+02	-16.6102	-65.139185	0.000203	2.027702	0.687004	0.000081
1593	1.5840e+02	-16.5653	-65.009997	0.000324	3.244324	1.099207	0.000130
1594	1.5850e+02	-16.5252	-64.884846	0.000314	3.142939	1.064856	0.000126
1595	1.5860e+02	-16.4819	-64.808140	0.000193	1.926317	0.652654	0.000077
1596	1.5870e+02	-16.4498	-64.775843	0.000081	0.811081	0.274802	0.000032
1597	1.5880e+02	-16.4017	-64.630506	0.000365	3.649864	1.236607	0.000146
1598	1.5890e+02	-16.3632	-64.557838	0.000182	1.824932	0.618304	0.000073
1599	1.5900e+02	-16.3231	-64.452872	0.000264	2.636013	0.893105	0.000105
1600	1.5910e+02	-16.2749	-64.360018	0.000233	2.331858	0.790055	0.000093
1601	1.5920e+02	-16.2493	-64.251015	0.000274	2.737398	0.927456	0.000110
1602	1.5930e+02	-16.2108	-64.142013	0.000274	2.737398	0.927456	0.000110
1603	1.5940e+02	-16.1723	-64.081456	0.000152	1.520777	0.515253	0.000061
1604	1.5950e+02	-16.1290	-63.968416	0.000284	2.838783	0.961806	0.000114
1605	1.5960e+02	-16.0872	-63.859413	0.000274	2.737398	0.927456	0.000110
1606	1.5970e+02	-16.0455	-63.754448	0.000264	2.636013	0.893105	0.000105
1607	1.5980e+02	-16.0054	-63.673705	0.000203	2.027702	0.687004	0.000081
1608	1.5990e+02	-15.9717	-63.584888	0.000223	2.230473	0.755705	0.000089
1609	1.6000e+02	-15.9381	-63.447625	0.000345	3.447094	1.167907	0.000138
1610	1.6010e+02	-15.8899	-63.354771	0.000233	2.331858	0.790055	0.000093
1611	1.6019e+02	-15.8530	-63.286140	0.000172	1.723547	0.583954	0.000069
1612	1.6029e+02	-15.8113	-63.156951	0.000324	3.244324	1.099207	0.000130
1613	1.6039e+02	-15.7712	-63.108506	0.000122	1.216621	0.412202	0.000049
1614	1.6049e+02	-15.7279	-62.995466	0.000284	2.838783	0.961806	0.000114
1615	1.6059e+02	-15.6878	-62.878389	0.000294	2.940168	0.996156	0.000118
1616	1.6069e+02	-15.6493	-62.805721	0.000182	1.824932	0.618304	0.000073
1617	1.6079e+02	-15.6108	-62.708829	0.000243	2.433243	0.824405	0.000097
1618	1.6089e+02	-15.5707	-62.615975	0.000233	2.331858	0.790055	0.000093
1619	1.6099e+02	-15.5322	-62.494861	0.000304	3.041554	1.030506	0.000122
1620	1.6109e+02	-15.4921	-62.385859	0.000274	2.737398	0.927456	0.000110
1621	1.6119e+02	-15.4456	-62.309153	0.000193	1.926317	0.652654	0.000077
1622	1.6129e+02	-15.4151	-62.208225	0.000253	2.534628	0.858755	0.000101
1623	1.6139e+02	-15.3669	-62.119408	0.000223	2.230473	0.755705	0.000089
1624	1.6149e+02	-15.3317	-61.986182	0.000335	3.345709	1.133557	0.000134
1625	1.6159e+02	-15.2899	-61.929662	0.000142	1.419392	0.480903	0.000057
1626	1.6169e+02	-15.2434	-61.816622	0.000284	2.838783	0.961806	0.000114
1627	1.6179e+02	-15.2145	-61.699545	0.000294	2.940168	0.996156	0.000118
1628	1.6189e+02	-15.1728	-61.630914	0.000172	1.723547	0.583954	0.000069
1629	1.6199e+02	-15.1327	-61.517874	0.000284	2.838783	0.961806	0.000114
1630	1.6209e+02	-15.0942	-61.392723	0.000314	3.142939	1.064856	0.000126
1631	1.6219e+02	-15.0557	-61.328129	0.000162	1.622162	0.549603	0.000065
1632	1.6228e+02	-15.0108	-61.198941	0.000324	3.244324	1.099207	0.000130
1633	1.6238e+02	-14.9723	-61.150495	0.000122	1.216621	0.412202	0.000049
1634	1.6248e+02	-14.9290	-61.029381	0.000304	3.041554	1.030506	0.000122
1635	1.6258e+02	-14.8889	-60.932490	0.000243	2.433243	0.824405	0.000097
1636	1.6268e+02	-14.8552	-60.827524	0.000264	2.636013	0.893105	0.000105
1637	1.6278e+02	-14.8071	-60.734670	0.000233	2.331858	0.790055	0.000093
1638	1.6288e+02	-14.7702	-60.613556	0.000304	3.041554	1.030506	0.000122
1639	1.6298e+02	-14.7204	-60.520702	0.000233	2.331858	0.790055	0.000093
1640	1.6308e+02	-14.6980	-60.456108	0.000162	1.622162	0.549603	0.000065
1641	1.6318e+02	-14.6531	-60.355179	0.000253	2.534628	0.858755	0.000101
1642	1.6328e+02	-14.6049	-60.262325	0.000233	2.331858	0.790055	0.000093
1643	1.6338e+02	-14.5680	-60.137174	0.000314	3.142939	1.064856	0.000126
1644	1.6348e+02	-14.5343	-60.044320	0.000233	2.331858	0.790055	0.000093
1645	1.6358e+02	-14.4975	-59.903020	0.000355	3.548479	1.202257	0.000142
1646	1.6368e+02	-14.4525	-59.826315	0.000193	1.926317	0.652654	0.000077
1647	1.6378e+02	-14.4172	-59.745572	0.000203	2.027702	0.687004	0.000081
1648	1.6388e+02	-14.3739	-59.640606	0.000264	2.636013	0.893105	0.000105
1649	1.6398e+02	-14.3274	-59.555826	0.000213	2.129087	0.721354	0.000085
1650	1.6408e+02	-14.2969	-59.450861	0.000264	2.636013	0.893105	0.000105
1651	1.6418e+02	-14.2536	-59.329747	0.000304	3.041554	1.030506	0.000122
1652	1.6427e+02	-14.2119	-59.220744	0.000274	2.737398	0.927456	0.000110
1653	1.6437e+02	-14.1702	-59.144039	0.000193	1.926317	0.652654	0.000077
1654	1.6447e+02	-14.1525	-59.022924	0.000304	3.041554	1.030506	0.000122
1655	1.6457e+02	-14.0996	-58.962367	0.000152	1.520777	0.515253	0.000061
1656	1.6467e+02	-14.0579	-58.821068	0.000355	3.548479	1.202257	0.000142
1657	1.6477e+02	-14.0082	-58.695916	0.000314	3.142939	1.064856	0.000126
1658	1.6487e+02	-13.9793	-58.607100	0.000223	2.230473	0.755705	0.000089
1659	1.6497e+02	-13.9424	-58.502134	0.000264	2.636013	0.893105	0.000105
1660	1.6507e+02	-13.8911	-58.465800	0.000091	0.912466	0.309152	0.000037
1661	1.6517e+02	-13.8590	-58.320463	0.000365	3.649864	1.236607	0.000146
1662	1.6527e+02	-13.8157	-58.219534	0.000253	2.534628	0.858755	0.000101
1663	1.6537e+02	-13.7739	-58.102458	0.000294	2.940168	0.996156	0.000118
1664	1.6547e+02	-13.7338	-58.005566	0.000243	2.433243	0.824405	0.000097
1665	1.6557e+02	-13.6969	-57.916749	0.000223	2.230473	0.755705	0.000089
1666	1.6567e+02	-13.6552	-57.799672	0.000294	2.940168	0.996156	0.000118
1667	1.6577e+02	-13.6183	-57.735078	0.000162	1.622162	0.549603	0.000065
1668	1.6587e+02	-13.5766	-57.585704	0.000375	3.751249	1.270958	0.000150
1669	1.6597e+02	-13.5365	-57.492850	0.000233	2.331858	0.790055	0.000093
1670	1.6607e+02	-13.4916	-57.395959	0.000243	2.433243	0.824405	0.000097
1671	1.6616e+02	-13.4563	-57.303105	0.000233	2.331858	0.790055	0.000093
1672	1.6626e+02	-13.4194	-57.222362	0.000203	2.027702	0.687004	0.000081
1673	1.6636e+02	-13.3745	-57.093174	0.000324	3.244324	1.099207	0.000130
1674	1.6646e+02	-13.3360	-57.000319	0.000233	2.331858	0.790055	0.000093
1675	1.6656e+02	-13.2911	-56.871131	0.000324	3.244324	1.099207	0.000130
1676	1.6666e+02	-13.2590	-56.782314	0.000223	2.230473	0.755705	0.000089
1677	1.6676e+02	-13.2285	-56.645052	0.000345	3.447094	1.167907	0.000138
1678	1.6686e+02	-13.1868	-56.580457	0.000162	1.622162	0.549603	0.000065
1679	1.6696e+02	-13.1355	-56.471455	0.000274	2.737398	0.927456	0.000110
1680	1.6706e+02	-13.1018	-56.402823	0.000172	1.723547	0.583954	0.000069
1681	1.6716e+02	-13.0552	-56.289784	0.000284	2.838783	0.961806	0.000114
1682	1.6726e+02	-13.0151	-56.217115	0.000182	1.824932	0.618304	0.000073
1683	1.6736e+02	-12.9847	-56.063704	0.000385	3.852634	1.305308	0.000154
1684	1.6746e+02	-12.9381	-55.978924	0.000213	2.129087	0.721354	0.000085
1685	1.6756e+02	-12.8900	-55.873959	0.000264	2.636013	0.893105	0.000105
1686	1.6766e+02	-12.8692	-55.777067	0.000243	2.433243	0.824405	0.000097
1687	1.6776e+02	-12.8162	-55.635768	0.000355	3.548479	1.202257	0.000142
1688	1.6786e+02	-12.7889	-55.542913	0.000233	2.331858	0.790055	0.000093
1689	1.6796e+02	-12.7456	-55.494468	0.000122	1.216621	0.412202	0.000049
1690	1.6806e+02	-12.7071	-55.361242	0.000335	3.345709	1.133557	0.000134
1691	1.6816e+02	-12.6654	-55.288574	0.000182	1.824932	0.618304	0.000073
1692	1.6825e+02	-12.6253	-55.175534	0.000284	2.838783	0.961806	0.000114
1693	1.6835e+02	-12.5836	-55.030197	0.000365	3.649864	1.236607	0.000146
1694	1.6845e+02	-12.5371	-54.949455	0.000203	2.027702	0.687004	0.000081
1695	1.6855e+02	-12.5082	-54.828340	0.000304	3.041554	1.030506	0.000122
1696	1.6865e+02	-12.4553	-54.755672	0.000182	1.824932	0.618304	0.000073
1697	1.6875e+02	-12.4168	-54.642632	0.000284	2.838783	0.961806	0.000114
1698	1.6885e+02	-12.3799	-54.517481	0.000314	3.142939	1.064856	0.000126
1699	1.6895e+02	-12.3526	-54.408478	0.000274	2.737398	0.927456	0.000110
1700	1.6905e+02	-12.3077	-54.279290	0.000324	3.244324	1.099207	0.000130
1701	1.6915e+02	-12.2595	-54.174324	0.000264	2.636013	0.893105	0.000105
1702	1.6925e+02	-12.2307	-54.057248	0.000294	2.940168	0.996156	0.000118
1703	1.6935e+02	-12.1841	-53.960356	0.000243	2.433243	0.824405	0.000097
1704	1.6945e+02	-12.1489	-53.835205	0.000314	3.142939	1.064856	0.000126
1705	1.6955e+02	-12.0991	-53.778685	0.000142	1.419392	0.480903	0.000057
1706	1.6965e+02	-12.0654	-53.601051	0.000446	4.460945	1.511409	0.000179
1707	1.6975e+02	-12.0237	-53.504160	0.000243	2.433243	0.824405	0.000097
1708	1.6985e+02	-11.9884	-53.395157	0.000274	2.737398	0.927456	0.000110
1709	1.6995e+02	-11.9435	-53.278080	0.000294	2.940168	0.996156	0.000118
1710	1.7005e+02	-11.9050	-53.165041	0.000284	2.838783	0.961806	0.000114
1711	1.7015e+02	-11.8681	-53.043926	0.000304	3.041554	1.030506	0.000122
1712	1.7024e+02	-11.8296	-52.963184	0.000203	2.027702	0.687004	0.000081
1713	1.7034e+02	-11.7847	-52.866292	0.000243	2.433243	0.824405	0.000097
1714	1.7044e+02	-11.7510	-52.696733	0.000426	4.258175	1.442709	0.000170
1715	1.7054e+02	-11.7109	-52.620027	0.000193	1.926317	0.652654	0.000077
1716	1.7064e+02	-11.6740	-52.446430	0.000436	4.359560	1.477059	0.000174
1717	1.7074e+02	-11.6275	-52.373762	0.000182	1.824932	0.618304	0.000073
1718	1.7084e+02	-11.5842	-52.313205	0.000152	1.520777	0.515253	0.000061
1719	1.7094e+02	-11.5409	-52.179979	0.000335	3.345709	1.133557	0.000134
1720	1.7104e+02	-11.5056	-52.075014	0.000264	2.636013	0.893105	0.000105
1721	1.7114e+02	-11.4622	-51.913528	0.000406	4.055405	1.374008	0.000162
1722	1.7124e+02	-11.4253	-51.836823	0.000193	1.926317	0.652654	0.000077
1723	1.7134e+02	-11.3868	-51.723783	0.000284	2.838783	0.961806	0.000114
1724	1.7144e+02	-11.3612	-51.558261	0.000416	4.156790	1.408359	0.000166
1725	1.7154e+02	-11.3163	-51.465406	0.000233	2.331858	0.790055	0.000093
1726	1.7164e+02	-11.2729	-51.336218	0.000324	3.244324	1.099207	0.000130
1727	1.7174e+02	-11.2344	-51.247401	0.000223	2.230473	0.755705	0.000089
1728	1.7184e+02	-11.1863	-51.118213	0.000324	3.244324	1.099207	0.000130
1729	1.7194e+02	-11.1510	-50.997099	0.000304	3.041554	1.030506	0.000122
1730	1.7204e+02	-11.1109	-50.892133	0.000264	2.636013	0.893105	0.000105
1731	1.7213e+02	-11.0564	-50.734685	0.000395	3.954020	1.339658	0.000158
1732	1.7223e+02	-11.0275	-50.641831	0.000233	2.331858	0.790055	0.000093
1733	1.7233e+02	-10.9826	-50.532828	0.000274	2.737398	0.927456	0.000110
1734	1.7243e+02	-10.9457	-50.399603	0.000335	3.345709	1.133557	0.000134
1735	1.7253e+02	-10.9104	-50.274451	0.000314	3.142939	1.064856	0.000126
1736	1.7263e+02	-10.8751	-50.153337	0.000304	3.041554	1.030506	0.000122
1737	1.7273e+02	-10.8270	-50.056446	0.000243	2.433243	0.824405	0.000097
1738	1.7283e+02	-10.7901	-49.943406	0.000284	2.838783	0.961806	0.000114
1739	1.7293e+02	-10.7516	-49.810181	0.000335	3.345709	1.133557	0.000134
1740	1.7303e+02	-10.7115	-49.701178	0.000274	2.737398	0.927456	0.000110
1741	1.7313e+02	-10.6730	-49.576027	0.000314	3.142939	1.064856	0.000126
1742	1.7323e+02	-10.6296	-49.462987	0.000284	2.838783	0.961806	0.000114
1743	1.7333e+02	-10.5847	-49.386281	0.000193	1.926317	0.652654	0.000077
1744	1.7343e+02	-10.5591	-49.196536	0.000477	4.765101	1.614460	0.000191
1745	1.7353e+02	-10.5077	-49.087533	0.000274	2.737398	0.927456	0.000110
1746	1.7363e+02	-10.4724	-49.022939	0.000162	1.622162	0.549603	0.000065
1747	1.7373e+02	-10.4323	-48.893751	0.000324	3.244324	1.099207	0.000130
1748	1.7383e+02	-10.3906	-48.728228	0.000416	4.156790	1.408359	0.000166
1749	1.7393e+02	-10.3521	-48.635374	0.000233	2.331858	0.790055	0.000093
1750	1.7403e+02	-10.3056	-48.498112	0.000345	3.447094	1.167907	0.000138
1751	1.7413e+02	-10.2783	-48.381035	0.000294	2.940168	0.996156	0.000118
1752	1.7422e+02	-10.2286	-48.251846	0.000324	3.244324	1.099207	0.000130
1753	1.7432e+02	-10.1901	-48.150918	0.000253	2.534628	0.858755	0.000101
1754	1.7442e+02	-10.1516	-48.021730	0.000324	3.244324	1.099207	0.000130
1755	1.7452e+02	-10.1147	-47.920801	0.000253	2.534628	0.858755	0.000101
1756	1.7462e+02	-10.0714	-47.795650	0.000314	3.142939	1.064856	0.000126
1757	1.7472e+02	-10.0345	-47.666462	0.000324	3.244324	1.099207	0.000130
1758	1.7482e+02	-9.9880	-47.504976	0.000406	4.055405	1.374008	0.000162
1759	1.7492e+02	-9.9527	-47.400011	0.000264	2.636013	0.893105	0.000105
1760	1.7502e+02	-9.9110	-47.274859	0.000314	3.142939	1.064856	0.000126
1761	1.7512e+02	-9.8805	-47.149708	0.000314	3.142939	1.064856	0.000126
1762	1.7522e+02	-9.8356	-47.040706	0.000274	2.737398	0.927456	0.000110
1763	1.7532e+02	-9.8003	-46.923629	0.000294	2.940168	0.996156	0.000118
1764	1.7542e+02	-9.7602	-46.750032	0.000436	4.359560	1.477059	0.000174
1765	1.7552e+02	-9.7104	-46.608732	0.000355	3.548479	1.202257	0.000142
1766	1.7562e+02	-9.6687	-46.491655	0.000294	2.940168	0.996156	0.000118
1767	1.7572e+02	-9.6382	-46.402838	0.000223	2.230473	0.755705	0.000089
1768	1.7582e+02	-9.5885	-46.277687	0.000314	3.142939	1.064856	0.000126
1769	1.7592e+02	-9.5548	-46.144461	0.000335	3.345709	1.133557	0.000134
1770	1.7602e+02	-9.5099	-46.023347	0.000304	3.041554	1.030506	0.000122
1771	1.7612e+02	-9.4746	-45.869936	0.000385	3.852634	1.305308	0.000154
1772	1.7621e+02	-9.4345	-45.769008	0.000253	2.534628	0.858755	0.000101
1773	1.7631e+02	-9.4040	-45.684228	0.000213	2.129087	0.721354	0.000085
1774	1.7641e+02	-9.3575	-45.510631	0.000436	4.359560	1.477059	0.000174
1775	1.7651e+02	-9.3222	-45.361257	0.000375	3.751249	1.270958	0.000150
1776	1.7661e+02	-9.2693	-45.256292	0.000264	2.636013	0.893105	0.000105
1777	1.7671e+02	-9.2404	-45.135178	0.000304	3.041554	1.030506	0.000122
1778	1.7681e+02	-9.2003	-45.018101	0.000294	2.940168	0.996156	0.000118
1779	1.7691e+02	-9.1554	-44.884875	0.000335	3.345709	1.133557	0.000134
1780	1.7701e+02	-9.1136	-44.787984	0.000243	2.433243	0.824405	0.000097
1781	1.7711e+02	-9.0864	-44.678981	0.000274	2.737398	0.927456	0.000110
1782	1.7721e+02	-9.0382	-44.489236	0.000477	4.765101	1.614460	0.000191
1783	1.7731e+02	-9.0014	-44.388307	0.000253	2.534628	0.858755	0.000101
1784	1.7741e+02	-8.9484	-44.259119	0.000324	3.244324	1.099207	0.000130
1785	1.7751e+02	-8.9147	-44.129931	0.000324	3.244324	1.099207	0.000130
1786	1.7761e+02	-8.8826	-43.992668	0.000345	3.447094	1.167907	0.000138
1787	1.7771e+02	-8.8297	-43.907888	0.000213	2.129087	0.721354	0.000085
1788	1.7781e+02	-8.7960	-43.762551	0.000365	3.649864	1.236607	0.000146
1789	1.7791e+02	-8.7479	-43.665660	0.000243	2.433243	0.824405	0.000097
1790	1.7801e+02	-8.7174	-43.528398	0.000345	3.447094	1.167907	0.000138
1791	1.7810e+02	-8.6741	-43.391135	0.000345	3.447094	1.167907	0.000138
1792	1.7820e+02	-8.6420	-43.245798	0.000365	3.649864	1.236607	0.000146
1793	1.7830e+02	-8.5907	-43.140832	0.000264	2.636013	0.893105	0.000105
1794	1.7840e+02	-8.5650	-42.983384	0.000395	3.954020	1.339658	0.000158
1795	1.7850e+02	-8.5201	-42.886493	0.000243	2.433243	0.824405	0.000097
1796	1.7860e+02	-8.4800	-42.765379	0.000304	3.041554	1.030506	0.000122
1797	1.7870e+02	-8.4351	-42.628116	0.000345	3.447094	1.167907	0.000138
1798	1.7880e+02	-8.3933	-42.535262	0.000233	2.331858	0.790055	0.000093
1799	1.7890e+02	-8.3645	-42.393962	0.000355	3.548479	1.202257	0.000142
1800	1.7900e+02	-8.3260	-42.264774	0.000324	3.244324	1.099207	0.000130
1801	1.7910e+02	-8.2794	-42.143660	0.000304	3.041554	1.030506	0.000122
1802	1.7920e+02	-8.2458	-41.970063	0.000436	4.359560	1.477059	0.000174
1803	1.7930e+02	-8.1944	-41.889320	0.000203	2.027702	0.687004	0.000081
1804	1.7940e+02	-8.1623	-41.756095	0.000335	3.345709	1.133557	0.000134
1805	1.7950e+02	-8.1254	-41.634981	0.000304	3.041554	1.030506	0.000122
1806	1.7960e+02	-8.0773	-41.530015	0.000264	2.636013	0.893105	0.000105
1807	1.7970e+02	-8.0420	-41.412938	0.000294	2.940168	0.996156	0.000118
1808	1.7980e+02	-7.9971	-41.312010	0.000253	2.534628	0.858755	0.000101
1809	1.7990e+02	-7.9762	-41.154562	0.000395	3.954020	1.339658	0.000158
1810	1.8000e+02	-7.9169	-40.985002	0.000426	4.258175	1.442709	0.000170
1811	1.8009e+02	-7.8880	-40.924445	0.000152	1.520777	0.515253	0.000061
1812	1.8019e+02	-7.8351	-40.762960	0.000406	4.055405	1.374008	0.000162
1813	1.8029e+02	-7.7982	-40.637808	0.000314	3.142939	1.064856	0.000126
1814	1.8039e+02	-7.7613	-40.508620	0.000324	3.244324	1.099207	0.000130
1815	1.8049e+02	-7.7276	-40.395580	0.000284	2.838783	0.961806	0.000114
1816	1.8059e+02	-7.6779	-40.282540	0.000284	2.838783	0.961806	0.000114
1817	1.8069e+02	-7.6394	-40.129129	0.000385	3.852634	1.305308	0.000154
1818	1.8079e+02	-7.5993	-39.979755	0.000375	3.751249	1.270958	0.000150
1819	1.8089e+02	-7.5720	-39.862678	0.000294	2.940168	0.996156	0.000118
1820	1.8099e+02	-7.5319	-39.761750	0.000253	2.534628	0.858755	0.000101
1821	1.8109e+02	-7.4854	-39.640636	0.000304	3.041554	1.030506	0.000122
1822	1.8119e+02	-7.4404	-39.495299	0.000365	3.649864	1.236607	0.000146
1823	1.8129e+02	-7.4019	-39.353999	0.000355	3.548479	1.202257	0.000142
1824	1.8139e+02	-7.3650	-39.216737	0.000345	3.447094	1.167907	0.000138
1825	1.8149e+02	-7.3265	-39.087548	0.000324	3.244324	1.099207	0.000130
1826	1.8159e+02	-7.2768	-38.970471	0.000294	2.940168	0.996156	0.000118
1827	1.8169e+02	-7.2319	-38.845320	0.000314	3.142939	1.064856	0.000126
1828	1.8179e+02	-7.1982	-38.744392	0.000253	2.534628	0.858755	0.000101
1829	1.8189e+02	-7.1565	-38.590981	0.000385	3.852634	1.305308	0.000154
1830	1.8199e+02	-7.1228	-38.441606	0.000375	3.751249	1.270958	0.000150
1831	1.8209e+02	-7.0843	-38.336641	0.000264	2.636013	0.893105	0.000105
1832	1.8218e+02	-7.0474	-38.203415	0.000335	3.345709	1.133557	0.000134
1833	1.8228e+02	-7.0057	-38.086339	0.000294	2.940168	0.996156	0.000118
1834	1.8238e+02	-6.9704	-38.001559	0.000213	2.129087	0.721354	0.000085
1835	1.8248e+02	-6.9223	-37.799702	0.000507	5.069256	1.717510	0.000203
1836	1.8258e+02	-6.8790	-37.718959	0.000203	2.027702	0.687004	0.000081
1837	1.8268e+02	-6.8485	-37.569585	0.000375	3.751249	1.270958	0.000150
1838	1.8278e+02	-6.8100	-37.464620	0.000264	2.636013	0.893105	0.000105
1839	1.8288e+02	-6.7683	-37.323320	0.000355	3.548479	1.202257	0.000142
1840	1.8298e+02	-6.7282	-37.210280	0.000284	2.838783	0.961806	0.000114
1841	1.8308e+02	-6.6848	-37.024572	0.000466	4.663715	1.580110	0.000187
1842	1.8318e+02	-6.6463	-36.939792	0.000213	2.129087	0.721354	0.000085
1843	1.8328e+02	-6.6062	-36.834826	0.000264	2.636013	0.893105	0.000105
1844	1.8338e+02	-6.5645	-36.689490	0.000365	3.649864	1.236607	0.000146
1845	1.8348e+02	-6.5292	-36.548190	0.000355	3.548479	1.202257	0.000142
1846	1.8358e+02	-6.4731	-36.410927	0.000345	3.447094	1.167907	0.000138
1847	1.8368e+02	-6.4506	-36.285776	0.000314	3.142939	1.064856	0.000126
1848	1.8378e+02	-6.4057	-36.188885	0.000243	2.433243	0.824405	0.000097
1849	1.8388e+02	-6.3688	-36.051622	0.000345	3.447094	1.167907	0.000138
1850	1.8398e+02	-6.3319	-35.882062	0.000426	4.258175	1.442709	0.000170
1851	1.8407e+02	-6.2806	-35.817468	0.000162	1.622162	0.549603	0.000065
1852	1.8417e+02	-6.2565	-35.676169	0.000355	3.548479	1.202257	0.000142
1853	1.8427e+02	-6.2132	-35.575240	0.000253	2.534628	0.858755	0.000101
1854	1.8437e+02	-6.1747	-35.429903	0.000365	3.649864	1.236607	0.000146
1855	1.8447e+02	-6.1266	-35.276492	0.000385	3.852634	1.305308	0.000154
1856	1.8457e+02	-6.0865	-35.147304	0.000324	3.244324	1.099207	0.000130
1857	1.8467e+02	-6.0576	-35.030227	0.000294	2.940168	0.996156	0.000118
1858	1.8477e+02	-6.0143	-34.921224	0.000274	2.737398	0.927456	0.000110
1859	1.8487e+02	-5.9774	-34.747627	0.000436	4.359560	1.477059	0.000174
1860	1.8497e+02	-5.9292	-34.594216	0.000385	3.852634	1.305308	0.000154
1861	1.8507e+02	-5.8956	-34.509436	0.000213	2.129087	0.721354	0.000085
1862	1.8517e+02	-5.8522	-34.372174	0.000345	3.447094	1.167907	0.000138
1863	1.8527e+02	-5.8169	-34.247022	0.000314	3.142939	1.064856	0.000126
1864	1.8537e+02	-5.7704	-34.093611	0.000385	3.852634	1.305308	0.000154
1865	1.8547e+02	-5.7191	-33.956349	0.000345	3.447094	1.167907	0.000138
1866	1.8557e+02	-5.6982	-33.835235	0.000304	3.041554	1.030506	0.000122
1867	1.8567e+02	-5.6581	-33.693935	0.000355	3.548479	1.202257	0.000142
1868	1.8577e+02	-5.6084	-33.544561	0.000375	3.751249	1.270958	0.000150
1869	1.8587e+02	-5.5779	-33.395187	0.000375	3.751249	1.270958	0.000150
1870	1.8597e+02	-5.5346	-33.265998	0.000324	3.244324	1.099207	0.000130
1871	1.8606e+02	-5.4913	-33.161033	0.000264	2.636013	0.893105	0.000105
1872	1.8616e+02	-5.4624	-33.003585	0.000395	3.954020	1.339658	0.000158
1873	1.8626e+02	-5.4063	-32.898619	0.000264	2.636013	0.893105	0.000105
1874	1.8636e+02	-5.3662	-32.741171	0.000395	3.954020	1.339658	0.000158
1875	1.8646e+02	-5.3373	-32.616020	0.000314	3.142939	1.064856	0.000126
1876	1.8656e+02	-5.2940	-32.458571	0.000395	3.954020	1.339658	0.000158
1877	1.8666e+02	-5.2490	-32.301123	0.000395	3.954020	1.339658	0.000158
1878	1.8676e+02	-5.2138	-32.180009	0.000304	3.041554	1.030506	0.000122
1879	1.8686e+02	-5.1801	-32.050821	0.000324	3.244324	1.099207	0.000130
1880	1.8696e+02	-5.1416	-31.921632	0.000324	3.244324	1.099207	0.000130
1881	1.8706e+02	-5.1031	-31.739961	0.000456	4.562330	1.545759	0.000183
1882	1.8716e+02	-5.0517	-31.606736	0.000335	3.345709	1.133557	0.000134
1883	1.8726e+02	-5.0148	-31.509844	0.000243	2.433243	0.824405	0.000097
1884	1.8736e+02	-4.9747	-31.372582	0.000345	3.447094	1.167907	0.000138
1885	1.8746e+02	-4.9282	-31.231282	0.000355	3.548479	1.202257	0.000142
1886	1.8756e+02	-4.8897	-31.081908	0.000375	3.751249	1.270958	0.000150
1887	1.8766e+02	-4.8544	-30.940608	0.000355	3.548479	1.202257	0.000142
1888	1.8776e+02	-4.8207	-30.807383	0.000335	3.345709	1.133557	0.000134
1889	1.8786e+02	-4.7726	-30.658009	0.000375	3.751249	1.270958	0.000150
1890	1.8796e+02	-4.7357	-30.484412	0.000436	4.359560	1.477059	0.000174
1891	1.8806e+02	-4.6988	-30.375409	0.000274	2.737398	0.927456	0.000110
1892	1.8815e+02	-4.6587	-30.234110	0.000355	3.548479	1.202257	0.000142
1893	1.8825e+02	-4.6186	-30.068587	0.000416	4.156790	1.408359	0.000166
1894	1.8835e+02	-4.5769	-29.955547	0.000284	2.838783	0.961806	0.000114
1895	1.8845e+02	-4.5416	-29.773876	0.000456	4.562330	1.545759	0.000183
1896	1.8855e+02	-4.5063	-29.628539	0.000365	3.649864	1.236607	0.000146
1897	1.8865e+02	-4.4630	-29.507425	0.000304	3.041554	1.030506	0.000122
1898	1.8875e+02	-4.4132	-29.329791	0.000446	4.460945	1.511409	0.000179
1899	1.8885e+02	-4.3715	-29.212714	0.000294	2.940168	0.996156	0.000118
1900	1.8895e+02	-4.3362	-29.083526	0.000324	3.244324	1.099207	0.000130
1901	1.8905e+02	-4.3042	-28.934152	0.000375	3.751249	1.270958	0.000150
1902	1.8915e+02	-4.2512	-28.776704	0.000395	3.954020	1.339658	0.000158
1903	1.8925e+02	-4.2143	-28.631367	0.000365	3.649864	1.236607	0.000146
1904	1.8935e+02	-4.1790	-28.494104	0.000345	3.447094	1.167907	0.000138
1905	1.8945e+02	-4.1421	-28.344730	0.000375	3.751249	1.270958	0.000150
1906	1.8955e+02	-4.0940	-28.219579	0.000314	3.142939	1.064856	0.000126
1907	1.8965e+02	-4.0539	-28.045982	0.000436	4.359560	1.477059	0.000174
1908	1.8975e+02	-4.0186	-27.965239	0.000203	2.027702	0.687004	0.000081
1909	1.8985e+02	-3.9753	-27.759345	0.000517	5.170641	1.751861	0.000207
1910	1.8995e+02	-3.9384	-27.609971	0.000375	3.751249	1.270958	0.000150
1911	1.9004e+02	-3.8951	-27.480783	0.000324	3.244324	1.099207	0.000130
1912	1.9014e+02	-3.8582	-27.299112	0.000456	4.562330	1.545759	0.000183
1913	1.9024e+02	-3.8197	-27.190109	0.000274	2.737398	0.927456	0.000110
1914	1.9034e+02	-3.7780	-27.097255	0.000233	2.331858	0.790055	0.000093
1915	1.9044e+02	-3.7379	-26.875213	0.000558	5.576181	1.889261	0.000223
1916	1.9054e+02	-3.6929	-26.762173	0.000284	2.838783	0.961806	0.000114
1917	1.9064e+02	-3.6625	-26.641059	0.000304	3.041554	1.030506	0.000122
1918	1.9074e+02	-3.6143	-26.475536	0.000416	4.156790	1.408359	0.000166
1919	1.9084e+02	-3.5855	-26.322125	0.000385	3.852634	1.305308	0.000154
1920	1.9094e+02	-3.5357	-26.180825	0.000355	3.548479	1.202257	0.000142
1921	1.9104e+02	-3.4940	-26.015303	0.000416	4.156790	1.408359	0.000166
1922	1.9114e+02	-3.4571	-25.878040	0.000345	3.447094	1.167907	0.000138
1923	1.9124e+02	-3.4282	-25.740777	0.000345	3.447094	1.167907	0.000138
1924	1.9134e+02	-3.3817	-25.559106	0.000456	4.562330	1.545759	0.000183
1925	1.9144e+02	-3.3432	-25.462215	0.000243	2.433243	0.824405	0.000097
1926	1.9154e+02	-3.2983	-25.292655	0.000426	4.258175	1.442709	0.000170
1927	1.9164e+02	-3.2550	-25.102910	0.000477	4.765101	1.614460	0.000191
1928	1.9174e+02	-3.2325	-24.957573	0.000365	3.649864	1.236607	0.000146
1929	1.9184e+02	-3.1844	-24.840496	0.000294	2.940168	0.996156	0.000118
1930	1.9194e+02	-3.1427	-24.679011	0.000406	4.055405	1.374008	0.000162
1931	1.9203e+02	-3.1138	-24.529637	0.000375	3.751249	1.270958	0.000150
1932	1.9213e+02	-3.0657	-24.364114	0.000416	4.156790	1.408359	0.000166
1933	1.9223e+02	-3.0320	-24.194554	0.000426	4.258175	1.442709	0.000170
1934	1.9233e+02	-2.9775	-24.089589	0.000264	2.636013	0.893105	0.000105
1935	1.9243e+02	-2.9390	-23.903881	0.000466	4.663715	1.580110	0.000187
1936	1.9253e+02	-2.9069	-23.734321	0.000426	4.258175	1.442709	0.000170
1937	1.9263e+02	-2.8603	-23.609170	0.000314	3.142939	1.064856	0.000126
1938	1.9273e+02	-2.8202	-23.492093	0.000294	2.940168	0.996156	0.000118
1939	1.9283e+02	-2.7882	-23.290236	0.000507	5.069256	1.717510	0.000203
1940	1.9293e+02	-2.7416	-23.161048	0.000324	3.244324	1.099207	0.000130
1941	1.9303e+02	-2.7047	-22.971302	0.000477	4.765101	1.614460	0.000191
1942	1.9313e+02	-2.6614	-22.842114	0.000324	3.244324	1.099207	0.000130
1943	1.9323e+02	-2.6277	-22.676591	0.000416	4.156790	1.408359	0.000166
1944	1.9333e+02	-2.5908	-22.527217	0.000375	3.751249	1.270958	0.000150
1945	1.9343e+02	-2.5475	-22.377843	0.000375	3.751249	1.270958	0.000150
1946	1.9353e+02	-2.5074	-22.240581	0.000345	3.447094	1.167907	0.000138
1947	1.9363e+02	-2.4577	-22.050835	0.000477	4.765101	1.614460	0.000191
1948	1.9373e+02	-2.4400	-21.949907	0.000253	2.534628	0.858755	0.000101
1949	1.9383e+02	-2.3775	-21.816682	0.000335	3.345709	1.133557	0.000134
1950	1.9393e+02	-2.3422	-21.675382	0.000355	3.548479	1.202257	0.000142
1951	1.9403e+02	-2.3021	-21.481599	0.000487	4.866486	1.648810	0.000195
1952	1.9412e+02	-2.2636	-21.356448	0.000314	3.142939	1.064856	0.000126
1953	1.9422e+02	-2.2283	-21.190925	0.000416	4.156790	1.408359	0.000166
1954	1.9432e+02	-2.1882	-21.033477	0.000395	3.954020	1.339658	0.000158
1955	1.9442e+02	-2.1481	-20.904289	0.000324	3.244324	1.099207	0.000130
1956	1.9452e+02	-2.1064	-20.746841	0.000395	3.954020	1.339658	0.000158
1957	1.9462e+02	-2.0646	-20.577281	0.000426	4.258175	1.442709	0.000170
1958	1.9472e+02	-2.0213	-20.411758	0.000416	4.156790	1.408359	0.000166
1959	1.9482e+02	-1.9941	-20.306793	0.000264	2.636013	0.893105	0.000105
1960	1.9492e+02	-1.9475	-20.100899	0.000517	5.170641	1.751861	0.000207
1961	1.9502e+02	-1.9074	-19.959599	0.000355	3.548479	1.202257	0.000142
1962	1.9512e+02	-1.8689	-19.818299	0.000355	3.548479	1.202257	0.000142
1963	1.9522e+02	-1.8368	-19.685074	0.000335	3.345709	1.133557	0.000134
1964	1.9532e+02	-1.7807	-19.543774	0.000355	3.548479	1.202257	0.000142
1965	1.9542e+02	-1.7294	-19.374214	0.000426	4.258175	1.442709	0.000170
1966	1.9552e+02	-1.7101	-19.245026	0.000324	3.244324	1.099207	0.000130
1967	1.9562e+02	-1.6732	-19.083541	0.000406	4.055405	1.374008	0.000162
1968	1.9572e+02	-1.6299	-18.922055	0.000406	4.055405	1.374008	0.000162
1969	1.9582e+02	-1.5898	-18.776718	0.000365	3.649864	1.236607	0.000146
1970	1.9592e+02	-1.5417	-18.647530	0.000324	3.244324	1.099207	0.000130
1971	1.9601e+02	-1.5032	-18.486045	0.000406	4.055405	1.374008	0.000162
1972	1.9611e+02	-1.4663	-18.336671	0.000375	3.751249	1.270958	0.000150
1973	1.9621e+02	-1.4358	-18.175185	0.000406	4.055405	1.374008	0.000162
1974	1.9631e+02	-1.3845	-18.025811	0.000375	3.751249	1.270958	0.000150
1975	1.9641e+02	-1.3476	-17.908734	0.000294	2.940168	0.996156	0.000118
1976	1.9651e+02	-1.3139	-17.694766	0.000537	5.373411	1.820561	0.000215
1977	1.9661e+02	-1.2722	-17.614023	0.000203	2.027702	0.687004	0.000081
1978	1.9671e+02	-1.2192	-17.448501	0.000416	4.156790	1.408359	0.000166
1979	1.9681e+02	-1.1887	-17.274904	0.000436	4.359560	1.477059	0.000174
1980	1.9691e+02	-1.1486	-17.125530	0.000375	3.751249	1.270958	0.000150
1981	1.9701e+02	-1.1117	-16.984230	0.000355	3.548479	1.202257	0.000142
1982	1.9711e+02	-1.0748	-16.855042	0.000324	3.244324	1.099207	0.000130
1983	1.9721e+02	-1.0331	-16.665296	0.000477	4.765101	1.614460	0.000191
1984	1.9731e+02	-0.9930	-16.523997	0.000355	3.548479	1.202257	0.000142
1985	1.9741e+02	-0.9529	-16.390771	0.000335	3.345709	1.133557	0.000134
1986	1.9751e+02	-0.9128	-16.241397	0.000375	3.751249	1.270958	0.000150
1987	1.9761e+02	-0.8727	-16.067800	0.000436	4.359560	1.477059	0.000174
1988	1.9771e+02	-0.8310	-15.926500	0.000355	3.548479	1.202257	0.000142
1989	1.9781e+02	-0.7909	-15.756941	0.000426	4.258175	1.442709	0.000170
1990	1.9791e+02	-0.7508	-15.603530	0.000385	3.852634	1.305308	0.000154
1991	1.9800e+02	-0.7027	-15.462230	0.000355	3.548479	1.202257	0.000142
1992	1.9810e+02	-0.6770	-15.324967	0.000345	3.447094	1.167907	0.000138
1993	1.9820e+02	-0.6289	-15.155408	0.000426	4.258175	1.442709	0.000170
1994	1.9830e+02	-0.5920	-14.985848	0.000426	4.258175	1.442709	0.000170
1995	1.9840e+02	-0.5551	-14.816288	0.000426	4.258175	1.442709	0.000170
1996	1.9850e+02	-0.5182	-14.719397	0.000243	2.433243	0.824405	0.000097
1997	1.9860e+02	-0.4700	-14.521577	0.000497	4.967871	1.683160	0.000199
1998	1.9870e+02	-0.4347	-14.376240	0.000365	3.649864	1.236607	0.000146
1999	1.9880e+02	-0.3850	-14.259163	0.000294	2.940168	0.996156	0.000118
2000	1.9890e+02	-0.3545	-14.073455	0.000466	4.663715	1.580110	0.000187
2001	1.9900e+02	-0.3128	-13.940230	0.000335	3.345709	1.133557	0.000134
2002	1.9910e+02	-0.2711	-13.762596	0.000446	4.460945	1.511409	0.000179
2003	1.9920e+02	-0.2230	-13.617259	0.000365	3.649864	1.236607	0.000146
2004	1.9930e+02	-0.1909	-13.508256	0.000274	2.737398	0.927456	0.000110
2005	1.9940e+02	-0.1476	-13.318511	0.000477	4.765101	1.614460	0.000191
2006	1.9950e+02	-0.1123	-13.148951	0.000426	4.258175	1.442709	0.000170
2007	1.9960e+02	-0.0674	-13.011688	0.000345	3.447094	1.167907	0.000138
2008	1.9970e+02	-0.0433	-12.862314	0.000375	3.751249	1.270958	0.000150
2009	1.9980e+02	0.0048	-12.680643	0.000375	3.751249	1.270958	0.000183

PMax (uC/cm2):	7.55e+01
Pr (uC/cm2):	6.04e+00
-Pr (uC/cm2):	-7.34e+00
PLoss (uC/cm2):	-7.32e+00
-Vc:	-1.52e+00
C (Max-Eff) (nF):	3.78e-01
K (Eff):	1.28e+03
Vert. (+/-Pr) Shift (uC/cm2):	-6.45e-01
Offset (uC/cm2):	5.35e+00

A (Loop Area - uC/cm2·Volts):	7.19e-02



Hysteresis Version: 5.48.1 - Radiant Technologies, Inc., 1999 - 9/12/24

