»»»»»»»»»»»»»»»»»»»»»»»»»»»»»»»»»»»» Hysteresis ««««««««««««««««««««««««««««««««««««
»»»  Executed Version:	5.48.1
»»»  Vision Version:	5.48.4 (R)
»»»  Vision Compiled:	9/18/24
»»»  Driver Version:	5.47.0
»»»  Windows Version:	Windows 8 or 8.1
»»»  Processor Information:	x86 (AMD or Intel) - 32 Processors
»»»  Tester Name:	PMF21124-494 (100V)
»»»  Tester S/N:	PMF21124-494
»»»  Internal Amp Type:	100V RevK 270k
»»»  Internal Amp S/N:	iAB2-596/K     
»»»  Execution Count:	1
»»»»»»»»»»»»»»»»»»»»»»»»»»»»»»»»»»»»»»»»»»««««««««««««««««««««««««««««««««««««««««««

Stored:	6/19/2025 - 20:59:1
Configured:	06/19/25 10:04:32 AM
Executed:	06/19/25 08:58:30 PM

»»»»»»»»»»»»»»»»»»»»»»»»»»»»»»»»»»» Sample Info ««««««««««««««««««««««««««««««««««««
Sample Name:	
Lot Name:	
Wafer Name:	
Die Row/Column:	0/0
Capacitor Number:	0
Sample Area (cm2):	1.00e-04
Sample Thickness (microns):	3.00e-01

Amplifier:	Internal

»»»»»»»»»»»»»»»»»»»»»»»»»»»»»»»»»»» Tester Info «««««««««««««««««««««««««««««««««««
Tester Name:	PMF21124-494 (100V)
Tester Serial Number:	PMF21124-494
Return Signal Amp. Level:	0.19 [Index: 3]

»»»»»»»»»»»»»»»»»»»»»»»»»»»»»»»» Hysteresis Info ««««««««««««««««««««««««««««««««««
Task Name:	Hyst-1168
Volts:	20.00
Field:	666.67 (kV/cm)
DCBias:	0.00
DCField:	0.00 (kV/cm)
Hysteresis Period (ms):	2.00e+02
Preset:	Enabled
Preset Delay (ms):	1.00e+03
Profile:	Standard Bipolar

»»»»»»»»»»»»»»»»»»»»»»»»»»»»»»»»»»»»»» Data «««««««««««««««««««««««««««««««««««««««
Points:	2009

Valid Data

Point	Time (ms)	Drive Voltage	Measured Polarization (uC/cm2)	Capacitance (uF)	Normalized Capacitance (uF/cm2)	Dielectric Constant	Instantaneous Current (mA)
   1	0.0000e+00	0.0064	-6.887354	0.000182	1.824932	0.618304	0.000073
   2	9.9500e-02	0.0305	-6.814685	0.000182	1.824932	0.618304	0.000073
   3	1.9900e-01	0.0706	-6.649163	0.000416	4.156790	1.408359	0.000166
   4	2.9850e-01	0.1171	-6.499789	0.000375	3.751249	1.270958	0.000150
   5	3.9800e-01	0.1508	-6.338303	0.000406	4.055405	1.374008	0.000162
   6	4.9750e-01	0.1989	-6.225263	0.000284	2.838783	0.961806	0.000114
   7	5.9700e-01	0.2326	-6.059741	0.000416	4.156790	1.408359	0.000166
   8	6.9650e-01	0.2839	-5.853847	0.000517	5.170641	1.751861	0.000207
   9	7.9600e-01	0.3080	-5.732733	0.000304	3.041554	1.030506	0.000122
  10	8.9550e-01	0.3642	-5.571247	0.000406	4.055405	1.374008	0.000162
  11	9.9500e-01	0.3930	-5.353242	0.000547	5.474796	1.854911	0.000219
  12	1.0945e+00	0.4428	-5.220017	0.000335	3.345709	1.133557	0.000134
  13	1.1940e+00	0.4877	-5.078717	0.000355	3.548479	1.202257	0.000142
  14	1.2935e+00	0.5198	-4.921268	0.000395	3.954020	1.339658	0.000158
  15	1.3930e+00	0.5567	-4.747672	0.000436	4.359560	1.477059	0.000174
  16	1.4925e+00	0.5920	-4.594260	0.000385	3.852634	1.305308	0.000154
  17	1.5920e+00	0.6321	-4.465072	0.000324	3.244324	1.099207	0.000130
  18	1.6915e+00	0.6770	-4.279364	0.000466	4.663715	1.580110	0.000187
  19	1.7910e+00	0.7155	-4.121916	0.000395	3.954020	1.339658	0.000158
  20	1.8905e+00	0.7492	-3.916022	0.000517	5.170641	1.751861	0.000207
  21	1.9900e+00	0.8005	-3.815093	0.000253	2.534628	0.858755	0.000101
  22	2.0895e+00	0.8374	-3.665719	0.000375	3.751249	1.270958	0.000150
  23	2.1890e+00	0.8839	-3.471937	0.000487	4.866486	1.648810	0.000195
  24	2.2885e+00	0.9176	-3.338711	0.000335	3.345709	1.133557	0.000134
  25	2.3880e+00	0.9561	-3.177226	0.000406	4.055405	1.374008	0.000162
  26	2.4875e+00	0.9946	-3.031889	0.000365	3.649864	1.236607	0.000146
  27	2.5870e+00	1.0331	-2.834069	0.000497	4.967871	1.683160	0.000199
  28	2.6865e+00	1.0780	-2.668547	0.000416	4.156790	1.408359	0.000166
  29	2.7860e+00	1.1101	-2.547433	0.000304	3.041554	1.030506	0.000122
  30	2.8855e+00	1.1550	-2.353650	0.000487	4.866486	1.648810	0.000195
  31	2.9850e+00	1.1935	-2.212350	0.000355	3.548479	1.202257	0.000142
  32	3.0845e+00	1.2417	-2.050865	0.000406	4.055405	1.374008	0.000162
  33	3.1840e+00	1.2786	-1.853045	0.000497	4.967871	1.683160	0.000199
  34	3.2835e+00	1.3074	-1.643114	0.000527	5.272026	1.786211	0.000211
  35	3.3830e+00	1.3492	-1.522000	0.000304	3.041554	1.030506	0.000122
  36	3.4825e+00	1.3925	-1.324181	0.000497	4.967871	1.683160	0.000199
  37	3.5820e+00	1.4310	-1.166732	0.000395	3.954020	1.339658	0.000158
  38	3.6815e+00	1.4727	-0.989098	0.000446	4.460945	1.511409	0.000179
  39	3.7810e+00	1.5048	-0.859910	0.000324	3.244324	1.099207	0.000130
  40	3.8805e+00	1.5593	-0.702462	0.000395	3.954020	1.339658	0.000158
  41	3.9800e+00	1.5962	-0.528865	0.000436	4.359560	1.477059	0.000174
  42	4.0795e+00	1.6331	-0.371416	0.000395	3.954020	1.339658	0.000158
  43	4.1790e+00	1.6748	-0.193783	0.000446	4.460945	1.511409	0.000179
  44	4.2785e+00	1.7133	-0.008074	0.000466	4.663715	1.580110	0.000187
  45	4.3780e+00	1.7598	0.149374	0.000395	3.954020	1.339658	0.000158
  46	4.4775e+00	1.7855	0.310859	0.000406	4.055405	1.374008	0.000162
  47	4.5770e+00	1.8368	0.500605	0.000477	4.765101	1.614460	0.000191
  48	4.6765e+00	1.8657	0.662090	0.000406	4.055405	1.374008	0.000162
  49	4.7760e+00	1.9122	0.823576	0.000406	4.055405	1.374008	0.000162
  50	4.8755e+00	1.9572	0.985061	0.000406	4.055405	1.374008	0.000162
  51	4.9750e+00	1.9844	1.174806	0.000477	4.765101	1.614460	0.000191
  52	5.0745e+00	2.0342	1.320143	0.000365	3.649864	1.236607	0.000146
  53	5.1740e+00	2.0775	1.509889	0.000477	4.765101	1.614460	0.000191
  54	5.2735e+00	2.1112	1.647151	0.000345	3.447094	1.167907	0.000138
  55	5.3730e+00	2.1417	1.832860	0.000466	4.663715	1.580110	0.000187
  56	5.4725e+00	2.1914	2.034716	0.000507	5.069256	1.717510	0.000203
  57	5.5720e+00	2.2379	2.180053	0.000365	3.649864	1.236607	0.000146
  58	5.6715e+00	2.2732	2.353650	0.000436	4.359560	1.477059	0.000174
  59	5.7710e+00	2.3005	2.486876	0.000335	3.345709	1.133557	0.000134
  60	5.8705e+00	2.3566	2.660472	0.000436	4.359560	1.477059	0.000174
  61	5.9700e+00	2.3951	2.890589	0.000578	5.778952	1.957962	0.000231
  62	6.0695e+00	2.4320	3.068223	0.000446	4.460945	1.511409	0.000179
  63	6.1690e+00	2.4721	3.237783	0.000426	4.258175	1.442709	0.000170
  64	6.2685e+00	2.5138	3.375045	0.000345	3.447094	1.167907	0.000138
  65	6.3680e+00	2.5491	3.564791	0.000477	4.765101	1.614460	0.000191
  66	6.4675e+00	2.5989	3.730313	0.000416	4.156790	1.408359	0.000166
  67	6.5670e+00	2.6213	3.891799	0.000406	4.055405	1.374008	0.000162
  68	6.6665e+00	2.6646	4.077507	0.000466	4.663715	1.580110	0.000187
  69	6.7660e+00	2.7112	4.295512	0.000547	5.474796	1.854911	0.000219
  70	6.8655e+00	2.7432	4.408552	0.000284	2.838783	0.961806	0.000114
  71	6.9650e+00	2.7898	4.606372	0.000497	4.967871	1.683160	0.000199
  72	7.0645e+00	2.8234	4.775932	0.000426	4.258175	1.442709	0.000170
  73	7.1640e+00	2.8603	4.965677	0.000477	4.765101	1.614460	0.000191
  74	7.2635e+00	2.9165	5.106977	0.000355	3.548479	1.202257	0.000142
  75	7.3630e+00	2.9422	5.252314	0.000365	3.649864	1.236607	0.000146
  76	7.4625e+00	2.9855	5.393613	0.000355	3.548479	1.202257	0.000142
  77	7.5620e+00	3.0352	5.567210	0.000436	4.359560	1.477059	0.000174
  78	7.6615e+00	3.0673	5.793290	0.000568	5.677567	1.923612	0.000227
  79	7.7610e+00	3.1138	5.958812	0.000416	4.156790	1.408359	0.000166
  80	7.8605e+00	3.1507	6.128372	0.000426	4.258175	1.442709	0.000170
  81	7.9600e+00	3.1876	6.293895	0.000416	4.156790	1.408359	0.000166
  82	8.0595e+00	3.2229	6.515937	0.000558	5.576181	1.889261	0.000223
  83	8.1590e+00	3.2694	6.641088	0.000314	3.142939	1.064856	0.000126
  84	8.2585e+00	3.3143	6.826797	0.000466	4.663715	1.580110	0.000187
  85	8.3580e+00	3.3528	7.036728	0.000527	5.272026	1.786211	0.000211
  86	8.4575e+00	3.3897	7.173990	0.000345	3.447094	1.167907	0.000138
  87	8.5570e+00	3.4315	7.359698	0.000466	4.663715	1.580110	0.000187
  88	8.6565e+00	3.4587	7.496961	0.000345	3.447094	1.167907	0.000138
  89	8.7560e+00	3.5020	7.731115	0.000588	5.880337	1.992312	0.000235
  90	8.8555e+00	3.5421	7.856266	0.000314	3.142939	1.064856	0.000126
  91	8.9550e+00	3.5887	8.050049	0.000487	4.866486	1.648810	0.000195
  92	9.0545e+00	3.6272	8.243831	0.000487	4.866486	1.648810	0.000195
  93	9.1540e+00	3.6609	8.465874	0.000558	5.576181	1.889261	0.000223
  94	9.2535e+00	3.7122	8.550653	0.000213	2.129087	0.721354	0.000085
  95	9.3530e+00	3.7475	8.732325	0.000456	4.562330	1.545759	0.000183
  96	9.4525e+00	3.7892	8.885736	0.000385	3.852634	1.305308	0.000154
  97	9.5520e+00	3.8373	9.103741	0.000547	5.474796	1.854911	0.000219
  98	9.6515e+00	3.8598	9.297524	0.000487	4.866486	1.648810	0.000195
  99	9.7510e+00	3.8999	9.511492	0.000537	5.373411	1.820561	0.000215
 100	9.8505e+00	3.9416	9.677014	0.000416	4.156790	1.408359	0.000166
 101	9.9500e+00	3.9865	9.874834	0.000497	4.967871	1.683160	0.000199
 102	1.0050e+01	4.0186	10.024208	0.000375	3.751249	1.270958	0.000150
 103	1.0149e+01	4.0603	10.217991	0.000487	4.866486	1.648810	0.000195
 104	1.0248e+01	4.0924	10.351216	0.000335	3.345709	1.133557	0.000134
 105	1.0348e+01	4.1421	10.544999	0.000487	4.866486	1.648810	0.000195
 106	1.0447e+01	4.1774	10.787227	0.000608	6.083107	2.061012	0.000243
 107	1.0547e+01	4.2223	10.924489	0.000345	3.447094	1.167907	0.000138
 108	1.0646e+01	4.2544	11.085975	0.000406	4.055405	1.374008	0.000162
 109	1.0746e+01	4.3026	11.283794	0.000497	4.967871	1.683160	0.000199
 110	1.0845e+01	4.3411	11.437206	0.000385	3.852634	1.305308	0.000154
 111	1.0945e+01	4.3747	11.635025	0.000497	4.967871	1.683160	0.000199
 112	1.1044e+01	4.4277	11.788436	0.000385	3.852634	1.305308	0.000154
 113	1.1144e+01	4.4614	11.937810	0.000375	3.751249	1.270958	0.000150
 114	1.1243e+01	4.4983	12.123519	0.000466	4.663715	1.580110	0.000187
 115	1.1343e+01	4.5384	12.381895	0.000649	6.488648	2.198413	0.000260
 116	1.1443e+01	4.5849	12.539344	0.000395	3.954020	1.339658	0.000158
 117	1.1542e+01	4.6154	12.729089	0.000477	4.765101	1.614460	0.000191
 118	1.1642e+01	4.6571	12.882500	0.000385	3.852634	1.305308	0.000154
 119	1.1741e+01	4.7004	13.048023	0.000416	4.156790	1.408359	0.000166
 120	1.1841e+01	4.7437	13.209508	0.000406	4.055405	1.374008	0.000162
 121	1.1940e+01	4.7822	13.435588	0.000568	5.677567	1.923612	0.000227
 122	1.2040e+01	4.8095	13.580925	0.000365	3.649864	1.236607	0.000146
 123	1.2139e+01	4.8560	13.770670	0.000477	4.765101	1.614460	0.000191
 124	1.2239e+01	4.8913	13.952341	0.000456	4.562330	1.545759	0.000183
 125	1.2338e+01	4.9314	14.134012	0.000456	4.562330	1.545759	0.000183
 126	1.2438e+01	4.9844	14.299535	0.000416	4.156790	1.408359	0.000166
 127	1.2537e+01	5.0036	14.485243	0.000466	4.663715	1.580110	0.000187
 128	1.2636e+01	5.0581	14.691137	0.000517	5.170641	1.751861	0.000207
 129	1.2736e+01	5.0902	14.860697	0.000426	4.258175	1.442709	0.000170
 130	1.2835e+01	5.1432	15.006034	0.000365	3.649864	1.236607	0.000146
 131	1.2935e+01	5.1865	15.171556	0.000416	4.156790	1.408359	0.000166
 132	1.3034e+01	5.2298	15.357264	0.000466	4.663715	1.580110	0.000187
 133	1.3134e+01	5.2571	15.575270	0.000547	5.474796	1.854911	0.000219
 134	1.3233e+01	5.2956	15.756941	0.000456	4.562330	1.545759	0.000183
 135	1.3333e+01	5.3373	15.942649	0.000466	4.663715	1.580110	0.000187
 136	1.3432e+01	5.3726	16.124320	0.000456	4.562330	1.545759	0.000183
 137	1.3532e+01	5.4159	16.269657	0.000365	3.649864	1.236607	0.000146
 138	1.3632e+01	5.4592	16.479588	0.000527	5.272026	1.786211	0.000211
 139	1.3731e+01	5.5009	16.653185	0.000436	4.359560	1.477059	0.000174
 140	1.3831e+01	5.5394	16.814670	0.000406	4.055405	1.374008	0.000162
 141	1.3930e+01	5.5731	17.004416	0.000477	4.765101	1.614460	0.000191
 142	1.4030e+01	5.6084	17.161864	0.000395	3.954020	1.339658	0.000158
 143	1.4129e+01	5.6549	17.359684	0.000497	4.967871	1.683160	0.000199
 144	1.4229e+01	5.6886	17.488872	0.000324	3.244324	1.099207	0.000130
 145	1.4328e+01	5.7367	17.698803	0.000527	5.272026	1.786211	0.000211
 146	1.4428e+01	5.7817	17.912771	0.000537	5.373411	1.820561	0.000215
 147	1.4527e+01	5.8282	18.054071	0.000355	3.548479	1.202257	0.000142
 148	1.4627e+01	5.8587	18.239779	0.000466	4.663715	1.580110	0.000187
 149	1.4726e+01	5.8923	18.385116	0.000365	3.649864	1.236607	0.000146
 150	1.4825e+01	5.9421	18.570824	0.000466	4.663715	1.580110	0.000187
 151	1.4925e+01	5.9806	18.748458	0.000446	4.460945	1.511409	0.000179
 152	1.5024e+01	6.0191	18.926092	0.000446	4.460945	1.511409	0.000179
 153	1.5124e+01	6.0528	19.156209	0.000578	5.778952	1.957962	0.000231
 154	1.5223e+01	6.0961	19.289435	0.000335	3.345709	1.133557	0.000134
 155	1.5323e+01	6.1330	19.475143	0.000466	4.663715	1.580110	0.000187
 156	1.5422e+01	6.1683	19.644703	0.000426	4.258175	1.442709	0.000170
 157	1.5522e+01	6.2148	19.870782	0.000568	5.677567	1.923612	0.000227
 158	1.5621e+01	6.2501	20.020156	0.000375	3.751249	1.270958	0.000150
 159	1.5721e+01	6.2934	20.209902	0.000477	4.765101	1.614460	0.000191
 160	1.5820e+01	6.3367	20.431944	0.000558	5.576181	1.889261	0.000223
 161	1.5920e+01	6.3720	20.549021	0.000294	2.940168	0.996156	0.000118
 162	1.6020e+01	6.4153	20.771063	0.000558	5.576181	1.889261	0.000223
 163	1.6119e+01	6.4554	20.932549	0.000406	4.055405	1.374008	0.000162
 164	1.6218e+01	6.5020	21.073849	0.000355	3.548479	1.202257	0.000142
 165	1.6318e+01	6.5308	21.283780	0.000527	5.272026	1.786211	0.000211
 166	1.6418e+01	6.5790	21.441228	0.000395	3.954020	1.339658	0.000158
 167	1.6517e+01	6.6159	21.590602	0.000375	3.751249	1.270958	0.000150
 168	1.6616e+01	6.6576	21.748050	0.000395	3.954020	1.339658	0.000158
 169	1.6716e+01	6.6945	21.937796	0.000477	4.765101	1.614460	0.000191
 170	1.6816e+01	6.7314	22.139652	0.000507	5.069256	1.717510	0.000203
 171	1.6915e+01	6.7747	22.357658	0.000547	5.474796	1.854911	0.000219
 172	1.7015e+01	6.8148	22.551440	0.000487	4.866486	1.648810	0.000195
 173	1.7114e+01	6.8404	22.664480	0.000284	2.838783	0.961806	0.000114
 174	1.7213e+01	6.8902	22.898634	0.000588	5.880337	1.992312	0.000235
 175	1.7313e+01	6.9367	23.088379	0.000477	4.765101	1.614460	0.000191
 176	1.7413e+01	6.9672	23.282162	0.000487	4.866486	1.648810	0.000195
 177	1.7512e+01	7.0121	23.427499	0.000365	3.649864	1.236607	0.000146
 178	1.7611e+01	7.0490	23.568798	0.000355	3.548479	1.202257	0.000142
 179	1.7711e+01	7.0859	23.790841	0.000558	5.576181	1.889261	0.000223
 180	1.7811e+01	7.1324	23.940215	0.000375	3.751249	1.270958	0.000150
 181	1.7910e+01	7.1597	24.077478	0.000345	3.447094	1.167907	0.000138
 182	1.8009e+01	7.2110	24.251074	0.000436	4.359560	1.477059	0.000174
 183	1.8109e+01	7.2447	24.469080	0.000547	5.474796	1.854911	0.000219
 184	1.8209e+01	7.2912	24.590194	0.000304	3.041554	1.030506	0.000122
 185	1.8308e+01	7.3297	24.775902	0.000466	4.663715	1.580110	0.000187
 186	1.8407e+01	7.3666	24.905090	0.000324	3.244324	1.099207	0.000130
 187	1.8507e+01	7.4067	25.094836	0.000477	4.765101	1.614460	0.000191
 188	1.8607e+01	7.4581	25.260358	0.000416	4.156790	1.408359	0.000166
 189	1.8706e+01	7.4854	25.470289	0.000527	5.272026	1.786211	0.000211
 190	1.8805e+01	7.5271	25.660035	0.000477	4.765101	1.614460	0.000191
 191	1.8905e+01	7.5704	25.849780	0.000477	4.765101	1.614460	0.000191
 192	1.9005e+01	7.6057	26.003191	0.000385	3.852634	1.305308	0.000154
 193	1.9104e+01	7.6426	26.192937	0.000477	4.765101	1.614460	0.000191
 194	1.9203e+01	7.6939	26.358459	0.000416	4.156790	1.408359	0.000166
 195	1.9303e+01	7.7340	26.519945	0.000406	4.055405	1.374008	0.000162
 196	1.9402e+01	7.7565	26.721801	0.000507	5.069256	1.717510	0.000203
 197	1.9502e+01	7.8046	26.891361	0.000426	4.258175	1.442709	0.000170
 198	1.9602e+01	7.8431	27.073032	0.000456	4.562330	1.545759	0.000183
 199	1.9701e+01	7.8880	27.210295	0.000345	3.447094	1.167907	0.000138
 200	1.9800e+01	7.9281	27.436374	0.000568	5.677567	1.923612	0.000227
 201	1.9900e+01	7.9650	27.569600	0.000335	3.345709	1.133557	0.000134
 202	2.0000e+01	7.9971	27.743197	0.000436	4.359560	1.477059	0.000174
 203	2.0099e+01	8.0532	27.904682	0.000406	4.055405	1.374008	0.000162
 204	2.0198e+01	8.0853	28.050019	0.000365	3.649864	1.236607	0.000146
 205	2.0298e+01	8.1303	28.231690	0.000456	4.562330	1.545759	0.000183
 206	2.0398e+01	8.1639	28.364916	0.000335	3.345709	1.133557	0.000134
 207	2.0497e+01	8.2008	28.574847	0.000527	5.272026	1.786211	0.000211
 208	2.0596e+01	8.2490	28.796889	0.000558	5.576181	1.889261	0.000223
 209	2.0696e+01	8.2843	28.970486	0.000436	4.359560	1.477059	0.000174
 210	2.0796e+01	8.3196	29.152157	0.000456	4.562330	1.545759	0.000183
 211	2.0895e+01	8.3581	29.309605	0.000395	3.954020	1.339658	0.000158
 212	2.0994e+01	8.4030	29.507425	0.000497	4.967871	1.683160	0.000199
 213	2.1094e+01	8.4447	29.668911	0.000406	4.055405	1.374008	0.000162
 214	2.1194e+01	8.4848	29.850582	0.000456	4.562330	1.545759	0.000183
 215	2.1293e+01	8.5249	30.032253	0.000456	4.562330	1.545759	0.000183
 216	2.1392e+01	8.5730	30.226035	0.000487	4.866486	1.648810	0.000195
 217	2.1492e+01	8.6147	30.379446	0.000385	3.852634	1.305308	0.000154
 218	2.1591e+01	8.6436	30.553043	0.000436	4.359560	1.477059	0.000174
 219	2.1691e+01	8.6821	30.742789	0.000477	4.765101	1.614460	0.000191
 220	2.1791e+01	8.7270	30.871977	0.000324	3.244324	1.099207	0.000130
 221	2.1890e+01	8.7591	31.065760	0.000487	4.866486	1.648810	0.000195
 222	2.1989e+01	8.8072	31.190911	0.000314	3.142939	1.064856	0.000126
 223	2.2089e+01	8.8425	31.348359	0.000395	3.954020	1.339658	0.000158
 224	2.2189e+01	8.8874	31.501770	0.000385	3.852634	1.305308	0.000154
 225	2.2288e+01	8.9195	31.675367	0.000436	4.359560	1.477059	0.000174
 226	2.2387e+01	8.9693	31.893372	0.000547	5.474796	1.854911	0.000219
 227	2.2487e+01	9.0126	32.079081	0.000466	4.663715	1.580110	0.000187
 228	2.2587e+01	9.0463	32.252677	0.000436	4.359560	1.477059	0.000174
 229	2.2686e+01	9.0848	32.450497	0.000497	4.967871	1.683160	0.000199
 230	2.2785e+01	9.1313	32.620057	0.000426	4.258175	1.442709	0.000170
 231	2.2885e+01	9.1570	32.805765	0.000466	4.663715	1.580110	0.000187
 232	2.2985e+01	9.2019	32.991473	0.000466	4.663715	1.580110	0.000187
 233	2.3084e+01	9.2372	33.152959	0.000406	4.055405	1.374008	0.000162
 234	2.3183e+01	9.2821	33.318481	0.000416	4.156790	1.408359	0.000166
 235	2.3283e+01	9.3190	33.471892	0.000385	3.852634	1.305308	0.000154
 236	2.3383e+01	9.3575	33.645489	0.000436	4.359560	1.477059	0.000174
 237	2.3482e+01	9.4072	33.835235	0.000477	4.765101	1.614460	0.000191
 238	2.3581e+01	9.4393	33.980572	0.000365	3.649864	1.236607	0.000146
 239	2.3681e+01	9.4826	34.174354	0.000487	4.866486	1.648810	0.000195
 240	2.3780e+01	9.5275	34.323728	0.000375	3.751249	1.270958	0.000150
 241	2.3880e+01	9.5644	34.501362	0.000446	4.460945	1.511409	0.000179
 242	2.3980e+01	9.5997	34.626513	0.000314	3.142939	1.064856	0.000126
 243	2.4079e+01	9.6446	34.816259	0.000477	4.765101	1.614460	0.000191
 244	2.4178e+01	9.6831	34.977744	0.000406	4.055405	1.374008	0.000162
 245	2.4278e+01	9.7217	35.183638	0.000517	5.170641	1.751861	0.000207
 246	2.4378e+01	9.7585	35.337049	0.000385	3.852634	1.305308	0.000154
 247	2.4477e+01	9.7970	35.522757	0.000466	4.663715	1.580110	0.000187
 248	2.4576e+01	9.8436	35.708466	0.000466	4.663715	1.580110	0.000187
 249	2.4676e+01	9.8821	35.886100	0.000446	4.460945	1.511409	0.000179
 250	2.4776e+01	9.9142	36.019325	0.000335	3.345709	1.133557	0.000134
 251	2.4875e+01	9.9559	36.209070	0.000477	4.765101	1.614460	0.000191
 252	2.4974e+01	9.9960	36.354407	0.000365	3.649864	1.236607	0.000146
 253	2.5074e+01	10.0297	36.519930	0.000416	4.156790	1.408359	0.000166
 254	2.5174e+01	10.0762	36.701601	0.000456	4.562330	1.545759	0.000183
 255	2.5273e+01	10.1067	36.899421	0.000497	4.967871	1.683160	0.000199
 256	2.5372e+01	10.1692	37.044758	0.000365	3.649864	1.236607	0.000146
 257	2.5472e+01	10.1933	37.210280	0.000416	4.156790	1.408359	0.000166
 258	2.5572e+01	10.2382	37.343506	0.000335	3.345709	1.133557	0.000134
 259	2.5671e+01	10.2735	37.541325	0.000497	4.967871	1.683160	0.000199
 260	2.5770e+01	10.3120	37.722996	0.000456	4.562330	1.545759	0.000183
 261	2.5870e+01	10.3505	37.856222	0.000335	3.345709	1.133557	0.000134
 262	2.5970e+01	10.3954	38.058079	0.000507	5.069256	1.717510	0.000203
 263	2.6069e+01	10.4371	38.235713	0.000446	4.460945	1.511409	0.000179
 264	2.6169e+01	10.4756	38.413347	0.000446	4.460945	1.511409	0.000179
 265	2.6268e+01	10.5206	38.595018	0.000456	4.562330	1.545759	0.000183
 266	2.6367e+01	10.5542	38.772652	0.000446	4.460945	1.511409	0.000179
 267	2.6467e+01	10.5960	38.962397	0.000477	4.765101	1.614460	0.000191
 268	2.6567e+01	10.6296	39.123882	0.000406	4.055405	1.374008	0.000162
 269	2.6666e+01	10.6778	39.301516	0.000446	4.460945	1.511409	0.000179
 270	2.6765e+01	10.7195	39.426668	0.000314	3.142939	1.064856	0.000126
 271	2.6865e+01	10.7580	39.672933	0.000618	6.184492	2.095363	0.000248
 272	2.6965e+01	10.8029	39.794047	0.000304	3.041554	1.030506	0.000122
 273	2.7064e+01	10.8334	39.959570	0.000416	4.156790	1.408359	0.000166
 274	2.7163e+01	10.8767	40.157389	0.000497	4.967871	1.683160	0.000199
 275	2.7263e+01	10.9152	40.347135	0.000477	4.765101	1.614460	0.000191
 276	2.7363e+01	10.9585	40.500546	0.000385	3.852634	1.305308	0.000154
 277	2.7462e+01	10.9954	40.593400	0.000233	2.331858	0.790055	0.000093
 278	2.7561e+01	11.0387	40.811405	0.000547	5.474796	1.854911	0.000219
 279	2.7661e+01	11.0740	40.956742	0.000365	3.649864	1.236607	0.000146
 280	2.7761e+01	11.1125	41.122265	0.000416	4.156790	1.408359	0.000166
 281	2.7860e+01	11.1494	41.336233	0.000537	5.373411	1.820561	0.000215
 282	2.7959e+01	11.1975	41.485607	0.000375	3.751249	1.270958	0.000150
 283	2.8059e+01	11.2328	41.699575	0.000537	5.373411	1.820561	0.000215
 284	2.8159e+01	11.2665	41.844912	0.000365	3.649864	1.236607	0.000146
 285	2.8258e+01	11.3114	42.058880	0.000537	5.373411	1.820561	0.000215
 286	2.8358e+01	11.3532	42.200180	0.000355	3.548479	1.202257	0.000142
 287	2.8457e+01	11.3933	42.361665	0.000406	4.055405	1.374008	0.000162
 288	2.8556e+01	11.4350	42.547374	0.000466	4.663715	1.580110	0.000187
 289	2.8656e+01	11.4687	42.716933	0.000426	4.258175	1.442709	0.000170
 290	2.8756e+01	11.5120	42.866307	0.000375	3.751249	1.270958	0.000150
 291	2.8855e+01	11.5585	43.056053	0.000477	4.765101	1.614460	0.000191
 292	2.8954e+01	11.5890	43.193315	0.000345	3.447094	1.167907	0.000138
 293	2.9054e+01	11.6259	43.370949	0.000446	4.460945	1.511409	0.000179
 294	2.9154e+01	11.6788	43.520323	0.000375	3.751249	1.270958	0.000150
 295	2.9253e+01	11.7173	43.689883	0.000426	4.258175	1.442709	0.000170
 296	2.9352e+01	11.7574	43.847331	0.000395	3.954020	1.339658	0.000158
 297	2.9452e+01	11.7927	43.996705	0.000375	3.751249	1.270958	0.000150
 298	2.9552e+01	11.8296	44.186451	0.000477	4.765101	1.614460	0.000191
 299	2.9651e+01	11.8665	44.392345	0.000517	5.170641	1.751861	0.000207
 300	2.9750e+01	11.9130	44.561904	0.000426	4.258175	1.442709	0.000170
 301	2.9850e+01	11.9499	44.707241	0.000365	3.649864	1.236607	0.000146
 302	2.9950e+01	11.9868	44.901024	0.000487	4.866486	1.648810	0.000195
 303	3.0049e+01	12.0285	45.054435	0.000385	3.852634	1.305308	0.000154
 304	3.0148e+01	12.0654	45.244180	0.000477	4.765101	1.614460	0.000191
 305	3.0248e+01	12.1104	45.417777	0.000436	4.359560	1.477059	0.000174
 306	3.0348e+01	12.1489	45.567151	0.000375	3.751249	1.270958	0.000150
 307	3.0447e+01	12.1938	45.724599	0.000395	3.954020	1.339658	0.000158
 308	3.0547e+01	12.2307	45.930493	0.000517	5.170641	1.751861	0.000207
 309	3.0646e+01	12.2692	46.087942	0.000395	3.954020	1.339658	0.000158
 310	3.0745e+01	12.3109	46.229241	0.000355	3.548479	1.202257	0.000142
 311	3.0845e+01	12.3494	46.427061	0.000497	4.967871	1.683160	0.000199
 312	3.0945e+01	12.3911	46.580472	0.000385	3.852634	1.305308	0.000154
 313	3.1044e+01	12.4328	46.741958	0.000406	4.055405	1.374008	0.000162
 314	3.1143e+01	12.4761	46.859035	0.000294	2.940168	0.996156	0.000118
 315	3.1243e+01	12.5050	47.036668	0.000446	4.460945	1.511409	0.000179
 316	3.1343e+01	12.5499	47.206228	0.000426	4.258175	1.442709	0.000170
 317	3.1442e+01	12.5836	47.387899	0.000456	4.562330	1.545759	0.000183
 318	3.1541e+01	12.6205	47.545348	0.000395	3.954020	1.339658	0.000158
 319	3.1641e+01	12.6686	47.718944	0.000436	4.359560	1.477059	0.000174
 320	3.1741e+01	12.7184	47.868318	0.000375	3.751249	1.270958	0.000150
 321	3.1840e+01	12.7440	48.074212	0.000517	5.170641	1.751861	0.000207
 322	3.1939e+01	12.7825	48.215512	0.000355	3.548479	1.202257	0.000142
 323	3.2039e+01	12.8339	48.421406	0.000517	5.170641	1.751861	0.000207
 324	3.2139e+01	12.8692	48.582891	0.000406	4.055405	1.374008	0.000162
 325	3.2238e+01	12.8996	48.772637	0.000477	4.765101	1.614460	0.000191
 326	3.2337e+01	12.9381	48.909899	0.000345	3.447094	1.167907	0.000138
 327	3.2437e+01	12.9815	49.051199	0.000355	3.548479	1.202257	0.000142
 328	3.2536e+01	13.0264	49.228833	0.000446	4.460945	1.511409	0.000179
 329	3.2636e+01	13.0729	49.378207	0.000375	3.751249	1.270958	0.000150
 330	3.2736e+01	13.1114	49.567953	0.000477	4.765101	1.614460	0.000191
 331	3.2835e+01	13.1467	49.721364	0.000385	3.852634	1.305308	0.000154
 332	3.2934e+01	13.1756	49.894961	0.000436	4.359560	1.477059	0.000174
 333	3.3034e+01	13.2205	50.012038	0.000294	2.940168	0.996156	0.000118
 334	3.3133e+01	13.2622	50.161412	0.000375	3.751249	1.270958	0.000150
 335	3.3233e+01	13.3087	50.379417	0.000547	5.474796	1.854911	0.000219
 336	3.3333e+01	13.3472	50.544939	0.000416	4.156790	1.408359	0.000166
 337	3.3432e+01	13.3921	50.706425	0.000406	4.055405	1.374008	0.000162
 338	3.3532e+01	13.4162	50.888096	0.000456	4.562330	1.545759	0.000183
 339	3.3631e+01	13.4627	51.069767	0.000456	4.562330	1.545759	0.000183
 340	3.3730e+01	13.5044	51.227215	0.000395	3.954020	1.339658	0.000158
 341	3.3830e+01	13.5333	51.376589	0.000375	3.751249	1.270958	0.000150
 342	3.3929e+01	13.5879	51.574409	0.000497	4.967871	1.683160	0.000199
 343	3.4029e+01	13.6264	51.739932	0.000416	4.156790	1.408359	0.000166
 344	3.4129e+01	13.6616	51.848934	0.000274	2.737398	0.927456	0.000110
 345	3.4228e+01	13.7001	52.034643	0.000466	4.663715	1.580110	0.000187
 346	3.4328e+01	13.7403	52.196128	0.000406	4.055405	1.374008	0.000162
 347	3.4427e+01	13.7836	52.389910	0.000487	4.866486	1.648810	0.000195
 348	3.4526e+01	13.8140	52.523136	0.000335	3.345709	1.133557	0.000134
 349	3.4626e+01	13.8670	52.737104	0.000537	5.373411	1.820561	0.000215
 350	3.4725e+01	13.9023	52.817847	0.000203	2.027702	0.687004	0.000081
 351	3.4825e+01	13.9472	52.999518	0.000456	4.562330	1.545759	0.000183
 352	3.4925e+01	13.9873	53.076224	0.000193	1.926317	0.652654	0.000077
 353	3.5024e+01	14.0162	53.326526	0.000629	6.285877	2.129713	0.000252
 354	3.5123e+01	14.0595	53.516271	0.000477	4.765101	1.614460	0.000191
 355	3.5223e+01	14.0932	53.637385	0.000304	3.041554	1.030506	0.000122
 356	3.5322e+01	14.1381	53.810982	0.000436	4.359560	1.477059	0.000174
 357	3.5422e+01	14.1766	53.988616	0.000446	4.460945	1.511409	0.000179
 358	3.5522e+01	14.2183	54.142027	0.000385	3.852634	1.305308	0.000154
 359	3.5621e+01	14.2568	54.283327	0.000355	3.548479	1.202257	0.000142
 360	3.5721e+01	14.3001	54.464998	0.000456	4.562330	1.545759	0.000183
 361	3.5820e+01	14.3322	54.638595	0.000436	4.359560	1.477059	0.000174
 362	3.5919e+01	14.3836	54.771821	0.000335	3.345709	1.133557	0.000134
 363	3.6019e+01	14.4269	54.929269	0.000395	3.954020	1.339658	0.000158
 364	3.6118e+01	14.4638	55.094791	0.000416	4.156790	1.408359	0.000166
 365	3.6218e+01	14.5023	55.304722	0.000527	5.272026	1.786211	0.000211
 366	3.6318e+01	14.5456	55.425837	0.000304	3.041554	1.030506	0.000122
 367	3.6417e+01	14.5729	55.603471	0.000446	4.460945	1.511409	0.000179
 368	3.6517e+01	14.6226	55.744770	0.000355	3.548479	1.202257	0.000142
 369	3.6616e+01	14.6579	55.910293	0.000416	4.156790	1.408359	0.000166
 370	3.6715e+01	14.6980	56.067741	0.000395	3.954020	1.339658	0.000158
 371	3.6815e+01	14.7333	56.217115	0.000375	3.751249	1.270958	0.000150
 372	3.6914e+01	14.7862	56.370526	0.000385	3.852634	1.305308	0.000154
 373	3.7014e+01	14.8135	56.540086	0.000426	4.258175	1.442709	0.000170
 374	3.7114e+01	14.8632	56.717720	0.000446	4.460945	1.511409	0.000179
 375	3.7213e+01	14.9017	56.871131	0.000385	3.852634	1.305308	0.000154
 376	3.7313e+01	14.9338	57.036654	0.000416	4.156790	1.408359	0.000166
 377	3.7412e+01	14.9675	57.226399	0.000477	4.765101	1.614460	0.000191
 378	3.7511e+01	15.0188	57.395959	0.000426	4.258175	1.442709	0.000170
 379	3.7611e+01	15.0541	57.496887	0.000253	2.534628	0.858755	0.000101
 380	3.7711e+01	15.0974	57.682595	0.000466	4.663715	1.580110	0.000187
 381	3.7810e+01	15.1311	57.844081	0.000406	4.055405	1.374008	0.000162
 382	3.7910e+01	15.1760	58.001529	0.000395	3.954020	1.339658	0.000158
 383	3.8009e+01	15.2049	58.167052	0.000416	4.156790	1.408359	0.000166
 384	3.8108e+01	15.2482	58.324500	0.000395	3.954020	1.339658	0.000158
 385	3.8208e+01	15.2980	58.485985	0.000406	4.055405	1.374008	0.000162
 386	3.8307e+01	15.3317	58.703991	0.000547	5.474796	1.854911	0.000219
 387	3.8407e+01	15.3702	58.841253	0.000345	3.447094	1.167907	0.000138
 388	3.8507e+01	15.4087	58.998702	0.000395	3.954020	1.339658	0.000158
 389	3.8606e+01	15.4504	59.115779	0.000294	2.940168	0.996156	0.000118
 390	3.8706e+01	15.5017	59.285338	0.000426	4.258175	1.442709	0.000170
 391	3.8805e+01	15.5274	59.495269	0.000527	5.272026	1.786211	0.000211
 392	3.8904e+01	15.5723	59.624458	0.000324	3.244324	1.099207	0.000130
 393	3.9004e+01	15.6156	59.826315	0.000507	5.069256	1.717510	0.000203
 394	3.9103e+01	15.6573	59.915131	0.000223	2.230473	0.755705	0.000089
 395	3.9203e+01	15.6958	60.100840	0.000466	4.663715	1.580110	0.000187
 396	3.9303e+01	15.7375	60.225991	0.000314	3.142939	1.064856	0.000126
 397	3.9402e+01	15.7728	60.435922	0.000527	5.272026	1.786211	0.000211
 398	3.9502e+01	15.8097	60.569147	0.000335	3.345709	1.133557	0.000134
 399	3.9601e+01	15.8546	60.718522	0.000375	3.751249	1.270958	0.000150
 400	3.9700e+01	15.8915	60.875970	0.000395	3.954020	1.339658	0.000158
 401	3.9800e+01	15.9445	61.085901	0.000527	5.272026	1.786211	0.000211
 402	3.9900e+01	15.9733	61.202978	0.000294	2.940168	0.996156	0.000118
 403	3.9999e+01	16.0167	61.396760	0.000487	4.866486	1.648810	0.000195
 404	4.0099e+01	16.0536	61.538060	0.000355	3.548479	1.202257	0.000142
 405	4.0198e+01	16.0905	61.727805	0.000477	4.765101	1.614460	0.000191
 406	4.0297e+01	16.1290	61.897365	0.000426	4.258175	1.442709	0.000170
 407	4.0397e+01	16.1659	62.079036	0.000456	4.562330	1.545759	0.000183
 408	4.0496e+01	16.2124	62.192076	0.000284	2.838783	0.961806	0.000114
 409	4.0596e+01	16.2557	62.317227	0.000314	3.142939	1.064856	0.000126
 410	4.0696e+01	16.2926	62.498898	0.000456	4.562330	1.545759	0.000183
 411	4.0795e+01	16.3247	62.636161	0.000345	3.447094	1.167907	0.000138
 412	4.0895e+01	16.3696	62.777461	0.000355	3.548479	1.202257	0.000142
 413	4.0994e+01	16.4081	62.975280	0.000497	4.967871	1.683160	0.000199
 414	4.1093e+01	16.4482	63.108506	0.000335	3.345709	1.133557	0.000134
 415	4.1193e+01	16.4883	63.253843	0.000365	3.649864	1.236607	0.000146
 416	4.1292e+01	16.5236	63.443588	0.000477	4.765101	1.614460	0.000191
 417	4.1392e+01	16.5653	63.580851	0.000345	3.447094	1.167907	0.000138
 418	4.1492e+01	16.6215	63.738299	0.000395	3.954020	1.339658	0.000158
 419	4.1591e+01	16.6567	63.911896	0.000436	4.359560	1.477059	0.000174
 420	4.1691e+01	16.6840	64.065307	0.000385	3.852634	1.305308	0.000154
 421	4.1790e+01	16.7338	64.198533	0.000335	3.345709	1.133557	0.000134
 422	4.1889e+01	16.7771	64.372129	0.000436	4.359560	1.477059	0.000174
 423	4.1989e+01	16.8075	64.537652	0.000416	4.156790	1.408359	0.000166
 424	4.2089e+01	16.8428	64.719323	0.000456	4.562330	1.545759	0.000183
 425	4.2188e+01	16.8974	64.892920	0.000436	4.359560	1.477059	0.000174
 426	4.2288e+01	16.9343	65.026145	0.000335	3.345709	1.133557	0.000134
 427	4.2387e+01	16.9680	65.163408	0.000345	3.447094	1.167907	0.000138
 428	4.2486e+01	17.0081	65.304708	0.000355	3.548479	1.202257	0.000142
 429	4.2586e+01	17.0450	65.478305	0.000436	4.359560	1.477059	0.000174
 430	4.2685e+01	17.0851	65.668050	0.000477	4.765101	1.614460	0.000191
 431	4.2785e+01	17.1300	65.817424	0.000375	3.751249	1.270958	0.000150
 432	4.2885e+01	17.1733	65.978909	0.000406	4.055405	1.374008	0.000162
 433	4.2984e+01	17.2022	66.116172	0.000345	3.447094	1.167907	0.000138
 434	4.3084e+01	17.2583	66.297843	0.000456	4.562330	1.545759	0.000183
 435	4.3183e+01	17.2872	66.418957	0.000304	3.041554	1.030506	0.000122
 436	4.3282e+01	17.3257	66.620814	0.000507	5.069256	1.717510	0.000203
 437	4.3382e+01	17.3658	66.762114	0.000355	3.548479	1.202257	0.000142
 438	4.3481e+01	17.4027	66.915525	0.000385	3.852634	1.305308	0.000154
 439	4.3581e+01	17.4476	67.113345	0.000497	4.967871	1.683160	0.000199
 440	4.3681e+01	17.4942	67.270793	0.000395	3.954020	1.339658	0.000158
 441	4.3780e+01	17.5295	67.428241	0.000395	3.954020	1.339658	0.000158
 442	4.3880e+01	17.5792	67.597801	0.000426	4.258175	1.442709	0.000170
 443	4.3979e+01	17.6081	67.791583	0.000487	4.866486	1.648810	0.000195
 444	4.4078e+01	17.6482	67.944994	0.000385	3.852634	1.305308	0.000154
 445	4.4178e+01	17.6947	68.049960	0.000264	2.636013	0.893105	0.000105
 446	4.4278e+01	17.7348	68.203371	0.000385	3.852634	1.305308	0.000154
 447	4.4377e+01	17.7701	68.385042	0.000456	4.562330	1.545759	0.000183
 448	4.4477e+01	17.8038	68.510193	0.000314	3.142939	1.064856	0.000126
 449	4.4576e+01	17.8471	68.695902	0.000466	4.663715	1.580110	0.000187
 450	4.4675e+01	17.8824	68.837201	0.000355	3.548479	1.202257	0.000142
 451	4.4775e+01	17.9305	69.047133	0.000527	5.272026	1.786211	0.000211
 452	4.4874e+01	17.9738	69.152098	0.000264	2.636013	0.893105	0.000105
 453	4.4974e+01	18.0075	69.289361	0.000345	3.447094	1.167907	0.000138
 454	4.5074e+01	18.0444	69.466995	0.000446	4.460945	1.511409	0.000179
 455	4.5173e+01	18.0861	69.600220	0.000335	3.345709	1.133557	0.000134
 456	4.5273e+01	18.1230	69.802077	0.000507	5.069256	1.717510	0.000203
 457	4.5372e+01	18.1679	69.927228	0.000314	3.142939	1.064856	0.000126
 458	4.5471e+01	18.1984	70.145233	0.000547	5.474796	1.854911	0.000219
 459	4.5571e+01	18.2546	70.225976	0.000203	2.027702	0.687004	0.000081
 460	4.5670e+01	18.2883	70.423796	0.000497	4.967871	1.683160	0.000199
 461	4.5770e+01	18.3268	70.617578	0.000487	4.866486	1.648810	0.000195
 462	4.5870e+01	18.3604	70.758878	0.000355	3.548479	1.202257	0.000142
 463	4.5969e+01	18.3957	70.904215	0.000365	3.649864	1.236607	0.000146
 464	4.6069e+01	18.4519	71.041478	0.000345	3.447094	1.167907	0.000138
 465	4.6168e+01	18.4759	71.198926	0.000395	3.954020	1.339658	0.000158
 466	4.6267e+01	18.5289	71.368486	0.000426	4.258175	1.442709	0.000170
 467	4.6367e+01	18.5658	71.493637	0.000314	3.142939	1.064856	0.000126
 468	4.6467e+01	18.6027	71.655122	0.000406	4.055405	1.374008	0.000162
 469	4.6566e+01	18.6348	71.836793	0.000456	4.562330	1.545759	0.000183
 470	4.6666e+01	18.6733	71.974056	0.000345	3.447094	1.167907	0.000138
 471	4.6765e+01	18.7182	72.107281	0.000335	3.345709	1.133557	0.000134
 472	4.6864e+01	18.7583	72.272804	0.000416	4.156790	1.408359	0.000166
 473	4.6964e+01	18.8080	72.446401	0.000436	4.359560	1.477059	0.000174
 474	4.7063e+01	18.8369	72.571552	0.000314	3.142939	1.064856	0.000126
 475	4.7163e+01	18.8786	72.785520	0.000537	5.373411	1.820561	0.000215
 476	4.7263e+01	18.9123	72.918746	0.000335	3.345709	1.133557	0.000134
 477	4.7362e+01	18.9588	73.072157	0.000385	3.852634	1.305308	0.000154
 478	4.7462e+01	19.0005	73.237679	0.000416	4.156790	1.408359	0.000166
 479	4.7561e+01	19.0503	73.415313	0.000446	4.460945	1.511409	0.000179
 480	4.7660e+01	19.0920	73.564687	0.000375	3.751249	1.270958	0.000150
 481	4.7760e+01	19.1096	73.677727	0.000284	2.838783	0.961806	0.000114
 482	4.7859e+01	19.1658	73.847287	0.000426	4.258175	1.442709	0.000170
 483	4.7959e+01	19.1995	73.980512	0.000335	3.345709	1.133557	0.000134
 484	4.8059e+01	19.2412	74.162184	0.000456	4.562330	1.545759	0.000183
 485	4.8158e+01	19.2813	74.279260	0.000294	2.940168	0.996156	0.000118
 486	4.8258e+01	19.3230	74.452857	0.000436	4.359560	1.477059	0.000174
 487	4.8357e+01	19.3551	74.610306	0.000395	3.954020	1.339658	0.000158
 488	4.8456e+01	19.3984	74.751605	0.000355	3.548479	1.202257	0.000142
 489	4.8556e+01	19.4321	74.913091	0.000406	4.055405	1.374008	0.000162
 490	4.8656e+01	19.4722	75.074576	0.000406	4.055405	1.374008	0.000162
 491	4.8755e+01	19.5155	75.227987	0.000385	3.852634	1.305308	0.000154
 492	4.8855e+01	19.5540	75.365250	0.000345	3.447094	1.167907	0.000138
 493	4.8954e+01	19.5973	75.559032	0.000487	4.866486	1.648810	0.000195
 494	4.9053e+01	19.6326	75.688221	0.000324	3.244324	1.099207	0.000130
 495	4.9153e+01	19.6647	75.853743	0.000416	4.156790	1.408359	0.000166
 496	4.9252e+01	19.7192	76.011192	0.000395	3.954020	1.339658	0.000158
 497	4.9352e+01	19.7593	76.152491	0.000355	3.548479	1.202257	0.000142
 498	4.9452e+01	19.8091	76.362422	0.000527	5.272026	1.786211	0.000211
 499	4.9551e+01	19.8395	76.499685	0.000345	3.447094	1.167907	0.000138
 500	4.9651e+01	19.8764	76.616762	0.000294	2.940168	0.996156	0.000118
 501	4.9750e+01	19.9101	76.749988	0.000335	3.345709	1.133557	0.000134
 502	4.9849e+01	19.9551	76.907436	0.000395	3.954020	1.339658	0.000158
 503	4.9949e+01	19.9839	77.064884	0.000395	3.954020	1.339658	0.000158
 504	5.0048e+01	19.9615	76.992216	0.000182	1.824932	0.618304	-0.000073
 505	5.0148e+01	19.9117	76.891287	0.000253	2.534628	0.858755	-0.000101
 506	5.0248e+01	19.8716	76.830730	0.000152	1.520777	0.515253	-0.000061
 507	5.0347e+01	19.8379	76.701542	0.000324	3.244324	1.099207	-0.000130
 508	5.0447e+01	19.7994	76.592539	0.000274	2.737398	0.927456	-0.000110
 509	5.0546e+01	19.7513	76.495648	0.000243	2.433243	0.824405	-0.000097
 510	5.0645e+01	19.7192	76.366460	0.000324	3.244324	1.099207	-0.000130
 511	5.0745e+01	19.6791	76.257457	0.000274	2.737398	0.927456	-0.000110
 512	5.0844e+01	19.6342	76.184789	0.000182	1.824932	0.618304	-0.000073
 513	5.0944e+01	19.6005	76.035414	0.000375	3.751249	1.270958	-0.000150
 514	5.1044e+01	19.5668	75.986969	0.000122	1.216621	0.412202	-0.000049
 515	5.1143e+01	19.5171	75.865855	0.000304	3.041554	1.030506	-0.000122
 516	5.1242e+01	19.4818	75.744741	0.000304	3.041554	1.030506	-0.000122
 517	5.1342e+01	19.4369	75.651887	0.000233	2.331858	0.790055	-0.000093
 518	5.1441e+01	19.3984	75.514624	0.000345	3.447094	1.167907	-0.000138
 519	5.1541e+01	19.3535	75.345064	0.000426	4.258175	1.442709	-0.000170
 520	5.1641e+01	19.3246	75.232024	0.000284	2.838783	0.961806	-0.000114
 521	5.1740e+01	19.2797	75.147245	0.000213	2.129087	0.721354	-0.000085
 522	5.1840e+01	19.2428	75.018056	0.000324	3.244324	1.099207	-0.000130
 523	5.1939e+01	19.1979	74.905016	0.000284	2.838783	0.961806	-0.000114
 524	5.2038e+01	19.1561	74.787940	0.000294	2.940168	0.996156	-0.000118
 525	5.2138e+01	19.1225	74.642603	0.000365	3.649864	1.236607	-0.000146
 526	5.2237e+01	19.0743	74.525526	0.000294	2.940168	0.996156	-0.000118
 527	5.2337e+01	19.0374	74.376152	0.000375	3.751249	1.270958	-0.000150
 528	5.2437e+01	18.9957	74.295409	0.000203	2.027702	0.687004	-0.000081
 529	5.2536e+01	18.9588	74.154109	0.000355	3.548479	1.202257	-0.000142
 530	5.2636e+01	18.9235	74.061255	0.000233	2.331858	0.790055	-0.000093
 531	5.2735e+01	18.8818	73.911881	0.000375	3.751249	1.270958	-0.000150
 532	5.2834e+01	18.8417	73.786730	0.000314	3.142939	1.064856	-0.000126
 533	5.2934e+01	18.8080	73.669653	0.000294	2.940168	0.996156	-0.000118
 534	5.3033e+01	18.7663	73.588910	0.000203	2.027702	0.687004	-0.000081
 535	5.3133e+01	18.7246	73.463759	0.000314	3.142939	1.064856	-0.000126
 536	5.3233e+01	18.6861	73.322459	0.000355	3.548479	1.202257	-0.000142
 537	5.3332e+01	18.6428	73.177122	0.000365	3.649864	1.236607	-0.000146
 538	5.3431e+01	18.6027	73.047934	0.000324	3.244324	1.099207	-0.000130
 539	5.3531e+01	18.5706	72.926820	0.000304	3.041554	1.030506	-0.000122
 540	5.3630e+01	18.5241	72.833966	0.000233	2.331858	0.790055	-0.000093
 541	5.3730e+01	18.4808	72.696703	0.000345	3.447094	1.167907	-0.000138
 542	5.3830e+01	18.4358	72.559441	0.000345	3.447094	1.167907	-0.000138
 543	5.3929e+01	18.4022	72.454475	0.000264	2.636013	0.893105	-0.000105
 544	5.4029e+01	18.3637	72.313175	0.000355	3.548479	1.202257	-0.000142
 545	5.4128e+01	18.3284	72.179950	0.000335	3.345709	1.133557	-0.000134
 546	5.4227e+01	18.2850	72.062873	0.000294	2.940168	0.996156	-0.000118
 547	5.4327e+01	18.2401	71.949833	0.000284	2.838783	0.961806	-0.000114
 548	5.4426e+01	18.2016	71.832756	0.000294	2.940168	0.996156	-0.000118
 549	5.4526e+01	18.1631	71.695494	0.000345	3.447094	1.167907	-0.000138
 550	5.4626e+01	18.1166	71.590528	0.000264	2.636013	0.893105	-0.000105
 551	5.4725e+01	18.0845	71.457303	0.000335	3.345709	1.133557	-0.000134
 552	5.4825e+01	18.0380	71.340226	0.000294	2.940168	0.996156	-0.000118
 553	5.4924e+01	18.0107	71.198926	0.000355	3.548479	1.202257	-0.000142
 554	5.5023e+01	17.9738	71.081849	0.000294	2.940168	0.996156	-0.000118
 555	5.5123e+01	17.9193	70.904215	0.000446	4.460945	1.511409	-0.000179
 556	5.5222e+01	17.8920	70.807324	0.000243	2.433243	0.824405	-0.000097
 557	5.5322e+01	17.8455	70.649875	0.000395	3.954020	1.339658	-0.000158
 558	5.5422e+01	17.8006	70.520687	0.000324	3.244324	1.099207	-0.000130
 559	5.5521e+01	17.7669	70.379387	0.000355	3.548479	1.202257	-0.000142
 560	5.5620e+01	17.7348	70.262310	0.000294	2.940168	0.996156	-0.000118
 561	5.5720e+01	17.6883	70.125048	0.000345	3.447094	1.167907	-0.000138
 562	5.5819e+01	17.6530	70.012008	0.000284	2.838783	0.961806	-0.000114
 563	5.5919e+01	17.6000	69.886857	0.000314	3.142939	1.064856	-0.000126
 564	5.6019e+01	17.5760	69.749594	0.000345	3.447094	1.167907	-0.000138
 565	5.6118e+01	17.5311	69.628480	0.000304	3.041554	1.030506	-0.000122
 566	5.6218e+01	17.4829	69.483143	0.000365	3.649864	1.236607	-0.000146
 567	5.6317e+01	17.4541	69.357992	0.000314	3.142939	1.064856	-0.000126
 568	5.6416e+01	17.4075	69.196507	0.000406	4.055405	1.374008	-0.000162
 569	5.6516e+01	17.3690	69.103652	0.000233	2.331858	0.790055	-0.000093
 570	5.6615e+01	17.3385	69.010798	0.000233	2.331858	0.790055	-0.000093
 571	5.6715e+01	17.2920	68.873536	0.000345	3.447094	1.167907	-0.000138
 572	5.6815e+01	17.2583	68.736273	0.000345	3.447094	1.167907	-0.000138
 573	5.6914e+01	17.2102	68.562676	0.000436	4.359560	1.477059	-0.000174
 574	5.7014e+01	17.1733	68.429451	0.000335	3.345709	1.133557	-0.000134
 575	5.7113e+01	17.1268	68.288151	0.000355	3.548479	1.202257	-0.000142
 576	5.7212e+01	17.0899	68.142814	0.000365	3.649864	1.236607	-0.000146
 577	5.7312e+01	17.0466	68.041886	0.000253	2.534628	0.858755	-0.000101
 578	5.7411e+01	17.0113	67.908660	0.000335	3.345709	1.133557	-0.000134
 579	5.7511e+01	16.9680	67.759286	0.000375	3.751249	1.270958	-0.000150
 580	5.7611e+01	16.9279	67.646246	0.000284	2.838783	0.961806	-0.000114
 581	5.7710e+01	16.8878	67.508984	0.000345	3.447094	1.167907	-0.000138
 582	5.7809e+01	16.8509	67.347498	0.000406	4.055405	1.374008	-0.000162
 583	5.7909e+01	16.8124	67.258681	0.000223	2.230473	0.755705	-0.000089
 584	5.8008e+01	16.7690	67.137567	0.000304	3.041554	1.030506	-0.000122
 585	5.8108e+01	16.7305	66.955896	0.000456	4.562330	1.545759	-0.000183
 586	5.8208e+01	16.6936	66.846894	0.000274	2.737398	0.927456	-0.000110
 587	5.8307e+01	16.6567	66.689445	0.000395	3.954020	1.339658	-0.000158
 588	5.8407e+01	16.6102	66.580443	0.000274	2.737398	0.927456	-0.000110
 589	5.8506e+01	16.5717	66.495663	0.000213	2.129087	0.721354	-0.000085
 590	5.8605e+01	16.5268	66.301880	0.000487	4.866486	1.648810	-0.000195
 591	5.8705e+01	16.4851	66.164618	0.000345	3.447094	1.167907	-0.000138
 592	5.8804e+01	16.4530	66.047541	0.000294	2.940168	0.996156	-0.000118
 593	5.8904e+01	16.4049	65.882018	0.000416	4.156790	1.408359	-0.000166
 594	5.9004e+01	16.3712	65.740718	0.000355	3.548479	1.202257	-0.000142
 595	5.9103e+01	16.3295	65.595381	0.000365	3.649864	1.236607	-0.000146
 596	5.9203e+01	16.2926	65.470230	0.000314	3.142939	1.064856	-0.000126
 597	5.9302e+01	16.2541	65.365265	0.000264	2.636013	0.893105	-0.000105
 598	5.9401e+01	16.2108	65.191668	0.000436	4.359560	1.477059	-0.000174
 599	5.9501e+01	16.1675	65.054405	0.000345	3.447094	1.167907	-0.000138
 600	5.9600e+01	16.1354	64.929254	0.000314	3.142939	1.064856	-0.000126
 601	5.9700e+01	16.0824	64.812177	0.000294	2.940168	0.996156	-0.000118
 602	5.9800e+01	16.0536	64.670877	0.000355	3.548479	1.202257	-0.000142
 603	5.9899e+01	16.0070	64.525541	0.000365	3.649864	1.236607	-0.000146
 604	5.9998e+01	15.9669	64.388278	0.000345	3.447094	1.167907	-0.000138
 605	6.0098e+01	15.9332	64.283312	0.000264	2.636013	0.893105	-0.000105
 606	6.0197e+01	15.8851	64.150087	0.000335	3.345709	1.133557	-0.000134
 607	6.0297e+01	15.8594	64.057233	0.000233	2.331858	0.790055	-0.000093
 608	6.0397e+01	15.8081	63.907859	0.000375	3.751249	1.270958	-0.000150
 609	6.0496e+01	15.7808	63.794819	0.000284	2.838783	0.961806	-0.000114
 610	6.0596e+01	15.7311	63.617185	0.000446	4.460945	1.511409	-0.000179
 611	6.0695e+01	15.6942	63.504145	0.000284	2.838783	0.961806	-0.000114
 612	6.0794e+01	15.6541	63.342660	0.000406	4.055405	1.374008	-0.000162
 613	6.0894e+01	15.6156	63.213471	0.000324	3.244324	1.099207	-0.000130
 614	6.0993e+01	15.5739	63.039875	0.000436	4.359560	1.477059	-0.000174
 615	6.1093e+01	15.5498	62.967206	0.000182	1.824932	0.618304	-0.000073
 616	6.1193e+01	15.4937	62.789572	0.000446	4.460945	1.511409	-0.000179
 617	6.1292e+01	15.4520	62.644235	0.000365	3.649864	1.236607	-0.000146
 618	6.1392e+01	15.4135	62.494861	0.000375	3.751249	1.270958	-0.000150
 619	6.1491e+01	15.3750	62.377784	0.000294	2.940168	0.996156	-0.000118
 620	6.1590e+01	15.3300	62.244559	0.000335	3.345709	1.133557	-0.000134
 621	6.1690e+01	15.2980	62.099222	0.000365	3.649864	1.236607	-0.000146
 622	6.1789e+01	15.2563	61.990219	0.000274	2.737398	0.927456	-0.000110
 623	6.1889e+01	15.2210	61.820660	0.000426	4.258175	1.442709	-0.000170
 624	6.1989e+01	15.1809	61.679360	0.000355	3.548479	1.202257	-0.000142
 625	6.2088e+01	15.1295	61.602654	0.000193	1.926317	0.652654	-0.000077
 626	6.2188e+01	15.0910	61.489614	0.000284	2.838783	0.961806	-0.000114
 627	6.2287e+01	15.0557	61.328129	0.000406	4.055405	1.374008	-0.000162
 628	6.2386e+01	15.0140	61.170681	0.000395	3.954020	1.339658	-0.000158
 629	6.2486e+01	14.9803	60.968824	0.000507	5.069256	1.717510	-0.000203
 630	6.2586e+01	14.9258	60.859821	0.000274	2.737398	0.927456	-0.000110
 631	6.2685e+01	14.8937	60.726596	0.000335	3.345709	1.133557	-0.000134
 632	6.2785e+01	14.8600	60.561073	0.000416	4.156790	1.408359	-0.000166
 633	6.2884e+01	14.8231	60.435922	0.000314	3.142939	1.064856	-0.000126
 634	6.2983e+01	14.7830	60.310771	0.000314	3.142939	1.064856	-0.000126
 635	6.3083e+01	14.7509	60.137174	0.000436	4.359560	1.477059	-0.000174
 636	6.3182e+01	14.6980	60.044320	0.000233	2.331858	0.790055	-0.000093
 637	6.3282e+01	14.6563	59.862649	0.000456	4.562330	1.545759	-0.000183
 638	6.3382e+01	14.6146	59.737498	0.000314	3.142939	1.064856	-0.000126
 639	6.3481e+01	14.5809	59.576012	0.000406	4.055405	1.374008	-0.000162
 640	6.3581e+01	14.5472	59.479121	0.000243	2.433243	0.824405	-0.000097
 641	6.3680e+01	14.4894	59.370118	0.000274	2.737398	0.927456	-0.000110
 642	6.3779e+01	14.4622	59.188447	0.000456	4.562330	1.545759	-0.000183
 643	6.3879e+01	14.4188	59.043110	0.000365	3.649864	1.236607	-0.000146
 644	6.3978e+01	14.3755	58.946219	0.000243	2.433243	0.824405	-0.000097
 645	6.4078e+01	14.3338	58.800882	0.000365	3.649864	1.236607	-0.000146
 646	6.4177e+01	14.3017	58.683805	0.000294	2.940168	0.996156	-0.000118
 647	6.4277e+01	14.2648	58.437540	0.000618	6.184492	2.095363	-0.000248
 648	6.4376e+01	14.2231	58.320463	0.000294	2.940168	0.996156	-0.000118
 649	6.4476e+01	14.1718	58.207423	0.000284	2.838783	0.961806	-0.000114
 650	6.4576e+01	14.1381	58.025752	0.000456	4.562330	1.545759	-0.000183
 651	6.4675e+01	14.0980	57.868304	0.000395	3.954020	1.339658	-0.000158
 652	6.4775e+01	14.0531	57.759301	0.000274	2.737398	0.927456	-0.000110
 653	6.4874e+01	14.0194	57.581667	0.000446	4.460945	1.511409	-0.000179
 654	6.4974e+01	13.9857	57.468627	0.000284	2.838783	0.961806	-0.000114
 655	6.5073e+01	13.9392	57.311179	0.000395	3.954020	1.339658	-0.000158
 656	6.5172e+01	13.9023	57.157768	0.000385	3.852634	1.305308	-0.000154
 657	6.5272e+01	13.8590	57.036654	0.000304	3.041554	1.030506	-0.000122
 658	6.5371e+01	13.8173	56.899391	0.000345	3.447094	1.167907	-0.000138
 659	6.5471e+01	13.7788	56.766166	0.000335	3.345709	1.133557	-0.000134
 660	6.5570e+01	13.7386	56.592569	0.000436	4.359560	1.477059	-0.000174
 661	6.5670e+01	13.6985	56.479529	0.000284	2.838783	0.961806	-0.000114
 662	6.5769e+01	13.6552	56.386675	0.000233	2.331858	0.790055	-0.000093
 663	6.5869e+01	13.6247	56.221152	0.000416	4.156790	1.408359	-0.000166
 664	6.5969e+01	13.5782	56.100038	0.000304	3.041554	1.030506	-0.000122
 665	6.6068e+01	13.5349	55.934516	0.000416	4.156790	1.408359	-0.000166
 666	6.6168e+01	13.5012	55.732659	0.000507	5.069256	1.717510	-0.000203
 667	6.6267e+01	13.4675	55.631730	0.000253	2.534628	0.858755	-0.000101
 668	6.6367e+01	13.4210	55.474282	0.000395	3.954020	1.339658	-0.000158
 669	6.6466e+01	13.3857	55.308760	0.000416	4.156790	1.408359	-0.000166
 670	6.6566e+01	13.3536	55.147274	0.000406	4.055405	1.374008	-0.000162
 671	6.6665e+01	13.2991	55.026160	0.000304	3.041554	1.030506	-0.000122
 672	6.6764e+01	13.2622	54.892935	0.000335	3.345709	1.133557	-0.000134
 673	6.6864e+01	13.2205	54.751635	0.000355	3.548479	1.202257	-0.000142
 674	6.6963e+01	13.1900	54.618409	0.000335	3.345709	1.133557	-0.000134
 675	6.7063e+01	13.1451	54.448850	0.000426	4.258175	1.442709	-0.000170
 676	6.7162e+01	13.1002	54.339847	0.000274	2.737398	0.927456	-0.000110
 677	6.7262e+01	13.0585	54.166250	0.000436	4.359560	1.477059	-0.000174
 678	6.7362e+01	13.0216	54.037062	0.000324	3.244324	1.099207	-0.000130
 679	6.7461e+01	12.9831	53.895762	0.000355	3.548479	1.202257	-0.000142
 680	6.7561e+01	12.9478	53.758499	0.000345	3.447094	1.167907	-0.000138
 681	6.7660e+01	12.9093	53.669683	0.000223	2.230473	0.755705	-0.000089
 682	6.7760e+01	12.8740	53.475900	0.000487	4.866486	1.648810	-0.000195
 683	6.7859e+01	12.8210	53.310377	0.000416	4.156790	1.408359	-0.000166
 684	6.7959e+01	12.7922	53.128706	0.000456	4.562330	1.545759	-0.000183
 685	6.8058e+01	12.7504	52.999518	0.000324	3.244324	1.099207	-0.000130
 686	6.8157e+01	12.7087	52.829958	0.000426	4.258175	1.442709	-0.000170
 687	6.8257e+01	12.6638	52.692696	0.000345	3.447094	1.167907	-0.000138
 688	6.8356e+01	12.6205	52.498913	0.000487	4.866486	1.648810	-0.000195
 689	6.8456e+01	12.5948	52.393948	0.000264	2.636013	0.893105	-0.000105
 690	6.8555e+01	12.5451	52.260722	0.000335	3.345709	1.133557	-0.000134
 691	6.8655e+01	12.5082	52.083088	0.000446	4.460945	1.511409	-0.000179
 692	6.8754e+01	12.4697	51.941788	0.000355	3.548479	1.202257	-0.000142
 693	6.8854e+01	12.4264	51.743969	0.000497	4.967871	1.683160	-0.000199
 694	6.8954e+01	12.3895	51.618818	0.000314	3.142939	1.064856	-0.000126
 695	6.9053e+01	12.3542	51.493666	0.000314	3.142939	1.064856	-0.000126
 696	6.9153e+01	12.3045	51.356404	0.000345	3.447094	1.167907	-0.000138
 697	6.9252e+01	12.2724	51.219141	0.000345	3.447094	1.167907	-0.000138
 698	6.9352e+01	12.2275	51.017284	0.000507	5.069256	1.717510	-0.000203
 699	6.9451e+01	12.1858	50.908282	0.000274	2.737398	0.927456	-0.000110
 700	6.9550e+01	12.1569	50.746796	0.000406	4.055405	1.374008	-0.000162
 701	6.9650e+01	12.1152	50.613571	0.000335	3.345709	1.133557	-0.000134
 702	6.9749e+01	12.0686	50.448048	0.000416	4.156790	1.408359	-0.000166
 703	6.9849e+01	12.0285	50.266377	0.000456	4.562330	1.545759	-0.000183
 704	6.9948e+01	11.9916	50.100855	0.000416	4.156790	1.408359	-0.000166
 705	7.0048e+01	11.9499	49.967629	0.000335	3.345709	1.133557	-0.000134
 706	7.0147e+01	11.9146	49.818255	0.000375	3.751249	1.270958	-0.000150
 707	7.0247e+01	11.8729	49.676955	0.000355	3.548479	1.202257	-0.000142
 708	7.0347e+01	11.8312	49.511433	0.000416	4.156790	1.408359	-0.000166
 709	7.0446e+01	11.7911	49.378207	0.000335	3.345709	1.133557	-0.000134
 710	7.0546e+01	11.7478	49.216722	0.000406	4.055405	1.374008	-0.000162
 711	7.0645e+01	11.7173	49.067348	0.000375	3.751249	1.270958	-0.000150
 712	7.0745e+01	11.6676	48.954308	0.000284	2.838783	0.961806	-0.000114
 713	7.0844e+01	11.6339	48.772637	0.000456	4.562330	1.545759	-0.000183
 714	7.0944e+01	11.5922	48.607114	0.000416	4.156790	1.408359	-0.000166
 715	7.1043e+01	11.5553	48.473889	0.000335	3.345709	1.133557	-0.000134
 716	7.1142e+01	11.5152	48.372960	0.000253	2.534628	0.858755	-0.000101
 717	7.1242e+01	11.4783	48.207438	0.000416	4.156790	1.408359	-0.000166
 718	7.1341e+01	11.4286	48.037878	0.000426	4.258175	1.442709	-0.000170
 719	7.1441e+01	11.3965	47.872356	0.000416	4.156790	1.408359	-0.000166
 720	7.1540e+01	11.3516	47.666462	0.000517	5.170641	1.751861	-0.000207
 721	7.1640e+01	11.3179	47.553422	0.000284	2.838783	0.961806	-0.000114
 722	7.1740e+01	11.2762	47.375788	0.000446	4.460945	1.511409	-0.000179
 723	7.1839e+01	11.2216	47.198154	0.000446	4.460945	1.511409	-0.000179
 724	7.1939e+01	11.1831	47.093188	0.000264	2.636013	0.893105	-0.000105
 725	7.2038e+01	11.1478	46.923629	0.000426	4.258175	1.442709	-0.000170
 726	7.2138e+01	11.1205	46.790403	0.000335	3.345709	1.133557	-0.000134
 727	7.2237e+01	11.0724	46.620844	0.000426	4.258175	1.442709	-0.000170
 728	7.2337e+01	11.0339	46.507804	0.000284	2.838783	0.961806	-0.000114
 729	7.2436e+01	11.0002	46.285761	0.000558	5.576181	1.889261	-0.000223
 730	7.2535e+01	10.9537	46.164647	0.000304	3.041554	1.030506	-0.000122
 731	7.2635e+01	10.9104	46.023347	0.000355	3.548479	1.202257	-0.000142
 732	7.2734e+01	10.8703	45.873973	0.000375	3.751249	1.270958	-0.000150
 733	7.2834e+01	10.8382	45.740748	0.000335	3.345709	1.133557	-0.000134
 734	7.2933e+01	10.7997	45.603485	0.000345	3.447094	1.167907	-0.000138
 735	7.3033e+01	10.7548	45.437963	0.000416	4.156790	1.408359	-0.000166
 736	7.3132e+01	10.7211	45.284552	0.000385	3.852634	1.305308	-0.000154
 737	7.3232e+01	10.6730	45.135178	0.000375	3.751249	1.270958	-0.000150
 738	7.3332e+01	10.6361	44.961581	0.000436	4.359560	1.477059	-0.000174
 739	7.3431e+01	10.5976	44.804132	0.000395	3.954020	1.339658	-0.000158
 740	7.3531e+01	10.5526	44.634573	0.000426	4.258175	1.442709	-0.000170
 741	7.3630e+01	10.5141	44.477124	0.000395	3.954020	1.339658	-0.000158
 742	7.3730e+01	10.4805	44.311602	0.000416	4.156790	1.408359	-0.000166
 743	7.3829e+01	10.4420	44.182414	0.000324	3.244324	1.099207	-0.000130
 744	7.3928e+01	10.4051	44.000742	0.000456	4.562330	1.545759	-0.000183
 745	7.4028e+01	10.3569	43.843294	0.000395	3.954020	1.339658	-0.000158
 746	7.4127e+01	10.3168	43.710069	0.000335	3.345709	1.133557	-0.000134
 747	7.4227e+01	10.2735	43.516286	0.000487	4.866486	1.648810	-0.000195
 748	7.4326e+01	10.2382	43.362875	0.000385	3.852634	1.305308	-0.000154
 749	7.4426e+01	10.1981	43.229649	0.000335	3.345709	1.133557	-0.000134
 750	7.4525e+01	10.1596	43.047978	0.000456	4.562330	1.545759	-0.000183
 751	7.4625e+01	10.1131	42.894567	0.000385	3.852634	1.305308	-0.000154
 752	7.4725e+01	10.0714	42.789602	0.000264	2.636013	0.893105	-0.000105
 753	7.4824e+01	10.0313	42.628116	0.000406	4.055405	1.374008	-0.000162
 754	7.4924e+01	10.0024	42.474705	0.000385	3.852634	1.305308	-0.000154
 755	7.5023e+01	9.9639	42.288997	0.000466	4.663715	1.580110	-0.000187
 756	7.5123e+01	9.9142	42.127511	0.000406	4.055405	1.374008	-0.000162
 757	7.5222e+01	9.8724	41.921618	0.000517	5.170641	1.751861	-0.000207
 758	7.5322e+01	9.8356	41.812615	0.000274	2.737398	0.927456	-0.000110
 759	7.5421e+01	9.7970	41.659204	0.000385	3.852634	1.305308	-0.000154
 760	7.5520e+01	9.7585	41.489644	0.000426	4.258175	1.442709	-0.000170
 761	7.5620e+01	9.7184	41.283750	0.000517	5.170641	1.751861	-0.000207
 762	7.5719e+01	9.6815	41.182822	0.000253	2.534628	0.858755	-0.000101
 763	7.5819e+01	9.6398	41.041522	0.000355	3.548479	1.202257	-0.000142
 764	7.5918e+01	9.5981	40.875999	0.000416	4.156790	1.408359	-0.000166
 765	7.6018e+01	9.5580	40.706440	0.000426	4.258175	1.442709	-0.000170
 766	7.6118e+01	9.5227	40.569177	0.000345	3.447094	1.167907	-0.000138
 767	7.6217e+01	9.4794	40.403654	0.000416	4.156790	1.408359	-0.000166
 768	7.6317e+01	9.4393	40.286578	0.000294	2.940168	0.996156	-0.000118
 769	7.6416e+01	9.3960	40.092795	0.000487	4.866486	1.648810	-0.000195
 770	7.6516e+01	9.3639	39.939384	0.000385	3.852634	1.305308	-0.000154
 771	7.6615e+01	9.3366	39.862678	0.000193	1.926317	0.652654	-0.000077
 772	7.6715e+01	9.2933	39.689081	0.000436	4.359560	1.477059	-0.000174
 773	7.6814e+01	9.2404	39.491262	0.000497	4.967871	1.683160	-0.000199
 774	7.6913e+01	9.2003	39.349962	0.000355	3.548479	1.202257	-0.000142
 775	7.7013e+01	9.1634	39.140031	0.000527	5.272026	1.786211	-0.000211
 776	7.7112e+01	9.1217	38.962397	0.000446	4.460945	1.511409	-0.000179
 777	7.7212e+01	9.0864	38.861469	0.000253	2.534628	0.858755	-0.000101
 778	7.7311e+01	9.0463	38.704020	0.000395	3.954020	1.339658	-0.000158
 779	7.7411e+01	9.0030	38.558683	0.000365	3.649864	1.236607	-0.000146
 780	7.7510e+01	8.9645	38.368938	0.000477	4.765101	1.614460	-0.000191
 781	7.7610e+01	8.9276	38.227638	0.000355	3.548479	1.202257	-0.000142
 782	7.7710e+01	8.8826	38.078264	0.000375	3.751249	1.270958	-0.000150
 783	7.7809e+01	8.8361	37.953113	0.000314	3.142939	1.064856	-0.000126
 784	7.7909e+01	8.8088	37.791628	0.000406	4.055405	1.374008	-0.000162
 785	7.8008e+01	8.7687	37.618031	0.000436	4.359560	1.477059	-0.000174
 786	7.8108e+01	8.7206	37.424248	0.000487	4.866486	1.648810	-0.000195
 787	7.8207e+01	8.6805	37.327357	0.000243	2.433243	0.824405	-0.000097
 788	7.8306e+01	8.6500	37.121463	0.000517	5.170641	1.751861	-0.000207
 789	7.8406e+01	8.5971	37.016498	0.000264	2.636013	0.893105	-0.000105
 790	7.8505e+01	8.5650	36.867124	0.000375	3.751249	1.270958	-0.000150
 791	7.8605e+01	8.5345	36.705638	0.000406	4.055405	1.374008	-0.000162
 792	7.8704e+01	8.4864	36.523967	0.000456	4.562330	1.545759	-0.000183
 793	7.8804e+01	8.4495	36.326147	0.000497	4.967871	1.683160	-0.000199
 794	7.8903e+01	8.4014	36.172736	0.000385	3.852634	1.305308	-0.000154
 795	7.9003e+01	8.3597	36.003177	0.000426	4.258175	1.442709	-0.000170
 796	7.9103e+01	8.3356	35.833617	0.000426	4.258175	1.442709	-0.000170
 797	7.9202e+01	8.2778	35.696354	0.000345	3.447094	1.167907	-0.000138
 798	7.9302e+01	8.2458	35.526794	0.000426	4.258175	1.442709	-0.000170
 799	7.9401e+01	8.2024	35.381458	0.000365	3.649864	1.236607	-0.000146
 800	7.9501e+01	8.1639	35.199786	0.000456	4.562330	1.545759	-0.000183
 801	7.9600e+01	8.1238	35.054450	0.000365	3.649864	1.236607	-0.000146
 802	7.9700e+01	8.0789	34.876816	0.000446	4.460945	1.511409	-0.000179
 803	7.9799e+01	8.0452	34.727442	0.000375	3.751249	1.270958	-0.000150
 804	7.9898e+01	8.0099	34.582105	0.000365	3.649864	1.236607	-0.000146
 805	7.9998e+01	7.9602	34.424656	0.000395	3.954020	1.339658	-0.000158
 806	8.0097e+01	7.9265	34.238948	0.000466	4.663715	1.580110	-0.000187
 807	8.0197e+01	7.8800	34.129946	0.000274	2.737398	0.927456	-0.000110
 808	8.0296e+01	7.8367	34.016906	0.000284	2.838783	0.961806	-0.000114
 809	8.0396e+01	7.8078	33.794863	0.000558	5.576181	1.889261	-0.000223
 810	8.0496e+01	7.7693	33.637415	0.000395	3.954020	1.339658	-0.000158
 811	8.0595e+01	7.7244	33.447670	0.000477	4.765101	1.614460	-0.000191
 812	8.0695e+01	7.6923	33.249850	0.000497	4.967871	1.683160	-0.000199
 813	8.0794e+01	7.6426	33.144884	0.000264	2.636013	0.893105	-0.000105
 814	8.0894e+01	7.6121	32.930916	0.000537	5.373411	1.820561	-0.000215
 815	8.0993e+01	7.5688	32.809802	0.000304	3.041554	1.030506	-0.000122
 816	8.1093e+01	7.5255	32.628131	0.000456	4.562330	1.545759	-0.000183
 817	8.1192e+01	7.4886	32.478757	0.000375	3.751249	1.270958	-0.000150
 818	8.1291e+01	7.4452	32.309197	0.000426	4.258175	1.442709	-0.000170
 819	8.1391e+01	7.4083	32.151749	0.000395	3.954020	1.339658	-0.000158
 820	8.1490e+01	7.3618	31.978152	0.000436	4.359560	1.477059	-0.000174
 821	8.1590e+01	7.3329	31.792444	0.000466	4.663715	1.580110	-0.000187
 822	8.1689e+01	7.2848	31.622884	0.000426	4.258175	1.442709	-0.000170
 823	8.1789e+01	7.2463	31.530030	0.000233	2.331858	0.790055	-0.000093
 824	8.1888e+01	7.2094	31.303951	0.000568	5.677567	1.923612	-0.000227
 825	8.1988e+01	7.1677	31.215134	0.000223	2.230473	0.755705	-0.000089
 826	8.2088e+01	7.1324	31.057685	0.000395	3.954020	1.339658	-0.000158
 827	8.2187e+01	7.0907	30.859866	0.000497	4.967871	1.683160	-0.000199
 828	8.2287e+01	7.0490	30.726640	0.000335	3.345709	1.133557	-0.000134
 829	8.2386e+01	7.0137	30.528820	0.000497	4.967871	1.683160	-0.000199
 830	8.2486e+01	6.9688	30.339075	0.000477	4.765101	1.614460	-0.000191
 831	8.2585e+01	6.9255	30.201812	0.000345	3.447094	1.167907	-0.000138
 832	8.2684e+01	6.8918	30.036290	0.000416	4.156790	1.408359	-0.000166
 833	8.2784e+01	6.8565	29.854619	0.000456	4.562330	1.545759	-0.000183
 834	8.2883e+01	6.8116	29.737542	0.000294	2.940168	0.996156	-0.000118
 835	8.2983e+01	6.7650	29.559908	0.000446	4.460945	1.511409	-0.000179
 836	8.3082e+01	6.7346	29.354014	0.000517	5.170641	1.751861	-0.000207
 837	8.3182e+01	6.6816	29.232900	0.000304	3.041554	1.030506	-0.000122
 838	8.3281e+01	6.6415	29.063340	0.000426	4.258175	1.442709	-0.000170
 839	8.3381e+01	6.6062	28.918003	0.000365	3.649864	1.236607	-0.000146
 840	8.3481e+01	6.5725	28.732295	0.000466	4.663715	1.580110	-0.000187
 841	8.3580e+01	6.5212	28.558698	0.000436	4.359560	1.477059	-0.000174
 842	8.3680e+01	6.4891	28.453733	0.000264	2.636013	0.893105	-0.000105
 843	8.3779e+01	6.4506	28.308396	0.000365	3.649864	1.236607	-0.000146
 844	8.3879e+01	6.4137	28.150948	0.000395	3.954020	1.339658	-0.000158
 845	8.3978e+01	6.3688	27.957165	0.000487	4.866486	1.648810	-0.000195
 846	8.4078e+01	6.3367	27.775494	0.000456	4.562330	1.545759	-0.000183
 847	8.4177e+01	6.2886	27.601897	0.000436	4.359560	1.477059	-0.000174
 848	8.4276e+01	6.2549	27.387929	0.000537	5.373411	1.820561	-0.000215
 849	8.4376e+01	6.2212	27.282963	0.000264	2.636013	0.893105	-0.000105
 850	8.4475e+01	6.1731	27.044772	0.000598	5.981722	2.026662	-0.000239
 851	8.4575e+01	6.1298	26.899435	0.000365	3.649864	1.236607	-0.000146
 852	8.4674e+01	6.0993	26.733913	0.000416	4.156790	1.408359	-0.000166
 853	8.4774e+01	6.0576	26.588576	0.000365	3.649864	1.236607	-0.000146
 854	8.4874e+01	6.0111	26.402868	0.000466	4.663715	1.580110	-0.000187
 855	8.4973e+01	5.9726	26.196974	0.000517	5.170641	1.751861	-0.000207
 856	8.5073e+01	5.9260	26.059711	0.000345	3.447094	1.167907	-0.000138
 857	8.5172e+01	5.8940	25.910337	0.000375	3.751249	1.270958	-0.000150
 858	8.5272e+01	5.8474	25.716555	0.000487	4.866486	1.648810	-0.000195
 859	8.5371e+01	5.8234	25.526809	0.000477	4.765101	1.614460	-0.000191
 860	8.5471e+01	5.7817	25.437992	0.000223	2.230473	0.755705	-0.000089
 861	8.5570e+01	5.7351	25.272470	0.000416	4.156790	1.408359	-0.000166
 862	8.5669e+01	5.6934	25.102910	0.000426	4.258175	1.442709	-0.000170
 863	8.5769e+01	5.6549	24.901053	0.000507	5.069256	1.717510	-0.000203
 864	8.5868e+01	5.6164	24.687085	0.000537	5.373411	1.820561	-0.000215
 865	8.5968e+01	5.5779	24.525600	0.000406	4.055405	1.374008	-0.000162
 866	8.6067e+01	5.5346	24.372188	0.000385	3.852634	1.305308	-0.000154
 867	8.6167e+01	5.5009	24.214740	0.000395	3.954020	1.339658	-0.000158
 868	8.6266e+01	5.4592	24.020958	0.000487	4.866486	1.648810	-0.000195
 869	8.6366e+01	5.4207	23.879658	0.000355	3.548479	1.202257	-0.000142
 870	8.6466e+01	5.3710	23.689913	0.000477	4.765101	1.614460	-0.000191
 871	8.6565e+01	5.3341	23.536501	0.000385	3.852634	1.305308	-0.000154
 872	8.6665e+01	5.3004	23.346756	0.000477	4.765101	1.614460	-0.000191
 873	8.6764e+01	5.2667	23.213530	0.000335	3.345709	1.133557	-0.000134
 874	8.6864e+01	5.2282	23.023785	0.000477	4.765101	1.614460	-0.000191
 875	8.6963e+01	5.1849	22.866337	0.000395	3.954020	1.339658	-0.000158
 876	8.7063e+01	5.1335	22.733111	0.000335	3.345709	1.133557	-0.000134
 877	8.7162e+01	5.0999	22.507032	0.000568	5.677567	1.923612	-0.000227
 878	8.7261e+01	5.0710	22.393992	0.000284	2.838783	0.961806	-0.000114
 879	8.7361e+01	5.0212	22.200209	0.000487	4.866486	1.648810	-0.000195
 880	8.7460e+01	4.9779	22.026613	0.000436	4.359560	1.477059	-0.000174
 881	8.7560e+01	4.9426	21.857053	0.000426	4.258175	1.442709	-0.000170
 882	8.7659e+01	4.9025	21.695567	0.000406	4.055405	1.374008	-0.000162
 883	8.7759e+01	4.8592	21.542156	0.000385	3.852634	1.305308	-0.000154
 884	8.7859e+01	4.8223	21.291854	0.000629	6.285877	2.129713	-0.000252
 885	8.7958e+01	4.7790	21.158628	0.000335	3.345709	1.133557	-0.000134
 886	8.8058e+01	4.7501	20.972920	0.000466	4.663715	1.580110	-0.000187
 887	8.8157e+01	4.6956	20.835658	0.000345	3.447094	1.167907	-0.000138
 888	8.8257e+01	4.6651	20.637838	0.000497	4.967871	1.683160	-0.000199
 889	8.8356e+01	4.6090	20.472315	0.000416	4.156790	1.408359	-0.000166
 890	8.8456e+01	4.5881	20.306793	0.000416	4.156790	1.408359	-0.000166
 891	8.8555e+01	4.5400	20.153382	0.000385	3.852634	1.305308	-0.000154
 892	8.8654e+01	4.5015	19.983822	0.000426	4.258175	1.442709	-0.000170
 893	8.8754e+01	4.4630	19.806188	0.000446	4.460945	1.511409	-0.000179
 894	8.8853e+01	4.4132	19.656814	0.000375	3.751249	1.270958	-0.000150
 895	8.8953e+01	4.3780	19.503403	0.000385	3.852634	1.305308	-0.000154
 896	8.9052e+01	4.3394	19.374214	0.000324	3.244324	1.099207	-0.000130
 897	8.9152e+01	4.2913	19.204655	0.000426	4.258175	1.442709	-0.000170
 898	8.9251e+01	4.2624	18.986649	0.000547	5.474796	1.854911	-0.000219
 899	8.9351e+01	4.2223	18.865535	0.000304	3.041554	1.030506	-0.000122
 900	8.9451e+01	4.1806	18.655604	0.000527	5.272026	1.786211	-0.000211
 901	8.9550e+01	4.1437	18.441636	0.000537	5.373411	1.820561	-0.000215
 902	8.9650e+01	4.1116	18.255928	0.000466	4.663715	1.580110	-0.000187
 903	8.9749e+01	4.0555	18.110591	0.000365	3.649864	1.236607	-0.000146
 904	8.9849e+01	4.0234	17.953143	0.000395	3.954020	1.339658	-0.000158
 905	8.9948e+01	3.9785	17.731100	0.000558	5.576181	1.889261	-0.000223
 906	9.0047e+01	3.9384	17.589800	0.000355	3.548479	1.202257	-0.000142
 907	9.0147e+01	3.8951	17.404092	0.000466	4.663715	1.580110	-0.000187
 908	9.0246e+01	3.8582	17.246644	0.000395	3.954020	1.339658	-0.000158
 909	9.0346e+01	3.8261	17.085158	0.000406	4.055405	1.374008	-0.000162
 910	9.0445e+01	3.7828	16.887339	0.000497	4.967871	1.683160	-0.000199
 911	9.0545e+01	3.7347	16.742002	0.000365	3.649864	1.236607	-0.000146
 912	9.0644e+01	3.7010	16.576479	0.000416	4.156790	1.408359	-0.000166
 913	9.0744e+01	3.6641	16.439217	0.000345	3.447094	1.167907	-0.000138
 914	9.0844e+01	3.6256	16.257546	0.000456	4.562330	1.545759	-0.000183
 915	9.0943e+01	3.5758	16.079912	0.000446	4.460945	1.511409	-0.000179
 916	9.1043e+01	3.5486	15.946686	0.000335	3.345709	1.133557	-0.000134
 917	9.1142e+01	3.5101	15.744829	0.000507	5.069256	1.717510	-0.000203
 918	9.1242e+01	3.4700	15.555084	0.000477	4.765101	1.614460	-0.000191
 919	9.1341e+01	3.4250	15.353227	0.000507	5.069256	1.717510	-0.000203
 920	9.1441e+01	3.3865	15.167519	0.000466	4.663715	1.580110	-0.000187
 921	9.1540e+01	3.3432	15.034293	0.000335	3.345709	1.133557	-0.000134
 922	9.1639e+01	3.3047	14.812251	0.000558	5.576181	1.889261	-0.000223
 923	9.1739e+01	3.2582	14.654803	0.000395	3.954020	1.339658	-0.000158
 924	9.1838e+01	3.2277	14.489280	0.000416	4.156790	1.408359	-0.000166
 925	9.1938e+01	3.1844	14.291461	0.000497	4.967871	1.683160	-0.000199
 926	9.2037e+01	3.1427	14.146124	0.000365	3.649864	1.236607	-0.000146
 927	9.2137e+01	3.1058	13.940230	0.000517	5.170641	1.751861	-0.000207
 928	9.2237e+01	3.0737	13.790856	0.000375	3.751249	1.270958	-0.000150
 929	9.2336e+01	3.0224	13.629370	0.000406	4.055405	1.374008	-0.000162
 930	9.2436e+01	2.9678	13.488071	0.000355	3.548479	1.202257	-0.000142
 931	9.2535e+01	2.9550	13.346771	0.000355	3.548479	1.202257	-0.000142
 932	9.2635e+01	2.9069	13.177211	0.000426	4.258175	1.442709	-0.000170
 933	9.2734e+01	2.8668	12.975354	0.000507	5.069256	1.717510	-0.000203
 934	9.2834e+01	2.8347	12.838092	0.000345	3.447094	1.167907	-0.000138
 935	9.2933e+01	2.7833	12.676606	0.000406	4.055405	1.374008	-0.000162
 936	9.3032e+01	2.7497	12.470712	0.000517	5.170641	1.751861	-0.000207
 937	9.3132e+01	2.7031	12.305190	0.000416	4.156790	1.408359	-0.000166
 938	9.3231e+01	2.6630	12.075073	0.000578	5.778952	1.957962	-0.000231
 939	9.3331e+01	2.6342	11.901476	0.000436	4.359560	1.477059	-0.000174
 940	9.3430e+01	2.5956	11.764214	0.000345	3.447094	1.167907	-0.000138
 941	9.3530e+01	2.5604	11.598691	0.000416	4.156790	1.408359	-0.000166
 942	9.3629e+01	2.5090	11.417020	0.000456	4.562330	1.545759	-0.000183
 943	9.3729e+01	2.4641	11.219200	0.000497	4.967871	1.683160	-0.000199
 944	9.3829e+01	2.4336	11.090012	0.000324	3.244324	1.099207	-0.000130
 945	9.3928e+01	2.3791	10.908341	0.000456	4.562330	1.545759	-0.000183
 946	9.4028e+01	2.3518	10.742818	0.000416	4.156790	1.408359	-0.000166
 947	9.4127e+01	2.3037	10.613630	0.000324	3.244324	1.099207	-0.000130
 948	9.4227e+01	2.2700	10.496553	0.000294	2.940168	0.996156	-0.000118
 949	9.4326e+01	2.2283	10.302770	0.000487	4.866486	1.648810	-0.000195
 950	9.4425e+01	2.1802	10.117062	0.000466	4.663715	1.580110	-0.000187
 951	9.4525e+01	2.1400	9.975762	0.000355	3.548479	1.202257	-0.000142
 952	9.4624e+01	2.1048	9.794091	0.000456	4.562330	1.545759	-0.000183
 953	9.4724e+01	2.0630	9.572049	0.000558	5.576181	1.889261	-0.000223
 954	9.4823e+01	2.0342	9.406526	0.000416	4.156790	1.408359	-0.000166
 955	9.4923e+01	1.9892	9.228892	0.000446	4.460945	1.511409	-0.000179
 956	9.5022e+01	1.9540	9.051258	0.000446	4.460945	1.511409	-0.000179
 957	9.5122e+01	1.9026	8.889773	0.000406	4.055405	1.374008	-0.000162
 958	9.5222e+01	1.8721	8.671768	0.000547	5.474796	1.854911	-0.000219
 959	9.5321e+01	1.8385	8.502208	0.000426	4.258175	1.442709	-0.000170
 960	9.5421e+01	1.7871	8.368982	0.000335	3.345709	1.133557	-0.000134
 961	9.5520e+01	1.7518	8.150977	0.000547	5.474796	1.854911	-0.000219
 962	9.5620e+01	1.7165	7.973343	0.000446	4.460945	1.511409	-0.000179
 963	9.5719e+01	1.6604	7.819932	0.000385	3.852634	1.305308	-0.000154
 964	9.5819e+01	1.6251	7.682669	0.000345	3.447094	1.167907	-0.000138
 965	9.5918e+01	1.5914	7.529258	0.000385	3.852634	1.305308	-0.000154
 966	9.6017e+01	1.5513	7.335476	0.000487	4.866486	1.648810	-0.000195
 967	9.6117e+01	1.5032	7.198213	0.000345	3.447094	1.167907	-0.000138
 968	9.6216e+01	1.4695	7.052876	0.000365	3.649864	1.236607	-0.000146
 969	9.6316e+01	1.4278	6.842945	0.000527	5.272026	1.786211	-0.000211
 970	9.6415e+01	1.4021	6.669348	0.000436	4.359560	1.477059	-0.000174
 971	9.6515e+01	1.3492	6.495751	0.000436	4.359560	1.477059	-0.000174
 972	9.6615e+01	1.3139	6.370600	0.000314	3.142939	1.064856	-0.000126
 973	9.6714e+01	1.2802	6.136446	0.000588	5.880337	1.992312	-0.000235
 974	9.6814e+01	1.2304	5.950738	0.000466	4.663715	1.580110	-0.000187
 975	9.6913e+01	1.2032	5.797327	0.000385	3.852634	1.305308	-0.000154
 976	9.7013e+01	1.1454	5.599507	0.000497	4.967871	1.683160	-0.000199
 977	9.7112e+01	1.1117	5.409762	0.000477	4.765101	1.614460	-0.000191
 978	9.7212e+01	1.0748	5.207905	0.000507	5.069256	1.717510	-0.000203
 979	9.7311e+01	1.0315	5.102940	0.000264	2.636013	0.893105	-0.000105
 980	9.7410e+01	0.9994	4.872823	0.000578	5.778952	1.957962	-0.000231
 981	9.7510e+01	0.9577	4.703263	0.000426	4.258175	1.442709	-0.000170
 982	9.7609e+01	0.9112	4.545815	0.000395	3.954020	1.339658	-0.000158
 983	9.7709e+01	0.8695	4.396441	0.000375	3.751249	1.270958	-0.000150
 984	9.7808e+01	0.8406	4.259178	0.000345	3.447094	1.167907	-0.000138
 985	9.7908e+01	0.7893	4.113841	0.000365	3.649864	1.236607	-0.000146
 986	9.8007e+01	0.7476	3.924096	0.000477	4.765101	1.614460	-0.000191
 987	9.8107e+01	0.7139	3.758573	0.000416	4.156790	1.408359	-0.000166
 988	9.8207e+01	0.6706	3.601125	0.000395	3.954020	1.339658	-0.000158
 989	9.8306e+01	0.6417	3.411380	0.000477	4.765101	1.614460	-0.000191
 990	9.8406e+01	0.5968	3.229709	0.000456	4.562330	1.545759	-0.000183
 991	9.8505e+01	0.5551	3.052075	0.000446	4.460945	1.511409	-0.000179
 992	9.8605e+01	0.5150	2.850218	0.000507	5.069256	1.717510	-0.000203
 993	9.8704e+01	0.4781	2.644324	0.000517	5.170641	1.751861	-0.000207
 994	9.8803e+01	0.4476	2.486876	0.000395	3.954020	1.339658	-0.000158
 995	9.8903e+01	0.3962	2.297130	0.000477	4.765101	1.614460	-0.000191
 996	9.9002e+01	0.3610	2.127571	0.000426	4.258175	1.442709	-0.000170
 997	9.9102e+01	0.3208	1.986271	0.000355	3.548479	1.202257	-0.000142
 998	9.9201e+01	0.2695	1.800563	0.000466	4.663715	1.580110	-0.000187
 999	9.9301e+01	0.2438	1.606780	0.000487	4.866486	1.648810	-0.000195
1000	9.9400e+01	0.1941	1.461443	0.000365	3.649864	1.236607	-0.000146
1001	9.9500e+01	0.1524	1.299958	0.000406	4.055405	1.374008	-0.000162
1002	9.9600e+01	0.1123	1.134435	0.000416	4.156790	1.408359	-0.000166
1003	9.9699e+01	0.0690	0.981024	0.000385	3.852634	1.305308	-0.000154
1004	9.9799e+01	0.0241	0.847799	0.000335	3.345709	1.133557	-0.000134
1005	9.9898e+01	0.0048	0.706499	0.000355	3.548479	1.202257	-0.000142
1006	9.9998e+01	-0.0305	0.524828	0.000456	4.562330	1.545759	-0.000183
1007	1.0010e+02	-0.0722	0.355268	0.000426	4.258175	1.442709	-0.000170
1008	1.0020e+02	-0.1155	0.205894	0.000375	3.751249	1.270958	-0.000150
1009	1.0030e+02	-0.1508	0.024223	0.000456	4.562330	1.545759	-0.000183
1010	1.0040e+02	-0.1845	-0.189745	0.000537	5.373411	1.820561	-0.000215
1011	1.0050e+02	-0.2406	-0.351231	0.000406	4.055405	1.374008	-0.000162
1012	1.0059e+02	-0.2743	-0.577310	0.000568	5.677567	1.923612	-0.000227
1013	1.0069e+02	-0.3128	-0.714573	0.000345	3.447094	1.167907	-0.000138
1014	1.0079e+02	-0.3577	-0.908356	0.000487	4.866486	1.648810	-0.000195
1015	1.0089e+02	-0.3914	-1.106175	0.000497	4.967871	1.683160	-0.000199
1016	1.0099e+02	-0.4380	-1.295921	0.000477	4.765101	1.614460	-0.000191
1017	1.0109e+02	-0.4732	-1.433183	0.000345	3.447094	1.167907	-0.000138
1018	1.0119e+02	-0.5085	-1.606780	0.000436	4.359560	1.477059	-0.000174
1019	1.0129e+02	-0.5519	-1.756154	0.000375	3.751249	1.270958	-0.000150
1020	1.0139e+02	-0.5904	-1.958011	0.000507	5.069256	1.717510	-0.000203
1021	1.0149e+02	-0.6305	-2.091236	0.000335	3.345709	1.133557	-0.000134
1022	1.0159e+02	-0.6754	-2.280982	0.000477	4.765101	1.614460	-0.000191
1023	1.0169e+02	-0.7123	-2.450541	0.000426	4.258175	1.442709	-0.000170
1024	1.0179e+02	-0.7540	-2.628175	0.000446	4.460945	1.511409	-0.000179
1025	1.0189e+02	-0.7893	-2.813884	0.000466	4.663715	1.580110	-0.000187
1026	1.0199e+02	-0.8310	-3.003629	0.000477	4.765101	1.614460	-0.000191
1027	1.0209e+02	-0.8743	-3.157040	0.000385	3.852634	1.305308	-0.000154
1028	1.0219e+02	-0.9160	-3.326600	0.000426	4.258175	1.442709	-0.000170
1029	1.0229e+02	-0.9545	-3.580939	0.000639	6.387262	2.164063	-0.000256
1030	1.0239e+02	-0.9882	-3.730313	0.000375	3.751249	1.270958	-0.000150
1031	1.0248e+02	-1.0315	-3.887762	0.000395	3.954020	1.339658	-0.000158
1032	1.0258e+02	-1.0620	-4.105767	0.000547	5.474796	1.854911	-0.000219
1033	1.0268e+02	-1.1165	-4.251104	0.000365	3.649864	1.236607	-0.000146
1034	1.0278e+02	-1.1550	-4.392404	0.000355	3.548479	1.202257	-0.000142
1035	1.0288e+02	-1.1968	-4.622520	0.000578	5.778952	1.957962	-0.000231
1036	1.0298e+02	-1.2240	-4.788043	0.000416	4.156790	1.408359	-0.000166
1037	1.0308e+02	-1.2657	-4.901083	0.000284	2.838783	0.961806	-0.000114
1038	1.0318e+02	-1.3123	-5.090828	0.000477	4.765101	1.614460	-0.000191
1039	1.0328e+02	-1.3476	-5.244239	0.000385	3.852634	1.305308	-0.000154
1040	1.0338e+02	-1.3925	-5.381502	0.000345	3.447094	1.167907	-0.000138
1041	1.0348e+02	-1.4358	-5.607582	0.000568	5.677567	1.923612	-0.000227
1042	1.0358e+02	-1.4791	-5.740807	0.000335	3.345709	1.133557	-0.000134
1043	1.0368e+02	-1.5096	-5.942664	0.000507	5.069256	1.717510	-0.000203
1044	1.0378e+02	-1.5545	-6.112224	0.000426	4.258175	1.442709	-0.000170
1045	1.0388e+02	-1.5898	-6.281783	0.000426	4.258175	1.442709	-0.000170
1046	1.0398e+02	-1.6155	-6.435194	0.000385	3.852634	1.305308	-0.000154
1047	1.0408e+02	-1.6620	-6.641088	0.000517	5.170641	1.751861	-0.000207
1048	1.0418e+02	-1.7037	-6.826797	0.000466	4.663715	1.580110	-0.000187
1049	1.0428e+02	-1.7438	-6.996356	0.000426	4.258175	1.442709	-0.000170
1050	1.0438e+02	-1.7887	-7.165916	0.000426	4.258175	1.442709	-0.000170
1051	1.0447e+02	-1.8288	-7.323364	0.000395	3.954020	1.339658	-0.000158
1052	1.0457e+02	-1.8641	-7.525221	0.000507	5.069256	1.717510	-0.000203
1053	1.0467e+02	-1.9138	-7.714966	0.000477	4.765101	1.614460	-0.000191
1054	1.0477e+02	-1.9427	-7.892600	0.000446	4.460945	1.511409	-0.000179
1055	1.0487e+02	-1.9909	-8.066197	0.000436	4.359560	1.477059	-0.000174
1056	1.0497e+02	-2.0294	-8.179237	0.000284	2.838783	0.961806	-0.000114
1057	1.0507e+02	-2.0663	-8.381094	0.000507	5.069256	1.717510	-0.000203
1058	1.0517e+02	-2.1064	-8.542579	0.000406	4.055405	1.374008	-0.000162
1059	1.0527e+02	-2.1433	-8.716176	0.000436	4.359560	1.477059	-0.000174
1060	1.0537e+02	-2.1978	-8.845364	0.000324	3.244324	1.099207	-0.000130
1061	1.0547e+02	-2.2283	-9.018961	0.000436	4.359560	1.477059	-0.000174
1062	1.0557e+02	-2.2636	-9.241004	0.000558	5.576181	1.889261	-0.000223
1063	1.0567e+02	-2.3021	-9.374229	0.000335	3.345709	1.133557	-0.000134
1064	1.0577e+02	-2.3550	-9.539752	0.000416	4.156790	1.408359	-0.000166
1065	1.0587e+02	-2.3775	-9.773906	0.000588	5.880337	1.992312	-0.000235
1066	1.0597e+02	-2.4336	-9.939428	0.000416	4.156790	1.408359	-0.000166
1067	1.0607e+02	-2.4593	-10.092839	0.000385	3.852634	1.305308	-0.000154
1068	1.0617e+02	-2.5026	-10.298733	0.000517	5.170641	1.751861	-0.000207
1069	1.0627e+02	-2.5443	-10.444070	0.000365	3.649864	1.236607	-0.000146
1070	1.0637e+02	-2.5828	-10.613630	0.000426	4.258175	1.442709	-0.000170
1071	1.0647e+02	-2.6309	-10.791264	0.000446	4.460945	1.511409	-0.000179
1072	1.0656e+02	-2.6727	-10.989083	0.000497	4.967871	1.683160	-0.000199
1073	1.0666e+02	-2.7031	-11.090012	0.000253	2.534628	0.858755	-0.000101
1074	1.0676e+02	-2.7448	-11.291869	0.000507	5.069256	1.717510	-0.000203
1075	1.0686e+02	-2.7882	-11.429131	0.000345	3.447094	1.167907	-0.000138
1076	1.0696e+02	-2.8331	-11.590617	0.000406	4.055405	1.374008	-0.000162
1077	1.0706e+02	-2.8587	-11.756139	0.000416	4.156790	1.408359	-0.000166
1078	1.0716e+02	-2.9117	-11.909550	0.000385	3.852634	1.305308	-0.000154
1079	1.0726e+02	-2.9454	-12.127556	0.000547	5.474796	1.854911	-0.000219
1080	1.0736e+02	-2.9823	-12.301153	0.000436	4.359560	1.477059	-0.000174
1081	1.0746e+02	-3.0304	-12.470712	0.000426	4.258175	1.442709	-0.000170
1082	1.0756e+02	-3.0561	-12.636235	0.000416	4.156790	1.408359	-0.000166
1083	1.0766e+02	-3.0994	-12.830017	0.000487	4.866486	1.648810	-0.000195
1084	1.0776e+02	-3.1427	-13.035911	0.000517	5.170641	1.751861	-0.000207
1085	1.0786e+02	-3.1876	-13.177211	0.000355	3.548479	1.202257	-0.000142
1086	1.0796e+02	-3.2245	-13.387142	0.000527	5.272026	1.786211	-0.000211
1087	1.0806e+02	-3.2646	-13.556702	0.000426	4.258175	1.442709	-0.000170
1088	1.0816e+02	-3.2983	-13.710113	0.000385	3.852634	1.305308	-0.000154
1089	1.0826e+02	-3.3464	-13.899858	0.000477	4.765101	1.614460	-0.000191
1090	1.0836e+02	-3.3833	-14.065381	0.000416	4.156790	1.408359	-0.000166
1091	1.0845e+02	-3.4266	-14.214755	0.000375	3.751249	1.270958	-0.000150
1092	1.0855e+02	-3.4619	-14.372203	0.000395	3.954020	1.339658	-0.000158
1093	1.0865e+02	-3.4972	-14.517540	0.000365	3.649864	1.236607	-0.000146
1094	1.0875e+02	-3.5454	-14.670951	0.000385	3.852634	1.305308	-0.000154
1095	1.0885e+02	-3.5823	-14.840511	0.000426	4.258175	1.442709	-0.000170
1096	1.0895e+02	-3.6191	-14.985848	0.000365	3.649864	1.236607	-0.000146
1097	1.0905e+02	-3.6657	-15.159445	0.000436	4.359560	1.477059	-0.000174
1098	1.0915e+02	-3.7010	-15.320930	0.000406	4.055405	1.374008	-0.000162
1099	1.0925e+02	-3.7347	-15.482416	0.000406	4.055405	1.374008	-0.000162
1100	1.0935e+02	-3.7844	-15.676198	0.000487	4.866486	1.648810	-0.000195
1101	1.0945e+02	-3.8133	-15.865943	0.000477	4.765101	1.614460	-0.000191
1102	1.0955e+02	-3.8598	-16.007243	0.000355	3.548479	1.202257	-0.000142
1103	1.0965e+02	-3.8887	-16.233323	0.000568	5.677567	1.923612	-0.000227
1104	1.0975e+02	-3.9544	-16.378660	0.000365	3.649864	1.236607	-0.000146
1105	1.0985e+02	-3.9833	-16.536108	0.000395	3.954020	1.339658	-0.000158
1106	1.0995e+02	-4.0170	-16.713742	0.000446	4.460945	1.511409	-0.000179
1107	1.1005e+02	-4.0619	-16.879265	0.000416	4.156790	1.408359	-0.000166
1108	1.1015e+02	-4.0940	-17.016527	0.000345	3.447094	1.167907	-0.000138
1109	1.1025e+02	-4.1357	-17.157827	0.000355	3.548479	1.202257	-0.000142
1110	1.1035e+02	-4.1790	-17.311238	0.000385	3.852634	1.305308	-0.000154
1111	1.1044e+02	-4.2143	-17.476761	0.000416	4.156790	1.408359	-0.000166
1112	1.1054e+02	-4.2624	-17.670543	0.000487	4.866486	1.648810	-0.000195
1113	1.1064e+02	-4.3009	-17.815880	0.000365	3.649864	1.236607	-0.000146
1114	1.1074e+02	-4.3475	-17.977365	0.000406	4.055405	1.374008	-0.000162
1115	1.1084e+02	-4.3763	-18.146925	0.000426	4.258175	1.442709	-0.000170
1116	1.1094e+02	-4.4181	-18.300336	0.000385	3.852634	1.305308	-0.000154
1117	1.1104e+02	-4.4534	-18.469896	0.000426	4.258175	1.442709	-0.000170
1118	1.1114e+02	-4.4983	-18.647530	0.000446	4.460945	1.511409	-0.000179
1119	1.1124e+02	-4.5464	-18.857461	0.000527	5.272026	1.786211	-0.000211
1120	1.1134e+02	-4.5801	-19.010872	0.000385	3.852634	1.305308	-0.000154
1121	1.1144e+02	-4.6122	-19.168320	0.000395	3.954020	1.339658	-0.000158
1122	1.1154e+02	-4.6539	-19.349992	0.000456	4.562330	1.545759	-0.000183
1123	1.1164e+02	-4.6940	-19.507440	0.000395	3.954020	1.339658	-0.000158
1124	1.1174e+02	-4.7277	-19.664888	0.000395	3.954020	1.339658	-0.000158
1125	1.1184e+02	-4.7822	-19.826374	0.000406	4.055405	1.374008	-0.000162
1126	1.1194e+02	-4.8207	-19.939413	0.000284	2.838783	0.961806	-0.000114
1127	1.1204e+02	-4.8560	-20.104936	0.000416	4.156790	1.408359	-0.000166
1128	1.1214e+02	-4.9041	-20.286607	0.000456	4.562330	1.545759	-0.000183
1129	1.1224e+02	-4.9394	-20.452130	0.000416	4.156790	1.408359	-0.000166
1130	1.1234e+02	-4.9763	-20.617652	0.000416	4.156790	1.408359	-0.000166
1131	1.1244e+02	-5.0148	-20.750878	0.000335	3.345709	1.133557	-0.000134
1132	1.1253e+02	-5.0549	-20.944660	0.000487	4.866486	1.648810	-0.000195
1133	1.1263e+02	-5.0902	-21.102109	0.000395	3.954020	1.339658	-0.000158
1134	1.1273e+02	-5.1319	-21.267631	0.000416	4.156790	1.408359	-0.000166
1135	1.1283e+02	-5.1801	-21.412968	0.000365	3.649864	1.236607	-0.000146
1136	1.1293e+02	-5.2122	-21.562342	0.000375	3.751249	1.270958	-0.000150
1137	1.1303e+02	-5.2539	-21.788422	0.000568	5.677567	1.923612	-0.000227
1138	1.1313e+02	-5.2972	-21.962018	0.000436	4.359560	1.477059	-0.000174
1139	1.1323e+02	-5.3389	-22.135615	0.000436	4.359560	1.477059	-0.000174
1140	1.1333e+02	-5.3710	-22.272878	0.000345	3.447094	1.167907	-0.000138
1141	1.1343e+02	-5.4207	-22.478772	0.000517	5.170641	1.751861	-0.000207
1142	1.1353e+02	-5.4496	-22.587774	0.000274	2.737398	0.927456	-0.000110
1143	1.1363e+02	-5.4993	-22.749260	0.000406	4.055405	1.374008	-0.000162
1144	1.1373e+02	-5.5410	-22.918820	0.000426	4.258175	1.442709	-0.000170
1145	1.1383e+02	-5.5699	-23.023785	0.000264	2.636013	0.893105	-0.000105
1146	1.1393e+02	-5.6100	-23.233716	0.000527	5.272026	1.786211	-0.000211
1147	1.1403e+02	-5.6597	-23.399239	0.000416	4.156790	1.408359	-0.000166
1148	1.1413e+02	-5.7095	-23.536501	0.000345	3.447094	1.167907	-0.000138
1149	1.1423e+02	-5.7415	-23.722210	0.000466	4.663715	1.580110	-0.000187
1150	1.1433e+02	-5.7752	-23.839287	0.000294	2.940168	0.996156	-0.000118
1151	1.1442e+02	-5.8121	-24.012883	0.000436	4.359560	1.477059	-0.000174
1152	1.1452e+02	-5.8603	-24.186480	0.000436	4.359560	1.477059	-0.000174
1153	1.1462e+02	-5.8956	-24.327780	0.000355	3.548479	1.202257	-0.000142
1154	1.1472e+02	-5.9325	-24.525600	0.000497	4.967871	1.683160	-0.000199
1155	1.1482e+02	-5.9806	-24.670936	0.000365	3.649864	1.236607	-0.000146
1156	1.1492e+02	-6.0030	-24.848570	0.000446	4.460945	1.511409	-0.000179
1157	1.1502e+02	-6.0544	-25.034279	0.000466	4.663715	1.580110	-0.000187
1158	1.1512e+02	-6.0929	-25.207876	0.000436	4.359560	1.477059	-0.000174
1159	1.1522e+02	-6.1346	-25.393584	0.000466	4.663715	1.580110	-0.000187
1160	1.1532e+02	-6.1683	-25.514698	0.000304	3.041554	1.030506	-0.000122
1161	1.1542e+02	-6.2084	-25.655998	0.000355	3.548479	1.202257	-0.000142
1162	1.1552e+02	-6.2549	-25.829594	0.000436	4.359560	1.477059	-0.000174
1163	1.1562e+02	-6.2822	-25.966857	0.000345	3.447094	1.167907	-0.000138
1164	1.1572e+02	-6.3271	-26.120268	0.000385	3.852634	1.305308	-0.000154
1165	1.1582e+02	-6.3768	-26.261568	0.000355	3.548479	1.202257	-0.000142
1166	1.1592e+02	-6.4057	-26.427091	0.000416	4.156790	1.408359	-0.000166
1167	1.1602e+02	-6.4490	-26.540130	0.000284	2.838783	0.961806	-0.000114
1168	1.1612e+02	-6.4891	-26.705653	0.000416	4.156790	1.408359	-0.000166
1169	1.1622e+02	-6.5196	-26.895398	0.000477	4.765101	1.614460	-0.000191
1170	1.1632e+02	-6.5725	-27.032661	0.000345	3.447094	1.167907	-0.000138
1171	1.1642e+02	-6.6110	-27.194146	0.000406	4.055405	1.374008	-0.000162
1172	1.1651e+02	-6.6463	-27.367743	0.000436	4.359560	1.477059	-0.000174
1173	1.1661e+02	-6.6913	-27.533266	0.000416	4.156790	1.408359	-0.000166
1174	1.1671e+02	-6.7298	-27.714937	0.000456	4.562330	1.545759	-0.000183
1175	1.1681e+02	-6.7683	-27.896608	0.000456	4.562330	1.545759	-0.000183
1176	1.1691e+02	-6.8068	-28.066168	0.000426	4.258175	1.442709	-0.000170
1177	1.1701e+02	-6.8437	-28.219579	0.000385	3.852634	1.305308	-0.000154
1178	1.1711e+02	-6.8870	-28.304359	0.000213	2.129087	0.721354	-0.000085
1179	1.1721e+02	-6.9239	-28.461807	0.000395	3.954020	1.339658	-0.000158
1180	1.1731e+02	-6.9624	-28.603107	0.000355	3.548479	1.202257	-0.000142
1181	1.1741e+02	-7.0121	-28.784778	0.000456	4.562330	1.545759	-0.000183
1182	1.1751e+02	-7.0474	-28.934152	0.000375	3.751249	1.270958	-0.000150
1183	1.1761e+02	-7.0811	-29.136009	0.000507	5.069256	1.717510	-0.000203
1184	1.1771e+02	-7.1372	-29.236937	0.000253	2.534628	0.858755	-0.000101
1185	1.1781e+02	-7.1725	-29.398422	0.000406	4.055405	1.374008	-0.000162
1186	1.1791e+02	-7.1966	-29.559908	0.000406	4.055405	1.374008	-0.000162
1187	1.1801e+02	-7.2479	-29.761765	0.000507	5.069256	1.717510	-0.000203
1188	1.1811e+02	-7.2816	-29.862693	0.000253	2.534628	0.858755	-0.000101
1189	1.1821e+02	-7.3185	-30.032253	0.000426	4.258175	1.442709	-0.000170
1190	1.1831e+02	-7.3634	-30.217961	0.000466	4.663715	1.580110	-0.000187
1191	1.1841e+02	-7.3971	-30.391558	0.000436	4.359560	1.477059	-0.000174
1192	1.1850e+02	-7.4436	-30.605526	0.000537	5.373411	1.820561	-0.000215
1193	1.1860e+02	-7.4886	-30.746826	0.000355	3.548479	1.202257	-0.000142
1194	1.1870e+02	-7.5287	-30.912348	0.000416	4.156790	1.408359	-0.000166
1195	1.1880e+02	-7.5688	-31.057685	0.000365	3.649864	1.236607	-0.000146
1196	1.1890e+02	-7.6025	-31.211096	0.000385	3.852634	1.305308	-0.000154
1197	1.1900e+02	-7.6458	-31.348359	0.000345	3.447094	1.167907	-0.000138
1198	1.1910e+02	-7.6843	-31.497733	0.000375	3.751249	1.270958	-0.000150
1199	1.1920e+02	-7.7180	-31.618847	0.000304	3.041554	1.030506	-0.000122
1200	1.1930e+02	-7.7693	-31.836852	0.000547	5.474796	1.854911	-0.000219
1201	1.1940e+02	-7.7982	-31.913558	0.000193	1.926317	0.652654	-0.000077
1202	1.1950e+02	-7.8415	-32.099266	0.000466	4.663715	1.580110	-0.000187
1203	1.1960e+02	-7.8800	-32.284974	0.000466	4.663715	1.580110	-0.000187
1204	1.1970e+02	-7.9217	-32.474720	0.000477	4.765101	1.614460	-0.000191
1205	1.1980e+02	-7.9650	-32.559500	0.000213	2.129087	0.721354	-0.000085
1206	1.1990e+02	-8.0051	-32.737134	0.000446	4.460945	1.511409	-0.000179
1207	1.2000e+02	-8.0436	-32.894582	0.000395	3.954020	1.339658	-0.000158
1208	1.2010e+02	-8.0837	-33.027807	0.000335	3.345709	1.133557	-0.000134
1209	1.2020e+02	-8.1158	-33.253887	0.000568	5.677567	1.923612	-0.000227
1210	1.2030e+02	-8.1671	-33.431521	0.000446	4.460945	1.511409	-0.000179
1211	1.2039e+02	-8.1992	-33.544561	0.000284	2.838783	0.961806	-0.000114
1212	1.2049e+02	-8.2425	-33.714121	0.000426	4.258175	1.442709	-0.000170
1213	1.2059e+02	-8.2810	-33.879643	0.000416	4.156790	1.408359	-0.000166
1214	1.2069e+02	-8.3196	-33.980572	0.000253	2.534628	0.858755	-0.000101
1215	1.2079e+02	-8.3532	-34.150131	0.000426	4.258175	1.442709	-0.000170
1216	1.2089e+02	-8.3966	-34.287394	0.000345	3.447094	1.167907	-0.000138
1217	1.2099e+02	-8.4367	-34.456954	0.000426	4.258175	1.442709	-0.000170
1218	1.2109e+02	-8.4864	-34.614402	0.000395	3.954020	1.339658	-0.000158
1219	1.2119e+02	-8.5217	-34.735516	0.000304	3.041554	1.030506	-0.000122
1220	1.2129e+02	-8.5618	-34.876816	0.000355	3.548479	1.202257	-0.000142
1221	1.2139e+02	-8.5923	-35.074635	0.000497	4.967871	1.683160	-0.000199
1222	1.2149e+02	-8.6372	-35.195749	0.000304	3.041554	1.030506	-0.000122
1223	1.2159e+02	-8.6693	-35.357235	0.000406	4.055405	1.374008	-0.000162
1224	1.2169e+02	-8.7238	-35.534869	0.000446	4.460945	1.511409	-0.000179
1225	1.2179e+02	-8.7511	-35.712503	0.000446	4.460945	1.511409	-0.000179
1226	1.2189e+02	-8.8008	-35.841691	0.000324	3.244324	1.099207	-0.000130
1227	1.2199e+02	-8.8377	-36.011251	0.000426	4.258175	1.442709	-0.000170
1228	1.2209e+02	-8.8762	-36.213108	0.000507	5.069256	1.717510	-0.000203
1229	1.2219e+02	-8.9227	-36.382667	0.000426	4.258175	1.442709	-0.000170
1230	1.2229e+02	-8.9532	-36.495707	0.000284	2.838783	0.961806	-0.000114
1231	1.2239e+02	-8.9965	-36.641044	0.000365	3.649864	1.236607	-0.000146
1232	1.2248e+02	-9.0334	-36.746009	0.000264	2.636013	0.893105	-0.000105
1233	1.2258e+02	-9.0880	-36.935755	0.000477	4.765101	1.614460	-0.000191
1234	1.2268e+02	-9.1169	-37.028609	0.000233	2.331858	0.790055	-0.000093
1235	1.2278e+02	-9.1521	-37.182020	0.000385	3.852634	1.305308	-0.000154
1236	1.2288e+02	-9.2083	-37.343506	0.000406	4.055405	1.374008	-0.000162
1237	1.2298e+02	-9.2420	-37.480768	0.000345	3.447094	1.167907	-0.000138
1238	1.2308e+02	-9.2805	-37.642254	0.000406	4.055405	1.374008	-0.000162
1239	1.2318e+02	-9.3222	-37.807776	0.000416	4.156790	1.408359	-0.000166
1240	1.2328e+02	-9.3527	-37.928890	0.000304	3.041554	1.030506	-0.000122
1241	1.2338e+02	-9.4008	-38.074227	0.000365	3.649864	1.236607	-0.000146
1242	1.2348e+02	-9.4425	-38.219564	0.000365	3.649864	1.236607	-0.000146
1243	1.2358e+02	-9.4794	-38.393161	0.000436	4.359560	1.477059	-0.000174
1244	1.2368e+02	-9.5131	-38.582906	0.000477	4.765101	1.614460	-0.000191
1245	1.2378e+02	-9.5660	-38.740355	0.000395	3.954020	1.339658	-0.000158
1246	1.2388e+02	-9.5949	-38.922026	0.000456	4.562330	1.545759	-0.000183
1247	1.2398e+02	-9.6366	-39.047177	0.000314	3.142939	1.064856	-0.000126
1248	1.2408e+02	-9.6783	-39.184439	0.000345	3.447094	1.167907	-0.000138
1249	1.2418e+02	-9.7152	-39.353999	0.000426	4.258175	1.442709	-0.000170
1250	1.2428e+02	-9.7457	-39.507410	0.000385	3.852634	1.305308	-0.000154
1251	1.2438e+02	-9.7954	-39.640636	0.000335	3.345709	1.133557	-0.000134
1252	1.2447e+02	-9.8227	-39.741564	0.000253	2.534628	0.858755	-0.000101
1253	1.2457e+02	-9.8805	-39.886901	0.000365	3.649864	1.236607	-0.000146
1254	1.2467e+02	-9.9158	-40.064535	0.000446	4.460945	1.511409	-0.000179
1255	1.2477e+02	-9.9575	-40.197761	0.000335	3.345709	1.133557	-0.000134
1256	1.2487e+02	-9.9992	-40.359246	0.000406	4.055405	1.374008	-0.000162
1257	1.2497e+02	-10.0345	-40.504583	0.000365	3.649864	1.236607	-0.000146
1258	1.2507e+02	-10.0810	-40.662031	0.000395	3.954020	1.339658	-0.000158
1259	1.2517e+02	-10.1051	-40.807368	0.000365	3.649864	1.236607	-0.000146
1260	1.2527e+02	-10.1612	-40.980965	0.000436	4.359560	1.477059	-0.000174
1261	1.2537e+02	-10.1901	-41.110153	0.000324	3.244324	1.099207	-0.000130
1262	1.2547e+02	-10.2350	-41.279713	0.000426	4.258175	1.442709	-0.000170
1263	1.2557e+02	-10.2719	-41.429087	0.000375	3.751249	1.270958	-0.000150
1264	1.2567e+02	-10.3120	-41.610758	0.000456	4.562330	1.545759	-0.000183
1265	1.2577e+02	-10.3505	-41.768206	0.000395	3.954020	1.339658	-0.000158
1266	1.2587e+02	-10.3954	-41.893358	0.000314	3.142939	1.064856	-0.000126
1267	1.2597e+02	-10.4243	-42.066954	0.000436	4.359560	1.477059	-0.000174
1268	1.2607e+02	-10.4740	-42.163846	0.000243	2.433243	0.824405	-0.000097
1269	1.2617e+02	-10.5125	-42.260737	0.000243	2.433243	0.824405	-0.000097
1270	1.2627e+02	-10.5430	-42.434334	0.000436	4.359560	1.477059	-0.000174
1271	1.2636e+02	-10.5960	-42.583708	0.000375	3.751249	1.270958	-0.000150
1272	1.2646e+02	-10.6345	-42.684636	0.000253	2.534628	0.858755	-0.000101
1273	1.2656e+02	-10.6714	-42.829973	0.000365	3.649864	1.236607	-0.000146
1274	1.2666e+02	-10.7195	-42.987421	0.000395	3.954020	1.339658	-0.000158
1275	1.2676e+02	-10.7564	-43.120647	0.000335	3.345709	1.133557	-0.000134
1276	1.2686e+02	-10.7933	-43.274058	0.000385	3.852634	1.305308	-0.000154
1277	1.2696e+02	-10.8318	-43.391135	0.000294	2.940168	0.996156	-0.000118
1278	1.2706e+02	-10.8767	-43.576843	0.000466	4.663715	1.580110	-0.000187
1279	1.2716e+02	-10.9136	-43.706031	0.000324	3.244324	1.099207	-0.000130
1280	1.2726e+02	-10.9473	-43.863480	0.000395	3.954020	1.339658	-0.000158
1281	1.2736e+02	-10.9858	-44.053225	0.000477	4.765101	1.614460	-0.000191
1282	1.2746e+02	-11.0291	-44.194525	0.000355	3.548479	1.202257	-0.000142
1283	1.2756e+02	-11.0740	-44.347936	0.000385	3.852634	1.305308	-0.000154
1284	1.2766e+02	-11.1061	-44.448864	0.000253	2.534628	0.858755	-0.000101
1285	1.2776e+02	-11.1446	-44.610350	0.000406	4.055405	1.374008	-0.000162
1286	1.2786e+02	-11.1863	-44.792021	0.000456	4.562330	1.545759	-0.000183
1287	1.2796e+02	-11.2328	-44.876801	0.000213	2.129087	0.721354	-0.000085
1288	1.2806e+02	-11.2633	-45.005989	0.000324	3.244324	1.099207	-0.000130
1289	1.2816e+02	-11.3082	-45.131140	0.000314	3.142939	1.064856	-0.000126
1290	1.2826e+02	-11.3451	-45.252254	0.000304	3.041554	1.030506	-0.000122
1291	1.2835e+02	-11.3852	-45.413740	0.000406	4.055405	1.374008	-0.000162
1292	1.2845e+02	-11.4398	-45.546965	0.000335	3.345709	1.133557	-0.000134
1293	1.2855e+02	-11.4735	-45.696339	0.000375	3.751249	1.270958	-0.000150
1294	1.2865e+02	-11.5168	-45.865899	0.000426	4.258175	1.442709	-0.000170
1295	1.2875e+02	-11.5537	-45.982976	0.000294	2.940168	0.996156	-0.000118
1296	1.2885e+02	-11.5874	-46.152536	0.000426	4.258175	1.442709	-0.000170
1297	1.2895e+02	-11.6323	-46.277687	0.000314	3.142939	1.064856	-0.000126
1298	1.2905e+02	-11.6660	-46.475507	0.000497	4.967871	1.683160	-0.000199
1299	1.2915e+02	-11.7061	-46.584509	0.000274	2.737398	0.927456	-0.000110
1300	1.2925e+02	-11.7414	-46.758106	0.000436	4.359560	1.477059	-0.000174
1301	1.2935e+02	-11.7815	-46.903443	0.000365	3.649864	1.236607	-0.000146
1302	1.2945e+02	-11.8168	-47.016483	0.000284	2.838783	0.961806	-0.000114
1303	1.2955e+02	-11.8633	-47.186043	0.000426	4.258175	1.442709	-0.000170
1304	1.2965e+02	-11.9034	-47.331379	0.000365	3.649864	1.236607	-0.000146
1305	1.2975e+02	-11.9435	-47.456531	0.000314	3.142939	1.064856	-0.000126
1306	1.2985e+02	-11.9804	-47.577645	0.000304	3.041554	1.030506	-0.000122
1307	1.2995e+02	-12.0334	-47.682610	0.000264	2.636013	0.893105	-0.000105
1308	1.3005e+02	-12.0686	-47.868318	0.000466	4.663715	1.580110	-0.000187
1309	1.3015e+02	-12.1104	-47.997507	0.000324	3.244324	1.099207	-0.000130
1310	1.3025e+02	-12.1456	-48.102472	0.000264	2.636013	0.893105	-0.000105
1311	1.3034e+02	-12.1890	-48.267995	0.000416	4.156790	1.408359	-0.000166
1312	1.3044e+02	-12.2323	-48.409295	0.000355	3.548479	1.202257	-0.000142
1313	1.3054e+02	-12.2676	-48.566743	0.000395	3.954020	1.339658	-0.000158
1314	1.3064e+02	-12.3061	-48.724191	0.000395	3.954020	1.339658	-0.000158
1315	1.3074e+02	-12.3398	-48.817045	0.000233	2.331858	0.790055	-0.000093
1316	1.3084e+02	-12.3831	-49.022939	0.000517	5.170641	1.751861	-0.000207
1317	1.3094e+02	-12.4296	-49.156165	0.000335	3.345709	1.133557	-0.000134
1318	1.3104e+02	-12.4681	-49.281316	0.000314	3.142939	1.064856	-0.000126
1319	1.3114e+02	-12.5066	-49.450876	0.000426	4.258175	1.442709	-0.000170
1320	1.3124e+02	-12.5467	-49.600250	0.000375	3.751249	1.270958	-0.000150
1321	1.3134e+02	-12.5740	-49.733475	0.000335	3.345709	1.133557	-0.000134
1322	1.3144e+02	-12.6237	-49.903035	0.000426	4.258175	1.442709	-0.000170
1323	1.3154e+02	-12.6734	-50.008000	0.000264	2.636013	0.893105	-0.000105
1324	1.3164e+02	-12.7055	-50.161412	0.000385	3.852634	1.305308	-0.000154
1325	1.3174e+02	-12.7344	-50.246191	0.000213	2.129087	0.721354	-0.000085
1326	1.3184e+02	-12.7889	-50.387491	0.000355	3.548479	1.202257	-0.000142
1327	1.3194e+02	-12.8162	-50.500531	0.000284	2.838783	0.961806	-0.000114
1328	1.3204e+02	-12.8627	-50.678165	0.000446	4.460945	1.511409	-0.000179
1329	1.3214e+02	-12.8932	-50.811390	0.000335	3.345709	1.133557	-0.000134
1330	1.3224e+02	-12.9397	-50.936542	0.000314	3.142939	1.064856	-0.000126
1331	1.3234e+02	-12.9831	-51.025359	0.000223	2.230473	0.755705	-0.000089
1332	1.3243e+02	-13.0200	-51.211067	0.000466	4.663715	1.580110	-0.000187
1333	1.3253e+02	-13.0520	-51.372552	0.000406	4.055405	1.374008	-0.000162
1334	1.3263e+02	-13.1002	-51.550186	0.000446	4.460945	1.511409	-0.000179
1335	1.3273e+02	-13.1339	-51.679375	0.000324	3.244324	1.099207	-0.000130
1336	1.3283e+02	-13.1836	-51.800489	0.000304	3.041554	1.030506	-0.000122
1337	1.3293e+02	-13.2205	-51.933714	0.000335	3.345709	1.133557	-0.000134
1338	1.3303e+02	-13.2638	-52.107311	0.000436	4.359560	1.477059	-0.000174
1339	1.3313e+02	-13.2975	-52.236499	0.000324	3.244324	1.099207	-0.000130
1340	1.3323e+02	-13.3408	-52.341465	0.000264	2.636013	0.893105	-0.000105
1341	1.3333e+02	-13.3809	-52.422208	0.000203	2.027702	0.687004	-0.000081
1342	1.3343e+02	-13.4194	-52.567544	0.000365	3.649864	1.236607	-0.000146
1343	1.3353e+02	-13.4579	-52.733067	0.000416	4.156790	1.408359	-0.000166
1344	1.3363e+02	-13.5012	-52.842070	0.000274	2.737398	0.927456	-0.000110
1345	1.3373e+02	-13.5413	-52.991444	0.000375	3.751249	1.270958	-0.000150
1346	1.3383e+02	-13.5718	-53.120632	0.000324	3.244324	1.099207	-0.000130
1347	1.3393e+02	-13.6183	-53.290192	0.000426	4.258175	1.442709	-0.000170
1348	1.3403e+02	-13.6633	-53.419380	0.000324	3.244324	1.099207	-0.000130
1349	1.3413e+02	-13.7018	-53.548568	0.000324	3.244324	1.099207	-0.000130
1350	1.3423e+02	-13.7354	-53.706017	0.000395	3.954020	1.339658	-0.000158
1351	1.3432e+02	-13.7739	-53.839242	0.000335	3.345709	1.133557	-0.000134
1352	1.3442e+02	-13.8189	-54.028988	0.000477	4.765101	1.614460	-0.000191
1353	1.3452e+02	-13.8526	-54.162213	0.000335	3.345709	1.133557	-0.000134
1354	1.3462e+02	-13.8911	-54.327736	0.000416	4.156790	1.408359	-0.000166
1355	1.3472e+02	-13.9440	-54.460961	0.000335	3.345709	1.133557	-0.000134
1356	1.3482e+02	-13.9761	-54.582075	0.000304	3.041554	1.030506	-0.000122
1357	1.3492e+02	-14.0146	-54.735486	0.000385	3.852634	1.305308	-0.000154
1358	1.3502e+02	-14.0499	-54.848526	0.000284	2.838783	0.961806	-0.000114
1359	1.3512e+02	-14.0948	-54.989826	0.000355	3.548479	1.202257	-0.000142
1360	1.3522e+02	-14.1413	-55.094791	0.000264	2.636013	0.893105	-0.000105
1361	1.3532e+02	-14.1814	-55.248203	0.000385	3.852634	1.305308	-0.000154
1362	1.3542e+02	-14.2135	-55.377391	0.000324	3.244324	1.099207	-0.000130
1363	1.3552e+02	-14.2616	-55.522728	0.000365	3.649864	1.236607	-0.000146
1364	1.3562e+02	-14.2937	-55.603471	0.000203	2.027702	0.687004	-0.000081
1365	1.3572e+02	-14.3370	-55.801290	0.000497	4.967871	1.683160	-0.000199
1366	1.3582e+02	-14.3723	-55.970850	0.000426	4.258175	1.442709	-0.000170
1367	1.3592e+02	-14.4221	-56.096001	0.000314	3.142939	1.064856	-0.000126
1368	1.3602e+02	-14.4541	-56.241338	0.000365	3.649864	1.236607	-0.000146
1369	1.3612e+02	-14.4926	-56.398786	0.000395	3.954020	1.339658	-0.000158
1370	1.3622e+02	-14.5263	-56.560272	0.000406	4.055405	1.374008	-0.000162
1371	1.3631e+02	-14.5745	-56.685423	0.000314	3.142939	1.064856	-0.000126
1372	1.3641e+02	-14.6178	-56.842871	0.000395	3.954020	1.339658	-0.000158
1373	1.3651e+02	-14.6531	-56.968022	0.000314	3.142939	1.064856	-0.000126
1374	1.3661e+02	-14.6835	-57.137582	0.000426	4.258175	1.442709	-0.000170
1375	1.3671e+02	-14.7220	-57.278882	0.000355	3.548479	1.202257	-0.000142
1376	1.3681e+02	-14.7766	-57.375773	0.000243	2.433243	0.824405	-0.000097
1377	1.3691e+02	-14.8183	-57.468627	0.000233	2.331858	0.790055	-0.000093
1378	1.3701e+02	-14.8552	-57.634150	0.000416	4.156790	1.408359	-0.000166
1379	1.3711e+02	-14.9017	-57.747190	0.000284	2.838783	0.961806	-0.000114
1380	1.3721e+02	-14.9354	-57.888489	0.000355	3.548479	1.202257	-0.000142
1381	1.3731e+02	-14.9739	-58.001529	0.000284	2.838783	0.961806	-0.000114
1382	1.3741e+02	-15.0172	-58.118606	0.000294	2.940168	0.996156	-0.000118
1383	1.3751e+02	-15.0573	-58.304314	0.000466	4.663715	1.580110	-0.000187
1384	1.3761e+02	-15.0958	-58.437540	0.000335	3.345709	1.133557	-0.000134
1385	1.3771e+02	-15.1424	-58.570765	0.000335	3.345709	1.133557	-0.000134
1386	1.3781e+02	-15.1744	-58.736288	0.000416	4.156790	1.408359	-0.000166
1387	1.3791e+02	-15.2129	-58.869513	0.000335	3.345709	1.133557	-0.000134
1388	1.3801e+02	-15.2450	-59.006776	0.000345	3.447094	1.167907	-0.000138
1389	1.3811e+02	-15.2883	-59.160187	0.000385	3.852634	1.305308	-0.000154
1390	1.3821e+02	-15.3333	-59.325710	0.000416	4.156790	1.408359	-0.000166
1391	1.3831e+02	-15.3669	-59.426638	0.000253	2.534628	0.858755	-0.000101
1392	1.3840e+02	-15.4119	-59.551789	0.000314	3.142939	1.064856	-0.000126
1393	1.3850e+02	-15.4472	-59.725386	0.000436	4.359560	1.477059	-0.000174
1394	1.3860e+02	-15.4889	-59.818240	0.000233	2.331858	0.790055	-0.000093
1395	1.3870e+02	-15.5338	-59.923206	0.000264	2.636013	0.893105	-0.000105
1396	1.3880e+02	-15.5755	-60.068543	0.000365	3.649864	1.236607	-0.000146
1397	1.3890e+02	-15.6140	-60.161397	0.000233	2.331858	0.790055	-0.000093
1398	1.3900e+02	-15.6461	-60.347105	0.000466	4.663715	1.580110	-0.000187
1399	1.3910e+02	-15.6910	-60.464182	0.000294	2.940168	0.996156	-0.000118
1400	1.3920e+02	-15.7423	-60.585296	0.000304	3.041554	1.030506	-0.000122
1401	1.3930e+02	-15.7648	-60.738707	0.000385	3.852634	1.305308	-0.000154
1402	1.3940e+02	-15.8097	-60.884044	0.000365	3.649864	1.236607	-0.000146
1403	1.3950e+02	-15.8418	-61.033418	0.000375	3.751249	1.270958	-0.000150
1404	1.3960e+02	-15.8867	-61.190866	0.000395	3.954020	1.339658	-0.000158
1405	1.3970e+02	-15.9381	-61.352352	0.000406	4.055405	1.374008	-0.000162
1406	1.3980e+02	-15.9733	-61.473466	0.000304	3.041554	1.030506	-0.000122
1407	1.3990e+02	-16.0118	-61.602654	0.000324	3.244324	1.099207	-0.000130
1408	1.4000e+02	-16.0407	-61.743954	0.000355	3.548479	1.202257	-0.000142
1409	1.4010e+02	-16.0953	-61.816622	0.000182	1.824932	0.618304	-0.000073
1410	1.4020e+02	-16.1257	-61.998294	0.000456	4.562330	1.545759	-0.000183
1411	1.4029e+02	-16.1723	-62.119408	0.000304	3.041554	1.030506	-0.000122
1412	1.4039e+02	-16.2076	-62.305116	0.000466	4.663715	1.580110	-0.000187
1413	1.4049e+02	-16.2509	-62.406044	0.000253	2.534628	0.858755	-0.000101
1414	1.4059e+02	-16.2942	-62.543307	0.000345	3.447094	1.167907	-0.000138
1415	1.4069e+02	-16.3263	-62.644235	0.000253	2.534628	0.858755	-0.000101
1416	1.4079e+02	-16.3712	-62.789572	0.000365	3.649864	1.236607	-0.000146
1417	1.4089e+02	-16.4049	-62.902612	0.000284	2.838783	0.961806	-0.000114
1418	1.4099e+02	-16.4466	-63.043912	0.000355	3.548479	1.202257	-0.000142
1419	1.4109e+02	-16.4835	-63.197323	0.000385	3.852634	1.305308	-0.000154
1420	1.4119e+02	-16.5188	-63.366883	0.000426	4.258175	1.442709	-0.000170
1421	1.4129e+02	-16.5653	-63.471848	0.000264	2.636013	0.893105	-0.000105
1422	1.4139e+02	-16.6054	-63.657556	0.000466	4.663715	1.580110	-0.000187
1423	1.4149e+02	-16.6423	-63.782708	0.000314	3.142939	1.064856	-0.000126
1424	1.4159e+02	-16.6776	-63.919970	0.000345	3.447094	1.167907	-0.000138
1425	1.4169e+02	-16.7241	-64.077418	0.000395	3.954020	1.339658	-0.000158
1426	1.4179e+02	-16.7626	-64.218718	0.000355	3.548479	1.202257	-0.000142
1427	1.4189e+02	-16.7995	-64.355981	0.000345	3.447094	1.167907	-0.000138
1428	1.4199e+02	-16.8525	-64.485169	0.000324	3.244324	1.099207	-0.000130
1429	1.4209e+02	-16.8781	-64.569949	0.000213	2.129087	0.721354	-0.000085
1430	1.4219e+02	-16.9231	-64.735472	0.000416	4.156790	1.408359	-0.000166
1431	1.4228e+02	-16.9696	-64.905031	0.000426	4.258175	1.442709	-0.000170
1432	1.4238e+02	-17.0081	-65.009997	0.000264	2.636013	0.893105	-0.000105
1433	1.4248e+02	-17.0450	-65.086702	0.000193	1.926317	0.652654	-0.000077
1434	1.4258e+02	-17.0915	-65.256262	0.000426	4.258175	1.442709	-0.000170
1435	1.4268e+02	-17.1284	-65.365265	0.000274	2.737398	0.927456	-0.000110
1436	1.4278e+02	-17.1669	-65.522713	0.000395	3.954020	1.339658	-0.000158
1437	1.4288e+02	-17.1990	-65.688236	0.000416	4.156790	1.408359	-0.000166
1438	1.4298e+02	-17.2359	-65.833572	0.000365	3.649864	1.236607	-0.000146
1439	1.4308e+02	-17.2840	-65.954687	0.000304	3.041554	1.030506	-0.000122
1440	1.4318e+02	-17.3209	-66.140395	0.000466	4.663715	1.580110	-0.000187
1441	1.4328e+02	-17.3658	-66.265546	0.000314	3.142939	1.064856	-0.000126
1442	1.4338e+02	-17.4075	-66.447217	0.000456	4.562330	1.545759	-0.000183
1443	1.4348e+02	-17.4460	-66.495663	0.000122	1.216621	0.412202	-0.000049
1444	1.4358e+02	-17.4829	-66.665222	0.000426	4.258175	1.442709	-0.000170
1445	1.4368e+02	-17.5230	-66.794411	0.000324	3.244324	1.099207	-0.000130
1446	1.4378e+02	-17.5680	-66.927636	0.000335	3.345709	1.133557	-0.000134
1447	1.4388e+02	-17.6000	-67.093159	0.000416	4.156790	1.408359	-0.000166
1448	1.4398e+02	-17.6450	-67.177939	0.000213	2.129087	0.721354	-0.000085
1449	1.4408e+02	-17.6819	-67.343461	0.000416	4.156790	1.408359	-0.000166
1450	1.4418e+02	-17.7220	-67.476687	0.000335	3.345709	1.133557	-0.000134
1451	1.4428e+02	-17.7605	-67.573578	0.000243	2.433243	0.824405	-0.000097
1452	1.4437e+02	-17.8038	-67.714878	0.000355	3.548479	1.202257	-0.000142
1453	1.4447e+02	-17.8471	-67.872326	0.000395	3.954020	1.339658	-0.000158
1454	1.4457e+02	-17.8856	-67.997477	0.000314	3.142939	1.064856	-0.000126
1455	1.4467e+02	-17.9209	-68.195297	0.000497	4.967871	1.683160	-0.000199
1456	1.4477e+02	-17.9610	-68.348708	0.000385	3.852634	1.305308	-0.000154
1457	1.4487e+02	-18.0059	-68.494045	0.000365	3.649864	1.236607	-0.000146
1458	1.4497e+02	-18.0396	-68.651493	0.000395	3.954020	1.339658	-0.000158
1459	1.4507e+02	-18.0813	-68.792793	0.000355	3.548479	1.202257	-0.000142
1460	1.4517e+02	-18.1214	-68.938130	0.000365	3.649864	1.236607	-0.000146
1461	1.4527e+02	-18.1615	-69.107690	0.000426	4.258175	1.442709	-0.000170
1462	1.4537e+02	-18.2064	-69.236878	0.000324	3.244324	1.099207	-0.000130
1463	1.4547e+02	-18.2417	-69.394326	0.000395	3.954020	1.339658	-0.000158
1464	1.4557e+02	-18.2818	-69.535626	0.000355	3.548479	1.202257	-0.000142
1465	1.4567e+02	-18.3155	-69.660777	0.000314	3.142939	1.064856	-0.000126
1466	1.4577e+02	-18.3620	-69.834374	0.000436	4.359560	1.477059	-0.000174
1467	1.4587e+02	-18.4006	-69.967599	0.000335	3.345709	1.133557	-0.000134
1468	1.4597e+02	-18.4455	-70.056416	0.000223	2.230473	0.755705	-0.000089
1469	1.4607e+02	-18.4856	-70.234050	0.000446	4.460945	1.511409	-0.000179
1470	1.4617e+02	-18.5241	-70.399573	0.000416	4.156790	1.408359	-0.000166
1471	1.4626e+02	-18.5674	-70.524724	0.000314	3.142939	1.064856	-0.000126
1472	1.4636e+02	-18.5963	-70.718507	0.000487	4.866486	1.648810	-0.000195
1473	1.4646e+02	-18.6267	-70.892104	0.000436	4.359560	1.477059	-0.000174
1474	1.4656e+02	-18.6765	-71.085886	0.000487	4.866486	1.648810	-0.000195
1475	1.4666e+02	-18.7198	-71.235260	0.000375	3.751249	1.270958	-0.000150
1476	1.4676e+02	-18.7583	-71.396746	0.000406	4.055405	1.374008	-0.000162
1477	1.4686e+02	-18.7968	-71.538045	0.000355	3.548479	1.202257	-0.000142
1478	1.4696e+02	-18.8369	-71.735865	0.000497	4.967871	1.683160	-0.000199
1479	1.4706e+02	-18.8802	-71.877165	0.000355	3.548479	1.202257	-0.000142
1480	1.4716e+02	-18.9155	-72.083059	0.000517	5.170641	1.751861	-0.000207
1481	1.4726e+02	-18.9604	-72.204173	0.000304	3.041554	1.030506	-0.000122
1482	1.4736e+02	-18.9973	-72.381807	0.000446	4.460945	1.511409	-0.000179
1483	1.4746e+02	-19.0342	-72.531181	0.000375	3.751249	1.270958	-0.000150
1484	1.4756e+02	-19.0663	-72.692666	0.000406	4.055405	1.374008	-0.000162
1485	1.4766e+02	-19.1257	-72.862226	0.000426	4.258175	1.442709	-0.000170
1486	1.4776e+02	-19.1658	-73.027748	0.000416	4.156790	1.408359	-0.000166
1487	1.4786e+02	-19.1995	-73.169048	0.000355	3.548479	1.202257	-0.000142
1488	1.4796e+02	-19.2348	-73.370905	0.000507	5.069256	1.717510	-0.000203
1489	1.4806e+02	-19.2861	-73.524316	0.000385	3.852634	1.305308	-0.000154
1490	1.4816e+02	-19.3182	-73.705987	0.000456	4.562330	1.545759	-0.000183
1491	1.4825e+02	-19.3487	-73.923992	0.000547	5.474796	1.854911	-0.000219
1492	1.4835e+02	-19.3952	-74.113738	0.000477	4.765101	1.614460	-0.000191
1493	1.4845e+02	-19.4289	-74.335780	0.000558	5.576181	1.889261	-0.000223
1494	1.4855e+02	-19.4642	-74.481117	0.000365	3.649864	1.236607	-0.000146
1495	1.4865e+02	-19.5123	-74.691048	0.000527	5.272026	1.786211	-0.000211
1496	1.4875e+02	-19.5460	-74.884831	0.000487	4.866486	1.648810	-0.000195
1497	1.4885e+02	-19.5941	-75.058428	0.000436	4.359560	1.477059	-0.000174
1498	1.4895e+02	-19.6390	-75.236062	0.000446	4.460945	1.511409	-0.000179
1499	1.4905e+02	-19.6759	-75.462141	0.000568	5.677567	1.923612	-0.000227
1500	1.4915e+02	-19.7160	-75.651887	0.000477	4.765101	1.614460	-0.000191
1501	1.4925e+02	-19.7593	-75.789149	0.000345	3.447094	1.167907	-0.000138
1502	1.4935e+02	-19.7914	-76.027340	0.000598	5.981722	2.026662	-0.000239
1503	1.4945e+02	-19.8412	-76.225160	0.000497	4.967871	1.683160	-0.000199
1504	1.4955e+02	-19.8684	-76.378571	0.000385	3.852634	1.305308	-0.000154
1505	1.4965e+02	-19.9230	-76.588502	0.000527	5.272026	1.786211	-0.000211
1506	1.4975e+02	-19.9551	-76.766136	0.000446	4.460945	1.511409	-0.000179
1507	1.4985e+02	-19.9952	-76.980104	0.000537	5.373411	1.820561	-0.000215
1508	1.4995e+02	-19.9486	-77.016438	-0.000091	-0.912466	-0.309152	-0.000037
1509	1.5005e+02	-19.9101	-77.048736	-0.000081	-0.811081	-0.274802	-0.000032
1510	1.5015e+02	-19.8684	-77.064884	-0.000041	-0.405540	-0.137401	-0.000016
1511	1.5025e+02	-19.8347	-77.036624	0.000071	0.709696	0.240451	0.000028
1512	1.5034e+02	-19.7866	-77.016438	0.000051	0.506926	0.171751	0.000020
1513	1.5044e+02	-19.7513	-77.004327	0.000030	0.304155	0.103051	0.000012
1514	1.5054e+02	-19.7112	-76.988179	0.000041	0.405540	0.137401	0.000016
1515	1.5064e+02	-19.6759	-76.935696	0.000132	1.318007	0.446553	0.000053
1516	1.5074e+02	-19.6358	-76.947807	-0.000030	-0.304155	-0.103051	-0.000012
1517	1.5084e+02	-19.5909	-76.939733	0.000020	0.202770	0.068700	0.000008
1518	1.5094e+02	-19.5508	-76.883213	0.000142	1.419392	0.480903	0.000057
1519	1.5104e+02	-19.5187	-76.846879	0.000091	0.912466	0.309152	0.000037
1520	1.5114e+02	-19.4754	-76.814582	0.000081	0.811081	0.274802	0.000032
1521	1.5124e+02	-19.4417	-76.798433	0.000041	0.405540	0.137401	0.000016
1522	1.5134e+02	-19.3936	-76.709616	0.000223	2.230473	0.755705	0.000089
1523	1.5144e+02	-19.3583	-76.653096	0.000142	1.419392	0.480903	0.000057
1524	1.5154e+02	-19.3166	-76.604651	0.000122	1.216621	0.412202	0.000049
1525	1.5164e+02	-19.2781	-76.604651	0.000000	0.000000	0.000000	0.000000
1526	1.5174e+02	-19.2299	-76.536019	0.000172	1.723547	0.583954	0.000069
1527	1.5184e+02	-19.1866	-76.515834	0.000051	0.506926	0.171751	0.000020
1528	1.5194e+02	-19.1626	-76.475462	0.000101	1.013851	0.343502	0.000041
1529	1.5204e+02	-19.1160	-76.394720	0.000203	2.027702	0.687004	0.000081
1530	1.5214e+02	-19.0727	-76.338200	0.000142	1.419392	0.480903	0.000057
1531	1.5224e+02	-19.0326	-76.253420	0.000213	2.129087	0.721354	0.000085
1532	1.5233e+02	-18.9909	-76.221123	0.000081	0.811081	0.274802	0.000032
1533	1.5243e+02	-18.9604	-76.156529	0.000162	1.622162	0.549603	0.000065
1534	1.5253e+02	-18.9251	-76.071749	0.000213	2.129087	0.721354	0.000085
1535	1.5263e+02	-18.8818	-76.051563	0.000051	0.506926	0.171751	0.000020
1536	1.5273e+02	-18.8481	-75.954672	0.000243	2.433243	0.824405	0.000097
1537	1.5283e+02	-18.7920	-75.902189	0.000132	1.318007	0.446553	0.000053
1538	1.5293e+02	-18.7583	-75.841632	0.000152	1.520777	0.515253	0.000061
1539	1.5303e+02	-18.7150	-75.756852	0.000213	2.129087	0.721354	0.000085
1540	1.5313e+02	-18.6797	-75.663998	0.000233	2.331858	0.790055	0.000093
1541	1.5323e+02	-18.6348	-75.579218	0.000213	2.129087	0.721354	0.000085
1542	1.5333e+02	-18.5931	-75.530773	0.000122	1.216621	0.412202	0.000049
1543	1.5343e+02	-18.5562	-75.450030	0.000203	2.027702	0.687004	0.000081
1544	1.5353e+02	-18.5145	-75.409658	0.000101	1.013851	0.343502	0.000041
1545	1.5363e+02	-18.4776	-75.276433	0.000335	3.345709	1.133557	0.000134
1546	1.5373e+02	-18.4342	-75.240099	0.000091	0.912466	0.309152	0.000037
1547	1.5383e+02	-18.4006	-75.195690	0.000112	1.115236	0.377852	0.000045
1548	1.5393e+02	-18.3669	-75.135133	0.000152	1.520777	0.515253	0.000061
1549	1.5403e+02	-18.3171	-75.042279	0.000233	2.331858	0.790055	0.000093
1550	1.5413e+02	-18.2834	-74.913091	0.000324	3.244324	1.099207	0.000130
1551	1.5422e+02	-18.2481	-74.832348	0.000203	2.027702	0.687004	0.000081
1552	1.5432e+02	-18.2000	-74.804088	0.000071	0.709696	0.240451	0.000028
1553	1.5442e+02	-18.1663	-74.662788	0.000355	3.548479	1.202257	0.000142
1554	1.5452e+02	-18.1230	-74.590120	0.000182	1.824932	0.618304	0.000073
1555	1.5462e+02	-18.0813	-74.493229	0.000243	2.433243	0.824405	0.000097
1556	1.5472e+02	-18.0460	-74.412486	0.000203	2.027702	0.687004	0.000081
1557	1.5482e+02	-18.0075	-74.339817	0.000182	1.824932	0.618304	0.000073
1558	1.5492e+02	-17.9610	-74.210629	0.000324	3.244324	1.099207	0.000130
1559	1.5502e+02	-17.9129	-74.158146	0.000132	1.318007	0.446553	0.000053
1560	1.5512e+02	-17.8760	-74.041069	0.000294	2.940168	0.996156	0.000118
1561	1.5522e+02	-17.8439	-73.960327	0.000203	2.027702	0.687004	0.000081
1562	1.5532e+02	-17.7990	-73.899770	0.000152	1.520777	0.515253	0.000061
1563	1.5542e+02	-17.7589	-73.843250	0.000142	1.419392	0.480903	0.000057
1564	1.5552e+02	-17.7252	-73.710024	0.000335	3.345709	1.133557	0.000134
1565	1.5562e+02	-17.6867	-73.629282	0.000203	2.027702	0.687004	0.000081
1566	1.5572e+02	-17.6417	-73.560650	0.000172	1.723547	0.583954	0.000069
1567	1.5582e+02	-17.6000	-73.451648	0.000274	2.737398	0.927456	0.000110
1568	1.5592e+02	-17.5551	-73.370905	0.000203	2.027702	0.687004	0.000081
1569	1.5602e+02	-17.5230	-73.261902	0.000274	2.737398	0.927456	0.000110
1570	1.5612e+02	-17.4877	-73.160974	0.000253	2.534628	0.858755	0.000101
1571	1.5622e+02	-17.4492	-73.076194	0.000213	2.129087	0.721354	0.000085
1572	1.5631e+02	-17.4059	-72.951043	0.000314	3.142939	1.064856	0.000126
1573	1.5641e+02	-17.3706	-72.886449	0.000162	1.622162	0.549603	0.000065
1574	1.5651e+02	-17.3209	-72.789557	0.000243	2.433243	0.824405	0.000097
1575	1.5661e+02	-17.2840	-72.688629	0.000253	2.534628	0.858755	0.000101
1576	1.5671e+02	-17.2407	-72.587701	0.000253	2.534628	0.858755	0.000101
1577	1.5681e+02	-17.1974	-72.482735	0.000264	2.636013	0.893105	0.000105
1578	1.5691e+02	-17.1669	-72.397955	0.000213	2.129087	0.721354	0.000085
1579	1.5701e+02	-17.1188	-72.345472	0.000132	1.318007	0.446553	0.000053
1580	1.5711e+02	-17.0867	-72.232433	0.000284	2.838783	0.961806	0.000114
1581	1.5721e+02	-17.0418	-72.099207	0.000335	3.345709	1.133557	0.000134
1582	1.5731e+02	-17.0065	-72.070947	0.000071	0.709696	0.240451	0.000028
1583	1.5741e+02	-16.9632	-71.949833	0.000304	3.041554	1.030506	0.000122
1584	1.5751e+02	-16.9263	-71.852942	0.000243	2.433243	0.824405	0.000097
1585	1.5761e+02	-16.8813	-71.764125	0.000223	2.230473	0.755705	0.000089
1586	1.5771e+02	-16.8460	-71.651085	0.000284	2.838783	0.961806	0.000114
1587	1.5781e+02	-16.8059	-71.554194	0.000243	2.433243	0.824405	0.000097
1588	1.5791e+02	-16.7626	-71.473451	0.000203	2.027702	0.687004	0.000081
1589	1.5801e+02	-16.7241	-71.356374	0.000294	2.940168	0.996156	0.000118
1590	1.5811e+02	-16.6904	-71.271594	0.000213	2.129087	0.721354	0.000085
1591	1.5821e+02	-16.6343	-71.198926	0.000182	1.824932	0.618304	0.000073
1592	1.5830e+02	-16.6086	-71.073775	0.000314	3.142939	1.064856	0.000126
1593	1.5840e+02	-16.5653	-70.960735	0.000284	2.838783	0.961806	0.000114
1594	1.5850e+02	-16.5268	-70.908252	0.000132	1.318007	0.446553	0.000053
1595	1.5860e+02	-16.4755	-70.807324	0.000253	2.534628	0.858755	0.000101
1596	1.5870e+02	-16.4434	-70.641801	0.000416	4.156790	1.408359	0.000166
1597	1.5880e+02	-16.4097	-70.561058	0.000203	2.027702	0.687004	0.000081
1598	1.5890e+02	-16.3648	-70.488390	0.000182	1.824932	0.618304	0.000073
1599	1.5900e+02	-16.3231	-70.363239	0.000314	3.142939	1.064856	0.000126
1600	1.5910e+02	-16.2910	-70.286533	0.000193	1.926317	0.652654	0.000077
1601	1.5920e+02	-16.2461	-70.193679	0.000233	2.331858	0.790055	0.000093
1602	1.5930e+02	-16.2124	-70.048342	0.000365	3.649864	1.236607	0.000146
1603	1.5940e+02	-16.1691	-69.951451	0.000243	2.433243	0.824405	0.000097
1604	1.5950e+02	-16.1306	-69.850523	0.000253	2.534628	0.858755	0.000101
1605	1.5960e+02	-16.0937	-69.737483	0.000284	2.838783	0.961806	0.000114
1606	1.5970e+02	-16.0503	-69.668851	0.000172	1.723547	0.583954	0.000069
1607	1.5980e+02	-16.0086	-69.523515	0.000365	3.649864	1.236607	0.000146
1608	1.5990e+02	-15.9589	-69.414512	0.000274	2.737398	0.927456	0.000110
1609	1.6000e+02	-15.9381	-69.333769	0.000203	2.027702	0.687004	0.000081
1610	1.6010e+02	-15.8915	-69.204581	0.000324	3.244324	1.099207	0.000130
1611	1.6019e+02	-15.8498	-69.103652	0.000253	2.534628	0.858755	0.000101
1612	1.6029e+02	-15.8049	-69.006761	0.000243	2.433243	0.824405	0.000097
1613	1.6039e+02	-15.7696	-68.917944	0.000223	2.230473	0.755705	0.000089
1614	1.6049e+02	-15.7263	-68.817016	0.000253	2.534628	0.858755	0.000101
1615	1.6059e+02	-15.6942	-68.647456	0.000426	4.258175	1.442709	0.000170
1616	1.6069e+02	-15.6493	-68.562676	0.000213	2.129087	0.721354	0.000085
1617	1.6079e+02	-15.6124	-68.433488	0.000324	3.244324	1.099207	0.000130
1618	1.6089e+02	-15.5755	-68.360819	0.000182	1.824932	0.618304	0.000073
1619	1.6099e+02	-15.5370	-68.239705	0.000304	3.041554	1.030506	0.000122
1620	1.6109e+02	-15.4921	-68.086294	0.000385	3.852634	1.305308	0.000154
1621	1.6119e+02	-15.4536	-67.989403	0.000243	2.433243	0.824405	0.000097
1622	1.6129e+02	-15.4183	-67.936920	0.000132	1.318007	0.446553	0.000053
1623	1.6139e+02	-15.3734	-67.807732	0.000324	3.244324	1.099207	0.000130
1624	1.6149e+02	-15.3397	-67.698729	0.000274	2.737398	0.927456	0.000110
1625	1.6159e+02	-15.2867	-67.613949	0.000213	2.129087	0.721354	0.000085
1626	1.6169e+02	-15.2530	-67.472650	0.000355	3.548479	1.202257	0.000142
1627	1.6179e+02	-15.2194	-67.387870	0.000213	2.129087	0.721354	0.000085
1628	1.6189e+02	-15.1664	-67.266756	0.000304	3.041554	1.030506	0.000122
1629	1.6199e+02	-15.1327	-67.198124	0.000172	1.723547	0.583954	0.000069
1630	1.6209e+02	-15.0894	-67.060862	0.000345	3.447094	1.167907	0.000138
1631	1.6219e+02	-15.0557	-66.980119	0.000203	2.027702	0.687004	0.000081
1632	1.6228e+02	-15.0060	-66.842856	0.000345	3.447094	1.167907	0.000138
1633	1.6238e+02	-14.9723	-66.725779	0.000294	2.940168	0.996156	0.000118
1634	1.6248e+02	-14.9322	-66.636962	0.000223	2.230473	0.755705	0.000089
1635	1.6258e+02	-14.8857	-66.447217	0.000477	4.765101	1.614460	0.000191
1636	1.6268e+02	-14.8536	-66.378586	0.000172	1.723547	0.583954	0.000069
1637	1.6278e+02	-14.8151	-66.269583	0.000274	2.737398	0.927456	0.000110
1638	1.6288e+02	-14.7702	-66.152506	0.000294	2.940168	0.996156	0.000118
1639	1.6298e+02	-14.7269	-66.043504	0.000274	2.737398	0.927456	0.000110
1640	1.6308e+02	-14.6996	-65.922389	0.000304	3.041554	1.030506	0.000122
1641	1.6318e+02	-14.6547	-65.793201	0.000324	3.244324	1.099207	0.000130
1642	1.6328e+02	-14.6130	-65.700347	0.000233	2.331858	0.790055	0.000093
1643	1.6338e+02	-14.5680	-65.635753	0.000162	1.622162	0.549603	0.000065
1644	1.6348e+02	-14.5424	-65.470230	0.000416	4.156790	1.408359	0.000166
1645	1.6358e+02	-14.5023	-65.381413	0.000223	2.230473	0.755705	0.000089
1646	1.6368e+02	-14.4509	-65.223965	0.000395	3.954020	1.339658	0.000158
1647	1.6378e+02	-14.4172	-65.163408	0.000152	1.520777	0.515253	0.000061
1648	1.6388e+02	-14.3691	-65.034220	0.000324	3.244324	1.099207	0.000130
1649	1.6398e+02	-14.3322	-64.981737	0.000132	1.318007	0.446553	0.000053
1650	1.6408e+02	-14.2985	-64.872734	0.000274	2.737398	0.927456	0.000110
1651	1.6418e+02	-14.2424	-64.743546	0.000324	3.244324	1.099207	0.000130
1652	1.6427e+02	-14.2183	-64.578023	0.000416	4.156790	1.408359	0.000166
1653	1.6437e+02	-14.1750	-64.464983	0.000284	2.838783	0.961806	0.000114
1654	1.6447e+02	-14.1381	-64.368092	0.000243	2.433243	0.824405	0.000097
1655	1.6457e+02	-14.0980	-64.259090	0.000274	2.737398	0.927456	0.000110
1656	1.6467e+02	-14.0499	-64.105678	0.000385	3.852634	1.305308	0.000154
1657	1.6477e+02	-14.0210	-64.024936	0.000203	2.027702	0.687004	0.000081
1658	1.6487e+02	-13.9793	-63.887673	0.000345	3.447094	1.167907	0.000138
1659	1.6497e+02	-13.9376	-63.782708	0.000264	2.636013	0.893105	0.000105
1660	1.6507e+02	-13.8911	-63.677742	0.000264	2.636013	0.893105	0.000105
1661	1.6517e+02	-13.8574	-63.568739	0.000274	2.737398	0.927456	0.000110
1662	1.6527e+02	-13.8237	-63.423402	0.000365	3.649864	1.236607	0.000146
1663	1.6537e+02	-13.7772	-63.326511	0.000243	2.433243	0.824405	0.000097
1664	1.6547e+02	-13.7419	-63.181174	0.000365	3.649864	1.236607	0.000146
1665	1.6557e+02	-13.6937	-63.072172	0.000274	2.737398	0.927456	0.000110
1666	1.6567e+02	-13.6472	-62.959132	0.000284	2.838783	0.961806	0.000114
1667	1.6577e+02	-13.6183	-62.951058	0.000020	0.202770	0.068700	0.000008
1668	1.6587e+02	-13.5734	-62.805721	0.000365	3.649864	1.236607	0.000146
1669	1.6597e+02	-13.5381	-62.660384	0.000365	3.649864	1.236607	0.000146
1670	1.6607e+02	-13.5028	-62.543307	0.000294	2.940168	0.996156	0.000118
1671	1.6616e+02	-13.4595	-62.385859	0.000395	3.954020	1.339658	0.000158
1672	1.6626e+02	-13.4242	-62.284930	0.000253	2.534628	0.858755	0.000101
1673	1.6636e+02	-13.3809	-62.171890	0.000284	2.838783	0.961806	0.000114
1674	1.6646e+02	-13.3424	-62.026553	0.000365	3.649864	1.236607	0.000146
1675	1.6656e+02	-13.2975	-61.865068	0.000406	4.055405	1.374008	0.000162
1676	1.6666e+02	-13.2606	-61.788362	0.000193	1.926317	0.652654	0.000077
1677	1.6676e+02	-13.2189	-61.659174	0.000324	3.244324	1.099207	0.000130
1678	1.6686e+02	-13.1772	-61.525949	0.000335	3.345709	1.133557	0.000134
1679	1.6696e+02	-13.1419	-61.449243	0.000193	1.926317	0.652654	0.000077
1680	1.6706e+02	-13.1002	-61.287758	0.000406	4.055405	1.374008	0.000162
1681	1.6716e+02	-13.0617	-61.162606	0.000314	3.142939	1.064856	0.000126
1682	1.6726e+02	-13.0312	-61.041492	0.000304	3.041554	1.030506	0.000122
1683	1.6736e+02	-12.9863	-60.972861	0.000172	1.723547	0.583954	0.000069
1684	1.6746e+02	-12.9478	-60.871933	0.000253	2.534628	0.858755	0.000101
1685	1.6756e+02	-12.8996	-60.730633	0.000355	3.548479	1.202257	0.000142
1686	1.6766e+02	-12.8611	-60.674113	0.000142	1.419392	0.480903	0.000057
1687	1.6776e+02	-12.8114	-60.577222	0.000243	2.433243	0.824405	0.000097
1688	1.6786e+02	-12.7793	-60.407662	0.000426	4.258175	1.442709	0.000170
1689	1.6796e+02	-12.7456	-60.310771	0.000243	2.433243	0.824405	0.000097
1690	1.6806e+02	-12.7007	-60.129100	0.000456	4.562330	1.545759	0.000183
1691	1.6816e+02	-12.6686	-60.036246	0.000233	2.331858	0.790055	0.000093
1692	1.6825e+02	-12.6237	-59.903020	0.000335	3.345709	1.133557	0.000134
1693	1.6835e+02	-12.5820	-59.789980	0.000284	2.838783	0.961806	0.000114
1694	1.6845e+02	-12.5435	-59.676940	0.000284	2.838783	0.961806	0.000114
1695	1.6855e+02	-12.5050	-59.584086	0.000233	2.331858	0.790055	0.000093
1696	1.6865e+02	-12.4649	-59.446824	0.000345	3.447094	1.167907	0.000138
1697	1.6875e+02	-12.4248	-59.358007	0.000223	2.230473	0.755705	0.000089
1698	1.6885e+02	-12.3927	-59.232856	0.000314	3.142939	1.064856	0.000126
1699	1.6895e+02	-12.3462	-59.075407	0.000395	3.954020	1.339658	0.000158
1700	1.6905e+02	-12.3061	-59.014850	0.000152	1.520777	0.515253	0.000061
1701	1.6915e+02	-12.2676	-58.869513	0.000365	3.649864	1.236607	0.000146
1702	1.6925e+02	-12.2243	-58.748399	0.000304	3.041554	1.030506	0.000122
1703	1.6935e+02	-12.1809	-58.667657	0.000203	2.027702	0.687004	0.000081
1704	1.6945e+02	-12.1456	-58.518283	0.000375	3.751249	1.270958	0.000150
1705	1.6955e+02	-12.1007	-58.425428	0.000233	2.331858	0.790055	0.000093
1706	1.6965e+02	-12.0670	-58.304314	0.000304	3.041554	1.030506	0.000122
1707	1.6975e+02	-12.0285	-58.150903	0.000385	3.852634	1.305308	0.000154
1708	1.6985e+02	-11.9772	-57.989418	0.000406	4.055405	1.374008	0.000162
1709	1.6995e+02	-11.9435	-57.880415	0.000274	2.737398	0.927456	0.000110
1710	1.7005e+02	-11.9066	-57.763338	0.000294	2.940168	0.996156	0.000118
1711	1.7015e+02	-11.8697	-57.666447	0.000243	2.433243	0.824405	0.000097
1712	1.7024e+02	-11.8200	-57.537259	0.000324	3.244324	1.099207	0.000130
1713	1.7034e+02	-11.7959	-57.416144	0.000304	3.041554	1.030506	0.000122
1714	1.7044e+02	-11.7494	-57.290993	0.000314	3.142939	1.064856	0.000126
1715	1.7054e+02	-11.7061	-57.177953	0.000284	2.838783	0.961806	0.000114
1716	1.7064e+02	-11.6708	-57.060877	0.000294	2.940168	0.996156	0.000118
1717	1.7074e+02	-11.6307	-56.927651	0.000335	3.345709	1.133557	0.000134
1718	1.7084e+02	-11.5858	-56.806537	0.000304	3.041554	1.030506	0.000122
1719	1.7094e+02	-11.5537	-56.677349	0.000324	3.244324	1.099207	0.000130
1720	1.7104e+02	-11.5072	-56.540086	0.000345	3.447094	1.167907	0.000138
1721	1.7114e+02	-11.4638	-56.418972	0.000304	3.041554	1.030506	0.000122
1722	1.7124e+02	-11.4205	-56.326118	0.000233	2.331858	0.790055	0.000093
1723	1.7134e+02	-11.3868	-56.245375	0.000203	2.027702	0.687004	0.000081
1724	1.7144e+02	-11.3451	-56.083890	0.000406	4.055405	1.374008	0.000162
1725	1.7154e+02	-11.3066	-55.930479	0.000385	3.852634	1.305308	0.000154
1726	1.7164e+02	-11.2713	-55.789179	0.000355	3.548479	1.202257	0.000142
1727	1.7174e+02	-11.2232	-55.655953	0.000335	3.345709	1.133557	0.000134
1728	1.7184e+02	-11.1927	-55.510616	0.000365	3.649864	1.236607	0.000146
1729	1.7194e+02	-11.1542	-55.425837	0.000213	2.129087	0.721354	0.000085
1730	1.7204e+02	-11.1045	-55.296648	0.000324	3.244324	1.099207	0.000130
1731	1.7213e+02	-11.0708	-55.151311	0.000365	3.649864	1.236607	0.000146
1732	1.7223e+02	-11.0307	-55.062494	0.000223	2.230473	0.755705	0.000089
1733	1.7233e+02	-10.9826	-54.925232	0.000345	3.447094	1.167907	0.000138
1734	1.7243e+02	-10.9553	-54.812192	0.000284	2.838783	0.961806	0.000114
1735	1.7253e+02	-10.9200	-54.670892	0.000355	3.548479	1.202257	0.000142
1736	1.7263e+02	-10.8703	-54.549778	0.000304	3.041554	1.030506	0.000122
1737	1.7273e+02	-10.8414	-54.396367	0.000385	3.852634	1.305308	0.000154
1738	1.7283e+02	-10.7965	-54.287364	0.000274	2.737398	0.927456	0.000110
1739	1.7293e+02	-10.7435	-54.166250	0.000304	3.041554	1.030506	0.000122
1740	1.7303e+02	-10.7034	-54.081470	0.000213	2.129087	0.721354	0.000085
1741	1.7313e+02	-10.6714	-53.944208	0.000345	3.447094	1.167907	0.000138
1742	1.7323e+02	-10.6329	-53.766574	0.000446	4.460945	1.511409	0.000179
1743	1.7333e+02	-10.5799	-53.649497	0.000294	2.940168	0.996156	0.000118
1744	1.7343e+02	-10.5542	-53.467826	0.000456	4.562330	1.545759	0.000183
1745	1.7353e+02	-10.5141	-53.354786	0.000284	2.838783	0.961806	0.000114
1746	1.7363e+02	-10.4805	-53.253858	0.000253	2.534628	0.858755	0.000101
1747	1.7373e+02	-10.4275	-53.116595	0.000345	3.447094	1.167907	0.000138
1748	1.7383e+02	-10.3778	-53.007592	0.000274	2.737398	0.927456	0.000110
1749	1.7393e+02	-10.3553	-52.890515	0.000294	2.940168	0.996156	0.000118
1750	1.7403e+02	-10.3104	-52.773438	0.000294	2.940168	0.996156	0.000118
1751	1.7413e+02	-10.2751	-52.620027	0.000385	3.852634	1.305308	0.000154
1752	1.7422e+02	-10.2350	-52.494876	0.000314	3.142939	1.064856	0.000126
1753	1.7432e+02	-10.1949	-52.317242	0.000446	4.460945	1.511409	0.000179
1754	1.7442e+02	-10.1516	-52.232462	0.000213	2.129087	0.721354	0.000085
1755	1.7452e+02	-10.1179	-52.107311	0.000314	3.142939	1.064856	0.000126
1756	1.7462e+02	-10.0730	-51.998308	0.000274	2.737398	0.927456	0.000110
1757	1.7472e+02	-10.0232	-51.873157	0.000314	3.142939	1.064856	0.000126
1758	1.7482e+02	-9.9944	-51.780303	0.000233	2.331858	0.790055	0.000093
1759	1.7492e+02	-9.9527	-51.610743	0.000426	4.258175	1.442709	0.000170
1760	1.7502e+02	-9.9045	-51.445221	0.000416	4.156790	1.408359	0.000166
1761	1.7512e+02	-9.8773	-51.332181	0.000284	2.838783	0.961806	0.000114
1762	1.7522e+02	-9.8291	-51.174733	0.000395	3.954020	1.339658	0.000158
1763	1.7532e+02	-9.7938	-51.053619	0.000304	3.041554	1.030506	0.000122
1764	1.7542e+02	-9.7457	-50.944616	0.000274	2.737398	0.927456	0.000110
1765	1.7552e+02	-9.7072	-50.799279	0.000365	3.649864	1.236607	0.000146
1766	1.7562e+02	-9.6767	-50.670091	0.000324	3.244324	1.099207	0.000130
1767	1.7572e+02	-9.6270	-50.512642	0.000395	3.954020	1.339658	0.000158
1768	1.7582e+02	-9.5869	-50.431900	0.000203	2.027702	0.687004	0.000081
1769	1.7592e+02	-9.5596	-50.286563	0.000365	3.649864	1.236607	0.000146
1770	1.7602e+02	-9.5195	-50.149300	0.000345	3.447094	1.167907	0.000138
1771	1.7612e+02	-9.4778	-49.983778	0.000416	4.156790	1.408359	0.000166
1772	1.7621e+02	-9.4409	-49.858626	0.000314	3.142939	1.064856	0.000126
1773	1.7631e+02	-9.4024	-49.737512	0.000304	3.041554	1.030506	0.000122
1774	1.7641e+02	-9.3591	-49.588138	0.000375	3.751249	1.270958	0.000150
1775	1.7651e+02	-9.3206	-49.467024	0.000304	3.041554	1.030506	0.000122
1776	1.7661e+02	-9.2821	-49.362059	0.000264	2.636013	0.893105	0.000105
1777	1.7671e+02	-9.2420	-49.244982	0.000294	2.940168	0.996156	0.000118
1778	1.7681e+02	-9.1906	-49.059273	0.000466	4.663715	1.580110	0.000187
1779	1.7691e+02	-9.1650	-48.934122	0.000314	3.142939	1.064856	0.000126
1780	1.7701e+02	-9.1185	-48.772637	0.000406	4.055405	1.374008	0.000162
1781	1.7711e+02	-9.0800	-48.643449	0.000324	3.244324	1.099207	0.000130
1782	1.7721e+02	-9.0318	-48.510223	0.000335	3.345709	1.133557	0.000134
1783	1.7731e+02	-8.9901	-48.340663	0.000426	4.258175	1.442709	0.000170
1784	1.7741e+02	-8.9612	-48.223586	0.000294	2.940168	0.996156	0.000118
1785	1.7751e+02	-8.9211	-48.098435	0.000314	3.142939	1.064856	0.000126
1786	1.7761e+02	-8.8778	-47.940987	0.000395	3.954020	1.339658	0.000158
1787	1.7771e+02	-8.8377	-47.783539	0.000395	3.954020	1.339658	0.000158
1788	1.7781e+02	-8.8088	-47.686647	0.000243	2.433243	0.824405	0.000097
1789	1.7791e+02	-8.7655	-47.529199	0.000395	3.954020	1.339658	0.000158
1790	1.7801e+02	-8.7206	-47.432308	0.000243	2.433243	0.824405	0.000097
1791	1.7810e+02	-8.6789	-47.246600	0.000466	4.663715	1.580110	0.000187
1792	1.7820e+02	-8.6388	-47.129523	0.000294	2.940168	0.996156	0.000118
1793	1.7830e+02	-8.5891	-47.032631	0.000243	2.433243	0.824405	0.000097
1794	1.7840e+02	-8.5570	-46.871146	0.000406	4.055405	1.374008	0.000162
1795	1.7850e+02	-8.5185	-46.729846	0.000355	3.548479	1.202257	0.000142
1796	1.7860e+02	-8.4768	-46.568361	0.000406	4.055405	1.374008	0.000162
1797	1.7870e+02	-8.4399	-46.431098	0.000345	3.447094	1.167907	0.000138
1798	1.7880e+02	-8.3869	-46.293836	0.000345	3.447094	1.167907	0.000138
1799	1.7890e+02	-8.3629	-46.128313	0.000416	4.156790	1.408359	0.000166
1800	1.7900e+02	-8.3228	-45.991050	0.000345	3.447094	1.167907	0.000138
1801	1.7910e+02	-8.2859	-45.865899	0.000314	3.142939	1.064856	0.000126
1802	1.7920e+02	-8.2474	-45.684228	0.000456	4.562330	1.545759	0.000183
1803	1.7930e+02	-8.2089	-45.623671	0.000152	1.520777	0.515253	0.000061
1804	1.7940e+02	-8.1607	-45.437963	0.000466	4.663715	1.580110	0.000187
1805	1.7950e+02	-8.1174	-45.324923	0.000284	2.838783	0.961806	0.000114
1806	1.7960e+02	-8.0805	-45.147289	0.000446	4.460945	1.511409	0.000179
1807	1.7970e+02	-8.0436	-45.026175	0.000304	3.041554	1.030506	0.000122
1808	1.7980e+02	-7.9987	-44.913135	0.000284	2.838783	0.961806	0.000114
1809	1.7990e+02	-7.9570	-44.751650	0.000406	4.055405	1.374008	0.000162
1810	1.8000e+02	-7.9217	-44.650721	0.000253	2.534628	0.858755	0.000101
1811	1.8009e+02	-7.8848	-44.533644	0.000294	2.940168	0.996156	0.000118
1812	1.8019e+02	-7.8415	-44.335825	0.000497	4.967871	1.683160	0.000199
1813	1.8029e+02	-7.8046	-44.178376	0.000395	3.954020	1.339658	0.000158
1814	1.8039e+02	-7.7597	-44.037077	0.000355	3.548479	1.202257	0.000142
1815	1.8049e+02	-7.7180	-43.924037	0.000284	2.838783	0.961806	0.000114
1816	1.8059e+02	-7.6795	-43.734291	0.000477	4.765101	1.614460	0.000191
1817	1.8069e+02	-7.6394	-43.597029	0.000345	3.447094	1.167907	0.000138
1818	1.8079e+02	-7.6025	-43.467840	0.000324	3.244324	1.099207	0.000130
1819	1.8089e+02	-7.5640	-43.314429	0.000385	3.852634	1.305308	0.000154
1820	1.8099e+02	-7.5351	-43.209464	0.000264	2.636013	0.893105	0.000105
1821	1.8109e+02	-7.4870	-43.068164	0.000355	3.548479	1.202257	0.000142
1822	1.8119e+02	-7.4452	-42.926864	0.000355	3.548479	1.202257	0.000142
1823	1.8129e+02	-7.4116	-42.749230	0.000446	4.460945	1.511409	0.000179
1824	1.8139e+02	-7.3682	-42.616005	0.000335	3.345709	1.133557	0.000134
1825	1.8149e+02	-7.3297	-42.462594	0.000385	3.852634	1.305308	0.000154
1826	1.8159e+02	-7.2784	-42.309183	0.000385	3.852634	1.305308	0.000154
1827	1.8169e+02	-7.2351	-42.244588	0.000162	1.622162	0.549603	0.000065
1828	1.8179e+02	-7.1918	-42.062917	0.000456	4.562330	1.545759	0.000183
1829	1.8189e+02	-7.1581	-41.945840	0.000294	2.940168	0.996156	0.000118
1830	1.8199e+02	-7.1196	-41.719761	0.000568	5.677567	1.923612	0.000227
1831	1.8209e+02	-7.0843	-41.598647	0.000304	3.041554	1.030506	0.000122
1832	1.8218e+02	-7.0458	-41.461384	0.000345	3.447094	1.167907	0.000138
1833	1.8228e+02	-7.0121	-41.291824	0.000426	4.258175	1.442709	0.000170
1834	1.8238e+02	-6.9672	-41.154562	0.000345	3.447094	1.167907	0.000138
1835	1.8248e+02	-6.9239	-41.009225	0.000365	3.649864	1.236607	0.000146
1836	1.8258e+02	-6.8854	-40.904259	0.000264	2.636013	0.893105	0.000105
1837	1.8268e+02	-6.8421	-40.706440	0.000497	4.967871	1.683160	0.000199
1838	1.8278e+02	-6.8019	-40.577251	0.000324	3.244324	1.099207	0.000130
1839	1.8288e+02	-6.7602	-40.435952	0.000355	3.548479	1.202257	0.000142
1840	1.8298e+02	-6.7330	-40.258318	0.000446	4.460945	1.511409	0.000179
1841	1.8308e+02	-6.6832	-40.149315	0.000274	2.737398	0.927456	0.000110
1842	1.8318e+02	-6.6544	-40.012052	0.000345	3.447094	1.167907	0.000138
1843	1.8328e+02	-6.6014	-39.862678	0.000375	3.751249	1.270958	0.000150
1844	1.8338e+02	-6.5645	-39.693119	0.000426	4.258175	1.442709	0.000170
1845	1.8348e+02	-6.5212	-39.600264	0.000233	2.331858	0.790055	0.000093
1846	1.8358e+02	-6.4795	-39.422630	0.000446	4.460945	1.511409	0.000179
1847	1.8368e+02	-6.4490	-39.228848	0.000487	4.866486	1.648810	0.000195
1848	1.8378e+02	-6.4153	-39.087548	0.000355	3.548479	1.202257	0.000142
1849	1.8388e+02	-6.3672	-38.950286	0.000345	3.447094	1.167907	0.000138
1850	1.8398e+02	-6.3287	-38.800912	0.000375	3.751249	1.270958	0.000150
1851	1.8407e+02	-6.2966	-38.667686	0.000335	3.345709	1.133557	0.000134
1852	1.8417e+02	-6.2533	-38.522349	0.000365	3.649864	1.236607	0.000146
1853	1.8427e+02	-6.2100	-38.393161	0.000324	3.244324	1.099207	0.000130
1854	1.8437e+02	-6.1731	-38.227638	0.000416	4.156790	1.408359	0.000166
1855	1.8447e+02	-6.1218	-38.070190	0.000395	3.954020	1.339658	0.000158
1856	1.8457e+02	-6.1025	-37.949076	0.000304	3.041554	1.030506	0.000122
1857	1.8467e+02	-6.0592	-37.795665	0.000385	3.852634	1.305308	0.000154
1858	1.8477e+02	-6.0143	-37.662439	0.000335	3.345709	1.133557	0.000134
1859	1.8487e+02	-5.9677	-37.504991	0.000395	3.954020	1.339658	0.000158
1860	1.8497e+02	-5.9292	-37.371766	0.000335	3.345709	1.133557	0.000134
1861	1.8507e+02	-5.8891	-37.206243	0.000416	4.156790	1.408359	0.000166
1862	1.8517e+02	-5.8506	-37.089166	0.000294	2.940168	0.996156	0.000118
1863	1.8527e+02	-5.8105	-36.972089	0.000294	2.940168	0.996156	0.000118
1864	1.8537e+02	-5.7720	-36.818678	0.000385	3.852634	1.305308	0.000154
1865	1.8547e+02	-5.7271	-36.645081	0.000436	4.359560	1.477059	0.000174
1866	1.8557e+02	-5.6870	-36.479559	0.000416	4.156790	1.408359	0.000166
1867	1.8567e+02	-5.6613	-36.318073	0.000406	4.055405	1.374008	0.000162
1868	1.8577e+02	-5.6052	-36.176773	0.000355	3.548479	1.202257	0.000142
1869	1.8587e+02	-5.5667	-36.035474	0.000355	3.548479	1.202257	0.000142
1870	1.8597e+02	-5.5298	-35.878025	0.000395	3.954020	1.339658	0.000158
1871	1.8606e+02	-5.4977	-35.740763	0.000345	3.447094	1.167907	0.000138
1872	1.8616e+02	-5.4560	-35.563129	0.000446	4.460945	1.511409	0.000179
1873	1.8626e+02	-5.4159	-35.454126	0.000274	2.737398	0.927456	0.000110
1874	1.8636e+02	-5.3710	-35.304752	0.000375	3.751249	1.270958	0.000150
1875	1.8646e+02	-5.3325	-35.127118	0.000446	4.460945	1.511409	0.000179
1876	1.8656e+02	-5.2988	-34.969670	0.000395	3.954020	1.339658	0.000158
1877	1.8666e+02	-5.2587	-34.836444	0.000335	3.345709	1.133557	0.000134
1878	1.8676e+02	-5.2089	-34.699182	0.000345	3.447094	1.167907	0.000138
1879	1.8686e+02	-5.1753	-34.586142	0.000284	2.838783	0.961806	0.000114
1880	1.8696e+02	-5.1351	-34.384285	0.000507	5.069256	1.717510	0.000203
1881	1.8706e+02	-5.1015	-34.247022	0.000345	3.447094	1.167907	0.000138
1882	1.8716e+02	-5.0533	-34.065351	0.000456	4.562330	1.545759	0.000183
1883	1.8726e+02	-5.0148	-33.932126	0.000335	3.345709	1.133557	0.000134
1884	1.8736e+02	-4.9779	-33.778715	0.000385	3.852634	1.305308	0.000154
1885	1.8746e+02	-4.9442	-33.568784	0.000527	5.272026	1.786211	0.000211
1886	1.8756e+02	-4.9041	-33.455744	0.000284	2.838783	0.961806	0.000114
1887	1.8766e+02	-4.8480	-33.302333	0.000385	3.852634	1.305308	0.000154
1888	1.8776e+02	-4.8207	-33.148922	0.000385	3.852634	1.305308	0.000154
1889	1.8786e+02	-4.7726	-33.015696	0.000335	3.345709	1.133557	0.000134
1890	1.8796e+02	-4.7357	-32.813839	0.000507	5.069256	1.717510	0.000203
1891	1.8806e+02	-4.6972	-32.680614	0.000335	3.345709	1.133557	0.000134
1892	1.8815e+02	-4.6571	-32.535277	0.000365	3.649864	1.236607	0.000146
1893	1.8825e+02	-4.6106	-32.353606	0.000456	4.562330	1.545759	0.000183
1894	1.8835e+02	-4.5817	-32.188083	0.000416	4.156790	1.408359	0.000166
1895	1.8845e+02	-4.5400	-32.071006	0.000294	2.940168	0.996156	0.000118
1896	1.8855e+02	-4.4967	-31.957967	0.000284	2.838783	0.961806	0.000114
1897	1.8865e+02	-4.4566	-31.844927	0.000284	2.838783	0.961806	0.000114
1898	1.8875e+02	-4.4229	-31.655181	0.000477	4.765101	1.614460	0.000191
1899	1.8885e+02	-4.3699	-31.534067	0.000304	3.041554	1.030506	0.000122
1900	1.8895e+02	-4.3378	-31.328173	0.000517	5.170641	1.751861	0.000207
1901	1.8905e+02	-4.3058	-31.146502	0.000456	4.562330	1.545759	0.000183
1902	1.8915e+02	-4.2544	-31.001165	0.000365	3.649864	1.236607	0.000146
1903	1.8925e+02	-4.2223	-30.835643	0.000416	4.156790	1.408359	0.000166
1904	1.8935e+02	-4.1742	-30.666083	0.000426	4.258175	1.442709	0.000170
1905	1.8945e+02	-4.1469	-30.488449	0.000446	4.460945	1.511409	0.000179
1906	1.8955e+02	-4.1052	-30.347149	0.000355	3.548479	1.202257	0.000142
1907	1.8965e+02	-4.0603	-30.181627	0.000416	4.156790	1.408359	0.000166
1908	1.8975e+02	-4.0266	-30.028216	0.000385	3.852634	1.305308	0.000154
1909	1.8985e+02	-3.9865	-29.850582	0.000446	4.460945	1.511409	0.000179
1910	1.8995e+02	-3.9384	-29.713319	0.000345	3.447094	1.167907	0.000138
1911	1.9004e+02	-3.8999	-29.527611	0.000466	4.663715	1.580110	0.000187
1912	1.9014e+02	-3.8502	-29.402460	0.000314	3.142939	1.064856	0.000126
1913	1.9024e+02	-3.8245	-29.265197	0.000345	3.447094	1.167907	0.000138
1914	1.9034e+02	-3.7780	-29.087563	0.000446	4.460945	1.511409	0.000179
1915	1.9044e+02	-3.7427	-28.962412	0.000314	3.142939	1.064856	0.000126
1916	1.9054e+02	-3.6913	-28.800926	0.000406	4.055405	1.374008	0.000162
1917	1.9064e+02	-3.6560	-28.611181	0.000477	4.765101	1.614460	0.000191
1918	1.9074e+02	-3.6159	-28.494104	0.000294	2.940168	0.996156	0.000118
1919	1.9084e+02	-3.5839	-28.312433	0.000456	4.562330	1.545759	0.000183
1920	1.9094e+02	-3.5438	-28.138836	0.000436	4.359560	1.477059	0.000174
1921	1.9104e+02	-3.4924	-27.965239	0.000436	4.359560	1.477059	0.000174
1922	1.9114e+02	-3.4651	-27.819902	0.000365	3.649864	1.236607	0.000146
1923	1.9124e+02	-3.4170	-27.650343	0.000426	4.258175	1.442709	0.000170
1924	1.9134e+02	-3.3769	-27.440412	0.000527	5.272026	1.786211	0.000211
1925	1.9144e+02	-3.3336	-27.327372	0.000284	2.838783	0.961806	0.000114
1926	1.9154e+02	-3.3063	-27.145701	0.000456	4.562330	1.545759	0.000183
1927	1.9164e+02	-3.2630	-27.016512	0.000324	3.244324	1.099207	0.000130
1928	1.9174e+02	-3.2229	-26.863101	0.000385	3.852634	1.305308	0.000154
1929	1.9184e+02	-3.1908	-26.725839	0.000345	3.447094	1.167907	0.000138
1930	1.9194e+02	-3.1443	-26.540130	0.000466	4.663715	1.580110	0.000187
1931	1.9203e+02	-3.1074	-26.423053	0.000294	2.940168	0.996156	0.000118
1932	1.9213e+02	-3.0529	-26.265605	0.000395	3.954020	1.339658	0.000158
1933	1.9223e+02	-3.0224	-26.128342	0.000345	3.447094	1.167907	0.000138
1934	1.9233e+02	-2.9791	-25.954746	0.000436	4.359560	1.477059	0.000174
1935	1.9243e+02	-2.9470	-25.781149	0.000436	4.359560	1.477059	0.000174
1936	1.9253e+02	-2.9037	-25.623701	0.000395	3.954020	1.339658	0.000158
1937	1.9263e+02	-2.8636	-25.433955	0.000477	4.765101	1.614460	0.000191
1938	1.9273e+02	-2.8218	-25.256321	0.000446	4.460945	1.511409	0.000179
1939	1.9283e+02	-2.7882	-25.058502	0.000497	4.967871	1.683160	0.000199
1940	1.9293e+02	-2.7432	-24.868756	0.000477	4.765101	1.614460	0.000191
1941	1.9303e+02	-2.7063	-24.711308	0.000395	3.954020	1.339658	0.000158
1942	1.9313e+02	-2.6727	-24.565971	0.000365	3.649864	1.236607	0.000146
1943	1.9323e+02	-2.6229	-24.408523	0.000395	3.954020	1.339658	0.000158
1944	1.9333e+02	-2.5812	-24.214740	0.000487	4.866486	1.648810	0.000195
1945	1.9343e+02	-2.5459	-24.081515	0.000335	3.345709	1.133557	0.000134
1946	1.9353e+02	-2.5026	-23.871584	0.000527	5.272026	1.786211	0.000211
1947	1.9363e+02	-2.4753	-23.693950	0.000446	4.460945	1.511409	0.000179
1948	1.9373e+02	-2.4288	-23.564761	0.000324	3.244324	1.099207	0.000130
1949	1.9383e+02	-2.3903	-23.419424	0.000365	3.649864	1.236607	0.000146
1950	1.9393e+02	-2.3518	-23.257939	0.000406	4.055405	1.374008	0.000162
1951	1.9403e+02	-2.3037	-23.112602	0.000365	3.649864	1.236607	0.000146
1952	1.9412e+02	-2.2716	-22.943042	0.000426	4.258175	1.442709	0.000170
1953	1.9422e+02	-2.2235	-22.777520	0.000416	4.156790	1.408359	0.000166
1954	1.9432e+02	-2.1882	-22.559515	0.000547	5.474796	1.854911	0.000219
1955	1.9442e+02	-2.1465	-22.426289	0.000335	3.345709	1.133557	0.000134
1956	1.9452e+02	-2.1096	-22.228469	0.000497	4.967871	1.683160	0.000199
1957	1.9462e+02	-2.0679	-22.006427	0.000558	5.576181	1.889261	0.000223
1958	1.9472e+02	-2.0326	-21.909536	0.000243	2.433243	0.824405	0.000097
1959	1.9482e+02	-1.9876	-21.683456	0.000568	5.677567	1.923612	0.000227
1960	1.9492e+02	-1.9443	-21.526008	0.000395	3.954020	1.339658	0.000158
1961	1.9502e+02	-1.9058	-21.360485	0.000416	4.156790	1.408359	0.000166
1962	1.9512e+02	-1.8705	-21.178814	0.000456	4.562330	1.545759	0.000183
1963	1.9522e+02	-1.8368	-21.045589	0.000335	3.345709	1.133557	0.000134
1964	1.9532e+02	-1.7887	-20.835658	0.000527	5.272026	1.786211	0.000211
1965	1.9542e+02	-1.7566	-20.698395	0.000345	3.447094	1.167907	0.000138
1966	1.9552e+02	-1.7165	-20.553058	0.000365	3.649864	1.236607	0.000146
1967	1.9562e+02	-1.6700	-20.403684	0.000375	3.751249	1.270958	0.000150
1968	1.9572e+02	-1.6315	-20.238161	0.000416	4.156790	1.408359	0.000166
1969	1.9582e+02	-1.5834	-20.076676	0.000406	4.055405	1.374008	0.000162
1970	1.9592e+02	-1.5481	-19.870782	0.000517	5.170641	1.751861	0.000207
1971	1.9601e+02	-1.5080	-19.725445	0.000365	3.649864	1.236607	0.000146
1972	1.9611e+02	-1.4711	-19.555886	0.000426	4.258175	1.442709	0.000170
1973	1.9621e+02	-1.4294	-19.382289	0.000436	4.359560	1.477059	0.000174
1974	1.9631e+02	-1.3812	-19.180432	0.000507	5.069256	1.717510	0.000203
1975	1.9641e+02	-1.3508	-19.014909	0.000416	4.156790	1.408359	0.000166
1976	1.9651e+02	-1.3155	-18.800941	0.000537	5.373411	1.820561	0.000215
1977	1.9661e+02	-1.2786	-18.635419	0.000416	4.156790	1.408359	0.000166
1978	1.9671e+02	-1.2304	-18.461822	0.000436	4.359560	1.477059	0.000174
1979	1.9681e+02	-1.1935	-18.300336	0.000406	4.055405	1.374008	0.000162
1980	1.9691e+02	-1.1534	-18.126739	0.000436	4.359560	1.477059	0.000174
1981	1.9701e+02	-1.1149	-17.953143	0.000436	4.359560	1.477059	0.000174
1982	1.9711e+02	-1.0700	-17.771472	0.000456	4.562330	1.545759	0.000183
1983	1.9721e+02	-1.0299	-17.589800	0.000456	4.562330	1.545759	0.000183
1984	1.9731e+02	-0.9914	-17.456575	0.000335	3.345709	1.133557	0.000134
1985	1.9741e+02	-0.9529	-17.291052	0.000416	4.156790	1.408359	0.000166
1986	1.9751e+02	-0.9080	-17.157827	0.000335	3.345709	1.133557	0.000134
1987	1.9761e+02	-0.8679	-16.955970	0.000507	5.069256	1.717510	0.000203
1988	1.9771e+02	-0.8294	-16.802559	0.000385	3.852634	1.305308	0.000154
1989	1.9781e+02	-0.7941	-16.657222	0.000365	3.649864	1.236607	0.000146
1990	1.9791e+02	-0.7460	-16.503811	0.000385	3.852634	1.305308	0.000154
1991	1.9800e+02	-0.7139	-16.285806	0.000547	5.474796	1.854911	0.000219
1992	1.9810e+02	-0.6754	-16.144506	0.000355	3.548479	1.202257	0.000142
1993	1.9820e+02	-0.6385	-15.970909	0.000436	4.359560	1.477059	0.000174
1994	1.9830e+02	-0.5855	-15.724644	0.000618	6.184492	2.095363	0.000248
1995	1.9840e+02	-0.5615	-15.551047	0.000436	4.359560	1.477059	0.000174
1996	1.9850e+02	-0.5118	-15.377450	0.000436	4.359560	1.477059	0.000174
1997	1.9860e+02	-0.4765	-15.183668	0.000487	4.866486	1.648810	0.000195
1998	1.9870e+02	-0.4380	-15.062553	0.000304	3.041554	1.030506	0.000122
1999	1.9880e+02	-0.4011	-14.832437	0.000578	5.778952	1.957962	0.000231
2000	1.9890e+02	-0.3545	-14.666914	0.000416	4.156790	1.408359	0.000166
2001	1.9900e+02	-0.3208	-14.485243	0.000456	4.562330	1.545759	0.000183
2002	1.9910e+02	-0.2695	-14.327795	0.000395	3.954020	1.339658	0.000158
2003	1.9920e+02	-0.2326	-14.150161	0.000446	4.460945	1.511409	0.000179
2004	1.9930e+02	-0.1925	-13.996750	0.000385	3.852634	1.305308	0.000154
2005	1.9940e+02	-0.1540	-13.835264	0.000406	4.055405	1.374008	0.000162
2006	1.9950e+02	-0.1155	-13.673779	0.000406	4.055405	1.374008	0.000162
2007	1.9960e+02	-0.0706	-13.504219	0.000426	4.258175	1.442709	0.000170
2008	1.9970e+02	-0.0401	-13.314474	0.000477	4.765101	1.614460	0.000191
2009	1.9980e+02	0.0064	-13.124728	0.000477	4.765101	1.614460	0.000191

PMax (uC/cm2):	8.40e+01
Pr (uC/cm2):	7.61e+00
-Pr (uC/cm2):	-6.20e+00
PLoss (uC/cm2):	-6.24e+00
-Vc:	-1.73e+00
C (Max-Eff) (nF):	4.20e-01
K (Eff):	1.42e+03
Vert. (+/-Pr) Shift (uC/cm2):	7.06e-01
Offset (uC/cm2):	6.93e+00

A (Loop Area - uC/cm2·Volts):	8.33e-02



Hysteresis Version: 5.48.1 - Radiant Technologies, Inc., 1999 - 9/12/24

