»»»»»»»»»»»»»»»»»»»»»»»»»»»»»»»»»»»» Hysteresis ««««««««««««««««««««««««««««««««««««
»»»  Executed Version:	5.48.1
»»»  Vision Version:	5.48.4 (R)
»»»  Vision Compiled:	9/18/24
»»»  Driver Version:	5.47.0
»»»  Windows Version:	Windows 8 or 8.1
»»»  Processor Information:	x86 (AMD or Intel) - 32 Processors
»»»  Tester Name:	PMF21124-494 (100V)
»»»  Tester S/N:	PMF21124-494
»»»  Internal Amp Type:	100V RevK 270k
»»»  Internal Amp S/N:	iAB2-596/K     
»»»  Execution Count:	1
»»»»»»»»»»»»»»»»»»»»»»»»»»»»»»»»»»»»»»»»»»««««««««««««««««««««««««««««««««««««««««««

Stored:	6/19/2025 - 21:2:47
Configured:	06/19/25 10:04:32 AM
Executed:	06/19/25 09:02:10 PM

»»»»»»»»»»»»»»»»»»»»»»»»»»»»»»»»»»» Sample Info ««««««««««««««««««««««««««««««««««««
Sample Name:	
Lot Name:	
Wafer Name:	
Die Row/Column:	0/0
Capacitor Number:	0
Sample Area (cm2):	1.00e-04
Sample Thickness (microns):	3.00e-01

Amplifier:	Internal

»»»»»»»»»»»»»»»»»»»»»»»»»»»»»»»»»»» Tester Info «««««««««««««««««««««««««««««««««««
Tester Name:	PMF21124-494 (100V)
Tester Serial Number:	PMF21124-494
Return Signal Amp. Level:	0.19 [Index: 3]

»»»»»»»»»»»»»»»»»»»»»»»»»»»»»»»» Hysteresis Info ««««««««««««««««««««««««««««««««««
Task Name:	Hyst-1168
Volts:	20.00
Field:	666.67 (kV/cm)
DCBias:	0.00
DCField:	0.00 (kV/cm)
Hysteresis Period (ms):	2.00e+02
Preset:	Enabled
Preset Delay (ms):	1.00e+03
Profile:	Standard Bipolar

»»»»»»»»»»»»»»»»»»»»»»»»»»»»»»»»»»»»»» Data «««««««««««««««««««««««««««««««««««««««
Points:	2009

Valid Data

Point	Time (ms)	Drive Voltage	Measured Polarization (uC/cm2)	Capacitance (uF)	Normalized Capacitance (uF/cm2)	Dielectric Constant	Instantaneous Current (mA)
   1	0.0000e+00	0.0000	-7.486868	0.000253	2.533916	0.858514	0.000101
   2	9.9500e-02	0.0401	-7.385940	0.000253	2.533916	0.858514	0.000101
   3	1.9900e-01	0.0786	-7.180046	0.000517	5.169189	1.751369	0.000207
   4	2.9850e-01	0.1203	-7.026635	0.000385	3.851553	1.304941	0.000154
   5	3.9800e-01	0.1524	-6.832852	0.000487	4.865119	1.648347	0.000195
   6	4.9750e-01	0.1925	-6.683478	0.000375	3.750196	1.270601	0.000150
   7	5.9700e-01	0.2358	-6.538141	0.000365	3.648839	1.236260	0.000146
   8	6.9650e-01	0.2743	-6.364544	0.000436	4.358336	1.476644	0.000174
   9	7.9600e-01	0.3192	-6.211133	0.000385	3.851553	1.304941	0.000154
  10	8.9550e-01	0.3481	-6.061759	0.000375	3.750196	1.270601	0.000150
  11	9.9500e-01	0.3978	-5.892200	0.000426	4.256979	1.442304	0.000170
  12	1.0945e+00	0.4444	-5.698417	0.000487	4.865119	1.648347	0.000195
  13	1.1940e+00	0.4765	-5.585377	0.000284	2.837986	0.961536	0.000114
  14	1.2935e+00	0.5198	-5.387558	0.000497	4.966476	1.682688	0.000199
  15	1.3930e+00	0.5503	-5.238184	0.000375	3.750196	1.270601	0.000150
  16	1.4925e+00	0.5920	-5.072661	0.000416	4.155623	1.407963	0.000166
  17	1.5920e+00	0.6321	-4.882916	0.000476	4.763762	1.614006	0.000191
  18	1.6915e+00	0.6786	-4.668947	0.000537	5.371902	1.820050	0.000215
  19	1.7910e+00	0.7043	-4.507462	0.000405	4.054266	1.373622	0.000162
  20	1.8905e+00	0.7492	-4.358088	0.000375	3.750196	1.270601	0.000150
  21	1.9900e+00	0.8005	-4.188528	0.000426	4.256979	1.442304	0.000170
  22	2.0895e+00	0.8326	-4.018969	0.000426	4.256979	1.442304	0.000170
  23	2.1890e+00	0.8759	-3.853446	0.000416	4.155623	1.407963	0.000166
  24	2.2885e+00	0.9064	-3.635441	0.000547	5.473259	1.854390	0.000219
  25	2.3880e+00	0.9561	-3.486067	0.000375	3.750196	1.270601	0.000150
  26	2.4875e+00	0.9834	-3.300358	0.000466	4.662406	1.579666	0.000187
  27	2.5870e+00	1.0347	-3.155022	0.000365	3.648839	1.236260	0.000146
  28	2.6865e+00	1.0684	-2.937016	0.000547	5.473259	1.854390	0.000219
  29	2.7860e+00	1.1165	-2.803791	0.000334	3.344769	1.133239	0.000134
  30	2.8855e+00	1.1534	-2.674602	0.000324	3.243413	1.098898	0.000130
  31	2.9850e+00	1.1935	-2.525228	0.000375	3.750196	1.270601	0.000150
  32	3.0845e+00	1.2321	-2.295112	0.000578	5.777329	1.957412	0.000231
  33	3.1840e+00	1.2866	-2.149775	0.000365	3.648839	1.236260	0.000146
  34	3.2835e+00	1.3155	-1.923695	0.000568	5.675972	1.923071	0.000227
  35	3.3830e+00	1.3492	-1.721838	0.000507	5.067832	1.717028	0.000203
  36	3.4825e+00	1.3893	-1.544204	0.000446	4.459693	1.510985	0.000179
  37	3.5820e+00	1.4358	-1.346385	0.000497	4.966476	1.682688	0.000199
  38	3.6815e+00	1.4711	-1.213159	0.000334	3.344769	1.133239	0.000134
  39	3.7810e+00	1.5128	-1.059748	0.000385	3.851553	1.304941	0.000154
  40	3.8805e+00	1.5449	-0.857891	0.000507	5.067832	1.717028	0.000203
  41	3.9800e+00	1.5914	-0.651997	0.000517	5.169189	1.751369	0.000207
  42	4.0795e+00	1.6283	-0.502623	0.000375	3.750196	1.270601	0.000150
  43	4.1790e+00	1.6700	-0.353249	0.000375	3.750196	1.270601	0.000150
  44	4.2785e+00	1.7117	-0.179653	0.000436	4.358336	1.476644	0.000174
  45	4.3780e+00	1.7566	0.026241	0.000517	5.169189	1.751369	0.000207
  46	4.4775e+00	1.7855	0.203875	0.000446	4.459693	1.510985	0.000179
  47	4.5770e+00	1.8352	0.409769	0.000517	5.169189	1.751369	0.000207
  48	4.6765e+00	1.8721	0.555106	0.000365	3.648839	1.236260	0.000146
  49	4.7760e+00	1.9187	0.720629	0.000416	4.155623	1.407963	0.000166
  50	4.8755e+00	1.9652	0.870003	0.000375	3.750196	1.270601	0.000150
  51	4.9750e+00	1.9925	1.043600	0.000436	4.358336	1.476644	0.000174
  52	5.0745e+00	2.0358	1.233345	0.000476	4.763762	1.614006	0.000191
  53	5.1740e+00	2.0807	1.435202	0.000507	5.067832	1.717028	0.000203
  54	5.2735e+00	2.1096	1.608799	0.000436	4.358336	1.476644	0.000174
  55	5.3730e+00	2.1449	1.794507	0.000466	4.662406	1.579666	0.000187
  56	5.4725e+00	2.1946	1.980215	0.000466	4.662406	1.579666	0.000187
  57	5.5720e+00	2.2331	2.153812	0.000436	4.358336	1.476644	0.000174
  58	5.6715e+00	2.2652	2.339520	0.000466	4.662406	1.579666	0.000187
  59	5.7710e+00	2.3117	2.488894	0.000375	3.750196	1.270601	0.000150
  60	5.8705e+00	2.3566	2.702862	0.000537	5.371902	1.820050	0.000215
  61	5.9700e+00	2.3887	2.900682	0.000497	4.966476	1.682688	0.000199
  62	6.0695e+00	2.4304	3.094465	0.000487	4.865119	1.648347	0.000195
  63	6.1690e+00	2.4561	3.199430	0.000264	2.635273	0.892855	0.000105
  64	6.2685e+00	2.5042	3.381101	0.000456	4.561049	1.545325	0.000183
  65	6.3680e+00	2.5443	3.558735	0.000446	4.459693	1.510985	0.000179
  66	6.4675e+00	2.5973	3.732332	0.000436	4.358336	1.476644	0.000174
  67	6.5670e+00	2.6309	3.881706	0.000375	3.750196	1.270601	0.000150
  68	6.6665e+00	2.6678	4.055303	0.000436	4.358336	1.476644	0.000174
  69	6.7660e+00	2.7112	4.204677	0.000375	3.750196	1.270601	0.000150
  70	6.8655e+00	2.7513	4.414608	0.000527	5.270546	1.785709	0.000211
  71	6.9650e+00	2.7866	4.584168	0.000426	4.256979	1.442304	0.000170
  72	7.0645e+00	2.8170	4.810247	0.000568	5.675972	1.923071	0.000227
  73	7.1640e+00	2.8700	4.995955	0.000466	4.662406	1.579666	0.000187
  74	7.2635e+00	2.9053	5.145329	0.000375	3.750196	1.270601	0.000150
  75	7.3630e+00	2.9406	5.347186	0.000507	5.067832	1.717028	0.000203
  76	7.4625e+00	2.9935	5.516746	0.000426	4.256979	1.442304	0.000170
  77	7.5620e+00	3.0224	5.702454	0.000466	4.662406	1.579666	0.000187
  78	7.6615e+00	3.0657	5.884125	0.000456	4.561049	1.545325	0.000183
  79	7.7610e+00	3.1074	6.049648	0.000416	4.155623	1.407963	0.000166
  80	7.8605e+00	3.1459	6.239393	0.000476	4.763762	1.614006	0.000191
  81	7.9600e+00	3.1892	6.392804	0.000385	3.851553	1.304941	0.000154
  82	8.0595e+00	3.2197	6.566401	0.000436	4.358336	1.476644	0.000174
  83	8.1590e+00	3.2598	6.772295	0.000517	5.169189	1.751369	0.000207
  84	8.2585e+00	3.2951	6.925706	0.000385	3.851553	1.304941	0.000154
  85	8.3580e+00	3.3416	7.119489	0.000487	4.865119	1.648347	0.000195
  86	8.4575e+00	3.3930	7.248677	0.000324	3.243413	1.098898	0.000130
  87	8.5570e+00	3.4202	7.406126	0.000395	3.952909	1.339282	0.000158
  88	8.6565e+00	3.4635	7.603945	0.000497	4.966476	1.682688	0.000199
  89	8.7560e+00	3.5117	7.773505	0.000426	4.256979	1.442304	0.000170
  90	8.8555e+00	3.5550	7.967287	0.000487	4.865119	1.648347	0.000195
  91	8.9550e+00	3.5806	8.157033	0.000476	4.763762	1.614006	0.000191
  92	9.0545e+00	3.6208	8.358890	0.000507	5.067832	1.717028	0.000203
  93	9.1540e+00	3.6641	8.524412	0.000416	4.155623	1.407963	0.000166
  94	9.2535e+00	3.7042	8.710120	0.000466	4.662406	1.579666	0.000187
  95	9.3530e+00	3.7459	8.903903	0.000487	4.865119	1.648347	0.000195
  96	9.4525e+00	3.7812	9.109797	0.000517	5.169189	1.751369	0.000207
  97	9.5520e+00	3.8213	9.279356	0.000426	4.256979	1.442304	0.000170
  98	9.6515e+00	3.8582	9.444879	0.000416	4.155623	1.407963	0.000166
  99	9.7510e+00	3.9015	9.642699	0.000497	4.966476	1.682688	0.000199
 100	9.8505e+00	3.9416	9.812258	0.000426	4.256979	1.442304	0.000170
 101	9.9500e+00	3.9817	9.981818	0.000426	4.256979	1.442304	0.000170
 102	1.0050e+01	4.0186	10.139266	0.000395	3.952909	1.339282	0.000158
 103	1.0149e+01	4.0619	10.337086	0.000497	4.966476	1.682688	0.000199
 104	1.0248e+01	4.1133	10.462237	0.000314	3.142056	1.064557	0.000126
 105	1.0348e+01	4.1469	10.660057	0.000497	4.966476	1.682688	0.000199
 106	1.0447e+01	4.1903	10.789245	0.000324	3.243413	1.098898	0.000130
 107	1.0547e+01	4.2127	10.999176	0.000527	5.270546	1.785709	0.000211
 108	1.0646e+01	4.2657	11.184885	0.000466	4.662406	1.579666	0.000187
 109	1.0746e+01	4.3058	11.358481	0.000436	4.358336	1.476644	0.000174
 110	1.0845e+01	4.3411	11.560338	0.000507	5.067832	1.717028	0.000203
 111	1.0945e+01	4.3860	11.762195	0.000507	5.067832	1.717028	0.000203
 112	1.1044e+01	4.4261	11.943866	0.000456	4.561049	1.545325	0.000183
 113	1.1144e+01	4.4662	12.113426	0.000426	4.256979	1.442304	0.000170
 114	1.1243e+01	4.5127	12.291060	0.000446	4.459693	1.510985	0.000179
 115	1.1343e+01	4.5480	12.484842	0.000487	4.865119	1.648347	0.000195
 116	1.1443e+01	4.5881	12.654402	0.000426	4.256979	1.442304	0.000170
 117	1.1542e+01	4.6218	12.832036	0.000446	4.459693	1.510985	0.000179
 118	1.1642e+01	4.6555	12.997559	0.000416	4.155623	1.407963	0.000166
 119	1.1741e+01	4.7004	13.159044	0.000405	4.054266	1.373622	0.000162
 120	1.1841e+01	4.7437	13.344752	0.000466	4.662406	1.579666	0.000187
 121	1.1940e+01	4.7758	13.538535	0.000487	4.865119	1.648347	0.000195
 122	1.2040e+01	4.8207	13.647537	0.000274	2.736630	0.927195	0.000110
 123	1.2139e+01	4.8592	13.833246	0.000466	4.662406	1.579666	0.000187
 124	1.2239e+01	4.9025	14.010880	0.000446	4.459693	1.510985	0.000179
 125	1.2338e+01	4.9394	14.164291	0.000385	3.851553	1.304941	0.000154
 126	1.2438e+01	4.9827	14.329813	0.000416	4.155623	1.407963	0.000166
 127	1.2537e+01	5.0245	14.519559	0.000476	4.763762	1.614006	0.000191
 128	1.2636e+01	5.0549	14.777935	0.000649	6.486825	2.197796	0.000260
 129	1.2736e+01	5.0983	14.899049	0.000304	3.040699	1.030217	0.000122
 130	1.2835e+01	5.1303	15.157426	0.000649	6.486825	2.197796	0.000260
 131	1.2935e+01	5.1865	15.310837	0.000385	3.851553	1.304941	0.000154
 132	1.3034e+01	5.2234	15.452137	0.000355	3.547483	1.201920	0.000142
 133	1.3134e+01	5.2426	15.678217	0.000568	5.675972	1.923071	0.000227
 134	1.3233e+01	5.2908	15.851813	0.000436	4.358336	1.476644	0.000174
 135	1.3333e+01	5.3341	16.017336	0.000416	4.155623	1.407963	0.000166
 136	1.3432e+01	5.3774	16.207081	0.000476	4.763762	1.614006	0.000191
 137	1.3532e+01	5.4079	16.380678	0.000436	4.358336	1.476644	0.000174
 138	1.3632e+01	5.4560	16.554275	0.000436	4.358336	1.476644	0.000174
 139	1.3731e+01	5.5025	16.699612	0.000365	3.648839	1.236260	0.000146
 140	1.3831e+01	5.5474	16.861097	0.000405	4.054266	1.373622	0.000162
 141	1.3930e+01	5.5795	17.046806	0.000466	4.662406	1.579666	0.000187
 142	1.4030e+01	5.6196	17.228477	0.000456	4.561049	1.545325	0.000183
 143	1.4129e+01	5.6662	17.393999	0.000416	4.155623	1.407963	0.000166
 144	1.4229e+01	5.7047	17.583745	0.000476	4.763762	1.614006	0.000191
 145	1.4328e+01	5.7432	17.785601	0.000507	5.067832	1.717028	0.000203
 146	1.4428e+01	5.7672	17.991495	0.000517	5.169189	1.751369	0.000207
 147	1.4527e+01	5.8218	18.185278	0.000487	4.865119	1.648347	0.000195
 148	1.4627e+01	5.8667	18.379060	0.000487	4.865119	1.648347	0.000195
 149	1.4726e+01	5.9020	18.544583	0.000416	4.155623	1.407963	0.000166
 150	1.4825e+01	5.9421	18.738366	0.000487	4.865119	1.648347	0.000195
 151	1.4925e+01	5.9774	18.924074	0.000466	4.662406	1.579666	0.000187
 152	1.5024e+01	6.0175	19.093633	0.000426	4.256979	1.442304	0.000170
 153	1.5124e+01	6.0496	19.303565	0.000527	5.270546	1.785709	0.000211
 154	1.5223e+01	6.0945	19.456976	0.000385	3.851553	1.304941	0.000154
 155	1.5323e+01	6.1426	19.642684	0.000466	4.662406	1.579666	0.000187
 156	1.5422e+01	6.1763	19.783984	0.000355	3.547483	1.201920	0.000142
 157	1.5522e+01	6.2148	19.961618	0.000446	4.459693	1.510985	0.000179
 158	1.5621e+01	6.2565	20.147326	0.000466	4.662406	1.579666	0.000187
 159	1.5721e+01	6.3078	20.328997	0.000456	4.561049	1.545325	0.000183
 160	1.5820e+01	6.3335	20.502594	0.000436	4.358336	1.476644	0.000174
 161	1.5920e+01	6.3720	20.684265	0.000456	4.561049	1.545325	0.000183
 162	1.6020e+01	6.4137	20.878047	0.000487	4.865119	1.648347	0.000195
 163	1.6119e+01	6.4522	21.031459	0.000385	3.851553	1.304941	0.000154
 164	1.6218e+01	6.4891	21.261575	0.000578	5.777329	1.957412	0.000231
 165	1.6318e+01	6.5372	21.499766	0.000598	5.980042	2.026093	0.000239
 166	1.6418e+01	6.5693	21.657215	0.000395	3.952909	1.339282	0.000158
 167	1.6517e+01	6.6030	21.830812	0.000436	4.358336	1.476644	0.000174
 168	1.6616e+01	6.6495	21.980186	0.000375	3.750196	1.270601	0.000150
 169	1.6716e+01	6.7009	22.202228	0.000557	5.574616	1.888731	0.000223
 170	1.6816e+01	6.7265	22.383899	0.000456	4.561049	1.545325	0.000183
 171	1.6915e+01	6.7683	22.545385	0.000405	4.054266	1.373622	0.000162
 172	1.7015e+01	6.8180	22.751278	0.000517	5.169189	1.751369	0.000207
 173	1.7114e+01	6.8388	22.868355	0.000294	2.939343	0.995876	0.000118
 174	1.7213e+01	6.8886	23.078286	0.000527	5.270546	1.785709	0.000211
 175	1.7313e+01	6.9303	23.239772	0.000405	4.054266	1.373622	0.000162
 176	1.7413e+01	6.9704	23.389146	0.000375	3.750196	1.270601	0.000150
 177	1.7512e+01	7.0041	23.582928	0.000487	4.865119	1.648347	0.000195
 178	1.7611e+01	7.0522	23.780748	0.000497	4.966476	1.682688	0.000199
 179	1.7711e+01	7.0891	23.966456	0.000466	4.662406	1.579666	0.000187
 180	1.7811e+01	7.1292	24.152165	0.000466	4.662406	1.579666	0.000187
 181	1.7910e+01	7.1741	24.390356	0.000598	5.980042	2.026093	0.000239
 182	1.8009e+01	7.2110	24.535692	0.000365	3.648839	1.236260	0.000146
 183	1.8109e+01	7.2479	24.749661	0.000537	5.371902	1.820050	0.000215
 184	1.8209e+01	7.2768	24.882886	0.000334	3.344769	1.133239	0.000134
 185	1.8308e+01	7.3265	25.133189	0.000628	6.284112	2.129115	0.000252
 186	1.8407e+01	7.3747	25.298711	0.000416	4.155623	1.407963	0.000166
 187	1.8507e+01	7.4083	25.520754	0.000557	5.574616	1.888731	0.000223
 188	1.8607e+01	7.4436	25.666090	0.000365	3.648839	1.236260	0.000146
 189	1.8706e+01	7.4886	25.855836	0.000476	4.763762	1.614006	0.000191
 190	1.8805e+01	7.5287	26.013284	0.000395	3.952909	1.339282	0.000158
 191	1.8905e+01	7.5656	26.223215	0.000527	5.270546	1.785709	0.000211
 192	1.9005e+01	7.6073	26.368552	0.000365	3.648839	1.236260	0.000146
 193	1.9104e+01	7.6522	26.546186	0.000446	4.459693	1.510985	0.000179
 194	1.9203e+01	7.6955	26.727857	0.000456	4.561049	1.545325	0.000183
 195	1.9303e+01	7.7292	26.889343	0.000405	4.054266	1.373622	0.000162
 196	1.9402e+01	7.7645	27.034679	0.000365	3.648839	1.236260	0.000146
 197	1.9502e+01	7.8110	27.248648	0.000537	5.371902	1.820050	0.000215
 198	1.9602e+01	7.8543	27.438393	0.000476	4.763762	1.614006	0.000191
 199	1.9701e+01	7.8896	27.660436	0.000557	5.574616	1.888731	0.000223
 200	1.9800e+01	7.9345	27.838069	0.000446	4.459693	1.510985	0.000179
 201	1.9900e+01	7.9746	28.035889	0.000497	4.966476	1.682688	0.000199
 202	2.0000e+01	8.0003	28.177189	0.000355	3.547483	1.201920	0.000142
 203	2.0099e+01	8.0468	28.419417	0.000608	6.081399	2.060434	0.000243
 204	2.0198e+01	8.0837	28.597051	0.000446	4.459693	1.510985	0.000179
 205	2.0298e+01	8.1303	28.802945	0.000517	5.169189	1.751369	0.000207
 206	2.0398e+01	8.1639	28.976542	0.000436	4.358336	1.476644	0.000174
 207	2.0497e+01	8.1992	29.174361	0.000497	4.966476	1.682688	0.000199
 208	2.0596e+01	8.2442	29.291438	0.000294	2.939343	0.995876	0.000118
 209	2.0696e+01	8.2907	29.509444	0.000547	5.473259	1.854390	0.000219
 210	2.0796e+01	8.3324	29.699189	0.000476	4.763762	1.614006	0.000191
 211	2.0895e+01	8.3693	29.844526	0.000365	3.648839	1.236260	0.000146
 212	2.0994e+01	8.4078	30.001974	0.000395	3.952909	1.339282	0.000158
 213	2.1094e+01	8.4463	30.167497	0.000416	4.155623	1.407963	0.000166
 214	2.1194e+01	8.4880	30.353205	0.000466	4.662406	1.579666	0.000187
 215	2.1293e+01	8.5233	30.575248	0.000557	5.574616	1.888731	0.000223
 216	2.1392e+01	8.5570	30.764993	0.000476	4.763762	1.614006	0.000191
 217	2.1492e+01	8.5987	30.954738	0.000476	4.763762	1.614006	0.000191
 218	2.1591e+01	8.6436	31.136409	0.000456	4.561049	1.545325	0.000183
 219	2.1691e+01	8.6789	31.318080	0.000456	4.561049	1.545325	0.000183
 220	2.1791e+01	8.7190	31.507826	0.000476	4.763762	1.614006	0.000191
 221	2.1890e+01	8.7655	31.705646	0.000497	4.966476	1.682688	0.000199
 222	2.1989e+01	8.8088	31.842908	0.000345	3.446126	1.167579	0.000138
 223	2.2089e+01	8.8457	32.032654	0.000476	4.763762	1.614006	0.000191
 224	2.2189e+01	8.8907	32.198176	0.000416	4.155623	1.407963	0.000166
 225	2.2288e+01	8.9211	32.408107	0.000527	5.270546	1.785709	0.000211
 226	2.2387e+01	8.9677	32.549407	0.000355	3.547483	1.201920	0.000142
 227	2.2487e+01	9.0078	32.731078	0.000456	4.561049	1.545325	0.000183
 228	2.2587e+01	9.0479	32.892563	0.000405	4.054266	1.373622	0.000162
 229	2.2686e+01	9.0751	33.041937	0.000375	3.750196	1.270601	0.000150
 230	2.2785e+01	9.1233	33.203423	0.000405	4.054266	1.373622	0.000162
 231	2.2885e+01	9.1634	33.368945	0.000416	4.155623	1.407963	0.000166
 232	2.2985e+01	9.2051	33.550617	0.000456	4.561049	1.545325	0.000183
 233	2.3084e+01	9.2420	33.740362	0.000476	4.763762	1.614006	0.000191
 234	2.3183e+01	9.2789	33.930107	0.000476	4.763762	1.614006	0.000191
 235	2.3283e+01	9.3222	34.144076	0.000537	5.371902	1.820050	0.000215
 236	2.3383e+01	9.3671	34.325747	0.000456	4.561049	1.545325	0.000183
 237	2.3482e+01	9.3992	34.519529	0.000487	4.865119	1.648347	0.000195
 238	2.3581e+01	9.4361	34.705237	0.000466	4.662406	1.579666	0.000187
 239	2.3681e+01	9.4762	34.850574	0.000365	3.648839	1.236260	0.000146
 240	2.3780e+01	9.5179	35.056468	0.000517	5.169189	1.751369	0.000207
 241	2.3880e+01	9.5580	35.205842	0.000375	3.750196	1.270601	0.000150
 242	2.3980e+01	9.5949	35.347142	0.000355	3.547483	1.201920	0.000142
 243	2.4079e+01	9.6446	35.565147	0.000547	5.473259	1.854390	0.000219
 244	2.4178e+01	9.6703	35.702410	0.000345	3.446126	1.167579	0.000138
 245	2.4278e+01	9.7136	35.880044	0.000446	4.459693	1.510985	0.000179
 246	2.4378e+01	9.7618	36.045566	0.000416	4.155623	1.407963	0.000166
 247	2.4477e+01	9.8115	36.207052	0.000405	4.054266	1.373622	0.000162
 248	2.4576e+01	9.8323	36.396797	0.000476	4.763762	1.614006	0.000191
 249	2.4676e+01	9.8853	36.513874	0.000294	2.939343	0.995876	0.000118
 250	2.4776e+01	9.9174	36.695545	0.000456	4.561049	1.545325	0.000183
 251	2.4875e+01	9.9719	36.901439	0.000517	5.169189	1.751369	0.000207
 252	2.4974e+01	10.0008	37.079073	0.000446	4.459693	1.510985	0.000179
 253	2.5074e+01	10.0361	37.276893	0.000497	4.966476	1.682688	0.000199
 254	2.5174e+01	10.0826	37.450490	0.000436	4.358336	1.476644	0.000174
 255	2.5273e+01	10.1147	37.636198	0.000466	4.662406	1.579666	0.000187
 256	2.5372e+01	10.1612	37.785572	0.000375	3.750196	1.270601	0.000150
 257	2.5472e+01	10.1965	37.971280	0.000466	4.662406	1.579666	0.000187
 258	2.5572e+01	10.2430	38.144877	0.000436	4.358336	1.476644	0.000174
 259	2.5671e+01	10.2767	38.310400	0.000416	4.155623	1.407963	0.000166
 260	2.5770e+01	10.3264	38.467848	0.000395	3.952909	1.339282	0.000158
 261	2.5870e+01	10.3553	38.653556	0.000466	4.662406	1.579666	0.000187
 262	2.5970e+01	10.4034	38.851376	0.000497	4.966476	1.682688	0.000199
 263	2.6069e+01	10.4468	39.020935	0.000426	4.256979	1.442304	0.000170
 264	2.6169e+01	10.4853	39.138012	0.000294	2.939343	0.995876	0.000118
 265	2.6268e+01	10.5077	39.279312	0.000355	3.547483	1.201920	0.000142
 266	2.6367e+01	10.5607	39.469058	0.000476	4.763762	1.614006	0.000191
 267	2.6467e+01	10.5927	39.634580	0.000416	4.155623	1.407963	0.000166
 268	2.6567e+01	10.6441	39.824325	0.000476	4.763762	1.614006	0.000191
 269	2.6666e+01	10.6810	39.997922	0.000436	4.358336	1.476644	0.000174
 270	2.6765e+01	10.7131	40.167482	0.000426	4.256979	1.442304	0.000170
 271	2.6865e+01	10.7564	40.341079	0.000436	4.358336	1.476644	0.000174
 272	2.6965e+01	10.7901	40.559084	0.000547	5.473259	1.854390	0.000219
 273	2.7064e+01	10.8398	40.700384	0.000355	3.547483	1.201920	0.000142
 274	2.7163e+01	10.8799	40.906278	0.000517	5.169189	1.751369	0.000207
 275	2.7263e+01	10.9184	41.071800	0.000416	4.155623	1.407963	0.000166
 276	2.7363e+01	10.9537	41.209063	0.000345	3.446126	1.167579	0.000138
 277	2.7462e+01	10.9986	41.394771	0.000466	4.662406	1.579666	0.000187
 278	2.7561e+01	11.0275	41.527997	0.000334	3.344769	1.133239	0.000134
 279	2.7661e+01	11.0708	41.725816	0.000497	4.966476	1.682688	0.000199
 280	2.7761e+01	11.1173	41.903450	0.000446	4.459693	1.510985	0.000179
 281	2.7860e+01	11.1526	42.040713	0.000345	3.446126	1.167579	0.000138
 282	2.7959e+01	11.2008	42.206236	0.000416	4.155623	1.407963	0.000166
 283	2.8059e+01	11.2377	42.331387	0.000314	3.142056	1.064557	0.000126
 284	2.8159e+01	11.2778	42.500946	0.000426	4.256979	1.442304	0.000170
 285	2.8258e+01	11.3098	42.654358	0.000385	3.851553	1.304941	0.000154
 286	2.8358e+01	11.3564	42.815843	0.000405	4.054266	1.373622	0.000162
 287	2.8457e+01	11.3965	43.009626	0.000487	4.865119	1.648347	0.000195
 288	2.8556e+01	11.4350	43.167074	0.000395	3.952909	1.339282	0.000158
 289	2.8656e+01	11.4671	43.312411	0.000365	3.648839	1.236260	0.000146
 290	2.8756e+01	11.5120	43.534453	0.000557	5.574616	1.888731	0.000223
 291	2.8855e+01	11.5473	43.712087	0.000446	4.459693	1.510985	0.000179
 292	2.8954e+01	11.6018	43.893758	0.000456	4.561049	1.545325	0.000183
 293	2.9054e+01	11.6291	44.059281	0.000416	4.155623	1.407963	0.000166
 294	2.9154e+01	11.6740	44.232878	0.000436	4.358336	1.476644	0.000174
 295	2.9253e+01	11.7093	44.406475	0.000436	4.358336	1.476644	0.000174
 296	2.9352e+01	11.7446	44.580071	0.000436	4.358336	1.476644	0.000174
 297	2.9452e+01	11.7927	44.741557	0.000405	4.054266	1.373622	0.000162
 298	2.9552e+01	11.8280	44.870745	0.000324	3.243413	1.098898	0.000130
 299	2.9651e+01	11.8777	45.088750	0.000547	5.473259	1.854390	0.000219
 300	2.9750e+01	11.9227	45.262347	0.000436	4.358336	1.476644	0.000174
 301	2.9850e+01	11.9580	45.335016	0.000182	1.824420	0.618130	0.000073
 302	2.9950e+01	11.9868	45.528798	0.000487	4.865119	1.648347	0.000195
 303	3.0049e+01	12.0253	45.662024	0.000334	3.344769	1.133239	0.000134
 304	3.0148e+01	12.0686	45.819472	0.000395	3.952909	1.339282	0.000158
 305	3.0248e+01	12.0991	46.029403	0.000527	5.270546	1.785709	0.000211
 306	3.0348e+01	12.1440	46.227223	0.000497	4.966476	1.682688	0.000199
 307	3.0447e+01	12.1874	46.429080	0.000507	5.067832	1.717028	0.000203
 308	3.0547e+01	12.2323	46.590565	0.000405	4.054266	1.373622	0.000162
 309	3.0646e+01	12.2692	46.743976	0.000385	3.851553	1.304941	0.000154
 310	3.0745e+01	12.3189	46.929684	0.000466	4.662406	1.579666	0.000187
 311	3.0845e+01	12.3494	47.107318	0.000446	4.459693	1.510985	0.000179
 312	3.0945e+01	12.3895	47.256692	0.000375	3.750196	1.270601	0.000150
 313	3.1044e+01	12.4360	47.450475	0.000487	4.865119	1.648347	0.000195
 314	3.1143e+01	12.4665	47.603886	0.000385	3.851553	1.304941	0.000154
 315	3.1243e+01	12.5050	47.773446	0.000426	4.256979	1.442304	0.000170
 316	3.1343e+01	12.5467	47.975303	0.000507	5.067832	1.717028	0.000203
 317	3.1442e+01	12.5964	48.128714	0.000385	3.851553	1.304941	0.000154
 318	3.1541e+01	12.6349	48.278088	0.000375	3.750196	1.270601	0.000150
 319	3.1641e+01	12.6734	48.399202	0.000304	3.040699	1.030217	0.000122
 320	3.1741e+01	12.7103	48.532427	0.000334	3.344769	1.133239	0.000134
 321	3.1840e+01	12.7472	48.750433	0.000547	5.473259	1.854390	0.000219
 322	3.1939e+01	12.7825	48.919992	0.000426	4.256979	1.442304	0.000170
 323	3.2039e+01	12.8194	49.089552	0.000426	4.256979	1.442304	0.000170
 324	3.2139e+01	12.8659	49.267186	0.000446	4.459693	1.510985	0.000179
 325	3.2238e+01	12.9077	49.444820	0.000446	4.459693	1.510985	0.000179
 326	3.2337e+01	12.9413	49.658788	0.000537	5.371902	1.820050	0.000215
 327	3.2437e+01	12.9831	49.804125	0.000365	3.648839	1.236260	0.000146
 328	3.2536e+01	13.0248	49.981759	0.000446	4.459693	1.510985	0.000179
 329	3.2636e+01	13.0601	50.159393	0.000446	4.459693	1.510985	0.000179
 330	3.2736e+01	13.1066	50.284544	0.000314	3.142056	1.064557	0.000126
 331	3.2835e+01	13.1435	50.478327	0.000487	4.865119	1.648347	0.000195
 332	3.2934e+01	13.1804	50.651924	0.000436	4.358336	1.476644	0.000174
 333	3.3034e+01	13.2285	50.853780	0.000507	5.067832	1.717028	0.000203
 334	3.3133e+01	13.2654	51.023340	0.000426	4.256979	1.442304	0.000170
 335	3.3233e+01	13.3007	51.196937	0.000436	4.358336	1.476644	0.000174
 336	3.3333e+01	13.3440	51.350348	0.000385	3.851553	1.304941	0.000154
 337	3.3432e+01	13.3857	51.503759	0.000385	3.851553	1.304941	0.000154
 338	3.3532e+01	13.4178	51.592576	0.000223	2.229846	0.755492	0.000089
 339	3.3631e+01	13.4579	51.810581	0.000547	5.473259	1.854390	0.000219
 340	3.3730e+01	13.5028	51.968030	0.000395	3.952909	1.339282	0.000158
 341	3.3830e+01	13.5558	52.157775	0.000476	4.763762	1.614006	0.000191
 342	3.3929e+01	13.5766	52.327335	0.000426	4.256979	1.442304	0.000170
 343	3.4029e+01	13.6264	52.521117	0.000487	4.865119	1.648347	0.000195
 344	3.4129e+01	13.6633	52.706826	0.000466	4.662406	1.579666	0.000187
 345	3.4228e+01	13.6985	52.900608	0.000487	4.865119	1.648347	0.000195
 346	3.4328e+01	13.7419	53.090354	0.000476	4.763762	1.614006	0.000191
 347	3.4427e+01	13.7788	53.215505	0.000314	3.142056	1.064557	0.000126
 348	3.4526e+01	13.8253	53.401213	0.000466	4.662406	1.579666	0.000187
 349	3.4626e+01	13.8590	53.574810	0.000436	4.358336	1.476644	0.000174
 350	3.4725e+01	13.9023	53.716110	0.000355	3.547483	1.201920	0.000142
 351	3.4825e+01	13.9360	53.909892	0.000487	4.865119	1.648347	0.000195
 352	3.4925e+01	13.9681	54.043118	0.000334	3.344769	1.133239	0.000134
 353	3.5024e+01	14.0162	54.249011	0.000517	5.169189	1.751369	0.000207
 354	3.5123e+01	14.0627	54.402423	0.000385	3.851553	1.304941	0.000154
 355	3.5223e+01	14.1012	54.551797	0.000375	3.750196	1.270601	0.000150
 356	3.5322e+01	14.1477	54.689059	0.000345	3.446126	1.167579	0.000138
 357	3.5422e+01	14.1862	54.814210	0.000314	3.142056	1.064557	0.000126
 358	3.5522e+01	14.2199	55.020104	0.000517	5.169189	1.751369	0.000207
 359	3.5621e+01	14.2552	55.205813	0.000466	4.662406	1.579666	0.000187
 360	3.5721e+01	14.2969	55.423818	0.000547	5.473259	1.854390	0.000219
 361	3.5820e+01	14.3450	55.577229	0.000385	3.851553	1.304941	0.000154
 362	3.5919e+01	14.3852	55.783123	0.000517	5.169189	1.751369	0.000207
 363	3.6019e+01	14.4285	55.936534	0.000385	3.851553	1.304941	0.000154
 364	3.6118e+01	14.4622	56.085908	0.000375	3.750196	1.270601	0.000150
 365	3.6218e+01	14.5023	56.267579	0.000456	4.561049	1.545325	0.000183
 366	3.6318e+01	14.5424	56.473473	0.000517	5.169189	1.751369	0.000207
 367	3.6417e+01	14.5809	56.626884	0.000385	3.851553	1.304941	0.000154
 368	3.6517e+01	14.6242	56.780296	0.000385	3.851553	1.304941	0.000154
 369	3.6616e+01	14.6466	56.998301	0.000547	5.473259	1.854390	0.000219
 370	3.6715e+01	14.6996	57.139601	0.000355	3.547483	1.201920	0.000142
 371	3.6815e+01	14.7301	57.284938	0.000365	3.648839	1.236260	0.000146
 372	3.6914e+01	14.7830	57.458534	0.000436	4.358336	1.476644	0.000174
 373	3.7014e+01	14.8151	57.648280	0.000476	4.763762	1.614006	0.000191
 374	3.7114e+01	14.8568	57.817839	0.000426	4.256979	1.442304	0.000170
 375	3.7213e+01	14.8953	57.951065	0.000334	3.344769	1.133239	0.000134
 376	3.7313e+01	14.9434	58.120625	0.000426	4.256979	1.442304	0.000170
 377	3.7412e+01	14.9819	58.298259	0.000446	4.459693	1.510985	0.000179
 378	3.7511e+01	15.0140	58.488004	0.000476	4.763762	1.614006	0.000191
 379	3.7611e+01	15.0493	58.697935	0.000527	5.270546	1.785709	0.000211
 380	3.7711e+01	15.0910	58.802901	0.000264	2.635273	0.892855	0.000105
 381	3.7810e+01	15.1359	58.992646	0.000476	4.763762	1.614006	0.000191
 382	3.7910e+01	15.1793	59.202577	0.000527	5.270546	1.785709	0.000211
 383	3.8009e+01	15.2129	59.355988	0.000385	3.851553	1.304941	0.000154
 384	3.8108e+01	15.2579	59.517474	0.000405	4.054266	1.373622	0.000162
 385	3.8208e+01	15.2996	59.715293	0.000497	4.966476	1.682688	0.000199
 386	3.8307e+01	15.3333	59.860630	0.000365	3.648839	1.236260	0.000146
 387	3.8407e+01	15.3718	60.010004	0.000375	3.750196	1.270601	0.000150
 388	3.8507e+01	15.4199	60.195712	0.000466	4.662406	1.579666	0.000187
 389	3.8606e+01	15.4488	60.345086	0.000375	3.750196	1.270601	0.000150
 390	3.8706e+01	15.5001	60.470238	0.000314	3.142056	1.064557	0.000126
 391	3.8805e+01	15.5418	60.659983	0.000476	4.763762	1.614006	0.000191
 392	3.8904e+01	15.5611	60.793209	0.000334	3.344769	1.133239	0.000134
 393	3.9004e+01	15.6204	60.930471	0.000345	3.446126	1.167579	0.000138
 394	3.9103e+01	15.6541	61.071771	0.000355	3.547483	1.201920	0.000142
 395	3.9203e+01	15.6958	61.313999	0.000608	6.081399	2.060434	0.000243
 396	3.9303e+01	15.7391	61.471447	0.000395	3.952909	1.339282	0.000158
 397	3.9402e+01	15.7712	61.669267	0.000497	4.966476	1.682688	0.000199
 398	3.9502e+01	15.8129	61.826715	0.000395	3.952909	1.339282	0.000158
 399	3.9601e+01	15.8627	62.000312	0.000436	4.358336	1.476644	0.000174
 400	3.9700e+01	15.8947	62.137575	0.000345	3.446126	1.167579	0.000138
 401	3.9800e+01	15.9413	62.307134	0.000426	4.256979	1.442304	0.000170
 402	3.9900e+01	15.9782	62.464583	0.000395	3.952909	1.339282	0.000158
 403	3.9999e+01	16.0102	62.678551	0.000537	5.371902	1.820050	0.000215
 404	4.0099e+01	16.0552	62.827925	0.000375	3.750196	1.270601	0.000150
 405	4.0198e+01	16.0921	62.969225	0.000355	3.547483	1.201920	0.000142
 406	4.0297e+01	16.1386	63.126673	0.000395	3.952909	1.339282	0.000158
 407	4.0397e+01	16.1755	63.296233	0.000426	4.256979	1.442304	0.000170
 408	4.0496e+01	16.2156	63.453681	0.000395	3.952909	1.339282	0.000158
 409	4.0596e+01	16.2573	63.586906	0.000334	3.344769	1.133239	0.000134
 410	4.0696e+01	16.2910	63.740318	0.000385	3.851553	1.304941	0.000154
 411	4.0795e+01	16.3279	63.897766	0.000395	3.952909	1.339282	0.000158
 412	4.0895e+01	16.3664	64.095586	0.000497	4.966476	1.682688	0.000199
 413	4.0994e+01	16.4065	64.285331	0.000476	4.763762	1.614006	0.000191
 414	4.1093e+01	16.4546	64.406445	0.000304	3.040699	1.030217	0.000122
 415	4.1193e+01	16.4883	64.608302	0.000507	5.067832	1.717028	0.000203
 416	4.1292e+01	16.5284	64.733453	0.000314	3.142056	1.064557	0.000126
 417	4.1392e+01	16.5749	64.866678	0.000334	3.344769	1.133239	0.000134
 418	4.1492e+01	16.6102	65.068535	0.000507	5.067832	1.717028	0.000203
 419	4.1591e+01	16.6439	65.225984	0.000395	3.952909	1.339282	0.000158
 420	4.1691e+01	16.6888	65.383432	0.000395	3.952909	1.339282	0.000158
 421	4.1790e+01	16.7289	65.544917	0.000405	4.054266	1.373622	0.000162
 422	4.1889e+01	16.7706	65.694291	0.000375	3.750196	1.270601	0.000150
 423	4.1989e+01	16.8075	65.863851	0.000426	4.256979	1.442304	0.000170
 424	4.2089e+01	16.8509	66.053596	0.000476	4.763762	1.614006	0.000191
 425	4.2188e+01	16.8829	66.186822	0.000334	3.344769	1.133239	0.000134
 426	4.2288e+01	16.9295	66.352344	0.000416	4.155623	1.407963	0.000166
 427	4.2387e+01	16.9599	66.529978	0.000446	4.459693	1.510985	0.000179
 428	4.2486e+01	17.0145	66.651092	0.000304	3.040699	1.030217	0.000122
 429	4.2586e+01	17.0434	66.808541	0.000395	3.952909	1.339282	0.000158
 430	4.2685e+01	17.0851	66.937729	0.000324	3.243413	1.098898	0.000130
 431	4.2785e+01	17.1268	67.131512	0.000487	4.865119	1.648347	0.000195
 432	4.2885e+01	17.1573	67.292997	0.000405	4.054266	1.373622	0.000162
 433	4.2984e+01	17.2038	67.426223	0.000334	3.344769	1.133239	0.000134
 434	4.3084e+01	17.2423	67.632116	0.000517	5.169189	1.751369	0.000207
 435	4.3183e+01	17.2936	67.761305	0.000324	3.243413	1.098898	0.000130
 436	4.3282e+01	17.3257	67.934902	0.000436	4.358336	1.476644	0.000174
 437	4.3382e+01	17.3674	68.088313	0.000385	3.851553	1.304941	0.000154
 438	4.3481e+01	17.4059	68.241724	0.000385	3.851553	1.304941	0.000154
 439	4.3581e+01	17.4573	68.378987	0.000345	3.446126	1.167579	0.000138
 440	4.3681e+01	17.4829	68.540472	0.000405	4.054266	1.373622	0.000162
 441	4.3780e+01	17.5262	68.693883	0.000385	3.851553	1.304941	0.000154
 442	4.3880e+01	17.5663	68.883629	0.000476	4.763762	1.614006	0.000191
 443	4.3979e+01	17.6049	69.012817	0.000324	3.243413	1.098898	0.000130
 444	4.4078e+01	17.6434	69.218711	0.000517	5.169189	1.751369	0.000207
 445	4.4178e+01	17.6867	69.339825	0.000304	3.040699	1.030217	0.000122
 446	4.4278e+01	17.7316	69.509385	0.000426	4.256979	1.442304	0.000170
 447	4.4377e+01	17.7701	69.658759	0.000375	3.750196	1.270601	0.000150
 448	4.4477e+01	17.8134	69.767761	0.000274	2.736630	0.927195	0.000110
 449	4.4576e+01	17.8487	69.957507	0.000476	4.763762	1.614006	0.000191
 450	4.4675e+01	17.8856	70.094769	0.000345	3.446126	1.167579	0.000138
 451	4.4775e+01	17.9177	70.227995	0.000334	3.344769	1.133239	0.000134
 452	4.4874e+01	17.9610	70.397554	0.000426	4.256979	1.442304	0.000170
 453	4.4974e+01	18.0091	70.530780	0.000334	3.344769	1.133239	0.000134
 454	4.5074e+01	18.0348	70.676117	0.000365	3.648839	1.236260	0.000146
 455	4.5173e+01	18.0909	70.865862	0.000476	4.763762	1.614006	0.000191
 456	4.5273e+01	18.1166	71.011199	0.000365	3.648839	1.236260	0.000146
 457	4.5372e+01	18.1679	71.184796	0.000436	4.358336	1.476644	0.000174
 458	4.5471e+01	18.1984	71.322059	0.000345	3.446126	1.167579	0.000138
 459	4.5571e+01	18.2465	71.495655	0.000436	4.358336	1.476644	0.000174
 460	4.5670e+01	18.2770	71.649067	0.000385	3.851553	1.304941	0.000154
 461	4.5770e+01	18.3284	71.818626	0.000426	4.256979	1.442304	0.000170
 462	4.5870e+01	18.3653	71.959926	0.000355	3.547483	1.201920	0.000142
 463	4.5969e+01	18.4054	72.113337	0.000385	3.851553	1.304941	0.000154
 464	4.6069e+01	18.4471	72.311157	0.000497	4.966476	1.682688	0.000199
 465	4.6168e+01	18.4904	72.448419	0.000345	3.446126	1.167579	0.000138
 466	4.6267e+01	18.5305	72.601831	0.000385	3.851553	1.304941	0.000154
 467	4.6367e+01	18.5562	72.739093	0.000345	3.446126	1.167579	0.000138
 468	4.6467e+01	18.6091	72.864244	0.000314	3.142056	1.064557	0.000126
 469	4.6566e+01	18.6476	73.033804	0.000426	4.256979	1.442304	0.000170
 470	4.6666e+01	18.6813	73.203364	0.000426	4.256979	1.442304	0.000170
 471	4.6765e+01	18.7182	73.348701	0.000365	3.648839	1.236260	0.000146
 472	4.6864e+01	18.7647	73.502112	0.000385	3.851553	1.304941	0.000154
 473	4.6964e+01	18.8000	73.615152	0.000284	2.837986	0.961536	0.000114
 474	4.7063e+01	18.8385	73.800860	0.000466	4.662406	1.579666	0.000187
 475	4.7163e+01	18.8850	73.962345	0.000405	4.054266	1.373622	0.000162
 476	4.7263e+01	18.9283	74.156128	0.000487	4.865119	1.648347	0.000195
 477	4.7362e+01	18.9668	74.285316	0.000324	3.243413	1.098898	0.000130
 478	4.7462e+01	19.0053	74.426616	0.000355	3.547483	1.201920	0.000142
 479	4.7561e+01	19.0406	74.551767	0.000314	3.142056	1.064557	0.000126
 480	4.7660e+01	19.0856	74.729401	0.000446	4.459693	1.510985	0.000179
 481	4.7760e+01	19.1289	74.878775	0.000375	3.750196	1.270601	0.000150
 482	4.7859e+01	19.1626	75.088706	0.000527	5.270546	1.785709	0.000211
 483	4.7959e+01	19.2059	75.258266	0.000426	4.256979	1.442304	0.000170
 484	4.8059e+01	19.2412	75.439937	0.000456	4.561049	1.545325	0.000183
 485	4.8158e+01	19.2813	75.593348	0.000385	3.851553	1.304941	0.000154
 486	4.8258e+01	19.3230	75.710425	0.000294	2.939343	0.995876	0.000118
 487	4.8357e+01	19.3615	75.855762	0.000365	3.648839	1.236260	0.000146
 488	4.8456e+01	19.4000	75.997062	0.000355	3.547483	1.201920	0.000142
 489	4.8556e+01	19.4241	76.158547	0.000405	4.054266	1.373622	0.000162
 490	4.8656e+01	19.4690	76.336181	0.000446	4.459693	1.510985	0.000179
 491	4.8755e+01	19.5123	76.469407	0.000334	3.344769	1.133239	0.000134
 492	4.8855e+01	19.5652	76.622818	0.000385	3.851553	1.304941	0.000154
 493	4.8954e+01	19.5957	76.772192	0.000375	3.750196	1.270601	0.000150
 494	4.9053e+01	19.6470	76.957900	0.000466	4.662406	1.579666	0.000187
 495	4.9153e+01	19.6775	77.099200	0.000355	3.547483	1.201920	0.000142
 496	4.9252e+01	19.7208	77.252611	0.000385	3.851553	1.304941	0.000154
 497	4.9352e+01	19.7593	77.442356	0.000476	4.763762	1.614006	0.000191
 498	4.9452e+01	19.7994	77.575582	0.000334	3.344769	1.133239	0.000134
 499	4.9551e+01	19.8379	77.765327	0.000476	4.763762	1.614006	0.000191
 500	4.9651e+01	19.8748	77.862218	0.000243	2.432560	0.824173	0.000097
 501	4.9750e+01	19.9166	78.068112	0.000517	5.169189	1.751369	0.000207
 502	4.9849e+01	19.9534	78.241709	0.000436	4.358336	1.476644	0.000174
 503	4.9949e+01	19.9952	78.403195	0.000405	4.054266	1.373622	0.000162
 504	5.0048e+01	19.9631	78.269969	0.000334	3.344769	1.133239	-0.000134
 505	5.0148e+01	19.9198	78.177115	0.000233	2.331203	0.789833	-0.000093
 506	5.0248e+01	19.8748	78.080224	0.000243	2.432560	0.824173	-0.000097
 507	5.0347e+01	19.8428	77.963147	0.000294	2.939343	0.995876	-0.000118
 508	5.0447e+01	19.7962	77.862218	0.000253	2.533916	0.858514	-0.000101
 509	5.0546e+01	19.7577	77.769364	0.000233	2.331203	0.789833	-0.000093
 510	5.0645e+01	19.7128	77.656324	0.000284	2.837986	0.961536	-0.000114
 511	5.0745e+01	19.6727	77.535210	0.000304	3.040699	1.030217	-0.000122
 512	5.0844e+01	19.6326	77.410059	0.000314	3.142056	1.064557	-0.000126
 513	5.0944e+01	19.6037	77.301057	0.000274	2.736630	0.927195	-0.000110
 514	5.1044e+01	19.5588	77.188017	0.000284	2.837986	0.961536	-0.000114
 515	5.1143e+01	19.5155	77.087088	0.000253	2.533916	0.858514	-0.000101
 516	5.1242e+01	19.4674	76.957900	0.000324	3.243413	1.098898	-0.000130
 517	5.1342e+01	19.4337	76.836786	0.000304	3.040699	1.030217	-0.000122
 518	5.1441e+01	19.3984	76.743932	0.000233	2.331203	0.789833	-0.000093
 519	5.1541e+01	19.3503	76.651078	0.000233	2.331203	0.789833	-0.000093
 520	5.1641e+01	19.3198	76.550149	0.000253	2.533916	0.858514	-0.000101
 521	5.1740e+01	19.2781	76.453258	0.000243	2.432560	0.824173	-0.000097
 522	5.1840e+01	19.2412	76.287735	0.000416	4.155623	1.407963	-0.000166
 523	5.1939e+01	19.1962	76.162584	0.000314	3.142056	1.064557	-0.000126
 524	5.2038e+01	19.1545	76.077804	0.000213	2.128490	0.721152	-0.000085
 525	5.2138e+01	19.1176	75.940542	0.000345	3.446126	1.167579	-0.000138
 526	5.2237e+01	19.0920	75.811353	0.000324	3.243413	1.098898	-0.000130
 527	5.2337e+01	19.0390	75.686202	0.000314	3.142056	1.064557	-0.000126
 528	5.2437e+01	19.0070	75.593348	0.000233	2.331203	0.789833	-0.000093
 529	5.2536e+01	18.9620	75.460123	0.000334	3.344769	1.133239	-0.000134
 530	5.2636e+01	18.9299	75.379380	0.000203	2.027133	0.686811	-0.000081
 531	5.2735e+01	18.8850	75.258266	0.000304	3.040699	1.030217	-0.000122
 532	5.2834e+01	18.8417	75.072558	0.000466	4.662406	1.579666	-0.000187
 533	5.2934e+01	18.7968	74.979703	0.000233	2.331203	0.789833	-0.000093
 534	5.3033e+01	18.7679	74.846478	0.000334	3.344769	1.133239	-0.000134
 535	5.3133e+01	18.7246	74.777847	0.000172	1.723063	0.583790	-0.000069
 536	5.3233e+01	18.6893	74.632510	0.000365	3.648839	1.236260	-0.000146
 537	5.3332e+01	18.6540	74.527544	0.000264	2.635273	0.892855	-0.000105
 538	5.3431e+01	18.6107	74.390282	0.000345	3.446126	1.167579	-0.000138
 539	5.3531e+01	18.5642	74.305502	0.000213	2.128490	0.721152	-0.000085
 540	5.3630e+01	18.5273	74.200536	0.000264	2.635273	0.892855	-0.000105
 541	5.3730e+01	18.4840	74.075385	0.000314	3.142056	1.064557	-0.000126
 542	5.3830e+01	18.4487	73.934085	0.000355	3.547483	1.201920	-0.000142
 543	5.3929e+01	18.4038	73.752414	0.000456	4.561049	1.545325	-0.000183
 544	5.4029e+01	18.3572	73.647449	0.000264	2.635273	0.892855	-0.000105
 545	5.4128e+01	18.3203	73.534409	0.000284	2.837986	0.961536	-0.000114
 546	5.4227e+01	18.2754	73.413295	0.000304	3.040699	1.030217	-0.000122
 547	5.4327e+01	18.2433	73.292181	0.000304	3.040699	1.030217	-0.000122
 548	5.4426e+01	18.2032	73.158955	0.000334	3.344769	1.133239	-0.000134
 549	5.4526e+01	18.1599	73.017656	0.000355	3.547483	1.201920	-0.000142
 550	5.4626e+01	18.1326	72.892504	0.000314	3.142056	1.064557	-0.000126
 551	5.4725e+01	18.0861	72.791576	0.000253	2.533916	0.858514	-0.000101
 552	5.4825e+01	18.0476	72.642202	0.000375	3.750196	1.270601	-0.000150
 553	5.4924e+01	18.0027	72.545311	0.000243	2.432560	0.824173	-0.000097
 554	5.5023e+01	17.9658	72.391899	0.000385	3.851553	1.304941	-0.000154
 555	5.5123e+01	17.9209	72.250600	0.000355	3.547483	1.201920	-0.000142
 556	5.5222e+01	17.8840	72.145634	0.000264	2.635273	0.892855	-0.000105
 557	5.5322e+01	17.8519	72.028557	0.000294	2.939343	0.995876	-0.000118
 558	5.5422e+01	17.8054	71.903406	0.000314	3.142056	1.064557	-0.000126
 559	5.5521e+01	17.7653	71.778255	0.000314	3.142056	1.064557	-0.000126
 560	5.5620e+01	17.7204	71.709624	0.000172	1.723063	0.583790	-0.000069
 561	5.5720e+01	17.6819	71.499692	0.000527	5.270546	1.785709	-0.000211
 562	5.5819e+01	17.6434	71.398764	0.000253	2.533916	0.858514	-0.000101
 563	5.5919e+01	17.6097	71.204982	0.000487	4.865119	1.648347	-0.000195
 564	5.6019e+01	17.5680	71.095979	0.000274	2.736630	0.927195	-0.000110
 565	5.6118e+01	17.5214	70.954679	0.000355	3.547483	1.201920	-0.000142
 566	5.6218e+01	17.4910	70.817417	0.000345	3.446126	1.167579	-0.000138
 567	5.6317e+01	17.4508	70.688228	0.000324	3.243413	1.098898	-0.000130
 568	5.6416e+01	17.4075	70.522706	0.000416	4.155623	1.407963	-0.000166
 569	5.6516e+01	17.3626	70.385443	0.000345	3.446126	1.167579	-0.000138
 570	5.6615e+01	17.3241	70.284515	0.000253	2.533916	0.858514	-0.000101
 571	5.6715e+01	17.2840	70.139178	0.000365	3.648839	1.236260	-0.000146
 572	5.6815e+01	17.2439	70.009989	0.000324	3.243413	1.098898	-0.000130
 573	5.6914e+01	17.2086	69.864653	0.000365	3.648839	1.236260	-0.000146
 574	5.7014e+01	17.1653	69.695093	0.000426	4.256979	1.442304	-0.000170
 575	5.7113e+01	17.1300	69.630499	0.000162	1.621706	0.549449	-0.000065
 576	5.7212e+01	17.0947	69.501310	0.000324	3.243413	1.098898	-0.000130
 577	5.7312e+01	17.0466	69.331751	0.000426	4.256979	1.442304	-0.000170
 578	5.7411e+01	17.0017	69.259082	0.000182	1.824420	0.618130	-0.000073
 579	5.7511e+01	16.9728	69.142005	0.000294	2.939343	0.995876	-0.000118
 580	5.7611e+01	16.9311	68.996668	0.000365	3.648839	1.236260	-0.000146
 581	5.7710e+01	16.8894	68.782700	0.000537	5.371902	1.820050	-0.000215
 582	5.7809e+01	16.8525	68.637363	0.000365	3.648839	1.236260	-0.000146
 583	5.7909e+01	16.8140	68.524323	0.000284	2.837986	0.961536	-0.000114
 584	5.8008e+01	16.7690	68.395135	0.000324	3.243413	1.098898	-0.000130
 585	5.8108e+01	16.7273	68.253835	0.000355	3.547483	1.201920	-0.000142
 586	5.8208e+01	16.6936	68.104461	0.000375	3.750196	1.270601	-0.000150
 587	5.8307e+01	16.6519	67.975273	0.000324	3.243413	1.098898	-0.000130
 588	5.8407e+01	16.6102	67.858196	0.000294	2.939343	0.995876	-0.000118
 589	5.8506e+01	16.5733	67.700748	0.000395	3.952909	1.339282	-0.000158
 590	5.8605e+01	16.5332	67.555411	0.000365	3.648839	1.236260	-0.000146
 591	5.8705e+01	16.4899	67.430260	0.000314	3.142056	1.064557	-0.000126
 592	5.8804e+01	16.4466	67.280886	0.000375	3.750196	1.270601	-0.000150
 593	5.8904e+01	16.4097	67.135549	0.000365	3.648839	1.236260	-0.000146
 594	5.9004e+01	16.3664	66.982138	0.000385	3.851553	1.304941	-0.000154
 595	5.9103e+01	16.3279	66.885246	0.000243	2.432560	0.824173	-0.000097
 596	5.9203e+01	16.2990	66.780281	0.000264	2.635273	0.892855	-0.000105
 597	5.9302e+01	16.2493	66.622833	0.000395	3.952909	1.339282	-0.000158
 598	5.9401e+01	16.2156	66.485570	0.000345	3.446126	1.167579	-0.000138
 599	5.9501e+01	16.1787	66.336196	0.000375	3.750196	1.270601	-0.000150
 600	5.9600e+01	16.1354	66.174710	0.000405	4.054266	1.373622	-0.000162
 601	5.9700e+01	16.0905	66.009188	0.000416	4.155623	1.407963	-0.000166
 602	5.9800e+01	16.0584	65.851740	0.000395	3.952909	1.339282	-0.000158
 603	5.9899e+01	16.0151	65.754848	0.000243	2.432560	0.824173	-0.000097
 604	5.9998e+01	15.9685	65.593363	0.000405	4.054266	1.373622	-0.000162
 605	6.0098e+01	15.9381	65.480323	0.000284	2.837986	0.961536	-0.000114
 606	6.0197e+01	15.8931	65.310763	0.000426	4.256979	1.442304	-0.000170
 607	6.0297e+01	15.8578	65.161389	0.000375	3.750196	1.270601	-0.000150
 608	6.0397e+01	15.8145	65.016052	0.000365	3.648839	1.236260	-0.000146
 609	6.0496e+01	15.7760	64.882827	0.000334	3.344769	1.133239	-0.000134
 610	6.0596e+01	15.7423	64.705193	0.000446	4.459693	1.510985	-0.000179
 611	6.0695e+01	15.6910	64.596190	0.000274	2.736630	0.927195	-0.000110
 612	6.0794e+01	15.6573	64.467002	0.000324	3.243413	1.098898	-0.000130
 613	6.0894e+01	15.6156	64.325702	0.000355	3.547483	1.201920	-0.000142
 614	6.0993e+01	15.5723	64.220737	0.000264	2.635273	0.892855	-0.000105
 615	6.1093e+01	15.5354	64.051177	0.000426	4.256979	1.442304	-0.000170
 616	6.1193e+01	15.5001	63.958323	0.000233	2.331203	0.789833	-0.000093
 617	6.1292e+01	15.4552	63.788763	0.000426	4.256979	1.442304	-0.000170
 618	6.1392e+01	15.4183	63.582869	0.000517	5.169189	1.751369	-0.000207
 619	6.1491e+01	15.3653	63.381013	0.000507	5.067832	1.717028	-0.000203
 620	6.1590e+01	15.3317	63.280084	0.000253	2.533916	0.858514	-0.000101
 621	6.1690e+01	15.2996	63.126673	0.000385	3.851553	1.304941	-0.000154
 622	6.1789e+01	15.2530	62.977299	0.000375	3.750196	1.270601	-0.000150
 623	6.1889e+01	15.2178	62.791591	0.000466	4.662406	1.579666	-0.000187
 624	6.1989e+01	15.1712	62.714885	0.000193	1.925776	0.652471	-0.000077
 625	6.2088e+01	15.1440	62.513028	0.000507	5.067832	1.717028	-0.000203
 626	6.2188e+01	15.1006	62.375766	0.000345	3.446126	1.167579	-0.000138
 627	6.2287e+01	15.0525	62.242540	0.000334	3.344769	1.133239	-0.000134
 628	6.2386e+01	15.0076	62.064906	0.000446	4.459693	1.510985	-0.000179
 629	6.2486e+01	14.9787	61.935718	0.000324	3.243413	1.098898	-0.000130
 630	6.2586e+01	14.9338	61.822678	0.000284	2.837986	0.961536	-0.000114
 631	6.2685e+01	14.8937	61.697527	0.000314	3.142056	1.064557	-0.000126
 632	6.2785e+01	14.8552	61.588524	0.000274	2.736630	0.927195	-0.000110
 633	6.2884e+01	14.8167	61.467410	0.000304	3.040699	1.030217	-0.000122
 634	6.2983e+01	14.7798	61.281702	0.000466	4.662406	1.579666	-0.000187
 635	6.3083e+01	14.7397	61.136365	0.000365	3.648839	1.236260	-0.000146
 636	6.3182e+01	14.7060	60.966805	0.000426	4.256979	1.442304	-0.000170
 637	6.3282e+01	14.6563	60.829543	0.000345	3.446126	1.167579	-0.000138
 638	6.3382e+01	14.6097	60.651909	0.000446	4.459693	1.510985	-0.000179
 639	6.3481e+01	14.5793	60.498498	0.000385	3.851553	1.304941	-0.000154
 640	6.3581e+01	14.5472	60.332975	0.000416	4.155623	1.407963	-0.000166
 641	6.3680e+01	14.4975	60.195712	0.000345	3.446126	1.167579	-0.000138
 642	6.3779e+01	14.4622	60.070561	0.000314	3.142056	1.064557	-0.000126
 643	6.3879e+01	14.4188	59.892927	0.000446	4.459693	1.510985	-0.000179
 644	6.3978e+01	14.3819	59.767776	0.000314	3.142056	1.064557	-0.000126
 645	6.4078e+01	14.3499	59.638588	0.000324	3.243413	1.098898	-0.000130
 646	6.4177e+01	14.2905	59.489214	0.000375	3.750196	1.270601	-0.000150
 647	6.4277e+01	14.2600	59.360025	0.000324	3.243413	1.098898	-0.000130
 648	6.4376e+01	14.2215	59.194503	0.000416	4.155623	1.407963	-0.000166
 649	6.4476e+01	14.1766	59.061277	0.000334	3.344769	1.133239	-0.000134
 650	6.4576e+01	14.1381	58.940163	0.000304	3.040699	1.030217	-0.000122
 651	6.4675e+01	14.1012	58.831161	0.000274	2.736630	0.927195	-0.000110
 652	6.4775e+01	14.0563	58.669675	0.000405	4.054266	1.373622	-0.000162
 653	6.4874e+01	14.0322	58.548561	0.000304	3.040699	1.030217	-0.000122
 654	6.4974e+01	13.9809	58.383038	0.000416	4.155623	1.407963	-0.000166
 655	6.5073e+01	13.9376	58.225590	0.000395	3.952909	1.339282	-0.000158
 656	6.5172e+01	13.8991	58.051993	0.000436	4.358336	1.476644	-0.000174
 657	6.5272e+01	13.8574	57.890508	0.000405	4.054266	1.373622	-0.000162
 658	6.5371e+01	13.8253	57.753245	0.000345	3.446126	1.167579	-0.000138
 659	6.5471e+01	13.7852	57.583686	0.000426	4.256979	1.442304	-0.000170
 660	6.5570e+01	13.7451	57.422200	0.000405	4.054266	1.373622	-0.000162
 661	6.5670e+01	13.6969	57.288975	0.000334	3.344769	1.133239	-0.000134
 662	6.5769e+01	13.6584	57.163823	0.000314	3.142056	1.064557	-0.000126
 663	6.5869e+01	13.6167	57.022524	0.000355	3.547483	1.201920	-0.000142
 664	6.5969e+01	13.5862	56.844890	0.000446	4.459693	1.510985	-0.000179
 665	6.6068e+01	13.5477	56.699553	0.000365	3.648839	1.236260	-0.000146
 666	6.6168e+01	13.5012	56.550179	0.000375	3.750196	1.270601	-0.000150
 667	6.6267e+01	13.4691	56.457325	0.000233	2.331203	0.789833	-0.000093
 668	6.6367e+01	13.4290	56.295839	0.000405	4.054266	1.373622	-0.000162
 669	6.6466e+01	13.3793	56.202985	0.000233	2.331203	0.789833	-0.000093
 670	6.6566e+01	13.3472	56.045537	0.000395	3.952909	1.339282	-0.000158
 671	6.6665e+01	13.2927	55.912311	0.000334	3.344769	1.133239	-0.000134
 672	6.6764e+01	13.2574	55.742752	0.000426	4.256979	1.442304	-0.000170
 673	6.6864e+01	13.2237	55.625675	0.000294	2.939343	0.995876	-0.000118
 674	6.6963e+01	13.1884	55.460152	0.000416	4.155623	1.407963	-0.000166
 675	6.7063e+01	13.1435	55.290593	0.000426	4.256979	1.442304	-0.000170
 676	6.7162e+01	13.1082	55.112959	0.000446	4.459693	1.510985	-0.000179
 677	6.7262e+01	13.0633	54.959547	0.000385	3.851553	1.304941	-0.000154
 678	6.7362e+01	13.0232	54.822285	0.000345	3.446126	1.167579	-0.000138
 679	6.7461e+01	12.9879	54.676948	0.000365	3.648839	1.236260	-0.000146
 680	6.7561e+01	12.9478	54.535648	0.000355	3.547483	1.201920	-0.000142
 681	6.7660e+01	12.9125	54.358014	0.000446	4.459693	1.510985	-0.000179
 682	6.7760e+01	12.8659	54.236900	0.000304	3.040699	1.030217	-0.000122
 683	6.7859e+01	12.8274	54.075415	0.000405	4.054266	1.373622	-0.000162
 684	6.7959e+01	12.7922	53.930078	0.000365	3.648839	1.236260	-0.000146
 685	6.8058e+01	12.7537	53.796852	0.000334	3.344769	1.133239	-0.000134
 686	6.8157e+01	12.7071	53.683812	0.000284	2.837986	0.961536	-0.000114
 687	6.8257e+01	12.6558	53.554624	0.000324	3.243413	1.098898	-0.000130
 688	6.8356e+01	12.6269	53.376990	0.000446	4.459693	1.510985	-0.000179
 689	6.8456e+01	12.5916	53.259913	0.000294	2.939343	0.995876	-0.000118
 690	6.8555e+01	12.5531	53.118613	0.000355	3.547483	1.201920	-0.000142
 691	6.8655e+01	12.4970	53.001537	0.000294	2.939343	0.995876	-0.000118
 692	6.8754e+01	12.4793	52.795643	0.000517	5.169189	1.751369	-0.000207
 693	6.8854e+01	12.4328	52.662417	0.000334	3.344769	1.133239	-0.000134
 694	6.8954e+01	12.3975	52.468635	0.000487	4.865119	1.648347	-0.000195
 695	6.9053e+01	12.3510	52.327335	0.000355	3.547483	1.201920	-0.000142
 696	6.9153e+01	12.3077	52.173924	0.000385	3.851553	1.304941	-0.000154
 697	6.9252e+01	12.2788	51.968030	0.000517	5.169189	1.751369	-0.000207
 698	6.9352e+01	12.2259	51.850953	0.000294	2.939343	0.995876	-0.000118
 699	6.9451e+01	12.1922	51.725802	0.000314	3.142056	1.064557	-0.000126
 700	6.9550e+01	12.1473	51.576428	0.000375	3.750196	1.270601	-0.000150
 701	6.9650e+01	12.1104	51.423016	0.000385	3.851553	1.304941	-0.000154
 702	6.9749e+01	12.0702	51.314014	0.000274	2.736630	0.927195	-0.000110
 703	6.9849e+01	12.0285	51.184825	0.000324	3.243413	1.098898	-0.000130
 704	6.9948e+01	11.9900	51.035451	0.000375	3.750196	1.270601	-0.000150
 705	7.0048e+01	11.9515	50.873966	0.000405	4.054266	1.373622	-0.000162
 706	7.0147e+01	11.9018	50.773038	0.000253	2.533916	0.858514	-0.000101
 707	7.0247e+01	11.8665	50.631738	0.000355	3.547483	1.201920	-0.000142
 708	7.0347e+01	11.8280	50.466215	0.000416	4.155623	1.407963	-0.000166
 709	7.0446e+01	11.7911	50.357213	0.000274	2.736630	0.927195	-0.000110
 710	7.0546e+01	11.7526	50.151319	0.000517	5.169189	1.751369	-0.000207
 711	7.0645e+01	11.7093	49.997908	0.000385	3.851553	1.304941	-0.000154
 712	7.0745e+01	11.6740	49.832385	0.000416	4.155623	1.407963	-0.000166
 713	7.0844e+01	11.6355	49.654751	0.000446	4.459693	1.510985	-0.000179
 714	7.0944e+01	11.6018	49.513451	0.000355	3.547483	1.201920	-0.000142
 715	7.1043e+01	11.5569	49.372152	0.000355	3.547483	1.201920	-0.000142
 716	7.1142e+01	11.5168	49.194518	0.000446	4.459693	1.510985	-0.000179
 717	7.1242e+01	11.4767	49.069366	0.000314	3.142056	1.064557	-0.000126
 718	7.1341e+01	11.4302	48.895769	0.000436	4.358336	1.476644	-0.000174
 719	7.1441e+01	11.3933	48.782730	0.000284	2.837986	0.961536	-0.000114
 720	7.1540e+01	11.3483	48.617207	0.000416	4.155623	1.407963	-0.000166
 721	7.1640e+01	11.3179	48.483982	0.000334	3.344769	1.133239	-0.000134
 722	7.1740e+01	11.2633	48.350756	0.000334	3.344769	1.133239	-0.000134
 723	7.1839e+01	11.2248	48.193308	0.000395	3.952909	1.339282	-0.000158
 724	7.1939e+01	11.1959	48.043934	0.000375	3.750196	1.270601	-0.000150
 725	7.2038e+01	11.1462	47.906671	0.000345	3.446126	1.167579	-0.000138
 726	7.2138e+01	11.1109	47.761334	0.000365	3.648839	1.236260	-0.000146
 727	7.2237e+01	11.0804	47.607923	0.000385	3.851553	1.304941	-0.000154
 728	7.2337e+01	11.0371	47.430289	0.000446	4.459693	1.510985	-0.000179
 729	7.2436e+01	10.9970	47.301101	0.000324	3.243413	1.098898	-0.000130
 730	7.2535e+01	10.9617	47.087133	0.000537	5.371902	1.820050	-0.000215
 731	7.2635e+01	10.9088	46.953907	0.000334	3.344769	1.133239	-0.000134
 732	7.2734e+01	10.8799	46.756088	0.000497	4.966476	1.682688	-0.000199
 733	7.2834e+01	10.8334	46.594602	0.000405	4.054266	1.373622	-0.000162
 734	7.2933e+01	10.7965	46.445228	0.000375	3.750196	1.270601	-0.000150
 735	7.3033e+01	10.7564	46.283743	0.000405	4.054266	1.373622	-0.000162
 736	7.3132e+01	10.7147	46.130332	0.000385	3.851553	1.304941	-0.000154
 737	7.3232e+01	10.6826	45.972883	0.000395	3.952909	1.339282	-0.000158
 738	7.3332e+01	10.6361	45.823509	0.000375	3.750196	1.270601	-0.000150
 739	7.3431e+01	10.5927	45.649912	0.000436	4.358336	1.476644	-0.000174
 740	7.3531e+01	10.5526	45.484390	0.000416	4.155623	1.407963	-0.000166
 741	7.3630e+01	10.5061	45.363276	0.000304	3.040699	1.030217	-0.000122
 742	7.3730e+01	10.4708	45.270422	0.000233	2.331203	0.789833	-0.000093
 743	7.3829e+01	10.4339	45.104899	0.000416	4.155623	1.407963	-0.000166
 744	7.3928e+01	10.4034	44.951488	0.000385	3.851553	1.304941	-0.000154
 745	7.4028e+01	10.3489	44.777891	0.000436	4.358336	1.476644	-0.000174
 746	7.4127e+01	10.3200	44.636591	0.000355	3.547483	1.201920	-0.000142
 747	7.4227e+01	10.2767	44.471069	0.000416	4.155623	1.407963	-0.000166
 748	7.4326e+01	10.2446	44.269212	0.000507	5.067832	1.717028	-0.000203
 749	7.4426e+01	10.1997	44.087541	0.000456	4.561049	1.545325	-0.000183
 750	7.4525e+01	10.1564	43.901833	0.000466	4.662406	1.579666	-0.000187
 751	7.4625e+01	10.1195	43.784756	0.000294	2.939343	0.995876	-0.000118
 752	7.4725e+01	10.0794	43.599047	0.000466	4.662406	1.579666	-0.000187
 753	7.4824e+01	10.0409	43.429488	0.000426	4.256979	1.442304	-0.000170
 754	7.4924e+01	10.0024	43.288188	0.000355	3.547483	1.201920	-0.000142
 755	7.5023e+01	9.9623	43.138814	0.000375	3.750196	1.270601	-0.000150
 756	7.5123e+01	9.9158	42.957143	0.000456	4.561049	1.545325	-0.000183
 757	7.5222e+01	9.8821	42.807769	0.000375	3.750196	1.270601	-0.000150
 758	7.5322e+01	9.8356	42.642246	0.000416	4.155623	1.407963	-0.000166
 759	7.5421e+01	9.7938	42.500946	0.000355	3.547483	1.201920	-0.000142
 760	7.5520e+01	9.7585	42.375795	0.000314	3.142056	1.064557	-0.000126
 761	7.5620e+01	9.7217	42.214310	0.000405	4.054266	1.373622	-0.000162
 762	7.5719e+01	9.6767	42.060899	0.000385	3.851553	1.304941	-0.000154
 763	7.5819e+01	9.6463	41.907488	0.000385	3.851553	1.304941	-0.000154
 764	7.5918e+01	9.6061	41.750039	0.000395	3.952909	1.339282	-0.000158
 765	7.6018e+01	9.5532	41.576442	0.000436	4.358336	1.476644	-0.000174
 766	7.6118e+01	9.5147	41.394771	0.000456	4.561049	1.545325	-0.000183
 767	7.6217e+01	9.4794	41.213100	0.000456	4.561049	1.545325	-0.000183
 768	7.6317e+01	9.4393	41.059689	0.000385	3.851553	1.304941	-0.000154
 769	7.6416e+01	9.3992	40.869944	0.000476	4.763762	1.614006	-0.000191
 770	7.6516e+01	9.3639	40.708458	0.000405	4.054266	1.373622	-0.000162
 771	7.6615e+01	9.3174	40.526787	0.000456	4.561049	1.545325	-0.000183
 772	7.6715e+01	9.2885	40.333005	0.000487	4.865119	1.648347	-0.000195
 773	7.6814e+01	9.2452	40.203816	0.000324	3.243413	1.098898	-0.000130
 774	7.6913e+01	9.1939	40.005997	0.000497	4.966476	1.682688	-0.000199
 775	7.7013e+01	9.1618	39.892957	0.000284	2.837986	0.961536	-0.000114
 776	7.7112e+01	9.1313	39.731471	0.000405	4.054266	1.373622	-0.000162
 777	7.7212e+01	9.0864	39.578060	0.000385	3.851553	1.304941	-0.000154
 778	7.7311e+01	9.0399	39.416575	0.000405	4.054266	1.373622	-0.000162
 779	7.7411e+01	8.9981	39.279312	0.000345	3.446126	1.167579	-0.000138
 780	7.7510e+01	8.9677	39.069381	0.000527	5.270546	1.785709	-0.000211
 781	7.7610e+01	8.9276	38.964416	0.000264	2.635273	0.892855	-0.000105
 782	7.7710e+01	8.8858	38.786782	0.000446	4.459693	1.510985	-0.000179
 783	7.7809e+01	8.8441	38.617222	0.000426	4.256979	1.442304	-0.000170
 784	7.7909e+01	8.7992	38.475922	0.000355	3.547483	1.201920	-0.000142
 785	7.8008e+01	8.7591	38.265991	0.000527	5.270546	1.785709	-0.000211
 786	7.8108e+01	8.7270	38.076246	0.000476	4.763762	1.614006	-0.000191
 787	7.8207e+01	8.6837	37.886500	0.000476	4.763762	1.614006	-0.000191
 788	7.8306e+01	8.6452	37.712903	0.000436	4.358336	1.476644	-0.000174
 789	7.8406e+01	8.6115	37.547381	0.000416	4.155623	1.407963	-0.000166
 790	7.8505e+01	8.5618	37.373784	0.000436	4.358336	1.476644	-0.000174
 791	7.8605e+01	8.5249	37.192113	0.000456	4.561049	1.545325	-0.000183
 792	7.8704e+01	8.4928	37.018516	0.000436	4.358336	1.476644	-0.000174
 793	7.8804e+01	8.4495	36.905476	0.000284	2.837986	0.961536	-0.000114
 794	7.8903e+01	8.4062	36.731880	0.000436	4.358336	1.476644	-0.000174
 795	7.9003e+01	8.3805	36.566357	0.000416	4.155623	1.407963	-0.000166
 796	7.9103e+01	8.3292	36.412946	0.000385	3.851553	1.304941	-0.000154
 797	7.9202e+01	8.2891	36.283757	0.000324	3.243413	1.098898	-0.000130
 798	7.9302e+01	8.2393	36.065752	0.000547	5.473259	1.854390	-0.000219
 799	7.9401e+01	8.2040	35.972898	0.000233	2.331203	0.789833	-0.000093
 800	7.9501e+01	8.1559	35.779115	0.000487	4.865119	1.648347	-0.000195
 801	7.9600e+01	8.1335	35.593407	0.000466	4.662406	1.579666	-0.000187
 802	7.9700e+01	8.0725	35.419810	0.000436	4.358336	1.476644	-0.000174
 803	7.9799e+01	8.0484	35.298696	0.000304	3.040699	1.030217	-0.000122
 804	7.9898e+01	8.0115	35.096840	0.000507	5.067832	1.717028	-0.000203
 805	7.9998e+01	7.9827	34.862686	0.000588	5.878686	1.991753	-0.000235
 806	8.0097e+01	7.9233	34.729460	0.000334	3.344769	1.133239	-0.000134
 807	8.0197e+01	7.8832	34.543752	0.000466	4.662406	1.579666	-0.000187
 808	8.0296e+01	7.8495	34.402452	0.000355	3.547483	1.201920	-0.000142
 809	8.0396e+01	7.8126	34.184447	0.000547	5.473259	1.854390	-0.000219
 810	8.0496e+01	7.7677	34.087556	0.000243	2.432560	0.824173	-0.000097
 811	8.0595e+01	7.7292	33.926070	0.000405	4.054266	1.373622	-0.000162
 812	8.0695e+01	7.6923	33.756510	0.000426	4.256979	1.442304	-0.000170
 813	8.0794e+01	7.6410	33.578877	0.000446	4.459693	1.510985	-0.000179
 814	8.0894e+01	7.6089	33.433540	0.000365	3.648839	1.236260	-0.000146
 815	8.0993e+01	7.5752	33.316463	0.000294	2.939343	0.995876	-0.000118
 816	8.1093e+01	7.5271	33.118643	0.000497	4.966476	1.682688	-0.000199
 817	8.1192e+01	7.4870	32.985418	0.000334	3.344769	1.133239	-0.000134
 818	8.1291e+01	7.4549	32.795672	0.000476	4.763762	1.614006	-0.000191
 819	8.1391e+01	7.4003	32.622075	0.000436	4.358336	1.476644	-0.000174
 820	8.1490e+01	7.3698	32.468664	0.000385	3.851553	1.304941	-0.000154
 821	8.1590e+01	7.3217	32.323327	0.000365	3.648839	1.236260	-0.000146
 822	8.1689e+01	7.2864	32.145693	0.000446	4.459693	1.510985	-0.000179
 823	8.1789e+01	7.2479	31.931725	0.000537	5.371902	1.820050	-0.000215
 824	8.1888e+01	7.2046	31.746017	0.000466	4.662406	1.579666	-0.000187
 825	8.1988e+01	7.1725	31.572420	0.000436	4.358336	1.476644	-0.000174
 826	8.2088e+01	7.1292	31.423046	0.000375	3.750196	1.270601	-0.000150
 827	8.2187e+01	7.0827	31.217152	0.000517	5.169189	1.751369	-0.000207
 828	8.2287e+01	7.0522	31.100075	0.000294	2.939343	0.995876	-0.000118
 829	8.2386e+01	7.0169	30.942627	0.000395	3.952909	1.339282	-0.000158
 830	8.2486e+01	6.9688	30.789216	0.000385	3.851553	1.304941	-0.000154
 831	8.2585e+01	6.9303	30.660027	0.000324	3.243413	1.098898	-0.000130
 832	8.2684e+01	6.8757	30.482393	0.000446	4.459693	1.510985	-0.000179
 833	8.2784e+01	6.8565	30.300722	0.000456	4.561049	1.545325	-0.000183
 834	8.2883e+01	6.8068	30.155385	0.000365	3.648839	1.236260	-0.000146
 835	8.2983e+01	6.7667	29.977751	0.000446	4.459693	1.510985	-0.000179
 836	8.3082e+01	6.7282	29.852600	0.000314	3.142056	1.064557	-0.000126
 837	8.3182e+01	6.6864	29.666892	0.000466	4.662406	1.579666	-0.000187
 838	8.3281e+01	6.6544	29.493295	0.000436	4.358336	1.476644	-0.000174
 839	8.3381e+01	6.6030	29.364107	0.000324	3.243413	1.098898	-0.000130
 840	8.3481e+01	6.5629	29.182436	0.000456	4.561049	1.545325	-0.000183
 841	8.3580e+01	6.5260	28.956356	0.000568	5.675972	1.923071	-0.000227
 842	8.3680e+01	6.4939	28.790834	0.000416	4.155623	1.407963	-0.000166
 843	8.3779e+01	6.4506	28.613200	0.000446	4.459693	1.510985	-0.000179
 844	8.3879e+01	6.4169	28.439603	0.000436	4.358336	1.476644	-0.000174
 845	8.3978e+01	6.3704	28.274080	0.000416	4.155623	1.407963	-0.000166
 846	8.4078e+01	6.3335	28.128743	0.000365	3.648839	1.236260	-0.000146
 847	8.4177e+01	6.2998	27.979369	0.000375	3.750196	1.270601	-0.000150
 848	8.4276e+01	6.2581	27.789624	0.000476	4.763762	1.614006	-0.000191
 849	8.4376e+01	6.2180	27.672547	0.000294	2.939343	0.995876	-0.000118
 850	8.4475e+01	6.1699	27.507024	0.000416	4.155623	1.407963	-0.000166
 851	8.4575e+01	6.1266	27.333428	0.000436	4.358336	1.476644	-0.000174
 852	8.4674e+01	6.0993	27.155794	0.000446	4.459693	1.510985	-0.000179
 853	8.4774e+01	6.0560	27.038717	0.000294	2.939343	0.995876	-0.000118
 854	8.4874e+01	6.0159	26.853008	0.000466	4.662406	1.579666	-0.000187
 855	8.4973e+01	5.9838	26.647114	0.000517	5.169189	1.751369	-0.000207
 856	8.5073e+01	5.9341	26.505815	0.000355	3.547483	1.201920	-0.000142
 857	8.5172e+01	5.9036	26.348366	0.000395	3.952909	1.339282	-0.000158
 858	8.5272e+01	5.8538	26.150547	0.000497	4.966476	1.682688	-0.000199
 859	8.5371e+01	5.8186	26.033470	0.000294	2.939343	0.995876	-0.000118
 860	8.5471e+01	5.7752	25.823539	0.000527	5.270546	1.785709	-0.000211
 861	8.5570e+01	5.7367	25.649942	0.000436	4.358336	1.476644	-0.000174
 862	8.5669e+01	5.6998	25.448085	0.000507	5.067832	1.717028	-0.000203
 863	8.5769e+01	5.6549	25.302748	0.000365	3.648839	1.236260	-0.000146
 864	8.5868e+01	5.6132	25.121077	0.000456	4.561049	1.545325	-0.000183
 865	8.5968e+01	5.5747	24.959592	0.000405	4.054266	1.373622	-0.000162
 866	8.6067e+01	5.5410	24.814255	0.000365	3.648839	1.236260	-0.000146
 867	8.6167e+01	5.4929	24.689104	0.000314	3.142056	1.064557	-0.000126
 868	8.6266e+01	5.4592	24.519544	0.000426	4.256979	1.442304	-0.000170
 869	8.6366e+01	5.4143	24.354021	0.000416	4.155623	1.407963	-0.000166
 870	8.6466e+01	5.3870	24.192536	0.000405	4.054266	1.373622	-0.000162
 871	8.6565e+01	5.3533	24.047199	0.000365	3.648839	1.236260	-0.000146
 872	8.6665e+01	5.2940	23.849379	0.000497	4.966476	1.682688	-0.000199
 873	8.6764e+01	5.2667	23.716154	0.000334	3.344769	1.133239	-0.000134
 874	8.6864e+01	5.2218	23.518334	0.000497	4.966476	1.682688	-0.000199
 875	8.6963e+01	5.1769	23.360886	0.000395	3.952909	1.339282	-0.000158
 876	8.7063e+01	5.1319	23.203438	0.000395	3.952909	1.339282	-0.000158
 877	8.7162e+01	5.0950	23.021767	0.000456	4.561049	1.545325	-0.000183
 878	8.7261e+01	5.0549	22.860281	0.000405	4.054266	1.373622	-0.000162
 879	8.7361e+01	5.0100	22.694759	0.000416	4.155623	1.407963	-0.000166
 880	8.7460e+01	4.9860	22.480790	0.000537	5.371902	1.820050	-0.000215
 881	8.7560e+01	4.9362	22.303156	0.000446	4.459693	1.510985	-0.000179
 882	8.7659e+01	4.8977	22.133597	0.000426	4.256979	1.442304	-0.000170
 883	8.7759e+01	4.8608	21.984223	0.000375	3.750196	1.270601	-0.000150
 884	8.7859e+01	4.8271	21.842923	0.000355	3.547483	1.201920	-0.000142
 885	8.7958e+01	4.7902	21.697586	0.000365	3.648839	1.236260	-0.000146
 886	8.8058e+01	4.7421	21.519952	0.000446	4.459693	1.510985	-0.000179
 887	8.8157e+01	4.6924	21.330207	0.000476	4.763762	1.614006	-0.000191
 888	8.8257e+01	4.6651	21.176796	0.000385	3.851553	1.304941	-0.000154
 889	8.8356e+01	4.6170	21.023384	0.000385	3.851553	1.304941	-0.000154
 890	8.8456e+01	4.5897	20.829602	0.000487	4.865119	1.648347	-0.000195
 891	8.8555e+01	4.5432	20.708488	0.000304	3.040699	1.030217	-0.000122
 892	8.8654e+01	4.4999	20.522780	0.000466	4.662406	1.579666	-0.000187
 893	8.8754e+01	4.4614	20.320923	0.000507	5.067832	1.717028	-0.000203
 894	8.8853e+01	4.4229	20.135214	0.000466	4.662406	1.579666	-0.000187
 895	8.8953e+01	4.3844	19.989878	0.000365	3.648839	1.236260	-0.000146
 896	8.9052e+01	4.3443	19.792058	0.000497	4.966476	1.682688	-0.000199
 897	8.9152e+01	4.3009	19.590201	0.000507	5.067832	1.717028	-0.000203
 898	8.9251e+01	4.2576	19.412567	0.000446	4.459693	1.510985	-0.000179
 899	8.9351e+01	4.2191	19.198599	0.000537	5.371902	1.820050	-0.000215
 900	8.9451e+01	4.1806	19.025002	0.000436	4.358336	1.476644	-0.000174
 901	8.9550e+01	4.1421	18.871591	0.000385	3.851553	1.304941	-0.000154
 902	8.9650e+01	4.1068	18.746440	0.000314	3.142056	1.064557	-0.000126
 903	8.9749e+01	4.0555	18.593029	0.000385	3.851553	1.304941	-0.000154
 904	8.9849e+01	4.0218	18.419432	0.000436	4.358336	1.476644	-0.000174
 905	8.9948e+01	3.9865	18.266021	0.000385	3.851553	1.304941	-0.000154
 906	9.0047e+01	3.9416	18.088387	0.000446	4.459693	1.510985	-0.000179
 907	9.0147e+01	3.9063	17.943050	0.000365	3.648839	1.236260	-0.000146
 908	9.0246e+01	3.8518	17.761379	0.000456	4.561049	1.545325	-0.000183
 909	9.0346e+01	3.8277	17.555485	0.000517	5.169189	1.751369	-0.000207
 910	9.0445e+01	3.7860	17.406111	0.000375	3.750196	1.270601	-0.000150
 911	9.0545e+01	3.7411	17.212328	0.000487	4.865119	1.648347	-0.000195
 912	9.0644e+01	3.7010	16.998360	0.000537	5.371902	1.820050	-0.000215
 913	9.0744e+01	3.6593	16.832837	0.000416	4.155623	1.407963	-0.000166
 914	9.0844e+01	3.6224	16.675389	0.000395	3.952909	1.339282	-0.000158
 915	9.0943e+01	3.5935	16.485644	0.000476	4.763762	1.614006	-0.000191
 916	9.1043e+01	3.5534	16.267638	0.000547	5.473259	1.854390	-0.000219
 917	9.1142e+01	3.4988	16.110190	0.000395	3.952909	1.339282	-0.000158
 918	9.1242e+01	3.4716	15.924482	0.000466	4.662406	1.579666	-0.000187
 919	9.1341e+01	3.4218	15.767034	0.000395	3.952909	1.339282	-0.000158
 920	9.1441e+01	3.3913	15.581325	0.000466	4.662406	1.579666	-0.000187
 921	9.1540e+01	3.3480	15.431951	0.000375	3.750196	1.270601	-0.000150
 922	9.1639e+01	3.3079	15.294689	0.000345	3.446126	1.167579	-0.000138
 923	9.1739e+01	3.2710	15.108980	0.000466	4.662406	1.579666	-0.000187
 924	9.1838e+01	3.2229	14.895012	0.000537	5.371902	1.820050	-0.000215
 925	9.1938e+01	3.1812	14.745638	0.000375	3.750196	1.270601	-0.000150
 926	9.2037e+01	3.1475	14.604339	0.000355	3.547483	1.201920	-0.000142
 927	9.2137e+01	3.1074	14.398445	0.000517	5.169189	1.751369	-0.000207
 928	9.2237e+01	3.0705	14.240996	0.000395	3.952909	1.339282	-0.000158
 929	9.2336e+01	3.0208	14.043177	0.000497	4.966476	1.682688	-0.000199
 930	9.2436e+01	2.9887	13.881691	0.000405	4.054266	1.373622	-0.000162
 931	9.2535e+01	2.9438	13.671760	0.000527	5.270546	1.785709	-0.000211
 932	9.2635e+01	2.9101	13.534498	0.000345	3.446126	1.167579	-0.000138
 933	9.2734e+01	2.8636	13.336678	0.000497	4.966476	1.682688	-0.000199
 934	9.2834e+01	2.8299	13.155007	0.000456	4.561049	1.545325	-0.000183
 935	9.2933e+01	2.7930	12.920853	0.000588	5.878686	1.991753	-0.000235
 936	9.3032e+01	2.7481	12.763405	0.000395	3.952909	1.339282	-0.000158
 937	9.3132e+01	2.6999	12.577696	0.000466	4.662406	1.579666	-0.000187
 938	9.3231e+01	2.6759	12.420248	0.000395	3.952909	1.339282	-0.000158
 939	9.3331e+01	2.6390	12.258763	0.000405	4.054266	1.373622	-0.000162
 940	9.3430e+01	2.5940	12.093240	0.000416	4.155623	1.407963	-0.000166
 941	9.3530e+01	2.5491	11.887346	0.000517	5.169189	1.751369	-0.000207
 942	9.3629e+01	2.5122	11.770269	0.000294	2.939343	0.995876	-0.000118
 943	9.3729e+01	2.4689	11.560338	0.000527	5.270546	1.785709	-0.000211
 944	9.3829e+01	2.4336	11.382704	0.000446	4.459693	1.510985	-0.000179
 945	9.3928e+01	2.3903	11.164699	0.000547	5.473259	1.854390	-0.000219
 946	9.4028e+01	2.3502	11.039548	0.000314	3.142056	1.064557	-0.000126
 947	9.4127e+01	2.3069	10.861914	0.000446	4.459693	1.510985	-0.000179
 948	9.4227e+01	2.2636	10.680243	0.000456	4.561049	1.545325	-0.000183
 949	9.4326e+01	2.2267	10.510683	0.000426	4.256979	1.442304	-0.000170
 950	9.4425e+01	2.1898	10.353235	0.000395	3.952909	1.339282	-0.000158
 951	9.4525e+01	2.1449	10.111006	0.000608	6.081399	2.060434	-0.000243
 952	9.4624e+01	2.1015	9.941447	0.000426	4.256979	1.442304	-0.000170
 953	9.4724e+01	2.0759	9.711330	0.000578	5.777329	1.957412	-0.000231
 954	9.4823e+01	2.0342	9.489288	0.000557	5.574616	1.888731	-0.000223
 955	9.4923e+01	1.9957	9.339914	0.000375	3.750196	1.270601	-0.000150
 956	9.5022e+01	1.9475	9.158242	0.000456	4.561049	1.545325	-0.000183
 957	9.5122e+01	1.9106	9.033091	0.000314	3.142056	1.064557	-0.000126
 958	9.5222e+01	1.8705	8.851420	0.000456	4.561049	1.545325	-0.000183
 959	9.5321e+01	1.8368	8.689935	0.000405	4.054266	1.373622	-0.000162
 960	9.5421e+01	1.7855	8.496152	0.000487	4.865119	1.648347	-0.000195
 961	9.5520e+01	1.7534	8.290258	0.000517	5.169189	1.751369	-0.000207
 962	9.5620e+01	1.7149	8.128773	0.000405	4.054266	1.373622	-0.000162
 963	9.5719e+01	1.6732	7.930953	0.000497	4.966476	1.682688	-0.000199
 964	9.5819e+01	1.6251	7.773505	0.000395	3.952909	1.339282	-0.000158
 965	9.5918e+01	1.5914	7.628168	0.000365	3.648839	1.236260	-0.000146
 966	9.6017e+01	1.5561	7.389977	0.000598	5.980042	2.026093	-0.000239
 967	9.6117e+01	1.5144	7.240603	0.000375	3.750196	1.270601	-0.000150
 968	9.6216e+01	1.4695	7.022598	0.000547	5.473259	1.854390	-0.000219
 969	9.6316e+01	1.4326	6.901484	0.000304	3.040699	1.030217	-0.000122
 970	9.6415e+01	1.4021	6.695590	0.000517	5.169189	1.751369	-0.000207
 971	9.6515e+01	1.3556	6.493733	0.000507	5.067832	1.717028	-0.000203
 972	9.6615e+01	1.3219	6.308025	0.000466	4.662406	1.579666	-0.000187
 973	9.6714e+01	1.2722	6.098094	0.000527	5.270546	1.785709	-0.000211
 974	9.6814e+01	1.2401	5.920460	0.000446	4.459693	1.510985	-0.000179
 975	9.6913e+01	1.2000	5.815494	0.000264	2.635273	0.892855	-0.000105
 976	9.7013e+01	1.1518	5.581340	0.000588	5.878686	1.991753	-0.000235
 977	9.7112e+01	1.1053	5.468300	0.000284	2.837986	0.961536	-0.000114
 978	9.7212e+01	1.0636	5.278555	0.000476	4.763762	1.614006	-0.000191
 979	9.7311e+01	1.0315	5.121107	0.000395	3.952909	1.339282	-0.000158
 980	9.7410e+01	0.9962	4.915213	0.000517	5.169189	1.751369	-0.000207
 981	9.7510e+01	0.9481	4.749690	0.000416	4.155623	1.407963	-0.000166
 982	9.7609e+01	0.9112	4.551871	0.000497	4.966476	1.682688	-0.000199
 983	9.7709e+01	0.8775	4.434794	0.000294	2.939343	0.995876	-0.000118
 984	9.7808e+01	0.8262	4.228900	0.000517	5.169189	1.751369	-0.000207
 985	9.7908e+01	0.7909	4.059340	0.000426	4.256979	1.442304	-0.000170
 986	9.8007e+01	0.7524	3.853446	0.000517	5.169189	1.751369	-0.000207
 987	9.8107e+01	0.7139	3.695998	0.000395	3.952909	1.339282	-0.000158
 988	9.8207e+01	0.6690	3.514327	0.000456	4.561049	1.545325	-0.000183
 989	9.8306e+01	0.6353	3.340730	0.000436	4.358336	1.476644	-0.000174
 990	9.8406e+01	0.6016	3.175207	0.000416	4.155623	1.407963	-0.000166
 991	9.8505e+01	0.5615	2.957202	0.000547	5.473259	1.854390	-0.000219
 992	9.8605e+01	0.5150	2.767457	0.000476	4.763762	1.614006	-0.000191
 993	9.8704e+01	0.4797	2.630194	0.000345	3.446126	1.167579	-0.000138
 994	9.8803e+01	0.4444	2.476783	0.000385	3.851553	1.304941	-0.000154
 995	9.8903e+01	0.3978	2.258777	0.000547	5.473259	1.854390	-0.000219
 996	9.9002e+01	0.3545	2.069032	0.000476	4.763762	1.614006	-0.000191
 997	9.9102e+01	0.3176	1.911584	0.000395	3.952909	1.339282	-0.000158
 998	9.9201e+01	0.2711	1.758173	0.000385	3.851553	1.304941	-0.000154
 999	9.9301e+01	0.2390	1.536130	0.000557	5.574616	1.888731	-0.000223
1000	9.9400e+01	0.1957	1.402905	0.000334	3.344769	1.133239	-0.000134
1001	9.9500e+01	0.1556	1.205085	0.000497	4.966476	1.682688	-0.000199
1002	9.9600e+01	0.0979	1.043600	0.000405	4.054266	1.373622	-0.000162
1003	9.9699e+01	0.0770	0.870003	0.000436	4.358336	1.476644	-0.000174
1004	9.9799e+01	0.0209	0.704480	0.000416	4.155623	1.407963	-0.000166
1005	9.9898e+01	0.0112	0.563180	0.000355	3.547483	1.201920	-0.000142
1006	9.9998e+01	-0.0417	0.389584	0.000436	4.358336	1.476644	-0.000174
1007	1.0010e+02	-0.0786	0.175615	0.000537	5.371902	1.820050	-0.000215
1008	1.0020e+02	-0.1091	0.046427	0.000324	3.243413	1.098898	-0.000130
1009	1.0030e+02	-0.1508	-0.215987	0.000659	6.588182	2.232137	-0.000264
1010	1.0040e+02	-0.1909	-0.357287	0.000355	3.547483	1.201920	-0.000142
1011	1.0050e+02	-0.2246	-0.542995	0.000466	4.662406	1.579666	-0.000187
1012	1.0059e+02	-0.2759	-0.639886	0.000243	2.432560	0.824173	-0.000097
1013	1.0069e+02	-0.3112	-0.857891	0.000547	5.473259	1.854390	-0.000219
1014	1.0079e+02	-0.3433	-1.031488	0.000436	4.358336	1.476644	-0.000174
1015	1.0089e+02	-0.3866	-1.188936	0.000395	3.952909	1.339282	-0.000158
1016	1.0099e+02	-0.4428	-1.386756	0.000497	4.966476	1.682688	-0.000199
1017	1.0109e+02	-0.4749	-1.524019	0.000345	3.446126	1.167579	-0.000138
1018	1.0119e+02	-0.5101	-1.729913	0.000517	5.169189	1.751369	-0.000207
1019	1.0129e+02	-0.5454	-1.891398	0.000405	4.054266	1.373622	-0.000162
1020	1.0139e+02	-0.5920	-2.101329	0.000527	5.270546	1.785709	-0.000211
1021	1.0149e+02	-0.6401	-2.242629	0.000355	3.547483	1.201920	-0.000142
1022	1.0159e+02	-0.6674	-2.416226	0.000436	4.358336	1.476644	-0.000174
1023	1.0169e+02	-0.7155	-2.569637	0.000385	3.851553	1.304941	-0.000154
1024	1.0179e+02	-0.7556	-2.751308	0.000456	4.561049	1.545325	-0.000183
1025	1.0189e+02	-0.7909	-2.941053	0.000476	4.763762	1.614006	-0.000191
1026	1.0199e+02	-0.8294	-3.150984	0.000527	5.270546	1.785709	-0.000211
1027	1.0209e+02	-0.8695	-3.308433	0.000395	3.952909	1.339282	-0.000158
1028	1.0219e+02	-0.9176	-3.502215	0.000487	4.865119	1.648347	-0.000195
1029	1.0229e+02	-0.9529	-3.667738	0.000416	4.155623	1.407963	-0.000166
1030	1.0239e+02	-0.9850	-3.825186	0.000395	3.952909	1.339282	-0.000158
1031	1.0248e+02	-1.0363	-3.998783	0.000436	4.358336	1.476644	-0.000174
1032	1.0258e+02	-1.0572	-4.144120	0.000365	3.648839	1.236260	-0.000146
1033	1.0268e+02	-1.1117	-4.305605	0.000405	4.054266	1.373622	-0.000162
1034	1.0278e+02	-1.1470	-4.495351	0.000476	4.763762	1.614006	-0.000191
1035	1.0288e+02	-1.1968	-4.648762	0.000385	3.851553	1.304941	-0.000154
1036	1.0298e+02	-1.2288	-4.810247	0.000405	4.054266	1.373622	-0.000162
1037	1.0308e+02	-1.2754	-5.004030	0.000487	4.865119	1.648347	-0.000195
1038	1.0318e+02	-1.3123	-5.169552	0.000416	4.155623	1.407963	-0.000166
1039	1.0328e+02	-1.3556	-5.343149	0.000436	4.358336	1.476644	-0.000174
1040	1.0338e+02	-1.3941	-5.484449	0.000355	3.547483	1.201920	-0.000142
1041	1.0348e+02	-1.4374	-5.662083	0.000446	4.459693	1.510985	-0.000179
1042	1.0358e+02	-1.4711	-5.823568	0.000405	4.054266	1.373622	-0.000162
1043	1.0368e+02	-1.5048	-6.029462	0.000517	5.169189	1.751369	-0.000207
1044	1.0378e+02	-1.5353	-6.223245	0.000487	4.865119	1.648347	-0.000195
1045	1.0388e+02	-1.5866	-6.465473	0.000608	6.081399	2.060434	-0.000243
1046	1.0398e+02	-1.6251	-6.574476	0.000274	2.736630	0.927195	-0.000110
1047	1.0408e+02	-1.6716	-6.784407	0.000527	5.270546	1.785709	-0.000211
1048	1.0418e+02	-1.7069	-6.889372	0.000264	2.635273	0.892855	-0.000105
1049	1.0428e+02	-1.7534	-7.091229	0.000507	5.067832	1.717028	-0.000203
1050	1.0438e+02	-1.7855	-7.180046	0.000223	2.229846	0.755492	-0.000089
1051	1.0447e+02	-1.8256	-7.389977	0.000527	5.270546	1.785709	-0.000211
1052	1.0457e+02	-1.8721	-7.563574	0.000436	4.358336	1.476644	-0.000174
1053	1.0467e+02	-1.9090	-7.725059	0.000405	4.054266	1.373622	-0.000162
1054	1.0477e+02	-1.9491	-7.951139	0.000568	5.675972	1.923071	-0.000227
1055	1.0487e+02	-1.9844	-8.108587	0.000395	3.952909	1.339282	-0.000158
1056	1.0497e+02	-2.0326	-8.282184	0.000436	4.358336	1.476644	-0.000174
1057	1.0507e+02	-2.0550	-8.447707	0.000416	4.155623	1.407963	-0.000166
1058	1.0517e+02	-2.1128	-8.617266	0.000426	4.256979	1.442304	-0.000170
1059	1.0527e+02	-2.1481	-8.798937	0.000456	4.561049	1.545325	-0.000183
1060	1.0537e+02	-2.1946	-8.956386	0.000395	3.952909	1.339282	-0.000158
1061	1.0547e+02	-2.2235	-9.129982	0.000436	4.358336	1.476644	-0.000174
1062	1.0557e+02	-2.2572	-9.364136	0.000588	5.878686	1.991753	-0.000235
1063	1.0567e+02	-2.3037	-9.529659	0.000416	4.155623	1.407963	-0.000166
1064	1.0577e+02	-2.3534	-9.715367	0.000466	4.662406	1.579666	-0.000187
1065	1.0587e+02	-2.3903	-9.925298	0.000527	5.270546	1.785709	-0.000211
1066	1.0597e+02	-2.4272	-10.066598	0.000355	3.547483	1.201920	-0.000142
1067	1.0607e+02	-2.4657	-10.211935	0.000365	3.648839	1.236260	-0.000146
1068	1.0617e+02	-2.5106	-10.361309	0.000375	3.750196	1.270601	-0.000150
1069	1.0627e+02	-2.5427	-10.530869	0.000426	4.256979	1.442304	-0.000170
1070	1.0637e+02	-2.5876	-10.700428	0.000426	4.256979	1.442304	-0.000170
1071	1.0647e+02	-2.6245	-10.849802	0.000375	3.750196	1.270601	-0.000150
1072	1.0656e+02	-2.6614	-11.063770	0.000537	5.371902	1.820050	-0.000215
1073	1.0666e+02	-2.7047	-11.229293	0.000416	4.155623	1.407963	-0.000166
1074	1.0676e+02	-2.7400	-11.382704	0.000385	3.851553	1.304941	-0.000154
1075	1.0686e+02	-2.7898	-11.624932	0.000608	6.081399	2.060434	-0.000243
1076	1.0696e+02	-2.8186	-11.742009	0.000294	2.939343	0.995876	-0.000118
1077	1.0706e+02	-2.8652	-11.879272	0.000345	3.446126	1.167579	-0.000138
1078	1.0716e+02	-2.9085	-12.105352	0.000568	5.675972	1.923071	-0.000227
1079	1.0726e+02	-2.9438	-12.266837	0.000405	4.054266	1.373622	-0.000162
1080	1.0736e+02	-2.9839	-12.476768	0.000527	5.270546	1.785709	-0.000211
1081	1.0746e+02	-3.0208	-12.670551	0.000487	4.865119	1.648347	-0.000195
1082	1.0756e+02	-3.0625	-12.872407	0.000507	5.067832	1.717028	-0.000203
1083	1.0766e+02	-3.0994	-13.037930	0.000416	4.155623	1.407963	-0.000166
1084	1.0776e+02	-3.1491	-13.207490	0.000426	4.256979	1.442304	-0.000170
1085	1.0786e+02	-3.1748	-13.393198	0.000466	4.662406	1.579666	-0.000187
1086	1.0796e+02	-3.2229	-13.506238	0.000284	2.837986	0.961536	-0.000114
1087	1.0806e+02	-3.2646	-13.655612	0.000375	3.750196	1.270601	-0.000150
1088	1.0816e+02	-3.2999	-13.849394	0.000487	4.865119	1.648347	-0.000195
1089	1.0826e+02	-3.3464	-14.014917	0.000416	4.155623	1.407963	-0.000166
1090	1.0836e+02	-3.3833	-14.152179	0.000345	3.446126	1.167579	-0.000138
1091	1.0845e+02	-3.4186	-14.374222	0.000557	5.574616	1.888731	-0.000223
1092	1.0855e+02	-3.4523	-14.547819	0.000436	4.358336	1.476644	-0.000174
1093	1.0865e+02	-3.5069	-14.685081	0.000345	3.446126	1.167579	-0.000138
1094	1.0875e+02	-3.5470	-14.919235	0.000588	5.878686	1.991753	-0.000235
1095	1.0885e+02	-3.5839	-15.076683	0.000395	3.952909	1.339282	-0.000158
1096	1.0895e+02	-3.6159	-15.266429	0.000476	4.763762	1.614006	-0.000191
1097	1.0905e+02	-3.6577	-15.448100	0.000456	4.561049	1.545325	-0.000183
1098	1.0915e+02	-3.7042	-15.593437	0.000365	3.648839	1.236260	-0.000146
1099	1.0925e+02	-3.7314	-15.779145	0.000466	4.662406	1.579666	-0.000187
1100	1.0935e+02	-3.7748	-15.989076	0.000527	5.270546	1.785709	-0.000211
1101	1.0945e+02	-3.8117	-16.182859	0.000487	4.865119	1.648347	-0.000195
1102	1.0955e+02	-3.8582	-16.340307	0.000395	3.952909	1.339282	-0.000158
1103	1.0965e+02	-3.8999	-16.497755	0.000395	3.952909	1.339282	-0.000158
1104	1.0975e+02	-3.9368	-16.687501	0.000476	4.763762	1.614006	-0.000191
1105	1.0985e+02	-3.9785	-16.832837	0.000365	3.648839	1.236260	-0.000146
1106	1.0995e+02	-4.0234	-17.018546	0.000466	4.662406	1.579666	-0.000187
1107	1.1005e+02	-4.0587	-17.151771	0.000334	3.344769	1.133239	-0.000134
1108	1.1015e+02	-4.0972	-17.317294	0.000416	4.155623	1.407963	-0.000166
1109	1.1025e+02	-4.1421	-17.511076	0.000487	4.865119	1.648347	-0.000195
1110	1.1035e+02	-4.1854	-17.676599	0.000416	4.155623	1.407963	-0.000166
1111	1.1044e+02	-4.2111	-17.850196	0.000436	4.358336	1.476644	-0.000174
1112	1.1054e+02	-4.2624	-18.019755	0.000426	4.256979	1.442304	-0.000170
1113	1.1064e+02	-4.2833	-18.217575	0.000497	4.966476	1.682688	-0.000199
1114	1.1074e+02	-4.3443	-18.379060	0.000405	4.054266	1.373622	-0.000162
1115	1.1084e+02	-4.3812	-18.528434	0.000375	3.750196	1.270601	-0.000150
1116	1.1094e+02	-4.4197	-18.734328	0.000517	5.169189	1.751369	-0.000207
1117	1.1104e+02	-4.4662	-18.920037	0.000466	4.662406	1.579666	-0.000187
1118	1.1114e+02	-4.4999	-19.146116	0.000568	5.675972	1.923071	-0.000227
1119	1.1124e+02	-4.5384	-19.299527	0.000385	3.851553	1.304941	-0.000154
1120	1.1134e+02	-4.5689	-19.493310	0.000487	4.865119	1.648347	-0.000195
1121	1.1144e+02	-4.6154	-19.646721	0.000385	3.851553	1.304941	-0.000154
1122	1.1154e+02	-4.6651	-19.808206	0.000405	4.054266	1.373622	-0.000162
1123	1.1164e+02	-4.6972	-19.949506	0.000355	3.547483	1.201920	-0.000142
1124	1.1174e+02	-4.7277	-20.171549	0.000557	5.574616	1.888731	-0.000223
1125	1.1184e+02	-4.7726	-20.272477	0.000253	2.533916	0.858514	-0.000101
1126	1.1194e+02	-4.8207	-20.474334	0.000507	5.067832	1.717028	-0.000203
1127	1.1204e+02	-4.8544	-20.676191	0.000507	5.067832	1.717028	-0.000203
1128	1.1214e+02	-4.9009	-20.833639	0.000395	3.952909	1.339282	-0.000158
1129	1.1224e+02	-4.9362	-20.995124	0.000405	4.054266	1.373622	-0.000162
1130	1.1234e+02	-4.9747	-21.188907	0.000487	4.865119	1.648347	-0.000195
1131	1.1244e+02	-5.0196	-21.346355	0.000395	3.952909	1.339282	-0.000158
1132	1.1253e+02	-5.0614	-21.479581	0.000334	3.344769	1.133239	-0.000134
1133	1.1263e+02	-5.0934	-21.641066	0.000405	4.054266	1.373622	-0.000162
1134	1.1273e+02	-5.1303	-21.895406	0.000639	6.385469	2.163455	-0.000256
1135	1.1283e+02	-5.1769	-22.064965	0.000426	4.256979	1.442304	-0.000170
1136	1.1293e+02	-5.2105	-22.254711	0.000476	4.763762	1.614006	-0.000191
1137	1.1303e+02	-5.2539	-22.428308	0.000436	4.358336	1.476644	-0.000174
1138	1.1313e+02	-5.2876	-22.609979	0.000456	4.561049	1.545325	-0.000183
1139	1.1323e+02	-5.3341	-22.759353	0.000375	3.750196	1.270601	-0.000150
1140	1.1333e+02	-5.3662	-22.928912	0.000426	4.256979	1.442304	-0.000170
1141	1.1343e+02	-5.4063	-23.029841	0.000253	2.533916	0.858514	-0.000101
1142	1.1353e+02	-5.4560	-23.223623	0.000487	4.865119	1.648347	-0.000195
1143	1.1363e+02	-5.4833	-23.393183	0.000426	4.256979	1.442304	-0.000170
1144	1.1373e+02	-5.5314	-23.570817	0.000446	4.459693	1.510985	-0.000179
1145	1.1383e+02	-5.5795	-23.732302	0.000405	4.054266	1.373622	-0.000162
1146	1.1393e+02	-5.6132	-23.869565	0.000345	3.446126	1.167579	-0.000138
1147	1.1403e+02	-5.6501	-24.022976	0.000385	3.851553	1.304941	-0.000154
1148	1.1413e+02	-5.6982	-24.220796	0.000497	4.966476	1.682688	-0.000199
1149	1.1423e+02	-5.7335	-24.382281	0.000405	4.054266	1.373622	-0.000162
1150	1.1433e+02	-5.7704	-24.539730	0.000395	3.952909	1.339282	-0.000158
1151	1.1442e+02	-5.8137	-24.769846	0.000578	5.777329	1.957412	-0.000231
1152	1.1452e+02	-5.8522	-24.862700	0.000233	2.331203	0.789833	-0.000093
1153	1.1462e+02	-5.8891	-25.056483	0.000487	4.865119	1.648347	-0.000195
1154	1.1472e+02	-5.9308	-25.286600	0.000578	5.777329	1.957412	-0.000231
1155	1.1482e+02	-5.9726	-25.448085	0.000405	4.054266	1.373622	-0.000162
1156	1.1492e+02	-6.0030	-25.601496	0.000385	3.851553	1.304941	-0.000154
1157	1.1502e+02	-6.0431	-25.758945	0.000395	3.952909	1.339282	-0.000158
1158	1.1512e+02	-6.0913	-25.908319	0.000375	3.750196	1.270601	-0.000150
1159	1.1522e+02	-6.1346	-26.053655	0.000365	3.648839	1.236260	-0.000146
1160	1.1532e+02	-6.1683	-26.207067	0.000385	3.851553	1.304941	-0.000154
1161	1.1542e+02	-6.2116	-26.348366	0.000355	3.547483	1.201920	-0.000142
1162	1.1552e+02	-6.2517	-26.546186	0.000497	4.966476	1.682688	-0.000199
1163	1.1562e+02	-6.3014	-26.659226	0.000284	2.837986	0.961536	-0.000114
1164	1.1572e+02	-6.3255	-26.844934	0.000466	4.662406	1.579666	-0.000187
1165	1.1582e+02	-6.3736	-27.010457	0.000416	4.155623	1.407963	-0.000166
1166	1.1592e+02	-6.4105	-27.167905	0.000395	3.952909	1.339282	-0.000158
1167	1.1602e+02	-6.4506	-27.353613	0.000466	4.662406	1.579666	-0.000187
1168	1.1612e+02	-6.4907	-27.494913	0.000355	3.547483	1.201920	-0.000142
1169	1.1622e+02	-6.5260	-27.672547	0.000446	4.459693	1.510985	-0.000179
1170	1.1632e+02	-6.5549	-27.862292	0.000476	4.763762	1.614006	-0.000191
1171	1.1642e+02	-6.6078	-27.999555	0.000345	3.446126	1.167579	-0.000138
1172	1.1651e+02	-6.6463	-28.229672	0.000578	5.777329	1.957412	-0.000231
1173	1.1661e+02	-6.6800	-28.338674	0.000274	2.736630	0.927195	-0.000110
1174	1.1671e+02	-6.7185	-28.544568	0.000517	5.169189	1.751369	-0.000207
1175	1.1681e+02	-6.7602	-28.657608	0.000284	2.837986	0.961536	-0.000114
1176	1.1691e+02	-6.8148	-28.819093	0.000405	4.054266	1.373622	-0.000162
1177	1.1701e+02	-6.8340	-28.932133	0.000284	2.837986	0.961536	-0.000114
1178	1.1711e+02	-6.8918	-29.101693	0.000426	4.256979	1.442304	-0.000170
1179	1.1721e+02	-6.9207	-29.259141	0.000395	3.952909	1.339282	-0.000158
1180	1.1731e+02	-6.9640	-29.460998	0.000507	5.067832	1.717028	-0.000203
1181	1.1741e+02	-7.0105	-29.570001	0.000274	2.736630	0.927195	-0.000110
1182	1.1751e+02	-7.0394	-29.731486	0.000405	4.054266	1.373622	-0.000162
1183	1.1761e+02	-7.0923	-29.897009	0.000416	4.155623	1.407963	-0.000166
1184	1.1771e+02	-7.1292	-30.078680	0.000456	4.561049	1.545325	-0.000183
1185	1.1781e+02	-7.1693	-30.248240	0.000426	4.256979	1.442304	-0.000170
1186	1.1791e+02	-7.2046	-30.401651	0.000385	3.851553	1.304941	-0.000154
1187	1.1801e+02	-7.2463	-30.583322	0.000456	4.561049	1.545325	-0.000183
1188	1.1811e+02	-7.2912	-30.712510	0.000324	3.243413	1.098898	-0.000130
1189	1.1821e+02	-7.3153	-30.886107	0.000436	4.358336	1.476644	-0.000174
1190	1.1831e+02	-7.3586	-31.063741	0.000446	4.459693	1.510985	-0.000179
1191	1.1841e+02	-7.4019	-31.237338	0.000436	4.358336	1.476644	-0.000174
1192	1.1850e+02	-7.4404	-31.398823	0.000405	4.054266	1.373622	-0.000162
1193	1.1860e+02	-7.4789	-31.564346	0.000416	4.155623	1.407963	-0.000166
1194	1.1870e+02	-7.5222	-31.689497	0.000314	3.142056	1.064557	-0.000126
1195	1.1880e+02	-7.5575	-31.806574	0.000294	2.939343	0.995876	-0.000118
1196	1.1890e+02	-7.6057	-31.980171	0.000436	4.358336	1.476644	-0.000174
1197	1.1900e+02	-7.6394	-32.133582	0.000385	3.851553	1.304941	-0.000154
1198	1.1910e+02	-7.6875	-32.274882	0.000355	3.547483	1.201920	-0.000142
1199	1.1920e+02	-7.7276	-32.452516	0.000446	4.459693	1.510985	-0.000179
1200	1.1930e+02	-7.7629	-32.577667	0.000314	3.142056	1.064557	-0.000126
1201	1.1940e+02	-7.7966	-32.723004	0.000365	3.648839	1.236260	-0.000146
1202	1.1950e+02	-7.8479	-32.872378	0.000375	3.750196	1.270601	-0.000150
1203	1.1960e+02	-7.8848	-33.037900	0.000416	4.155623	1.407963	-0.000166
1204	1.1970e+02	-7.9233	-33.195349	0.000395	3.952909	1.339282	-0.000158
1205	1.1980e+02	-7.9586	-33.389131	0.000487	4.865119	1.648347	-0.000195
1206	1.1990e+02	-8.0019	-33.522357	0.000334	3.344769	1.133239	-0.000134
1207	1.2000e+02	-8.0324	-33.675768	0.000385	3.851553	1.304941	-0.000154
1208	1.2010e+02	-8.0741	-33.821105	0.000365	3.648839	1.236260	-0.000146
1209	1.2020e+02	-8.1142	-33.990664	0.000426	4.256979	1.442304	-0.000170
1210	1.2030e+02	-8.1639	-34.200595	0.000527	5.270546	1.785709	-0.000211
1211	1.2039e+02	-8.2008	-34.349969	0.000375	3.750196	1.270601	-0.000150
1212	1.2049e+02	-8.2442	-34.458972	0.000274	2.736630	0.927195	-0.000110
1213	1.2059e+02	-8.2810	-34.620458	0.000405	4.054266	1.373622	-0.000162
1214	1.2069e+02	-8.3115	-34.733497	0.000284	2.837986	0.961536	-0.000114
1215	1.2079e+02	-8.3532	-34.878834	0.000365	3.648839	1.236260	-0.000146
1216	1.2089e+02	-8.3933	-35.036283	0.000395	3.952909	1.339282	-0.000158
1217	1.2099e+02	-8.4383	-35.157397	0.000304	3.040699	1.030217	-0.000122
1218	1.2109e+02	-8.4800	-35.330993	0.000436	4.358336	1.476644	-0.000174
1219	1.2119e+02	-8.5169	-35.516702	0.000466	4.662406	1.579666	-0.000187
1220	1.2129e+02	-8.5602	-35.662039	0.000365	3.648839	1.236260	-0.000146
1221	1.2139e+02	-8.5859	-35.827561	0.000416	4.155623	1.407963	-0.000166
1222	1.2149e+02	-8.6452	-35.964824	0.000345	3.446126	1.167579	-0.000138
1223	1.2159e+02	-8.6837	-36.110161	0.000365	3.648839	1.236260	-0.000146
1224	1.2169e+02	-8.7222	-36.299906	0.000476	4.763762	1.614006	-0.000191
1225	1.2179e+02	-8.7559	-36.453317	0.000385	3.851553	1.304941	-0.000154
1226	1.2189e+02	-8.7912	-36.622877	0.000426	4.256979	1.442304	-0.000170
1227	1.2199e+02	-8.8297	-36.788399	0.000416	4.155623	1.407963	-0.000166
1228	1.2209e+02	-8.8891	-36.937773	0.000375	3.750196	1.270601	-0.000150
1229	1.2219e+02	-8.9163	-37.103296	0.000416	4.155623	1.407963	-0.000166
1230	1.2229e+02	-8.9612	-37.244596	0.000355	3.547483	1.201920	-0.000142
1231	1.2239e+02	-8.9917	-37.381858	0.000345	3.446126	1.167579	-0.000138
1232	1.2248e+02	-9.0350	-37.543344	0.000405	4.054266	1.373622	-0.000162
1233	1.2258e+02	-9.0800	-37.672532	0.000324	3.243413	1.098898	-0.000130
1234	1.2268e+02	-9.1136	-37.825943	0.000385	3.851553	1.304941	-0.000154
1235	1.2278e+02	-9.1586	-37.947057	0.000304	3.040699	1.030217	-0.000122
1236	1.2288e+02	-9.2003	-38.112580	0.000416	4.155623	1.407963	-0.000166
1237	1.2298e+02	-9.2340	-38.294251	0.000456	4.561049	1.545325	-0.000183
1238	1.2308e+02	-9.2725	-38.455736	0.000405	4.054266	1.373622	-0.000162
1239	1.2318e+02	-9.3222	-38.576851	0.000304	3.040699	1.030217	-0.000122
1240	1.2328e+02	-9.3527	-38.770633	0.000487	4.865119	1.648347	-0.000195
1241	1.2338e+02	-9.4024	-38.928081	0.000395	3.952909	1.339282	-0.000158
1242	1.2348e+02	-9.4297	-39.089567	0.000405	4.054266	1.373622	-0.000162
1243	1.2358e+02	-9.4794	-39.238941	0.000375	3.750196	1.270601	-0.000150
1244	1.2368e+02	-9.5115	-39.420612	0.000456	4.561049	1.545325	-0.000183
1245	1.2378e+02	-9.5532	-39.561912	0.000355	3.547483	1.201920	-0.000142
1246	1.2388e+02	-9.5949	-39.739546	0.000446	4.459693	1.510985	-0.000179
1247	1.2398e+02	-9.6206	-39.864697	0.000314	3.142056	1.064557	-0.000126
1248	1.2408e+02	-9.6751	-40.042331	0.000446	4.459693	1.510985	-0.000179
1249	1.2418e+02	-9.7249	-40.171519	0.000324	3.243413	1.098898	-0.000130
1250	1.2428e+02	-9.7489	-40.320893	0.000375	3.750196	1.270601	-0.000150
1251	1.2438e+02	-9.7906	-40.458156	0.000345	3.446126	1.167579	-0.000138
1252	1.2447e+02	-9.8291	-40.627715	0.000426	4.256979	1.442304	-0.000170
1253	1.2457e+02	-9.8741	-40.760941	0.000334	3.344769	1.133239	-0.000134
1254	1.2467e+02	-9.9110	-40.886092	0.000314	3.142056	1.064557	-0.000126
1255	1.2477e+02	-9.9543	-41.031429	0.000365	3.648839	1.236260	-0.000146
1256	1.2487e+02	-10.0040	-41.196952	0.000416	4.155623	1.407963	-0.000166
1257	1.2497e+02	-10.0361	-41.326140	0.000324	3.243413	1.098898	-0.000130
1258	1.2507e+02	-10.0650	-41.568368	0.000608	6.081399	2.060434	-0.000243
1259	1.2517e+02	-10.0970	-41.709668	0.000355	3.547483	1.201920	-0.000142
1260	1.2527e+02	-10.1484	-41.875190	0.000416	4.155623	1.407963	-0.000166
1261	1.2537e+02	-10.1981	-42.060899	0.000466	4.662406	1.579666	-0.000187
1262	1.2547e+02	-10.2270	-42.182013	0.000304	3.040699	1.030217	-0.000122
1263	1.2557e+02	-10.2671	-42.371758	0.000476	4.763762	1.614006	-0.000191
1264	1.2567e+02	-10.3120	-42.509021	0.000345	3.446126	1.167579	-0.000138
1265	1.2577e+02	-10.3601	-42.666469	0.000395	3.952909	1.339282	-0.000158
1266	1.2587e+02	-10.3922	-42.779509	0.000284	2.837986	0.961536	-0.000114
1267	1.2597e+02	-10.4227	-42.916771	0.000345	3.446126	1.167579	-0.000138
1268	1.2607e+02	-10.4724	-43.058071	0.000355	3.547483	1.201920	-0.000142
1269	1.2617e+02	-10.5077	-43.199371	0.000355	3.547483	1.201920	-0.000142
1270	1.2627e+02	-10.5526	-43.385079	0.000466	4.662406	1.579666	-0.000187
1271	1.2636e+02	-10.5911	-43.514268	0.000324	3.243413	1.098898	-0.000130
1272	1.2646e+02	-10.6248	-43.635382	0.000304	3.040699	1.030217	-0.000122
1273	1.2656e+02	-10.6698	-43.792830	0.000395	3.952909	1.339282	-0.000158
1274	1.2666e+02	-10.7147	-44.002761	0.000527	5.270546	1.785709	-0.000211
1275	1.2676e+02	-10.7484	-44.123875	0.000304	3.040699	1.030217	-0.000122
1276	1.2686e+02	-10.7869	-44.257101	0.000334	3.344769	1.133239	-0.000134
1277	1.2696e+02	-10.8189	-44.487217	0.000578	5.777329	1.957412	-0.000231
1278	1.2706e+02	-10.8719	-44.640628	0.000385	3.851553	1.304941	-0.000154
1279	1.2716e+02	-10.9008	-44.794040	0.000385	3.851553	1.304941	-0.000154
1280	1.2726e+02	-10.9521	-44.963599	0.000426	4.256979	1.442304	-0.000170
1281	1.2736e+02	-10.9858	-45.121048	0.000395	3.952909	1.339282	-0.000158
1282	1.2746e+02	-11.0243	-45.278496	0.000395	3.952909	1.339282	-0.000158
1283	1.2756e+02	-11.0740	-45.444018	0.000416	4.155623	1.407963	-0.000166
1284	1.2766e+02	-11.1029	-45.565133	0.000304	3.040699	1.030217	-0.000122
1285	1.2776e+02	-11.1430	-45.674135	0.000274	2.736630	0.927195	-0.000110
1286	1.2786e+02	-11.1815	-45.839658	0.000416	4.155623	1.407963	-0.000166
1287	1.2796e+02	-11.2296	-45.952698	0.000284	2.837986	0.961536	-0.000114
1288	1.2806e+02	-11.2729	-46.093997	0.000355	3.547483	1.201920	-0.000142
1289	1.2816e+02	-11.3147	-46.259520	0.000416	4.155623	1.407963	-0.000166
1290	1.2826e+02	-11.3532	-46.416968	0.000395	3.952909	1.339282	-0.000158
1291	1.2835e+02	-11.3917	-46.574416	0.000395	3.952909	1.339282	-0.000158
1292	1.2845e+02	-11.4237	-46.719753	0.000365	3.648839	1.236260	-0.000146
1293	1.2855e+02	-11.4638	-46.905462	0.000466	4.662406	1.579666	-0.000187
1294	1.2865e+02	-11.5120	-47.066947	0.000405	4.054266	1.373622	-0.000162
1295	1.2875e+02	-11.5457	-47.236507	0.000426	4.256979	1.442304	-0.000170
1296	1.2885e+02	-11.5810	-47.361658	0.000314	3.142056	1.064557	-0.000126
1297	1.2895e+02	-11.6275	-47.511032	0.000375	3.750196	1.270601	-0.000150
1298	1.2905e+02	-11.6660	-47.664443	0.000385	3.851553	1.304941	-0.000154
1299	1.2915e+02	-11.7045	-47.842077	0.000446	4.459693	1.510985	-0.000179
1300	1.2925e+02	-11.7350	-47.983377	0.000355	3.547483	1.201920	-0.000142
1301	1.2935e+02	-11.7815	-48.152937	0.000426	4.256979	1.442304	-0.000170
1302	1.2945e+02	-11.8232	-48.294236	0.000355	3.547483	1.201920	-0.000142
1303	1.2955e+02	-11.8649	-48.419387	0.000314	3.142056	1.064557	-0.000126
1304	1.2965e+02	-11.9114	-48.544539	0.000314	3.142056	1.064557	-0.000126
1305	1.2975e+02	-11.9467	-48.697950	0.000385	3.851553	1.304941	-0.000154
1306	1.2985e+02	-11.9852	-48.827138	0.000324	3.243413	1.098898	-0.000130
1307	1.2995e+02	-12.0301	-49.016884	0.000476	4.763762	1.614006	-0.000191
1308	1.3005e+02	-12.0702	-49.109738	0.000233	2.331203	0.789833	-0.000093
1309	1.3015e+02	-12.1071	-49.291409	0.000456	4.561049	1.545325	-0.000183
1310	1.3025e+02	-12.1473	-49.396374	0.000264	2.635273	0.892855	-0.000105
1311	1.3034e+02	-12.1922	-49.578045	0.000456	4.561049	1.545325	-0.000183
1312	1.3044e+02	-12.2226	-49.731457	0.000385	3.851553	1.304941	-0.000154
1313	1.3054e+02	-12.2628	-49.852571	0.000304	3.040699	1.030217	-0.000122
1314	1.3064e+02	-12.3061	-50.090762	0.000598	5.980042	2.026093	-0.000239
1315	1.3074e+02	-12.3382	-50.252247	0.000405	4.054266	1.373622	-0.000162
1316	1.3084e+02	-12.3799	-50.328953	0.000193	1.925776	0.652471	-0.000077
1317	1.3094e+02	-12.4200	-50.482364	0.000385	3.851553	1.304941	-0.000154
1318	1.3104e+02	-12.4697	-50.659998	0.000446	4.459693	1.510985	-0.000179
1319	1.3114e+02	-12.5114	-50.789186	0.000324	3.243413	1.098898	-0.000130
1320	1.3124e+02	-12.5403	-50.950672	0.000405	4.054266	1.373622	-0.000162
1321	1.3134e+02	-12.5836	-51.063711	0.000284	2.837986	0.961536	-0.000114
1322	1.3144e+02	-12.6205	-51.184825	0.000304	3.040699	1.030217	-0.000122
1323	1.3154e+02	-12.6622	-51.273642	0.000223	2.229846	0.755492	-0.000089
1324	1.3164e+02	-12.7103	-51.431091	0.000395	3.952909	1.339282	-0.000158
1325	1.3174e+02	-12.7440	-51.624873	0.000487	4.865119	1.648347	-0.000195
1326	1.3184e+02	-12.7825	-51.733876	0.000274	2.736630	0.927195	-0.000110
1327	1.3194e+02	-12.8339	-51.850953	0.000294	2.939343	0.995876	-0.000118
1328	1.3204e+02	-12.8531	-52.036661	0.000466	4.662406	1.579666	-0.000187
1329	1.3214e+02	-12.9044	-52.169887	0.000334	3.344769	1.133239	-0.000134
1330	1.3224e+02	-12.9365	-52.282926	0.000284	2.837986	0.961536	-0.000114
1331	1.3234e+02	-12.9750	-52.464597	0.000456	4.561049	1.545325	-0.000183
1332	1.3243e+02	-13.0135	-52.658380	0.000487	4.865119	1.648347	-0.000195
1333	1.3253e+02	-13.0472	-52.759308	0.000253	2.533916	0.858514	-0.000101
1334	1.3263e+02	-13.0905	-52.961165	0.000507	5.067832	1.717028	-0.000203
1335	1.3273e+02	-13.1371	-53.074205	0.000284	2.837986	0.961536	-0.000114
1336	1.3283e+02	-13.1724	-53.195319	0.000304	3.040699	1.030217	-0.000122
1337	1.3293e+02	-13.2173	-53.364879	0.000426	4.256979	1.442304	-0.000170
1338	1.3303e+02	-13.2670	-53.473881	0.000274	2.736630	0.927195	-0.000110
1339	1.3313e+02	-13.3023	-53.623255	0.000375	3.750196	1.270601	-0.000150
1340	1.3323e+02	-13.3360	-53.744370	0.000304	3.040699	1.030217	-0.000122
1341	1.3333e+02	-13.3777	-53.857409	0.000284	2.837986	0.961536	-0.000114
1342	1.3343e+02	-13.4178	-53.994672	0.000345	3.446126	1.167579	-0.000138
1343	1.3353e+02	-13.4675	-54.164232	0.000426	4.256979	1.442304	-0.000170
1344	1.3363e+02	-13.5076	-54.281309	0.000294	2.939343	0.995876	-0.000118
1345	1.3373e+02	-13.5429	-54.434720	0.000385	3.851553	1.304941	-0.000154
1346	1.3383e+02	-13.5734	-54.576019	0.000355	3.547483	1.201920	-0.000142
1347	1.3393e+02	-13.6215	-54.729431	0.000385	3.851553	1.304941	-0.000154
1348	1.3403e+02	-13.6552	-54.882842	0.000385	3.851553	1.304941	-0.000154
1349	1.3413e+02	-13.6921	-55.032216	0.000375	3.750196	1.270601	-0.000150
1350	1.3423e+02	-13.7419	-55.177553	0.000365	3.648839	1.236260	-0.000146
1351	1.3432e+02	-13.7772	-55.314815	0.000345	3.446126	1.167579	-0.000138
1352	1.3442e+02	-13.8108	-55.468226	0.000385	3.851553	1.304941	-0.000154
1353	1.3452e+02	-13.8542	-55.613563	0.000365	3.648839	1.236260	-0.000146
1354	1.3462e+02	-13.8943	-55.771012	0.000395	3.952909	1.339282	-0.000158
1355	1.3472e+02	-13.9376	-55.875977	0.000264	2.635273	0.892855	-0.000105
1356	1.3482e+02	-13.9777	-56.029388	0.000385	3.851553	1.304941	-0.000154
1357	1.3492e+02	-14.0258	-56.138391	0.000274	2.736630	0.927195	-0.000110
1358	1.3502e+02	-14.0547	-56.259505	0.000304	3.040699	1.030217	-0.000122
1359	1.3512e+02	-14.0996	-56.380619	0.000304	3.040699	1.030217	-0.000122
1360	1.3522e+02	-14.1381	-56.485585	0.000264	2.635273	0.892855	-0.000105
1361	1.3532e+02	-14.1734	-56.671293	0.000466	4.662406	1.579666	-0.000187
1362	1.3542e+02	-14.2151	-56.792407	0.000304	3.040699	1.030217	-0.000122
1363	1.3552e+02	-14.2552	-56.941781	0.000375	3.750196	1.270601	-0.000150
1364	1.3562e+02	-14.2889	-57.091155	0.000375	3.750196	1.270601	-0.000150
1365	1.3572e+02	-14.3418	-57.196121	0.000264	2.635273	0.892855	-0.000105
1366	1.3582e+02	-14.3836	-57.353569	0.000395	3.952909	1.339282	-0.000158
1367	1.3592e+02	-14.4188	-57.519091	0.000416	4.155623	1.407963	-0.000166
1368	1.3602e+02	-14.4493	-57.708837	0.000476	4.763762	1.614006	-0.000191
1369	1.3612e+02	-14.4975	-57.805728	0.000243	2.432560	0.824173	-0.000097
1370	1.3622e+02	-14.5263	-57.930879	0.000314	3.142056	1.064557	-0.000126
1371	1.3631e+02	-14.5745	-58.080253	0.000375	3.750196	1.270601	-0.000150
1372	1.3641e+02	-14.6146	-58.209442	0.000324	3.243413	1.098898	-0.000130
1373	1.3651e+02	-14.6499	-58.346704	0.000345	3.446126	1.167579	-0.000138
1374	1.3661e+02	-14.6980	-58.488004	0.000355	3.547483	1.201920	-0.000142
1375	1.3671e+02	-14.7253	-58.613155	0.000314	3.142056	1.064557	-0.000126
1376	1.3681e+02	-14.7686	-58.681787	0.000172	1.723063	0.583790	-0.000069
1377	1.3691e+02	-14.8247	-58.835198	0.000385	3.851553	1.304941	-0.000154
1378	1.3701e+02	-14.8568	-58.960349	0.000314	3.142056	1.064557	-0.000126
1379	1.3711e+02	-14.8921	-59.101649	0.000355	3.547483	1.201920	-0.000142
1380	1.3721e+02	-14.9322	-59.255060	0.000385	3.851553	1.304941	-0.000154
1381	1.3731e+02	-14.9771	-59.360025	0.000264	2.635273	0.892855	-0.000105
1382	1.3741e+02	-15.0172	-59.497288	0.000345	3.446126	1.167579	-0.000138
1383	1.3751e+02	-15.0557	-59.638588	0.000355	3.547483	1.201920	-0.000142
1384	1.3761e+02	-15.0942	-59.791999	0.000385	3.851553	1.304941	-0.000154
1385	1.3771e+02	-15.1311	-59.977707	0.000466	4.662406	1.579666	-0.000187
1386	1.3781e+02	-15.1712	-60.131118	0.000385	3.851553	1.304941	-0.000154
1387	1.3791e+02	-15.2129	-60.256269	0.000314	3.142056	1.064557	-0.000126
1388	1.3801e+02	-15.2482	-60.377384	0.000304	3.040699	1.030217	-0.000122
1389	1.3811e+02	-15.2932	-60.542906	0.000416	4.155623	1.407963	-0.000166
1390	1.3821e+02	-15.3252	-60.655946	0.000284	2.837986	0.961536	-0.000114
1391	1.3831e+02	-15.3653	-60.809357	0.000385	3.851553	1.304941	-0.000154
1392	1.3840e+02	-15.4199	-60.938545	0.000324	3.243413	1.098898	-0.000130
1393	1.3850e+02	-15.4504	-61.067734	0.000324	3.243413	1.098898	-0.000130
1394	1.3860e+02	-15.4937	-61.164625	0.000243	2.432560	0.824173	-0.000097
1395	1.3870e+02	-15.5354	-61.289776	0.000314	3.142056	1.064557	-0.000126
1396	1.3880e+02	-15.5755	-61.423002	0.000334	3.344769	1.133239	-0.000134
1397	1.3890e+02	-15.6060	-61.556227	0.000334	3.344769	1.133239	-0.000134
1398	1.3900e+02	-15.6493	-61.673304	0.000294	2.939343	0.995876	-0.000118
1399	1.3910e+02	-15.6974	-61.834790	0.000405	4.054266	1.373622	-0.000162
1400	1.3920e+02	-15.7311	-61.968015	0.000334	3.344769	1.133239	-0.000134
1401	1.3930e+02	-15.7664	-62.105278	0.000345	3.446126	1.167579	-0.000138
1402	1.3940e+02	-15.8065	-62.286949	0.000456	4.561049	1.545325	-0.000183
1403	1.3950e+02	-15.8514	-62.436323	0.000375	3.750196	1.270601	-0.000150
1404	1.3960e+02	-15.8947	-62.553400	0.000294	2.939343	0.995876	-0.000118
1405	1.3970e+02	-15.9268	-62.706811	0.000385	3.851553	1.304941	-0.000154
1406	1.3980e+02	-15.9637	-62.848111	0.000355	3.547483	1.201920	-0.000142
1407	1.3990e+02	-16.0086	-62.985373	0.000345	3.446126	1.167579	-0.000138
1408	1.4000e+02	-16.0471	-63.154933	0.000426	4.256979	1.442304	-0.000170
1409	1.4010e+02	-16.0872	-63.296233	0.000355	3.547483	1.201920	-0.000142
1410	1.4020e+02	-16.1274	-63.425421	0.000324	3.243413	1.098898	-0.000130
1411	1.4029e+02	-16.1659	-63.534424	0.000274	2.736630	0.927195	-0.000110
1412	1.4039e+02	-16.2140	-63.667649	0.000334	3.344769	1.133239	-0.000134
1413	1.4049e+02	-16.2525	-63.796838	0.000324	3.243413	1.098898	-0.000130
1414	1.4059e+02	-16.2782	-63.921989	0.000314	3.142056	1.064557	-0.000126
1415	1.4069e+02	-16.3311	-64.091548	0.000426	4.256979	1.442304	-0.000170
1416	1.4079e+02	-16.3648	-64.180365	0.000223	2.229846	0.755492	-0.000089
1417	1.4089e+02	-16.4129	-64.349925	0.000426	4.256979	1.442304	-0.000170
1418	1.4099e+02	-16.4386	-64.503336	0.000385	3.851553	1.304941	-0.000154
1419	1.4109e+02	-16.4755	-64.608302	0.000264	2.635273	0.892855	-0.000105
1420	1.4119e+02	-16.5092	-64.802084	0.000487	4.865119	1.648347	-0.000195
1421	1.4129e+02	-16.5573	-64.939347	0.000345	3.446126	1.167579	-0.000138
1422	1.4139e+02	-16.6086	-65.068535	0.000324	3.243413	1.098898	-0.000130
1423	1.4149e+02	-16.6471	-65.234058	0.000416	4.155623	1.407963	-0.000166
1424	1.4159e+02	-16.6840	-65.423803	0.000476	4.763762	1.614006	-0.000191
1425	1.4169e+02	-16.7241	-65.520694	0.000243	2.432560	0.824173	-0.000097
1426	1.4179e+02	-16.7706	-65.682180	0.000405	4.054266	1.373622	-0.000162
1427	1.4189e+02	-16.8043	-65.775034	0.000233	2.331203	0.789833	-0.000093
1428	1.4199e+02	-16.8589	-65.932482	0.000395	3.952909	1.339282	-0.000158
1429	1.4209e+02	-16.8829	-66.041485	0.000274	2.736630	0.927195	-0.000110
1430	1.4219e+02	-16.9263	-66.146450	0.000264	2.635273	0.892855	-0.000105
1431	1.4228e+02	-16.9599	-66.275639	0.000324	3.243413	1.098898	-0.000130
1432	1.4238e+02	-17.0065	-66.433087	0.000395	3.952909	1.339282	-0.000158
1433	1.4248e+02	-17.0466	-66.574387	0.000355	3.547483	1.201920	-0.000142
1434	1.4258e+02	-17.0851	-66.743947	0.000426	4.256979	1.442304	-0.000170
1435	1.4268e+02	-17.1220	-66.917543	0.000436	4.358336	1.476644	-0.000174
1436	1.4278e+02	-17.1589	-66.994249	0.000193	1.925776	0.652471	-0.000077
1437	1.4288e+02	-17.1974	-67.179957	0.000466	4.662406	1.579666	-0.000187
1438	1.4298e+02	-17.2327	-67.349517	0.000426	4.256979	1.442304	-0.000170
1439	1.4308e+02	-17.2744	-67.498891	0.000375	3.750196	1.270601	-0.000150
1440	1.4318e+02	-17.3321	-67.583671	0.000213	2.128490	0.721152	-0.000085
1441	1.4328e+02	-17.3578	-67.745156	0.000405	4.054266	1.373622	-0.000162
1442	1.4338e+02	-17.4027	-67.926827	0.000456	4.561049	1.545325	-0.000183
1443	1.4348e+02	-17.4589	-68.088313	0.000405	4.054266	1.373622	-0.000162
1444	1.4358e+02	-17.4781	-68.213464	0.000314	3.142056	1.064557	-0.000126
1445	1.4368e+02	-17.5198	-68.346689	0.000334	3.344769	1.133239	-0.000134
1446	1.4378e+02	-17.5599	-68.439544	0.000233	2.331203	0.789833	-0.000093
1447	1.4388e+02	-17.6032	-68.625252	0.000466	4.662406	1.579666	-0.000187
1448	1.4398e+02	-17.6417	-68.742329	0.000294	2.939343	0.995876	-0.000118
1449	1.4408e+02	-17.6819	-68.875554	0.000334	3.344769	1.133239	-0.000134
1450	1.4418e+02	-17.7268	-69.024928	0.000375	3.750196	1.270601	-0.000150
1451	1.4428e+02	-17.7685	-69.162191	0.000345	3.446126	1.167579	-0.000138
1452	1.4437e+02	-17.8022	-69.311565	0.000375	3.750196	1.270601	-0.000150
1453	1.4447e+02	-17.8471	-69.485162	0.000436	4.358336	1.476644	-0.000174
1454	1.4457e+02	-17.8824	-69.614350	0.000324	3.243413	1.098898	-0.000130
1455	1.4467e+02	-17.9161	-69.848504	0.000588	5.878686	1.991753	-0.000235
1456	1.4477e+02	-17.9594	-69.977692	0.000324	3.243413	1.098898	-0.000130
1457	1.4487e+02	-18.0059	-70.135141	0.000395	3.952909	1.339282	-0.000158
1458	1.4497e+02	-18.0412	-70.248180	0.000284	2.837986	0.961536	-0.000114
1459	1.4507e+02	-18.0797	-70.474260	0.000568	5.675972	1.923071	-0.000227
1460	1.4517e+02	-18.1134	-70.583263	0.000274	2.736630	0.927195	-0.000110
1461	1.4527e+02	-18.1695	-70.752822	0.000426	4.256979	1.442304	-0.000170
1462	1.4537e+02	-18.1968	-70.910271	0.000395	3.952909	1.339282	-0.000158
1463	1.4547e+02	-18.2321	-71.019273	0.000274	2.736630	0.927195	-0.000110
1464	1.4557e+02	-18.2802	-71.148462	0.000324	3.243413	1.098898	-0.000130
1465	1.4567e+02	-18.3139	-71.289761	0.000355	3.547483	1.201920	-0.000142
1466	1.4577e+02	-18.3588	-71.459321	0.000426	4.256979	1.442304	-0.000170
1467	1.4587e+02	-18.3989	-71.596584	0.000345	3.446126	1.167579	-0.000138
1468	1.4597e+02	-18.4455	-71.762106	0.000416	4.155623	1.407963	-0.000166
1469	1.4607e+02	-18.4856	-71.947815	0.000466	4.662406	1.579666	-0.000187
1470	1.4617e+02	-18.5289	-72.097189	0.000375	3.750196	1.270601	-0.000150
1471	1.4626e+02	-18.5578	-72.242525	0.000365	3.648839	1.236260	-0.000146
1472	1.4636e+02	-18.5898	-72.387862	0.000365	3.648839	1.236260	-0.000146
1473	1.4646e+02	-18.6300	-72.613942	0.000568	5.675972	1.923071	-0.000227
1474	1.4656e+02	-18.6813	-72.714870	0.000253	2.533916	0.858514	-0.000101
1475	1.4666e+02	-18.7230	-72.920764	0.000517	5.169189	1.751369	-0.000207
1476	1.4676e+02	-18.7503	-73.074175	0.000385	3.851553	1.304941	-0.000154
1477	1.4686e+02	-18.7920	-73.231624	0.000395	3.952909	1.339282	-0.000158
1478	1.4696e+02	-18.8353	-73.368886	0.000345	3.446126	1.167579	-0.000138
1479	1.4706e+02	-18.8786	-73.546520	0.000446	4.459693	1.510985	-0.000179
1480	1.4716e+02	-18.9171	-73.675709	0.000324	3.243413	1.098898	-0.000130
1481	1.4726e+02	-18.9588	-73.829120	0.000385	3.851553	1.304941	-0.000154
1482	1.4736e+02	-18.9989	-73.966382	0.000345	3.446126	1.167579	-0.000138
1483	1.4746e+02	-19.0374	-74.123831	0.000395	3.952909	1.339282	-0.000158
1484	1.4756e+02	-19.0743	-74.273205	0.000375	3.750196	1.270601	-0.000150
1485	1.4766e+02	-19.1176	-74.442764	0.000426	4.256979	1.442304	-0.000170
1486	1.4776e+02	-19.1642	-74.571953	0.000324	3.243413	1.098898	-0.000130
1487	1.4786e+02	-19.1946	-74.781884	0.000527	5.270546	1.785709	-0.000211
1488	1.4796e+02	-19.2299	-74.959518	0.000446	4.459693	1.510985	-0.000179
1489	1.4806e+02	-19.2652	-75.161375	0.000507	5.067832	1.717028	-0.000203
1490	1.4816e+02	-19.3150	-75.334971	0.000436	4.358336	1.476644	-0.000174
1491	1.4825e+02	-19.3487	-75.512605	0.000446	4.459693	1.510985	-0.000179
1492	1.4835e+02	-19.3936	-75.678128	0.000416	4.155623	1.407963	-0.000166
1493	1.4845e+02	-19.4257	-75.839613	0.000405	4.054266	1.373622	-0.000162
1494	1.4855e+02	-19.4642	-75.997062	0.000395	3.952909	1.339282	-0.000158
1495	1.4865e+02	-19.5155	-76.211030	0.000537	5.371902	1.820050	-0.000215
1496	1.4875e+02	-19.5556	-76.372515	0.000405	4.054266	1.373622	-0.000162
1497	1.4885e+02	-19.5941	-76.554186	0.000456	4.561049	1.545325	-0.000183
1498	1.4895e+02	-19.6278	-76.743932	0.000476	4.763762	1.614006	-0.000191
1499	1.4905e+02	-19.6823	-76.921566	0.000446	4.459693	1.510985	-0.000179
1500	1.4915e+02	-19.7080	-77.066903	0.000365	3.648839	1.236260	-0.000146
1501	1.4925e+02	-19.7593	-77.208202	0.000355	3.547483	1.201920	-0.000142
1502	1.4935e+02	-19.7930	-77.381799	0.000436	4.358336	1.476644	-0.000174
1503	1.4945e+02	-19.8347	-77.559433	0.000446	4.459693	1.510985	-0.000179
1504	1.4955e+02	-19.8813	-77.753216	0.000487	4.865119	1.648347	-0.000195
1505	1.4965e+02	-19.9133	-77.967184	0.000537	5.371902	1.820050	-0.000215
1506	1.4975e+02	-19.9406	-78.152892	0.000466	4.662406	1.579666	-0.000187
1507	1.4985e+02	-19.9919	-78.383009	0.000578	5.777329	1.957412	-0.000231
1508	1.4995e+02	-19.9486	-78.395120	-0.000030	-0.304070	-0.103022	-0.000012
1509	1.5005e+02	-19.9037	-78.403195	-0.000020	-0.202713	-0.068681	-0.000008
1510	1.5015e+02	-19.8652	-78.370898	0.000081	0.810853	0.274724	0.000032
1511	1.5025e+02	-19.8363	-78.282081	0.000223	2.229846	0.755492	0.000089
1512	1.5034e+02	-19.7914	-78.278043	0.000010	0.101357	0.034341	0.000004
1513	1.5044e+02	-19.7593	-78.237672	0.000101	1.013566	0.343406	0.000041
1514	1.5054e+02	-19.6984	-78.205375	0.000081	0.810853	0.274724	0.000032
1515	1.5064e+02	-19.6727	-78.213449	-0.000020	-0.202713	-0.068681	-0.000008
1516	1.5074e+02	-19.6326	-78.140781	0.000182	1.824420	0.618130	0.000073
1517	1.5084e+02	-19.5925	-78.051964	0.000223	2.229846	0.755492	0.000089
1518	1.5094e+02	-19.5524	-78.011592	0.000101	1.013566	0.343406	0.000041
1519	1.5104e+02	-19.5091	-77.942961	0.000172	1.723063	0.583790	0.000069
1520	1.5114e+02	-19.4754	-77.878367	0.000162	1.621706	0.549449	0.000065
1521	1.5124e+02	-19.4401	-77.813773	0.000162	1.621706	0.549449	0.000065
1522	1.5134e+02	-19.3888	-77.777439	0.000091	0.912210	0.309065	0.000037
1523	1.5144e+02	-19.3503	-77.700733	0.000193	1.925776	0.652471	0.000077
1524	1.5154e+02	-19.3053	-77.684584	0.000041	0.405427	0.137362	0.000016
1525	1.5164e+02	-19.2700	-77.628065	0.000142	1.418993	0.480768	0.000057
1526	1.5174e+02	-19.2331	-77.559433	0.000172	1.723063	0.583790	0.000069
1527	1.5184e+02	-19.1946	-77.523099	0.000091	0.912210	0.309065	0.000037
1528	1.5194e+02	-19.1626	-77.446393	0.000193	1.925776	0.652471	0.000077
1529	1.5204e+02	-19.1144	-77.397948	0.000122	1.216280	0.412087	0.000049
1530	1.5214e+02	-19.0791	-77.272797	0.000314	3.142056	1.064557	0.000126
1531	1.5224e+02	-19.0471	-77.208202	0.000162	1.621706	0.549449	0.000065
1532	1.5233e+02	-18.9925	-77.159757	0.000122	1.216280	0.412087	0.000049
1533	1.5243e+02	-18.9572	-77.115348	0.000111	1.114923	0.377746	0.000045
1534	1.5253e+02	-18.9235	-77.002308	0.000284	2.837986	0.961536	0.000114
1535	1.5263e+02	-18.8802	-76.941751	0.000152	1.520350	0.515108	0.000061
1536	1.5273e+02	-18.8465	-76.836786	0.000264	2.635273	0.892855	0.000105
1537	1.5283e+02	-18.7936	-76.691449	0.000365	3.648839	1.236260	0.000146
1538	1.5293e+02	-18.7583	-76.683375	0.000020	0.202713	0.068681	0.000008
1539	1.5303e+02	-18.7246	-76.546112	0.000345	3.446126	1.167579	0.000138
1540	1.5313e+02	-18.6717	-76.465369	0.000203	2.027133	0.686811	0.000081
1541	1.5323e+02	-18.6380	-76.392701	0.000182	1.824420	0.618130	0.000073
1542	1.5333e+02	-18.5898	-76.307921	0.000213	2.128490	0.721152	0.000085
1543	1.5343e+02	-18.5578	-76.231216	0.000193	1.925776	0.652471	0.000077
1544	1.5353e+02	-18.5177	-76.166621	0.000162	1.621706	0.549449	0.000065
1545	1.5363e+02	-18.4759	-76.057619	0.000274	2.736630	0.927195	0.000110
1546	1.5373e+02	-18.4310	-75.993025	0.000162	1.621706	0.549449	0.000065
1547	1.5383e+02	-18.3957	-75.888059	0.000264	2.635273	0.892855	0.000105
1548	1.5393e+02	-18.3733	-75.811353	0.000193	1.925776	0.652471	0.000077
1549	1.5403e+02	-18.3155	-75.698314	0.000284	2.837986	0.961536	0.000114
1550	1.5413e+02	-18.2722	-75.649868	0.000122	1.216280	0.412087	0.000049
1551	1.5422e+02	-18.2385	-75.540865	0.000274	2.736630	0.927195	0.000110
1552	1.5432e+02	-18.2096	-75.452048	0.000223	2.229846	0.755492	0.000089
1553	1.5442e+02	-18.1583	-75.371306	0.000203	2.027133	0.686811	0.000081
1554	1.5452e+02	-18.1102	-75.201746	0.000426	4.256979	1.442304	0.000170
1555	1.5462e+02	-18.0845	-75.112929	0.000223	2.229846	0.755492	0.000089
1556	1.5472e+02	-18.0428	-75.028149	0.000213	2.128490	0.721152	0.000085
1557	1.5482e+02	-18.0027	-74.915109	0.000284	2.837986	0.961536	0.000114
1558	1.5492e+02	-17.9562	-74.866664	0.000122	1.216280	0.412087	0.000049
1559	1.5502e+02	-17.9064	-74.769772	0.000243	2.432560	0.824173	0.000097
1560	1.5512e+02	-17.8744	-74.717290	0.000132	1.317636	0.446427	0.000053
1561	1.5522e+02	-17.8359	-74.588101	0.000324	3.243413	1.098898	0.000130
1562	1.5532e+02	-17.7974	-74.551767	0.000091	0.912210	0.309065	0.000037
1563	1.5542e+02	-17.7653	-74.454876	0.000243	2.432560	0.824173	0.000097
1564	1.5552e+02	-17.7236	-74.341836	0.000284	2.837986	0.961536	0.000114
1565	1.5562e+02	-17.6770	-74.240908	0.000253	2.533916	0.858514	0.000101
1566	1.5572e+02	-17.6401	-74.160165	0.000203	2.027133	0.686811	0.000081
1567	1.5582e+02	-17.6097	-74.059237	0.000253	2.533916	0.858514	0.000101
1568	1.5592e+02	-17.5583	-73.934085	0.000314	3.142056	1.064557	0.000126
1569	1.5602e+02	-17.5327	-73.869491	0.000162	1.621706	0.549449	0.000065
1570	1.5612e+02	-17.4797	-73.752414	0.000294	2.939343	0.995876	0.000118
1571	1.5622e+02	-17.4460	-73.582855	0.000426	4.256979	1.442304	0.000170
1572	1.5631e+02	-17.4027	-73.502112	0.000203	2.027133	0.686811	0.000081
1573	1.5641e+02	-17.3578	-73.417332	0.000213	2.128490	0.721152	0.000085
1574	1.5651e+02	-17.3337	-73.324478	0.000233	2.331203	0.789833	0.000093
1575	1.5661e+02	-17.2824	-73.235661	0.000223	2.229846	0.755492	0.000089
1576	1.5671e+02	-17.2375	-73.195289	0.000101	1.013566	0.343406	0.000041
1577	1.5681e+02	-17.2086	-73.070138	0.000314	3.142056	1.064557	0.000126
1578	1.5691e+02	-17.1573	-72.997470	0.000182	1.824420	0.618130	0.000073
1579	1.5701e+02	-17.1348	-72.892504	0.000264	2.635273	0.892855	0.000105
1580	1.5711e+02	-17.0835	-72.775427	0.000294	2.939343	0.995876	0.000118
1581	1.5721e+02	-17.0418	-72.654313	0.000304	3.040699	1.030217	0.000122
1582	1.5731e+02	-17.0001	-72.585682	0.000172	1.723063	0.583790	0.000069
1583	1.5741e+02	-16.9728	-72.476679	0.000274	2.736630	0.927195	0.000110
1584	1.5751e+02	-16.9263	-72.355565	0.000304	3.040699	1.030217	0.000122
1585	1.5761e+02	-16.8829	-72.299045	0.000142	1.418993	0.480768	0.000057
1586	1.5771e+02	-16.8509	-72.190043	0.000274	2.736630	0.927195	0.000110
1587	1.5781e+02	-16.8059	-72.093151	0.000243	2.432560	0.824173	0.000097
1588	1.5791e+02	-16.7739	-71.984149	0.000274	2.736630	0.927195	0.000110
1589	1.5801e+02	-16.7257	-71.863035	0.000304	3.040699	1.030217	0.000122
1590	1.5811e+02	-16.6888	-71.725772	0.000345	3.446126	1.167579	0.000138
1591	1.5821e+02	-16.6519	-71.600621	0.000314	3.142056	1.064557	0.000126
1592	1.5830e+02	-16.6054	-71.527952	0.000182	1.824420	0.618130	0.000073
1593	1.5840e+02	-16.5573	-71.463358	0.000162	1.621706	0.549449	0.000065
1594	1.5850e+02	-16.5348	-71.390690	0.000182	1.824420	0.618130	0.000073
1595	1.5860e+02	-16.4803	-71.273613	0.000294	2.939343	0.995876	0.000118
1596	1.5870e+02	-16.4434	-71.156536	0.000294	2.939343	0.995876	0.000118
1597	1.5880e+02	-16.4113	-71.055608	0.000253	2.533916	0.858514	0.000101
1598	1.5890e+02	-16.3632	-70.958716	0.000243	2.432560	0.824173	0.000097
1599	1.5900e+02	-16.3295	-70.857788	0.000253	2.533916	0.858514	0.000101
1600	1.5910e+02	-16.2846	-70.768971	0.000223	2.229846	0.755492	0.000089
1601	1.5920e+02	-16.2413	-70.651894	0.000294	2.939343	0.995876	0.000118
1602	1.5930e+02	-16.2140	-70.555003	0.000243	2.432560	0.824173	0.000097
1603	1.5940e+02	-16.1626	-70.433889	0.000304	3.040699	1.030217	0.000122
1604	1.5950e+02	-16.1306	-70.353146	0.000203	2.027133	0.686811	0.000081
1605	1.5960e+02	-16.0937	-70.248180	0.000264	2.635273	0.892855	0.000105
1606	1.5970e+02	-16.0536	-70.143215	0.000264	2.635273	0.892855	0.000105
1607	1.5980e+02	-16.0086	-70.009989	0.000334	3.344769	1.133239	0.000134
1608	1.5990e+02	-15.9637	-69.880801	0.000324	3.243413	1.098898	0.000130
1609	1.6000e+02	-15.9332	-69.791984	0.000223	2.229846	0.755492	0.000089
1610	1.6010e+02	-15.8851	-69.670870	0.000304	3.040699	1.030217	0.000122
1611	1.6019e+02	-15.8482	-69.638573	0.000081	0.810853	0.274724	0.000032
1612	1.6029e+02	-15.8097	-69.489199	0.000375	3.750196	1.270601	0.000150
1613	1.6039e+02	-15.7632	-69.392308	0.000243	2.432560	0.824173	0.000097
1614	1.6049e+02	-15.7279	-69.319639	0.000182	1.824420	0.618130	0.000073
1615	1.6059e+02	-15.6798	-69.206599	0.000284	2.837986	0.961536	0.000114
1616	1.6069e+02	-15.6477	-69.065300	0.000355	3.547483	1.201920	0.000142
1617	1.6079e+02	-15.6012	-68.980520	0.000213	2.128490	0.721152	0.000085
1618	1.6089e+02	-15.5691	-68.855369	0.000314	3.142056	1.064557	0.000126
1619	1.6099e+02	-15.5226	-68.798849	0.000142	1.418993	0.480768	0.000057
1620	1.6109e+02	-15.4953	-68.661586	0.000345	3.446126	1.167579	0.000138
1621	1.6119e+02	-15.4552	-68.588918	0.000182	1.824420	0.618130	0.000073
1622	1.6129e+02	-15.4087	-68.471841	0.000294	2.939343	0.995876	0.000118
1623	1.6139e+02	-15.3718	-68.358801	0.000284	2.837986	0.961536	0.000114
1624	1.6149e+02	-15.3284	-68.278058	0.000203	2.027133	0.686811	0.000081
1625	1.6159e+02	-15.2915	-68.144833	0.000334	3.344769	1.133239	0.000134
1626	1.6169e+02	-15.2498	-68.056016	0.000223	2.229846	0.755492	0.000089
1627	1.6179e+02	-15.2033	-67.991422	0.000162	1.621706	0.549449	0.000065
1628	1.6189e+02	-15.1712	-67.854159	0.000345	3.446126	1.167579	0.000138
1629	1.6199e+02	-15.1295	-67.692673	0.000405	4.054266	1.373622	0.000162
1630	1.6209e+02	-15.0974	-67.615968	0.000193	1.925776	0.652471	0.000077
1631	1.6219e+02	-15.0589	-67.523114	0.000233	2.331203	0.789833	0.000093
1632	1.6228e+02	-15.0028	-67.353554	0.000426	4.256979	1.442304	0.000170
1633	1.6238e+02	-14.9803	-67.264737	0.000223	2.229846	0.755492	0.000089
1634	1.6248e+02	-14.9274	-67.192069	0.000182	1.824420	0.618130	0.000073
1635	1.6258e+02	-14.8889	-67.066917	0.000314	3.142056	1.064557	0.000126
1636	1.6268e+02	-14.8536	-66.961952	0.000264	2.635273	0.892855	0.000105
1637	1.6278e+02	-14.8119	-66.885246	0.000193	1.925776	0.652471	0.000077
1638	1.6288e+02	-14.7686	-66.739909	0.000365	3.648839	1.236260	0.000146
1639	1.6298e+02	-14.7429	-66.618795	0.000304	3.040699	1.030217	0.000122
1640	1.6308e+02	-14.6948	-66.542090	0.000193	1.925776	0.652471	0.000077
1641	1.6318e+02	-14.6531	-66.404827	0.000345	3.446126	1.167579	0.000138
1642	1.6328e+02	-14.6097	-66.340233	0.000162	1.621706	0.549449	0.000065
1643	1.6338e+02	-14.5712	-66.219119	0.000304	3.040699	1.030217	0.000122
1644	1.6348e+02	-14.5360	-66.098005	0.000304	3.040699	1.030217	0.000122
1645	1.6358e+02	-14.4926	-65.984965	0.000284	2.837986	0.961536	0.000114
1646	1.6368e+02	-14.4493	-65.851740	0.000334	3.344769	1.133239	0.000134
1647	1.6378e+02	-14.4172	-65.762923	0.000223	2.229846	0.755492	0.000089
1648	1.6388e+02	-14.3723	-65.593363	0.000426	4.256979	1.442304	0.000170
1649	1.6398e+02	-14.3354	-65.500509	0.000233	2.331203	0.789833	0.000093
1650	1.6408e+02	-14.2953	-65.435915	0.000162	1.621706	0.549449	0.000065
1651	1.6418e+02	-14.2536	-65.302689	0.000334	3.344769	1.133239	0.000134
1652	1.6427e+02	-14.2183	-65.169464	0.000334	3.344769	1.133239	0.000134
1653	1.6437e+02	-14.1734	-65.076610	0.000233	2.331203	0.789833	0.000093
1654	1.6447e+02	-14.1349	-64.951458	0.000314	3.142056	1.064557	0.000126
1655	1.6457e+02	-14.0964	-64.858604	0.000233	2.331203	0.789833	0.000093
1656	1.6467e+02	-14.0563	-64.697119	0.000405	4.054266	1.373622	0.000162
1657	1.6477e+02	-14.0210	-64.604265	0.000233	2.331203	0.789833	0.000093
1658	1.6487e+02	-13.9825	-64.491225	0.000284	2.837986	0.961536	0.000114
1659	1.6497e+02	-13.9328	-64.366074	0.000314	3.142056	1.064557	0.000126
1660	1.6507e+02	-13.8878	-64.293405	0.000182	1.824420	0.618130	0.000073
1661	1.6517e+02	-13.8654	-64.160180	0.000334	3.344769	1.133239	0.000134
1662	1.6527e+02	-13.8108	-63.998694	0.000405	4.054266	1.373622	0.000162
1663	1.6537e+02	-13.7804	-63.938137	0.000152	1.520350	0.515108	0.000061
1664	1.6547e+02	-13.7354	-63.776652	0.000405	4.054266	1.373622	0.000162
1665	1.6557e+02	-13.6969	-63.623241	0.000385	3.851553	1.304941	0.000154
1666	1.6567e+02	-13.6649	-63.514238	0.000274	2.736630	0.927195	0.000110
1667	1.6577e+02	-13.6135	-63.421384	0.000233	2.331203	0.789833	0.000093
1668	1.6587e+02	-13.5734	-63.276047	0.000365	3.648839	1.236260	0.000146
1669	1.6597e+02	-13.5461	-63.179156	0.000243	2.432560	0.824173	0.000097
1670	1.6607e+02	-13.5012	-63.062079	0.000294	2.939343	0.995876	0.000118
1671	1.6616e+02	-13.4531	-62.949039	0.000284	2.837986	0.961536	0.000114
1672	1.6626e+02	-13.4114	-62.807739	0.000355	3.547483	1.201920	0.000142
1673	1.6636e+02	-13.3777	-62.694699	0.000284	2.837986	0.961536	0.000114
1674	1.6646e+02	-13.3392	-62.557437	0.000345	3.446126	1.167579	0.000138
1675	1.6656e+02	-13.2927	-62.440360	0.000294	2.939343	0.995876	0.000118
1676	1.6666e+02	-13.2638	-62.371729	0.000172	1.723063	0.583790	0.000069
1677	1.6676e+02	-13.2141	-62.234466	0.000345	3.446126	1.167579	0.000138
1678	1.6686e+02	-13.1724	-62.085092	0.000375	3.750196	1.270601	0.000150
1679	1.6696e+02	-13.1258	-61.996275	0.000223	2.229846	0.755492	0.000089
1680	1.6706e+02	-13.0986	-61.883235	0.000284	2.837986	0.961536	0.000114
1681	1.6716e+02	-13.0601	-61.721750	0.000405	4.054266	1.373622	0.000162
1682	1.6726e+02	-13.0264	-61.564301	0.000395	3.952909	1.339282	0.000158
1683	1.6736e+02	-12.9815	-61.487596	0.000193	1.925776	0.652471	0.000077
1684	1.6746e+02	-12.9381	-61.350333	0.000345	3.446126	1.167579	0.000138
1685	1.6756e+02	-12.9028	-61.237293	0.000284	2.837986	0.961536	0.000114
1686	1.6766e+02	-12.8643	-61.067734	0.000426	4.256979	1.442304	0.000170
1687	1.6776e+02	-12.8290	-60.978917	0.000223	2.229846	0.755492	0.000089
1688	1.6786e+02	-12.7825	-60.845691	0.000334	3.344769	1.133239	0.000134
1689	1.6796e+02	-12.7488	-60.684206	0.000405	4.054266	1.373622	0.000162
1690	1.6806e+02	-12.7055	-60.607500	0.000193	1.925776	0.652471	0.000077
1691	1.6816e+02	-12.6590	-60.510609	0.000243	2.432560	0.824173	0.000097
1692	1.6825e+02	-12.6269	-60.353161	0.000395	3.952909	1.339282	0.000158
1693	1.6835e+02	-12.5772	-60.244158	0.000274	2.736630	0.927195	0.000110
1694	1.6845e+02	-12.5387	-60.159378	0.000213	2.128490	0.721152	0.000085
1695	1.6855e+02	-12.4986	-60.034227	0.000314	3.142056	1.064557	0.000126
1696	1.6865e+02	-12.4713	-59.901002	0.000334	3.344769	1.133239	0.000134
1697	1.6875e+02	-12.4280	-59.783925	0.000294	2.939343	0.995876	0.000118
1698	1.6885e+02	-12.3783	-59.654736	0.000324	3.243413	1.098898	0.000130
1699	1.6895e+02	-12.3446	-59.513436	0.000355	3.547483	1.201920	0.000142
1700	1.6905e+02	-12.3141	-59.355988	0.000395	3.952909	1.339282	0.000158
1701	1.6915e+02	-12.2692	-59.214688	0.000355	3.547483	1.201920	0.000142
1702	1.6925e+02	-12.2194	-59.081463	0.000334	3.344769	1.133239	0.000134
1703	1.6935e+02	-12.1858	-59.004757	0.000193	1.925776	0.652471	0.000077
1704	1.6945e+02	-12.1376	-58.851346	0.000385	3.851553	1.304941	0.000154
1705	1.6955e+02	-12.1039	-58.697935	0.000385	3.851553	1.304941	0.000154
1706	1.6965e+02	-12.0670	-58.584895	0.000284	2.837986	0.961536	0.000114
1707	1.6975e+02	-12.0285	-58.415336	0.000426	4.256979	1.442304	0.000170
1708	1.6985e+02	-11.9852	-58.342667	0.000182	1.824420	0.618130	0.000073
1709	1.6995e+02	-11.9419	-58.165033	0.000446	4.459693	1.510985	0.000179
1710	1.7005e+02	-11.9034	-58.051993	0.000284	2.837986	0.961536	0.000114
1711	1.7015e+02	-11.8697	-57.955102	0.000243	2.432560	0.824173	0.000097
1712	1.7024e+02	-11.8216	-57.833988	0.000304	3.040699	1.030217	0.000122
1713	1.7034e+02	-11.7847	-57.720948	0.000284	2.837986	0.961536	0.000114
1714	1.7044e+02	-11.7494	-57.587723	0.000334	3.344769	1.133239	0.000134
1715	1.7054e+02	-11.7077	-57.482757	0.000264	2.635273	0.892855	0.000105
1716	1.7064e+02	-11.6660	-57.305123	0.000446	4.459693	1.510985	0.000179
1717	1.7074e+02	-11.6291	-57.163823	0.000355	3.547483	1.201920	0.000142
1718	1.7084e+02	-11.5713	-57.006375	0.000395	3.952909	1.339282	0.000158
1719	1.7094e+02	-11.5425	-56.844890	0.000405	4.054266	1.373622	0.000162
1720	1.7104e+02	-11.5088	-56.776258	0.000172	1.723063	0.583790	0.000069
1721	1.7114e+02	-11.4735	-56.610736	0.000416	4.155623	1.407963	0.000166
1722	1.7124e+02	-11.4205	-56.469436	0.000355	3.547483	1.201920	0.000142
1723	1.7134e+02	-11.3997	-56.352359	0.000294	2.939343	0.995876	0.000118
1724	1.7144e+02	-11.3451	-56.215097	0.000345	3.446126	1.167579	0.000138
1725	1.7154e+02	-11.3114	-56.073797	0.000355	3.547483	1.201920	0.000142
1726	1.7164e+02	-11.2649	-55.968831	0.000264	2.635273	0.892855	0.000105
1727	1.7174e+02	-11.2344	-55.827532	0.000355	3.547483	1.201920	0.000142
1728	1.7184e+02	-11.1831	-55.710455	0.000294	2.939343	0.995876	0.000118
1729	1.7194e+02	-11.1510	-55.597415	0.000284	2.837986	0.961536	0.000114
1730	1.7204e+02	-11.1077	-55.476301	0.000304	3.040699	1.030217	0.000122
1731	1.7213e+02	-11.0724	-55.343075	0.000334	3.344769	1.133239	0.000134
1732	1.7223e+02	-11.0275	-55.254258	0.000223	2.229846	0.755492	0.000089
1733	1.7233e+02	-10.9906	-55.137181	0.000294	2.939343	0.995876	0.000118
1734	1.7243e+02	-10.9457	-54.991844	0.000365	3.648839	1.236260	0.000146
1735	1.7253e+02	-10.9104	-54.850545	0.000355	3.547483	1.201920	0.000142
1736	1.7263e+02	-10.8671	-54.701171	0.000375	3.750196	1.270601	0.000150
1737	1.7273e+02	-10.8302	-54.539685	0.000405	4.054266	1.373622	0.000162
1738	1.7283e+02	-10.7901	-54.374163	0.000416	4.155623	1.407963	0.000166
1739	1.7293e+02	-10.7500	-54.285346	0.000223	2.229846	0.755492	0.000089
1740	1.7303e+02	-10.7066	-54.140009	0.000365	3.648839	1.236260	0.000146
1741	1.7313e+02	-10.6698	-54.026969	0.000284	2.837986	0.961536	0.000114
1742	1.7323e+02	-10.6264	-53.881632	0.000365	3.648839	1.236260	0.000146
1743	1.7333e+02	-10.5960	-53.732258	0.000375	3.750196	1.270601	0.000150
1744	1.7343e+02	-10.5575	-53.603070	0.000324	3.243413	1.098898	0.000130
1745	1.7353e+02	-10.5013	-53.514253	0.000223	2.229846	0.755492	0.000089
1746	1.7363e+02	-10.4708	-53.409287	0.000264	2.635273	0.892855	0.000105
1747	1.7373e+02	-10.4387	-53.272025	0.000345	3.446126	1.167579	0.000138
1748	1.7383e+02	-10.3922	-53.150911	0.000304	3.040699	1.030217	0.000122
1749	1.7393e+02	-10.3441	-53.037871	0.000284	2.837986	0.961536	0.000114
1750	1.7403e+02	-10.3136	-52.888497	0.000375	3.750196	1.270601	0.000150
1751	1.7413e+02	-10.2703	-52.795643	0.000233	2.331203	0.789833	0.000093
1752	1.7422e+02	-10.2270	-52.634157	0.000405	4.054266	1.373622	0.000162
1753	1.7432e+02	-10.1933	-52.492857	0.000355	3.547483	1.201920	0.000142
1754	1.7442e+02	-10.1468	-52.343483	0.000375	3.750196	1.270601	0.000150
1755	1.7452e+02	-10.1163	-52.186035	0.000395	3.952909	1.339282	0.000158
1756	1.7462e+02	-10.0778	-52.032624	0.000385	3.851553	1.304941	0.000154
1757	1.7472e+02	-10.0313	-51.923621	0.000274	2.736630	0.927195	0.000110
1758	1.7482e+02	-9.9896	-51.826730	0.000243	2.432560	0.824173	0.000097
1759	1.7492e+02	-9.9495	-51.645059	0.000456	4.561049	1.545325	0.000183
1760	1.7502e+02	-9.9093	-51.515871	0.000324	3.243413	1.098898	0.000130
1761	1.7512e+02	-9.8837	-51.358422	0.000395	3.952909	1.339282	0.000158
1762	1.7522e+02	-9.8275	-51.261531	0.000243	2.432560	0.824173	0.000097
1763	1.7532e+02	-9.7906	-51.200974	0.000152	1.520350	0.515108	0.000061
1764	1.7542e+02	-9.7505	-51.031414	0.000426	4.256979	1.442304	0.000170
1765	1.7552e+02	-9.7184	-50.886077	0.000365	3.648839	1.236260	0.000146
1766	1.7562e+02	-9.6655	-50.764963	0.000304	3.040699	1.030217	0.000122
1767	1.7572e+02	-9.6334	-50.631738	0.000334	3.344769	1.133239	0.000134
1768	1.7582e+02	-9.5981	-50.522735	0.000274	2.736630	0.927195	0.000110
1769	1.7592e+02	-9.5548	-50.409695	0.000284	2.837986	0.961536	0.000114
1770	1.7602e+02	-9.5163	-50.215913	0.000487	4.865119	1.648347	0.000195
1771	1.7612e+02	-9.4746	-50.106910	0.000274	2.736630	0.927195	0.000110
1772	1.7621e+02	-9.4345	-49.945425	0.000405	4.054266	1.373622	0.000162
1773	1.7631e+02	-9.4008	-49.792014	0.000385	3.851553	1.304941	0.000154
1774	1.7641e+02	-9.3527	-49.630528	0.000405	4.054266	1.373622	0.000162
1775	1.7651e+02	-9.3126	-49.541711	0.000223	2.229846	0.755492	0.000089
1776	1.7661e+02	-9.2757	-49.380226	0.000405	4.054266	1.373622	0.000162
1777	1.7671e+02	-9.2388	-49.255075	0.000314	3.142056	1.064557	0.000126
1778	1.7681e+02	-9.1987	-49.150109	0.000264	2.635273	0.892855	0.000105
1779	1.7691e+02	-9.1505	-48.992661	0.000395	3.952909	1.339282	0.000158
1780	1.7701e+02	-9.1104	-48.899807	0.000233	2.331203	0.789833	0.000093
1781	1.7711e+02	-9.0800	-48.802915	0.000243	2.432560	0.824173	0.000097
1782	1.7721e+02	-9.0399	-48.641430	0.000405	4.054266	1.373622	0.000162
1783	1.7731e+02	-8.9965	-48.552613	0.000223	2.229846	0.755492	0.000089
1784	1.7741e+02	-8.9596	-48.403239	0.000375	3.750196	1.270601	0.000150
1785	1.7751e+02	-8.9147	-48.213494	0.000476	4.763762	1.614006	0.000191
1786	1.7761e+02	-8.8762	-48.100454	0.000284	2.837986	0.961536	0.000114
1787	1.7771e+02	-8.8377	-47.987414	0.000284	2.837986	0.961536	0.000114
1788	1.7781e+02	-8.7928	-47.829966	0.000395	3.952909	1.339282	0.000158
1789	1.7791e+02	-8.7575	-47.712889	0.000294	2.939343	0.995876	0.000118
1790	1.7801e+02	-8.7142	-47.539292	0.000436	4.358336	1.476644	0.000174
1791	1.7810e+02	-8.6773	-47.397992	0.000355	3.547483	1.201920	0.000142
1792	1.7820e+02	-8.6372	-47.256692	0.000355	3.547483	1.201920	0.000142
1793	1.7830e+02	-8.5971	-47.107318	0.000375	3.750196	1.270601	0.000150
1794	1.7840e+02	-8.5682	-46.970056	0.000345	3.446126	1.167579	0.000138
1795	1.7850e+02	-8.5201	-46.865090	0.000264	2.635273	0.892855	0.000105
1796	1.7860e+02	-8.4784	-46.647085	0.000547	5.473259	1.854390	0.000219
1797	1.7870e+02	-8.4463	-46.570379	0.000193	1.925776	0.652471	0.000077
1798	1.7880e+02	-8.3917	-46.473488	0.000243	2.432560	0.824173	0.000097
1799	1.7890e+02	-8.3597	-46.340263	0.000334	3.344769	1.133239	0.000134
1800	1.7900e+02	-8.3212	-46.198963	0.000355	3.547483	1.201920	0.000142
1801	1.7910e+02	-8.2843	-46.029403	0.000426	4.256979	1.442304	0.000170
1802	1.7920e+02	-8.2361	-45.956735	0.000182	1.824420	0.618130	0.000073
1803	1.7930e+02	-8.2057	-45.795249	0.000405	4.054266	1.373622	0.000162
1804	1.7940e+02	-8.1623	-45.633764	0.000405	4.054266	1.373622	0.000162
1805	1.7950e+02	-8.1126	-45.540910	0.000233	2.331203	0.789833	0.000093
1806	1.7960e+02	-8.0821	-45.419796	0.000304	3.040699	1.030217	0.000122
1807	1.7970e+02	-8.0452	-45.254273	0.000416	4.155623	1.407963	0.000166
1808	1.7980e+02	-8.0003	-45.068565	0.000466	4.662406	1.579666	0.000187
1809	1.7990e+02	-7.9618	-44.931302	0.000345	3.446126	1.167579	0.000138
1810	1.8000e+02	-7.9217	-44.761742	0.000426	4.256979	1.442304	0.000170
1811	1.8009e+02	-7.8864	-44.620443	0.000355	3.547483	1.201920	0.000142
1812	1.8019e+02	-7.8447	-44.483180	0.000345	3.446126	1.167579	0.000138
1813	1.8029e+02	-7.8030	-44.301509	0.000456	4.561049	1.545325	0.000183
1814	1.8039e+02	-7.7613	-44.200581	0.000253	2.533916	0.858514	0.000101
1815	1.8049e+02	-7.7260	-44.035058	0.000416	4.155623	1.407963	0.000166
1816	1.8059e+02	-7.6827	-43.950278	0.000213	2.128490	0.721152	0.000085
1817	1.8069e+02	-7.6442	-43.837238	0.000284	2.837986	0.961536	0.000114
1818	1.8079e+02	-7.5976	-43.687864	0.000375	3.750196	1.270601	0.000150
1819	1.8089e+02	-7.5752	-43.494082	0.000487	4.865119	1.648347	0.000195
1820	1.8099e+02	-7.5190	-43.413339	0.000203	2.027133	0.686811	0.000081
1821	1.8109e+02	-7.4870	-43.247817	0.000416	4.155623	1.407963	0.000166
1822	1.8119e+02	-7.4501	-43.082294	0.000416	4.155623	1.407963	0.000166
1823	1.8129e+02	-7.3987	-42.961180	0.000304	3.040699	1.030217	0.000122
1824	1.8139e+02	-7.3602	-42.807769	0.000385	3.851553	1.304941	0.000154
1825	1.8149e+02	-7.3137	-42.650321	0.000395	3.952909	1.339282	0.000158
1826	1.8159e+02	-7.2880	-42.476724	0.000436	4.358336	1.476644	0.000174
1827	1.8169e+02	-7.2479	-42.339461	0.000345	3.446126	1.167579	0.000138
1828	1.8179e+02	-7.2030	-42.165864	0.000436	4.358336	1.476644	0.000174
1829	1.8189e+02	-7.1693	-42.024564	0.000355	3.547483	1.201920	0.000142
1830	1.8199e+02	-7.1212	-41.875190	0.000375	3.750196	1.270601	0.000150
1831	1.8209e+02	-7.0779	-41.725816	0.000375	3.750196	1.270601	0.000150
1832	1.8218e+02	-7.0490	-41.588554	0.000345	3.446126	1.167579	0.000138
1833	1.8228e+02	-7.0073	-41.414957	0.000436	4.358336	1.476644	0.000174
1834	1.8238e+02	-6.9640	-41.285769	0.000324	3.243413	1.098898	0.000130
1835	1.8248e+02	-6.9303	-41.176766	0.000274	2.736630	0.927195	0.000110
1836	1.8258e+02	-6.8902	-40.987021	0.000476	4.763762	1.614006	0.000191
1837	1.8268e+02	-6.8356	-40.841684	0.000365	3.648839	1.236260	0.000146
1838	1.8278e+02	-6.7971	-40.732681	0.000274	2.736630	0.927195	0.000110
1839	1.8288e+02	-6.7715	-40.567158	0.000416	4.155623	1.407963	0.000166
1840	1.8298e+02	-6.7298	-40.429896	0.000345	3.446126	1.167579	0.000138
1841	1.8308e+02	-6.6816	-40.260336	0.000426	4.256979	1.442304	0.000170
1842	1.8318e+02	-6.6431	-40.151333	0.000274	2.736630	0.927195	0.000110
1843	1.8328e+02	-6.6046	-39.981774	0.000426	4.256979	1.442304	0.000170
1844	1.8338e+02	-6.5677	-39.848548	0.000334	3.344769	1.133239	0.000134
1845	1.8348e+02	-6.5292	-39.650729	0.000497	4.966476	1.682688	0.000199
1846	1.8358e+02	-6.4827	-39.469058	0.000456	4.561049	1.545325	0.000183
1847	1.8368e+02	-6.4538	-39.335832	0.000334	3.344769	1.133239	0.000134
1848	1.8378e+02	-6.4121	-39.162235	0.000436	4.358336	1.476644	0.000174
1849	1.8388e+02	-6.3720	-39.041121	0.000304	3.040699	1.030217	0.000122
1850	1.8398e+02	-6.3223	-38.851376	0.000476	4.763762	1.614006	0.000191
1851	1.8407e+02	-6.2886	-38.718150	0.000334	3.344769	1.133239	0.000134
1852	1.8417e+02	-6.2453	-38.588962	0.000324	3.243413	1.098898	0.000130
1853	1.8427e+02	-6.1955	-38.407291	0.000456	4.561049	1.545325	0.000183
1854	1.8437e+02	-6.1619	-38.298288	0.000274	2.736630	0.927195	0.000110
1855	1.8447e+02	-6.1314	-38.156988	0.000355	3.547483	1.201920	0.000142
1856	1.8457e+02	-6.0849	-37.991466	0.000416	4.155623	1.407963	0.000166
1857	1.8467e+02	-6.0528	-37.882463	0.000274	2.736630	0.927195	0.000110
1858	1.8477e+02	-6.0255	-37.684644	0.000497	4.966476	1.682688	0.000199
1859	1.8487e+02	-5.9677	-37.515084	0.000426	4.256979	1.442304	0.000170
1860	1.8497e+02	-5.9308	-37.385896	0.000324	3.243413	1.098898	0.000130
1861	1.8507e+02	-5.8972	-37.220373	0.000416	4.155623	1.407963	0.000166
1862	1.8517e+02	-5.8522	-37.091185	0.000324	3.243413	1.098898	0.000130
1863	1.8527e+02	-5.8169	-36.905476	0.000466	4.662406	1.579666	0.000187
1864	1.8537e+02	-5.7720	-36.695545	0.000527	5.270546	1.785709	0.000211
1865	1.8547e+02	-5.7351	-36.570394	0.000314	3.142056	1.064557	0.000126
1866	1.8557e+02	-5.6998	-36.396797	0.000436	4.358336	1.476644	0.000174
1867	1.8567e+02	-5.6517	-36.235312	0.000405	4.054266	1.373622	0.000162
1868	1.8577e+02	-5.6180	-36.065752	0.000426	4.256979	1.442304	0.000170
1869	1.8587e+02	-5.5795	-35.928490	0.000345	3.446126	1.167579	0.000138
1870	1.8597e+02	-5.5410	-35.758930	0.000426	4.256979	1.442304	0.000170
1871	1.8606e+02	-5.4913	-35.601482	0.000395	3.952909	1.339282	0.000158
1872	1.8616e+02	-5.4544	-35.496516	0.000264	2.635273	0.892855	0.000105
1873	1.8626e+02	-5.4127	-35.351179	0.000365	3.648839	1.236260	0.000146
1874	1.8636e+02	-5.3710	-35.165471	0.000466	4.662406	1.579666	0.000187
1875	1.8646e+02	-5.3341	-34.999948	0.000416	4.155623	1.407963	0.000166
1876	1.8656e+02	-5.2956	-34.850574	0.000375	3.750196	1.270601	0.000150
1877	1.8666e+02	-5.2603	-34.672940	0.000446	4.459693	1.510985	0.000179
1878	1.8676e+02	-5.2089	-34.515492	0.000395	3.952909	1.339282	0.000158
1879	1.8686e+02	-5.1785	-34.386304	0.000324	3.243413	1.098898	0.000130
1880	1.8696e+02	-5.1335	-34.176373	0.000527	5.270546	1.785709	0.000211
1881	1.8706e+02	-5.0966	-33.958367	0.000547	5.473259	1.854390	0.000219
1882	1.8716e+02	-5.0485	-33.825142	0.000334	3.344769	1.133239	0.000134
1883	1.8726e+02	-5.0116	-33.679805	0.000365	3.648839	1.236260	0.000146
1884	1.8736e+02	-4.9731	-33.526394	0.000385	3.851553	1.304941	0.000154
1885	1.8746e+02	-4.9410	-33.340685	0.000466	4.662406	1.579666	0.000187
1886	1.8756e+02	-4.8945	-33.150940	0.000476	4.763762	1.614006	0.000191
1887	1.8766e+02	-4.8608	-32.993492	0.000395	3.952909	1.339282	0.000158
1888	1.8776e+02	-4.8175	-32.856229	0.000345	3.446126	1.167579	0.000138
1889	1.8786e+02	-4.7742	-32.702818	0.000385	3.851553	1.304941	0.000154
1890	1.8796e+02	-4.7341	-32.541333	0.000405	4.054266	1.373622	0.000162
1891	1.8806e+02	-4.6924	-32.395996	0.000365	3.648839	1.236260	0.000146
1892	1.8815e+02	-4.6635	-32.258733	0.000345	3.446126	1.167579	0.000138
1893	1.8825e+02	-4.6186	-32.105322	0.000385	3.851553	1.304941	0.000154
1894	1.8835e+02	-4.5849	-31.980171	0.000314	3.142056	1.064557	0.000126
1895	1.8845e+02	-4.5400	-31.754091	0.000568	5.675972	1.923071	0.000227
1896	1.8855e+02	-4.4983	-31.641051	0.000284	2.837986	0.961536	0.000114
1897	1.8865e+02	-4.4501	-31.467455	0.000436	4.358336	1.476644	0.000174
1898	1.8875e+02	-4.4165	-31.285783	0.000456	4.561049	1.545325	0.000183
1899	1.8885e+02	-4.3796	-31.124298	0.000405	4.054266	1.373622	0.000162
1900	1.8895e+02	-4.3491	-30.930515	0.000487	4.865119	1.648347	0.000195
1901	1.8905e+02	-4.2961	-30.781141	0.000375	3.750196	1.270601	0.000150
1902	1.8915e+02	-4.2560	-30.619656	0.000405	4.054266	1.373622	0.000162
1903	1.8925e+02	-4.2175	-30.450096	0.000426	4.256979	1.442304	0.000170
1904	1.8935e+02	-4.1790	-30.252277	0.000497	4.966476	1.682688	0.000199
1905	1.8945e+02	-4.1453	-30.094828	0.000395	3.952909	1.339282	0.000158
1906	1.8955e+02	-4.1004	-29.957566	0.000345	3.446126	1.167579	0.000138
1907	1.8965e+02	-4.0539	-29.804155	0.000385	3.851553	1.304941	0.000154
1908	1.8975e+02	-4.0234	-29.634595	0.000426	4.256979	1.442304	0.000170
1909	1.8985e+02	-3.9865	-29.549815	0.000213	2.128490	0.721152	0.000085
1910	1.8995e+02	-3.9368	-29.400441	0.000375	3.750196	1.270601	0.000150
1911	1.9004e+02	-3.8983	-29.194547	0.000517	5.169189	1.751369	0.000207
1912	1.9014e+02	-3.8614	-28.984616	0.000527	5.270546	1.785709	0.000211
1913	1.9024e+02	-3.8181	-28.911948	0.000182	1.824420	0.618130	0.000073
1914	1.9034e+02	-3.7780	-28.726239	0.000466	4.662406	1.579666	0.000187
1915	1.9044e+02	-3.7475	-28.560717	0.000416	4.155623	1.407963	0.000166
1916	1.9054e+02	-3.7042	-28.423454	0.000345	3.446126	1.167579	0.000138
1917	1.9064e+02	-3.6641	-28.257932	0.000416	4.155623	1.407963	0.000166
1918	1.9074e+02	-3.6256	-28.056075	0.000507	5.067832	1.717028	0.000203
1919	1.9084e+02	-3.5758	-27.842107	0.000537	5.371902	1.820050	0.000215
1920	1.9094e+02	-3.5421	-27.668510	0.000436	4.358336	1.476644	0.000174
1921	1.9104e+02	-3.5085	-27.502987	0.000416	4.155623	1.407963	0.000166
1922	1.9114e+02	-3.4667	-27.365725	0.000345	3.446126	1.167579	0.000138
1923	1.9124e+02	-3.4282	-27.224425	0.000355	3.547483	1.201920	0.000142
1924	1.9134e+02	-3.3817	-27.014494	0.000527	5.270546	1.785709	0.000211
1925	1.9144e+02	-3.3384	-26.844934	0.000426	4.256979	1.442304	0.000170
1926	1.9154e+02	-3.2967	-26.727857	0.000294	2.939343	0.995876	0.000118
1927	1.9164e+02	-3.2502	-26.570409	0.000395	3.952909	1.339282	0.000158
1928	1.9174e+02	-3.2149	-26.404886	0.000416	4.155623	1.407963	0.000166
1929	1.9184e+02	-3.1732	-26.295884	0.000274	2.736630	0.927195	0.000110
1930	1.9194e+02	-3.1475	-26.077878	0.000547	5.473259	1.854390	0.000219
1931	1.9203e+02	-3.1026	-25.952727	0.000314	3.142056	1.064557	0.000126
1932	1.9213e+02	-3.0721	-25.791242	0.000405	4.054266	1.373622	0.000162
1933	1.9223e+02	-3.0240	-25.613608	0.000446	4.459693	1.510985	0.000179
1934	1.9233e+02	-2.9775	-25.444048	0.000426	4.256979	1.442304	0.000170
1935	1.9243e+02	-2.9486	-25.314860	0.000324	3.243413	1.098898	0.000130
1936	1.9253e+02	-2.9037	-25.100891	0.000537	5.371902	1.820050	0.000215
1937	1.9263e+02	-2.8716	-24.919220	0.000456	4.561049	1.545325	0.000183
1938	1.9273e+02	-2.8234	-24.749661	0.000426	4.256979	1.442304	0.000170
1939	1.9283e+02	-2.7898	-24.588175	0.000405	4.054266	1.373622	0.000162
1940	1.9293e+02	-2.7336	-24.410541	0.000446	4.459693	1.510985	0.000179
1941	1.9303e+02	-2.7095	-24.236944	0.000436	4.358336	1.476644	0.000174
1942	1.9313e+02	-2.6678	-24.071422	0.000416	4.155623	1.407963	0.000166
1943	1.9323e+02	-2.6293	-23.893788	0.000446	4.459693	1.510985	0.000179
1944	1.9333e+02	-2.5892	-23.780748	0.000284	2.837986	0.961536	0.000114
1945	1.9343e+02	-2.5395	-23.574854	0.000517	5.169189	1.751369	0.000207
1946	1.9353e+02	-2.5042	-23.453740	0.000304	3.040699	1.030217	0.000122
1947	1.9363e+02	-2.4545	-23.320515	0.000334	3.344769	1.133239	0.000134
1948	1.9373e+02	-2.4288	-23.134806	0.000466	4.662406	1.579666	0.000187
1949	1.9383e+02	-2.3855	-22.989469	0.000365	3.648839	1.236260	0.000146
1950	1.9393e+02	-2.3470	-22.787613	0.000507	5.067832	1.717028	0.000203
1951	1.9403e+02	-2.3133	-22.638239	0.000375	3.750196	1.270601	0.000150
1952	1.9412e+02	-2.2588	-22.452530	0.000466	4.662406	1.579666	0.000187
1953	1.9422e+02	-2.2235	-22.274896	0.000446	4.459693	1.510985	0.000179
1954	1.9432e+02	-2.1898	-22.069003	0.000517	5.169189	1.751369	0.000207
1955	1.9442e+02	-2.1433	-21.931740	0.000345	3.446126	1.167579	0.000138
1956	1.9452e+02	-2.1064	-21.758143	0.000436	4.358336	1.476644	0.000174
1957	1.9462e+02	-2.0566	-21.572435	0.000466	4.662406	1.579666	0.000187
1958	1.9472e+02	-2.0181	-21.402875	0.000426	4.256979	1.442304	0.000170
1959	1.9482e+02	-1.9828	-21.233315	0.000426	4.256979	1.442304	0.000170
1960	1.9492e+02	-1.9491	-21.067793	0.000416	4.155623	1.407963	0.000166
1961	1.9502e+02	-1.9155	-20.926493	0.000355	3.547483	1.201920	0.000142
1962	1.9512e+02	-1.8577	-20.724636	0.000507	5.067832	1.717028	0.000203
1963	1.9522e+02	-1.8320	-20.571225	0.000385	3.851553	1.304941	0.000154
1964	1.9532e+02	-1.7887	-20.470297	0.000253	2.533916	0.858514	0.000101
1965	1.9542e+02	-1.7406	-20.280551	0.000476	4.763762	1.614006	0.000191
1966	1.9552e+02	-1.7021	-20.123103	0.000395	3.952909	1.339282	0.000158
1967	1.9562e+02	-1.6700	-19.993915	0.000324	3.243413	1.098898	0.000130
1968	1.9572e+02	-1.6331	-19.779947	0.000537	5.371902	1.820050	0.000215
1969	1.9582e+02	-1.5866	-19.586164	0.000487	4.865119	1.648347	0.000195
1970	1.9592e+02	-1.5481	-19.481199	0.000264	2.635273	0.892855	0.000105
1971	1.9601e+02	-1.5064	-19.287416	0.000487	4.865119	1.648347	0.000195
1972	1.9611e+02	-1.4711	-19.077485	0.000527	5.270546	1.785709	0.000211
1973	1.9621e+02	-1.4294	-18.903888	0.000436	4.358336	1.476644	0.000174
1974	1.9631e+02	-1.3925	-18.665697	0.000598	5.980042	2.026093	0.000239
1975	1.9641e+02	-1.3476	-18.560732	0.000264	2.635273	0.892855	0.000105
1976	1.9651e+02	-1.3155	-18.383098	0.000446	4.459693	1.510985	0.000179
1977	1.9661e+02	-1.2738	-18.201426	0.000456	4.561049	1.545325	0.000183
1978	1.9671e+02	-1.2369	-18.023793	0.000446	4.459693	1.510985	0.000179
1979	1.9681e+02	-1.1887	-17.850196	0.000436	4.358336	1.476644	0.000174
1980	1.9691e+02	-1.1422	-17.696785	0.000385	3.851553	1.304941	0.000154
1981	1.9701e+02	-1.1053	-17.543373	0.000385	3.851553	1.304941	0.000154
1982	1.9711e+02	-1.0668	-17.369777	0.000436	4.358336	1.476644	0.000174
1983	1.9721e+02	-1.0315	-17.171957	0.000497	4.966476	1.682688	0.000199
1984	1.9731e+02	-0.9882	-17.062954	0.000274	2.736630	0.927195	0.000110
1985	1.9741e+02	-0.9401	-16.848986	0.000537	5.371902	1.820050	0.000215
1986	1.9751e+02	-0.9144	-16.659241	0.000476	4.763762	1.614006	0.000191
1987	1.9761e+02	-0.8775	-16.509867	0.000375	3.750196	1.270601	0.000150
1988	1.9771e+02	-0.8358	-16.340307	0.000426	4.256979	1.442304	0.000170
1989	1.9781e+02	-0.7941	-16.150562	0.000476	4.763762	1.614006	0.000191
1990	1.9791e+02	-0.7508	-15.985039	0.000416	4.155623	1.407963	0.000166
1991	1.9800e+02	-0.7123	-15.771071	0.000537	5.371902	1.820050	0.000215
1992	1.9810e+02	-0.6786	-15.593437	0.000446	4.459693	1.510985	0.000179
1993	1.9820e+02	-0.6305	-15.391580	0.000507	5.067832	1.717028	0.000203
1994	1.9830e+02	-0.6000	-15.189723	0.000507	5.067832	1.717028	0.000203
1995	1.9840e+02	-0.5422	-15.020164	0.000426	4.256979	1.442304	0.000170
1996	1.9850e+02	-0.5101	-14.882901	0.000345	3.446126	1.167579	0.000138
1997	1.9860e+02	-0.4781	-14.693156	0.000476	4.763762	1.614006	0.000191
1998	1.9870e+02	-0.4380	-14.519559	0.000436	4.358336	1.476644	0.000174
1999	1.9880e+02	-0.3930	-14.345962	0.000436	4.358336	1.476644	0.000174
2000	1.9890e+02	-0.3433	-14.176402	0.000426	4.256979	1.442304	0.000170
2001	1.9900e+02	-0.3048	-14.006842	0.000426	4.256979	1.442304	0.000170
2002	1.9910e+02	-0.2711	-13.804986	0.000507	5.067832	1.717028	0.000203
2003	1.9920e+02	-0.2294	-13.639463	0.000416	4.155623	1.407963	0.000166
2004	1.9930e+02	-0.1813	-13.469903	0.000426	4.256979	1.442304	0.000170
2005	1.9940e+02	-0.1572	-13.284195	0.000466	4.662406	1.579666	0.000187
2006	1.9950e+02	-0.1075	-13.078301	0.000517	5.169189	1.751369	0.000207
2007	1.9960e+02	-0.0738	-12.900667	0.000446	4.459693	1.510985	0.000179
2008	1.9970e+02	-0.0385	-12.731108	0.000426	4.256979	1.442304	0.000170
2009	1.9980e+02	0.0064	-12.509065	0.000426	4.256979	1.442304	0.000223

PMax (uC/cm2):	8.59e+01
Pr (uC/cm2):	8.05e+00
-Pr (uC/cm2):	-4.99e+00
PLoss (uC/cm2):	-5.02e+00
-Vc:	-1.86e+00
C (Max-Eff) (nF):	4.30e-01
K (Eff):	1.46e+03
Vert. (+/-Pr) Shift (uC/cm2):	1.53e+00
Offset (uC/cm2):	7.52e+00

A (Loop Area - uC/cm2·Volts):	2.71e-02



Hysteresis Version: 5.48.1 - Radiant Technologies, Inc., 1999 - 9/12/24

