»»»»»»»»»»»»»»»»»»»»»»»»»»»»»»»»»»»» Hysteresis ««««««««««««««««««««««««««««««««««««
»»»  Executed Version:	5.48.1
»»»  Vision Version:	5.48.4 (R)
»»»  Vision Compiled:	9/18/24
»»»  Driver Version:	5.47.0
»»»  Windows Version:	Windows 8 or 8.1
»»»  Processor Information:	x86 (AMD or Intel) - 32 Processors
»»»  Tester Name:	PMF21124-494 (100V)
»»»  Tester S/N:	PMF21124-494
»»»  Internal Amp Type:	100V RevK 270k
»»»  Internal Amp S/N:	iAB2-596/K     
»»»  Execution Count:	1
»»»»»»»»»»»»»»»»»»»»»»»»»»»»»»»»»»»»»»»»»»««««««««««««««««««««««««««««««««««««««««««

Stored:	6/10/2025 - 14:36:12
Configured:	06/10/25 02:01:08 PM
Executed:	06/10/25 02:35:23 PM

»»»»»»»»»»»»»»»»»»»»»»»»»»»»»»»»»»» Sample Info ««««««««««««««««««««««««««««««««««««
Sample Name:	
Lot Name:	
Wafer Name:	
Die Row/Column:	0/0
Capacitor Number:	0
Sample Area (cm2):	1.00e-04
Sample Thickness (microns):	3.00e-01

Amplifier:	Internal

»»»»»»»»»»»»»»»»»»»»»»»»»»»»»»»»»»» Tester Info «««««««««««««««««««««««««««««««««««
Tester Name:	PMF21124-494 (100V)
Tester Serial Number:	PMF21124-494
Return Signal Amp. Level:	0.19 [Index: 3]

»»»»»»»»»»»»»»»»»»»»»»»»»»»»»»»» Hysteresis Info ««««««««««««««««««««««««««««««««««
Task Name:	Hyst-1027
Volts:	20.00
Field:	666.67 (kV/cm)
DCBias:	0.00
DCField:	0.00 (kV/cm)
Hysteresis Period (ms):	2.00e+02
Preset:	Enabled
Preset Delay (ms):	1.00e+03
Profile:	Standard Bipolar

»»»»»»»»»»»»»»»»»»»»»»»»»»»»»»»»»»»»»» Data «««««««««««««««««««««««««««««««««««««««
Points:	2009

Valid Data

Point	Time (ms)	Drive Voltage	Measured Polarization (uC/cm2)	Capacitance (uF)	Normalized Capacitance (uF/cm2)	Dielectric Constant	Instantaneous Current (mA)
   1	0.0000e+00	-0.0016	5.916422	0.000203	2.026401	0.686563	0.000081
   2	9.9500e-02	0.0241	5.997165	0.000203	2.026401	0.686563	0.000081
   3	1.9900e-01	0.0658	6.134428	0.000344	3.444882	1.167158	0.000138
   4	2.9850e-01	0.1059	6.207096	0.000182	1.823761	0.617907	0.000073
   5	3.9800e-01	0.1492	6.368582	0.000405	4.052803	1.373127	0.000162
   6	4.9750e-01	0.1909	6.469510	0.000253	2.533002	0.858204	0.000101
   7	5.9700e-01	0.2182	6.598698	0.000324	3.242242	1.098501	0.000130
   8	6.9650e-01	0.2647	6.752110	0.000385	3.850163	1.304470	0.000154
   9	7.9600e-01	0.3080	6.792481	0.000101	1.013201	0.343282	0.000041
  10	8.9550e-01	0.3449	6.962041	0.000426	4.255443	1.441783	0.000170
  11	9.9500e-01	0.3882	7.083155	0.000304	3.039602	1.029845	0.000122
  12	1.0945e+00	0.4299	7.192157	0.000274	2.735642	0.926861	0.000110
  13	1.1940e+00	0.4652	7.301160	0.000274	2.735642	0.926861	0.000110
  14	1.2935e+00	0.5021	7.430348	0.000324	3.242242	1.098501	0.000130
  15	1.3930e+00	0.5358	7.571648	0.000355	3.546202	1.201486	0.000142
  16	1.4925e+00	0.5871	7.684688	0.000284	2.836962	0.961189	0.000114
  17	1.5920e+00	0.6257	7.830025	0.000365	3.647522	1.235814	0.000146
  18	1.6915e+00	0.6609	7.951139	0.000304	3.039602	1.029845	0.000122
  19	1.7910e+00	0.6978	8.068216	0.000294	2.938282	0.995517	0.000118
  20	1.8905e+00	0.7428	8.217590	0.000375	3.748843	1.270142	0.000150
  21	1.9900e+00	0.7829	8.318518	0.000253	2.533002	0.858204	0.000101
  22	2.0895e+00	0.8230	8.471929	0.000385	3.850163	1.304470	0.000154
  23	2.1890e+00	0.8615	8.593043	0.000304	3.039602	1.029845	0.000122
  24	2.2885e+00	0.9032	8.706083	0.000284	2.836962	0.961189	0.000114
  25	2.3880e+00	0.9385	8.823160	0.000294	2.938282	0.995517	0.000118
  26	2.4875e+00	0.9834	8.956386	0.000334	3.343562	1.132830	0.000134
  27	2.5870e+00	1.0251	9.109797	0.000385	3.850163	1.304470	0.000154
  28	2.6865e+00	1.0620	9.210725	0.000253	2.533002	0.858204	0.000101
  29	2.7860e+00	1.0957	9.307616	0.000243	2.431682	0.823876	0.000097
  30	2.8855e+00	1.1374	9.452953	0.000365	3.647522	1.235814	0.000146
  31	2.9850e+00	1.1839	9.614439	0.000405	4.052803	1.373127	0.000162
  32	3.0845e+00	1.2256	9.735553	0.000304	3.039602	1.029845	0.000122
  33	3.1840e+00	1.2625	9.832444	0.000243	2.431682	0.823876	0.000097
  34	3.2835e+00	1.2962	9.989892	0.000395	3.951483	1.338799	0.000158
  35	3.3830e+00	1.3379	10.123118	0.000334	3.343562	1.132830	0.000134
  36	3.4825e+00	1.3748	10.252306	0.000324	3.242242	1.098501	0.000130
  37	3.5820e+00	1.4214	10.345160	0.000233	2.330362	0.789548	0.000093
  38	3.6815e+00	1.4566	10.502609	0.000395	3.951483	1.338799	0.000158
  39	3.7810e+00	1.5048	10.639871	0.000344	3.444882	1.167158	0.000138
  40	3.8805e+00	1.5417	10.789245	0.000375	3.748843	1.270142	0.000150
  41	3.9800e+00	1.5754	10.918434	0.000324	3.242242	1.098501	0.000130
  42	4.0795e+00	1.6219	10.983028	0.000162	1.621121	0.549251	0.000065
  43	4.1790e+00	1.6700	11.168736	0.000466	4.660723	1.579096	0.000187
  44	4.2785e+00	1.7037	11.273702	0.000263	2.634322	0.892532	0.000105
  45	4.3780e+00	1.7454	11.427113	0.000385	3.850163	1.304470	0.000154
  46	4.4775e+00	1.7855	11.548227	0.000304	3.039602	1.029845	0.000122
  47	4.5770e+00	1.8176	11.673378	0.000314	3.140922	1.064173	0.000126
  48	4.6765e+00	1.8593	11.766232	0.000233	2.330362	0.789548	0.000093
  49	4.7760e+00	1.9090	11.960015	0.000486	4.863363	1.647752	0.000195
  50	4.8755e+00	1.9379	12.044794	0.000213	2.127721	0.720892	0.000085
  51	4.9750e+00	1.9732	12.210317	0.000415	4.154123	1.407455	0.000166
  52	5.0745e+00	2.0197	12.347580	0.000344	3.444882	1.167158	0.000138
  53	5.1740e+00	2.0663	12.476768	0.000324	3.242242	1.098501	0.000130
  54	5.2735e+00	2.0919	12.589808	0.000284	2.836962	0.961189	0.000114
  55	5.3730e+00	2.1352	12.694773	0.000263	2.634322	0.892532	0.000105
  56	5.4725e+00	2.1898	12.884519	0.000476	4.762043	1.613424	0.000191
  57	5.5720e+00	2.2170	13.013707	0.000324	3.242242	1.098501	0.000130
  58	5.6715e+00	2.2636	13.146933	0.000334	3.343562	1.132830	0.000134
  59	5.7710e+00	2.3021	13.264009	0.000294	2.938282	0.995517	0.000118
  60	5.8705e+00	2.3422	13.445681	0.000456	4.559403	1.544768	0.000183
  61	5.9700e+00	2.3807	13.550646	0.000263	2.634322	0.892532	0.000105
  62	6.0695e+00	2.4208	13.683872	0.000334	3.343562	1.132830	0.000134
  63	6.1690e+00	2.4529	13.853431	0.000426	4.255443	1.441783	0.000170
  64	6.2685e+00	2.4962	13.962434	0.000274	2.735642	0.926861	0.000110
  65	6.3680e+00	2.5331	14.107771	0.000365	3.647522	1.235814	0.000146
  66	6.4675e+00	2.5844	14.273293	0.000415	4.154123	1.407455	0.000166
  67	6.5670e+00	2.6229	14.406519	0.000334	3.343562	1.132830	0.000134
  68	6.6665e+00	2.6614	14.543781	0.000344	3.444882	1.167158	0.000138
  69	6.7660e+00	2.6935	14.648747	0.000263	2.634322	0.892532	0.000105
  70	6.8655e+00	2.7352	14.806195	0.000395	3.951483	1.338799	0.000158
  71	6.9650e+00	2.7817	14.943458	0.000344	3.444882	1.167158	0.000138
  72	7.0645e+00	2.8202	15.104943	0.000405	4.052803	1.373127	0.000162
  73	7.1640e+00	2.8507	15.213946	0.000274	2.735642	0.926861	0.000110
  74	7.2635e+00	2.9005	15.411766	0.000496	4.964683	1.682080	0.000199
  75	7.3630e+00	2.9341	15.468286	0.000142	1.418481	0.480594	0.000057
  76	7.4625e+00	2.9807	15.645920	0.000446	4.458083	1.510439	0.000179
  77	7.5620e+00	3.0095	15.771071	0.000314	3.140922	1.064173	0.000126
  78	7.6615e+00	3.0577	15.884111	0.000284	2.836962	0.961189	0.000114
  79	7.7610e+00	3.0930	16.057707	0.000436	4.356763	1.476111	0.000174
  80	7.8605e+00	3.1411	16.215156	0.000395	3.951483	1.338799	0.000158
  81	7.9600e+00	3.1812	16.312047	0.000243	2.431682	0.823876	0.000097
  82	8.0595e+00	3.2101	16.473532	0.000405	4.052803	1.373127	0.000162
  83	8.1590e+00	3.2582	16.602721	0.000324	3.242242	1.098501	0.000130
  84	8.2585e+00	3.2967	16.723835	0.000304	3.039602	1.029845	0.000122
  85	8.3580e+00	3.3288	16.865135	0.000355	3.546202	1.201486	0.000142
  86	8.4575e+00	3.3801	16.998360	0.000334	3.343562	1.132830	0.000134
  87	8.5570e+00	3.4138	17.139660	0.000355	3.546202	1.201486	0.000142
  88	8.6565e+00	3.4571	17.293071	0.000385	3.850163	1.304470	0.000154
  89	8.7560e+00	3.4972	17.402074	0.000274	2.735642	0.926861	0.000110
  90	8.8555e+00	3.5389	17.551448	0.000375	3.748843	1.270142	0.000150
  91	8.9550e+00	3.5790	17.672562	0.000304	3.039602	1.029845	0.000122
  92	9.0545e+00	3.6095	17.834047	0.000405	4.052803	1.373127	0.000162
  93	9.1540e+00	3.6560	17.922864	0.000223	2.229041	0.755220	0.000089
  94	9.2535e+00	3.6881	18.096461	0.000436	4.356763	1.476111	0.000174
  95	9.3530e+00	3.7330	18.266021	0.000426	4.255443	1.441783	0.000170
  96	9.4525e+00	3.7764	18.387135	0.000304	3.039602	1.029845	0.000122
  97	9.5520e+00	3.8245	18.479989	0.000233	2.330362	0.789548	0.000093
  98	9.6515e+00	3.8502	18.629363	0.000375	3.748843	1.270142	0.000150
  99	9.7510e+00	3.8871	18.782774	0.000385	3.850163	1.304470	0.000154
 100	9.8505e+00	3.9288	18.924074	0.000355	3.546202	1.201486	0.000142
 101	9.9500e+00	3.9785	19.061336	0.000344	3.444882	1.167158	0.000138
 102	1.0050e+01	4.0138	19.190525	0.000324	3.242242	1.098501	0.000130
 103	1.0149e+01	4.0523	19.311639	0.000304	3.039602	1.029845	0.000122
 104	1.0248e+01	4.0796	19.493310	0.000456	4.559403	1.544768	0.000183
 105	1.0348e+01	4.1325	19.642684	0.000375	3.748843	1.270142	0.000150
 106	1.0447e+01	4.1822	19.759761	0.000294	2.938282	0.995517	0.000118
 107	1.0547e+01	4.2159	19.888949	0.000324	3.242242	1.098501	0.000130
 108	1.0646e+01	4.2464	20.018138	0.000324	3.242242	1.098501	0.000130
 109	1.0746e+01	4.2849	20.171549	0.000385	3.850163	1.304470	0.000154
 110	1.0845e+01	4.3298	20.276514	0.000263	2.634322	0.892532	0.000105
 111	1.0945e+01	4.3699	20.429925	0.000385	3.850163	1.304470	0.000154
 112	1.1044e+01	4.4132	20.551039	0.000304	3.039602	1.029845	0.000122
 113	1.1144e+01	4.4469	20.688302	0.000344	3.444882	1.167158	0.000138
 114	1.1243e+01	4.4951	20.837676	0.000375	3.748843	1.270142	0.000150
 115	1.1343e+01	4.5320	21.015310	0.000446	4.458083	1.510439	0.000179
 116	1.1443e+01	4.5753	21.120276	0.000263	2.634322	0.892532	0.000105
 117	1.1542e+01	4.6009	21.188907	0.000172	1.722441	0.583579	0.000069
 118	1.1642e+01	4.6491	21.366541	0.000446	4.458083	1.510439	0.000179
 119	1.1741e+01	4.6860	21.552249	0.000466	4.660723	1.579096	0.000187
 120	1.1841e+01	4.7277	21.677400	0.000314	3.140922	1.064173	0.000126
 121	1.1940e+01	4.7678	21.798514	0.000304	3.039602	1.029845	0.000122
 122	1.2040e+01	4.8127	21.943851	0.000365	3.647522	1.235814	0.000146
 123	1.2139e+01	4.8528	22.069003	0.000314	3.140922	1.064173	0.000126
 124	1.2239e+01	4.8897	22.186079	0.000294	2.938282	0.995517	0.000118
 125	1.2338e+01	4.9266	22.311231	0.000314	3.140922	1.064173	0.000126
 126	1.2438e+01	4.9747	22.432345	0.000304	3.039602	1.029845	0.000122
 127	1.2537e+01	5.0100	22.626127	0.000486	4.863363	1.647752	0.000195
 128	1.2636e+01	5.0437	22.727056	0.000253	2.533002	0.858204	0.000101
 129	1.2736e+01	5.0854	22.844133	0.000294	2.938282	0.995517	0.000118
 130	1.2835e+01	5.1255	23.025804	0.000456	4.559403	1.544768	0.000183
 131	1.2935e+01	5.1753	23.142881	0.000294	2.938282	0.995517	0.000118
 132	1.3034e+01	5.2041	23.292255	0.000375	3.748843	1.270142	0.000150
 133	1.3134e+01	5.2587	23.433554	0.000355	3.546202	1.201486	0.000142
 134	1.3233e+01	5.2876	23.562743	0.000324	3.242242	1.098501	0.000130
 135	1.3333e+01	5.3277	23.687894	0.000314	3.140922	1.064173	0.000126
 136	1.3432e+01	5.3630	23.817082	0.000324	3.242242	1.098501	0.000130
 137	1.3532e+01	5.3934	23.966456	0.000375	3.748843	1.270142	0.000150
 138	1.3632e+01	5.4544	24.067385	0.000253	2.533002	0.858204	0.000101
 139	1.3731e+01	5.4945	24.192536	0.000314	3.140922	1.064173	0.000126
 140	1.3831e+01	5.5202	24.345947	0.000385	3.850163	1.304470	0.000154
 141	1.3930e+01	5.5635	24.467061	0.000304	3.039602	1.029845	0.000122
 142	1.4030e+01	5.5972	24.588175	0.000304	3.039602	1.029845	0.000122
 143	1.4129e+01	5.6533	24.737549	0.000375	3.748843	1.270142	0.000150
 144	1.4229e+01	5.6950	24.858663	0.000304	3.039602	1.029845	0.000122
 145	1.4328e+01	5.7255	24.995926	0.000344	3.444882	1.167158	0.000138
 146	1.4428e+01	5.7624	25.149337	0.000385	3.850163	1.304470	0.000154
 147	1.4527e+01	5.8057	25.258340	0.000274	2.735642	0.926861	0.000110
 148	1.4627e+01	5.8490	25.367342	0.000274	2.735642	0.926861	0.000110
 149	1.4726e+01	5.8811	25.508642	0.000355	3.546202	1.201486	0.000142
 150	1.4825e+01	5.9260	25.601496	0.000233	2.330362	0.789548	0.000093
 151	1.4925e+01	5.9645	25.791242	0.000476	4.762043	1.613424	0.000191
 152	1.5024e+01	6.0127	25.884096	0.000233	2.330362	0.789548	0.000093
 153	1.5124e+01	6.0447	25.980987	0.000243	2.431682	0.823876	0.000097
 154	1.5223e+01	6.0833	26.158621	0.000446	4.458083	1.510439	0.000179
 155	1.5323e+01	6.1266	26.307995	0.000375	3.748843	1.270142	0.000150
 156	1.5422e+01	6.1651	26.408923	0.000253	2.533002	0.858204	0.000101
 157	1.5522e+01	6.2036	26.521963	0.000284	2.836962	0.961189	0.000114
 158	1.5621e+01	6.2533	26.703634	0.000456	4.559403	1.544768	0.000183
 159	1.5721e+01	6.2838	26.792451	0.000223	2.229041	0.755220	0.000089
 160	1.5820e+01	6.3239	26.937788	0.000365	3.647522	1.235814	0.000146
 161	1.5920e+01	6.3656	27.034679	0.000243	2.431682	0.823876	0.000097
 162	1.6020e+01	6.4073	27.196165	0.000405	4.052803	1.373127	0.000162
 163	1.6119e+01	6.4426	27.313242	0.000294	2.938282	0.995517	0.000118
 164	1.6218e+01	6.4763	27.454542	0.000355	3.546202	1.201486	0.000142
 165	1.6318e+01	6.5196	27.567581	0.000284	2.836962	0.961189	0.000114
 166	1.6418e+01	6.5645	27.680621	0.000284	2.836962	0.961189	0.000114
 167	1.6517e+01	6.5982	27.805772	0.000314	3.140922	1.064173	0.000126
 168	1.6616e+01	6.6447	27.963221	0.000395	3.951483	1.338799	0.000158
 169	1.6716e+01	6.6784	28.048001	0.000213	2.127721	0.720892	0.000085
 170	1.6816e+01	6.7233	28.197375	0.000375	3.748843	1.270142	0.000150
 171	1.6915e+01	6.7602	28.326563	0.000324	3.242242	1.098501	0.000130
 172	1.7015e+01	6.7939	28.451714	0.000314	3.140922	1.064173	0.000126
 173	1.7114e+01	6.8533	28.601088	0.000375	3.748843	1.270142	0.000150
 174	1.7213e+01	6.8661	28.726239	0.000314	3.140922	1.064173	0.000126
 175	1.7313e+01	6.9142	28.835242	0.000274	2.735642	0.926861	0.000110
 176	1.7413e+01	6.9656	28.968467	0.000334	3.343562	1.132830	0.000134
 177	1.7512e+01	6.9961	29.077470	0.000274	2.735642	0.926861	0.000110
 178	1.7611e+01	7.0362	29.194547	0.000294	2.938282	0.995517	0.000118
 179	1.7711e+01	7.0699	29.351995	0.000395	3.951483	1.338799	0.000158
 180	1.7811e+01	7.1164	29.489258	0.000344	3.444882	1.167158	0.000138
 181	1.7910e+01	7.1549	29.598261	0.000274	2.735642	0.926861	0.000110
 182	1.8009e+01	7.1998	29.691115	0.000233	2.330362	0.789548	0.000093
 183	1.8109e+01	7.2351	29.860674	0.000426	4.255443	1.441783	0.000170
 184	1.8209e+01	7.2704	30.014086	0.000385	3.850163	1.304470	0.000154
 185	1.8308e+01	7.3233	30.131163	0.000294	2.938282	0.995517	0.000118
 186	1.8407e+01	7.3538	30.232091	0.000253	2.533002	0.858204	0.000101
 187	1.8507e+01	7.4019	30.377428	0.000365	3.647522	1.235814	0.000146
 188	1.8607e+01	7.4404	30.490468	0.000284	2.836962	0.961189	0.000114
 189	1.8706e+01	7.4805	30.619656	0.000324	3.242242	1.098501	0.000130
 190	1.8805e+01	7.5174	30.724622	0.000263	2.634322	0.892532	0.000105
 191	1.8905e+01	7.5591	30.853810	0.000324	3.242242	1.098501	0.000130
 192	1.9005e+01	7.5944	30.999147	0.000365	3.647522	1.235814	0.000146
 193	1.9104e+01	7.6378	31.108149	0.000274	2.735642	0.926861	0.000110
 194	1.9203e+01	7.6843	31.253486	0.000365	3.647522	1.235814	0.000146
 195	1.9303e+01	7.7099	31.390749	0.000344	3.444882	1.167158	0.000138
 196	1.9402e+01	7.7613	31.475529	0.000213	2.127721	0.720892	0.000085
 197	1.9502e+01	7.8014	31.616829	0.000355	3.546202	1.201486	0.000142
 198	1.9602e+01	7.8335	31.733905	0.000294	2.938282	0.995517	0.000118
 199	1.9701e+01	7.8832	31.871168	0.000344	3.444882	1.167158	0.000138
 200	1.9800e+01	7.9137	32.004394	0.000334	3.343562	1.132830	0.000134
 201	1.9900e+01	7.9698	32.056876	0.000132	1.317161	0.446266	0.000053
 202	2.0000e+01	8.0019	32.254696	0.000496	4.964683	1.682080	0.000199
 203	2.0099e+01	8.0404	32.395996	0.000355	3.546202	1.201486	0.000142
 204	2.0198e+01	8.0661	32.460590	0.000162	1.621121	0.549251	0.000065
 205	2.0298e+01	8.1078	32.585741	0.000314	3.140922	1.064173	0.000126
 206	2.0398e+01	8.1639	32.714929	0.000324	3.242242	1.098501	0.000130
 207	2.0497e+01	8.1992	32.836044	0.000304	3.039602	1.029845	0.000122
 208	2.0596e+01	8.2361	32.973306	0.000344	3.444882	1.167158	0.000138
 209	2.0696e+01	8.2730	33.106532	0.000334	3.343562	1.132830	0.000134
 210	2.0796e+01	8.3147	33.223609	0.000294	2.938282	0.995517	0.000118
 211	2.0895e+01	8.3484	33.340685	0.000294	2.938282	0.995517	0.000118
 212	2.0994e+01	8.3901	33.453725	0.000284	2.836962	0.961189	0.000114
 213	2.1094e+01	8.4399	33.586951	0.000334	3.343562	1.132830	0.000134
 214	2.1194e+01	8.4768	33.704028	0.000294	2.938282	0.995517	0.000118
 215	2.1293e+01	8.5185	33.853402	0.000375	3.748843	1.270142	0.000150
 216	2.1392e+01	8.5586	33.934144	0.000203	2.026401	0.686563	0.000081
 217	2.1492e+01	8.5875	34.043147	0.000274	2.735642	0.926861	0.000110
 218	2.1591e+01	8.6292	34.208670	0.000415	4.154123	1.407455	0.000166
 219	2.1691e+01	8.6725	34.297487	0.000223	2.229041	0.755220	0.000089
 220	2.1791e+01	8.7174	34.438786	0.000355	3.546202	1.201486	0.000142
 221	2.1890e+01	8.7399	34.523566	0.000213	2.127721	0.720892	0.000085
 222	2.1989e+01	8.7848	34.668903	0.000365	3.647522	1.235814	0.000146
 223	2.2089e+01	8.8297	34.822314	0.000385	3.850163	1.304470	0.000154
 224	2.2189e+01	8.8730	34.947466	0.000314	3.140922	1.064173	0.000126
 225	2.2288e+01	8.9115	35.056468	0.000274	2.735642	0.926861	0.000110
 226	2.2387e+01	8.9532	35.189694	0.000334	3.343562	1.132830	0.000134
 227	2.2487e+01	8.9997	35.266399	0.000193	1.925081	0.652235	0.000077
 228	2.2587e+01	9.0350	35.452107	0.000466	4.660723	1.579096	0.000187
 229	2.2686e+01	9.0719	35.577259	0.000314	3.140922	1.064173	0.000126
 230	2.2785e+01	9.1201	35.666076	0.000223	2.229041	0.755220	0.000089
 231	2.2885e+01	9.1489	35.783153	0.000294	2.938282	0.995517	0.000118
 232	2.2985e+01	9.1826	35.944638	0.000405	4.052803	1.373127	0.000162
 233	2.3084e+01	9.2292	36.045566	0.000253	2.533002	0.858204	0.000101
 234	2.3183e+01	9.2805	36.158606	0.000284	2.836962	0.961189	0.000114
 235	2.3283e+01	9.3046	36.287795	0.000324	3.242242	1.098501	0.000130
 236	2.3383e+01	9.3495	36.380649	0.000233	2.330362	0.789548	0.000093
 237	2.3482e+01	9.3944	36.530023	0.000375	3.748843	1.270142	0.000150
 238	2.3581e+01	9.4457	36.655174	0.000314	3.140922	1.064173	0.000126
 239	2.3681e+01	9.4778	36.764177	0.000274	2.735642	0.926861	0.000110
 240	2.3780e+01	9.5099	36.897402	0.000334	3.343562	1.132830	0.000134
 241	2.3880e+01	9.5436	37.014479	0.000294	2.938282	0.995517	0.000118
 242	2.3980e+01	9.5917	37.143667	0.000324	3.242242	1.098501	0.000130
 243	2.4079e+01	9.6286	37.272856	0.000324	3.242242	1.098501	0.000130
 244	2.4178e+01	9.6703	37.349561	0.000193	1.925081	0.652235	0.000077
 245	2.4278e+01	9.7024	37.502972	0.000385	3.850163	1.304470	0.000154
 246	2.4378e+01	9.7489	37.607938	0.000263	2.634322	0.892532	0.000105
 247	2.4477e+01	9.7858	37.773461	0.000415	4.154123	1.407455	0.000166
 248	2.4576e+01	9.8291	37.842092	0.000172	1.722441	0.583579	0.000069
 249	2.4676e+01	9.8741	38.015689	0.000436	4.356763	1.476111	0.000174
 250	2.4776e+01	9.9029	38.104506	0.000223	2.229041	0.755220	0.000089
 251	2.4875e+01	9.9511	38.213508	0.000274	2.735642	0.926861	0.000110
 252	2.4974e+01	9.9912	38.334622	0.000304	3.039602	1.029845	0.000122
 253	2.5074e+01	10.0297	38.492071	0.000395	3.951483	1.338799	0.000158
 254	2.5174e+01	10.0617	38.588962	0.000243	2.431682	0.823876	0.000097
 255	2.5273e+01	10.1051	38.681816	0.000233	2.330362	0.789548	0.000093
 256	2.5372e+01	10.1468	38.843302	0.000405	4.052803	1.373127	0.000162
 257	2.5472e+01	10.1885	38.960378	0.000294	2.938282	0.995517	0.000118
 258	2.5572e+01	10.2350	39.053233	0.000233	2.330362	0.789548	0.000093
 259	2.5671e+01	10.2591	39.170309	0.000294	2.938282	0.995517	0.000118
 260	2.5770e+01	10.3056	39.303535	0.000334	3.343562	1.132830	0.000134
 261	2.5870e+01	10.3441	39.432723	0.000324	3.242242	1.098501	0.000130
 262	2.5970e+01	10.3826	39.545763	0.000284	2.836962	0.961189	0.000114
 263	2.6069e+01	10.4275	39.658803	0.000284	2.836962	0.961189	0.000114
 264	2.6169e+01	10.4628	39.779917	0.000304	3.039602	1.029845	0.000122
 265	2.6268e+01	10.5141	39.872771	0.000233	2.330362	0.789548	0.000093
 266	2.6367e+01	10.5526	40.050405	0.000446	4.458083	1.510439	0.000179
 267	2.6467e+01	10.5783	40.102888	0.000132	1.317161	0.446266	0.000053
 268	2.6567e+01	10.6232	40.228039	0.000314	3.140922	1.064173	0.000126
 269	2.6666e+01	10.6665	40.349153	0.000304	3.039602	1.029845	0.000122
 270	2.6765e+01	10.7115	40.478341	0.000324	3.242242	1.098501	0.000130
 271	2.6865e+01	10.7468	40.615604	0.000344	3.444882	1.167158	0.000138
 272	2.6965e+01	10.7853	40.700384	0.000213	2.127721	0.720892	0.000085
 273	2.7064e+01	10.8286	40.825535	0.000314	3.140922	1.064173	0.000126
 274	2.7163e+01	10.8687	40.942612	0.000294	2.938282	0.995517	0.000118
 275	2.7263e+01	10.9072	41.051615	0.000274	2.735642	0.926861	0.000110
 276	2.7363e+01	10.9393	41.196952	0.000365	3.647522	1.235814	0.000146
 277	2.7462e+01	10.9922	41.285769	0.000223	2.229041	0.755220	0.000089
 278	2.7561e+01	11.0243	41.410920	0.000314	3.140922	1.064173	0.000126
 279	2.7661e+01	11.0644	41.511848	0.000253	2.533002	0.858204	0.000101
 280	2.7761e+01	11.1029	41.628925	0.000294	2.938282	0.995517	0.000118
 281	2.7860e+01	11.1414	41.750039	0.000304	3.039602	1.029845	0.000122
 282	2.7959e+01	11.1815	41.879228	0.000324	3.242242	1.098501	0.000130
 283	2.8059e+01	11.2248	41.996305	0.000294	2.938282	0.995517	0.000118
 284	2.8159e+01	11.2665	42.085122	0.000223	2.229041	0.755220	0.000089
 285	2.8258e+01	11.3002	42.218347	0.000334	3.343562	1.132830	0.000134
 286	2.8358e+01	11.3451	42.339461	0.000304	3.039602	1.029845	0.000122
 287	2.8457e+01	11.3804	42.440389	0.000253	2.533002	0.858204	0.000101
 288	2.8556e+01	11.4253	42.561504	0.000304	3.039602	1.029845	0.000122
 289	2.8656e+01	11.4638	42.690692	0.000324	3.242242	1.098501	0.000130
 290	2.8756e+01	11.5040	42.791620	0.000253	2.533002	0.858204	0.000101
 291	2.8855e+01	11.5409	42.924846	0.000334	3.343562	1.132830	0.000134
 292	2.8954e+01	11.5874	43.013663	0.000223	2.229041	0.755220	0.000089
 293	2.9054e+01	11.6211	43.134777	0.000304	3.039602	1.029845	0.000122
 294	2.9154e+01	11.6676	43.268002	0.000334	3.343562	1.132830	0.000134
 295	2.9253e+01	11.6916	43.381042	0.000284	2.836962	0.961189	0.000114
 296	2.9352e+01	11.7462	43.486008	0.000263	2.634322	0.892532	0.000105
 297	2.9452e+01	11.7847	43.599047	0.000284	2.836962	0.961189	0.000114
 298	2.9552e+01	11.8168	43.768607	0.000426	4.255443	1.441783	0.000170
 299	2.9651e+01	11.8617	43.877610	0.000274	2.735642	0.926861	0.000110
 300	2.9750e+01	11.9002	43.942204	0.000162	1.621121	0.549251	0.000065
 301	2.9850e+01	11.9307	44.071392	0.000324	3.242242	1.098501	0.000130
 302	2.9950e+01	11.9884	44.192506	0.000304	3.039602	1.029845	0.000122
 303	3.0049e+01	12.0253	44.281323	0.000223	2.229041	0.755220	0.000089
 304	3.0148e+01	12.0622	44.426660	0.000365	3.647522	1.235814	0.000146
 305	3.0248e+01	12.0959	44.527589	0.000253	2.533002	0.858204	0.000101
 306	3.0348e+01	12.1392	44.608331	0.000203	2.026401	0.686563	0.000081
 307	3.0447e+01	12.1825	44.721371	0.000284	2.836962	0.961189	0.000114
 308	3.0547e+01	12.2243	44.874782	0.000385	3.850163	1.304470	0.000154
 309	3.0646e+01	12.2660	44.979748	0.000263	2.634322	0.892532	0.000105
 310	3.0745e+01	12.2997	45.060491	0.000203	2.026401	0.686563	0.000081
 311	3.0845e+01	12.3430	45.234087	0.000436	4.356763	1.476111	0.000174
 312	3.0945e+01	12.3847	45.266384	0.000081	0.810561	0.274625	0.000032
 313	3.1044e+01	12.4232	45.399610	0.000334	3.343562	1.132830	0.000134
 314	3.1143e+01	12.4633	45.520724	0.000304	3.039602	1.029845	0.000122
 315	3.1243e+01	12.5114	45.601467	0.000203	2.026401	0.686563	0.000081
 316	3.1343e+01	12.5419	45.730655	0.000324	3.242242	1.098501	0.000130
 317	3.1442e+01	12.5804	45.803324	0.000182	1.823761	0.617907	0.000073
 318	3.1541e+01	12.6221	45.956735	0.000385	3.850163	1.304470	0.000154
 319	3.1641e+01	12.6558	46.037477	0.000203	2.026401	0.686563	0.000081
 320	3.1741e+01	12.7055	46.138406	0.000253	2.533002	0.858204	0.000101
 321	3.1840e+01	12.7408	46.271631	0.000334	3.343562	1.132830	0.000134
 322	3.1939e+01	12.7761	46.392745	0.000304	3.039602	1.029845	0.000122
 323	3.2039e+01	12.8130	46.485599	0.000233	2.330362	0.789548	0.000093
 324	3.2139e+01	12.8595	46.622862	0.000344	3.444882	1.167158	0.000138
 325	3.2238e+01	12.8980	46.715716	0.000233	2.330362	0.789548	0.000093
 326	3.2337e+01	12.9301	46.820682	0.000263	2.634322	0.892532	0.000105
 327	3.2437e+01	12.9782	46.909499	0.000223	2.229041	0.755220	0.000089
 328	3.2536e+01	13.0151	47.002353	0.000233	2.330362	0.789548	0.000093
 329	3.2636e+01	13.0601	47.135578	0.000334	3.343562	1.132830	0.000134
 330	3.2736e+01	13.0986	47.224395	0.000223	2.229041	0.755220	0.000089
 331	3.2835e+01	13.1355	47.345509	0.000304	3.039602	1.029845	0.000122
 332	3.2934e+01	13.1740	47.470661	0.000314	3.140922	1.064173	0.000126
 333	3.3034e+01	13.2157	47.571589	0.000253	2.533002	0.858204	0.000101
 334	3.3133e+01	13.2574	47.688666	0.000294	2.938282	0.995517	0.000118
 335	3.3233e+01	13.2959	47.793631	0.000263	2.634322	0.892532	0.000105
 336	3.3333e+01	13.3344	47.890523	0.000243	2.431682	0.823876	0.000097
 337	3.3432e+01	13.3713	48.023748	0.000334	3.343562	1.132830	0.000134
 338	3.3532e+01	13.4242	48.108528	0.000213	2.127721	0.720892	0.000085
 339	3.3631e+01	13.4563	48.217531	0.000274	2.735642	0.926861	0.000110
 340	3.3730e+01	13.4868	48.310385	0.000233	2.330362	0.789548	0.000093
 341	3.3830e+01	13.5333	48.439573	0.000324	3.242242	1.098501	0.000130
 342	3.3929e+01	13.5718	48.560687	0.000304	3.039602	1.029845	0.000122
 343	3.4029e+01	13.6167	48.677764	0.000294	2.938282	0.995517	0.000118
 344	3.4129e+01	13.6472	48.766581	0.000223	2.229041	0.755220	0.000089
 345	3.4228e+01	13.7001	48.859435	0.000233	2.330362	0.789548	0.000093
 346	3.4328e+01	13.7322	48.972475	0.000284	2.836962	0.961189	0.000114
 347	3.4427e+01	13.7675	49.093589	0.000304	3.039602	1.029845	0.000122
 348	3.4526e+01	13.8124	49.202592	0.000274	2.735642	0.926861	0.000110
 349	3.4626e+01	13.8558	49.283335	0.000203	2.026401	0.686563	0.000081
 350	3.4725e+01	13.8911	49.400411	0.000294	2.938282	0.995517	0.000118
 351	3.4825e+01	13.9296	49.489228	0.000223	2.229041	0.755220	0.000089
 352	3.4925e+01	13.9713	49.650714	0.000405	4.052803	1.373127	0.000162
 353	3.5024e+01	14.0290	49.727419	0.000193	1.925081	0.652235	0.000077
 354	3.5123e+01	14.0451	49.820274	0.000233	2.330362	0.789548	0.000093
 355	3.5223e+01	14.0852	49.929276	0.000274	2.735642	0.926861	0.000110
 356	3.5322e+01	14.1285	50.026167	0.000243	2.431682	0.823876	0.000097
 357	3.5422e+01	14.1750	50.155356	0.000324	3.242242	1.098501	0.000130
 358	3.5522e+01	14.2215	50.219950	0.000162	1.621121	0.549251	0.000065
 359	3.5621e+01	14.2488	50.357213	0.000344	3.444882	1.167158	0.000138
 360	3.5721e+01	14.2937	50.470252	0.000284	2.836962	0.961189	0.000114
 361	3.5820e+01	14.3370	50.579255	0.000274	2.735642	0.926861	0.000110
 362	3.5919e+01	14.3723	50.672109	0.000233	2.330362	0.789548	0.000093
 363	3.6019e+01	14.4140	50.769000	0.000243	2.431682	0.823876	0.000097
 364	3.6118e+01	14.4477	50.890115	0.000304	3.039602	1.029845	0.000122
 365	3.6218e+01	14.4958	51.007191	0.000294	2.938282	0.995517	0.000118
 366	3.6318e+01	14.5295	51.100046	0.000233	2.330362	0.789548	0.000093
 367	3.6417e+01	14.5809	51.196937	0.000243	2.431682	0.823876	0.000097
 368	3.6517e+01	14.6065	51.301902	0.000263	2.634322	0.892532	0.000105
 369	3.6616e+01	14.6499	51.463388	0.000405	4.052803	1.373127	0.000162
 370	3.6715e+01	14.6787	51.540093	0.000193	1.925081	0.652235	0.000077
 371	3.6815e+01	14.7269	51.653133	0.000284	2.836962	0.961189	0.000114
 372	3.6914e+01	14.7766	51.693505	0.000101	1.013201	0.343282	0.000041
 373	3.7014e+01	14.8231	51.842879	0.000375	3.748843	1.270142	0.000150
 374	3.7114e+01	14.8440	51.951881	0.000274	2.735642	0.926861	0.000110
 375	3.7213e+01	14.8937	52.024550	0.000182	1.823761	0.617907	0.000073
 376	3.7313e+01	14.9306	52.149701	0.000314	3.140922	1.064173	0.000126
 377	3.7412e+01	14.9675	52.214295	0.000162	1.621121	0.549251	0.000065
 378	3.7511e+01	15.0044	52.347521	0.000334	3.343562	1.132830	0.000134
 379	3.7611e+01	15.0509	52.472672	0.000314	3.140922	1.064173	0.000126
 380	3.7711e+01	15.0782	52.553414	0.000203	2.026401	0.686563	0.000081
 381	3.7810e+01	15.1231	52.678566	0.000314	3.140922	1.064173	0.000126
 382	3.7910e+01	15.1712	52.779494	0.000253	2.533002	0.858204	0.000101
 383	3.8009e+01	15.2001	52.844088	0.000162	1.621121	0.549251	0.000065
 384	3.8108e+01	15.2466	52.953091	0.000274	2.735642	0.926861	0.000110
 385	3.8208e+01	15.2867	53.070168	0.000294	2.938282	0.995517	0.000118
 386	3.8307e+01	15.3252	53.179171	0.000274	2.735642	0.926861	0.000110
 387	3.8407e+01	15.3734	53.292210	0.000284	2.836962	0.961189	0.000114
 388	3.8507e+01	15.4135	53.417362	0.000314	3.140922	1.064173	0.000126
 389	3.8606e+01	15.4488	53.514253	0.000243	2.431682	0.823876	0.000097
 390	3.8706e+01	15.4825	53.586921	0.000182	1.823761	0.617907	0.000073
 391	3.8805e+01	15.5322	53.708035	0.000304	3.039602	1.029845	0.000122
 392	3.8904e+01	15.5707	53.821075	0.000284	2.836962	0.961189	0.000114
 393	3.9004e+01	15.6044	53.897781	0.000193	1.925081	0.652235	0.000077
 394	3.9103e+01	15.6429	54.075415	0.000446	4.458083	1.510439	0.000179
 395	3.9203e+01	15.6878	54.168269	0.000233	2.330362	0.789548	0.000093
 396	3.9303e+01	15.7199	54.240937	0.000182	1.823761	0.617907	0.000073
 397	3.9402e+01	15.7696	54.353977	0.000284	2.836962	0.961189	0.000114
 398	3.9502e+01	15.8113	54.450868	0.000243	2.431682	0.823876	0.000097
 399	3.9601e+01	15.8434	54.559871	0.000274	2.735642	0.926861	0.000110
 400	3.9700e+01	15.8931	54.668874	0.000274	2.735642	0.926861	0.000110
 401	3.9800e+01	15.9220	54.713282	0.000111	1.114521	0.377610	0.000045
 402	3.9900e+01	15.9685	54.846508	0.000334	3.343562	1.132830	0.000134
 403	3.9999e+01	16.0054	54.987807	0.000355	3.546202	1.201486	0.000142
 404	4.0099e+01	16.0423	55.056439	0.000172	1.722441	0.583579	0.000069
 405	4.0198e+01	16.0889	55.209850	0.000385	3.850163	1.304470	0.000154
 406	4.0297e+01	16.1274	55.290593	0.000203	2.026401	0.686563	0.000081
 407	4.0397e+01	16.1626	55.379409	0.000223	2.229041	0.755220	0.000089
 408	4.0496e+01	16.1963	55.480338	0.000253	2.533002	0.858204	0.000101
 409	4.0596e+01	16.2413	55.637786	0.000395	3.951483	1.338799	0.000158
 410	4.0696e+01	16.2894	55.698343	0.000152	1.519801	0.514923	0.000061
 411	4.0795e+01	16.3247	55.823494	0.000314	3.140922	1.064173	0.000126
 412	4.0895e+01	16.3552	55.916349	0.000233	2.330362	0.789548	0.000093
 413	4.0994e+01	16.4049	56.037463	0.000304	3.039602	1.029845	0.000122
 414	4.1093e+01	16.4386	56.134354	0.000243	2.431682	0.823876	0.000097
 415	4.1193e+01	16.4787	56.227208	0.000233	2.330362	0.789548	0.000093
 416	4.1292e+01	16.5236	56.328136	0.000253	2.533002	0.858204	0.000101
 417	4.1392e+01	16.5685	56.392731	0.000162	1.621121	0.549251	0.000065
 418	4.1492e+01	16.6022	56.542105	0.000375	3.748843	1.270142	0.000150
 419	4.1591e+01	16.6423	56.655144	0.000284	2.836962	0.961189	0.000114
 420	4.1691e+01	16.6904	56.747999	0.000233	2.330362	0.789548	0.000093
 421	4.1790e+01	16.7225	56.848927	0.000253	2.533002	0.858204	0.000101
 422	4.1889e+01	16.7706	56.961967	0.000284	2.836962	0.961189	0.000114
 423	4.1989e+01	16.8075	57.083081	0.000304	3.039602	1.029845	0.000122
 424	4.2089e+01	16.8396	57.143638	0.000152	1.519801	0.514923	0.000061
 425	4.2188e+01	16.8813	57.288975	0.000365	3.647522	1.235814	0.000146
 426	4.2288e+01	16.9214	57.309160	0.000051	0.506600	0.171641	0.000020
 427	4.2387e+01	16.9616	57.474683	0.000415	4.154123	1.407455	0.000166
 428	4.2486e+01	16.9952	57.559463	0.000213	2.127721	0.720892	0.000085
 429	4.2586e+01	17.0289	57.640205	0.000203	2.026401	0.686563	0.000081
 430	4.2685e+01	17.0787	57.761320	0.000304	3.039602	1.029845	0.000122
 431	4.2785e+01	17.1188	57.850137	0.000223	2.229041	0.755220	0.000089
 432	4.2885e+01	17.1525	57.947028	0.000243	2.431682	0.823876	0.000097
 433	4.2984e+01	17.2054	58.047956	0.000253	2.533002	0.858204	0.000101
 434	4.3084e+01	17.2423	58.165033	0.000294	2.938282	0.995517	0.000118
 435	4.3183e+01	17.2712	58.257887	0.000233	2.330362	0.789548	0.000093
 436	4.3282e+01	17.3177	58.350741	0.000233	2.330362	0.789548	0.000093
 437	4.3382e+01	17.3642	58.463781	0.000284	2.836962	0.961189	0.000114
 438	4.3481e+01	17.3963	58.556635	0.000233	2.330362	0.789548	0.000093
 439	4.3581e+01	17.4476	58.697935	0.000355	3.546202	1.201486	0.000142
 440	4.3681e+01	17.4829	58.798863	0.000253	2.533002	0.858204	0.000101
 441	4.3780e+01	17.5134	58.883643	0.000213	2.127721	0.720892	0.000085
 442	4.3880e+01	17.5599	58.964386	0.000203	2.026401	0.686563	0.000081
 443	4.3979e+01	17.6016	59.113760	0.000375	3.748843	1.270142	0.000150
 444	4.4078e+01	17.6273	59.182391	0.000172	1.722441	0.583579	0.000069
 445	4.4178e+01	17.6770	59.271208	0.000223	2.229041	0.755220	0.000089
 446	4.4278e+01	17.7155	59.408471	0.000344	3.444882	1.167158	0.000138
 447	4.4377e+01	17.7637	59.464991	0.000142	1.418481	0.480594	0.000057
 448	4.4477e+01	17.8038	59.578031	0.000284	2.836962	0.961189	0.000114
 449	4.4576e+01	17.8375	59.646662	0.000172	1.722441	0.583579	0.000069
 450	4.4675e+01	17.8712	59.759702	0.000284	2.836962	0.961189	0.000114
 451	4.4775e+01	17.9193	59.880816	0.000304	3.039602	1.029845	0.000122
 452	4.4874e+01	17.9610	59.957521	0.000193	1.925081	0.652235	0.000077
 453	4.4974e+01	17.9947	60.078635	0.000304	3.039602	1.029845	0.000122
 454	4.5074e+01	18.0428	60.155341	0.000193	1.925081	0.652235	0.000077
 455	4.5173e+01	18.0765	60.288567	0.000334	3.343562	1.132830	0.000134
 456	4.5273e+01	18.1230	60.353161	0.000162	1.621121	0.549251	0.000065
 457	4.5372e+01	18.1519	60.498498	0.000365	3.647522	1.235814	0.000146
 458	4.5471e+01	18.1952	60.591352	0.000233	2.330362	0.789548	0.000093
 459	4.5571e+01	18.2353	60.659983	0.000172	1.722441	0.583579	0.000069
 460	4.5670e+01	18.2754	60.768986	0.000274	2.735642	0.926861	0.000110
 461	4.5770e+01	18.3139	60.873951	0.000263	2.634322	0.892532	0.000105
 462	4.5870e+01	18.3508	60.999102	0.000314	3.140922	1.064173	0.000126
 463	4.5969e+01	18.3909	61.071771	0.000182	1.823761	0.617907	0.000073
 464	4.6069e+01	18.4374	61.168662	0.000243	2.431682	0.823876	0.000097
 465	4.6168e+01	18.4759	61.297850	0.000324	3.242242	1.098501	0.000130
 466	4.6267e+01	18.5177	61.370519	0.000182	1.823761	0.617907	0.000073
 467	4.6367e+01	18.5497	61.523930	0.000385	3.850163	1.304470	0.000154
 468	4.6467e+01	18.5915	61.576413	0.000132	1.317161	0.446266	0.000053
 469	4.6566e+01	18.6364	61.705601	0.000324	3.242242	1.098501	0.000130
 470	4.6666e+01	18.6797	61.778270	0.000182	1.823761	0.617907	0.000073
 471	4.6765e+01	18.7166	61.883235	0.000263	2.634322	0.892532	0.000105
 472	4.6864e+01	18.7535	61.980126	0.000243	2.431682	0.823876	0.000097
 473	4.6964e+01	18.7952	62.093166	0.000284	2.836962	0.961189	0.000114
 474	4.7063e+01	18.8417	62.206206	0.000284	2.836962	0.961189	0.000114
 475	4.7163e+01	18.8786	62.254652	0.000122	1.215841	0.411938	0.000049
 476	4.7263e+01	18.9171	62.391914	0.000344	3.444882	1.167158	0.000138
 477	4.7362e+01	18.9556	62.480731	0.000223	2.229041	0.755220	0.000089
 478	4.7462e+01	18.9957	62.545325	0.000162	1.621121	0.549251	0.000065
 479	4.7561e+01	19.0294	62.702774	0.000395	3.951483	1.338799	0.000158
 480	4.7660e+01	19.0711	62.779479	0.000193	1.925081	0.652235	0.000077
 481	4.7760e+01	19.1160	62.864259	0.000213	2.127721	0.720892	0.000085
 482	4.7859e+01	19.1465	62.961150	0.000243	2.431682	0.823876	0.000097
 483	4.7959e+01	19.1946	63.029782	0.000172	1.722441	0.583579	0.000069
 484	4.8059e+01	19.2331	63.106487	0.000193	1.925081	0.652235	0.000077
 485	4.8158e+01	19.2652	63.247787	0.000355	3.546202	1.201486	0.000142
 486	4.8258e+01	19.3069	63.316418	0.000172	1.722441	0.583579	0.000069
 487	4.8357e+01	19.3519	63.449644	0.000334	3.343562	1.132830	0.000134
 488	4.8456e+01	19.3936	63.534424	0.000213	2.127721	0.720892	0.000085
 489	4.8556e+01	19.4369	63.623241	0.000223	2.229041	0.755220	0.000089
 490	4.8656e+01	19.4770	63.712058	0.000223	2.229041	0.755220	0.000089
 491	4.8755e+01	19.5075	63.788763	0.000193	1.925081	0.652235	0.000077
 492	4.8855e+01	19.5412	63.901803	0.000284	2.836962	0.961189	0.000114
 493	4.8954e+01	19.5941	63.990620	0.000223	2.229041	0.755220	0.000089
 494	4.9053e+01	19.6310	64.103660	0.000284	2.836962	0.961189	0.000114
 495	4.9153e+01	19.6679	64.236885	0.000334	3.343562	1.132830	0.000134
 496	4.9252e+01	19.7128	64.289368	0.000132	1.317161	0.446266	0.000053
 497	4.9352e+01	19.7577	64.382222	0.000233	2.330362	0.789548	0.000093
 498	4.9452e+01	19.7850	64.479113	0.000243	2.431682	0.823876	0.000097
 499	4.9551e+01	19.8283	64.592153	0.000284	2.836962	0.961189	0.000114
 500	4.9651e+01	19.8716	64.693082	0.000253	2.533002	0.858204	0.000101
 501	4.9750e+01	19.9085	64.773824	0.000203	2.026401	0.686563	0.000081
 502	4.9849e+01	19.9454	64.898976	0.000314	3.140922	1.064173	0.000126
 503	4.9949e+01	20.0016	64.995867	0.000243	2.431682	0.823876	0.000097
 504	5.0048e+01	19.9551	64.927236	0.000172	1.722441	0.583579	-0.000069
 505	5.0148e+01	19.9198	64.814196	0.000284	2.836962	0.961189	-0.000114
 506	5.0248e+01	19.8732	64.777861	0.000091	0.911881	0.308954	-0.000037
 507	5.0347e+01	19.8267	64.773824	0.000010	0.101320	0.034328	-0.000004
 508	5.0447e+01	19.7930	64.689044	0.000213	2.127721	0.720892	-0.000085
 509	5.0546e+01	19.7545	64.620413	0.000172	1.722441	0.583579	-0.000069
 510	5.0645e+01	19.7128	64.543708	0.000193	1.925081	0.652235	-0.000077
 511	5.0745e+01	19.6727	64.471039	0.000182	1.823761	0.617907	-0.000073
 512	5.0844e+01	19.6358	64.446816	0.000061	0.607920	0.205969	-0.000024
 513	5.0944e+01	19.5845	64.366074	0.000203	2.026401	0.686563	-0.000081
 514	5.1044e+01	19.5476	64.265145	0.000253	2.533002	0.858204	-0.000101
 515	5.1143e+01	19.5107	64.180365	0.000213	2.127721	0.720892	-0.000085
 516	5.1242e+01	19.4626	64.135957	0.000111	1.114521	0.377610	-0.000045
 517	5.1342e+01	19.4369	64.063288	0.000182	1.823761	0.617907	-0.000073
 518	5.1441e+01	19.3823	63.966397	0.000243	2.431682	0.823876	-0.000097
 519	5.1541e+01	19.3519	63.913914	0.000132	1.317161	0.446266	-0.000053
 520	5.1641e+01	19.3102	63.825097	0.000223	2.229041	0.755220	-0.000089
 521	5.1740e+01	19.2700	63.792800	0.000081	0.810561	0.274625	-0.000032
 522	5.1840e+01	19.2267	63.683798	0.000274	2.735642	0.926861	-0.000110
 523	5.1939e+01	19.1914	63.607092	0.000193	1.925081	0.652235	-0.000077
 524	5.2038e+01	19.1577	63.538461	0.000172	1.722441	0.583579	-0.000069
 525	5.2138e+01	19.1128	63.461755	0.000193	1.925081	0.652235	-0.000077
 526	5.2237e+01	19.0727	63.376975	0.000213	2.127721	0.720892	-0.000085
 527	5.2337e+01	19.0342	63.304307	0.000182	1.823761	0.617907	-0.000073
 528	5.2437e+01	19.0005	63.259898	0.000111	1.114521	0.377610	-0.000045
 529	5.2536e+01	18.9380	63.158970	0.000253	2.533002	0.858204	-0.000101
 530	5.2636e+01	18.9251	63.086302	0.000182	1.823761	0.617907	-0.000073
 531	5.2735e+01	18.8722	63.025745	0.000152	1.519801	0.514923	-0.000061
 532	5.2834e+01	18.8401	62.949039	0.000193	1.925081	0.652235	-0.000077
 533	5.2934e+01	18.7920	62.872333	0.000193	1.925081	0.652235	-0.000077
 534	5.3033e+01	18.7535	62.783516	0.000223	2.229041	0.755220	-0.000089
 535	5.3133e+01	18.7230	62.698737	0.000213	2.127721	0.720892	-0.000085
 536	5.3233e+01	18.6813	62.622031	0.000193	1.925081	0.652235	-0.000077
 537	5.3332e+01	18.6396	62.569548	0.000132	1.317161	0.446266	-0.000053
 538	5.3431e+01	18.6091	62.480731	0.000223	2.229041	0.755220	-0.000089
 539	5.3531e+01	18.5497	62.412100	0.000172	1.722441	0.583579	-0.000069
 540	5.3630e+01	18.5096	62.323283	0.000223	2.229041	0.755220	-0.000089
 541	5.3730e+01	18.4824	62.206206	0.000294	2.938282	0.995517	-0.000118
 542	5.3830e+01	18.4278	62.157760	0.000122	1.215841	0.411938	-0.000049
 543	5.3929e+01	18.3989	62.081055	0.000193	1.925081	0.652235	-0.000077
 544	5.4029e+01	18.3572	61.988201	0.000233	2.330362	0.789548	-0.000093
 545	5.4128e+01	18.3123	61.907458	0.000203	2.026401	0.686563	-0.000081
 546	5.4227e+01	18.2722	61.814604	0.000233	2.330362	0.789548	-0.000093
 547	5.4327e+01	18.2353	61.754047	0.000152	1.519801	0.514923	-0.000061
 548	5.4426e+01	18.1904	61.653118	0.000253	2.533002	0.858204	-0.000101
 549	5.4526e+01	18.1583	61.592561	0.000152	1.519801	0.514923	-0.000061
 550	5.4626e+01	18.1166	61.495670	0.000243	2.431682	0.823876	-0.000097
 551	5.4725e+01	18.0749	61.443187	0.000132	1.317161	0.446266	-0.000053
 552	5.4825e+01	18.0300	61.322073	0.000304	3.039602	1.029845	-0.000122
 553	5.4924e+01	18.0059	61.233256	0.000223	2.229041	0.755220	-0.000089
 554	5.5023e+01	17.9498	61.160588	0.000182	1.823761	0.617907	-0.000073
 555	5.5123e+01	17.9145	61.079845	0.000203	2.026401	0.686563	-0.000081
 556	5.5222e+01	17.8824	61.007177	0.000182	1.823761	0.617907	-0.000073
 557	5.5322e+01	17.8439	60.918360	0.000223	2.229041	0.755220	-0.000089
 558	5.5422e+01	17.7990	60.849728	0.000172	1.722441	0.583579	-0.000069
 559	5.5521e+01	17.7508	60.764949	0.000213	2.127721	0.720892	-0.000085
 560	5.5620e+01	17.7155	60.692280	0.000182	1.823761	0.617907	-0.000073
 561	5.5720e+01	17.6770	60.627686	0.000162	1.621121	0.549251	-0.000065
 562	5.5819e+01	17.6369	60.506572	0.000304	3.039602	1.029845	-0.000122
 563	5.5919e+01	17.6016	60.478312	0.000071	0.709240	0.240297	-0.000028
 564	5.6019e+01	17.5647	60.393532	0.000213	2.127721	0.720892	-0.000085
 565	5.6118e+01	17.5295	60.268381	0.000314	3.140922	1.064173	-0.000126
 566	5.6218e+01	17.4733	60.175527	0.000233	2.330362	0.789548	-0.000093
 567	5.6317e+01	17.4428	60.098821	0.000193	1.925081	0.652235	-0.000077
 568	5.6416e+01	17.3995	60.038264	0.000152	1.519801	0.514923	-0.000061
 569	5.6516e+01	17.3642	59.957521	0.000203	2.026401	0.686563	-0.000081
 570	5.6615e+01	17.3225	59.905039	0.000132	1.317161	0.446266	-0.000053
 571	5.6715e+01	17.2760	59.804110	0.000253	2.533002	0.858204	-0.000101
 572	5.6815e+01	17.2519	59.743553	0.000152	1.519801	0.514923	-0.000061
 573	5.6914e+01	17.1942	59.634551	0.000274	2.735642	0.926861	-0.000110
 574	5.7014e+01	17.1717	59.533622	0.000253	2.533002	0.858204	-0.000101
 575	5.7113e+01	17.1140	59.464991	0.000172	1.722441	0.583579	-0.000069
 576	5.7212e+01	17.0835	59.416545	0.000122	1.215841	0.411938	-0.000049
 577	5.7312e+01	17.0386	59.347914	0.000172	1.722441	0.583579	-0.000069
 578	5.7411e+01	17.0017	59.210651	0.000344	3.444882	1.167158	-0.000138
 579	5.7511e+01	16.9696	59.182391	0.000071	0.709240	0.240297	-0.000028
 580	5.7611e+01	16.9247	59.049166	0.000334	3.343562	1.132830	-0.000134
 581	5.7710e+01	16.8717	58.948237	0.000253	2.533002	0.858204	-0.000101
 582	5.7809e+01	16.8428	58.863458	0.000213	2.127721	0.720892	-0.000085
 583	5.7909e+01	16.7979	58.786752	0.000193	1.925081	0.652235	-0.000077
 584	5.8008e+01	16.7626	58.661601	0.000314	3.140922	1.064173	-0.000126
 585	5.8108e+01	16.7129	58.637378	0.000061	0.607920	0.205969	-0.000024
 586	5.8208e+01	16.6856	58.504153	0.000334	3.343562	1.132830	-0.000134
 587	5.8307e+01	16.6423	58.455707	0.000122	1.215841	0.411938	-0.000049
 588	5.8407e+01	16.6038	58.391113	0.000162	1.621121	0.549251	-0.000065
 589	5.8506e+01	16.5605	58.294221	0.000243	2.431682	0.823876	-0.000097
 590	5.8605e+01	16.5108	58.181182	0.000284	2.836962	0.961189	-0.000114
 591	5.8705e+01	16.4867	58.092365	0.000223	2.229041	0.755220	-0.000089
 592	5.8804e+01	16.4530	58.007585	0.000213	2.127721	0.720892	-0.000085
 593	5.8904e+01	16.4001	57.922805	0.000213	2.127721	0.720892	-0.000085
 594	5.9004e+01	16.3616	57.850137	0.000182	1.823761	0.617907	-0.000073
 595	5.9103e+01	16.3150	57.765357	0.000213	2.127721	0.720892	-0.000085
 596	5.9203e+01	16.2830	57.668465	0.000243	2.431682	0.823876	-0.000097
 597	5.9302e+01	16.2493	57.591760	0.000193	1.925081	0.652235	-0.000077
 598	5.9401e+01	16.2108	57.511017	0.000203	2.026401	0.686563	-0.000081
 599	5.9501e+01	16.1642	57.393940	0.000294	2.938282	0.995517	-0.000118
 600	5.9600e+01	16.1257	57.337420	0.000142	1.418481	0.480594	-0.000057
 601	5.9700e+01	16.0840	57.244566	0.000233	2.330362	0.789548	-0.000093
 602	5.9800e+01	16.0439	57.143638	0.000253	2.533002	0.858204	-0.000101
 603	5.9899e+01	15.9958	57.070969	0.000182	1.823761	0.617907	-0.000073
 604	5.9998e+01	15.9605	56.953892	0.000294	2.938282	0.995517	-0.000118
 605	6.0098e+01	15.9284	56.873150	0.000203	2.026401	0.686563	-0.000081
 606	6.0197e+01	15.8883	56.808556	0.000162	1.621121	0.549251	-0.000065
 607	6.0297e+01	15.8450	56.707627	0.000253	2.533002	0.858204	-0.000101
 608	6.0397e+01	15.8113	56.651107	0.000142	1.418481	0.480594	-0.000057
 609	6.0496e+01	15.7648	56.562290	0.000223	2.229041	0.755220	-0.000089
 610	6.0596e+01	15.7215	56.437139	0.000314	3.140922	1.064173	-0.000126
 611	6.0695e+01	15.6878	56.332174	0.000263	2.634322	0.892532	-0.000105
 612	6.0794e+01	15.6493	56.255468	0.000193	1.925081	0.652235	-0.000077
 613	6.0894e+01	15.6092	56.158577	0.000243	2.431682	0.823876	-0.000097
 614	6.0993e+01	15.5611	56.089945	0.000172	1.722441	0.583579	-0.000069
 615	6.1093e+01	15.5306	56.009203	0.000203	2.026401	0.686563	-0.000081
 616	6.1193e+01	15.4857	55.904237	0.000263	2.634322	0.892532	-0.000105
 617	6.1292e+01	15.4407	55.819457	0.000213	2.127721	0.720892	-0.000085
 618	6.1392e+01	15.4071	55.710455	0.000274	2.735642	0.926861	-0.000110
 619	6.1491e+01	15.3750	55.621638	0.000223	2.229041	0.755220	-0.000089
 620	6.1590e+01	15.3365	55.569155	0.000132	1.317161	0.446266	-0.000053
 621	6.1690e+01	15.2819	55.452078	0.000294	2.938282	0.995517	-0.000118
 622	6.1789e+01	15.2434	55.383447	0.000172	1.722441	0.583579	-0.000069
 623	6.1889e+01	15.1953	55.294630	0.000223	2.229041	0.755220	-0.000089
 624	6.1989e+01	15.1728	55.193701	0.000253	2.533002	0.858204	-0.000101
 625	6.2088e+01	15.1279	55.104884	0.000223	2.229041	0.755220	-0.000089
 626	6.2188e+01	15.0878	55.020104	0.000213	2.127721	0.720892	-0.000085
 627	6.2287e+01	15.0365	54.951473	0.000172	1.722441	0.583579	-0.000069
 628	6.2386e+01	15.0028	54.826322	0.000314	3.140922	1.064173	-0.000126
 629	6.2486e+01	14.9755	54.749616	0.000193	1.925081	0.652235	-0.000077
 630	6.2586e+01	14.9226	54.640614	0.000274	2.735642	0.926861	-0.000110
 631	6.2685e+01	14.8809	54.588131	0.000132	1.317161	0.446266	-0.000053
 632	6.2785e+01	14.8520	54.479128	0.000274	2.735642	0.926861	-0.000110
 633	6.2884e+01	14.8039	54.374163	0.000263	2.634322	0.892532	-0.000105
 634	6.2983e+01	14.7686	54.285346	0.000223	2.229041	0.755220	-0.000089
 635	6.3083e+01	14.7285	54.200566	0.000213	2.127721	0.720892	-0.000085
 636	6.3182e+01	14.6948	54.111749	0.000223	2.229041	0.755220	-0.000089
 637	6.3282e+01	14.6482	54.031006	0.000203	2.026401	0.686563	-0.000081
 638	6.3382e+01	14.6146	53.942189	0.000223	2.229041	0.755220	-0.000089
 639	6.3481e+01	14.5696	53.877595	0.000162	1.621121	0.549251	-0.000065
 640	6.3581e+01	14.5440	53.764555	0.000284	2.836962	0.961189	-0.000114
 641	6.3680e+01	14.4894	53.627293	0.000344	3.444882	1.167158	-0.000138
 642	6.3779e+01	14.4606	53.570773	0.000142	1.418481	0.480594	-0.000057
 643	6.3879e+01	14.4204	53.473881	0.000243	2.431682	0.823876	-0.000097
 644	6.3978e+01	14.3659	53.364879	0.000274	2.735642	0.926861	-0.000110
 645	6.4078e+01	14.3290	53.243765	0.000304	3.039602	1.029845	-0.000122
 646	6.4177e+01	14.2969	53.203393	0.000101	1.013201	0.343282	-0.000041
 647	6.4277e+01	14.2408	53.098428	0.000263	2.634322	0.892532	-0.000105
 648	6.4376e+01	14.2167	52.977314	0.000304	3.039602	1.029845	-0.000122
 649	6.4476e+01	14.1702	52.864274	0.000284	2.836962	0.961189	-0.000114
 650	6.4576e+01	14.1269	52.767383	0.000243	2.431682	0.823876	-0.000097
 651	6.4675e+01	14.0980	52.694714	0.000182	1.823761	0.617907	-0.000073
 652	6.4775e+01	14.0563	52.585712	0.000274	2.735642	0.926861	-0.000110
 653	6.4874e+01	14.0098	52.496895	0.000223	2.229041	0.755220	-0.000089
 654	6.4974e+01	13.9745	52.420189	0.000193	1.925081	0.652235	-0.000077
 655	6.5073e+01	13.9360	52.319261	0.000253	2.533002	0.858204	-0.000101
 656	6.5172e+01	13.8959	52.234481	0.000213	2.127721	0.720892	-0.000085
 657	6.5272e+01	13.8558	52.068958	0.000415	4.154123	1.407455	-0.000166
 658	6.5371e+01	13.8173	52.000327	0.000172	1.722441	0.583579	-0.000069
 659	6.5471e+01	13.7659	51.923621	0.000193	1.925081	0.652235	-0.000077
 660	6.5570e+01	13.7242	51.818656	0.000263	2.634322	0.892532	-0.000105
 661	6.5670e+01	13.6969	51.737913	0.000203	2.026401	0.686563	-0.000081
 662	6.5769e+01	13.6584	51.645059	0.000233	2.330362	0.789548	-0.000093
 663	6.5869e+01	13.6199	51.544131	0.000253	2.533002	0.858204	-0.000101
 664	6.5969e+01	13.5750	51.483573	0.000152	1.519801	0.514923	-0.000061
 665	6.6068e+01	13.5397	51.350348	0.000334	3.343562	1.132830	-0.000134
 666	6.6168e+01	13.4932	51.265568	0.000213	2.127721	0.720892	-0.000085
 667	6.6267e+01	13.4595	51.120231	0.000365	3.647522	1.235814	-0.000146
 668	6.6367e+01	13.4130	51.067749	0.000132	1.317161	0.446266	-0.000053
 669	6.6466e+01	13.3681	50.962783	0.000263	2.634322	0.892532	-0.000105
 670	6.6566e+01	13.3424	50.857817	0.000263	2.634322	0.892532	-0.000105
 671	6.6665e+01	13.2927	50.760926	0.000243	2.431682	0.823876	-0.000097
 672	6.6764e+01	13.2590	50.655961	0.000263	2.634322	0.892532	-0.000105
 673	6.6864e+01	13.2093	50.550995	0.000263	2.634322	0.892532	-0.000105
 674	6.6963e+01	13.1772	50.474290	0.000193	1.925081	0.652235	-0.000077
 675	6.7063e+01	13.1355	50.353175	0.000304	3.039602	1.029845	-0.000122
 676	6.7162e+01	13.0921	50.264359	0.000223	2.229041	0.755220	-0.000089
 677	6.7262e+01	13.0536	50.199764	0.000162	1.621121	0.549251	-0.000065
 678	6.7362e+01	13.0232	50.094799	0.000263	2.634322	0.892532	-0.000105
 679	6.7461e+01	12.9766	49.949462	0.000365	3.647522	1.235814	-0.000146
 680	6.7561e+01	12.9285	49.917165	0.000081	0.810561	0.274625	-0.000032
 681	6.7660e+01	12.8980	49.792014	0.000314	3.140922	1.064173	-0.000126
 682	6.7760e+01	12.8611	49.707234	0.000213	2.127721	0.720892	-0.000085
 683	6.7859e+01	12.8130	49.610343	0.000243	2.431682	0.823876	-0.000097
 684	6.7959e+01	12.7841	49.501340	0.000274	2.735642	0.926861	-0.000110
 685	6.8058e+01	12.7424	49.392337	0.000274	2.735642	0.926861	-0.000110
 686	6.8157e+01	12.7023	49.311594	0.000203	2.026401	0.686563	-0.000081
 687	6.8257e+01	12.6574	49.190480	0.000304	3.039602	1.029845	-0.000122
 688	6.8356e+01	12.6285	49.085515	0.000263	2.634322	0.892532	-0.000105
 689	6.8456e+01	12.5916	49.000735	0.000213	2.127721	0.720892	-0.000085
 690	6.8555e+01	12.5355	48.879621	0.000304	3.039602	1.029845	-0.000122
 691	6.8655e+01	12.4954	48.778693	0.000253	2.533002	0.858204	-0.000101
 692	6.8754e+01	12.4537	48.718136	0.000152	1.519801	0.514923	-0.000061
 693	6.8854e+01	12.4184	48.601059	0.000294	2.938282	0.995517	-0.000118
 694	6.8954e+01	12.3879	48.528390	0.000182	1.823761	0.617907	-0.000073
 695	6.9053e+01	12.3494	48.423425	0.000263	2.634322	0.892532	-0.000105
 696	6.9153e+01	12.3013	48.330570	0.000233	2.330362	0.789548	-0.000093
 697	6.9252e+01	12.2628	48.205419	0.000314	3.140922	1.064173	-0.000126
 698	6.9352e+01	12.2226	48.124677	0.000203	2.026401	0.686563	-0.000081
 699	6.9451e+01	12.1761	48.047971	0.000193	1.925081	0.652235	-0.000077
 700	6.9550e+01	12.1392	47.910708	0.000344	3.444882	1.167158	-0.000138
 701	6.9650e+01	12.1007	47.813817	0.000243	2.431682	0.823876	-0.000097
 702	6.9749e+01	12.0606	47.725000	0.000223	2.229041	0.755220	-0.000089
 703	6.9849e+01	12.0237	47.599849	0.000314	3.140922	1.064173	-0.000126
 704	6.9948e+01	11.9804	47.515069	0.000213	2.127721	0.720892	-0.000085
 705	7.0048e+01	11.9419	47.381844	0.000334	3.343562	1.132830	-0.000134
 706	7.0147e+01	11.9034	47.309175	0.000182	1.823761	0.617907	-0.000073
 707	7.0247e+01	11.8601	47.220358	0.000223	2.229041	0.755220	-0.000089
 708	7.0347e+01	11.8280	47.083096	0.000344	3.444882	1.167158	-0.000138
 709	7.0446e+01	11.7911	47.042724	0.000101	1.013201	0.343282	-0.000041
 710	7.0546e+01	11.7494	46.913536	0.000324	3.242242	1.098501	-0.000130
 711	7.0645e+01	11.7029	46.820682	0.000233	2.330362	0.789548	-0.000093
 712	7.0745e+01	11.6628	46.671308	0.000375	3.748843	1.270142	-0.000150
 713	7.0844e+01	11.6243	46.590565	0.000203	2.026401	0.686563	-0.000081
 714	7.0944e+01	11.5826	46.477525	0.000284	2.836962	0.961189	-0.000114
 715	7.1043e+01	11.5537	46.392745	0.000213	2.127721	0.720892	-0.000085
 716	7.1142e+01	11.4991	46.271631	0.000304	3.039602	1.029845	-0.000122
 717	7.1242e+01	11.4687	46.190889	0.000203	2.026401	0.686563	-0.000081
 718	7.1341e+01	11.4221	46.081886	0.000274	2.735642	0.926861	-0.000110
 719	7.1441e+01	11.3836	45.972883	0.000274	2.735642	0.926861	-0.000110
 720	7.1540e+01	11.3532	45.839658	0.000334	3.343562	1.132830	-0.000134
 721	7.1640e+01	11.3018	45.734692	0.000263	2.634322	0.892532	-0.000105
 722	7.1740e+01	11.2681	45.649912	0.000213	2.127721	0.720892	-0.000085
 723	7.1839e+01	11.2184	45.548984	0.000253	2.533002	0.858204	-0.000101
 724	7.1939e+01	11.1911	45.484390	0.000162	1.621121	0.549251	-0.000065
 725	7.2038e+01	11.1462	45.339053	0.000365	3.647522	1.235814	-0.000146
 726	7.2138e+01	11.1093	45.213902	0.000314	3.140922	1.064173	-0.000126
 727	7.2237e+01	11.0628	45.161419	0.000132	1.317161	0.446266	-0.000053
 728	7.2337e+01	11.0291	45.036268	0.000314	3.140922	1.064173	-0.000126
 729	7.2436e+01	10.9842	44.951488	0.000213	2.127721	0.720892	-0.000085
 730	7.2535e+01	10.9457	44.846522	0.000263	2.634322	0.892532	-0.000105
 731	7.2635e+01	10.9072	44.721371	0.000314	3.140922	1.064173	-0.000126
 732	7.2734e+01	10.8655	44.628517	0.000233	2.330362	0.789548	-0.000093
 733	7.2834e+01	10.8189	44.543737	0.000213	2.127721	0.720892	-0.000085
 734	7.2933e+01	10.7885	44.414549	0.000324	3.242242	1.098501	-0.000130
 735	7.3033e+01	10.7484	44.329769	0.000213	2.127721	0.720892	-0.000085
 736	7.3132e+01	10.7099	44.253063	0.000193	1.925081	0.652235	-0.000077
 737	7.3232e+01	10.6698	44.140024	0.000284	2.836962	0.961189	-0.000114
 738	7.3332e+01	10.6248	44.006798	0.000334	3.343562	1.132830	-0.000134
 739	7.3431e+01	10.5831	43.934130	0.000182	1.823761	0.617907	-0.000073
 740	7.3531e+01	10.5382	43.808978	0.000314	3.140922	1.064173	-0.000126
 741	7.3630e+01	10.5061	43.720161	0.000223	2.229041	0.755220	-0.000089
 742	7.3730e+01	10.4660	43.655567	0.000162	1.621121	0.549251	-0.000065
 743	7.3829e+01	10.4275	43.550602	0.000263	2.634322	0.892532	-0.000105
 744	7.3928e+01	10.3986	43.433525	0.000294	2.938282	0.995517	-0.000118
 745	7.4028e+01	10.3489	43.324522	0.000274	2.735642	0.926861	-0.000110
 746	7.4127e+01	10.3104	43.195334	0.000324	3.242242	1.098501	-0.000130
 747	7.4227e+01	10.2655	43.114591	0.000203	2.026401	0.686563	-0.000081
 748	7.4326e+01	10.2318	42.981366	0.000334	3.343562	1.132830	-0.000134
 749	7.4426e+01	10.1853	42.888512	0.000233	2.330362	0.789548	-0.000093
 750	7.4525e+01	10.1532	42.819880	0.000172	1.722441	0.583579	-0.000069
 751	7.4625e+01	10.1051	42.694729	0.000314	3.140922	1.064173	-0.000126
 752	7.4725e+01	10.0666	42.573615	0.000304	3.039602	1.029845	-0.000122
 753	7.4824e+01	10.0297	42.480761	0.000233	2.330362	0.789548	-0.000093
 754	7.4924e+01	9.9799	42.339461	0.000355	3.546202	1.201486	-0.000142
 755	7.5023e+01	9.9446	42.278904	0.000152	1.519801	0.514923	-0.000061
 756	7.5123e+01	9.9029	42.133567	0.000365	3.647522	1.235814	-0.000146
 757	7.5222e+01	9.8644	42.068973	0.000162	1.621121	0.549251	-0.000065
 758	7.5322e+01	9.8243	41.955933	0.000284	2.836962	0.961189	-0.000114
 759	7.5421e+01	9.7906	41.838856	0.000294	2.938282	0.995517	-0.000118
 760	7.5520e+01	9.7441	41.725816	0.000284	2.836962	0.961189	-0.000114
 761	7.5620e+01	9.7072	41.604702	0.000304	3.039602	1.029845	-0.000122
 762	7.5719e+01	9.6655	41.568368	0.000091	0.911881	0.308954	-0.000037
 763	7.5819e+01	9.6270	41.431106	0.000344	3.444882	1.167158	-0.000138
 764	7.5918e+01	9.5901	41.305954	0.000314	3.140922	1.064173	-0.000126
 765	7.6018e+01	9.5452	41.213100	0.000233	2.330362	0.789548	-0.000093
 766	7.6118e+01	9.5131	41.104098	0.000274	2.735642	0.926861	-0.000110
 767	7.6217e+01	9.4682	41.015281	0.000223	2.229041	0.755220	-0.000089
 768	7.6317e+01	9.4329	40.878018	0.000344	3.444882	1.167158	-0.000138
 769	7.6416e+01	9.3960	40.777090	0.000253	2.533002	0.858204	-0.000101
 770	7.6516e+01	9.3527	40.647901	0.000324	3.242242	1.098501	-0.000130
 771	7.6615e+01	9.3206	40.575233	0.000182	1.823761	0.617907	-0.000073
 772	7.6715e+01	9.2789	40.454119	0.000304	3.039602	1.029845	-0.000122
 773	7.6814e+01	9.2243	40.333005	0.000304	3.039602	1.029845	-0.000122
 774	7.6913e+01	9.1939	40.228039	0.000263	2.634322	0.892532	-0.000105
 775	7.7013e+01	9.1570	40.102888	0.000314	3.140922	1.064173	-0.000126
 776	7.7112e+01	9.1169	40.014071	0.000223	2.229041	0.755220	-0.000089
 777	7.7212e+01	9.0767	39.925254	0.000223	2.229041	0.755220	-0.000089
 778	7.7311e+01	9.0334	39.824325	0.000253	2.533002	0.858204	-0.000101
 779	7.7411e+01	8.9869	39.683026	0.000355	3.546202	1.201486	-0.000142
 780	7.7510e+01	8.9596	39.565949	0.000294	2.938282	0.995517	-0.000118
 781	7.7610e+01	8.9099	39.497317	0.000172	1.722441	0.583579	-0.000069
 782	7.7710e+01	8.8778	39.339869	0.000395	3.951483	1.338799	-0.000158
 783	7.7809e+01	8.8297	39.247015	0.000233	2.330362	0.789548	-0.000093
 784	7.7909e+01	8.7944	39.150124	0.000243	2.431682	0.823876	-0.000097
 785	7.8008e+01	8.7527	39.065344	0.000213	2.127721	0.720892	-0.000085
 786	7.8108e+01	8.7222	38.911933	0.000385	3.850163	1.304470	-0.000154
 787	7.8207e+01	8.6773	38.758522	0.000385	3.850163	1.304470	-0.000154
 788	7.8306e+01	8.6324	38.693927	0.000162	1.621121	0.549251	-0.000065
 789	7.8406e+01	8.5955	38.617222	0.000193	1.925081	0.652235	-0.000077
 790	7.8505e+01	8.5554	38.475922	0.000355	3.546202	1.201486	-0.000142
 791	7.8605e+01	8.5121	38.358845	0.000294	2.938282	0.995517	-0.000118
 792	7.8704e+01	8.4752	38.265991	0.000233	2.330362	0.789548	-0.000093
 793	7.8804e+01	8.4335	38.148914	0.000294	2.938282	0.995517	-0.000118
 794	7.8903e+01	8.3966	38.056060	0.000233	2.330362	0.789548	-0.000093
 795	7.9003e+01	8.3564	37.947057	0.000274	2.735642	0.926861	-0.000110
 796	7.9103e+01	8.3099	37.854203	0.000233	2.330362	0.789548	-0.000093
 797	7.9202e+01	8.2698	37.737126	0.000294	2.938282	0.995517	-0.000118
 798	7.9302e+01	8.2377	37.640235	0.000243	2.431682	0.823876	-0.000097
 799	7.9401e+01	8.2024	37.486824	0.000385	3.850163	1.304470	-0.000154
 800	7.9501e+01	8.1607	37.385896	0.000253	2.533002	0.858204	-0.000101
 801	7.9600e+01	8.1142	37.301116	0.000213	2.127721	0.720892	-0.000085
 802	7.9700e+01	8.0725	37.127519	0.000436	4.356763	1.476111	-0.000174
 803	7.9799e+01	8.0436	37.046776	0.000203	2.026401	0.686563	-0.000081
 804	7.9898e+01	8.0019	36.925662	0.000304	3.039602	1.029845	-0.000122
 805	7.9998e+01	7.9570	36.828771	0.000243	2.431682	0.823876	-0.000097
 806	8.0097e+01	7.9185	36.703620	0.000314	3.140922	1.064173	-0.000126
 807	8.0197e+01	7.8848	36.606728	0.000243	2.431682	0.823876	-0.000097
 808	8.0296e+01	7.8399	36.477540	0.000324	3.242242	1.098501	-0.000130
 809	8.0396e+01	7.7950	36.368537	0.000274	2.735642	0.926861	-0.000110
 810	8.0496e+01	7.7549	36.263572	0.000263	2.634322	0.892532	-0.000105
 811	8.0595e+01	7.7148	36.162643	0.000253	2.533002	0.858204	-0.000101
 812	8.0695e+01	7.6763	36.041529	0.000304	3.039602	1.029845	-0.000122
 813	8.0794e+01	7.6442	35.936564	0.000263	2.634322	0.892532	-0.000105
 814	8.0894e+01	7.6009	35.815450	0.000304	3.039602	1.029845	-0.000122
 815	8.0993e+01	7.5559	35.658001	0.000395	3.951483	1.338799	-0.000158
 816	8.1093e+01	7.5287	35.569184	0.000223	2.229041	0.755220	-0.000089
 817	8.1192e+01	7.4709	35.415773	0.000385	3.850163	1.304470	-0.000154
 818	8.1291e+01	7.4340	35.330993	0.000213	2.127721	0.720892	-0.000085
 819	8.1391e+01	7.3987	35.234102	0.000243	2.431682	0.823876	-0.000097
 820	8.1490e+01	7.3666	35.100877	0.000334	3.343562	1.132830	-0.000134
 821	8.1590e+01	7.3169	34.999948	0.000253	2.533002	0.858204	-0.000101
 822	8.1689e+01	7.2752	34.886908	0.000284	2.836962	0.961189	-0.000114
 823	8.1789e+01	7.2383	34.741572	0.000365	3.647522	1.235814	-0.000146
 824	8.1888e+01	7.1950	34.580086	0.000405	4.052803	1.373127	-0.000162
 825	8.1988e+01	7.1629	34.503381	0.000193	1.925081	0.652235	-0.000077
 826	8.2088e+01	7.1260	34.414564	0.000223	2.229041	0.755220	-0.000089
 827	8.2187e+01	7.0747	34.333821	0.000203	2.026401	0.686563	-0.000081
 828	8.2287e+01	7.0346	34.172335	0.000405	4.052803	1.373127	-0.000162
 829	8.2386e+01	7.0009	34.063333	0.000274	2.735642	0.926861	-0.000110
 830	8.2486e+01	6.9608	33.930107	0.000334	3.343562	1.132830	-0.000134
 831	8.2585e+01	6.9207	33.825142	0.000263	2.634322	0.892532	-0.000105
 832	8.2684e+01	6.8757	33.704028	0.000304	3.039602	1.029845	-0.000122
 833	8.2784e+01	6.8437	33.578877	0.000314	3.140922	1.064173	-0.000126
 834	8.2883e+01	6.7971	33.449688	0.000324	3.242242	1.098501	-0.000130
 835	8.2983e+01	6.7618	33.377020	0.000182	1.823761	0.617907	-0.000073
 836	8.3082e+01	6.7265	33.219571	0.000395	3.951483	1.338799	-0.000158
 837	8.3182e+01	6.6800	33.110569	0.000274	2.735642	0.926861	-0.000110
 838	8.3281e+01	6.6431	33.017715	0.000233	2.330362	0.789548	-0.000093
 839	8.3381e+01	6.6014	32.876415	0.000355	3.546202	1.201486	-0.000142
 840	8.3481e+01	6.5661	32.751264	0.000314	3.140922	1.064173	-0.000126
 841	8.3580e+01	6.5228	32.678595	0.000182	1.823761	0.617907	-0.000073
 842	8.3680e+01	6.4779	32.504998	0.000436	4.356763	1.476111	-0.000174
 843	8.3779e+01	6.4410	32.400033	0.000263	2.634322	0.892532	-0.000105
 844	8.3879e+01	6.4057	32.339476	0.000152	1.519801	0.514923	-0.000061
 845	8.3978e+01	6.3624	32.157805	0.000456	4.559403	1.544768	-0.000183
 846	8.4078e+01	6.3191	32.056876	0.000253	2.533002	0.858204	-0.000101
 847	8.4177e+01	6.2886	31.935762	0.000304	3.039602	1.029845	-0.000122
 848	8.4276e+01	6.2437	31.814648	0.000304	3.039602	1.029845	-0.000122
 849	8.4376e+01	6.2004	31.689497	0.000314	3.140922	1.064173	-0.000126
 850	8.4475e+01	6.1667	31.548197	0.000355	3.546202	1.201486	-0.000142
 851	8.4575e+01	6.1282	31.475529	0.000182	1.823761	0.617907	-0.000073
 852	8.4674e+01	6.0752	31.338266	0.000344	3.444882	1.167158	-0.000138
 853	8.4774e+01	6.0464	31.225226	0.000284	2.836962	0.961189	-0.000114
 854	8.4874e+01	6.0046	31.104112	0.000304	3.039602	1.029845	-0.000122
 855	8.4973e+01	5.9661	30.966850	0.000344	3.444882	1.167158	-0.000138
 856	8.5073e+01	5.9180	30.849773	0.000294	2.938282	0.995517	-0.000118
 857	8.5172e+01	5.8811	30.732696	0.000294	2.938282	0.995517	-0.000118
 858	8.5272e+01	5.8458	30.591396	0.000355	3.546202	1.201486	-0.000142
 859	8.5371e+01	5.8105	30.518728	0.000182	1.823761	0.617907	-0.000073
 860	8.5471e+01	5.7640	30.401651	0.000294	2.938282	0.995517	-0.000118
 861	8.5570e+01	5.7287	30.236128	0.000415	4.154123	1.407455	-0.000166
 862	8.5669e+01	5.6774	30.139237	0.000243	2.431682	0.823876	-0.000097
 863	8.5769e+01	5.6469	30.014086	0.000314	3.140922	1.064173	-0.000126
 864	8.5868e+01	5.6052	29.864712	0.000375	3.748843	1.270142	-0.000150
 865	8.5968e+01	5.5699	29.767820	0.000243	2.431682	0.823876	-0.000097
 866	8.6067e+01	5.5314	29.658818	0.000274	2.735642	0.926861	-0.000110
 867	8.6167e+01	5.4897	29.541741	0.000294	2.938282	0.995517	-0.000118
 868	8.6266e+01	5.4432	29.396404	0.000365	3.647522	1.235814	-0.000146
 869	8.6366e+01	5.4063	29.271253	0.000314	3.140922	1.064173	-0.000126
 870	8.6466e+01	5.3694	29.133990	0.000344	3.444882	1.167158	-0.000138
 871	8.6565e+01	5.3277	29.020950	0.000284	2.836962	0.961189	-0.000114
 872	8.6665e+01	5.2924	28.948282	0.000182	1.823761	0.617907	-0.000073
 873	8.6764e+01	5.2474	28.766611	0.000456	4.559403	1.544768	-0.000183
 874	8.6864e+01	5.2105	28.661645	0.000263	2.634322	0.892532	-0.000105
 875	8.6963e+01	5.1688	28.536494	0.000314	3.140922	1.064173	-0.000126
 876	8.7063e+01	5.1303	28.411343	0.000314	3.140922	1.064173	-0.000126
 877	8.7162e+01	5.0870	28.330600	0.000203	2.026401	0.686563	-0.000081
 878	8.7261e+01	5.0533	28.152966	0.000446	4.458083	1.510439	-0.000179
 879	8.7361e+01	5.0116	28.068186	0.000213	2.127721	0.720892	-0.000085
 880	8.7460e+01	4.9683	27.898627	0.000426	4.255443	1.441783	-0.000170
 881	8.7560e+01	4.9234	27.801735	0.000243	2.431682	0.823876	-0.000097
 882	8.7659e+01	4.8993	27.684658	0.000294	2.938282	0.995517	-0.000118
 883	8.7759e+01	4.8496	27.531247	0.000385	3.850163	1.304470	-0.000154
 884	8.7859e+01	4.8095	27.418207	0.000284	2.836962	0.961189	-0.000114
 885	8.7958e+01	4.7646	27.276908	0.000355	3.546202	1.201486	-0.000142
 886	8.8058e+01	4.7325	27.175979	0.000253	2.533002	0.858204	-0.000101
 887	8.8157e+01	4.6892	27.046791	0.000324	3.242242	1.098501	-0.000130
 888	8.8257e+01	4.6362	26.913565	0.000334	3.343562	1.132830	-0.000134
 889	8.8356e+01	4.6074	26.828786	0.000213	2.127721	0.720892	-0.000085
 890	8.8456e+01	4.5673	26.667300	0.000405	4.052803	1.373127	-0.000162
 891	8.8555e+01	4.5239	26.558297	0.000274	2.735642	0.926861	-0.000110
 892	8.8654e+01	4.4854	26.429109	0.000324	3.242242	1.098501	-0.000130
 893	8.8754e+01	4.4534	26.267624	0.000405	4.052803	1.373127	-0.000162
 894	8.8853e+01	4.4197	26.178807	0.000223	2.229041	0.755220	-0.000089
 895	8.8953e+01	4.3763	26.053655	0.000314	3.140922	1.064173	-0.000126
 896	8.9052e+01	4.3330	25.900244	0.000385	3.850163	1.304470	-0.000154
 897	8.9152e+01	4.2913	25.754907	0.000365	3.647522	1.235814	-0.000146
 898	8.9251e+01	4.2480	25.694350	0.000152	1.519801	0.514923	-0.000061
 899	8.9351e+01	4.2143	25.569199	0.000314	3.140922	1.064173	-0.000126
 900	8.9451e+01	4.1742	25.387528	0.000456	4.559403	1.544768	-0.000183
 901	8.9550e+01	4.1341	25.286600	0.000253	2.533002	0.858204	-0.000101
 902	8.9650e+01	4.1020	25.181634	0.000263	2.634322	0.892532	-0.000105
 903	8.9749e+01	4.0539	25.024186	0.000395	3.951483	1.338799	-0.000158
 904	8.9849e+01	4.0170	24.907109	0.000294	2.938282	0.995517	-0.000118
 905	8.9948e+01	3.9673	24.814255	0.000233	2.330362	0.789548	-0.000093
 906	9.0047e+01	3.9320	24.681029	0.000334	3.343562	1.132830	-0.000134
 907	9.0147e+01	3.8919	24.572027	0.000274	2.735642	0.926861	-0.000110
 908	9.0246e+01	3.8502	24.390356	0.000456	4.559403	1.544768	-0.000183
 909	9.0346e+01	3.8165	24.325761	0.000162	1.621121	0.549251	-0.000065
 910	9.0445e+01	3.7619	24.176387	0.000375	3.748843	1.270142	-0.000150
 911	9.0545e+01	3.7379	24.059310	0.000294	2.938282	0.995517	-0.000118
 912	9.0644e+01	3.6897	23.913974	0.000365	3.647522	1.235814	-0.000146
 913	9.0744e+01	3.6560	23.784785	0.000324	3.242242	1.098501	-0.000130
 914	9.0844e+01	3.6079	23.671745	0.000284	2.836962	0.961189	-0.000114
 915	9.0943e+01	3.5790	23.530446	0.000355	3.546202	1.201486	-0.000142
 916	9.1043e+01	3.5181	23.405294	0.000314	3.140922	1.064173	-0.000126
 917	9.1142e+01	3.4972	23.284180	0.000304	3.039602	1.029845	-0.000122
 918	9.1242e+01	3.4523	23.159029	0.000314	3.140922	1.064173	-0.000126
 919	9.1341e+01	3.4106	23.033878	0.000314	3.140922	1.064173	-0.000126
 920	9.1441e+01	3.3817	22.884504	0.000375	3.748843	1.270142	-0.000150
 921	9.1540e+01	3.3320	22.779538	0.000263	2.634322	0.892532	-0.000105
 922	9.1639e+01	3.2983	22.618053	0.000405	4.052803	1.373127	-0.000162
 923	9.1739e+01	3.2486	22.492902	0.000314	3.140922	1.064173	-0.000126
 924	9.1838e+01	3.2069	22.379862	0.000284	2.836962	0.961189	-0.000114
 925	9.1938e+01	3.1780	22.250674	0.000324	3.242242	1.098501	-0.000130
 926	9.2037e+01	3.1266	22.133597	0.000294	2.938282	0.995517	-0.000118
 927	9.2137e+01	3.0978	22.000371	0.000334	3.343562	1.132830	-0.000134
 928	9.2237e+01	3.0593	21.838886	0.000405	4.052803	1.373127	-0.000162
 929	9.2336e+01	3.0111	21.741995	0.000243	2.431682	0.823876	-0.000097
 930	9.2436e+01	2.9678	21.588583	0.000385	3.850163	1.304470	-0.000154
 931	9.2535e+01	2.9325	21.471506	0.000294	2.938282	0.995517	-0.000118
 932	9.2635e+01	2.8956	21.322132	0.000375	3.748843	1.270142	-0.000150
 933	9.2734e+01	2.8555	21.184870	0.000344	3.444882	1.167158	-0.000138
 934	9.2834e+01	2.8090	21.055681	0.000324	3.242242	1.098501	-0.000130
 935	9.2933e+01	2.7705	20.934567	0.000304	3.039602	1.029845	-0.000122
 936	9.3032e+01	2.7368	20.801342	0.000334	3.343562	1.132830	-0.000134
 937	9.3132e+01	2.6951	20.656005	0.000365	3.647522	1.235814	-0.000146
 938	9.3231e+01	2.6502	20.530854	0.000314	3.140922	1.064173	-0.000126
 939	9.3331e+01	2.6117	20.409740	0.000304	3.039602	1.029845	-0.000122
 940	9.3430e+01	2.5796	20.276514	0.000334	3.343562	1.132830	-0.000134
 941	9.3530e+01	2.5347	20.155400	0.000304	3.039602	1.029845	-0.000122
 942	9.3629e+01	2.4946	20.014100	0.000355	3.546202	1.201486	-0.000142
 943	9.3729e+01	2.4609	19.897023	0.000294	2.938282	0.995517	-0.000118
 944	9.3829e+01	2.4288	19.783984	0.000284	2.836962	0.961189	-0.000114
 945	9.3928e+01	2.3839	19.594238	0.000476	4.762043	1.613424	-0.000191
 946	9.4028e+01	2.3342	19.481199	0.000284	2.836962	0.961189	-0.000114
 947	9.4127e+01	2.2989	19.323750	0.000395	3.951483	1.338799	-0.000158
 948	9.4227e+01	2.2668	19.186488	0.000344	3.444882	1.167158	-0.000138
 949	9.4326e+01	2.2138	19.093633	0.000233	2.330362	0.789548	-0.000093
 950	9.4425e+01	2.1785	18.956371	0.000344	3.444882	1.167158	-0.000138
 951	9.4525e+01	2.1449	18.774700	0.000456	4.559403	1.544768	-0.000183
 952	9.4624e+01	2.0983	18.665697	0.000274	2.735642	0.926861	-0.000110
 953	9.4724e+01	2.0646	18.528434	0.000344	3.444882	1.167158	-0.000138
 954	9.4823e+01	2.0229	18.395209	0.000334	3.343562	1.132830	-0.000134
 955	9.4923e+01	1.9700	18.278132	0.000294	2.938282	0.995517	-0.000118
 956	9.5022e+01	1.9395	18.144907	0.000334	3.343562	1.132830	-0.000134
 957	9.5122e+01	1.8978	17.967273	0.000446	4.458083	1.510439	-0.000179
 958	9.5222e+01	1.8593	17.886530	0.000203	2.026401	0.686563	-0.000081
 959	9.5321e+01	1.8208	17.733119	0.000385	3.850163	1.304470	-0.000154
 960	9.5421e+01	1.7695	17.555485	0.000446	4.458083	1.510439	-0.000179
 961	9.5520e+01	1.7454	17.426296	0.000324	3.242242	1.098501	-0.000130
 962	9.5620e+01	1.6909	17.301145	0.000314	3.140922	1.064173	-0.000126
 963	9.5719e+01	1.6652	17.200217	0.000253	2.533002	0.858204	-0.000101
 964	9.5819e+01	1.6090	17.046806	0.000385	3.850163	1.304470	-0.000154
 965	9.5918e+01	1.5850	16.889357	0.000395	3.951483	1.338799	-0.000158
 966	9.6017e+01	1.5497	16.776318	0.000284	2.836962	0.961189	-0.000114
 967	9.6117e+01	1.5032	16.647129	0.000324	3.242242	1.098501	-0.000130
 968	9.6216e+01	1.4631	16.542164	0.000263	2.634322	0.892532	-0.000105
 969	9.6316e+01	1.4230	16.364530	0.000446	4.458083	1.510439	-0.000179
 970	9.6415e+01	1.3780	16.267638	0.000243	2.431682	0.823876	-0.000097
 971	9.6515e+01	1.3363	16.090004	0.000446	4.458083	1.510439	-0.000179
 972	9.6615e+01	1.2930	15.972928	0.000294	2.938282	0.995517	-0.000118
 973	9.6714e+01	1.2529	15.803368	0.000426	4.255443	1.441783	-0.000170
 974	9.6814e+01	1.2176	15.653994	0.000375	3.748843	1.270142	-0.000150
 975	9.6913e+01	1.1775	15.549028	0.000263	2.634322	0.892532	-0.000105
 976	9.7013e+01	1.1374	15.415803	0.000334	3.343562	1.132830	-0.000134
 977	9.7112e+01	1.1021	15.282577	0.000334	3.343562	1.132830	-0.000134
 978	9.7212e+01	1.0636	15.080721	0.000507	5.066003	1.716408	-0.000203
 979	9.7311e+01	1.0299	14.955569	0.000314	3.140922	1.064173	-0.000126
 980	9.7410e+01	0.9882	14.830418	0.000314	3.140922	1.064173	-0.000126
 981	9.7510e+01	0.9321	14.697193	0.000334	3.343562	1.132830	-0.000134
 982	9.7609e+01	0.9096	14.527633	0.000426	4.255443	1.441783	-0.000170
 983	9.7709e+01	0.8583	14.406519	0.000304	3.039602	1.029845	-0.000122
 984	9.7808e+01	0.8166	14.257145	0.000375	3.748843	1.270142	-0.000150
 985	9.7908e+01	0.7764	14.111808	0.000365	3.647522	1.235814	-0.000146
 986	9.8007e+01	0.7331	13.958397	0.000385	3.850163	1.304470	-0.000154
 987	9.8107e+01	0.7010	13.800949	0.000395	3.951483	1.338799	-0.000158
 988	9.8207e+01	0.6658	13.691946	0.000274	2.735642	0.926861	-0.000110
 989	9.8306e+01	0.6273	13.534498	0.000395	3.951483	1.338799	-0.000158
 990	9.8406e+01	0.5871	13.401272	0.000334	3.343562	1.132830	-0.000134
 991	9.8505e+01	0.5422	13.268047	0.000334	3.343562	1.132830	-0.000134
 992	9.8605e+01	0.5085	13.102524	0.000415	4.154123	1.407455	-0.000166
 993	9.8704e+01	0.4684	12.989484	0.000284	2.836962	0.961189	-0.000114
 994	9.8803e+01	0.4155	12.827999	0.000405	4.052803	1.373127	-0.000162
 995	9.8903e+01	0.3850	12.658439	0.000426	4.255443	1.441783	-0.000170
 996	9.9002e+01	0.3465	12.525214	0.000334	3.343562	1.132830	-0.000134
 997	9.9102e+01	0.3048	12.400062	0.000314	3.140922	1.064173	-0.000126
 998	9.9201e+01	0.2647	12.254726	0.000365	3.647522	1.235814	-0.000146
 999	9.9301e+01	0.2230	12.109389	0.000365	3.647522	1.235814	-0.000146
1000	9.9400e+01	0.1877	11.992312	0.000294	2.938282	0.995517	-0.000118
1001	9.9500e+01	0.1508	11.842938	0.000375	3.748843	1.270142	-0.000150
1002	9.9600e+01	0.0979	11.689527	0.000385	3.850163	1.304470	-0.000154
1003	9.9699e+01	0.0594	11.532078	0.000395	3.951483	1.338799	-0.000158
1004	9.9799e+01	0.0225	11.406927	0.000314	3.140922	1.064173	-0.000126
1005	9.9898e+01	-0.0032	11.297924	0.000274	2.735642	0.926861	-0.000110
1006	9.9998e+01	-0.0481	11.148550	0.000375	3.748843	1.270142	-0.000150
1007	1.0010e+02	-0.0866	11.015325	0.000334	3.343562	1.132830	-0.000134
1008	1.0020e+02	-0.1219	10.837691	0.000446	4.458083	1.510439	-0.000179
1009	1.0030e+02	-0.1668	10.712540	0.000314	3.140922	1.064173	-0.000126
1010	1.0040e+02	-0.2134	10.627760	0.000213	2.127721	0.720892	-0.000085
1011	1.0050e+02	-0.2487	10.425903	0.000507	5.066003	1.716408	-0.000203
1012	1.0059e+02	-0.2807	10.288640	0.000344	3.444882	1.167158	-0.000138
1013	1.0069e+02	-0.3289	10.167526	0.000304	3.039602	1.029845	-0.000122
1014	1.0079e+02	-0.3593	10.054487	0.000284	2.836962	0.961189	-0.000114
1015	1.0089e+02	-0.4027	9.872815	0.000456	4.559403	1.544768	-0.000183
1016	1.0099e+02	-0.4396	9.711330	0.000405	4.052803	1.373127	-0.000162
1017	1.0109e+02	-0.4845	9.557919	0.000385	3.850163	1.304470	-0.000154
1018	1.0119e+02	-0.5246	9.428731	0.000324	3.242242	1.098501	-0.000130
1019	1.0129e+02	-0.5759	9.287431	0.000355	3.546202	1.201486	-0.000142
1020	1.0139e+02	-0.5968	9.158242	0.000324	3.242242	1.098501	-0.000130
1021	1.0149e+02	-0.6433	9.029054	0.000324	3.242242	1.098501	-0.000130
1022	1.0159e+02	-0.6882	8.847383	0.000456	4.559403	1.544768	-0.000183
1023	1.0169e+02	-0.7155	8.742417	0.000263	2.634322	0.892532	-0.000105
1024	1.0179e+02	-0.7668	8.552672	0.000476	4.762043	1.613424	-0.000191
1025	1.0189e+02	-0.8069	8.443669	0.000274	2.735642	0.926861	-0.000110
1026	1.0199e+02	-0.8454	8.282184	0.000405	4.052803	1.373127	-0.000162
1027	1.0209e+02	-0.8775	8.152996	0.000324	3.242242	1.098501	-0.000130
1028	1.0219e+02	-0.9289	8.003622	0.000375	3.748843	1.270142	-0.000150
1029	1.0229e+02	-0.9690	7.874433	0.000324	3.242242	1.098501	-0.000130
1030	1.0239e+02	-1.0010	7.692762	0.000456	4.559403	1.544768	-0.000183
1031	1.0248e+02	-1.0476	7.539351	0.000385	3.850163	1.304470	-0.000154
1032	1.0258e+02	-1.0829	7.422274	0.000294	2.938282	0.995517	-0.000118
1033	1.0268e+02	-1.1294	7.268863	0.000385	3.850163	1.304470	-0.000154
1034	1.0278e+02	-1.1679	7.155823	0.000284	2.836962	0.961189	-0.000114
1035	1.0288e+02	-1.2032	6.982226	0.000436	4.356763	1.476111	-0.000174
1036	1.0298e+02	-1.2401	6.857075	0.000314	3.140922	1.064173	-0.000126
1037	1.0308e+02	-1.2866	6.723850	0.000334	3.343562	1.132830	-0.000134
1038	1.0318e+02	-1.3203	6.562364	0.000405	4.052803	1.373127	-0.000162
1039	1.0328e+02	-1.3652	6.412990	0.000375	3.748843	1.270142	-0.000150
1040	1.0338e+02	-1.4021	6.267653	0.000365	3.647522	1.235814	-0.000146
1041	1.0348e+02	-1.4374	6.102131	0.000415	4.154123	1.407455	-0.000166
1042	1.0358e+02	-1.4775	5.985054	0.000294	2.938282	0.995517	-0.000118
1043	1.0368e+02	-1.5240	5.867977	0.000294	2.938282	0.995517	-0.000118
1044	1.0378e+02	-1.5593	5.742826	0.000314	3.140922	1.064173	-0.000126
1045	1.0388e+02	-1.6026	5.565192	0.000446	4.458083	1.510439	-0.000179
1046	1.0398e+02	-1.6363	5.411780	0.000385	3.850163	1.304470	-0.000154
1047	1.0408e+02	-1.6748	5.278555	0.000334	3.343562	1.132830	-0.000134
1048	1.0418e+02	-1.7213	5.137255	0.000355	3.546202	1.201486	-0.000142
1049	1.0428e+02	-1.7695	5.020178	0.000294	2.938282	0.995517	-0.000118
1050	1.0438e+02	-1.7935	4.878879	0.000355	3.546202	1.201486	-0.000142
1051	1.0447e+02	-1.8417	4.733542	0.000365	3.647522	1.235814	-0.000146
1052	1.0457e+02	-1.8802	4.527648	0.000517	5.167323	1.750737	-0.000207
1053	1.0467e+02	-1.9267	4.390385	0.000344	3.444882	1.167158	-0.000138
1054	1.0477e+02	-1.9652	4.257160	0.000334	3.343562	1.132830	-0.000134
1055	1.0487e+02	-2.0069	4.132008	0.000314	3.140922	1.064173	-0.000126
1056	1.0497e+02	-2.0486	3.966486	0.000415	4.154123	1.407455	-0.000166
1057	1.0507e+02	-2.0823	3.796926	0.000426	4.255443	1.441783	-0.000170
1058	1.0517e+02	-2.1224	3.679849	0.000294	2.938282	0.995517	-0.000118
1059	1.0527e+02	-2.1657	3.562772	0.000294	2.938282	0.995517	-0.000118
1060	1.0537e+02	-2.2042	3.405324	0.000395	3.951483	1.338799	-0.000158
1061	1.0547e+02	-2.2331	3.259987	0.000365	3.647522	1.235814	-0.000146
1062	1.0557e+02	-2.2764	3.106576	0.000385	3.850163	1.304470	-0.000154
1063	1.0567e+02	-2.3245	3.005648	0.000253	2.533002	0.858204	-0.000101
1064	1.0577e+02	-2.3502	2.888571	0.000294	2.938282	0.995517	-0.000118
1065	1.0587e+02	-2.3951	2.747271	0.000355	3.546202	1.201486	-0.000142
1066	1.0597e+02	-2.4465	2.610008	0.000344	3.444882	1.167158	-0.000138
1067	1.0607e+02	-2.4753	2.460634	0.000375	3.748843	1.270142	-0.000150
1068	1.0617e+02	-2.5122	2.339520	0.000304	3.039602	1.029845	-0.000122
1069	1.0627e+02	-2.5523	2.157849	0.000456	4.559403	1.544768	-0.000183
1070	1.0637e+02	-2.6069	2.040772	0.000294	2.938282	0.995517	-0.000118
1071	1.0647e+02	-2.6374	1.895435	0.000365	3.647522	1.235814	-0.000146
1072	1.0656e+02	-2.6823	1.758173	0.000344	3.444882	1.167158	-0.000138
1073	1.0666e+02	-2.7144	1.641096	0.000294	2.938282	0.995517	-0.000118
1074	1.0676e+02	-2.7625	1.479610	0.000405	4.052803	1.373127	-0.000162
1075	1.0686e+02	-2.7962	1.366570	0.000284	2.836962	0.961189	-0.000114
1076	1.0696e+02	-2.8379	1.209122	0.000395	3.951483	1.338799	-0.000158
1077	1.0706e+02	-2.8796	1.088008	0.000304	3.039602	1.029845	-0.000122
1078	1.0716e+02	-2.9229	0.962857	0.000314	3.140922	1.064173	-0.000126
1079	1.0726e+02	-2.9662	0.777149	0.000466	4.660723	1.579096	-0.000187
1080	1.0736e+02	-2.9935	0.692369	0.000213	2.127721	0.720892	-0.000085
1081	1.0746e+02	-3.0384	0.510698	0.000456	4.559403	1.544768	-0.000183
1082	1.0756e+02	-3.0753	0.345175	0.000415	4.154123	1.407455	-0.000166
1083	1.0766e+02	-3.1186	0.224061	0.000304	3.039602	1.029845	-0.000122
1084	1.0776e+02	-3.1491	0.111021	0.000284	2.836962	0.961189	-0.000114
1085	1.0786e+02	-3.1972	-0.038353	0.000375	3.748843	1.270142	-0.000150
1086	1.0796e+02	-3.2341	-0.163504	0.000314	3.140922	1.064173	-0.000126
1087	1.0806e+02	-3.2662	-0.292692	0.000324	3.242242	1.098501	-0.000130
1088	1.0816e+02	-3.3272	-0.454178	0.000405	4.052803	1.373127	-0.000162
1089	1.0826e+02	-3.3496	-0.571255	0.000294	2.938282	0.995517	-0.000118
1090	1.0836e+02	-3.3994	-0.688332	0.000294	2.938282	0.995517	-0.000118
1091	1.0845e+02	-3.4234	-0.870003	0.000456	4.559403	1.544768	-0.000183
1092	1.0855e+02	-3.4764	-1.007265	0.000344	3.444882	1.167158	-0.000138
1093	1.0865e+02	-3.5181	-1.120305	0.000284	2.836962	0.961189	-0.000114
1094	1.0875e+02	-3.5566	-1.273716	0.000385	3.850163	1.304470	-0.000154
1095	1.0885e+02	-3.5967	-1.362533	0.000223	2.229041	0.755220	-0.000089
1096	1.0895e+02	-3.6304	-1.576502	0.000537	5.369964	1.819393	-0.000215
1097	1.0905e+02	-3.6737	-1.673393	0.000243	2.431682	0.823876	-0.000097
1098	1.0915e+02	-3.7234	-1.806618	0.000334	3.343562	1.132830	-0.000134
1099	1.0925e+02	-3.7539	-1.960029	0.000385	3.850163	1.304470	-0.000154
1100	1.0935e+02	-3.7924	-2.097292	0.000344	3.444882	1.167158	-0.000138
1101	1.0945e+02	-3.8309	-2.198220	0.000253	2.533002	0.858204	-0.000101
1102	1.0955e+02	-3.8726	-2.363743	0.000415	4.154123	1.407455	-0.000166
1103	1.0965e+02	-3.9191	-2.476783	0.000284	2.836962	0.961189	-0.000114
1104	1.0975e+02	-3.9560	-2.605971	0.000324	3.242242	1.098501	-0.000130
1105	1.0985e+02	-3.9977	-2.751308	0.000365	3.647522	1.235814	-0.000146
1106	1.0995e+02	-4.0266	-2.904719	0.000385	3.850163	1.304470	-0.000154
1107	1.1005e+02	-4.0667	-3.041982	0.000344	3.444882	1.167158	-0.000138
1108	1.1015e+02	-4.1165	-3.203467	0.000405	4.052803	1.373127	-0.000162
1109	1.1025e+02	-4.1469	-3.304396	0.000253	2.533002	0.858204	-0.000101
1110	1.1035e+02	-4.1951	-3.437621	0.000334	3.343562	1.132830	-0.000134
1111	1.1044e+02	-4.2288	-3.603144	0.000415	4.154123	1.407455	-0.000166
1112	1.1054e+02	-4.2657	-3.683886	0.000203	2.026401	0.686563	-0.000081
1113	1.1064e+02	-4.3074	-3.829223	0.000365	3.647522	1.235814	-0.000146
1114	1.1074e+02	-4.3555	-3.986672	0.000395	3.951483	1.338799	-0.000158
1115	1.1084e+02	-4.4004	-4.123934	0.000344	3.444882	1.167158	-0.000138
1116	1.1094e+02	-4.4277	-4.249085	0.000314	3.140922	1.064173	-0.000126
1117	1.1104e+02	-4.4614	-4.345977	0.000243	2.431682	0.823876	-0.000097
1118	1.1114e+02	-4.5191	-4.499388	0.000385	3.850163	1.304470	-0.000154
1119	1.1124e+02	-4.5592	-4.624539	0.000314	3.140922	1.064173	-0.000126
1120	1.1134e+02	-4.5881	-4.753727	0.000324	3.242242	1.098501	-0.000130
1121	1.1144e+02	-4.6330	-4.927324	0.000436	4.356763	1.476111	-0.000174
1122	1.1154e+02	-4.6683	-5.012104	0.000213	2.127721	0.720892	-0.000085
1123	1.1164e+02	-4.7004	-5.193775	0.000456	4.559403	1.544768	-0.000183
1124	1.1174e+02	-4.7485	-5.314889	0.000304	3.039602	1.029845	-0.000122
1125	1.1184e+02	-4.7854	-5.440040	0.000314	3.140922	1.064173	-0.000126
1126	1.1194e+02	-4.8368	-5.573266	0.000334	3.343562	1.132830	-0.000134
1127	1.1204e+02	-4.8656	-5.674194	0.000253	2.533002	0.858204	-0.000101
1128	1.1214e+02	-4.9154	-5.807420	0.000334	3.343562	1.132830	-0.000134
1129	1.1224e+02	-4.9475	-5.932571	0.000314	3.140922	1.064173	-0.000126
1130	1.1234e+02	-4.9827	-6.090019	0.000395	3.951483	1.338799	-0.000158
1131	1.1244e+02	-5.0229	-6.211133	0.000304	3.039602	1.029845	-0.000122
1132	1.1253e+02	-5.0742	-6.328210	0.000294	2.938282	0.995517	-0.000118
1133	1.1263e+02	-5.1031	-6.445287	0.000294	2.938282	0.995517	-0.000118
1134	1.1273e+02	-5.1496	-6.635033	0.000476	4.762043	1.613424	-0.000191
1135	1.1283e+02	-5.1817	-6.715775	0.000203	2.026401	0.686563	-0.000081
1136	1.1293e+02	-5.2314	-6.844964	0.000324	3.242242	1.098501	-0.000130
1137	1.1303e+02	-5.2667	-7.022598	0.000446	4.458083	1.510439	-0.000179
1138	1.1313e+02	-5.3052	-7.115452	0.000233	2.330362	0.789548	-0.000093
1139	1.1323e+02	-5.3565	-7.264826	0.000375	3.748843	1.270142	-0.000150
1140	1.1333e+02	-5.3806	-7.361717	0.000243	2.431682	0.823876	-0.000097
1141	1.1343e+02	-5.4271	-7.515128	0.000385	3.850163	1.304470	-0.000154
1142	1.1353e+02	-5.4640	-7.648354	0.000334	3.343562	1.132830	-0.000134
1143	1.1363e+02	-5.5105	-7.769468	0.000304	3.039602	1.029845	-0.000122
1144	1.1373e+02	-5.5474	-7.910767	0.000355	3.546202	1.201486	-0.000142
1145	1.1383e+02	-5.5891	-8.023807	0.000284	2.836962	0.961189	-0.000114
1146	1.1393e+02	-5.6196	-8.169144	0.000365	3.647522	1.235814	-0.000146
1147	1.1403e+02	-5.6597	-8.310444	0.000355	3.546202	1.201486	-0.000142
1148	1.1413e+02	-5.7063	-8.431558	0.000304	3.039602	1.029845	-0.000122
1149	1.1423e+02	-5.7512	-8.580932	0.000375	3.748843	1.270142	-0.000150
1150	1.1433e+02	-5.7784	-8.702046	0.000304	3.039602	1.029845	-0.000122
1151	1.1442e+02	-5.8186	-8.839309	0.000344	3.444882	1.167158	-0.000138
1152	1.1452e+02	-5.8538	-8.932163	0.000233	2.330362	0.789548	-0.000093
1153	1.1462e+02	-5.9036	-9.101723	0.000426	4.255443	1.441783	-0.000170
1154	1.1472e+02	-5.9405	-9.218799	0.000294	2.938282	0.995517	-0.000118
1155	1.1482e+02	-5.9870	-9.352025	0.000334	3.343562	1.132830	-0.000134
1156	1.1492e+02	-6.0239	-9.481213	0.000324	3.242242	1.098501	-0.000130
1157	1.1502e+02	-6.0672	-9.614439	0.000334	3.343562	1.132830	-0.000134
1158	1.1512e+02	-6.1009	-9.719404	0.000263	2.634322	0.892532	-0.000105
1159	1.1522e+02	-6.1442	-9.884927	0.000415	4.154123	1.407455	-0.000166
1160	1.1532e+02	-6.1875	-9.969707	0.000213	2.127721	0.720892	-0.000085
1161	1.1542e+02	-6.2308	-10.155415	0.000466	4.660723	1.579096	-0.000187
1162	1.1552e+02	-6.2661	-10.228083	0.000182	1.823761	0.617907	-0.000073
1163	1.1562e+02	-6.3159	-10.381495	0.000385	3.850163	1.304470	-0.000154
1164	1.1572e+02	-6.3399	-10.510683	0.000324	3.242242	1.098501	-0.000130
1165	1.1582e+02	-6.3832	-10.647946	0.000344	3.444882	1.167158	-0.000138
1166	1.1592e+02	-6.4250	-10.821542	0.000436	4.356763	1.476111	-0.000174
1167	1.1602e+02	-6.4570	-10.869988	0.000122	1.215841	0.411938	-0.000049
1168	1.1612e+02	-6.5036	-10.991102	0.000304	3.039602	1.029845	-0.000122
1169	1.1622e+02	-6.5421	-11.120290	0.000324	3.242242	1.098501	-0.000130
1170	1.1632e+02	-6.5758	-11.237367	0.000294	2.938282	0.995517	-0.000118
1171	1.1642e+02	-6.6191	-11.370593	0.000334	3.343562	1.132830	-0.000134
1172	1.1651e+02	-6.6656	-11.495744	0.000314	3.140922	1.064173	-0.000126
1173	1.1661e+02	-6.6945	-11.637044	0.000355	3.546202	1.201486	-0.000142
1174	1.1671e+02	-6.7490	-11.737972	0.000253	2.533002	0.858204	-0.000101
1175	1.1681e+02	-6.7907	-11.883309	0.000365	3.647522	1.235814	-0.000146
1176	1.1691e+02	-6.8196	-12.028646	0.000365	3.647522	1.235814	-0.000146
1177	1.1701e+02	-6.8629	-12.129574	0.000253	2.533002	0.858204	-0.000101
1178	1.1711e+02	-6.9014	-12.254726	0.000314	3.140922	1.064173	-0.000126
1179	1.1721e+02	-6.9319	-12.383914	0.000324	3.242242	1.098501	-0.000130
1180	1.1731e+02	-6.9704	-12.517139	0.000334	3.343562	1.132830	-0.000134
1181	1.1741e+02	-7.0153	-12.622105	0.000263	2.634322	0.892532	-0.000105
1182	1.1751e+02	-7.0586	-12.771479	0.000375	3.748843	1.270142	-0.000150
1183	1.1761e+02	-7.0987	-12.896630	0.000314	3.140922	1.064173	-0.000126
1184	1.1771e+02	-7.1404	-13.037930	0.000355	3.546202	1.201486	-0.000142
1185	1.1781e+02	-7.1661	-13.150970	0.000284	2.836962	0.961189	-0.000114
1186	1.1791e+02	-7.2094	-13.243824	0.000233	2.330362	0.789548	-0.000093
1187	1.1801e+02	-7.2640	-13.385124	0.000355	3.546202	1.201486	-0.000142
1188	1.1811e+02	-7.2896	-13.510275	0.000314	3.140922	1.064173	-0.000126
1189	1.1821e+02	-7.3313	-13.627352	0.000294	2.938282	0.995517	-0.000118
1190	1.1831e+02	-7.3795	-13.752503	0.000314	3.140922	1.064173	-0.000126
1191	1.1841e+02	-7.4164	-13.873617	0.000304	3.039602	1.029845	-0.000122
1192	1.1850e+02	-7.4565	-14.002805	0.000324	3.242242	1.098501	-0.000130
1193	1.1860e+02	-7.5030	-14.131994	0.000324	3.242242	1.098501	-0.000130
1194	1.1870e+02	-7.5399	-14.261182	0.000324	3.242242	1.098501	-0.000130
1195	1.1880e+02	-7.5672	-14.370185	0.000274	2.735642	0.926861	-0.000110
1196	1.1890e+02	-7.6073	-14.491299	0.000304	3.039602	1.029845	-0.000122
1197	1.1900e+02	-7.6570	-14.608376	0.000294	2.938282	0.995517	-0.000118
1198	1.1910e+02	-7.6891	-14.749675	0.000355	3.546202	1.201486	-0.000142
1199	1.1920e+02	-7.7388	-14.899049	0.000375	3.748843	1.270142	-0.000150
1200	1.1930e+02	-7.7805	-14.923272	0.000061	0.607920	0.205969	-0.000024
1201	1.1940e+02	-7.8126	-15.108980	0.000466	4.660723	1.579096	-0.000187
1202	1.1950e+02	-7.8623	-15.193760	0.000213	2.127721	0.720892	-0.000085
1203	1.1960e+02	-7.9008	-15.335060	0.000355	3.546202	1.201486	-0.000142
1204	1.1970e+02	-7.9249	-15.435988	0.000253	2.533002	0.858204	-0.000101
1205	1.1980e+02	-7.9762	-15.565177	0.000324	3.242242	1.098501	-0.000130
1206	1.1990e+02	-8.0180	-15.690328	0.000314	3.140922	1.064173	-0.000126
1207	1.2000e+02	-8.0613	-15.863925	0.000436	4.356763	1.476111	-0.000174
1208	1.2010e+02	-8.0966	-15.956779	0.000233	2.330362	0.789548	-0.000093
1209	1.2020e+02	-8.1335	-16.094042	0.000344	3.444882	1.167158	-0.000138
1210	1.2030e+02	-8.1816	-16.174784	0.000203	2.026401	0.686563	-0.000081
1211	1.2039e+02	-8.2185	-16.324158	0.000375	3.748843	1.270142	-0.000150
1212	1.2049e+02	-8.2506	-16.429124	0.000263	2.634322	0.892532	-0.000105
1213	1.2059e+02	-8.3035	-16.538127	0.000274	2.735642	0.926861	-0.000110
1214	1.2069e+02	-8.3372	-16.679426	0.000355	3.546202	1.201486	-0.000142
1215	1.2079e+02	-8.3821	-16.780355	0.000253	2.533002	0.858204	-0.000101
1216	1.2089e+02	-8.4158	-16.901469	0.000304	3.039602	1.029845	-0.000122
1217	1.2099e+02	-8.4495	-17.030657	0.000324	3.242242	1.098501	-0.000130
1218	1.2109e+02	-8.4976	-17.171957	0.000355	3.546202	1.201486	-0.000142
1219	1.2119e+02	-8.5281	-17.272885	0.000253	2.533002	0.858204	-0.000101
1220	1.2129e+02	-8.5810	-17.393999	0.000304	3.039602	1.029845	-0.000122
1221	1.2139e+02	-8.6099	-17.511076	0.000294	2.938282	0.995517	-0.000118
1222	1.2149e+02	-8.6516	-17.632190	0.000304	3.039602	1.029845	-0.000122
1223	1.2159e+02	-8.6949	-17.789639	0.000395	3.951483	1.338799	-0.000158
1224	1.2169e+02	-8.7302	-17.898641	0.000274	2.735642	0.926861	-0.000110
1225	1.2179e+02	-8.7735	-17.971310	0.000182	1.823761	0.617907	-0.000073
1226	1.2189e+02	-8.8008	-18.064164	0.000233	2.330362	0.789548	-0.000093
1227	1.2199e+02	-8.8570	-18.241798	0.000446	4.458083	1.510439	-0.000179
1228	1.2209e+02	-8.8987	-18.346763	0.000263	2.634322	0.892532	-0.000105
1229	1.2219e+02	-8.9324	-18.488063	0.000355	3.546202	1.201486	-0.000142
1230	1.2229e+02	-8.9693	-18.548620	0.000152	1.519801	0.514923	-0.000061
1231	1.2239e+02	-9.0062	-18.677808	0.000324	3.242242	1.098501	-0.000130
1232	1.2248e+02	-9.0623	-18.823145	0.000365	3.647522	1.235814	-0.000146
1233	1.2258e+02	-9.0864	-18.887740	0.000162	1.621121	0.549251	-0.000065
1234	1.2268e+02	-9.1329	-19.033076	0.000365	3.647522	1.235814	-0.000146
1235	1.2278e+02	-9.1746	-19.121893	0.000223	2.229041	0.755220	-0.000089
1236	1.2288e+02	-9.2131	-19.226859	0.000263	2.634322	0.892532	-0.000105
1237	1.2298e+02	-9.2500	-19.392382	0.000415	4.154123	1.407455	-0.000166
1238	1.2308e+02	-9.2885	-19.501384	0.000274	2.735642	0.926861	-0.000110
1239	1.2318e+02	-9.3334	-19.614424	0.000284	2.836962	0.961189	-0.000114
1240	1.2328e+02	-9.3671	-19.735538	0.000304	3.039602	1.029845	-0.000122
1241	1.2338e+02	-9.4120	-19.808206	0.000182	1.823761	0.617907	-0.000073
1242	1.2348e+02	-9.4457	-19.921246	0.000284	2.836962	0.961189	-0.000114
1243	1.2358e+02	-9.4874	-20.001989	0.000203	2.026401	0.686563	-0.000081
1244	1.2368e+02	-9.5356	-20.171549	0.000426	4.255443	1.441783	-0.000170
1245	1.2378e+02	-9.5709	-20.284589	0.000284	2.836962	0.961189	-0.000114
1246	1.2388e+02	-9.6206	-20.385517	0.000253	2.533002	0.858204	-0.000101
1247	1.2398e+02	-9.6495	-20.486445	0.000253	2.533002	0.858204	-0.000101
1248	1.2408e+02	-9.6880	-20.627745	0.000355	3.546202	1.201486	-0.000142
1249	1.2418e+02	-9.7297	-20.756933	0.000324	3.242242	1.098501	-0.000130
1250	1.2428e+02	-9.7618	-20.837676	0.000203	2.026401	0.686563	-0.000081
1251	1.2438e+02	-9.8051	-20.950716	0.000284	2.836962	0.961189	-0.000114
1252	1.2447e+02	-9.8484	-21.047607	0.000243	2.431682	0.823876	-0.000097
1253	1.2457e+02	-9.8869	-21.192944	0.000365	3.647522	1.235814	-0.000146
1254	1.2467e+02	-9.9254	-21.305984	0.000284	2.836962	0.961189	-0.000114
1255	1.2477e+02	-9.9655	-21.398838	0.000233	2.330362	0.789548	-0.000093
1256	1.2487e+02	-10.0088	-21.499766	0.000253	2.533002	0.858204	-0.000101
1257	1.2497e+02	-10.0441	-21.657215	0.000395	3.951483	1.338799	-0.000158
1258	1.2507e+02	-10.0826	-21.725846	0.000172	1.722441	0.583579	-0.000069
1259	1.2517e+02	-10.1195	-21.879257	0.000385	3.850163	1.304470	-0.000154
1260	1.2527e+02	-10.1660	-21.984223	0.000263	2.634322	0.892532	-0.000105
1261	1.2537e+02	-10.2029	-22.101300	0.000294	2.938282	0.995517	-0.000118
1262	1.2547e+02	-10.2510	-22.214339	0.000284	2.836962	0.961189	-0.000114
1263	1.2557e+02	-10.2895	-22.331416	0.000294	2.938282	0.995517	-0.000118
1264	1.2567e+02	-10.3297	-22.436382	0.000263	2.634322	0.892532	-0.000105
1265	1.2577e+02	-10.3714	-22.545385	0.000274	2.735642	0.926861	-0.000110
1266	1.2587e+02	-10.4099	-22.654387	0.000274	2.735642	0.926861	-0.000110
1267	1.2597e+02	-10.4532	-22.718981	0.000162	1.621121	0.549251	-0.000065
1268	1.2607e+02	-10.4837	-22.912764	0.000486	4.863363	1.647752	-0.000195
1269	1.2617e+02	-10.5238	-22.965247	0.000132	1.317161	0.446266	-0.000053
1270	1.2627e+02	-10.5655	-23.094435	0.000324	3.242242	1.098501	-0.000130
1271	1.2636e+02	-10.6072	-23.203438	0.000274	2.735642	0.926861	-0.000110
1272	1.2646e+02	-10.6409	-23.340700	0.000344	3.444882	1.167158	-0.000138
1273	1.2656e+02	-10.6826	-23.461814	0.000304	3.039602	1.029845	-0.000122
1274	1.2666e+02	-10.7243	-23.570817	0.000274	2.735642	0.926861	-0.000110
1275	1.2676e+02	-10.7676	-23.663671	0.000233	2.330362	0.789548	-0.000093
1276	1.2686e+02	-10.7997	-23.796897	0.000334	3.343562	1.132830	-0.000134
1277	1.2696e+02	-10.8398	-23.873602	0.000193	1.925081	0.652235	-0.000077
1278	1.2706e+02	-10.8847	-23.990679	0.000294	2.938282	0.995517	-0.000118
1279	1.2716e+02	-10.9232	-24.115830	0.000314	3.140922	1.064173	-0.000126
1280	1.2726e+02	-10.9713	-24.224833	0.000274	2.735642	0.926861	-0.000110
1281	1.2736e+02	-11.0066	-24.341910	0.000294	2.938282	0.995517	-0.000118
1282	1.2746e+02	-11.0500	-24.458987	0.000294	2.938282	0.995517	-0.000118
1283	1.2756e+02	-11.0885	-24.547804	0.000223	2.229041	0.755220	-0.000089
1284	1.2766e+02	-11.1286	-24.644695	0.000243	2.431682	0.823876	-0.000097
1285	1.2776e+02	-11.1703	-24.802143	0.000395	3.951483	1.338799	-0.000158
1286	1.2786e+02	-11.1975	-24.850589	0.000122	1.215841	0.411938	-0.000049
1287	1.2796e+02	-11.2505	-24.979777	0.000324	3.242242	1.098501	-0.000130
1288	1.2806e+02	-11.2906	-25.088780	0.000274	2.735642	0.926861	-0.000110
1289	1.2816e+02	-11.3259	-25.226043	0.000344	3.444882	1.167158	-0.000138
1290	1.2826e+02	-11.3612	-25.331008	0.000263	2.634322	0.892532	-0.000105
1291	1.2835e+02	-11.3997	-25.452122	0.000304	3.039602	1.029845	-0.000122
1292	1.2845e+02	-11.4478	-25.557088	0.000263	2.634322	0.892532	-0.000105
1293	1.2855e+02	-11.4751	-25.649942	0.000233	2.330362	0.789548	-0.000093
1294	1.2865e+02	-11.5264	-25.734722	0.000213	2.127721	0.720892	-0.000085
1295	1.2875e+02	-11.5633	-25.880059	0.000365	3.647522	1.235814	-0.000146
1296	1.2885e+02	-11.6050	-25.968876	0.000223	2.229041	0.755220	-0.000089
1297	1.2895e+02	-11.6483	-26.098064	0.000324	3.242242	1.098501	-0.000130
1298	1.2905e+02	-11.6836	-26.178807	0.000203	2.026401	0.686563	-0.000081
1299	1.2915e+02	-11.7141	-26.295884	0.000294	2.938282	0.995517	-0.000118
1300	1.2925e+02	-11.7622	-26.400849	0.000263	2.634322	0.892532	-0.000105
1301	1.2935e+02	-11.8055	-26.513889	0.000284	2.836962	0.961189	-0.000114
1302	1.2945e+02	-11.8360	-26.598669	0.000213	2.127721	0.720892	-0.000085
1303	1.2955e+02	-11.8842	-26.715746	0.000294	2.938282	0.995517	-0.000118
1304	1.2965e+02	-11.9259	-26.828786	0.000284	2.836962	0.961189	-0.000114
1305	1.2975e+02	-11.9580	-26.937788	0.000274	2.735642	0.926861	-0.000110
1306	1.2985e+02	-11.9965	-27.046791	0.000274	2.735642	0.926861	-0.000110
1307	1.2995e+02	-12.0510	-27.180016	0.000334	3.343562	1.132830	-0.000134
1308	1.3005e+02	-12.0831	-27.272870	0.000233	2.330362	0.789548	-0.000093
1309	1.3015e+02	-12.1200	-27.333428	0.000152	1.519801	0.514923	-0.000061
1310	1.3025e+02	-12.1681	-27.454542	0.000304	3.039602	1.029845	-0.000122
1311	1.3034e+02	-12.2098	-27.579693	0.000314	3.140922	1.064173	-0.000126
1312	1.3044e+02	-12.2419	-27.692733	0.000284	2.836962	0.961189	-0.000114
1313	1.3054e+02	-12.2772	-27.805772	0.000284	2.836962	0.961189	-0.000114
1314	1.3064e+02	-12.3189	-27.910738	0.000263	2.634322	0.892532	-0.000105
1315	1.3074e+02	-12.3590	-28.019741	0.000274	2.735642	0.926861	-0.000110
1316	1.3084e+02	-12.3943	-28.120669	0.000253	2.533002	0.858204	-0.000101
1317	1.3094e+02	-12.4344	-28.249857	0.000324	3.242242	1.098501	-0.000130
1318	1.3104e+02	-12.4777	-28.346749	0.000243	2.431682	0.823876	-0.000097
1319	1.3114e+02	-12.5146	-28.427491	0.000203	2.026401	0.686563	-0.000081
1320	1.3124e+02	-12.5595	-28.560717	0.000334	3.343562	1.132830	-0.000134
1321	1.3134e+02	-12.5964	-28.657608	0.000243	2.431682	0.823876	-0.000097
1322	1.3144e+02	-12.6462	-28.823131	0.000415	4.154123	1.407455	-0.000166
1323	1.3154e+02	-12.6766	-28.907910	0.000213	2.127721	0.720892	-0.000085
1324	1.3164e+02	-12.7168	-29.004802	0.000243	2.431682	0.823876	-0.000097
1325	1.3174e+02	-12.7649	-29.105730	0.000253	2.533002	0.858204	-0.000101
1326	1.3184e+02	-12.8066	-29.226844	0.000304	3.039602	1.029845	-0.000122
1327	1.3194e+02	-12.8435	-29.291438	0.000162	1.621121	0.549251	-0.000065
1328	1.3204e+02	-12.8692	-29.400441	0.000274	2.735642	0.926861	-0.000110
1329	1.3214e+02	-12.9141	-29.553852	0.000385	3.850163	1.304470	-0.000154
1330	1.3224e+02	-12.9574	-29.650743	0.000243	2.431682	0.823876	-0.000097
1331	1.3234e+02	-12.9959	-29.747635	0.000243	2.431682	0.823876	-0.000097
1332	1.3243e+02	-13.0296	-29.824340	0.000193	1.925081	0.652235	-0.000077
1333	1.3253e+02	-13.0809	-29.965640	0.000355	3.546202	1.201486	-0.000142
1334	1.3263e+02	-13.1050	-30.054457	0.000223	2.229041	0.755220	-0.000089
1335	1.3273e+02	-13.1579	-30.171534	0.000294	2.938282	0.995517	-0.000118
1336	1.3283e+02	-13.1964	-30.296685	0.000314	3.140922	1.064173	-0.000126
1337	1.3293e+02	-13.2397	-30.381465	0.000213	2.127721	0.720892	-0.000085
1338	1.3303e+02	-13.2766	-30.530839	0.000375	3.748843	1.270142	-0.000150
1339	1.3313e+02	-13.3135	-30.639842	0.000274	2.735642	0.926861	-0.000110
1340	1.3323e+02	-13.3488	-30.708473	0.000172	1.722441	0.583579	-0.000069
1341	1.3333e+02	-13.3937	-30.773067	0.000162	1.621121	0.549251	-0.000065
1342	1.3343e+02	-13.4354	-30.958775	0.000466	4.660723	1.579096	-0.000187
1343	1.3353e+02	-13.4772	-30.991072	0.000081	0.810561	0.274625	-0.000032
1344	1.3363e+02	-13.5125	-31.108149	0.000294	2.938282	0.995517	-0.000118
1345	1.3373e+02	-13.5461	-31.233301	0.000314	3.140922	1.064173	-0.000126
1346	1.3383e+02	-13.5895	-31.334229	0.000253	2.533002	0.858204	-0.000101
1347	1.3393e+02	-13.6280	-31.455343	0.000304	3.039602	1.029845	-0.000122
1348	1.3403e+02	-13.6649	-31.556271	0.000253	2.533002	0.858204	-0.000101
1349	1.3413e+02	-13.7178	-31.653163	0.000243	2.431682	0.823876	-0.000097
1350	1.3423e+02	-13.7563	-31.754091	0.000253	2.533002	0.858204	-0.000101
1351	1.3432e+02	-13.7852	-31.895391	0.000355	3.546202	1.201486	-0.000142
1352	1.3442e+02	-13.8365	-31.964022	0.000172	1.722441	0.583579	-0.000069
1353	1.3452e+02	-13.8750	-32.068988	0.000263	2.634322	0.892532	-0.000105
1354	1.3462e+02	-13.9071	-32.173953	0.000263	2.634322	0.892532	-0.000105
1355	1.3472e+02	-13.9552	-32.299104	0.000314	3.140922	1.064173	-0.000126
1356	1.3482e+02	-13.9841	-32.395996	0.000243	2.431682	0.823876	-0.000097
1357	1.3492e+02	-14.0258	-32.496924	0.000253	2.533002	0.858204	-0.000101
1358	1.3502e+02	-14.0675	-32.593815	0.000243	2.431682	0.823876	-0.000097
1359	1.3512e+02	-14.1076	-32.710892	0.000294	2.938282	0.995517	-0.000118
1360	1.3522e+02	-14.1541	-32.779524	0.000172	1.722441	0.583579	-0.000069
1361	1.3532e+02	-14.1878	-32.920823	0.000355	3.546202	1.201486	-0.000142
1362	1.3542e+02	-14.2247	-33.009640	0.000223	2.229041	0.755220	-0.000089
1363	1.3552e+02	-14.2745	-33.142866	0.000334	3.343562	1.132830	-0.000134
1364	1.3562e+02	-14.3082	-33.187274	0.000111	1.114521	0.377610	-0.000045
1365	1.3572e+02	-14.3563	-33.292240	0.000263	2.634322	0.892532	-0.000105
1366	1.3582e+02	-14.3884	-33.437577	0.000365	3.647522	1.235814	-0.000146
1367	1.3592e+02	-14.4317	-33.546579	0.000274	2.735642	0.926861	-0.000110
1368	1.3602e+02	-14.4686	-33.611174	0.000162	1.621121	0.549251	-0.000065
1369	1.3612e+02	-14.5071	-33.724213	0.000284	2.836962	0.961189	-0.000114
1370	1.3622e+02	-14.5472	-33.889736	0.000415	4.154123	1.407455	-0.000166
1371	1.3631e+02	-14.5953	-33.938182	0.000122	1.215841	0.411938	-0.000049
1372	1.3641e+02	-14.6322	-34.035073	0.000243	2.431682	0.823876	-0.000097
1373	1.3651e+02	-14.6659	-34.140038	0.000263	2.634322	0.892532	-0.000105
1374	1.3661e+02	-14.7156	-34.269227	0.000324	3.242242	1.098501	-0.000130
1375	1.3671e+02	-14.7461	-34.382267	0.000284	2.836962	0.961189	-0.000114
1376	1.3681e+02	-14.7926	-34.454935	0.000182	1.823761	0.617907	-0.000073
1377	1.3691e+02	-14.8295	-34.600272	0.000365	3.647522	1.235814	-0.000146
1378	1.3701e+02	-14.8712	-34.648717	0.000122	1.215841	0.411938	-0.000049
1379	1.3711e+02	-14.9097	-34.794054	0.000365	3.647522	1.235814	-0.000146
1380	1.3721e+02	-14.9482	-34.894983	0.000253	2.533002	0.858204	-0.000101
1381	1.3731e+02	-14.9835	-35.012060	0.000294	2.938282	0.995517	-0.000118
1382	1.3741e+02	-15.0333	-35.149322	0.000344	3.444882	1.167158	-0.000138
1383	1.3751e+02	-15.0718	-35.274474	0.000314	3.140922	1.064173	-0.000126
1384	1.3761e+02	-15.1022	-35.335031	0.000152	1.519801	0.514923	-0.000061
1385	1.3771e+02	-15.1456	-35.444033	0.000274	2.735642	0.926861	-0.000110
1386	1.3781e+02	-15.1889	-35.516702	0.000182	1.823761	0.617907	-0.000073
1387	1.3791e+02	-15.2306	-35.658001	0.000355	3.546202	1.201486	-0.000142
1388	1.3801e+02	-15.2675	-35.787190	0.000324	3.242242	1.098501	-0.000130
1389	1.3811e+02	-15.3044	-35.892155	0.000263	2.634322	0.892532	-0.000105
1390	1.3821e+02	-15.3509	-36.033455	0.000355	3.546202	1.201486	-0.000142
1391	1.3831e+02	-15.4022	-36.134383	0.000253	2.533002	0.858204	-0.000101
1392	1.3840e+02	-15.4199	-36.239349	0.000263	2.634322	0.892532	-0.000105
1393	1.3850e+02	-15.4680	-36.380649	0.000355	3.546202	1.201486	-0.000142
1394	1.3860e+02	-15.4985	-36.441206	0.000152	1.519801	0.514923	-0.000061
1395	1.3870e+02	-15.5466	-36.530023	0.000223	2.229041	0.755220	-0.000089
1396	1.3880e+02	-15.5803	-36.667285	0.000344	3.444882	1.167158	-0.000138
1397	1.3890e+02	-15.6140	-36.776288	0.000274	2.735642	0.926861	-0.000110
1398	1.3900e+02	-15.6653	-36.897402	0.000304	3.039602	1.029845	-0.000122
1399	1.3910e+02	-15.7054	-36.986219	0.000223	2.229041	0.755220	-0.000089
1400	1.3920e+02	-15.7439	-37.135593	0.000375	3.748843	1.270142	-0.000150
1401	1.3930e+02	-15.7792	-37.216336	0.000203	2.026401	0.686563	-0.000081
1402	1.3940e+02	-15.8290	-37.325338	0.000274	2.735642	0.926861	-0.000110
1403	1.3950e+02	-15.8643	-37.450490	0.000314	3.140922	1.064173	-0.000126
1404	1.3960e+02	-15.9044	-37.587752	0.000344	3.444882	1.167158	-0.000138
1405	1.3970e+02	-15.9445	-37.684644	0.000243	2.431682	0.823876	-0.000097
1406	1.3980e+02	-15.9782	-37.781535	0.000243	2.431682	0.823876	-0.000097
1407	1.3990e+02	-16.0247	-37.934946	0.000385	3.850163	1.304470	-0.000154
1408	1.4000e+02	-16.0664	-38.019726	0.000213	2.127721	0.720892	-0.000085
1409	1.4010e+02	-16.1097	-38.189286	0.000426	4.255443	1.441783	-0.000170
1410	1.4020e+02	-16.1434	-38.322511	0.000334	3.343562	1.132830	-0.000134
1411	1.4029e+02	-16.1803	-38.455736	0.000334	3.343562	1.132830	-0.000134
1412	1.4039e+02	-16.2268	-38.488034	0.000081	0.810561	0.274625	-0.000032
1413	1.4049e+02	-16.2589	-38.665668	0.000446	4.458083	1.510439	-0.000179
1414	1.4059e+02	-16.3006	-38.843302	0.000446	4.458083	1.510439	-0.000179
1415	1.4069e+02	-16.3471	-38.984601	0.000355	3.546202	1.201486	-0.000142
1416	1.4079e+02	-16.3808	-39.121864	0.000344	3.444882	1.167158	-0.000138
1417	1.4089e+02	-16.4273	-39.238941	0.000294	2.938282	0.995517	-0.000118
1418	1.4099e+02	-16.4610	-39.384278	0.000365	3.647522	1.235814	-0.000146
1419	1.4109e+02	-16.5060	-39.497317	0.000284	2.836962	0.961189	-0.000114
1420	1.4119e+02	-16.5477	-39.662840	0.000415	4.154123	1.407455	-0.000166
1421	1.4129e+02	-16.5814	-39.824325	0.000405	4.052803	1.373127	-0.000162
1422	1.4139e+02	-16.6247	-39.949477	0.000314	3.140922	1.064173	-0.000126
1423	1.4149e+02	-16.6648	-40.074628	0.000314	3.140922	1.064173	-0.000126
1424	1.4159e+02	-16.7001	-40.264373	0.000476	4.762043	1.613424	-0.000191
1425	1.4169e+02	-16.7354	-40.417784	0.000385	3.850163	1.304470	-0.000154
1426	1.4179e+02	-16.7835	-40.567158	0.000375	3.748843	1.270142	-0.000150
1427	1.4189e+02	-16.8252	-40.708458	0.000355	3.546202	1.201486	-0.000142
1428	1.4199e+02	-16.8637	-40.902241	0.000486	4.863363	1.647752	-0.000195
1429	1.4209e+02	-16.8974	-41.083912	0.000456	4.559403	1.544768	-0.000183
1430	1.4219e+02	-16.9391	-41.237323	0.000385	3.850163	1.304470	-0.000154
1431	1.4228e+02	-16.9840	-41.398808	0.000405	4.052803	1.373127	-0.000162
1432	1.4238e+02	-17.0225	-41.568368	0.000426	4.255443	1.441783	-0.000170
1433	1.4248e+02	-17.0642	-41.741965	0.000436	4.356763	1.476111	-0.000174
1434	1.4258e+02	-17.1027	-41.907488	0.000415	4.154123	1.407455	-0.000166
1435	1.4268e+02	-17.1348	-42.117419	0.000527	5.268644	1.785065	-0.000211
1436	1.4278e+02	-17.1829	-42.303127	0.000466	4.660723	1.579096	-0.000187
1437	1.4288e+02	-17.2279	-42.456538	0.000385	3.850163	1.304470	-0.000154
1438	1.4298e+02	-17.2664	-42.658395	0.000507	5.066003	1.716408	-0.000203
1439	1.4308e+02	-17.3065	-42.880437	0.000557	5.572604	1.888049	-0.000223
1440	1.4318e+02	-17.3353	-43.017700	0.000344	3.444882	1.167158	-0.000138
1441	1.4328e+02	-17.3754	-43.223594	0.000517	5.167323	1.750737	-0.000207
1442	1.4338e+02	-17.4156	-43.425451	0.000507	5.066003	1.716408	-0.000203
1443	1.4348e+02	-17.4573	-43.603085	0.000446	4.458083	1.510439	-0.000179
1444	1.4358e+02	-17.4990	-43.813016	0.000527	5.268644	1.785065	-0.000211
1445	1.4368e+02	-17.5407	-44.014872	0.000507	5.066003	1.716408	-0.000203
1446	1.4378e+02	-17.5776	-44.236915	0.000557	5.572604	1.888049	-0.000223
1447	1.4388e+02	-17.6209	-44.467032	0.000578	5.775244	1.956706	-0.000231
1448	1.4398e+02	-17.6626	-44.676963	0.000527	5.268644	1.785065	-0.000211
1449	1.4408e+02	-17.7027	-44.882857	0.000517	5.167323	1.750737	-0.000207
1450	1.4418e+02	-17.7364	-45.088750	0.000517	5.167323	1.750737	-0.000207
1451	1.4428e+02	-17.7909	-45.326941	0.000598	5.977884	2.025362	-0.000239
1452	1.4437e+02	-17.8166	-45.520724	0.000486	4.863363	1.647752	-0.000195
1453	1.4447e+02	-17.8631	-45.791212	0.000679	6.788445	2.299987	-0.000272
1454	1.4457e+02	-17.8904	-46.001143	0.000527	5.268644	1.785065	-0.000211
1455	1.4467e+02	-17.9369	-46.251446	0.000628	6.281844	2.128346	-0.000252
1456	1.4477e+02	-17.9706	-46.513859	0.000659	6.585804	2.231331	-0.000264
1457	1.4487e+02	-18.0187	-46.703605	0.000476	4.762043	1.613424	-0.000191
1458	1.4497e+02	-18.0637	-46.978130	0.000689	6.889765	2.334315	-0.000276
1459	1.4507e+02	-18.0974	-47.179987	0.000507	5.066003	1.716408	-0.000203
1460	1.4517e+02	-18.1294	-47.474698	0.000740	7.396365	2.505956	-0.000296
1461	1.4527e+02	-18.1695	-47.692703	0.000547	5.471284	1.853721	-0.000219
1462	1.4537e+02	-18.2209	-47.955117	0.000659	6.585804	2.231331	-0.000264
1463	1.4547e+02	-18.2530	-48.165048	0.000527	5.268644	1.785065	-0.000211
1464	1.4557e+02	-18.2995	-48.463796	0.000750	7.497685	2.540284	-0.000300
1465	1.4567e+02	-18.3380	-48.790804	0.000821	8.206925	2.780582	-0.000329
1466	1.4577e+02	-18.3749	-49.033032	0.000608	6.079204	2.059690	-0.000243
1467	1.4587e+02	-18.4278	-49.291409	0.000648	6.484484	2.197003	-0.000260
1468	1.4597e+02	-18.4503	-49.549785	0.000648	6.484484	2.197003	-0.000260
1469	1.4607e+02	-18.4984	-49.864682	0.000790	7.902965	2.677597	-0.000316
1470	1.4617e+02	-18.5385	-50.074613	0.000527	5.268644	1.785065	-0.000211
1471	1.4626e+02	-18.5850	-50.429881	0.000892	8.916166	3.020879	-0.000357
1472	1.4636e+02	-18.6171	-50.684221	0.000638	6.383164	2.162675	-0.000256
1473	1.4646e+02	-18.6572	-50.995080	0.000780	7.801645	2.643269	-0.000312
1474	1.4656e+02	-18.7021	-51.289791	0.000740	7.396365	2.505956	-0.000296
1475	1.4666e+02	-18.7358	-51.576428	0.000719	7.193725	2.437300	-0.000288
1476	1.4676e+02	-18.7791	-51.899398	0.000811	8.105605	2.746253	-0.000325
1477	1.4686e+02	-18.8177	-52.198147	0.000750	7.497685	2.540284	-0.000300
1478	1.4696e+02	-18.8545	-52.488820	0.000730	7.295045	2.471628	-0.000292
1479	1.4706e+02	-18.8930	-52.823903	0.000841	8.409566	2.849238	-0.000337
1480	1.4716e+02	-18.9380	-53.154948	0.000831	8.308246	2.814910	-0.000333
1481	1.4726e+02	-18.9717	-53.514253	0.000902	9.017486	3.055207	-0.000361
1482	1.4736e+02	-19.0053	-53.800889	0.000719	7.193725	2.437300	-0.000288
1483	1.4746e+02	-19.0551	-54.160194	0.000902	9.017486	3.055207	-0.000361
1484	1.4756e+02	-19.0920	-54.479128	0.000800	8.004285	2.711925	-0.000321
1485	1.4766e+02	-19.1321	-54.830359	0.000881	8.814846	2.986551	-0.000353
1486	1.4776e+02	-19.1834	-55.177553	0.000871	8.713526	2.952222	-0.000349
1487	1.4786e+02	-19.2171	-55.544932	0.000922	9.220126	3.123863	-0.000369
1488	1.4796e+02	-19.2492	-55.904237	0.000902	9.017486	3.055207	-0.000361
1489	1.4806e+02	-19.3005	-56.239319	0.000841	8.409566	2.849238	-0.000337
1490	1.4816e+02	-19.3390	-56.566327	0.000821	8.206925	2.780582	-0.000329
1491	1.4825e+02	-19.3775	-56.945818	0.000952	9.524086	3.226848	-0.000381
1492	1.4835e+02	-19.4128	-57.333383	0.000973	9.726726	3.295504	-0.000390
1493	1.4845e+02	-19.4401	-57.688651	0.000892	8.916166	3.020879	-0.000357
1494	1.4855e+02	-19.4898	-58.088328	0.001003	10.030687	3.398489	-0.000402
1495	1.4865e+02	-19.5347	-58.463781	0.000942	9.422766	3.192520	-0.000377
1496	1.4875e+02	-19.5732	-58.875569	0.001033	10.334647	3.501473	-0.000414
1497	1.4885e+02	-19.6198	-59.295431	0.001054	10.537287	3.570129	-0.000422
1498	1.4895e+02	-19.6422	-59.666848	0.000932	9.321446	3.158191	-0.000373
1499	1.4905e+02	-19.6952	-60.038264	0.000932	9.321446	3.158191	-0.000373
1500	1.4915e+02	-19.7321	-60.446015	0.001023	10.233327	3.467145	-0.000410
1501	1.4925e+02	-19.7722	-60.821468	0.000942	9.422766	3.192520	-0.000377
1502	1.4935e+02	-19.8123	-61.277665	0.001145	11.449168	3.879083	-0.000458
1503	1.4945e+02	-19.8540	-61.681378	0.001013	10.132007	3.432817	-0.000406
1504	1.4955e+02	-19.8877	-62.129500	0.001125	11.246528	3.810427	-0.000450
1505	1.4965e+02	-19.9358	-62.513028	0.000963	9.625406	3.261176	-0.000385
1506	1.4975e+02	-19.9583	-62.973262	0.001155	11.550488	3.913411	-0.000463
1507	1.4985e+02	-20.0064	-63.397161	0.001064	10.638607	3.604458	-0.000426
1508	1.4995e+02	-19.9551	-63.639389	-0.000608	-6.079204	-2.059690	-0.000243
1509	1.5005e+02	-19.9230	-63.869506	-0.000578	-5.775244	-1.956706	-0.000231
1510	1.5015e+02	-19.8845	-64.047140	-0.000446	-4.458083	-1.510439	-0.000179
1511	1.5025e+02	-19.8492	-64.204588	-0.000395	-3.951483	-1.338799	-0.000158
1512	1.5034e+02	-19.8043	-64.341851	-0.000344	-3.444882	-1.167158	-0.000138
1513	1.5044e+02	-19.7706	-64.418556	-0.000193	-1.925081	-0.652235	-0.000077
1514	1.5054e+02	-19.7256	-64.531596	-0.000284	-2.836962	-0.961189	-0.000114
1515	1.5064e+02	-19.6855	-64.624450	-0.000233	-2.330362	-0.789548	-0.000093
1516	1.5074e+02	-19.6502	-64.721342	-0.000243	-2.431682	-0.823876	-0.000097
1517	1.5084e+02	-19.6150	-64.769787	-0.000122	-1.215841	-0.411938	-0.000049
1518	1.5094e+02	-19.5700	-64.858604	-0.000223	-2.229041	-0.755220	-0.000089
1519	1.5104e+02	-19.5380	-64.846493	0.000030	0.303960	0.102985	0.000012
1520	1.5114e+02	-19.4898	-64.907050	-0.000152	-1.519801	-0.514923	-0.000061
1521	1.5124e+02	-19.4545	-64.894938	0.000030	0.303960	0.102985	0.000012
1522	1.5134e+02	-19.4160	-64.939347	-0.000111	-1.114521	-0.377610	-0.000045
1523	1.5144e+02	-19.3679	-64.947421	-0.000020	-0.202640	-0.068656	-0.000008
1524	1.5154e+02	-19.3326	-64.951458	-0.000010	-0.101320	-0.034328	-0.000004
1525	1.5164e+02	-19.2957	-64.995867	-0.000111	-1.114521	-0.377610	-0.000045
1526	1.5174e+02	-19.2620	-64.979718	0.000041	0.405280	0.137313	0.000016
1527	1.5184e+02	-19.2139	-64.959533	0.000051	0.506600	0.171641	0.000020
1528	1.5194e+02	-19.1738	-64.959533	0.000000	0.000000	0.000000	0.000000
1529	1.5204e+02	-19.1385	-64.898976	0.000152	1.519801	0.514923	0.000061
1530	1.5214e+02	-19.0968	-64.903013	-0.000010	-0.101320	-0.034328	-0.000004
1531	1.5224e+02	-19.0567	-64.846493	0.000142	1.418481	0.480594	0.000057
1532	1.5233e+02	-19.0134	-64.842456	0.000010	0.101320	0.034328	0.000004
1533	1.5243e+02	-18.9797	-64.842456	0.000000	0.000000	0.000000	0.000000
1534	1.5253e+02	-18.9316	-64.789973	0.000132	1.317161	0.446266	0.000053
1535	1.5263e+02	-18.8930	-64.769787	0.000051	0.506600	0.171641	0.000020
1536	1.5273e+02	-18.8497	-64.701156	0.000172	1.722441	0.583579	0.000069
1537	1.5283e+02	-18.8160	-64.632525	0.000172	1.722441	0.583579	0.000069
1538	1.5293e+02	-18.7631	-64.640599	-0.000020	-0.202640	-0.068656	-0.000008
1539	1.5303e+02	-18.7230	-64.580042	0.000152	1.519801	0.514923	0.000061
1540	1.5313e+02	-18.6941	-64.523522	0.000142	1.418481	0.480594	0.000057
1541	1.5323e+02	-18.6572	-64.499299	0.000061	0.607920	0.205969	0.000024
1542	1.5333e+02	-18.6203	-64.487188	0.000030	0.303960	0.102985	0.000012
1543	1.5343e+02	-18.5754	-64.402408	0.000213	2.127721	0.720892	0.000085
1544	1.5353e+02	-18.5401	-64.321665	0.000203	2.026401	0.686563	0.000081
1545	1.5363e+02	-18.4920	-64.269182	0.000132	1.317161	0.446266	0.000053
1546	1.5373e+02	-18.4551	-64.261108	0.000020	0.202640	0.068656	0.000008
1547	1.5383e+02	-18.4166	-64.172291	0.000223	2.229041	0.755220	0.000089
1548	1.5393e+02	-18.3813	-64.139994	0.000081	0.810561	0.274625	0.000032
1549	1.5403e+02	-18.3364	-64.099623	0.000101	1.013201	0.343282	0.000041
1550	1.5413e+02	-18.3043	-64.030991	0.000172	1.722441	0.583579	0.000069
1551	1.5422e+02	-18.2578	-63.934100	0.000243	2.431682	0.823876	0.000097
1552	1.5432e+02	-18.2193	-63.901803	0.000081	0.810561	0.274625	0.000032
1553	1.5442e+02	-18.1776	-63.849320	0.000132	1.317161	0.446266	0.000053
1554	1.5452e+02	-18.1262	-63.752429	0.000243	2.431682	0.823876	0.000097
1555	1.5462e+02	-18.1006	-63.724169	0.000071	0.709240	0.240297	0.000028
1556	1.5472e+02	-18.0540	-63.635352	0.000223	2.229041	0.755220	0.000089
1557	1.5482e+02	-18.0268	-63.578832	0.000142	1.418481	0.480594	0.000057
1558	1.5492e+02	-17.9834	-63.542498	0.000091	0.911881	0.308954	0.000037
1559	1.5502e+02	-17.9321	-63.461755	0.000203	2.026401	0.686563	0.000081
1560	1.5512e+02	-17.9000	-63.368901	0.000233	2.330362	0.789548	0.000093
1561	1.5522e+02	-17.8631	-63.352753	0.000041	0.405280	0.137313	0.000016
1562	1.5532e+02	-17.8182	-63.223564	0.000324	3.242242	1.098501	0.000130
1563	1.5542e+02	-17.7813	-63.199341	0.000061	0.607920	0.205969	0.000024
1564	1.5552e+02	-17.7300	-63.130710	0.000172	1.722441	0.583579	0.000069
1565	1.5562e+02	-17.7011	-63.066116	0.000162	1.621121	0.549251	0.000065
1566	1.5572e+02	-17.6610	-62.973262	0.000233	2.330362	0.789548	0.000093
1567	1.5582e+02	-17.6289	-62.932890	0.000101	1.013201	0.343282	0.000041
1568	1.5592e+02	-17.5776	-62.831962	0.000253	2.533002	0.858204	0.000101
1569	1.5602e+02	-17.5359	-62.755256	0.000193	1.925081	0.652235	0.000077
1570	1.5612e+02	-17.5070	-62.702774	0.000132	1.317161	0.446266	0.000053
1571	1.5622e+02	-17.4492	-62.613957	0.000223	2.229041	0.755220	0.000089
1572	1.5631e+02	-17.4252	-62.561474	0.000132	1.317161	0.446266	0.000053
1573	1.5641e+02	-17.3803	-62.500917	0.000152	1.519801	0.514923	0.000061
1574	1.5651e+02	-17.3321	-62.432286	0.000172	1.722441	0.583579	0.000069
1575	1.5661e+02	-17.3000	-62.351543	0.000203	2.026401	0.686563	0.000081
1576	1.5671e+02	-17.2599	-62.242540	0.000274	2.735642	0.926861	0.000110
1577	1.5681e+02	-17.2134	-62.198132	0.000111	1.114521	0.377610	0.000045
1578	1.5691e+02	-17.1749	-62.068943	0.000324	3.242242	1.098501	0.000130
1579	1.5701e+02	-17.1364	-62.048758	0.000051	0.506600	0.171641	0.000020
1580	1.5711e+02	-17.0979	-61.923607	0.000314	3.140922	1.064173	0.000126
1581	1.5721e+02	-17.0562	-61.887272	0.000091	0.911881	0.308954	0.000037
1582	1.5731e+02	-17.0289	-61.814604	0.000182	1.823761	0.617907	0.000073
1583	1.5741e+02	-16.9856	-61.741935	0.000182	1.823761	0.617907	0.000073
1584	1.5751e+02	-16.9407	-61.641007	0.000253	2.533002	0.858204	0.000101
1585	1.5761e+02	-16.9086	-61.596599	0.000111	1.114521	0.377610	0.000045
1586	1.5771e+02	-16.8621	-61.515856	0.000203	2.026401	0.686563	0.000081
1587	1.5781e+02	-16.8364	-61.418965	0.000243	2.431682	0.823876	0.000097
1588	1.5791e+02	-16.7771	-61.342259	0.000193	1.925081	0.652235	0.000077
1589	1.5801e+02	-16.7434	-61.277665	0.000162	1.621121	0.549251	0.000065
1590	1.5811e+02	-16.6953	-61.225182	0.000132	1.317161	0.446266	0.000053
1591	1.5821e+02	-16.6535	-61.075808	0.000375	3.748843	1.270142	0.000150
1592	1.5830e+02	-16.6231	-61.015251	0.000152	1.519801	0.514923	0.000061
1593	1.5840e+02	-16.5830	-60.962768	0.000132	1.317161	0.446266	0.000053
1594	1.5850e+02	-16.5428	-60.861840	0.000253	2.533002	0.858204	0.000101
1595	1.5860e+02	-16.5076	-60.777060	0.000213	2.127721	0.720892	0.000085
1596	1.5870e+02	-16.4626	-60.768986	0.000020	0.202640	0.068656	0.000008
1597	1.5880e+02	-16.4209	-60.672094	0.000243	2.431682	0.823876	0.000097
1598	1.5890e+02	-16.3937	-60.542906	0.000324	3.242242	1.098501	0.000130
1599	1.5900e+02	-16.3423	-60.494460	0.000122	1.215841	0.411938	0.000049
1600	1.5910e+02	-16.3070	-60.393532	0.000253	2.533002	0.858204	0.000101
1601	1.5920e+02	-16.2653	-60.349124	0.000111	1.114521	0.377610	0.000045
1602	1.5930e+02	-16.2252	-60.236084	0.000284	2.836962	0.961189	0.000114
1603	1.5940e+02	-16.1867	-60.167452	0.000172	1.722441	0.583579	0.000069
1604	1.5950e+02	-16.1498	-60.090747	0.000193	1.925081	0.652235	0.000077
1605	1.5960e+02	-16.1017	-60.042301	0.000122	1.215841	0.411938	0.000049
1606	1.5970e+02	-16.0664	-59.917150	0.000314	3.140922	1.064173	0.000126
1607	1.5980e+02	-16.0247	-59.856593	0.000152	1.519801	0.514923	0.000061
1608	1.5990e+02	-15.9782	-59.800073	0.000142	1.418481	0.480594	0.000057
1609	1.6000e+02	-15.9477	-59.699145	0.000253	2.533002	0.858204	0.000101
1610	1.6010e+02	-15.9108	-59.634551	0.000162	1.621121	0.549251	0.000065
1611	1.6019e+02	-15.8594	-59.537659	0.000243	2.431682	0.823876	0.000097
1612	1.6029e+02	-15.8274	-59.501325	0.000091	0.911881	0.308954	0.000037
1613	1.6039e+02	-15.7840	-59.396360	0.000263	2.634322	0.892532	0.000105
1614	1.6049e+02	-15.7488	-59.295431	0.000253	2.533002	0.858204	0.000101
1615	1.6059e+02	-15.7006	-59.202577	0.000233	2.330362	0.789548	0.000093
1616	1.6069e+02	-15.6605	-59.137983	0.000162	1.621121	0.549251	0.000065
1617	1.6079e+02	-15.6220	-59.101649	0.000091	0.911881	0.308954	0.000037
1618	1.6089e+02	-15.5867	-58.980535	0.000304	3.039602	1.029845	0.000122
1619	1.6099e+02	-15.5482	-58.899792	0.000203	2.026401	0.686563	0.000081
1620	1.6109e+02	-15.5001	-58.859420	0.000101	1.013201	0.343282	0.000041
1621	1.6119e+02	-15.4616	-58.754455	0.000263	2.634322	0.892532	0.000105
1622	1.6129e+02	-15.4311	-58.649489	0.000263	2.634322	0.892532	0.000105
1623	1.6139e+02	-15.3926	-58.625267	0.000061	0.607920	0.205969	0.000024
1624	1.6149e+02	-15.3509	-58.483967	0.000355	3.546202	1.201486	0.000142
1625	1.6159e+02	-15.3044	-58.451670	0.000081	0.810561	0.274625	0.000032
1626	1.6169e+02	-15.2659	-58.302296	0.000375	3.748843	1.270142	0.000150
1627	1.6179e+02	-15.2338	-58.261924	0.000101	1.013201	0.343282	0.000041
1628	1.6189e+02	-15.1937	-58.148885	0.000284	2.836962	0.961189	0.000114
1629	1.6199e+02	-15.1472	-58.108513	0.000101	1.013201	0.343282	0.000041
1630	1.6209e+02	-15.1022	-57.967213	0.000355	3.546202	1.201486	0.000142
1631	1.6219e+02	-15.0686	-57.906656	0.000152	1.519801	0.514923	0.000061
1632	1.6228e+02	-15.0301	-57.817839	0.000223	2.229041	0.755220	0.000089
1633	1.6238e+02	-14.9900	-57.793617	0.000061	0.607920	0.205969	0.000024
1634	1.6248e+02	-14.9466	-57.615983	0.000446	4.458083	1.510439	0.000179
1635	1.6258e+02	-14.9097	-57.563500	0.000132	1.317161	0.446266	0.000053
1636	1.6268e+02	-14.8696	-57.498906	0.000162	1.621121	0.549251	0.000065
1637	1.6278e+02	-14.8311	-57.389903	0.000274	2.735642	0.926861	0.000110
1638	1.6288e+02	-14.7862	-57.337420	0.000132	1.317161	0.446266	0.000053
1639	1.6298e+02	-14.7509	-57.236492	0.000253	2.533002	0.858204	0.000101
1640	1.6308e+02	-14.7108	-57.155749	0.000203	2.026401	0.686563	0.000081
1641	1.6318e+02	-14.6723	-57.099229	0.000142	1.418481	0.480594	0.000057
1642	1.6328e+02	-14.6402	-56.994264	0.000263	2.634322	0.892532	0.000105
1643	1.6338e+02	-14.5841	-56.877187	0.000294	2.938282	0.995517	0.000118
1644	1.6348e+02	-14.5520	-56.804518	0.000182	1.823761	0.617907	0.000073
1645	1.6358e+02	-14.5055	-56.735887	0.000172	1.722441	0.583579	0.000069
1646	1.6368e+02	-14.4782	-56.667256	0.000172	1.722441	0.583579	0.000069
1647	1.6378e+02	-14.4221	-56.554216	0.000284	2.836962	0.961189	0.000114
1648	1.6388e+02	-14.3868	-56.461362	0.000233	2.330362	0.789548	0.000093
1649	1.6398e+02	-14.3499	-56.412916	0.000122	1.215841	0.411938	0.000049
1650	1.6408e+02	-14.3049	-56.295839	0.000294	2.938282	0.995517	0.000118
1651	1.6418e+02	-14.2664	-56.207022	0.000223	2.229041	0.755220	0.000089
1652	1.6427e+02	-14.2344	-56.162614	0.000111	1.114521	0.377610	0.000045
1653	1.6437e+02	-14.1943	-56.041500	0.000304	3.039602	1.029845	0.000122
1654	1.6447e+02	-14.1574	-55.984980	0.000142	1.418481	0.480594	0.000057
1655	1.6457e+02	-14.1108	-55.875977	0.000274	2.735642	0.926861	0.000110
1656	1.6467e+02	-14.0675	-55.815420	0.000152	1.519801	0.514923	0.000061
1657	1.6477e+02	-14.0386	-55.710455	0.000263	2.634322	0.892532	0.000105
1658	1.6487e+02	-13.9905	-55.629712	0.000203	2.026401	0.686563	0.000081
1659	1.6497e+02	-13.9488	-55.565118	0.000162	1.621121	0.549251	0.000065
1660	1.6507e+02	-13.9135	-55.492449	0.000182	1.823761	0.617907	0.000073
1661	1.6517e+02	-13.8702	-55.363261	0.000324	3.242242	1.098501	0.000130
1662	1.6527e+02	-13.8301	-55.270407	0.000233	2.330362	0.789548	0.000093
1663	1.6537e+02	-13.7868	-55.169478	0.000253	2.533002	0.858204	0.000101
1664	1.6547e+02	-13.7531	-55.096810	0.000182	1.823761	0.617907	0.000073
1665	1.6557e+02	-13.7146	-55.044327	0.000132	1.317161	0.446266	0.000053
1666	1.6567e+02	-13.6616	-54.915139	0.000324	3.242242	1.098501	0.000130
1667	1.6577e+02	-13.6247	-54.886879	0.000071	0.709240	0.240297	0.000028
1668	1.6587e+02	-13.5991	-54.789988	0.000243	2.431682	0.823876	0.000097
1669	1.6597e+02	-13.5558	-54.701171	0.000223	2.229041	0.755220	0.000089
1670	1.6607e+02	-13.5028	-54.628502	0.000182	1.823761	0.617907	0.000073
1671	1.6616e+02	-13.4804	-54.531611	0.000243	2.431682	0.823876	0.000097
1672	1.6626e+02	-13.4354	-54.398386	0.000334	3.343562	1.132830	0.000134
1673	1.6636e+02	-13.3937	-54.353977	0.000111	1.114521	0.377610	0.000045
1674	1.6646e+02	-13.3456	-54.257086	0.000243	2.431682	0.823876	0.000097
1675	1.6656e+02	-13.3119	-54.164232	0.000233	2.330362	0.789548	0.000093
1676	1.6666e+02	-13.2718	-54.075415	0.000223	2.229041	0.755220	0.000089
1677	1.6676e+02	-13.2285	-54.018895	0.000142	1.418481	0.480594	0.000057
1678	1.6686e+02	-13.1884	-53.934115	0.000213	2.127721	0.720892	0.000085
1679	1.6696e+02	-13.1515	-53.841261	0.000233	2.330362	0.789548	0.000093
1680	1.6706e+02	-13.1210	-53.764555	0.000193	1.925081	0.652235	0.000077
1681	1.6716e+02	-13.0729	-53.627293	0.000344	3.444882	1.167158	0.000138
1682	1.6726e+02	-13.0344	-53.550587	0.000193	1.925081	0.652235	0.000077
1683	1.6736e+02	-12.9959	-53.457733	0.000233	2.330362	0.789548	0.000093
1684	1.6746e+02	-12.9558	-53.372953	0.000213	2.127721	0.720892	0.000085
1685	1.6756e+02	-12.9157	-53.288173	0.000213	2.127721	0.720892	0.000085
1686	1.6766e+02	-12.8724	-53.223579	0.000162	1.621121	0.549251	0.000065
1687	1.6776e+02	-12.8435	-53.098428	0.000314	3.140922	1.064173	0.000126
1688	1.6786e+02	-12.8002	-53.021722	0.000193	1.925081	0.652235	0.000077
1689	1.6796e+02	-12.7601	-52.961165	0.000152	1.519801	0.514923	0.000061
1690	1.6806e+02	-12.7119	-52.876385	0.000213	2.127721	0.720892	0.000085
1691	1.6816e+02	-12.6750	-52.787568	0.000223	2.229041	0.755220	0.000089
1692	1.6825e+02	-12.6430	-52.670491	0.000294	2.938282	0.995517	0.000118
1693	1.6835e+02	-12.6077	-52.537266	0.000334	3.343562	1.132830	0.000134
1694	1.6845e+02	-12.5547	-52.452486	0.000213	2.127721	0.720892	0.000085
1695	1.6855e+02	-12.5194	-52.387892	0.000162	1.621121	0.549251	0.000065
1696	1.6865e+02	-12.4777	-52.278889	0.000274	2.735642	0.926861	0.000110
1697	1.6875e+02	-12.4408	-52.210258	0.000172	1.722441	0.583579	0.000069
1698	1.6885e+02	-12.3927	-52.101255	0.000274	2.735642	0.926861	0.000110
1699	1.6895e+02	-12.3606	-52.008401	0.000233	2.330362	0.789548	0.000093
1700	1.6905e+02	-12.3237	-51.907473	0.000253	2.533002	0.858204	0.000101
1701	1.6915e+02	-12.2836	-51.854990	0.000132	1.317161	0.446266	0.000053
1702	1.6925e+02	-12.2323	-51.754062	0.000253	2.533002	0.858204	0.000101
1703	1.6935e+02	-12.2002	-51.669282	0.000213	2.127721	0.720892	0.000085
1704	1.6945e+02	-12.1537	-51.552205	0.000294	2.938282	0.995517	0.000118
1705	1.6955e+02	-12.1248	-51.451276	0.000253	2.533002	0.858204	0.000101
1706	1.6965e+02	-12.0847	-51.390719	0.000152	1.519801	0.514923	0.000061
1707	1.6975e+02	-12.0414	-51.334199	0.000142	1.418481	0.480594	0.000057
1708	1.6985e+02	-11.9997	-51.160603	0.000436	4.356763	1.476111	0.000174
1709	1.6995e+02	-11.9644	-51.104083	0.000142	1.418481	0.480594	0.000057
1710	1.7005e+02	-11.9211	-51.003154	0.000253	2.533002	0.858204	0.000101
1711	1.7015e+02	-11.8874	-50.910300	0.000233	2.330362	0.789548	0.000093
1712	1.7024e+02	-11.8424	-50.841669	0.000172	1.722441	0.583579	0.000069
1713	1.7034e+02	-11.7927	-50.752852	0.000223	2.229041	0.755220	0.000089
1714	1.7044e+02	-11.7638	-50.615589	0.000344	3.444882	1.167158	0.000138
1715	1.7054e+02	-11.7237	-50.571181	0.000111	1.114521	0.377610	0.000045
1716	1.7064e+02	-11.6692	-50.482364	0.000223	2.229041	0.755220	0.000089
1717	1.7074e+02	-11.6435	-50.417770	0.000162	1.621121	0.549251	0.000065
1718	1.7084e+02	-11.6034	-50.292618	0.000314	3.140922	1.064173	0.000126
1719	1.7094e+02	-11.5617	-50.187653	0.000263	2.634322	0.892532	0.000105
1720	1.7104e+02	-11.5328	-50.114984	0.000182	1.823761	0.617907	0.000073
1721	1.7114e+02	-11.4847	-50.001945	0.000284	2.836962	0.961189	0.000114
1722	1.7124e+02	-11.4414	-49.937351	0.000162	1.621121	0.549251	0.000065
1723	1.7134e+02	-11.4045	-49.820274	0.000294	2.938282	0.995517	0.000118
1724	1.7144e+02	-11.3676	-49.715308	0.000263	2.634322	0.892532	0.000105
1725	1.7154e+02	-11.3195	-49.638602	0.000193	1.925081	0.652235	0.000077
1726	1.7164e+02	-11.2794	-49.521526	0.000294	2.938282	0.995517	0.000118
1727	1.7174e+02	-11.2409	-49.448857	0.000182	1.823761	0.617907	0.000073
1728	1.7184e+02	-11.2152	-49.331780	0.000294	2.938282	0.995517	0.000118
1729	1.7194e+02	-11.1671	-49.267186	0.000162	1.621121	0.549251	0.000065
1730	1.7204e+02	-11.1238	-49.142035	0.000314	3.140922	1.064173	0.000126
1731	1.7213e+02	-11.0885	-49.024958	0.000294	2.938282	0.995517	0.000118
1732	1.7223e+02	-11.0403	-48.996698	0.000071	0.709240	0.240297	0.000028
1733	1.7233e+02	-11.0034	-48.851361	0.000365	3.647522	1.235814	0.000146
1734	1.7243e+02	-10.9633	-48.766581	0.000213	2.127721	0.720892	0.000085
1735	1.7253e+02	-10.9296	-48.665653	0.000253	2.533002	0.858204	0.000101
1736	1.7263e+02	-10.8783	-48.548576	0.000294	2.938282	0.995517	0.000118
1737	1.7273e+02	-10.8478	-48.475907	0.000182	1.823761	0.617907	0.000073
1738	1.7283e+02	-10.8077	-48.395165	0.000203	2.026401	0.686563	0.000081
1739	1.7293e+02	-10.7788	-48.278088	0.000294	2.938282	0.995517	0.000118
1740	1.7303e+02	-10.7275	-48.161011	0.000294	2.938282	0.995517	0.000118
1741	1.7313e+02	-10.6890	-48.047971	0.000284	2.836962	0.961189	0.000114
1742	1.7323e+02	-10.6553	-47.975303	0.000182	1.823761	0.617907	0.000073
1743	1.7333e+02	-10.6168	-47.874374	0.000253	2.533002	0.858204	0.000101
1744	1.7343e+02	-10.5607	-47.769409	0.000263	2.634322	0.892532	0.000105
1745	1.7353e+02	-10.5190	-47.668480	0.000253	2.533002	0.858204	0.000101
1746	1.7363e+02	-10.4853	-47.583700	0.000213	2.127721	0.720892	0.000085
1747	1.7373e+02	-10.4452	-47.446438	0.000344	3.444882	1.167158	0.000138
1748	1.7383e+02	-10.4099	-47.381844	0.000162	1.621121	0.549251	0.000065
1749	1.7393e+02	-10.3649	-47.256692	0.000314	3.140922	1.064173	0.000126
1750	1.7403e+02	-10.3216	-47.147690	0.000274	2.735642	0.926861	0.000110
1751	1.7413e+02	-10.2847	-47.083096	0.000162	1.621121	0.549251	0.000065
1752	1.7422e+02	-10.2446	-46.994279	0.000223	2.229041	0.755220	0.000089
1753	1.7432e+02	-10.2093	-46.905462	0.000223	2.229041	0.755220	0.000089
1754	1.7442e+02	-10.1676	-46.792422	0.000284	2.836962	0.961189	0.000114
1755	1.7452e+02	-10.1291	-46.703605	0.000223	2.229041	0.755220	0.000089
1756	1.7462e+02	-10.0938	-46.590565	0.000284	2.836962	0.961189	0.000114
1757	1.7472e+02	-10.0425	-46.457340	0.000334	3.343562	1.132830	0.000134
1758	1.7482e+02	-10.0072	-46.384671	0.000182	1.823761	0.617907	0.000073
1759	1.7492e+02	-9.9623	-46.275668	0.000274	2.735642	0.926861	0.000110
1760	1.7502e+02	-9.9270	-46.166666	0.000274	2.735642	0.926861	0.000110
1761	1.7512e+02	-9.8917	-46.065737	0.000253	2.533002	0.858204	0.000101
1762	1.7522e+02	-9.8436	-46.009217	0.000142	1.418481	0.480594	0.000057
1763	1.7532e+02	-9.8099	-45.855806	0.000385	3.850163	1.304470	0.000154
1764	1.7542e+02	-9.7666	-45.791212	0.000162	1.621121	0.549251	0.000065
1765	1.7552e+02	-9.7265	-45.666061	0.000314	3.140922	1.064173	0.000126
1766	1.7562e+02	-9.6928	-45.605504	0.000152	1.519801	0.514923	0.000061
1767	1.7572e+02	-9.6559	-45.435944	0.000426	4.255443	1.441783	0.000170
1768	1.7582e+02	-9.6013	-45.395573	0.000101	1.013201	0.343282	0.000041
1769	1.7592e+02	-9.5692	-45.250236	0.000365	3.647522	1.235814	0.000146
1770	1.7602e+02	-9.5420	-45.193716	0.000142	1.418481	0.480594	0.000057
1771	1.7612e+02	-9.4906	-45.104899	0.000223	2.229041	0.755220	0.000089
1772	1.7621e+02	-9.4505	-44.967636	0.000344	3.444882	1.167158	0.000138
1773	1.7631e+02	-9.4120	-44.874782	0.000233	2.330362	0.789548	0.000093
1774	1.7641e+02	-9.3703	-44.777891	0.000243	2.431682	0.823876	0.000097
1775	1.7651e+02	-9.3318	-44.697148	0.000203	2.026401	0.686563	0.000081
1776	1.7661e+02	-9.2885	-44.555849	0.000355	3.546202	1.201486	0.000142
1777	1.7671e+02	-9.2548	-44.450883	0.000263	2.634322	0.892532	0.000105
1778	1.7681e+02	-9.2115	-44.345918	0.000263	2.634322	0.892532	0.000105
1779	1.7691e+02	-9.1746	-44.244989	0.000253	2.533002	0.858204	0.000101
1780	1.7701e+02	-9.1297	-44.103689	0.000355	3.546202	1.201486	0.000142
1781	1.7711e+02	-9.0944	-44.035058	0.000172	1.722441	0.583579	0.000069
1782	1.7721e+02	-9.0527	-43.942204	0.000233	2.330362	0.789548	0.000093
1783	1.7731e+02	-9.0030	-43.829164	0.000284	2.836962	0.961189	0.000114
1784	1.7741e+02	-8.9757	-43.728236	0.000253	2.533002	0.858204	0.000101
1785	1.7751e+02	-8.9243	-43.651530	0.000193	1.925081	0.652235	0.000077
1786	1.7761e+02	-8.8907	-43.534453	0.000294	2.938282	0.995517	0.000118
1787	1.7771e+02	-8.8554	-43.469859	0.000162	1.621121	0.549251	0.000065
1788	1.7781e+02	-8.8137	-43.336634	0.000334	3.343562	1.132830	0.000134
1789	1.7791e+02	-8.7703	-43.183222	0.000385	3.850163	1.304470	0.000154
1790	1.7801e+02	-8.7350	-43.130740	0.000132	1.317161	0.446266	0.000053
1791	1.7810e+02	-8.6917	-43.021737	0.000274	2.735642	0.926861	0.000110
1792	1.7820e+02	-8.6596	-42.961180	0.000152	1.519801	0.514923	0.000061
1793	1.7830e+02	-8.6131	-42.795657	0.000415	4.154123	1.407455	0.000166
1794	1.7840e+02	-8.5714	-42.686655	0.000274	2.735642	0.926861	0.000110
1795	1.7850e+02	-8.5297	-42.597838	0.000223	2.229041	0.755220	0.000089
1796	1.7860e+02	-8.4912	-42.472687	0.000314	3.140922	1.064173	0.000126
1797	1.7870e+02	-8.4559	-42.347535	0.000314	3.140922	1.064173	0.000126
1798	1.7880e+02	-8.4142	-42.295053	0.000132	1.317161	0.446266	0.000053
1799	1.7890e+02	-8.3709	-42.145679	0.000375	3.748843	1.270142	0.000150
1800	1.7900e+02	-8.3292	-42.068973	0.000193	1.925081	0.652235	0.000077
1801	1.7910e+02	-8.2971	-41.964007	0.000263	2.634322	0.892532	0.000105
1802	1.7920e+02	-8.2458	-41.863079	0.000253	2.533002	0.858204	0.000101
1803	1.7930e+02	-8.2201	-41.762151	0.000253	2.533002	0.858204	0.000101
1804	1.7940e+02	-8.1704	-41.624888	0.000344	3.444882	1.167158	0.000138
1805	1.7950e+02	-8.1238	-41.527997	0.000243	2.431682	0.823876	0.000097
1806	1.7960e+02	-8.0966	-41.451291	0.000193	1.925081	0.652235	0.000077
1807	1.7970e+02	-8.0581	-41.350363	0.000253	2.533002	0.858204	0.000101
1808	1.7980e+02	-8.0180	-41.200989	0.000375	3.748843	1.270142	0.000150
1809	1.7990e+02	-7.9714	-41.104098	0.000243	2.431682	0.823876	0.000097
1810	1.8000e+02	-7.9313	-40.974909	0.000324	3.242242	1.098501	0.000130
1811	1.8009e+02	-7.8944	-40.882055	0.000233	2.330362	0.789548	0.000093
1812	1.8019e+02	-7.8591	-40.793238	0.000223	2.229041	0.755220	0.000089
1813	1.8029e+02	-7.8142	-40.700384	0.000233	2.330362	0.789548	0.000093
1814	1.8039e+02	-7.7789	-40.591381	0.000274	2.735642	0.926861	0.000110
1815	1.8049e+02	-7.7292	-40.466230	0.000314	3.140922	1.064173	0.000126
1816	1.8059e+02	-7.6923	-40.353190	0.000284	2.836962	0.961189	0.000114
1817	1.8069e+02	-7.6554	-40.252262	0.000253	2.533002	0.858204	0.000101
1818	1.8079e+02	-7.6153	-40.167482	0.000213	2.127721	0.720892	0.000085
1819	1.8089e+02	-7.5784	-40.054442	0.000284	2.836962	0.961189	0.000114
1820	1.8099e+02	-7.5463	-39.921217	0.000334	3.343562	1.132830	0.000134
1821	1.8109e+02	-7.4966	-39.876808	0.000111	1.114521	0.377610	0.000045
1822	1.8119e+02	-7.4597	-39.731471	0.000365	3.647522	1.235814	0.000146
1823	1.8129e+02	-7.4132	-39.626506	0.000263	2.634322	0.892532	0.000105
1824	1.8139e+02	-7.3682	-39.549800	0.000193	1.925081	0.652235	0.000077
1825	1.8149e+02	-7.3362	-39.440798	0.000274	2.735642	0.926861	0.000110
1826	1.8159e+02	-7.2977	-39.303535	0.000344	3.444882	1.167158	0.000138
1827	1.8169e+02	-7.2640	-39.198569	0.000263	2.634322	0.892532	0.000105
1828	1.8179e+02	-7.2110	-39.089567	0.000274	2.735642	0.926861	0.000110
1829	1.8189e+02	-7.1805	-38.968453	0.000304	3.039602	1.029845	0.000122
1830	1.8199e+02	-7.1356	-38.871561	0.000243	2.431682	0.823876	0.000097
1831	1.8209e+02	-7.1019	-38.762559	0.000274	2.735642	0.926861	0.000110
1832	1.8218e+02	-7.0522	-38.714113	0.000122	1.215841	0.411938	0.000049
1833	1.8228e+02	-7.0201	-38.548591	0.000415	4.154123	1.407455	0.000166
1834	1.8238e+02	-6.9752	-38.447662	0.000253	2.533002	0.858204	0.000101
1835	1.8248e+02	-6.9351	-38.326548	0.000304	3.039602	1.029845	0.000122
1836	1.8258e+02	-6.8998	-38.245805	0.000203	2.026401	0.686563	0.000081
1837	1.8268e+02	-6.8565	-38.108543	0.000344	3.444882	1.167158	0.000138
1838	1.8278e+02	-6.8100	-38.031837	0.000193	1.925081	0.652235	0.000077
1839	1.8288e+02	-6.7811	-37.910723	0.000304	3.039602	1.029845	0.000122
1840	1.8298e+02	-6.7346	-37.789609	0.000304	3.039602	1.029845	0.000122
1841	1.8308e+02	-6.6993	-37.712903	0.000193	1.925081	0.652235	0.000077
1842	1.8318e+02	-6.6624	-37.571604	0.000355	3.546202	1.201486	0.000142
1843	1.8328e+02	-6.6271	-37.486824	0.000213	2.127721	0.720892	0.000085
1844	1.8338e+02	-6.5758	-37.369747	0.000294	2.938282	0.995517	0.000118
1845	1.8348e+02	-6.5421	-37.252670	0.000294	2.938282	0.995517	0.000118
1846	1.8358e+02	-6.4971	-37.131556	0.000304	3.039602	1.029845	0.000122
1847	1.8368e+02	-6.4635	-37.010442	0.000304	3.039602	1.029845	0.000122
1848	1.8378e+02	-6.4185	-36.893365	0.000294	2.938282	0.995517	0.000118
1849	1.8388e+02	-6.3913	-36.808585	0.000213	2.127721	0.720892	0.000085
1850	1.8398e+02	-6.3447	-36.683434	0.000314	3.140922	1.064173	0.000126
1851	1.8407e+02	-6.3030	-36.582505	0.000253	2.533002	0.858204	0.000101
1852	1.8417e+02	-6.2661	-36.469466	0.000284	2.836962	0.961189	0.000114
1853	1.8427e+02	-6.2276	-36.356426	0.000284	2.836962	0.961189	0.000114
1854	1.8437e+02	-6.1827	-36.267609	0.000223	2.229041	0.755220	0.000089
1855	1.8447e+02	-6.1426	-36.154569	0.000284	2.836962	0.961189	0.000114
1856	1.8457e+02	-6.1041	-36.029418	0.000314	3.140922	1.064173	0.000126
1857	1.8467e+02	-6.0640	-35.964824	0.000162	1.621121	0.549251	0.000065
1858	1.8477e+02	-6.0271	-35.771041	0.000486	4.863363	1.647752	0.000195
1859	1.8487e+02	-5.9790	-35.662039	0.000274	2.735642	0.926861	0.000110
1860	1.8497e+02	-5.9501	-35.565147	0.000243	2.431682	0.823876	0.000097
1861	1.8507e+02	-5.9164	-35.444033	0.000304	3.039602	1.029845	0.000122
1862	1.8517e+02	-5.8667	-35.347142	0.000243	2.431682	0.823876	0.000097
1863	1.8527e+02	-5.8282	-35.209879	0.000344	3.444882	1.167158	0.000138
1864	1.8537e+02	-5.7913	-35.112988	0.000243	2.431682	0.823876	0.000097
1865	1.8547e+02	-5.7496	-35.016097	0.000243	2.431682	0.823876	0.000097
1866	1.8557e+02	-5.7014	-34.882871	0.000334	3.343562	1.132830	0.000134
1867	1.8567e+02	-5.6645	-34.753683	0.000324	3.242242	1.098501	0.000130
1868	1.8577e+02	-5.6244	-34.608346	0.000365	3.647522	1.235814	0.000146
1869	1.8587e+02	-5.5908	-34.543752	0.000162	1.621121	0.549251	0.000065
1870	1.8597e+02	-5.5442	-34.479158	0.000162	1.621121	0.549251	0.000065
1871	1.8606e+02	-5.5121	-34.341895	0.000344	3.444882	1.167158	0.000138
1872	1.8616e+02	-5.4624	-34.180410	0.000405	4.052803	1.373127	0.000162
1873	1.8626e+02	-5.4351	-34.071407	0.000274	2.735642	0.926861	0.000110
1874	1.8636e+02	-5.3902	-33.978553	0.000233	2.330362	0.789548	0.000093
1875	1.8646e+02	-5.3453	-33.817068	0.000405	4.052803	1.373127	0.000162
1876	1.8656e+02	-5.2988	-33.708065	0.000274	2.735642	0.926861	0.000110
1877	1.8666e+02	-5.2699	-33.627322	0.000203	2.026401	0.686563	0.000081
1878	1.8676e+02	-5.2218	-33.538505	0.000223	2.229041	0.755220	0.000089
1879	1.8686e+02	-5.1929	-33.409317	0.000324	3.242242	1.098501	0.000130
1880	1.8696e+02	-5.1432	-33.243794	0.000415	4.154123	1.407455	0.000166
1881	1.8706e+02	-5.1111	-33.199386	0.000111	1.114521	0.377610	0.000045
1882	1.8716e+02	-5.0614	-33.037900	0.000405	4.052803	1.373127	0.000162
1883	1.8726e+02	-5.0341	-32.957158	0.000203	2.026401	0.686563	0.000081
1884	1.8736e+02	-4.9860	-32.799709	0.000395	3.951483	1.338799	0.000158
1885	1.8746e+02	-4.9458	-32.718967	0.000203	2.026401	0.686563	0.000081
1886	1.8756e+02	-4.9057	-32.557481	0.000405	4.052803	1.373127	0.000162
1887	1.8766e+02	-4.8705	-32.460590	0.000243	2.431682	0.823876	0.000097
1888	1.8776e+02	-4.8336	-32.355624	0.000263	2.634322	0.892532	0.000105
1889	1.8786e+02	-4.7838	-32.186065	0.000426	4.255443	1.441783	0.000170
1890	1.8796e+02	-4.7437	-32.145693	0.000101	1.013201	0.343282	0.000041
1891	1.8806e+02	-4.6988	-31.964022	0.000456	4.559403	1.544768	0.000183
1892	1.8815e+02	-4.6747	-31.863094	0.000253	2.533002	0.858204	0.000101
1893	1.8825e+02	-4.6378	-31.754091	0.000274	2.735642	0.926861	0.000110
1894	1.8835e+02	-4.5929	-31.641051	0.000284	2.836962	0.961189	0.000114
1895	1.8845e+02	-4.5496	-31.540123	0.000253	2.533002	0.858204	0.000101
1896	1.8855e+02	-4.5111	-31.414972	0.000314	3.140922	1.064173	0.000126
1897	1.8865e+02	-4.4630	-31.289821	0.000314	3.140922	1.064173	0.000126
1898	1.8875e+02	-4.4277	-31.124298	0.000415	4.154123	1.407455	0.000166
1899	1.8885e+02	-4.4004	-31.047592	0.000193	1.925081	0.652235	0.000077
1900	1.8895e+02	-4.3459	-30.861884	0.000466	4.660723	1.579096	0.000187
1901	1.8905e+02	-4.3138	-30.805364	0.000142	1.418481	0.480594	0.000057
1902	1.8915e+02	-4.2753	-30.664064	0.000355	3.546202	1.201486	0.000142
1903	1.8925e+02	-4.2320	-30.534876	0.000324	3.242242	1.098501	0.000130
1904	1.8935e+02	-4.1903	-30.421836	0.000284	2.836962	0.961189	0.000114
1905	1.8945e+02	-4.1502	-30.300722	0.000304	3.039602	1.029845	0.000122
1906	1.8955e+02	-4.1149	-30.151348	0.000375	3.748843	1.270142	0.000150
1907	1.8965e+02	-4.0651	-30.050420	0.000253	2.533002	0.858204	0.000101
1908	1.8975e+02	-4.0314	-29.884897	0.000415	4.154123	1.407455	0.000166
1909	1.8985e+02	-3.9913	-29.836452	0.000122	1.215841	0.411938	0.000049
1910	1.8995e+02	-3.9464	-29.674966	0.000405	4.052803	1.373127	0.000162
1911	1.9004e+02	-3.9127	-29.586149	0.000223	2.229041	0.755220	0.000089
1912	1.9014e+02	-3.8678	-29.412552	0.000436	4.356763	1.476111	0.000174
1913	1.9024e+02	-3.8277	-29.323735	0.000223	2.229041	0.755220	0.000089
1914	1.9034e+02	-3.7924	-29.194547	0.000324	3.242242	1.098501	0.000130
1915	1.9044e+02	-3.7523	-29.033062	0.000405	4.052803	1.373127	0.000162
1916	1.9054e+02	-3.7106	-28.920022	0.000284	2.836962	0.961189	0.000114
1917	1.9064e+02	-3.6769	-28.831205	0.000223	2.229041	0.755220	0.000089
1918	1.9074e+02	-3.6352	-28.681831	0.000375	3.748843	1.270142	0.000150
1919	1.9084e+02	-3.5919	-28.492085	0.000476	4.762043	1.613424	0.000191
1920	1.9094e+02	-3.5486	-28.455751	0.000091	0.911881	0.308954	0.000037
1921	1.9104e+02	-3.5165	-28.314451	0.000355	3.546202	1.201486	0.000142
1922	1.9114e+02	-3.4732	-28.177189	0.000344	3.444882	1.167158	0.000138
1923	1.9124e+02	-3.4282	-28.052038	0.000314	3.140922	1.064173	0.000126
1924	1.9134e+02	-3.3930	-27.938998	0.000284	2.836962	0.961189	0.000114
1925	1.9144e+02	-3.3528	-27.769438	0.000426	4.255443	1.441783	0.000170
1926	1.9154e+02	-3.3111	-27.656398	0.000284	2.836962	0.961189	0.000114
1927	1.9164e+02	-3.2694	-27.539321	0.000294	2.938282	0.995517	0.000118
1928	1.9174e+02	-3.2373	-27.410133	0.000324	3.242242	1.098501	0.000130
1929	1.9184e+02	-3.1972	-27.293056	0.000294	2.938282	0.995517	0.000118
1930	1.9194e+02	-3.1539	-27.155794	0.000344	3.444882	1.167158	0.000138
1931	1.9203e+02	-3.1154	-27.058902	0.000243	2.431682	0.823876	0.000097
1932	1.9213e+02	-3.0769	-26.909528	0.000375	3.748843	1.270142	0.000150
1933	1.9223e+02	-3.0304	-26.792451	0.000294	2.938282	0.995517	0.000118
1934	1.9233e+02	-2.9951	-26.610780	0.000456	4.559403	1.544768	0.000183
1935	1.9243e+02	-2.9598	-26.526000	0.000213	2.127721	0.720892	0.000085
1936	1.9253e+02	-2.9181	-26.396812	0.000324	3.242242	1.098501	0.000130
1937	1.9263e+02	-2.8684	-26.263587	0.000334	3.343562	1.132830	0.000134
1938	1.9273e+02	-2.8363	-26.134398	0.000324	3.242242	1.098501	0.000130
1939	1.9283e+02	-2.7930	-26.021358	0.000284	2.836962	0.961189	0.000114
1940	1.9293e+02	-2.7609	-25.855836	0.000415	4.154123	1.407455	0.000166
1941	1.9303e+02	-2.7176	-25.750870	0.000263	2.634322	0.892532	0.000105
1942	1.9313e+02	-2.6775	-25.641868	0.000274	2.735642	0.926861	0.000110
1943	1.9323e+02	-2.6358	-25.472308	0.000426	4.255443	1.441783	0.000170
1944	1.9333e+02	-2.5908	-25.371380	0.000253	2.533002	0.858204	0.000101
1945	1.9343e+02	-2.5555	-25.193746	0.000446	4.458083	1.510439	0.000179
1946	1.9353e+02	-2.5235	-25.080706	0.000284	2.836962	0.961189	0.000114
1947	1.9363e+02	-2.4737	-25.004000	0.000193	1.925081	0.652235	0.000077
1948	1.9373e+02	-2.4497	-24.822329	0.000456	4.559403	1.544768	0.000183
1949	1.9383e+02	-2.3999	-24.721401	0.000253	2.533002	0.858204	0.000101
1950	1.9393e+02	-2.3614	-24.604324	0.000294	2.938282	0.995517	0.000118
1951	1.9403e+02	-2.3133	-24.471098	0.000334	3.343562	1.132830	0.000134
1952	1.9412e+02	-2.2812	-24.325761	0.000365	3.647522	1.235814	0.000146
1953	1.9422e+02	-2.2315	-24.212722	0.000284	2.836962	0.961189	0.000114
1954	1.9432e+02	-2.1978	-24.079496	0.000334	3.343562	1.132830	0.000134
1955	1.9442e+02	-2.1561	-23.922048	0.000395	3.951483	1.338799	0.000158
1956	1.9452e+02	-2.1128	-23.796897	0.000314	3.140922	1.064173	0.000126
1957	1.9462e+02	-2.0887	-23.663671	0.000334	3.343562	1.132830	0.000134
1958	1.9472e+02	-2.0422	-23.534483	0.000324	3.242242	1.098501	0.000130
1959	1.9482e+02	-2.0005	-23.389146	0.000365	3.647522	1.235814	0.000146
1960	1.9492e+02	-1.9636	-23.255920	0.000334	3.343562	1.132830	0.000134
1961	1.9502e+02	-1.9187	-23.130769	0.000314	3.140922	1.064173	0.000126
1962	1.9512e+02	-1.8770	-23.017729	0.000284	2.836962	0.961189	0.000114
1963	1.9522e+02	-1.8385	-22.840095	0.000446	4.458083	1.510439	0.000179
1964	1.9532e+02	-1.8016	-22.714944	0.000314	3.140922	1.064173	0.000126
1965	1.9542e+02	-1.7582	-22.601904	0.000284	2.836962	0.961189	0.000114
1966	1.9552e+02	-1.7278	-22.480790	0.000304	3.039602	1.029845	0.000122
1967	1.9562e+02	-1.6828	-22.315268	0.000415	4.154123	1.407455	0.000166
1968	1.9572e+02	-1.6331	-22.182042	0.000334	3.343562	1.132830	0.000134
1969	1.9582e+02	-1.6042	-22.040743	0.000355	3.546202	1.201486	0.000142
1970	1.9592e+02	-1.5593	-21.923666	0.000294	2.938282	0.995517	0.000118
1971	1.9601e+02	-1.5128	-21.790440	0.000334	3.343562	1.132830	0.000134
1972	1.9611e+02	-1.4743	-21.645103	0.000365	3.647522	1.235814	0.000146
1973	1.9621e+02	-1.4406	-21.568398	0.000193	1.925081	0.652235	0.000077
1974	1.9631e+02	-1.4085	-21.370578	0.000496	4.964683	1.682080	0.000199
1975	1.9641e+02	-1.3716	-21.257538	0.000284	2.836962	0.961189	0.000114
1976	1.9651e+02	-1.3219	-21.104127	0.000385	3.850163	1.304470	0.000154
1977	1.9661e+02	-1.2850	-20.966864	0.000344	3.444882	1.167158	0.000138
1978	1.9671e+02	-1.2449	-20.829602	0.000344	3.444882	1.167158	0.000138
1979	1.9681e+02	-1.1984	-20.696376	0.000334	3.343562	1.132830	0.000134
1980	1.9691e+02	-1.1583	-20.567188	0.000324	3.242242	1.098501	0.000130
1981	1.9701e+02	-1.1246	-20.413777	0.000385	3.850163	1.304470	0.000154
1982	1.9711e+02	-1.0780	-20.292663	0.000304	3.039602	1.029845	0.000122
1983	1.9721e+02	-1.0444	-20.167512	0.000314	3.140922	1.064173	0.000126
1984	1.9731e+02	-0.9962	-20.022175	0.000365	3.647522	1.235814	0.000146
1985	1.9741e+02	-0.9609	-19.909135	0.000284	2.836962	0.961189	0.000114
1986	1.9751e+02	-0.9176	-19.759761	0.000375	3.748843	1.270142	0.000150
1987	1.9761e+02	-0.8823	-19.586164	0.000436	4.356763	1.476111	0.000174
1988	1.9771e+02	-0.8502	-19.525607	0.000152	1.519801	0.514923	0.000061
1989	1.9781e+02	-0.8053	-19.327787	0.000496	4.964683	1.682080	0.000199
1990	1.9791e+02	-0.7620	-19.247045	0.000203	2.026401	0.686563	0.000081
1991	1.9800e+02	-0.7267	-19.093633	0.000385	3.850163	1.304470	0.000154
1992	1.9810e+02	-0.6866	-18.920037	0.000436	4.356763	1.476111	0.000174
1993	1.9820e+02	-0.6401	-18.786811	0.000334	3.343562	1.132830	0.000134
1994	1.9830e+02	-0.5968	-18.649549	0.000344	3.444882	1.167158	0.000138
1995	1.9840e+02	-0.5727	-18.532472	0.000294	2.938282	0.995517	0.000118
1996	1.9850e+02	-0.5230	-18.411358	0.000304	3.039602	1.029845	0.000122
1997	1.9860e+02	-0.4781	-18.253909	0.000395	3.951483	1.338799	0.000158
1998	1.9870e+02	-0.4412	-18.116647	0.000344	3.444882	1.167158	0.000138
1999	1.9880e+02	-0.3978	-17.995533	0.000304	3.039602	1.029845	0.000122
2000	1.9890e+02	-0.3706	-17.854233	0.000355	3.546202	1.201486	0.000142
2001	1.9900e+02	-0.3321	-17.716970	0.000344	3.444882	1.167158	0.000138
2002	1.9910e+02	-0.2807	-17.587782	0.000324	3.242242	1.098501	0.000130
2003	1.9920e+02	-0.2487	-17.442445	0.000365	3.647522	1.235814	0.000146
2004	1.9930e+02	-0.1925	-17.280960	0.000405	4.052803	1.373127	0.000162
2005	1.9940e+02	-0.1668	-17.188105	0.000233	2.330362	0.789548	0.000093
2006	1.9950e+02	-0.1332	-17.006434	0.000456	4.559403	1.544768	0.000183
2007	1.9960e+02	-0.0898	-16.848986	0.000395	3.951483	1.338799	0.000158
2008	1.9970e+02	-0.0433	-16.711723	0.000344	3.444882	1.167158	0.000138
2009	1.9980e+02	-0.0080	-16.602721	0.000344	3.444882	1.167158	0.000110

Center data before PMax,+/-Pr and +/-Vc Calc.

PMax (uC/cm2):	6.50e+01
Pr (uC/cm2):	1.13e+01
-Pr (uC/cm2):	-1.66e+01
PLoss (uC/cm2):	-2.25e+01
-Vc:	-3.18e+00
C (Max-Eff) (nF):	3.25e-01
K (Eff):	1.10e+03
Vert. (+/-Pr) Shift (uC/cm2):	-2.65e+00
Offset (uC/cm2):	-5.94e+00

A (Loop Area - uC/cm2·Volts):	4.63e-02



Hysteresis Version: 5.48.1 - Radiant Technologies, Inc., 1999 - 9/12/24

