»»»»»»»»»»»»»»»»»»»»»»»»»»»»»»»»»»»» Hysteresis ««««««««««««««««««««««««««««««««««««
»»»  Executed Version:	5.48.1
»»»  Vision Version:	5.48.4 (R)
»»»  Vision Compiled:	9/18/24
»»»  Driver Version:	5.47.0
»»»  Windows Version:	Windows 8 or 8.1
»»»  Processor Information:	x86 (AMD or Intel) - 32 Processors
»»»  Tester Name:	PMF21124-494 (100V)
»»»  Tester S/N:	PMF21124-494
»»»  Internal Amp Type:	100V RevK 270k
»»»  Internal Amp S/N:	iAB2-596/K     
»»»  Execution Count:	1
»»»»»»»»»»»»»»»»»»»»»»»»»»»»»»»»»»»»»»»»»»««««««««««««««««««««««««««««««««««««««««««

Stored:	6/10/2025 - 14:45:41
Configured:	06/10/25 02:01:08 PM
Executed:	06/10/25 02:45:10 PM

»»»»»»»»»»»»»»»»»»»»»»»»»»»»»»»»»»» Sample Info ««««««««««««««««««««««««««««««««««««
Sample Name:	
Lot Name:	
Wafer Name:	
Die Row/Column:	0/0
Capacitor Number:	0
Sample Area (cm2):	1.00e-04
Sample Thickness (microns):	3.00e-01

Amplifier:	Internal

»»»»»»»»»»»»»»»»»»»»»»»»»»»»»»»»»»» Tester Info «««««««««««««««««««««««««««««««««««
Tester Name:	PMF21124-494 (100V)
Tester Serial Number:	PMF21124-494
Return Signal Amp. Level:	1.9 [Index: 2]

»»»»»»»»»»»»»»»»»»»»»»»»»»»»»»»» Hysteresis Info ««««««««««««««««««««««««««««««««««
Task Name:	Hyst-1027
Volts:	20.00
Field:	666.67 (kV/cm)
DCBias:	0.00
DCField:	0.00 (kV/cm)
Hysteresis Period (ms):	2.00e+02
Preset:	Enabled
Preset Delay (ms):	1.00e+03
Profile:	Standard Bipolar

»»»»»»»»»»»»»»»»»»»»»»»»»»»»»»»»»»»»»» Data «««««««««««««««««««««««««««««««««««««««
Points:	2009

Valid Data

Point	Time (ms)	Drive Voltage	Measured Polarization (uC/cm2)	Capacitance (uF)	Normalized Capacitance (uF/cm2)	Dielectric Constant	Instantaneous Current (mA)
   1	0.0000e+00	0.0193	-2.728177	0.000148	1.481608	0.501982	0.000061
   2	9.9500e-02	0.0209	-2.667890	0.000148	1.481608	0.501982	0.000061
   3	1.9900e-01	0.0818	-2.572165	0.000235	2.352553	0.797066	0.000096
   4	2.9850e-01	0.1444	-2.470736	0.000249	2.492705	0.844551	0.000102
   5	3.9800e-01	0.1636	-2.376233	0.000232	2.322520	0.786891	0.000095
   6	4.9750e-01	0.2086	-2.278471	0.000240	2.402607	0.814025	0.000098
   7	5.9700e-01	0.2519	-2.181116	0.000239	2.392596	0.810634	0.000098
   8	6.9650e-01	0.3144	-2.078465	0.000252	2.522738	0.854727	0.000103
   9	7.9600e-01	0.3449	-1.979074	0.000244	2.442651	0.827592	0.000100
  10	8.9550e-01	0.3786	-1.882126	0.000238	2.382585	0.807242	0.000097
  11	9.9500e-01	0.4235	-1.777439	0.000257	2.572792	0.871685	0.000105
  12	1.0945e+00	0.4749	-1.673567	0.000255	2.552770	0.864902	0.000104
  13	1.1940e+00	0.4909	-1.570917	0.000252	2.522738	0.854727	0.000103
  14	1.2935e+00	0.5278	-1.467044	0.000255	2.552770	0.864902	0.000104
  15	1.3930e+00	0.5727	-1.370504	0.000237	2.372575	0.803850	0.000097
  16	1.4925e+00	0.6080	-1.268261	0.000251	2.512727	0.851335	0.000103
  17	1.5920e+00	0.6289	-1.167240	0.000248	2.482694	0.841160	0.000102
  18	1.6915e+00	0.6818	-1.063775	0.000254	2.542759	0.861510	0.000104
  19	1.7910e+00	0.7331	-0.963161	0.000247	2.472683	0.837768	0.000101
  20	1.8905e+00	0.7732	-0.860918	0.000251	2.512727	0.851335	0.000103
  21	1.9900e+00	0.8069	-0.761120	0.000245	2.452661	0.830984	0.000100
  22	2.0895e+00	0.8438	-0.657655	0.000254	2.542759	0.861510	0.000104
  23	2.1890e+00	0.9096	-0.552153	0.000259	2.592814	0.878469	0.000106
  24	2.2885e+00	0.9497	-0.451947	0.000246	2.462672	0.834376	0.000101
  25	2.3880e+00	0.9561	-0.350518	0.000249	2.492705	0.844551	0.000102
  26	2.4875e+00	1.0331	-0.244609	0.000260	2.602824	0.881861	0.000106
  27	2.5870e+00	1.0460	-0.139515	0.000258	2.582803	0.875077	0.000106
  28	2.6865e+00	1.0748	-0.039716	0.000245	2.452661	0.830984	0.000100
  29	2.7860e+00	1.1454	0.062934	0.000252	2.522738	0.854727	0.000103
  30	2.8855e+00	1.1823	0.168436	0.000259	2.592814	0.878469	0.000106
  31	2.9850e+00	1.2112	0.275160	0.000262	2.622846	0.888644	0.000107
  32	3.0845e+00	1.2112	0.373737	-0.000242	-2.422629	-0.820809	0.000099
  33	3.1840e+00	1.2625	0.475165	0.000249	2.492705	0.844551	0.000102
  34	3.2835e+00	1.3123	0.582296	0.000263	2.632857	0.892036	0.000108
  35	3.3830e+00	1.3780	0.691057	0.000267	2.672900	0.905603	0.000109
  36	3.4825e+00	1.4181	0.796966	0.000260	2.602824	0.881861	0.000106
  37	3.5820e+00	1.4631	0.896357	0.000244	2.442651	0.827592	0.000100
  38	3.6815e+00	1.4967	1.003488	0.000263	2.632857	0.892036	0.000108
  39	3.7810e+00	1.5465	1.113878	0.000271	2.712944	0.919170	0.000111
  40	3.8805e+00	1.5754	1.218973	0.000258	2.582803	0.875077	0.000106
  41	3.9800e+00	1.5882	1.321623	0.000252	2.522738	0.854727	0.000103
  42	4.0795e+00	1.6443	1.431605	0.000270	2.702933	0.915779	0.000111
  43	4.1790e+00	1.6925	1.541181	0.000269	2.692922	0.912387	0.000110
  44	4.2785e+00	1.7294	1.649941	0.000267	2.672900	0.905603	0.000109
  45	4.3780e+00	1.7679	1.759516	0.000269	2.692922	0.912387	0.000110
  46	4.4775e+00	1.8320	1.865425	0.000260	2.602824	0.881861	0.000106
  47	4.5770e+00	1.8529	1.973778	0.000266	2.662890	0.902211	0.000109
  48	4.6765e+00	1.8673	2.085390	0.000274	2.742977	0.929346	0.000112
  49	4.7760e+00	1.9620	2.195373	0.000270	2.702933	0.915779	0.000111
  50	4.8755e+00	1.9636	2.298838	0.000254	2.542759	0.861510	0.000104
  51	4.9750e+00	2.0149	2.406783	0.000265	2.652879	0.898820	0.000108
  52	5.0745e+00	2.0566	2.514729	0.000265	2.652879	0.898820	0.000108
  53	5.1740e+00	2.0903	2.623490	0.000267	2.672900	0.905603	0.000109
  54	5.2735e+00	2.1320	2.730213	0.000262	2.622846	0.888644	0.000107
  55	5.3730e+00	2.1481	2.842233	0.000275	2.752987	0.932737	0.000113
  56	5.4725e+00	2.2283	2.951400	0.000268	2.682911	0.908995	0.000110
  57	5.5720e+00	2.2507	3.061790	0.000271	2.712944	0.919170	0.000111
  58	5.6715e+00	2.2973	3.175032	0.000278	2.783020	0.942913	0.000114
  59	5.7710e+00	2.3181	3.276052	0.000248	2.482694	0.841160	0.000102
  60	5.8705e+00	2.3470	3.386850	0.000272	2.722955	0.922562	0.000111
  61	5.9700e+00	2.3983	3.491944	0.000258	2.582803	0.875077	0.000106
  62	6.0695e+00	2.4529	3.603149	0.000273	2.732966	0.925954	0.000112
  63	6.1690e+00	2.4657	3.702947	0.000245	2.452661	0.830984	0.000100
  64	6.2685e+00	2.5347	3.812115	0.000268	2.682911	0.908995	0.000110
  65	6.3680e+00	2.5411	3.916802	0.000257	2.572792	0.871685	0.000105
  66	6.4675e+00	2.6213	4.023526	0.000262	2.622846	0.888644	0.000107
  67	6.5670e+00	2.6342	4.129028	0.000259	2.592814	0.878469	0.000106
  68	6.6665e+00	2.6759	4.235752	0.000262	2.622846	0.888644	0.000107
  69	6.7660e+00	2.7079	4.340031	0.000256	2.562781	0.868294	0.000105
  70	6.8655e+00	2.7785	4.445533	0.000259	2.592814	0.878469	0.000106
  71	6.9650e+00	2.8315	4.550220	0.000257	2.572792	0.871685	0.000105
  72	7.0645e+00	2.8170	4.654500	-0.000256	-2.562781	-0.868294	0.000105
  73	7.1640e+00	2.8796	4.761631	0.000263	2.632857	0.892036	0.000108
  74	7.2635e+00	2.9341	4.868762	0.000263	2.632857	0.892036	0.000108
  75	7.3630e+00	2.9887	4.972227	0.000254	2.542759	0.861510	0.000104
  76	7.4625e+00	2.9999	5.078951	0.000262	2.622846	0.888644	0.000107
  77	7.5620e+00	3.0352	5.181194	0.000251	2.512727	0.851335	0.000103
  78	7.6615e+00	3.0801	5.287103	0.000260	2.602824	0.881861	0.000106
  79	7.7610e+00	3.1058	5.386902	0.000245	2.452661	0.830984	0.000100
  80	7.8605e+00	3.1571	5.498513	0.000274	2.742977	0.929346	0.000112
  81	7.9600e+00	3.1860	5.605645	0.000263	2.632857	0.892036	0.000108
  82	8.0595e+00	3.2678	5.704629	0.000243	2.432640	0.824201	0.000099
  83	8.1590e+00	3.2919	5.807686	0.000253	2.532748	0.858118	0.000104
  84	8.2585e+00	3.3063	5.908707	0.000248	2.482694	0.841160	0.000102
  85	8.3580e+00	3.3930	6.009728	0.000248	2.482694	0.841160	0.000102
  86	8.4575e+00	3.4170	6.113601	0.000255	2.552770	0.864902	0.000104
  87	8.5570e+00	3.4315	6.219510	0.000260	2.602824	0.881861	0.000106
  88	8.6565e+00	3.5101	6.326233	0.000262	2.622846	0.888644	0.000107
  89	8.7560e+00	3.5020	6.430106	-0.000255	-2.552770	-0.864902	0.000104
  90	8.8555e+00	3.5614	6.529090	0.000243	2.432640	0.824201	0.000099
  91	8.9550e+00	3.6159	6.629704	0.000247	2.472683	0.837768	0.000101
  92	9.0545e+00	3.6625	6.733169	0.000254	2.542759	0.861510	0.000104
  93	9.1540e+00	3.7042	6.835412	0.000251	2.512727	0.851335	0.000103
  94	9.2535e+00	3.7186	6.933581	0.000241	2.412618	0.817417	0.000099
  95	9.3530e+00	3.7539	7.039083	0.000259	2.592814	0.878469	0.000106
  96	9.4525e+00	3.8229	7.137660	0.000242	2.422629	0.820809	0.000099
  97	9.5520e+00	3.8309	7.238273	0.000247	2.472683	0.837768	0.000101
  98	9.6515e+00	3.8758	7.335628	0.000239	2.392596	0.810634	0.000098
  99	9.7510e+00	3.9031	7.439501	0.000255	2.552770	0.864902	0.000104
 100	9.8505e+00	3.9576	7.547854	0.000266	2.662890	0.902211	0.000109
 101	9.9500e+00	3.9977	7.648875	0.000248	2.482694	0.841160	0.000102
 102	1.0050e+01	4.0234	7.749488	0.000247	2.472683	0.837768	0.000101
 103	1.0149e+01	4.0860	7.850102	0.000247	2.472683	0.837768	0.000101
 104	1.0248e+01	4.1373	7.948679	0.000242	2.422629	0.820809	0.000099
 105	1.0348e+01	4.1678	8.052959	0.000256	2.562781	0.868294	0.000105
 106	1.0447e+01	4.1919	8.159275	0.000261	2.612835	0.885253	0.000107
 107	1.0547e+01	4.2897	8.257445	0.000241	2.412618	0.817417	0.000099
 108	1.0646e+01	4.2624	8.361724	-0.000256	-2.562781	-0.868294	0.000105
 109	1.0746e+01	4.3266	8.459486	0.000240	2.402607	0.814025	0.000098
 110	1.0845e+01	4.3635	8.560100	0.000247	2.472683	0.837768	0.000101
 111	1.0945e+01	4.4148	8.660714	0.000247	2.472683	0.837768	0.000101
 112	1.1044e+01	4.4614	8.758883	0.000241	2.412618	0.817417	0.000099
 113	1.1144e+01	4.4662	8.861941	0.000253	2.532748	0.858118	0.000104
 114	1.1243e+01	4.5207	8.964591	0.000252	2.522738	0.854727	0.000103
 115	1.1343e+01	4.5464	9.062761	0.000241	2.412618	0.817417	0.000099
 116	1.1443e+01	4.5785	9.162152	0.000244	2.442651	0.827592	0.000100
 117	1.1542e+01	4.6619	9.257470	0.000234	2.342542	0.793675	0.000096
 118	1.1642e+01	4.6876	9.357269	0.000245	2.452661	0.830984	0.000100
 119	1.1741e+01	4.7148	9.457476	0.000246	2.462672	0.834376	0.000101
 120	1.1841e+01	4.7437	9.552387	0.000233	2.332531	0.790283	0.000095
 121	1.1940e+01	4.8111	9.646890	0.000232	2.322520	0.786891	0.000095
 122	1.2040e+01	4.8432	9.748318	0.000249	2.492705	0.844551	0.000102
 123	1.2139e+01	4.8384	9.846488	-0.000241	-2.412618	-0.817417	0.000099
 124	1.2239e+01	4.9218	9.939362	0.000228	2.282477	0.773324	0.000093
 125	1.2338e+01	4.9715	10.031421	0.000226	2.262455	0.766541	0.000093
 126	1.2438e+01	4.9988	10.133257	0.000250	2.502716	0.847943	0.000102
 127	1.2537e+01	5.0630	10.224094	0.000223	2.232423	0.756365	0.000091
 128	1.2636e+01	5.0614	10.317376	-0.000229	-2.292488	-0.776716	0.000094
 129	1.2736e+01	5.1480	10.405362	0.000216	2.162346	0.732623	0.000088
 130	1.2835e+01	5.1592	10.499458	0.000231	2.312509	0.783499	0.000095
 131	1.2935e+01	5.1977	10.594776	0.000234	2.342542	0.793675	0.000096
 132	1.3034e+01	5.2394	10.688872	0.000231	2.312509	0.783499	0.000095
 133	1.3134e+01	5.3148	10.784190	0.000234	2.342542	0.793675	0.000096
 134	1.3233e+01	5.3052	10.879101	-0.000233	-2.332531	-0.790283	0.000095
 135	1.3333e+01	5.3597	10.974012	0.000233	2.332531	0.790283	0.000095
 136	1.3432e+01	5.3966	11.063627	0.000220	2.202390	0.746190	0.000090
 137	1.3532e+01	5.4015	11.156501	0.000228	2.282477	0.773324	0.000093
 138	1.3632e+01	5.4929	11.243673	0.000214	2.142325	0.725839	0.000088
 139	1.3731e+01	5.5458	11.334103	0.000222	2.222412	0.752973	0.000091
 140	1.3831e+01	5.5346	11.427384	-0.000229	-2.292488	-0.776716	0.000094
 141	1.3930e+01	5.6084	11.519851	0.000227	2.272466	0.769932	0.000093
 142	1.4030e+01	5.6357	11.604578	0.000208	2.082260	0.705489	0.000085
 143	1.4129e+01	5.6694	11.703563	0.000243	2.432640	0.824201	0.000099
 144	1.4229e+01	5.6902	11.796029	0.000227	2.272466	0.769932	0.000093
 145	1.4328e+01	5.7480	11.888089	0.000226	2.262455	0.766541	0.000093
 146	1.4428e+01	5.7817	11.978926	0.000223	2.232423	0.756365	0.000091
 147	1.4527e+01	5.8137	12.072208	0.000229	2.292488	0.776716	0.000094
 148	1.4627e+01	5.8490	12.167526	0.000234	2.342542	0.793675	0.000096
 149	1.4726e+01	5.8859	12.258363	0.000223	2.232423	0.756365	0.000091
 150	1.4825e+01	5.9405	12.348386	0.000221	2.212401	0.749582	0.000090
 151	1.4925e+01	6.0030	12.438816	0.000222	2.222412	0.752973	0.000091
 152	1.5024e+01	5.9918	12.529653	-0.000223	-2.232423	-0.756365	0.000091
 153	1.5124e+01	6.0768	12.624971	0.000234	2.342542	0.793675	0.000096
 154	1.5223e+01	6.1362	12.716216	0.000224	2.242433	0.759757	0.000092
 155	1.5323e+01	6.1506	12.807461	0.000224	2.242433	0.759757	0.000092
 156	1.5422e+01	6.1988	12.893003	0.000210	2.102281	0.712272	0.000086
 157	1.5522e+01	6.2036	12.987914	0.000233	2.332531	0.790283	0.000095
 158	1.5621e+01	6.2677	13.077122	0.000219	2.192379	0.742798	0.000090
 159	1.5721e+01	6.3014	13.166330	0.000219	2.192379	0.742798	0.000090
 160	1.5820e+01	6.3608	13.256352	0.000221	2.212401	0.749582	0.000090
 161	1.5920e+01	6.4137	13.346375	0.000221	2.212401	0.749582	0.000090
 162	1.6020e+01	6.4378	13.440064	0.000230	2.302499	0.780108	0.000094
 163	1.6119e+01	6.4554	13.531309	0.000224	2.242433	0.759757	0.000092
 164	1.6218e+01	6.5421	13.616443	0.000209	2.092270	0.708880	0.000086
 165	1.6318e+01	6.5693	13.705244	0.000218	2.182368	0.739406	0.000089
 166	1.6418e+01	6.6014	13.797303	0.000226	2.262455	0.766541	0.000093
 167	1.6517e+01	6.6094	13.883660	0.000212	2.122303	0.719056	0.000087
 168	1.6616e+01	6.6672	13.978571	0.000233	2.332531	0.790283	0.000095
 169	1.6716e+01	6.7041	14.065335	0.000213	2.132314	0.722447	0.000087
 170	1.6816e+01	6.7522	14.156987	0.000225	2.252444	0.763149	0.000092
 171	1.6915e+01	6.7923	14.242529	0.000210	2.102281	0.712272	0.000086
 172	1.7015e+01	6.8148	14.332959	0.000222	2.222412	0.752973	0.000091
 173	1.7114e+01	6.8661	14.417279	0.000207	2.072249	0.702097	0.000085
 174	1.7213e+01	6.9014	14.509745	0.000227	2.272466	0.769932	0.000093
 175	1.7313e+01	6.9576	14.600175	0.000222	2.222412	0.752973	0.000091
 176	1.7413e+01	7.0169	14.686939	0.000213	2.132314	0.722447	0.000087
 177	1.7512e+01	7.0378	14.782258	0.000234	2.342542	0.793675	0.000096
 178	1.7611e+01	7.0442	14.868614	0.000212	2.122303	0.719056	0.000087
 179	1.7711e+01	7.0811	14.957415	0.000218	2.182368	0.739406	0.000089
 180	1.7811e+01	7.1581	15.045401	0.000216	2.162346	0.732623	0.000088
 181	1.7910e+01	7.1838	15.134201	0.000218	2.182368	0.739406	0.000089
 182	1.8009e+01	7.2271	15.223410	0.000219	2.192379	0.742798	0.000090
 183	1.8109e+01	7.2977	15.312210	0.000218	2.182368	0.739406	0.000089
 184	1.8209e+01	7.2816	15.397345	-0.000209	-2.092270	-0.708880	0.000086
 185	1.8308e+01	7.3682	15.490219	0.000228	2.282477	0.773324	0.000093
 186	1.8407e+01	7.3891	15.569243	0.000194	1.942107	0.658004	0.000079
 187	1.8507e+01	7.4468	15.656822	0.000215	2.152336	0.729231	0.000088
 188	1.8607e+01	7.4645	15.741957	0.000209	2.092270	0.708880	0.000086
 189	1.8706e+01	7.4854	15.826684	0.000208	2.082260	0.705489	0.000085
 190	1.8805e+01	7.5624	15.914670	0.000216	2.162346	0.732623	0.000088
 191	1.8905e+01	7.5864	15.998582	0.000206	2.062238	0.698705	0.000084
 192	1.9005e+01	7.6169	16.086161	0.000215	2.152336	0.729231	0.000088
 193	1.9104e+01	7.6682	16.174554	0.000217	2.172357	0.736015	0.000089
 194	1.9203e+01	7.6955	16.256430	0.000201	2.012184	0.681746	0.000082
 195	1.9303e+01	7.7452	16.342379	0.000211	2.112292	0.715664	0.000086
 196	1.9402e+01	7.7869	16.425070	0.000203	2.032205	0.688530	0.000083
 197	1.9502e+01	7.8335	16.512649	0.000215	2.152336	0.729231	0.000088
 198	1.9602e+01	7.8623	16.598598	0.000211	2.112292	0.715664	0.000086
 199	1.9701e+01	7.9249	16.689843	0.000224	2.242433	0.759757	0.000092
 200	1.9800e+01	7.9361	16.764386	0.000183	1.831988	0.620694	0.000075
 201	1.9900e+01	7.9859	16.851558	0.000214	2.142325	0.725839	0.000088
 202	2.0000e+01	8.0131	16.937507	0.000211	2.112292	0.715664	0.000086
 203	2.0099e+01	8.0709	17.025493	0.000216	2.162346	0.732623	0.000088
 204	2.0198e+01	8.1030	17.106147	0.000198	1.982151	0.671571	0.000081
 205	2.0298e+01	8.1014	17.195355	-0.000219	-2.192379	-0.742798	0.000090
 206	2.0398e+01	8.1671	17.278045	0.000203	2.032205	0.688530	0.000083
 207	2.0497e+01	8.2201	17.367661	0.000220	2.202390	0.746190	0.000090
 208	2.0596e+01	8.2714	17.450759	0.000204	2.042216	0.691922	0.000084
 209	2.0696e+01	8.3083	17.539559	0.000218	2.182368	0.739406	0.000089
 210	2.0796e+01	8.3484	17.631619	0.000226	2.262455	0.766541	0.000093
 211	2.0895e+01	8.3805	17.715124	0.000205	2.052227	0.695313	0.000084
 212	2.0994e+01	8.4575	17.809220	0.000231	2.312509	0.783499	0.000095
 213	2.1094e+01	8.4543	17.893133	-0.000206	-2.062238	-0.698705	0.000084
 214	2.1194e+01	8.5377	17.983970	0.000223	2.232423	0.756365	0.000091
 215	2.1293e+01	8.5313	18.072771	-0.000218	-2.182368	-0.739406	0.000089
 216	2.1392e+01	8.5778	18.159535	0.000213	2.132314	0.722447	0.000087
 217	2.1492e+01	8.5923	18.239374	0.000196	1.962129	0.664787	0.000080
 218	2.1591e+01	8.6564	18.325730	0.000212	2.122303	0.719056	0.000087
 219	2.1691e+01	8.7190	18.412494	0.000213	2.132314	0.722447	0.000087
 220	2.1791e+01	8.7399	18.502110	0.000220	2.202390	0.746190	0.000090
 221	2.1890e+01	8.7896	18.588466	0.000212	2.122303	0.719056	0.000087
 222	2.1989e+01	8.8586	18.672379	0.000206	2.062238	0.698705	0.000084
 223	2.2089e+01	8.8762	18.760365	0.000216	2.162346	0.732623	0.000088
 224	2.2189e+01	8.8971	18.849980	0.000220	2.202390	0.746190	0.000090
 225	2.2288e+01	8.9484	18.939188	0.000219	2.192379	0.742798	0.000090
 226	2.2387e+01	8.9933	19.025952	0.000213	2.132314	0.722447	0.000087
 227	2.2487e+01	9.0206	19.105384	0.000195	1.952118	0.661396	0.000080
 228	2.2587e+01	9.0607	19.192963	0.000215	2.152336	0.729231	0.000088
 229	2.2686e+01	9.0944	19.278505	0.000210	2.102281	0.712272	0.000086
 230	2.2785e+01	9.1313	19.360380	0.000201	2.012184	0.681746	0.000082
 231	2.2885e+01	9.1971	19.444700	0.000207	2.072249	0.702097	0.000085
 232	2.2985e+01	9.2115	19.529428	0.000208	2.082260	0.705489	0.000085
 233	2.3084e+01	9.2356	19.614155	0.000208	2.082260	0.705489	0.000085
 234	2.3183e+01	9.2965	19.702141	0.000216	2.162346	0.732623	0.000088
 235	2.3283e+01	9.3366	19.781165	0.000194	1.942107	0.658004	0.000079
 236	2.3383e+01	9.3976	19.861004	0.000196	1.962129	0.664787	0.000080
 237	2.3482e+01	9.4185	19.949398	0.000217	2.172357	0.736015	0.000089
 238	2.3581e+01	9.4537	20.028830	0.000195	1.952118	0.661396	0.000080
 239	2.3681e+01	9.4906	20.115594	0.000213	2.132314	0.722447	0.000087
 240	2.3780e+01	9.5596	20.195433	0.000196	1.962129	0.664787	0.000080
 241	2.3880e+01	9.5660	20.280975	0.000210	2.102281	0.712272	0.000086
 242	2.3980e+01	9.6366	20.365295	0.000207	2.072249	0.702097	0.000085
 243	2.4079e+01	9.6815	20.447985	0.000203	2.032205	0.688530	0.000083
 244	2.4178e+01	9.6960	20.528232	0.000197	1.972140	0.668179	0.000081
 245	2.4278e+01	9.7329	20.608478	0.000197	1.972140	0.668179	0.000081
 246	2.4378e+01	9.7698	20.688317	0.000196	1.962129	0.664787	0.000080
 247	2.4477e+01	9.8259	20.771822	0.000205	2.052227	0.695313	0.000084
 248	2.4576e+01	9.8548	20.851662	0.000196	1.962129	0.664787	0.000080
 249	2.4676e+01	9.8885	20.936389	0.000208	2.082260	0.705489	0.000085
 250	2.4776e+01	9.9671	21.018672	0.000202	2.022194	0.685138	0.000083
 251	2.4875e+01	9.9912	21.098511	0.000196	1.962129	0.664787	0.000080
 252	2.4974e+01	10.0200	21.177536	0.000194	1.942107	0.658004	0.000079
 253	2.5074e+01	10.0650	21.258597	0.000199	1.992162	0.674963	0.000081
 254	2.5174e+01	10.0954	21.340880	0.000202	2.022194	0.685138	0.000083
 255	2.5273e+01	10.1371	21.423570	0.000203	2.032205	0.688530	0.000083
 256	2.5372e+01	10.1740	21.502188	0.000193	1.932097	0.654612	0.000079
 257	2.5472e+01	10.2302	21.586100	0.000206	2.062238	0.698705	0.000084
 258	2.5572e+01	10.2446	21.663903	0.000191	1.912075	0.647829	0.000078
 259	2.5671e+01	10.2895	21.743334	0.000195	1.952118	0.661396	0.000080
 260	2.5770e+01	10.3361	21.825618	0.000202	2.022194	0.685138	0.000083
 261	2.5870e+01	10.3762	21.903013	0.000190	1.902064	0.644437	0.000078
 262	2.5970e+01	10.3858	21.984481	0.000200	2.002173	0.678354	0.000082
 263	2.6069e+01	10.4548	22.061876	0.000190	1.902064	0.644437	0.000078
 264	2.6169e+01	10.4821	22.142530	0.000198	1.982151	0.671571	0.000081
 265	2.6268e+01	10.5623	22.227257	0.000208	2.082260	0.705489	0.000085
 266	2.6367e+01	10.5703	22.308726	0.000200	2.002173	0.678354	0.000082
 267	2.6467e+01	10.6056	22.384492	0.000186	1.862021	0.630870	0.000076
 268	2.6567e+01	10.6649	22.463516	0.000194	1.942107	0.658004	0.000079
 269	2.6666e+01	10.6746	22.544985	0.000200	2.002173	0.678354	0.000082
 270	2.6765e+01	10.7403	22.628897	0.000206	2.062238	0.698705	0.000084
 271	2.6865e+01	10.7917	22.707514	0.000193	1.932097	0.654612	0.000079
 272	2.6965e+01	10.8077	22.791019	0.000205	2.052227	0.695313	0.000084
 273	2.7064e+01	10.8687	22.872488	0.000200	2.002173	0.678354	0.000082
 274	2.7163e+01	10.8751	22.954364	0.000201	2.012184	0.681746	0.000082
 275	2.7263e+01	10.9040	23.035018	0.000198	1.982151	0.671571	0.000081
 276	2.7363e+01	10.9906	23.112413	0.000190	1.902064	0.644437	0.000078
 277	2.7462e+01	10.9874	23.192252	-0.000196	-1.962129	-0.664787	0.000080
 278	2.7561e+01	11.0435	23.268832	0.000188	1.882042	0.637653	0.000077
 279	2.7661e+01	11.0901	23.348671	0.000196	1.962129	0.664787	0.000080
 280	2.7761e+01	11.1414	23.431362	0.000203	2.032205	0.688530	0.000083
 281	2.7860e+01	11.1719	23.511608	0.000197	1.972140	0.668179	0.000081
 282	2.7959e+01	11.2216	23.590633	0.000194	1.942107	0.658004	0.000079
 283	2.8059e+01	11.2377	23.668843	0.000192	1.922086	0.651220	0.000079
 284	2.8159e+01	11.2938	23.743794	0.000184	1.841999	0.624086	0.000075
 285	2.8258e+01	11.3387	23.828114	0.000207	2.072249	0.702097	0.000085
 286	2.8358e+01	11.3756	23.907138	0.000194	1.942107	0.658004	0.000079
 287	2.8457e+01	11.4286	23.989014	0.000201	2.012184	0.681746	0.000082
 288	2.8556e+01	11.4302	24.062743	0.000181	1.811966	0.613911	0.000074
 289	2.8656e+01	11.5056	24.139323	0.000188	1.882042	0.637653	0.000077
 290	2.8756e+01	11.5328	24.213867	0.000183	1.831988	0.620694	0.000075
 291	2.8855e+01	11.5649	24.292077	0.000192	1.922086	0.651220	0.000079
 292	2.8954e+01	11.6066	24.362954	0.000174	1.741890	0.590168	0.000071
 293	2.9054e+01	11.6580	24.439942	0.000189	1.892053	0.641045	0.000077
 294	2.9154e+01	11.6949	24.516115	0.000187	1.872031	0.634261	0.000077
 295	2.9253e+01	11.7494	24.592288	0.000187	1.872031	0.634261	0.000077
 296	2.9352e+01	11.7414	24.662351	-0.000172	-1.721868	-0.583385	0.000070
 297	2.9452e+01	11.8232	24.737709	0.000185	1.852010	0.627478	0.000076
 298	2.9552e+01	11.8328	24.811031	0.000180	1.801955	0.610519	0.000074
 299	2.9651e+01	11.9098	24.887204	0.000187	1.872031	0.634261	0.000077
 300	2.9750e+01	11.9435	24.960119	0.000179	1.791945	0.607127	0.000073
 301	2.9850e+01	11.9868	25.036292	0.000187	1.872031	0.634261	0.000077
 302	2.9950e+01	12.0157	25.106354	0.000172	1.721868	0.583385	0.000070
 303	3.0049e+01	12.0350	25.182120	0.000186	1.862021	0.630870	0.000076
 304	3.0148e+01	12.0751	25.253405	0.000175	1.751901	0.593560	0.000072
 305	3.0248e+01	12.1152	25.330393	0.000189	1.892053	0.641045	0.000077
 306	3.0348e+01	12.1569	25.397604	0.000165	1.651792	0.559642	0.000068
 307	3.0447e+01	12.2114	25.475814	0.000192	1.922086	0.651220	0.000079
 308	3.0547e+01	12.2355	25.546284	0.000173	1.731879	0.586777	0.000071
 309	3.0646e+01	12.2708	25.619606	0.000180	1.801955	0.610519	0.000074
 310	3.0745e+01	12.3333	25.688040	0.000168	1.681825	0.569818	0.000069
 311	3.0845e+01	12.3638	25.767471	0.000195	1.952118	0.661396	0.000080
 312	3.0945e+01	12.4232	25.839164	0.000176	1.761912	0.596952	0.000072
 313	3.1044e+01	12.4537	25.913300	0.000182	1.821977	0.617303	0.000075
 314	3.1143e+01	12.4793	25.990288	0.000189	1.892053	0.641045	0.000077
 315	3.1243e+01	12.5291	26.060758	0.000173	1.731879	0.586777	0.000071
 316	3.1343e+01	12.5740	26.138561	0.000191	1.912075	0.647829	0.000078
 317	3.1442e+01	12.5868	26.209438	0.000174	1.741890	0.590168	0.000071
 318	3.1541e+01	12.6526	26.283167	0.000181	1.811966	0.613911	0.000074
 319	3.1641e+01	12.6943	26.354045	0.000174	1.741890	0.590168	0.000071
 320	3.1741e+01	12.7216	26.430625	0.000188	1.882042	0.637653	0.000077
 321	3.1840e+01	12.7681	26.503947	0.000180	1.801955	0.610519	0.000074
 322	3.1939e+01	12.8258	26.578490	0.000183	1.831988	0.620694	0.000075
 323	3.2039e+01	12.8772	26.649368	0.000174	1.741890	0.590168	0.000071
 324	3.2139e+01	12.9109	26.722282	0.000179	1.791945	0.607127	0.000073
 325	3.2238e+01	12.9301	26.794789	0.000178	1.781934	0.603735	0.000073
 326	3.2337e+01	12.9766	26.863223	0.000168	1.681825	0.569818	0.000069
 327	3.2437e+01	12.9911	26.934101	0.000174	1.741890	0.590168	0.000071
 328	3.2536e+01	13.0569	27.007015	0.000179	1.791945	0.607127	0.000073
 329	3.2636e+01	13.0873	27.079114	0.000177	1.771923	0.600344	0.000072
 330	3.2736e+01	13.1098	27.153658	0.000183	1.831988	0.620694	0.000075
 331	3.2835e+01	13.1467	27.227794	0.000182	1.821977	0.617303	0.000075
 332	3.2934e+01	13.2028	27.292562	0.000159	1.591727	0.539292	0.000065
 333	3.3034e+01	13.2590	27.373623	0.000199	1.992162	0.674963	0.000081
 334	3.3133e+01	13.2895	27.448167	0.000183	1.831988	0.620694	0.000075
 335	3.3233e+01	13.2830	27.517008	-0.000169	-1.691836	-0.573210	0.000069
 336	3.3333e+01	13.3649	27.589922	0.000179	1.791945	0.607127	0.000073
 337	3.3432e+01	13.3986	27.663651	0.000181	1.811966	0.613911	0.000074
 338	3.3532e+01	13.4804	27.734936	0.000175	1.751901	0.593560	0.000072
 339	3.3631e+01	13.5060	27.809480	0.000183	1.831988	0.620694	0.000075
 340	3.3730e+01	13.5333	27.873840	0.000158	1.581716	0.535900	0.000065
 341	3.3830e+01	13.5558	27.951235	0.000190	1.902064	0.644437	0.000078
 342	3.3929e+01	13.5814	28.020890	0.000171	1.711858	0.579993	0.000070
 343	3.4029e+01	13.6568	28.097471	0.000188	1.882042	0.637653	0.000077
 344	3.4129e+01	13.6665	28.171607	0.000182	1.821977	0.617303	0.000075
 345	3.4228e+01	13.6985	28.241670	0.000172	1.721868	0.583385	0.000070
 346	3.4328e+01	13.7467	28.314177	0.000178	1.781934	0.603735	0.000073
 347	3.4427e+01	13.7900	28.390350	0.000187	1.872031	0.634261	0.000077
 348	3.4526e+01	13.8413	28.457154	0.000164	1.641782	0.556251	0.000067
 349	3.4626e+01	13.8702	28.532920	0.000186	1.862021	0.630870	0.000076
 350	3.4725e+01	13.9183	28.604205	0.000175	1.751901	0.593560	0.000072
 351	3.4825e+01	13.9536	28.668972	0.000159	1.591727	0.539292	0.000065
 352	3.4925e+01	13.9857	28.740257	0.000175	1.751901	0.593560	0.000072
 353	3.5024e+01	14.0467	28.812357	0.000177	1.771923	0.600344	0.000072
 354	3.5123e+01	14.0643	28.877124	0.000159	1.591727	0.539292	0.000065
 355	3.5223e+01	14.1301	28.952076	0.000184	1.841999	0.624086	0.000075
 356	3.5322e+01	14.1798	29.017250	0.000160	1.601738	0.542684	0.000066
 357	3.5422e+01	14.2199	29.090165	0.000179	1.791945	0.607127	0.000073
 358	3.5522e+01	14.2600	29.153303	0.000155	1.551684	0.525725	0.000063
 359	3.5621e+01	14.2921	29.224588	0.000175	1.751901	0.593560	0.000072
 360	3.5721e+01	14.3386	29.297909	0.000180	1.801955	0.610519	0.000074
 361	3.5820e+01	14.3611	29.369602	0.000176	1.761912	0.596952	0.000072
 362	3.5919e+01	14.4092	29.436813	0.000165	1.651792	0.559642	0.000068
 363	3.6019e+01	14.4445	29.504839	0.000167	1.671814	0.566426	0.000068
 364	3.6118e+01	14.4638	29.575717	0.000174	1.741890	0.590168	0.000071
 365	3.6218e+01	14.5055	29.642114	0.000163	1.631771	0.552859	0.000067
 366	3.6318e+01	14.5360	29.713399	0.000175	1.751901	0.593560	0.000072
 367	3.6417e+01	14.5969	29.780203	0.000164	1.641782	0.556251	0.000067
 368	3.6517e+01	14.6627	29.847414	0.000165	1.651792	0.559642	0.000068
 369	3.6616e+01	14.6755	29.923995	0.000188	1.882042	0.637653	0.000077
 370	3.6715e+01	14.6900	29.990392	0.000163	1.631771	0.552859	0.000067
 371	3.6815e+01	14.7413	30.056381	0.000162	1.621760	0.549467	0.000066
 372	3.6914e+01	14.7958	30.129295	0.000179	1.791945	0.607127	0.000073
 373	3.7014e+01	14.8343	30.200173	0.000174	1.741890	0.590168	0.000071
 374	3.7114e+01	14.8664	30.273087	0.000179	1.791945	0.607127	0.000073
 375	3.7213e+01	14.9113	30.342743	0.000171	1.711858	0.579993	0.000070
 376	3.7313e+01	14.9531	30.412399	0.000171	1.711858	0.579993	0.000070
 377	3.7412e+01	14.9691	30.483684	0.000175	1.751901	0.593560	0.000072
 378	3.7511e+01	15.0477	30.554968	0.000175	1.751901	0.593560	0.000072
 379	3.7611e+01	15.1071	30.626253	0.000175	1.751901	0.593560	0.000072
 380	3.7711e+01	15.1231	30.698760	0.000178	1.781934	0.603735	0.000073
 381	3.7810e+01	15.1568	30.770453	0.000176	1.761912	0.596952	0.000072
 382	3.7910e+01	15.1985	30.844996	0.000183	1.831988	0.620694	0.000075
 383	3.8009e+01	15.2113	30.917096	0.000177	1.771923	0.600344	0.000072
 384	3.8108e+01	15.2723	30.988381	0.000175	1.751901	0.593560	0.000072
 385	3.8208e+01	15.3204	31.057629	0.000170	1.701847	0.576601	0.000070
 386	3.8307e+01	15.3637	31.130543	0.000179	1.791945	0.607127	0.000073
 387	3.8407e+01	15.4071	31.203865	0.000180	1.801955	0.610519	0.000074
 388	3.8507e+01	15.4664	31.275557	0.000176	1.761912	0.596952	0.000072
 389	3.8606e+01	15.4600	31.346435	-0.000174	-1.741890	-0.590168	0.000071
 390	3.8706e+01	15.5274	31.417313	0.000174	1.741890	0.590168	0.000071
 391	3.8805e+01	15.5177	31.491856	-0.000183	-1.831988	-0.620694	0.000075
 392	3.8904e+01	15.6044	31.562734	0.000174	1.741890	0.590168	0.000071
 393	3.9004e+01	15.6525	31.633612	0.000174	1.741890	0.590168	0.000071
 394	3.9103e+01	15.6798	31.705304	0.000176	1.761912	0.596952	0.000072
 395	3.9203e+01	15.7423	31.777403	0.000177	1.771923	0.600344	0.000072
 396	3.9303e+01	15.7664	31.851132	0.000181	1.811966	0.613911	0.000074
 397	3.9402e+01	15.7792	31.920381	0.000170	1.701847	0.576601	0.000070
 398	3.9502e+01	15.8225	31.987185	0.000164	1.641782	0.556251	0.000067
 399	3.9601e+01	15.8610	32.059285	0.000177	1.771923	0.600344	0.000072
 400	3.9700e+01	15.9124	32.126903	0.000166	1.661803	0.563034	0.000068
 401	3.9800e+01	15.9541	32.196559	0.000171	1.711858	0.579993	0.000070
 402	3.9900e+01	15.9910	32.262141	0.000161	1.611749	0.546075	0.000066
 403	3.9999e+01	16.0423	32.334648	0.000178	1.781934	0.603735	0.000073
 404	4.0099e+01	16.0648	32.399416	0.000159	1.591727	0.539292	0.000065
 405	4.0198e+01	16.1290	32.469478	0.000172	1.721868	0.583385	0.000070
 406	4.0297e+01	16.1418	32.537912	0.000168	1.681825	0.569818	0.000069
 407	4.0397e+01	16.2044	32.607568	0.000171	1.711858	0.579993	0.000070
 408	4.0496e+01	16.2204	32.680482	0.000179	1.791945	0.607127	0.000073
 409	4.0596e+01	16.2605	32.750545	0.000172	1.721868	0.583385	0.000070
 410	4.0696e+01	16.3038	32.814498	0.000157	1.571706	0.532508	0.000064
 411	4.0795e+01	16.3503	32.883338	0.000169	1.691836	0.573210	0.000069
 412	4.0895e+01	16.3937	32.952587	0.000170	1.701847	0.576601	0.000070
 413	4.0994e+01	16.4418	33.021020	0.000168	1.681825	0.569818	0.000069
 414	4.1093e+01	16.4723	33.089454	0.000168	1.681825	0.569818	0.000069
 415	4.1193e+01	16.5060	33.152185	0.000154	1.541673	0.522333	0.000063
 416	4.1292e+01	16.5653	33.226321	0.000182	1.821977	0.617303	0.000075
 417	4.1392e+01	16.5830	33.293532	0.000165	1.651792	0.559642	0.000068
 418	4.1492e+01	16.6359	33.359115	0.000161	1.611749	0.546075	0.000066
 419	4.1591e+01	16.6760	33.425511	0.000163	1.631771	0.552859	0.000067
 420	4.1691e+01	16.6969	33.497204	0.000176	1.761912	0.596952	0.000072
 421	4.1790e+01	16.7674	33.565637	0.000168	1.681825	0.569818	0.000069
 422	4.1889e+01	16.7915	33.634478	0.000169	1.691836	0.573210	0.000069
 423	4.1989e+01	16.8140	33.701690	0.000165	1.651792	0.559642	0.000068
 424	4.2089e+01	16.8685	33.770531	0.000169	1.691836	0.573210	0.000069
 425	4.2188e+01	16.8990	33.837335	0.000164	1.641782	0.556251	0.000067
 426	4.2288e+01	16.9423	33.904139	0.000164	1.641782	0.556251	0.000067
 427	4.2387e+01	16.9936	33.972165	0.000167	1.671814	0.566426	0.000068
 428	4.2486e+01	17.0626	34.041006	0.000169	1.691836	0.573210	0.000069
 429	4.2586e+01	17.0578	34.104959	-0.000157	-1.571706	-0.532508	0.000064
 430	4.2685e+01	17.1011	34.171763	0.000164	1.641782	0.556251	0.000067
 431	4.2785e+01	17.1557	34.236938	0.000160	1.601738	0.542684	0.000066
 432	4.2885e+01	17.2054	34.303335	0.000163	1.631771	0.552859	0.000067
 433	4.2984e+01	17.2230	34.370546	0.000165	1.651792	0.559642	0.000068
 434	4.3084e+01	17.2744	34.438980	0.000168	1.681825	0.569818	0.000069
 435	4.3183e+01	17.3065	34.507413	0.000168	1.681825	0.569818	0.000069
 436	4.3282e+01	17.3530	34.577069	0.000171	1.711858	0.579993	0.000070
 437	4.3382e+01	17.3867	34.644280	0.000165	1.651792	0.559642	0.000068
 438	4.3481e+01	17.4364	34.714751	0.000173	1.731879	0.586777	0.000071
 439	4.3581e+01	17.4701	34.784814	0.000172	1.721868	0.583385	0.000070
 440	4.3681e+01	17.4861	34.854469	0.000171	1.711858	0.579993	0.000070
 441	4.3780e+01	17.5503	34.921273	0.000164	1.641782	0.556251	0.000067
 442	4.3880e+01	17.5872	34.988485	0.000165	1.651792	0.559642	0.000068
 443	4.3979e+01	17.6417	35.054882	0.000163	1.631771	0.552859	0.000067
 444	4.4078e+01	17.6642	35.124945	0.000172	1.721868	0.583385	0.000070
 445	4.4178e+01	17.6947	35.193785	0.000169	1.691836	0.573210	0.000069
 446	4.4278e+01	17.7540	35.258146	0.000158	1.581716	0.535900	0.000065
 447	4.4377e+01	17.7765	35.327801	0.000171	1.711858	0.579993	0.000070
 448	4.4477e+01	17.8391	35.398679	0.000174	1.741890	0.590168	0.000071
 449	4.4576e+01	17.8824	35.469964	0.000175	1.751901	0.593560	0.000072
 450	4.4675e+01	17.9064	35.533102	0.000155	1.551684	0.525725	0.000063
 451	4.4775e+01	17.9193	35.601943	0.000169	1.691836	0.573210	0.000069
 452	4.4874e+01	17.9818	35.667932	0.000162	1.621760	0.549467	0.000066
 453	4.4974e+01	18.0653	35.735551	0.000166	1.661803	0.563034	0.000068
 454	4.5074e+01	18.0572	35.803577	-0.000167	-1.671814	-0.566426	0.000068
 455	4.5173e+01	18.1102	35.867123	0.000156	1.561695	0.529116	0.000064
 456	4.5273e+01	18.1407	35.931483	0.000158	1.581716	0.535900	0.000065
 457	4.5372e+01	18.1936	35.999916	0.000168	1.681825	0.569818	0.000069
 458	4.5471e+01	18.2257	36.066313	0.000163	1.631771	0.552859	0.000067
 459	4.5571e+01	18.2578	36.125785	0.000146	1.461586	0.495199	0.000060
 460	4.5670e+01	18.2979	36.195033	0.000170	1.701847	0.576601	0.000070
 461	4.5770e+01	18.3428	36.258986	0.000157	1.571706	0.532508	0.000064
 462	4.5870e+01	18.3620	36.319273	0.000148	1.481608	0.501982	0.000061
 463	4.5969e+01	18.4374	36.385262	0.000162	1.621760	0.549467	0.000066
 464	4.6069e+01	18.4792	36.449215	0.000157	1.571706	0.532508	0.000064
 465	4.6168e+01	18.5032	36.513983	0.000159	1.591727	0.539292	0.000065
 466	4.6267e+01	18.5578	36.574677	0.000149	1.491619	0.505374	0.000061
 467	4.6367e+01	18.5915	36.639037	0.000158	1.581716	0.535900	0.000065
 468	4.6467e+01	18.6476	36.701768	0.000154	1.541673	0.522333	0.000063
 469	4.6566e+01	18.6749	36.772238	0.000173	1.731879	0.586777	0.000071
 470	4.6666e+01	18.7054	36.829673	0.000141	1.411532	0.478240	0.000058
 471	4.6765e+01	18.7631	36.895663	0.000162	1.621760	0.549467	0.000066
 472	4.6864e+01	18.7824	36.955542	0.000147	1.471597	0.498591	0.000060
 473	4.6964e+01	18.8096	37.019902	0.000158	1.581716	0.535900	0.000065
 474	4.7063e+01	18.8626	37.082226	0.000153	1.531662	0.518941	0.000063
 475	4.7163e+01	18.8834	37.146993	0.000159	1.591727	0.539292	0.000065
 476	4.7263e+01	18.9396	37.211760	0.000159	1.591727	0.539292	0.000065
 477	4.7362e+01	18.9829	37.274084	0.000153	1.531662	0.518941	0.000063
 478	4.7462e+01	19.0037	37.335185	0.000150	1.501629	0.508766	0.000061
 479	4.7561e+01	19.0535	37.402397	0.000165	1.651792	0.559642	0.000068
 480	4.7660e+01	19.1144	37.465942	0.000156	1.561695	0.529116	0.000064
 481	4.7760e+01	19.1337	37.526229	0.000148	1.481608	0.501982	0.000061
 482	4.7859e+01	19.1898	37.590996	0.000159	1.591727	0.539292	0.000065
 483	4.7959e+01	19.2299	37.657393	0.000163	1.631771	0.552859	0.000067
 484	4.8059e+01	19.2460	37.721753	0.000158	1.581716	0.535900	0.000065
 485	4.8158e+01	19.2733	37.787743	0.000162	1.621760	0.549467	0.000066
 486	4.8258e+01	19.3470	37.850881	0.000155	1.551684	0.525725	0.000063
 487	4.8357e+01	19.3791	37.919722	0.000169	1.691836	0.573210	0.000069
 488	4.8456e+01	19.4289	37.982453	0.000154	1.541673	0.522333	0.000063
 489	4.8556e+01	19.4658	38.046405	0.000157	1.571706	0.532508	0.000064
 490	4.8656e+01	19.4593	38.110358	-0.000157	-1.571706	-0.532508	0.000064
 491	4.8755e+01	19.5524	38.178384	0.000167	1.671814	0.566426	0.000068
 492	4.8855e+01	19.5652	38.239893	0.000151	1.511640	0.512158	0.000062
 493	4.8954e+01	19.6246	38.303846	0.000157	1.571706	0.532508	0.000064
 494	4.9053e+01	19.6647	38.366577	0.000154	1.541673	0.522333	0.000063
 495	4.9153e+01	19.6920	38.433381	0.000164	1.641782	0.556251	0.000067
 496	4.9252e+01	19.7577	38.497334	0.000157	1.571706	0.532508	0.000064
 497	4.9352e+01	19.7978	38.568211	0.000174	1.741890	0.590168	0.000071
 498	4.9452e+01	19.8347	38.627683	0.000146	1.461586	0.495199	0.000060
 499	4.9551e+01	19.8428	38.694487	0.000164	1.641782	0.556251	0.000067
 500	4.9651e+01	19.8716	38.762921	0.000168	1.681825	0.569818	0.000069
 501	4.9750e+01	19.9502	38.826466	0.000156	1.561695	0.529116	0.000064
 502	4.9849e+01	19.9903	38.889604	0.000155	1.551684	0.525725	0.000063
 503	4.9949e+01	20.0032	38.953557	0.000157	1.571706	0.532508	0.000064
 504	5.0048e+01	19.9711	38.919340	0.000084	0.840913	0.284909	-0.000034
 505	5.0148e+01	19.9374	38.872089	0.000116	1.161260	0.393446	-0.000047
 506	5.0248e+01	19.8877	38.824837	0.000116	1.161260	0.393446	-0.000047
 507	5.0347e+01	19.8700	38.783288	0.000102	1.021108	0.345961	-0.000042
 508	5.0447e+01	19.8075	38.732370	0.000125	1.251358	0.423972	-0.000051
 509	5.0546e+01	19.7641	38.681860	0.000124	1.241347	0.420580	-0.000051
 510	5.0645e+01	19.7289	38.634201	0.000117	1.171271	0.396837	-0.000048
 511	5.0745e+01	19.7064	38.591430	0.000105	1.051141	0.356136	-0.000043
 512	5.0844e+01	19.6438	38.536438	0.000135	1.351467	0.457889	-0.000055
 513	5.0944e+01	19.6342	38.490409	0.000113	1.131228	0.383270	-0.000046
 514	5.1044e+01	19.5909	38.437454	0.000130	1.301412	0.440930	-0.000053
 515	5.1143e+01	19.5508	38.388980	0.000119	1.191293	0.403621	-0.000049
 516	5.1242e+01	19.5171	38.338877	0.000123	1.231336	0.417188	-0.000050
 517	5.1342e+01	19.4706	38.290404	0.000119	1.191293	0.403621	-0.000049
 518	5.1441e+01	19.4080	38.235005	0.000136	1.361477	0.461281	-0.000056
 519	5.1541e+01	19.3695	38.183272	0.000127	1.271380	0.430755	-0.000052
 520	5.1641e+01	19.3118	38.130725	0.000129	1.291401	0.437539	-0.000053
 521	5.1740e+01	19.3262	38.078993	-0.000127	-1.271380	-0.430755	-0.000052
 522	5.1840e+01	19.2444	38.022779	0.000138	1.381499	0.468065	-0.000056
 523	5.1939e+01	19.1979	37.966566	0.000138	1.381499	0.468065	-0.000056
 524	5.2038e+01	19.1594	37.911982	0.000134	1.341456	0.454497	-0.000055
 525	5.2138e+01	19.1594	37.856176	0.000137	1.371488	0.464673	-0.000056
 526	5.2237e+01	19.1369	37.805666	0.000124	1.241347	0.420580	-0.000051
 527	5.2337e+01	19.0503	37.749860	0.000137	1.371488	0.464673	-0.000056
 528	5.2437e+01	19.0182	37.698127	0.000127	1.271380	0.430755	-0.000052
 529	5.2536e+01	18.9765	37.639877	0.000143	1.431553	0.485023	-0.000059
 530	5.2636e+01	18.9684	37.586516	0.000131	1.311423	0.444322	-0.000054
 531	5.2735e+01	18.8979	37.527858	0.000144	1.441564	0.488415	-0.000059
 532	5.2834e+01	18.8449	37.474089	0.000132	1.321434	0.447714	-0.000054
 533	5.2934e+01	18.8128	37.417061	0.000140	1.401521	0.474848	-0.000057
 534	5.3033e+01	18.7759	37.360848	0.000138	1.381499	0.468065	-0.000056
 535	5.3133e+01	18.7278	37.306264	0.000134	1.341456	0.454497	-0.000055
 536	5.3233e+01	18.6973	37.251680	0.000134	1.341456	0.454497	-0.000055
 537	5.3332e+01	18.6476	37.191801	0.000147	1.471597	0.498591	-0.000060
 538	5.3431e+01	18.6332	37.139253	0.000129	1.291401	0.437539	-0.000053
 539	5.3531e+01	18.5979	37.087928	0.000126	1.261369	0.427363	-0.000052
 540	5.3630e+01	18.5465	37.028456	0.000146	1.461586	0.495199	-0.000060
 541	5.3730e+01	18.5145	36.972243	0.000138	1.381499	0.468065	-0.000056
 542	5.3830e+01	18.4551	36.915215	0.000140	1.401521	0.474848	-0.000057
 543	5.3929e+01	18.4262	36.861446	0.000132	1.321434	0.447714	-0.000054
 544	5.4029e+01	18.3829	36.811343	0.000123	1.231336	0.417188	-0.000050
 545	5.4128e+01	18.3316	36.757573	0.000132	1.321434	0.447714	-0.000054
 546	5.4227e+01	18.2995	36.701768	0.000137	1.371488	0.464673	-0.000056
 547	5.4327e+01	18.2690	36.652072	0.000122	1.221325	0.413796	-0.000050
 548	5.4426e+01	18.2177	36.598303	0.000132	1.321434	0.447714	-0.000054
 549	5.4526e+01	18.1824	36.546570	0.000127	1.271380	0.430755	-0.000052
 550	5.4626e+01	18.1599	36.488320	0.000143	1.431553	0.485023	-0.000059
 551	5.4725e+01	18.0990	36.435773	0.000129	1.291401	0.437539	-0.000053
 552	5.4825e+01	18.0572	36.384040	0.000127	1.271380	0.430755	-0.000052
 553	5.4924e+01	18.0364	36.327420	0.000139	1.391510	0.471456	-0.000057
 554	5.5023e+01	17.9867	36.269170	0.000143	1.431553	0.485023	-0.000059
 555	5.5123e+01	17.9385	36.214179	0.000135	1.351467	0.457889	-0.000055
 556	5.5222e+01	17.9385	36.159187	0.000135	1.351467	0.457889	-0.000055
 557	5.5322e+01	17.8856	36.112750	0.000114	1.141238	0.386662	-0.000047
 558	5.5422e+01	17.8182	36.060203	0.000129	1.291401	0.437539	-0.000053
 559	5.5521e+01	17.7589	36.001546	0.000144	1.441564	0.488415	-0.000059
 560	5.5620e+01	17.7396	35.946147	0.000136	1.361477	0.461281	-0.000056
 561	5.5720e+01	17.7027	35.891971	0.000133	1.331445	0.451106	-0.000054
 562	5.5819e+01	17.6642	35.841867	0.000123	1.231336	0.417188	-0.000050
 563	5.5919e+01	17.6225	35.779544	0.000153	1.531662	0.518941	-0.000063
 564	5.6019e+01	17.6016	35.722923	0.000139	1.391510	0.471456	-0.000057
 565	5.6118e+01	17.5744	35.668747	0.000133	1.331445	0.451106	-0.000054
 566	5.6218e+01	17.5311	35.610090	0.000144	1.441564	0.488415	-0.000059
 567	5.6317e+01	17.4781	35.555913	0.000133	1.331445	0.451106	-0.000054
 568	5.6416e+01	17.4412	35.497256	0.000144	1.441564	0.488415	-0.000059
 569	5.6516e+01	17.3851	35.435340	0.000152	1.521651	0.515549	-0.000062
 570	5.6615e+01	17.3353	35.381978	0.000131	1.311423	0.444322	-0.000054
 571	5.6715e+01	17.3113	35.321284	0.000149	1.491619	0.505374	-0.000061
 572	5.6815e+01	17.2744	35.269958	0.000126	1.261369	0.427363	-0.000052
 573	5.6914e+01	17.2327	35.214967	0.000135	1.351467	0.457889	-0.000055
 574	5.7014e+01	17.1797	35.150607	0.000158	1.581716	0.535900	-0.000065
 575	5.7113e+01	17.1637	35.096838	0.000132	1.321434	0.447714	-0.000054
 576	5.7212e+01	17.1188	35.038588	0.000143	1.431553	0.485023	-0.000059
 577	5.7312e+01	17.0578	34.978301	0.000148	1.481608	0.501982	-0.000061
 578	5.7411e+01	17.0337	34.920051	0.000143	1.431553	0.485023	-0.000059
 579	5.7511e+01	16.9696	34.865875	0.000133	1.331445	0.451106	-0.000054
 580	5.7611e+01	16.9567	34.803959	0.000152	1.521651	0.515549	-0.000062
 581	5.7710e+01	16.9134	34.745301	0.000144	1.441564	0.488415	-0.000059
 582	5.7809e+01	16.8685	34.684607	0.000149	1.491619	0.505374	-0.000061
 583	5.7909e+01	16.8428	34.625950	0.000144	1.441564	0.488415	-0.000059
 584	5.8008e+01	16.8027	34.570144	0.000137	1.371488	0.464673	-0.000056
 585	5.8108e+01	16.7305	34.511894	0.000143	1.431553	0.485023	-0.000059
 586	5.8208e+01	16.7321	34.451200	-0.000149	-1.491619	-0.505374	-0.000061
 587	5.8307e+01	16.6584	34.396209	0.000135	1.351467	0.457889	-0.000055
 588	5.8407e+01	16.6263	34.338366	0.000142	1.421543	0.481632	-0.000058
 589	5.8506e+01	16.5990	34.275635	0.000154	1.541673	0.522333	-0.000063
 590	5.8605e+01	16.5348	34.218607	0.000140	1.401521	0.474848	-0.000057
 591	5.8705e+01	16.5076	34.155877	0.000154	1.541673	0.522333	-0.000063
 592	5.8804e+01	16.4771	34.102107	0.000132	1.321434	0.447714	-0.000054
 593	5.8904e+01	16.4225	34.039784	0.000153	1.531662	0.518941	-0.000063
 594	5.9004e+01	16.4001	33.974609	0.000160	1.601738	0.542684	-0.000066
 595	5.9103e+01	16.3487	33.920433	0.000133	1.331445	0.451106	-0.000054
 596	5.9203e+01	16.3054	33.862590	0.000142	1.421543	0.481632	-0.000058
 597	5.9302e+01	16.2846	33.803933	0.000144	1.441564	0.488415	-0.000059
 598	5.9401e+01	16.2380	33.739980	0.000157	1.571706	0.532508	-0.000064
 599	5.9501e+01	16.1867	33.676842	0.000155	1.551684	0.525725	-0.000063
 600	5.9600e+01	16.1290	33.619814	0.000140	1.401521	0.474848	-0.000057
 601	5.9700e+01	16.0953	33.559527	0.000148	1.481608	0.501982	-0.000061
 602	5.9800e+01	16.0792	33.497611	0.000152	1.521651	0.515549	-0.000062
 603	5.9899e+01	16.0247	33.437732	0.000147	1.471597	0.498591	-0.000060
 604	5.9998e+01	15.9782	33.380704	0.000140	1.401521	0.474848	-0.000057
 605	6.0098e+01	15.9445	33.322046	0.000144	1.441564	0.488415	-0.000059
 606	6.0197e+01	15.9300	33.266648	0.000136	1.361477	0.461281	-0.000056
 607	6.0297e+01	15.8851	33.205546	0.000150	1.501629	0.508766	-0.000061
 608	6.0397e+01	15.8354	33.146482	0.000145	1.451575	0.491807	-0.000059
 609	6.0496e+01	15.7873	33.089046	0.000141	1.411532	0.478240	-0.000058
 610	6.0596e+01	15.7455	33.026316	0.000154	1.541673	0.522333	-0.000063
 611	6.0695e+01	15.7247	32.963992	0.000153	1.531662	0.518941	-0.000063
 612	6.0794e+01	15.6605	32.903298	0.000149	1.491619	0.505374	-0.000061
 613	6.0894e+01	15.6365	32.845048	0.000143	1.431553	0.485023	-0.000059
 614	6.0993e+01	15.5996	32.785984	0.000145	1.451575	0.491807	-0.000059
 615	6.1093e+01	15.5611	32.731807	0.000133	1.331445	0.451106	-0.000054
 616	6.1193e+01	15.5322	32.670706	0.000150	1.501629	0.508766	-0.000061
 617	6.1292e+01	15.4873	32.609604	0.000150	1.501629	0.508766	-0.000061
 618	6.1392e+01	15.4520	32.554613	0.000135	1.351467	0.457889	-0.000055
 619	6.1491e+01	15.3894	32.493104	0.000151	1.511640	0.512158	-0.000062
 620	6.1590e+01	15.3413	32.429966	0.000155	1.551684	0.525725	-0.000063
 621	6.1690e+01	15.3140	32.363162	0.000164	1.641782	0.556251	-0.000067
 622	6.1789e+01	15.3284	32.304505	-0.000144	-1.441564	-0.488415	-0.000059
 623	6.1889e+01	15.2274	32.240552	0.000157	1.571706	0.532508	-0.000064
 624	6.1989e+01	15.1776	32.180673	0.000147	1.471597	0.498591	-0.000060
 625	6.2088e+01	15.1343	32.117942	0.000154	1.541673	0.522333	-0.000063
 626	6.2188e+01	15.1103	32.051138	0.000164	1.641782	0.556251	-0.000067
 627	6.2287e+01	15.0750	31.992480	0.000144	1.441564	0.488415	-0.000059
 628	6.2386e+01	15.0429	31.927306	0.000160	1.601738	0.542684	-0.000066
 629	6.2486e+01	14.9595	31.862538	0.000159	1.591727	0.539292	-0.000065
 630	6.2586e+01	14.9579	31.794512	0.000167	1.671814	0.566426	-0.000068
 631	6.2685e+01	14.9242	31.730559	0.000157	1.571706	0.532508	-0.000064
 632	6.2785e+01	14.8857	31.662940	0.000166	1.661803	0.563034	-0.000068
 633	6.2884e+01	14.8151	31.598580	0.000158	1.581716	0.535900	-0.000065
 634	6.2983e+01	14.7878	31.535035	0.000156	1.561695	0.529116	-0.000064
 635	6.3083e+01	14.7317	31.469860	0.000160	1.601738	0.542684	-0.000066
 636	6.3182e+01	14.7253	31.411203	0.000144	1.441564	0.488415	-0.000059
 637	6.3282e+01	14.6884	31.337473	0.000181	1.811966	0.613911	-0.000074
 638	6.3382e+01	14.6531	31.274335	0.000155	1.551684	0.525725	-0.000063
 639	6.3481e+01	14.6001	31.210383	0.000157	1.571706	0.532508	-0.000064
 640	6.3581e+01	14.5648	31.146430	0.000157	1.571706	0.532508	-0.000064
 641	6.3680e+01	14.5103	31.080848	0.000161	1.611749	0.546075	-0.000066
 642	6.3779e+01	14.4654	31.017710	0.000155	1.551684	0.525725	-0.000063
 643	6.3879e+01	14.4156	30.943573	0.000182	1.821977	0.617303	-0.000075
 644	6.3978e+01	14.4060	30.883287	0.000148	1.481608	0.501982	-0.000061
 645	6.4078e+01	14.3659	30.816482	0.000164	1.641782	0.556251	-0.000067
 646	6.4177e+01	14.3322	30.744790	0.000176	1.761912	0.596952	-0.000072
 647	6.4277e+01	14.3001	30.684096	0.000149	1.491619	0.505374	-0.000061
 648	6.4376e+01	14.2664	30.615662	0.000168	1.681825	0.569818	-0.000069
 649	6.4476e+01	14.1959	30.552117	0.000156	1.561695	0.529116	-0.000064
 650	6.4576e+01	14.1429	30.486128	0.000162	1.621760	0.549467	-0.000066
 651	6.4675e+01	14.1461	30.424211	-0.000152	-1.521651	-0.515549	-0.000062
 652	6.4775e+01	14.0739	30.355778	0.000168	1.681825	0.569818	-0.000069
 653	6.4874e+01	14.0435	30.299157	0.000139	1.391510	0.471456	-0.000057
 654	6.4974e+01	14.0386	30.233575	0.000161	1.611749	0.546075	-0.000066
 655	6.5073e+01	13.9552	30.165549	0.000167	1.671814	0.566426	-0.000068
 656	6.5172e+01	13.9071	30.096708	0.000169	1.691836	0.573210	-0.000069
 657	6.5272e+01	13.8766	30.029497	0.000165	1.651792	0.559642	-0.000068
 658	6.5371e+01	13.8397	29.965544	0.000157	1.571706	0.532508	-0.000064
 659	6.5471e+01	13.8269	29.900369	0.000160	1.601738	0.542684	-0.000066
 660	6.5570e+01	13.7547	29.831935	0.000168	1.681825	0.569818	-0.000069
 661	6.5670e+01	13.6873	29.768797	0.000155	1.551684	0.525725	-0.000063
 662	6.5769e+01	13.6793	29.704437	0.000158	1.581716	0.535900	-0.000065
 663	6.5869e+01	13.6151	29.640484	0.000157	1.571706	0.532508	-0.000064
 664	6.5969e+01	13.6071	29.572458	0.000167	1.671814	0.566426	-0.000068
 665	6.6068e+01	13.5574	29.509727	0.000154	1.541673	0.522333	-0.000063
 666	6.6168e+01	13.5285	29.441294	0.000168	1.681825	0.569818	-0.000069
 667	6.6267e+01	13.4852	29.372860	0.000168	1.681825	0.569818	-0.000069
 668	6.6367e+01	13.4258	29.308908	0.000157	1.571706	0.532508	-0.000064
 669	6.6466e+01	13.3857	29.244140	0.000159	1.591727	0.539292	-0.000065
 670	6.6566e+01	13.3408	29.174892	0.000170	1.701847	0.576601	-0.000070
 671	6.6665e+01	13.3151	29.109310	0.000161	1.611749	0.546075	-0.000066
 672	6.6764e+01	13.2766	29.047801	0.000151	1.511640	0.512158	-0.000062
 673	6.6864e+01	13.2670	28.978553	0.000170	1.701847	0.576601	-0.000070
 674	6.6963e+01	13.1980	28.910934	0.000166	1.661803	0.563034	-0.000068
 675	6.7063e+01	13.1579	28.846981	0.000157	1.571706	0.532508	-0.000064
 676	6.7162e+01	13.1226	28.779770	0.000165	1.651792	0.559642	-0.000068
 677	6.7262e+01	13.0921	28.712151	0.000166	1.661803	0.563034	-0.000068
 678	6.7362e+01	13.0392	28.642903	0.000170	1.701847	0.576601	-0.000070
 679	6.7461e+01	13.0119	28.577728	0.000160	1.601738	0.542684	-0.000066
 680	6.7561e+01	12.9510	28.515404	0.000153	1.531662	0.518941	-0.000063
 681	6.7660e+01	12.9301	28.454303	0.000150	1.501629	0.508766	-0.000061
 682	6.7760e+01	12.8884	28.387906	0.000163	1.631771	0.552859	-0.000067
 683	6.7859e+01	12.8323	28.316621	0.000175	1.751901	0.593560	-0.000072
 684	6.7959e+01	12.8098	28.255927	0.000149	1.491619	0.505374	-0.000061
 685	6.8058e+01	12.7681	28.188308	0.000166	1.661803	0.563034	-0.000068
 686	6.8157e+01	12.7248	28.122726	0.000161	1.611749	0.546075	-0.000066
 687	6.8257e+01	12.7007	28.052256	0.000173	1.731879	0.586777	-0.000071
 688	6.8356e+01	12.6365	27.980156	0.000177	1.771923	0.600344	-0.000072
 689	6.8456e+01	12.6157	27.914981	0.000160	1.601738	0.542684	-0.000066
 690	6.8555e+01	12.5627	27.842882	0.000177	1.771923	0.600344	-0.000072
 691	6.8655e+01	12.5291	27.772819	0.000172	1.721868	0.583385	-0.000070
 692	6.8754e+01	12.4873	27.703571	0.000170	1.701847	0.576601	-0.000070
 693	6.8854e+01	12.4440	27.637988	0.000161	1.611749	0.546075	-0.000066
 694	6.8954e+01	12.4007	27.569555	0.000168	1.681825	0.569818	-0.000069
 695	6.9053e+01	12.3686	27.499085	0.000173	1.731879	0.586777	-0.000071
 696	6.9153e+01	12.3366	27.428207	0.000174	1.741890	0.590168	-0.000071
 697	6.9252e+01	12.2932	27.362218	0.000162	1.621760	0.549467	-0.000066
 698	6.9352e+01	12.2483	27.291747	0.000173	1.731879	0.586777	-0.000071
 699	6.9451e+01	12.2259	27.221684	0.000172	1.721868	0.583385	-0.000070
 700	6.9550e+01	12.1825	27.152029	0.000171	1.711858	0.579993	-0.000070
 701	6.9650e+01	12.1200	27.080336	0.000176	1.761912	0.596952	-0.000072
 702	6.9749e+01	12.1152	27.011088	0.000170	1.701847	0.576601	-0.000070
 703	6.9849e+01	12.0686	26.944691	0.000163	1.631771	0.552859	-0.000067
 704	6.9948e+01	12.0189	26.872999	0.000176	1.761912	0.596952	-0.000072
 705	7.0048e+01	11.9660	26.803344	0.000171	1.711858	0.579993	-0.000070
 706	7.0147e+01	11.9371	26.738169	0.000160	1.601738	0.542684	-0.000066
 707	7.0247e+01	11.8922	26.669735	0.000168	1.681825	0.569818	-0.000069
 708	7.0347e+01	11.8585	26.602524	0.000165	1.651792	0.559642	-0.000068
 709	7.0446e+01	11.8088	26.530017	0.000178	1.781934	0.603735	-0.000073
 710	7.0546e+01	11.7382	26.462805	0.000165	1.651792	0.559642	-0.000068
 711	7.0645e+01	11.7302	26.397630	0.000160	1.601738	0.542684	-0.000066
 712	7.0745e+01	11.6628	26.326753	0.000174	1.741890	0.590168	-0.000071
 713	7.0844e+01	11.6355	26.258727	0.000167	1.671814	0.566426	-0.000068
 714	7.0944e+01	11.5890	26.197218	0.000151	1.511640	0.512158	-0.000062
 715	7.1043e+01	11.5681	26.133672	0.000156	1.561695	0.529116	-0.000064
 716	7.1142e+01	11.5312	26.064832	0.000169	1.691836	0.573210	-0.000069
 717	7.1242e+01	11.4959	25.997620	0.000165	1.651792	0.559642	-0.000068
 718	7.1341e+01	11.4221	25.932038	0.000161	1.611749	0.546075	-0.000066
 719	7.1441e+01	11.4189	25.868085	0.000157	1.571706	0.532508	-0.000064
 720	7.1540e+01	11.3836	25.799652	0.000168	1.681825	0.569818	-0.000069
 721	7.1640e+01	11.3243	25.729589	0.000172	1.721868	0.583385	-0.000070
 722	7.1740e+01	11.2842	25.655860	0.000181	1.811966	0.613911	-0.000074
 723	7.1839e+01	11.2409	25.592721	0.000155	1.551684	0.525725	-0.000063
 724	7.1939e+01	11.2216	25.529991	0.000154	1.541673	0.522333	-0.000063
 725	7.2038e+01	11.1574	25.463187	0.000164	1.641782	0.556251	-0.000067
 726	7.2138e+01	11.1430	25.395160	0.000167	1.671814	0.566426	-0.000068
 727	7.2237e+01	11.0885	25.325912	0.000170	1.701847	0.576601	-0.000070
 728	7.2337e+01	11.0451	25.260737	0.000160	1.601738	0.542684	-0.000066
 729	7.2436e+01	10.9938	25.191489	0.000170	1.701847	0.576601	-0.000070
 730	7.2535e+01	10.9697	25.125500	0.000162	1.621760	0.549467	-0.000066
 731	7.2635e+01	10.9136	25.054622	0.000174	1.741890	0.590168	-0.000071
 732	7.2734e+01	10.9056	24.985781	0.000169	1.691836	0.573210	-0.000069
 733	7.2834e+01	10.8542	24.916126	0.000171	1.711858	0.579993	-0.000070
 734	7.2933e+01	10.8045	24.845248	0.000174	1.741890	0.590168	-0.000071
 735	7.3033e+01	10.7564	24.777629	0.000166	1.661803	0.563034	-0.000068
 736	7.3132e+01	10.7371	24.710825	0.000164	1.641782	0.556251	-0.000067
 737	7.3232e+01	10.6810	24.635059	0.000186	1.862021	0.630870	-0.000076
 738	7.3332e+01	10.6649	24.567848	0.000165	1.651792	0.559642	-0.000068
 739	7.3431e+01	10.6200	24.496155	0.000176	1.761912	0.596952	-0.000072
 740	7.3531e+01	10.5944	24.426092	0.000172	1.721868	0.583385	-0.000070
 741	7.3630e+01	10.5286	24.358066	0.000167	1.671814	0.566426	-0.000068
 742	7.3730e+01	10.4740	24.288411	0.000171	1.711858	0.579993	-0.000070
 743	7.3829e+01	10.4420	24.213052	0.000185	1.852010	0.627478	-0.000076
 744	7.3928e+01	10.4099	24.143804	0.000170	1.701847	0.576601	-0.000070
 745	7.4028e+01	10.3682	24.071297	0.000178	1.781934	0.603735	-0.000073
 746	7.4127e+01	10.3136	24.002049	0.000170	1.701847	0.576601	-0.000070
 747	7.4227e+01	10.3184	23.933208	-0.000169	-1.691836	-0.573210	-0.000069
 748	7.4326e+01	10.2847	23.858257	0.000184	1.841999	0.624086	-0.000075
 749	7.4426e+01	10.2077	23.787379	0.000174	1.741890	0.590168	-0.000071
 750	7.4525e+01	10.1596	23.715280	0.000177	1.771923	0.600344	-0.000072
 751	7.4625e+01	10.1339	23.643180	0.000177	1.771923	0.600344	-0.000072
 752	7.4725e+01	10.0858	23.573524	0.000171	1.711858	0.579993	-0.000070
 753	7.4824e+01	10.0762	23.504684	0.000169	1.691836	0.573210	-0.000069
 754	7.4924e+01	10.0152	23.424844	0.000196	1.962129	0.664787	-0.000080
 755	7.5023e+01	9.9928	23.360077	0.000159	1.591727	0.539292	-0.000065
 756	7.5123e+01	9.9495	23.286755	0.000180	1.801955	0.610519	-0.000074
 757	7.5222e+01	9.9126	23.210582	0.000187	1.872031	0.634261	-0.000077
 758	7.5322e+01	9.8532	23.135631	0.000184	1.841999	0.624086	-0.000075
 759	7.5421e+01	9.8083	23.071271	0.000158	1.581716	0.535900	-0.000065
 760	7.5520e+01	9.7794	22.995098	0.000187	1.872031	0.634261	-0.000077
 761	7.5620e+01	9.7602	22.924628	0.000173	1.731879	0.586777	-0.000071
 762	7.5719e+01	9.6831	22.850491	0.000182	1.821977	0.617303	-0.000075
 763	7.5819e+01	9.6446	22.780429	0.000172	1.721868	0.583385	-0.000070
 764	7.5918e+01	9.6061	22.706292	0.000182	1.821977	0.617303	-0.000075
 765	7.6018e+01	9.5821	22.634600	0.000176	1.761912	0.596952	-0.000072
 766	7.6118e+01	9.5356	22.560056	0.000183	1.831988	0.620694	-0.000075
 767	7.6217e+01	9.5115	22.484290	0.000186	1.862021	0.630870	-0.000076
 768	7.6317e+01	9.4489	22.411784	0.000178	1.781934	0.603735	-0.000073
 769	7.6416e+01	9.4136	22.336425	0.000185	1.852010	0.627478	-0.000076
 770	7.6516e+01	9.3703	22.263511	0.000179	1.791945	0.607127	-0.000073
 771	7.6615e+01	9.3655	22.193448	0.000172	1.721868	0.583385	-0.000070
 772	7.6715e+01	9.3029	22.119719	0.000181	1.811966	0.613911	-0.000074
 773	7.6814e+01	9.2805	22.046805	0.000179	1.791945	0.607127	-0.000073
 774	7.6913e+01	9.1923	21.976334	0.000173	1.731879	0.586777	-0.000071
 775	7.7013e+01	9.1826	21.900976	0.000185	1.852010	0.627478	-0.000076
 776	7.7112e+01	9.1441	21.828876	0.000177	1.771923	0.600344	-0.000072
 777	7.7212e+01	9.0848	21.757591	0.000175	1.751901	0.593560	-0.000072
 778	7.7311e+01	9.0415	21.685084	0.000178	1.781934	0.603735	-0.000073
 779	7.7411e+01	9.0190	21.607689	0.000190	1.902064	0.644437	-0.000078
 780	7.7510e+01	8.9645	21.532738	0.000184	1.841999	0.624086	-0.000075
 781	7.7610e+01	8.9548	21.461046	0.000176	1.761912	0.596952	-0.000072
 782	7.7710e+01	8.8955	21.390168	0.000174	1.741890	0.590168	-0.000071
 783	7.7809e+01	8.8746	21.311959	0.000192	1.922086	0.651220	-0.000079
 784	7.7909e+01	8.8153	21.238230	0.000181	1.811966	0.613911	-0.000074
 785	7.8008e+01	8.7703	21.168981	0.000170	1.701847	0.576601	-0.000070
 786	7.8108e+01	8.7639	21.092401	0.000188	1.882042	0.637653	-0.000077
 787	7.8207e+01	8.7190	21.016228	0.000187	1.872031	0.634261	-0.000077
 788	7.8306e+01	8.6436	20.943314	0.000179	1.791945	0.607127	-0.000073
 789	7.8406e+01	8.6163	20.866733	0.000188	1.882042	0.637653	-0.000077
 790	7.8505e+01	8.5698	20.795448	0.000175	1.751901	0.593560	-0.000072
 791	7.8605e+01	8.5457	20.714794	0.000198	1.982151	0.671571	-0.000081
 792	7.8704e+01	8.5105	20.641065	0.000181	1.811966	0.613911	-0.000074
 793	7.8804e+01	8.4495	20.558782	0.000202	2.022194	0.685138	-0.000083
 794	7.8903e+01	8.4286	20.487497	0.000175	1.751901	0.593560	-0.000072
 795	7.9003e+01	8.3901	20.408066	0.000195	1.952118	0.661396	-0.000080
 796	7.9103e+01	8.3404	20.329041	0.000194	1.942107	0.658004	-0.000079
 797	7.9202e+01	8.3067	20.250424	0.000193	1.932097	0.654612	-0.000079
 798	7.9302e+01	8.2458	20.164882	0.000210	2.102281	0.712272	-0.000086
 799	7.9401e+01	8.2297	20.089116	0.000186	1.862021	0.630870	-0.000076
 800	7.9501e+01	8.1704	20.007648	0.000200	2.002173	0.678354	-0.000082
 801	7.9600e+01	8.1463	19.925365	0.000202	2.022194	0.685138	-0.000083
 802	7.9700e+01	8.1319	19.851636	0.000181	1.811966	0.613911	-0.000074
 803	7.9799e+01	8.0918	19.770574	0.000199	1.992162	0.674963	-0.000081
 804	7.9898e+01	8.0420	19.689106	0.000200	2.002173	0.678354	-0.000082
 805	7.9998e+01	8.0164	19.613748	0.000185	1.852010	0.627478	-0.000076
 806	8.0097e+01	7.9795	19.534723	0.000194	1.942107	0.658004	-0.000079
 807	8.0197e+01	7.9137	19.452440	0.000202	2.022194	0.685138	-0.000083
 808	8.0296e+01	7.8559	19.370564	0.000201	2.012184	0.681746	-0.000082
 809	8.0396e+01	7.8383	19.287059	0.000205	2.052227	0.695313	-0.000084
 810	8.0496e+01	7.7950	19.205998	0.000199	1.992162	0.674963	-0.000081
 811	8.0595e+01	7.7484	19.125751	0.000197	1.972140	0.668179	-0.000081
 812	8.0695e+01	7.7132	19.047134	0.000193	1.932097	0.654612	-0.000079
 813	8.0794e+01	7.6843	18.962814	0.000207	2.072249	0.702097	-0.000085
 814	8.0894e+01	7.6073	18.882975	0.000196	1.962129	0.664787	-0.000080
 815	8.0993e+01	7.5736	18.804765	0.000192	1.922086	0.651220	-0.000079
 816	8.1093e+01	7.5271	18.722889	0.000201	2.012184	0.681746	-0.000082
 817	8.1192e+01	7.5046	18.643865	0.000194	1.942107	0.658004	-0.000079
 818	8.1291e+01	7.4485	18.562804	0.000199	1.992162	0.674963	-0.000081
 819	8.1391e+01	7.4212	18.484187	0.000193	1.932097	0.654612	-0.000079
 820	8.1490e+01	7.3779	18.403533	0.000198	1.982151	0.671571	-0.000081
 821	8.1590e+01	7.3410	18.325730	0.000191	1.912075	0.647829	-0.000078
 822	8.1689e+01	7.2944	18.241818	0.000206	2.062238	0.698705	-0.000084
 823	8.1789e+01	7.2495	18.161164	0.000198	1.982151	0.671571	-0.000081
 824	8.1888e+01	7.2608	18.075622	-0.000210	-2.102281	-0.712272	-0.000086
 825	8.1988e+01	7.1822	17.997005	0.000193	1.932097	0.654612	-0.000079
 826	8.2088e+01	7.1260	17.915129	0.000201	2.012184	0.681746	-0.000082
 827	8.2187e+01	7.1116	17.836919	0.000192	1.922086	0.651220	-0.000079
 828	8.2287e+01	7.0811	17.755043	0.000201	2.012184	0.681746	-0.000082
 829	8.2386e+01	7.0474	17.670724	0.000207	2.072249	0.702097	-0.000085
 830	8.2486e+01	6.9848	17.593736	0.000189	1.892053	0.641045	-0.000077
 831	8.2585e+01	6.9527	17.507379	0.000212	2.122303	0.719056	-0.000087
 832	8.2684e+01	6.9255	17.429577	0.000191	1.912075	0.647829	-0.000078
 833	8.2784e+01	6.8822	17.343220	0.000212	2.122303	0.719056	-0.000087
 834	8.2883e+01	6.8421	17.268269	0.000184	1.841999	0.624086	-0.000075
 835	8.2983e+01	6.7955	17.184357	0.000206	2.062238	0.698705	-0.000084
 836	8.3082e+01	6.7458	17.107369	0.000189	1.892053	0.641045	-0.000077
 837	8.3182e+01	6.7025	17.023049	0.000207	2.072249	0.702097	-0.000085
 838	8.3281e+01	6.6752	16.945246	0.000191	1.912075	0.647829	-0.000078
 839	8.3381e+01	6.6014	16.861334	0.000206	2.062238	0.698705	-0.000084
 840	8.3481e+01	6.5998	16.774570	0.000213	2.132314	0.722447	-0.000087
 841	8.3580e+01	6.5501	16.693101	0.000200	2.002173	0.678354	-0.000082
 842	8.3680e+01	6.5100	16.607967	0.000209	2.092270	0.708880	-0.000086
 843	8.3779e+01	6.4362	16.533016	0.000184	1.841999	0.624086	-0.000075
 844	8.3879e+01	6.4474	16.451547	-0.000200	-2.002173	-0.678354	-0.000082
 845	8.3978e+01	6.3897	16.365598	0.000211	2.112292	0.715664	-0.000086
 846	8.4078e+01	6.3447	16.285352	0.000197	1.972140	0.668179	-0.000081
 847	8.4177e+01	6.3078	16.201032	0.000207	2.072249	0.702097	-0.000085
 848	8.4276e+01	6.2437	16.122007	0.000194	1.942107	0.658004	-0.000079
 849	8.4376e+01	6.2228	16.037687	0.000207	2.072249	0.702097	-0.000085
 850	8.4475e+01	6.1955	15.956626	0.000199	1.992162	0.674963	-0.000081
 851	8.4575e+01	6.1410	15.872306	0.000207	2.072249	0.702097	-0.000085
 852	8.4674e+01	6.1234	15.788394	0.000206	2.062238	0.698705	-0.000084
 853	8.4774e+01	6.0849	15.706518	0.000201	2.012184	0.681746	-0.000082
 854	8.4874e+01	6.0303	15.618124	0.000217	2.172357	0.736015	-0.000089
 855	8.4973e+01	5.9822	15.533805	0.000207	2.072249	0.702097	-0.000085
 856	8.5073e+01	5.9453	15.445411	0.000217	2.172357	0.736015	-0.000089
 857	8.5172e+01	5.9036	15.362721	0.000203	2.032205	0.688530	-0.000083
 858	8.5272e+01	5.9004	15.273513	0.000219	2.192379	0.742798	-0.000090
 859	8.5371e+01	5.8506	15.187156	0.000212	2.122303	0.719056	-0.000087
 860	8.5471e+01	5.7977	15.104873	0.000202	2.022194	0.685138	-0.000083
 861	8.5570e+01	5.7608	15.020146	0.000208	2.082260	0.705489	-0.000085
 862	8.5669e+01	5.7063	14.928086	0.000226	2.262455	0.766541	-0.000093
 863	8.5769e+01	5.6645	14.843359	0.000208	2.082260	0.705489	-0.000085
 864	8.5868e+01	5.6421	14.758224	0.000209	2.092270	0.708880	-0.000086
 865	8.5968e+01	5.5811	14.673904	0.000207	2.072249	0.702097	-0.000085
 866	8.6067e+01	5.5442	14.585511	0.000217	2.172357	0.736015	-0.000089
 867	8.6167e+01	5.4945	14.493452	0.000226	2.262455	0.766541	-0.000093
 868	8.6266e+01	5.4720	14.407910	0.000210	2.102281	0.712272	-0.000086
 869	8.6366e+01	5.4432	14.323182	0.000208	2.082260	0.705489	-0.000085
 870	8.6466e+01	5.4127	14.235604	0.000215	2.152336	0.729231	-0.000088
 871	8.6565e+01	5.3726	14.145581	0.000221	2.212401	0.749582	-0.000090
 872	8.6665e+01	5.3004	14.058410	0.000214	2.142325	0.725839	-0.000088
 873	8.6764e+01	5.2795	13.973683	0.000208	2.082260	0.705489	-0.000085
 874	8.6864e+01	5.2523	13.889363	0.000207	2.072249	0.702097	-0.000085
 875	8.6963e+01	5.2218	13.798525	0.000223	2.232423	0.756365	-0.000091
 876	8.7063e+01	5.1608	13.715835	0.000203	2.032205	0.688530	-0.000083
 877	8.7162e+01	5.1047	13.624183	0.000225	2.252444	0.763149	-0.000092
 878	8.7261e+01	5.0758	13.537826	0.000212	2.122303	0.719056	-0.000087
 879	8.7361e+01	5.0517	13.457172	0.000198	1.982151	0.671571	-0.000081
 880	8.7460e+01	4.9811	13.370408	0.000213	2.132314	0.722447	-0.000087
 881	8.7560e+01	4.9314	13.282830	0.000215	2.152336	0.729231	-0.000088
 882	8.7659e+01	4.9378	13.202176	-0.000198	-1.982151	-0.671571	-0.000081
 883	8.7759e+01	4.8705	13.119485	0.000203	2.032205	0.688530	-0.000083
 884	8.7859e+01	4.8400	13.037202	0.000202	2.022194	0.685138	-0.000083
 885	8.7958e+01	4.7967	12.946772	0.000222	2.222412	0.752973	-0.000091
 886	8.8058e+01	4.7469	12.863267	0.000205	2.052227	0.695313	-0.000084
 887	8.8157e+01	4.7325	12.775281	0.000216	2.162346	0.732623	-0.000088
 888	8.8257e+01	4.7148	12.688924	0.000212	2.122303	0.719056	-0.000087
 889	8.8356e+01	4.6378	12.607863	0.000199	1.992162	0.674963	-0.000081
 890	8.8456e+01	4.5977	12.516618	0.000224	2.242433	0.759757	-0.000092
 891	8.8555e+01	4.5656	12.429040	0.000215	2.152336	0.729231	-0.000088
 892	8.8654e+01	4.4999	12.349608	0.000195	1.952118	0.661396	-0.000080
 893	8.8754e+01	4.4935	12.259992	0.000220	2.202390	0.746190	-0.000090
 894	8.8853e+01	4.4437	12.169562	0.000222	2.222412	0.752973	-0.000091
 895	8.8953e+01	4.3683	12.086465	0.000204	2.042216	0.691922	-0.000084
 896	8.9052e+01	4.3330	12.001330	0.000209	2.092270	0.708880	-0.000086
 897	8.9152e+01	4.3362	11.912529	-0.000218	-2.182368	-0.739406	-0.000089
 898	8.9251e+01	4.2641	11.826173	0.000212	2.122303	0.719056	-0.000087
 899	8.9351e+01	4.2304	11.732076	0.000231	2.312509	0.783499	-0.000095
 900	8.9451e+01	4.2272	11.645313	0.000213	2.132314	0.722447	-0.000087
 901	8.9550e+01	4.1502	11.555290	0.000221	2.212401	0.749582	-0.000090
 902	8.9650e+01	4.0940	11.464860	0.000222	2.222412	0.752973	-0.000091
 903	8.9749e+01	4.0860	11.375652	0.000219	2.192379	0.742798	-0.000090
 904	8.9849e+01	4.0362	11.287258	0.000217	2.172357	0.736015	-0.000089
 905	8.9948e+01	4.0090	11.197643	0.000220	2.202390	0.746190	-0.000090
 906	9.0047e+01	3.9769	11.105584	0.000226	2.262455	0.766541	-0.000093
 907	9.0147e+01	3.8999	11.017598	0.000216	2.162346	0.732623	-0.000088
 908	9.0246e+01	3.8694	10.921057	0.000237	2.372575	0.803850	-0.000097
 909	9.0346e+01	3.8486	10.838367	0.000203	2.032205	0.688530	-0.000083
 910	9.0445e+01	3.8052	10.745493	0.000228	2.282477	0.773324	-0.000093
 911	9.0545e+01	3.7587	10.657100	0.000217	2.172357	0.736015	-0.000089
 912	9.0644e+01	3.7266	10.561781	0.000234	2.342542	0.793675	-0.000096
 913	9.0744e+01	3.6945	10.470944	0.000223	2.232423	0.756365	-0.000091
 914	9.0844e+01	3.6657	10.379699	0.000224	2.242433	0.759757	-0.000092
 915	9.0943e+01	3.5855	10.292121	0.000215	2.152336	0.729231	-0.000088
 916	9.1043e+01	3.5646	10.196395	0.000235	2.352553	0.797066	-0.000096
 917	9.1142e+01	3.5213	10.105965	0.000222	2.222412	0.752973	-0.000091
 918	9.1242e+01	3.5004	10.013498	0.000227	2.272466	0.769932	-0.000093
 919	9.1341e+01	3.4315	9.921032	0.000227	2.272466	0.769932	-0.000093
 920	9.1441e+01	3.3849	9.823677	0.000239	2.392596	0.810634	-0.000098
 921	9.1540e+01	3.3689	9.729988	0.000230	2.302499	0.780108	-0.000094
 922	9.1639e+01	3.3320	9.640372	0.000220	2.202390	0.746190	-0.000090
 923	9.1739e+01	3.3063	9.547498	0.000228	2.282477	0.773324	-0.000093
 924	9.1838e+01	3.2694	9.452180	0.000234	2.342542	0.793675	-0.000096
 925	9.1938e+01	3.2165	9.358491	0.000230	2.302499	0.780108	-0.000094
 926	9.2037e+01	3.1780	9.268061	0.000222	2.222412	0.752973	-0.000091
 927	9.2137e+01	3.1491	9.168670	0.000244	2.442651	0.827592	-0.000100
 928	9.2237e+01	3.1026	9.075796	0.000228	2.282477	0.773324	-0.000093
 929	9.2336e+01	3.0272	8.981700	0.000231	2.312509	0.783499	-0.000095
 930	9.2436e+01	3.0111	8.881901	0.000245	2.452661	0.830984	-0.000100
 931	9.2535e+01	2.9678	8.792285	0.000220	2.202390	0.746190	-0.000090
 932	9.2635e+01	2.9422	8.695338	0.000238	2.382585	0.807242	-0.000097
 933	9.2734e+01	2.8796	8.597983	0.000239	2.392596	0.810634	-0.000098
 934	9.2834e+01	2.8475	8.503887	0.000231	2.312509	0.783499	-0.000095
 935	9.2933e+01	2.8010	8.412235	0.000225	2.252444	0.763149	-0.000092
 936	9.3032e+01	2.7529	8.314065	0.000241	2.412618	0.817417	-0.000099
 937	9.3132e+01	2.7448	8.216710	0.000239	2.392596	0.810634	-0.000098
 938	9.3231e+01	2.7176	8.123429	0.000229	2.292488	0.776716	-0.000094
 939	9.3331e+01	2.6582	8.032184	0.000224	2.242433	0.759757	-0.000092
 940	9.3430e+01	2.5956	7.934422	0.000240	2.402607	0.814025	-0.000098
 941	9.3530e+01	2.5812	7.840326	0.000231	2.312509	0.783499	-0.000095
 942	9.3629e+01	2.5395	7.747044	0.000229	2.292488	0.776716	-0.000094
 943	9.3729e+01	2.5170	7.644801	0.000251	2.512727	0.851335	-0.000103
 944	9.3829e+01	2.4769	7.556815	0.000216	2.162346	0.732623	-0.000088
 945	9.3928e+01	2.4144	7.459053	0.000240	2.402607	0.814025	-0.000098
 946	9.4028e+01	2.3646	7.360069	0.000243	2.432640	0.824201	-0.000099
 947	9.4127e+01	2.3133	7.262714	0.000239	2.392596	0.810634	-0.000098
 948	9.4227e+01	2.2908	7.168618	0.000231	2.312509	0.783499	-0.000095
 949	9.4326e+01	2.1930	7.069226	0.000244	2.442651	0.827592	-0.000100
 950	9.4425e+01	2.2122	6.978389	-0.000223	-2.232423	-0.756365	-0.000091
 951	9.4525e+01	2.1689	6.875331	0.000253	2.532748	0.858118	-0.000104
 952	9.4624e+01	2.1449	6.778384	0.000238	2.382585	0.807242	-0.000097
 953	9.4724e+01	2.0775	6.684695	0.000230	2.302499	0.780108	-0.000094
 954	9.4823e+01	2.0679	6.582859	0.000250	2.502716	0.847943	-0.000102
 955	9.4923e+01	1.9989	6.484282	0.000242	2.422629	0.820809	-0.000099
 956	9.5022e+01	1.9748	6.385298	0.000243	2.432640	0.824201	-0.000099
 957	9.5122e+01	1.9395	6.290795	0.000232	2.322520	0.786891	-0.000095
 958	9.5222e+01	1.8978	6.187330	0.000254	2.542759	0.861510	-0.000104
 959	9.5321e+01	1.8385	6.083865	0.000254	2.542759	0.861510	-0.000104
 960	9.5421e+01	1.8016	5.982029	0.000250	2.502716	0.847943	-0.000102
 961	9.5520e+01	1.7903	5.883045	0.000243	2.432640	0.824201	-0.000099
 962	9.5620e+01	1.7229	5.782431	0.000247	2.472683	0.837768	-0.000101
 963	9.5719e+01	1.6748	5.678559	0.000255	2.552770	0.864902	-0.000104
 964	9.5819e+01	1.6540	5.576316	0.000251	2.512727	0.851335	-0.000103
 965	9.5918e+01	1.6235	5.471221	0.000258	2.582803	0.875077	-0.000106
 966	9.6017e+01	1.5994	5.370201	0.000248	2.482694	0.841160	-0.000102
 967	9.6117e+01	1.5465	5.265513	0.000257	2.572792	0.871685	-0.000105
 968	9.6216e+01	1.4967	5.160419	0.000258	2.582803	0.875077	-0.000106
 969	9.6316e+01	1.4181	5.057769	0.000252	2.522738	0.854727	-0.000103
 970	9.6415e+01	1.4262	4.955526	-0.000251	-2.512727	-0.851335	-0.000103
 971	9.6515e+01	1.3732	4.852875	0.000252	2.522738	0.854727	-0.000103
 972	9.6615e+01	1.3283	4.746559	0.000261	2.612835	0.885253	-0.000107
 973	9.6714e+01	1.2641	4.642279	0.000256	2.562781	0.868294	-0.000105
 974	9.6814e+01	1.2625	4.534741	0.000264	2.642868	0.895428	-0.000108
 975	9.6913e+01	1.1952	4.433720	0.000248	2.482694	0.841160	-0.000102
 976	9.7013e+01	1.1518	4.326589	0.000263	2.632857	0.892036	-0.000108
 977	9.7112e+01	1.1198	4.220273	0.000261	2.612835	0.885253	-0.000107
 978	9.7212e+01	1.0780	4.109068	0.000273	2.732966	0.925954	-0.000112
 979	9.7311e+01	1.0604	4.004381	0.000257	2.572792	0.871685	-0.000105
 980	9.7410e+01	0.9962	3.903360	0.000248	2.482694	0.841160	-0.000102
 981	9.7510e+01	0.9946	3.799895	0.000254	2.542759	0.861510	-0.000104
 982	9.7609e+01	0.9401	3.690727	0.000268	2.682911	0.908995	-0.000110
 983	9.7709e+01	0.8807	3.586855	0.000255	2.552770	0.864902	-0.000104
 984	9.7808e+01	0.8518	3.484612	0.000251	2.512727	0.851335	-0.000103
 985	9.7908e+01	0.8005	3.377073	0.000264	2.642868	0.895428	-0.000108
 986	9.8007e+01	0.7716	3.269942	0.000263	2.632857	0.892036	-0.000108
 987	9.8107e+01	0.7524	3.167292	0.000252	2.522738	0.854727	-0.000103
 988	9.8207e+01	0.7010	3.061383	0.000260	2.602824	0.881861	-0.000106
 989	9.8306e+01	0.6706	2.955474	0.000260	2.602824	0.881861	-0.000106
 990	9.8406e+01	0.6176	2.848343	0.000263	2.632857	0.892036	-0.000108
 991	9.8505e+01	0.5727	2.743248	0.000258	2.582803	0.875077	-0.000106
 992	9.8605e+01	0.5214	2.635710	0.000264	2.642868	0.895428	-0.000108
 993	9.8704e+01	0.4684	2.528172	0.000264	2.642868	0.895428	-0.000108
 994	9.8803e+01	0.4508	2.423077	0.000258	2.582803	0.875077	-0.000106
 995	9.8903e+01	0.4155	2.314317	0.000267	2.672900	0.905603	-0.000109
 996	9.9002e+01	0.3706	2.204742	0.000269	2.692922	0.912387	-0.000110
 997	9.9102e+01	0.3529	2.103313	0.000249	2.492705	0.844551	-0.000102
 998	9.9201e+01	0.2888	1.996590	0.000262	2.622846	0.888644	-0.000107
 999	9.9301e+01	0.2679	1.887014	0.000269	2.692922	0.912387	-0.000110
1000	9.9400e+01	0.2342	1.774588	0.000276	2.762998	0.936129	-0.000113
1001	9.9500e+01	0.1572	1.669901	0.000257	2.572792	0.871685	-0.000105
1002	9.9600e+01	0.1315	1.559918	0.000270	2.702933	0.915779	-0.000111
1003	9.9699e+01	0.0818	1.455639	0.000256	2.562781	0.868294	-0.000105
1004	9.9799e+01	0.0578	1.347693	0.000265	2.652879	0.898820	-0.000108
1005	9.9898e+01	0.0481	1.256448	0.000224	2.242433	0.759757	-0.000092
1006	9.9998e+01	0.0112	1.153798	0.000252	2.522738	0.854727	-0.000103
1007	1.0010e+02	-0.0610	1.047481	0.000261	2.612835	0.885253	-0.000107
1008	1.0020e+02	-0.1155	0.935870	0.000274	2.742977	0.929346	-0.000112
1009	1.0030e+02	-0.1364	0.830368	0.000259	2.592814	0.878469	-0.000106
1010	1.0040e+02	-0.1749	0.724866	0.000259	2.592814	0.878469	-0.000106
1011	1.0050e+02	-0.2551	0.612440	0.000276	2.762998	0.936129	-0.000113
1012	1.0059e+02	-0.2326	0.503272	-0.000268	-2.682911	-0.908995	-0.000110
1013	1.0069e+02	-0.2583	0.402251	0.000248	2.482694	0.841160	-0.000102
1014	1.0079e+02	-0.3208	0.291861	0.000271	2.712944	0.919170	-0.000111
1015	1.0089e+02	-0.4011	0.183100	0.000267	2.672900	0.905603	-0.000109
1016	1.0099e+02	-0.4235	0.075562	0.000264	2.642868	0.895428	-0.000108
1017	1.0109e+02	-0.4572	-0.031569	0.000263	2.632857	0.892036	-0.000108
1018	1.0119e+02	-0.4909	-0.140330	0.000267	2.672900	0.905603	-0.000109
1019	1.0129e+02	-0.5069	-0.248275	0.000265	2.652879	0.898820	-0.000108
1020	1.0139e+02	-0.5727	-0.356628	0.000266	2.662890	0.902211	-0.000109
1021	1.0149e+02	-0.6257	-0.464574	0.000265	2.652879	0.898820	-0.000108
1022	1.0159e+02	-0.6433	-0.577001	0.000276	2.762998	0.936129	-0.000113
1023	1.0169e+02	-0.6898	-0.681688	0.000257	2.572792	0.871685	-0.000105
1024	1.0179e+02	-0.7428	-0.794114	0.000276	2.762998	0.936129	-0.000113
1025	1.0189e+02	-0.8101	-0.906134	0.000275	2.752987	0.932737	-0.000113
1026	1.0199e+02	-0.8117	-1.016523	0.000271	2.712944	0.919170	-0.000111
1027	1.0209e+02	-0.8182	-1.124469	0.000265	2.652879	0.898820	-0.000108
1028	1.0219e+02	-0.8839	-1.232415	0.000265	2.652879	0.898820	-0.000108
1029	1.0229e+02	-0.9256	-1.344841	0.000276	2.762998	0.936129	-0.000113
1030	1.0239e+02	-1.0075	-1.450750	0.000260	2.602824	0.881861	-0.000106
1031	1.0248e+02	-1.0636	-1.563992	0.000278	2.783020	0.942913	-0.000114
1032	1.0258e+02	-1.0684	-1.671530	0.000264	2.642868	0.895428	-0.000108
1033	1.0268e+02	-1.1262	-1.782735	0.000273	2.732966	0.925954	-0.000112
1034	1.0278e+02	-1.1326	-1.887829	0.000258	2.582803	0.875077	-0.000106
1035	1.0288e+02	-1.1807	-2.002292	0.000281	2.813053	0.953088	-0.000115
1036	1.0298e+02	-1.2048	-2.103721	0.000249	2.492705	0.844551	-0.000102
1037	1.0308e+02	-1.2481	-2.213296	0.000269	2.692922	0.912387	-0.000110
1038	1.0318e+02	-1.3299	-2.321242	0.000265	2.652879	0.898820	-0.000108
1039	1.0328e+02	-1.3315	-2.432039	0.000272	2.722955	0.922562	-0.000111
1040	1.0338e+02	-1.3796	-2.539984	0.000265	2.652879	0.898820	-0.000108
1041	1.0348e+02	-1.4117	-2.645486	0.000259	2.592814	0.878469	-0.000106
1042	1.0358e+02	-1.4599	-2.748544	0.000253	2.532748	0.858118	-0.000104
1043	1.0368e+02	-1.5032	-2.856082	0.000264	2.642868	0.895428	-0.000108
1044	1.0378e+02	-1.5224	-2.959140	0.000253	2.532748	0.858118	-0.000104
1045	1.0388e+02	-1.5834	-3.062605	0.000254	2.542759	0.861510	-0.000104
1046	1.0398e+02	-1.6331	-3.163219	0.000247	2.472683	0.837768	-0.000101
1047	1.0408e+02	-1.6668	-3.273608	0.000271	2.712944	0.919170	-0.000111
1048	1.0418e+02	-1.7085	-3.376666	0.000253	2.532748	0.858118	-0.000104
1049	1.0428e+02	-1.7246	-3.475243	0.000242	2.422629	0.820809	-0.000099
1050	1.0438e+02	-1.7807	-3.575857	0.000247	2.472683	0.837768	-0.000101
1051	1.0447e+02	-1.7967	-3.679322	0.000254	2.542759	0.861510	-0.000104
1052	1.0457e+02	-1.8417	-3.779528	0.000246	2.462672	0.834376	-0.000101
1053	1.0467e+02	-1.9026	-3.881364	0.000250	2.502716	0.847943	-0.000102
1054	1.0477e+02	-1.9219	-3.984421	0.000253	2.532748	0.858118	-0.000104
1055	1.0487e+02	-1.9700	-4.089108	0.000257	2.572792	0.871685	-0.000105
1056	1.0497e+02	-1.9957	-4.191759	0.000252	2.522738	0.854727	-0.000103
1057	1.0507e+02	-2.0534	-4.296038	0.000256	2.562781	0.868294	-0.000105
1058	1.0517e+02	-2.0727	-4.395430	0.000244	2.442651	0.827592	-0.000100
1059	1.0527e+02	-2.1256	-4.494007	0.000242	2.422629	0.820809	-0.000099
1060	1.0537e+02	-2.1705	-4.599916	0.000260	2.602824	0.881861	-0.000106
1061	1.0547e+02	-2.1930	-4.699715	0.000245	2.452661	0.830984	-0.000100
1062	1.0557e+02	-2.2427	-4.803180	0.000254	2.542759	0.861510	-0.000104
1063	1.0567e+02	-2.2475	-4.896461	0.000229	2.292488	0.776716	-0.000094
1064	1.0577e+02	-2.3293	-4.997482	0.000248	2.482694	0.841160	-0.000102
1065	1.0587e+02	-2.3630	-5.096059	0.000242	2.422629	0.820809	-0.000099
1066	1.0597e+02	-2.3983	-5.200746	0.000257	2.572792	0.871685	-0.000105
1067	1.0607e+02	-2.4561	-5.296879	0.000236	2.362564	0.800458	-0.000097
1068	1.0617e+02	-2.5074	-5.404825	0.000265	2.652879	0.898820	-0.000108
1069	1.0627e+02	-2.5331	-5.500550	0.000235	2.352553	0.797066	-0.000096
1070	1.0637e+02	-2.5716	-5.599534	0.000243	2.432640	0.824201	-0.000099
1071	1.0647e+02	-2.6261	-5.698926	0.000244	2.442651	0.827592	-0.000100
1072	1.0656e+02	-2.6454	-5.799540	0.000247	2.472683	0.837768	-0.000101
1073	1.0666e+02	-2.6919	-5.901375	0.000250	2.502716	0.847943	-0.000102
1074	1.0676e+02	-2.7368	-5.998730	0.000239	2.392596	0.810634	-0.000098
1075	1.0686e+02	-2.7464	-6.101380	0.000252	2.522738	0.854727	-0.000103
1076	1.0696e+02	-2.8122	-6.199550	0.000241	2.412618	0.817417	-0.000099
1077	1.0706e+02	-2.8475	-6.294461	0.000233	2.332531	0.790283	-0.000095
1078	1.0716e+02	-2.8940	-6.395889	0.000249	2.492705	0.844551	-0.000102
1079	1.0726e+02	-2.9133	-6.501391	0.000259	2.592814	0.878469	-0.000106
1080	1.0736e+02	-2.9470	-6.591413	0.000221	2.212401	0.749582	-0.000090
1081	1.0746e+02	-3.0176	-6.688361	0.000238	2.382585	0.807242	-0.000097
1082	1.0756e+02	-3.0561	-6.791419	0.000253	2.532748	0.858118	-0.000104
1083	1.0766e+02	-3.0914	-6.891218	0.000245	2.452661	0.830984	-0.000100
1084	1.0776e+02	-3.1347	-6.988572	0.000239	2.392596	0.810634	-0.000098
1085	1.0786e+02	-3.1507	-7.081854	0.000229	2.292488	0.776716	-0.000094
1086	1.0796e+02	-3.2213	-7.178801	0.000238	2.382585	0.807242	-0.000097
1087	1.0806e+02	-3.2566	-7.281859	0.000253	2.532748	0.858118	-0.000104
1088	1.0816e+02	-3.2935	-7.372697	0.000223	2.232423	0.756365	-0.000091
1089	1.0826e+02	-3.3208	-7.469237	0.000237	2.372575	0.803850	-0.000097
1090	1.0836e+02	-3.3881	-7.566184	0.000238	2.382585	0.807242	-0.000097
1091	1.0845e+02	-3.4074	-7.663946	0.000240	2.402607	0.814025	-0.000098
1092	1.0855e+02	-3.4956	-7.760079	0.000236	2.362564	0.800458	-0.000097
1093	1.0865e+02	-3.5085	-7.854583	0.000232	2.322520	0.786891	-0.000095
1094	1.0875e+02	-3.5069	-7.949494	-0.000233	-2.332531	-0.790283	-0.000095
1095	1.0885e+02	-3.5903	-8.047256	0.000240	2.402607	0.814025	-0.000098
1096	1.0895e+02	-3.6095	-8.142167	0.000233	2.332531	0.790283	-0.000095
1097	1.0905e+02	-3.6191	-8.236263	0.000231	2.312509	0.783499	-0.000095
1098	1.0915e+02	-3.6833	-8.334025	0.000240	2.402607	0.814025	-0.000098
1099	1.0925e+02	-3.7250	-8.426492	0.000227	2.272466	0.769932	-0.000093
1100	1.0935e+02	-3.7667	-8.525883	0.000244	2.442651	0.827592	-0.000100
1101	1.0945e+02	-3.7828	-8.623645	0.000240	2.402607	0.814025	-0.000098
1102	1.0955e+02	-3.8261	-8.714483	0.000223	2.232423	0.756365	-0.000091
1103	1.0965e+02	-3.9079	-8.808579	0.000231	2.312509	0.783499	-0.000095
1104	1.0975e+02	-3.9240	-8.909193	0.000247	2.472683	0.837768	-0.000101
1105	1.0985e+02	-3.9448	-8.998808	0.000220	2.202390	0.746190	-0.000090
1106	1.0995e+02	-4.0042	-9.092904	0.000231	2.312509	0.783499	-0.000095
1107	1.1005e+02	-4.0619	-9.180890	0.000216	2.162346	0.732623	-0.000088
1108	1.1015e+02	-4.0876	-9.274172	0.000229	2.292488	0.776716	-0.000094
1109	1.1025e+02	-4.1357	-9.358491	0.000207	2.072249	0.702097	-0.000085
1110	1.1035e+02	-4.1742	-9.459105	0.000247	2.472683	0.837768	-0.000101
1111	1.1044e+02	-4.2015	-9.544647	0.000210	2.102281	0.712272	-0.000086
1112	1.1054e+02	-4.2239	-9.635484	0.000223	2.232423	0.756365	-0.000091
1113	1.1064e+02	-4.2801	-9.724285	0.000218	2.182368	0.739406	-0.000089
1114	1.1074e+02	-4.3346	-9.822455	0.000241	2.412618	0.817417	-0.000099
1115	1.1084e+02	-4.3298	-9.909626	-0.000214	-2.142325	-0.725839	-0.000088
1116	1.1094e+02	-4.3844	-9.997612	0.000216	2.162346	0.732623	-0.000088
1117	1.1104e+02	-4.4437	-10.093745	0.000236	2.362564	0.800458	-0.000097
1118	1.1114e+02	-4.4710	-10.187026	0.000229	2.292488	0.776716	-0.000094
1119	1.1124e+02	-4.5384	-10.270939	0.000206	2.062238	0.698705	-0.000084
1120	1.1134e+02	-4.5512	-10.360961	0.000221	2.212401	0.749582	-0.000090
1121	1.1144e+02	-4.6138	-10.448540	0.000215	2.152336	0.729231	-0.000088
1122	1.1154e+02	-4.6025	-10.543858	-0.000234	-2.342542	-0.793675	-0.000096
1123	1.1164e+02	-4.6924	-10.631030	0.000214	2.142325	0.725839	-0.000088
1124	1.1174e+02	-4.6956	-10.721052	0.000221	2.212401	0.749582	-0.000090
1125	1.1184e+02	-4.7742	-10.809446	0.000217	2.172357	0.736015	-0.000089
1126	1.1194e+02	-4.8159	-10.903949	0.000232	2.322520	0.786891	-0.000095
1127	1.1204e+02	-4.8319	-10.990306	0.000212	2.122303	0.719056	-0.000087
1128	1.1214e+02	-4.8833	-11.086031	0.000235	2.352553	0.797066	-0.000096
1129	1.1224e+02	-4.9090	-11.169536	0.000205	2.052227	0.695313	-0.000084
1130	1.1234e+02	-4.9715	-11.262818	0.000229	2.292488	0.776716	-0.000094
1131	1.1244e+02	-4.9587	-11.361395	-0.000242	-2.422629	-0.820809	-0.000099
1132	1.1253e+02	-5.0116	-11.453047	0.000225	2.252444	0.763149	-0.000092
1133	1.1263e+02	-5.0934	-11.543884	0.000223	2.232423	0.756365	-0.000091
1134	1.1273e+02	-5.1159	-11.631056	0.000214	2.142325	0.725839	-0.000088
1135	1.1283e+02	-5.1143	-11.725966	-0.000233	-2.332531	-0.790283	-0.000095
1136	1.1293e+02	-5.2202	-11.811101	0.000209	2.092270	0.708880	-0.000086
1137	1.1303e+02	-5.2458	-11.904790	0.000230	2.302499	0.780108	-0.000094
1138	1.1313e+02	-5.2715	-12.000515	0.000235	2.352553	0.797066	-0.000096
1139	1.1323e+02	-5.3116	-12.084835	0.000207	2.072249	0.702097	-0.000085
1140	1.1333e+02	-5.3389	-12.178524	0.000230	2.302499	0.780108	-0.000094
1141	1.1343e+02	-5.3950	-12.269769	0.000224	2.242433	0.759757	-0.000092
1142	1.1353e+02	-5.4207	-12.353681	0.000206	2.062238	0.698705	-0.000084
1143	1.1363e+02	-5.5009	-12.450629	0.000238	2.382585	0.807242	-0.000097
1144	1.1373e+02	-5.5057	-12.538207	0.000215	2.152336	0.729231	-0.000088
1145	1.1383e+02	-5.5699	-12.629452	0.000224	2.242433	0.759757	-0.000092
1146	1.1393e+02	-5.5924	-12.714587	0.000209	2.092270	0.708880	-0.000086
1147	1.1403e+02	-5.6405	-12.812756	0.000241	2.412618	0.817417	-0.000099
1148	1.1413e+02	-5.6694	-12.899928	0.000214	2.142325	0.725839	-0.000088
1149	1.1423e+02	-5.7448	-12.987914	0.000216	2.162346	0.732623	-0.000088
1150	1.1433e+02	-5.7672	-13.073456	0.000210	2.102281	0.712272	-0.000086
1151	1.1442e+02	-5.7929	-13.165515	0.000226	2.262455	0.766541	-0.000093
1152	1.1452e+02	-5.8330	-13.248613	0.000204	2.042216	0.691922	-0.000084
1153	1.1462e+02	-5.8731	-13.337006	0.000217	2.172357	0.736015	-0.000089
1154	1.1472e+02	-5.9341	-13.424177	0.000214	2.142325	0.725839	-0.000088
1155	1.1482e+02	-5.9469	-13.508090	0.000206	2.062238	0.698705	-0.000084
1156	1.1492e+02	-5.9886	-13.603001	0.000233	2.332531	0.790283	-0.000095
1157	1.1502e+02	-6.0239	-13.687728	0.000208	2.082260	0.705489	-0.000085
1158	1.1512e+02	-6.0833	-13.774899	0.000214	2.142325	0.725839	-0.000088
1159	1.1522e+02	-6.1089	-13.857590	0.000203	2.032205	0.688530	-0.000083
1160	1.1532e+02	-6.1651	-13.946391	0.000218	2.182368	0.739406	-0.000089
1161	1.1542e+02	-6.2276	-14.031118	0.000208	2.082260	0.705489	-0.000085
1162	1.1552e+02	-6.2389	-14.117882	0.000213	2.132314	0.722447	-0.000087
1163	1.1562e+02	-6.2613	-14.204238	0.000212	2.122303	0.719056	-0.000087
1164	1.1572e+02	-6.3479	-14.289373	0.000209	2.092270	0.708880	-0.000086
1165	1.1582e+02	-6.3431	-14.370027	-0.000198	-1.982151	-0.671571	-0.000081
1166	1.1592e+02	-6.3608	-14.456383	0.000212	2.122303	0.719056	-0.000087
1167	1.1602e+02	-6.4073	-14.536223	0.000196	1.962129	0.664787	-0.000080
1168	1.1612e+02	-6.4667	-14.623801	0.000215	2.152336	0.729231	-0.000088
1169	1.1622e+02	-6.5709	-14.708121	0.000207	2.072249	0.702097	-0.000085
1170	1.1632e+02	-6.5645	-14.795700	-0.000215	-2.152336	-0.729231	-0.000088
1171	1.1642e+02	-6.5982	-14.878390	0.000203	2.032205	0.688530	-0.000083
1172	1.1651e+02	-6.6720	-14.961488	0.000204	2.042216	0.691922	-0.000084
1173	1.1661e+02	-6.6977	-15.045808	0.000207	2.072249	0.702097	-0.000085
1174	1.1671e+02	-6.7217	-15.131350	0.000210	2.102281	0.712272	-0.000086
1175	1.1681e+02	-6.7490	-15.211597	0.000197	1.972140	0.668179	-0.000081
1176	1.1691e+02	-6.8084	-15.302027	0.000222	2.222412	0.752973	-0.000091
1177	1.1701e+02	-6.8308	-15.377792	0.000186	1.862021	0.630870	-0.000076
1178	1.1711e+02	-6.8324	-15.462112	0.000207	2.072249	0.702097	-0.000085
1179	1.1721e+02	-6.8934	-15.545210	0.000204	2.042216	0.691922	-0.000084
1180	1.1731e+02	-6.9511	-15.632789	0.000215	2.152336	0.729231	-0.000088
1181	1.1741e+02	-6.9945	-15.708554	0.000186	1.862021	0.630870	-0.000076
1182	1.1751e+02	-7.0682	-15.796133	0.000215	2.152336	0.729231	-0.000088
1183	1.1761e+02	-7.0650	-15.880860	-0.000208	-2.082260	-0.705489	-0.000085
1184	1.1771e+02	-7.1228	-15.959885	0.000194	1.942107	0.658004	-0.000079
1185	1.1781e+02	-7.1244	-16.043390	0.000205	2.052227	0.695313	-0.000084
1186	1.1791e+02	-7.1661	-16.121192	0.000191	1.912075	0.647829	-0.000078
1187	1.1801e+02	-7.2287	-16.207549	0.000212	2.122303	0.719056	-0.000087
1188	1.1811e+02	-7.2239	-16.288203	-0.000198	-1.982151	-0.671571	-0.000081
1189	1.1821e+02	-7.3185	-16.379040	0.000223	2.232423	0.756365	-0.000091
1190	1.1831e+02	-7.3346	-16.455621	0.000188	1.882042	0.637653	-0.000077
1191	1.1841e+02	-7.3811	-16.539126	0.000205	2.052227	0.695313	-0.000084
1192	1.1850e+02	-7.4468	-16.623853	0.000208	2.082260	0.705489	-0.000085
1193	1.1860e+02	-7.4741	-16.712247	0.000217	2.172357	0.736015	-0.000089
1194	1.1870e+02	-7.5399	-16.793715	0.000200	2.002173	0.678354	-0.000082
1195	1.1880e+02	-7.5447	-16.871925	0.000192	1.922086	0.651220	-0.000079
1196	1.1890e+02	-7.6057	-16.958689	0.000213	2.132314	0.722447	-0.000087
1197	1.1900e+02	-7.6137	-17.040157	0.000200	2.002173	0.678354	-0.000082
1198	1.1910e+02	-7.6795	-17.121626	0.000200	2.002173	0.678354	-0.000082
1199	1.1920e+02	-7.7083	-17.202687	0.000199	1.992162	0.674963	-0.000081
1200	1.1930e+02	-7.7292	-17.286600	0.000206	2.062238	0.698705	-0.000084
1201	1.1940e+02	-7.7821	-17.370919	0.000207	2.072249	0.702097	-0.000085
1202	1.1950e+02	-7.8271	-17.449944	0.000194	1.942107	0.658004	-0.000079
1203	1.1960e+02	-7.8495	-17.533449	0.000205	2.052227	0.695313	-0.000084
1204	1.1970e+02	-7.8976	-17.616547	0.000204	2.042216	0.691922	-0.000084
1205	1.1980e+02	-7.9650	-17.692313	0.000186	1.862021	0.630870	-0.000076
1206	1.1990e+02	-7.9859	-17.780706	0.000217	2.172357	0.736015	-0.000089
1207	1.2000e+02	-8.0565	-17.861360	0.000198	1.982151	0.671571	-0.000081
1208	1.2010e+02	-8.0212	-17.938348	-0.000189	-1.892053	-0.641045	-0.000077
1209	1.2020e+02	-8.1222	-18.018187	0.000196	1.962129	0.664787	-0.000080
1210	1.2030e+02	-8.1784	-18.101692	0.000205	2.052227	0.695313	-0.000084
1211	1.2039e+02	-8.1671	-18.182753	-0.000199	-1.992162	-0.674963	-0.000081
1212	1.2049e+02	-8.2265	-18.254853	0.000177	1.771923	0.600344	-0.000072
1213	1.2059e+02	-8.2698	-18.332248	0.000190	1.902064	0.644437	-0.000078
1214	1.2069e+02	-8.3179	-18.409236	0.000189	1.892053	0.641045	-0.000077
1215	1.2079e+02	-8.3260	-18.488260	0.000194	1.942107	0.658004	-0.000079
1216	1.2089e+02	-8.3933	-18.568099	0.000196	1.962129	0.664787	-0.000080
1217	1.2099e+02	-8.4142	-18.641014	0.000179	1.791945	0.607127	-0.000073
1218	1.2109e+02	-8.4607	-18.713928	0.000179	1.791945	0.607127	-0.000073
1219	1.2119e+02	-8.5008	-18.794582	0.000198	1.982151	0.671571	-0.000081
1220	1.2129e+02	-8.5554	-18.869533	0.000184	1.841999	0.624086	-0.000075
1221	1.2139e+02	-8.5634	-18.940410	0.000174	1.741890	0.590168	-0.000071
1222	1.2149e+02	-8.6147	-19.019027	0.000193	1.932097	0.654612	-0.000079
1223	1.2159e+02	-8.6741	-19.096422	0.000190	1.902064	0.644437	-0.000078
1224	1.2169e+02	-8.7206	-19.169744	0.000180	1.801955	0.610519	-0.000074
1225	1.2179e+02	-8.7559	-19.243473	0.000181	1.811966	0.613911	-0.000074
1226	1.2189e+02	-8.8008	-19.322090	0.000193	1.932097	0.654612	-0.000079
1227	1.2199e+02	-8.8201	-19.392968	0.000174	1.741890	0.590168	-0.000071
1228	1.2209e+02	-8.8441	-19.475251	0.000202	2.022194	0.685138	-0.000083
1229	1.2219e+02	-8.8858	-19.549795	0.000183	1.831988	0.620694	-0.000075
1230	1.2229e+02	-8.9260	-19.623116	0.000180	1.801955	0.610519	-0.000074
1231	1.2239e+02	-8.9885	-19.695216	0.000177	1.771923	0.600344	-0.000072
1232	1.2248e+02	-9.0046	-19.775055	0.000196	1.962129	0.664787	-0.000080
1233	1.2258e+02	-9.0703	-19.847969	0.000179	1.791945	0.607127	-0.000073
1234	1.2268e+02	-9.1040	-19.920476	0.000178	1.781934	0.603735	-0.000073
1235	1.2278e+02	-9.1233	-19.998686	0.000192	1.922086	0.651220	-0.000079
1236	1.2288e+02	-9.1971	-20.072415	0.000181	1.811966	0.613911	-0.000074
1237	1.2298e+02	-9.1923	-20.152662	-0.000197	-1.972140	-0.668179	-0.000081
1238	1.2308e+02	-9.2757	-20.229649	0.000189	1.892053	0.641045	-0.000077
1239	1.2318e+02	-9.3158	-20.302156	0.000178	1.781934	0.603735	-0.000073
1240	1.2328e+02	-9.3431	-20.377922	0.000186	1.862021	0.630870	-0.000076
1241	1.2338e+02	-9.3848	-20.454503	0.000188	1.882042	0.637653	-0.000077
1242	1.2348e+02	-9.4329	-20.530268	0.000186	1.862021	0.630870	-0.000076
1243	1.2358e+02	-9.4890	-20.607663	0.000190	1.902064	0.644437	-0.000078
1244	1.2368e+02	-9.5211	-20.677726	0.000172	1.721868	0.583385	-0.000070
1245	1.2378e+02	-9.5372	-20.761231	0.000205	2.052227	0.695313	-0.000084
1246	1.2388e+02	-9.5949	-20.835368	0.000182	1.821977	0.617303	-0.000075
1247	1.2398e+02	-9.6222	-20.905023	0.000171	1.711858	0.579993	-0.000070
1248	1.2408e+02	-9.6495	-20.979567	0.000183	1.831988	0.620694	-0.000075
1249	1.2418e+02	-9.7168	-21.058184	0.000193	1.932097	0.654612	-0.000079
1250	1.2428e+02	-9.7938	-21.133135	0.000184	1.841999	0.624086	-0.000075
1251	1.2438e+02	-9.8083	-21.210123	0.000189	1.892053	0.641045	-0.000077
1252	1.2447e+02	-9.8452	-21.280186	0.000172	1.721868	0.583385	-0.000070
1253	1.2457e+02	-9.8420	-21.357581	-0.000190	-1.902064	-0.644437	-0.000078
1254	1.2467e+02	-9.8724	-21.432939	0.000185	1.852010	0.627478	-0.000076
1255	1.2477e+02	-9.9254	-21.506668	0.000181	1.811966	0.613911	-0.000074
1256	1.2487e+02	-10.0008	-21.581212	0.000183	1.831988	0.620694	-0.000075
1257	1.2497e+02	-10.0168	-21.656978	0.000186	1.862021	0.630870	-0.000076
1258	1.2507e+02	-10.0489	-21.733558	0.000188	1.882042	0.637653	-0.000077
1259	1.2517e+02	-10.0986	-21.805658	0.000177	1.771923	0.600344	-0.000072
1260	1.2527e+02	-10.1355	-21.880609	0.000184	1.841999	0.624086	-0.000075
1261	1.2537e+02	-10.1724	-21.953116	0.000178	1.781934	0.603735	-0.000073
1262	1.2547e+02	-10.2398	-22.029289	0.000187	1.872031	0.634261	-0.000077
1263	1.2557e+02	-10.2591	-22.102203	0.000179	1.791945	0.607127	-0.000073
1264	1.2567e+02	-10.2783	-22.178376	0.000187	1.872031	0.634261	-0.000077
1265	1.2577e+02	-10.3521	-22.247217	0.000169	1.691836	0.573210	-0.000069
1266	1.2587e+02	-10.3698	-22.324612	0.000190	1.902064	0.644437	-0.000078
1267	1.2597e+02	-10.4179	-22.397119	0.000178	1.781934	0.603735	-0.000073
1268	1.2607e+02	-10.4580	-22.474514	0.000190	1.902064	0.644437	-0.000078
1269	1.2617e+02	-10.4837	-22.551095	0.000188	1.882042	0.637653	-0.000077
1270	1.2627e+02	-10.5478	-22.623194	0.000177	1.771923	0.600344	-0.000072
1271	1.2636e+02	-10.5911	-22.692443	0.000170	1.701847	0.576601	-0.000070
1272	1.2646e+02	-10.6168	-22.775133	0.000203	2.032205	0.688530	-0.000083
1273	1.2656e+02	-10.6714	-22.840715	0.000161	1.611749	0.546075	-0.000066
1274	1.2666e+02	-10.6842	-22.916074	0.000185	1.852010	0.627478	-0.000076
1275	1.2676e+02	-10.7307	-22.984914	0.000169	1.691836	0.573210	-0.000069
1276	1.2686e+02	-10.8029	-23.056199	0.000175	1.751901	0.593560	-0.000072
1277	1.2696e+02	-10.8238	-23.129114	0.000179	1.791945	0.607127	-0.000073
1278	1.2706e+02	-10.8943	-23.199584	0.000173	1.731879	0.586777	-0.000071
1279	1.2716e+02	-10.8815	-23.269647	-0.000172	-1.721868	-0.583385	-0.000070
1280	1.2726e+02	-10.9569	-23.345413	0.000186	1.862021	0.630870	-0.000076
1281	1.2736e+02	-11.0034	-23.410995	0.000161	1.611749	0.546075	-0.000066
1282	1.2746e+02	-11.0211	-23.488390	0.000190	1.902064	0.644437	-0.000078
1283	1.2756e+02	-11.0227	-23.562119	0.000181	1.811966	0.613911	-0.000074
1284	1.2766e+02	-11.1061	-23.631367	0.000170	1.701847	0.576601	-0.000070
1285	1.2776e+02	-11.1061	-23.705096	0.000181	1.811966	0.613911	-0.000074
1286	1.2786e+02	-11.1863	-23.771086	0.000162	1.621760	0.549467	-0.000066
1287	1.2796e+02	-11.1991	-23.848888	0.000191	1.912075	0.647829	-0.000078
1288	1.2806e+02	-11.2713	-23.916100	0.000165	1.651792	0.559642	-0.000068
1289	1.2816e+02	-11.2922	-23.984940	0.000169	1.691836	0.573210	-0.000069
1290	1.2826e+02	-11.3419	-24.052967	0.000167	1.671814	0.566426	-0.000068
1291	1.2835e+02	-11.3901	-24.129140	0.000187	1.872031	0.634261	-0.000077
1292	1.2845e+02	-11.3917	-24.202869	0.000181	1.811966	0.613911	-0.000074
1293	1.2855e+02	-11.4638	-24.279856	0.000189	1.892053	0.641045	-0.000077
1294	1.2865e+02	-11.4895	-24.341773	0.000152	1.521651	0.515549	-0.000062
1295	1.2875e+02	-11.5521	-24.421612	0.000196	1.962129	0.664787	-0.000080
1296	1.2885e+02	-11.5665	-24.487194	0.000161	1.611749	0.546075	-0.000066
1297	1.2895e+02	-11.5954	-24.562960	0.000186	1.862021	0.630870	-0.000076
1298	1.2905e+02	-11.6564	-24.637096	0.000182	1.821977	0.617303	-0.000075
1299	1.2915e+02	-11.6997	-24.715306	0.000192	1.922086	0.651220	-0.000079
1300	1.2925e+02	-11.7462	-24.785776	0.000173	1.731879	0.586777	-0.000071
1301	1.2935e+02	-11.7446	-24.861542	-0.000186	-1.862021	-0.630870	-0.000076
1302	1.2945e+02	-11.8200	-24.932012	0.000173	1.731879	0.586777	-0.000071
1303	1.2955e+02	-11.8569	-25.009407	0.000190	1.902064	0.644437	-0.000078
1304	1.2965e+02	-11.9178	-25.083543	0.000182	1.821977	0.617303	-0.000075
1305	1.2975e+02	-11.9339	-25.150755	0.000165	1.651792	0.559642	-0.000068
1306	1.2985e+02	-11.9836	-25.227743	0.000189	1.892053	0.641045	-0.000077
1307	1.2995e+02	-12.0317	-25.299842	0.000177	1.771923	0.600344	-0.000072
1308	1.3005e+02	-12.0558	-25.375608	0.000186	1.862021	0.630870	-0.000076
1309	1.3015e+02	-12.1200	-25.448115	0.000178	1.781934	0.603735	-0.000073
1310	1.3025e+02	-12.1152	-25.522251	-0.000182	-1.821977	-0.617303	-0.000075
1311	1.3034e+02	-12.1665	-25.596388	0.000182	1.821977	0.617303	-0.000075
1312	1.3044e+02	-12.2194	-25.672153	0.000186	1.862021	0.630870	-0.000076
1313	1.3054e+02	-12.2307	-25.739772	0.000166	1.661803	0.563034	-0.000068
1314	1.3064e+02	-12.2948	-25.819611	0.000196	1.962129	0.664787	-0.000080
1315	1.3074e+02	-12.3366	-25.888452	0.000169	1.691836	0.573210	-0.000069
1316	1.3084e+02	-12.3622	-25.965033	0.000188	1.882042	0.637653	-0.000077
1317	1.3094e+02	-12.4007	-26.032244	0.000165	1.651792	0.559642	-0.000068
1318	1.3104e+02	-12.4472	-26.110454	0.000192	1.922086	0.651220	-0.000079
1319	1.3114e+02	-12.4954	-26.180517	0.000172	1.721868	0.583385	-0.000070
1320	1.3124e+02	-12.5098	-26.251802	0.000175	1.751901	0.593560	-0.000072
1321	1.3134e+02	-12.5595	-26.319828	0.000167	1.671814	0.566426	-0.000068
1322	1.3144e+02	-12.6365	-26.386632	0.000164	1.641782	0.556251	-0.000067
1323	1.3154e+02	-12.6365	-26.458732	0.000177	1.771923	0.600344	-0.000072
1324	1.3164e+02	-12.6911	-26.532053	0.000180	1.801955	0.610519	-0.000074
1325	1.3174e+02	-12.7119	-26.601302	0.000170	1.701847	0.576601	-0.000070
1326	1.3184e+02	-12.7601	-26.673401	0.000177	1.771923	0.600344	-0.000072
1327	1.3194e+02	-12.8162	-26.740205	0.000164	1.641782	0.556251	-0.000067
1328	1.3204e+02	-12.8226	-26.814342	0.000182	1.821977	0.617303	-0.000075
1329	1.3214e+02	-12.8868	-26.885627	0.000175	1.751901	0.593560	-0.000072
1330	1.3224e+02	-12.9397	-26.952838	0.000165	1.651792	0.559642	-0.000068
1331	1.3234e+02	-12.9815	-27.017198	0.000158	1.581716	0.535900	-0.000065
1332	1.3243e+02	-12.9943	-27.092964	0.000186	1.862021	0.630870	-0.000076
1333	1.3253e+02	-13.0312	-27.161398	0.000168	1.681825	0.569818	-0.000069
1334	1.3263e+02	-13.1050	-27.236349	0.000184	1.841999	0.624086	-0.000075
1335	1.3273e+02	-13.0970	-27.299487	-0.000155	-1.551684	-0.525725	-0.000063
1336	1.3283e+02	-13.1611	-27.367513	0.000167	1.671814	0.566426	-0.000068
1337	1.3293e+02	-13.2028	-27.441649	0.000182	1.821977	0.617303	-0.000075
1338	1.3303e+02	-13.2478	-27.513342	0.000176	1.761912	0.596952	-0.000072
1339	1.3313e+02	-13.2879	-27.581368	0.000167	1.671814	0.566426	-0.000068
1340	1.3323e+02	-13.3376	-27.650616	0.000170	1.701847	0.576601	-0.000070
1341	1.3333e+02	-13.3649	-27.720272	0.000171	1.711858	0.579993	-0.000070
1342	1.3343e+02	-13.4178	-27.787076	0.000164	1.641782	0.556251	-0.000067
1343	1.3353e+02	-13.4804	-27.861212	0.000182	1.821977	0.617303	-0.000075
1344	1.3363e+02	-13.4707	-27.926387	-0.000160	-1.601738	-0.542684	-0.000066
1345	1.3373e+02	-13.5397	-27.994821	0.000168	1.681825	0.569818	-0.000069
1346	1.3383e+02	-13.5654	-28.064476	0.000171	1.711858	0.579993	-0.000070
1347	1.3393e+02	-13.6103	-28.134539	0.000172	1.721868	0.583385	-0.000070
1348	1.3403e+02	-13.6312	-28.202565	0.000167	1.671814	0.566426	-0.000068
1349	1.3413e+02	-13.6536	-28.270999	0.000168	1.681825	0.569818	-0.000069
1350	1.3423e+02	-13.7242	-28.333322	0.000153	1.531662	0.518941	-0.000063
1351	1.3432e+02	-13.7451	-28.405422	0.000177	1.771923	0.600344	-0.000072
1352	1.3442e+02	-13.7916	-28.471819	0.000163	1.631771	0.552859	-0.000067
1353	1.3452e+02	-13.8654	-28.536586	0.000159	1.591727	0.539292	-0.000065
1354	1.3462e+02	-13.9087	-28.602576	0.000162	1.621760	0.549467	-0.000066
1355	1.3472e+02	-13.8943	-28.678749	-0.000187	-1.872031	-0.634261	-0.000077
1356	1.3482e+02	-13.9665	-28.745553	0.000164	1.641782	0.556251	-0.000067
1357	1.3492e+02	-13.9969	-28.811542	0.000162	1.621760	0.549467	-0.000066
1358	1.3502e+02	-14.0354	-28.882827	0.000175	1.751901	0.593560	-0.000072
1359	1.3512e+02	-14.1076	-28.954112	0.000175	1.751901	0.593560	-0.000072
1360	1.3522e+02	-14.1541	-29.022953	0.000169	1.691836	0.573210	-0.000069
1361	1.3532e+02	-14.1590	-29.097497	0.000183	1.831988	0.620694	-0.000075
1362	1.3542e+02	-14.1846	-29.167152	0.000171	1.711858	0.579993	-0.000070
1363	1.3552e+02	-14.2504	-29.230698	0.000156	1.561695	0.529116	-0.000064
1364	1.3562e+02	-14.2729	-29.301575	0.000174	1.741890	0.590168	-0.000071
1365	1.3572e+02	-14.2985	-29.367565	0.000162	1.621760	0.549467	-0.000066
1366	1.3582e+02	-14.3755	-29.432740	0.000160	1.601738	0.542684	-0.000066
1367	1.3592e+02	-14.4092	-29.506061	0.000180	1.801955	0.610519	-0.000074
1368	1.3602e+02	-14.4445	-29.568385	0.000153	1.531662	0.518941	-0.000063
1369	1.3612e+02	-14.4975	-29.644558	0.000187	1.872031	0.634261	-0.000077
1370	1.3622e+02	-14.5376	-29.713399	0.000169	1.691836	0.573210	-0.000069
1371	1.3631e+02	-14.5761	-29.781425	0.000167	1.671814	0.566426	-0.000068
1372	1.3641e+02	-14.5873	-29.848229	0.000164	1.641782	0.556251	-0.000067
1373	1.3651e+02	-14.6482	-29.918292	0.000172	1.721868	0.583385	-0.000070
1374	1.3661e+02	-14.6354	-29.988355	-0.000172	-1.721868	-0.583385	-0.000070
1375	1.3671e+02	-14.7156	-30.047420	0.000145	1.451575	0.491807	-0.000059
1376	1.3681e+02	-14.7541	-30.115039	0.000166	1.661803	0.563034	-0.000068
1377	1.3691e+02	-14.8103	-30.182250	0.000165	1.651792	0.559642	-0.000068
1378	1.3701e+02	-14.8231	-30.247017	0.000159	1.591727	0.539292	-0.000065
1379	1.3711e+02	-14.8969	-30.313822	0.000164	1.641782	0.556251	-0.000067
1380	1.3721e+02	-14.8841	-30.378996	-0.000160	-1.601738	-0.542684	-0.000066
1381	1.3731e+02	-14.9611	-30.442949	0.000157	1.571706	0.532508	-0.000064
1382	1.3741e+02	-15.0108	-30.510975	0.000167	1.671814	0.566426	-0.000068
1383	1.3751e+02	-15.0156	-30.577372	0.000163	1.631771	0.552859	-0.000067
1384	1.3761e+02	-15.0413	-30.633178	0.000137	1.371488	0.464673	-0.000056
1385	1.3771e+02	-15.1183	-30.699575	0.000163	1.631771	0.552859	-0.000067
1386	1.3781e+02	-15.1632	-30.755788	0.000138	1.381499	0.468065	-0.000056
1387	1.3791e+02	-15.2033	-30.828703	0.000179	1.791945	0.607127	-0.000073
1388	1.3801e+02	-15.2482	-30.883694	0.000135	1.351467	0.457889	-0.000055
1389	1.3811e+02	-15.2595	-30.952942	0.000170	1.701847	0.576601	-0.000070
1390	1.3821e+02	-15.2996	-31.016080	0.000155	1.551684	0.525725	-0.000063
1391	1.3831e+02	-15.3461	-31.081255	0.000160	1.601738	0.542684	-0.000066
1392	1.3840e+02	-15.3974	-31.146023	0.000159	1.591727	0.539292	-0.000065
1393	1.3850e+02	-15.4135	-31.206717	0.000149	1.491619	0.505374	-0.000061
1394	1.3860e+02	-15.4584	-31.268633	0.000152	1.521651	0.515549	-0.000062
1395	1.3870e+02	-15.5306	-31.334215	0.000161	1.611749	0.546075	-0.000066
1396	1.3880e+02	-15.5611	-31.398575	0.000158	1.581716	0.535900	-0.000065
1397	1.3890e+02	-15.6092	-31.455603	0.000140	1.401521	0.474848	-0.000057
1398	1.3900e+02	-15.6445	-31.518334	0.000154	1.541673	0.522333	-0.000063
1399	1.3910e+02	-15.6990	-31.582286	0.000157	1.571706	0.532508	-0.000064
1400	1.3920e+02	-15.7215	-31.643795	0.000151	1.511640	0.512158	-0.000062
1401	1.3930e+02	-15.7359	-31.706526	0.000154	1.541673	0.522333	-0.000063
1402	1.3940e+02	-15.7953	-31.773330	0.000164	1.641782	0.556251	-0.000067
1403	1.3950e+02	-15.8258	-31.840949	0.000166	1.661803	0.563034	-0.000068
1404	1.3960e+02	-15.8578	-31.903272	0.000153	1.531662	0.518941	-0.000063
1405	1.3970e+02	-15.8883	-31.972113	0.000169	1.691836	0.573210	-0.000069
1406	1.3980e+02	-15.9541	-32.032807	0.000149	1.491619	0.505374	-0.000061
1407	1.3990e+02	-15.9717	-32.100833	0.000167	1.671814	0.566426	-0.000068
1408	1.4000e+02	-16.0536	-32.161527	0.000149	1.491619	0.505374	-0.000061
1409	1.4010e+02	-16.0664	-32.229146	0.000166	1.661803	0.563034	-0.000068
1410	1.4020e+02	-16.1306	-32.289433	0.000148	1.481608	0.501982	-0.000061
1411	1.4029e+02	-16.1659	-32.356237	0.000164	1.641782	0.556251	-0.000067
1412	1.4039e+02	-16.2108	-32.419783	0.000156	1.561695	0.529116	-0.000064
1413	1.4049e+02	-16.2461	-32.478440	0.000144	1.441564	0.488415	-0.000059
1414	1.4059e+02	-16.2974	-32.541985	0.000156	1.561695	0.529116	-0.000064
1415	1.4069e+02	-16.3247	-32.610012	0.000167	1.671814	0.566426	-0.000068
1416	1.4079e+02	-16.3664	-32.673150	0.000155	1.551684	0.525725	-0.000063
1417	1.4089e+02	-16.3728	-32.742805	0.000171	1.711858	0.579993	-0.000070
1418	1.4099e+02	-16.4594	-32.801463	0.000144	1.441564	0.488415	-0.000059
1419	1.4109e+02	-16.4963	-32.870304	0.000169	1.691836	0.573210	-0.000069
1420	1.4119e+02	-16.4979	-32.932220	0.000152	1.521651	0.515549	-0.000062
1421	1.4129e+02	-16.5300	-32.993321	0.000150	1.501629	0.508766	-0.000061
1422	1.4139e+02	-16.5926	-33.065013	0.000176	1.761912	0.596952	-0.000072
1423	1.4149e+02	-16.6311	-33.124485	0.000146	1.461586	0.495199	-0.000060
1424	1.4159e+02	-16.6872	-33.190067	0.000161	1.611749	0.546075	-0.000066
1425	1.4169e+02	-16.7001	-33.259316	0.000170	1.701847	0.576601	-0.000070
1426	1.4179e+02	-16.7723	-33.319602	0.000148	1.481608	0.501982	-0.000061
1427	1.4189e+02	-16.7883	-33.385185	0.000161	1.611749	0.546075	-0.000066
1428	1.4199e+02	-16.8252	-33.449137	0.000157	1.571706	0.532508	-0.000064
1429	1.4209e+02	-16.8669	-33.512275	0.000155	1.551684	0.525725	-0.000063
1430	1.4219e+02	-16.8990	-33.580302	0.000167	1.671814	0.566426	-0.000068
1431	1.4228e+02	-16.9632	-33.644662	0.000158	1.581716	0.535900	-0.000065
1432	1.4238e+02	-16.9696	-33.713095	0.000168	1.681825	0.569818	-0.000069
1433	1.4248e+02	-17.0353	-33.777863	0.000159	1.591727	0.539292	-0.000065
1434	1.4258e+02	-17.0658	-33.845482	0.000166	1.661803	0.563034	-0.000068
1435	1.4268e+02	-17.1140	-33.905361	0.000147	1.471597	0.498591	-0.000060
1436	1.4278e+02	-17.1460	-33.977868	0.000178	1.781934	0.603735	-0.000073
1437	1.4288e+02	-17.1926	-34.043857	0.000162	1.621760	0.549467	-0.000066
1438	1.4298e+02	-17.2487	-34.108218	0.000158	1.581716	0.535900	-0.000065
1439	1.4308e+02	-17.2840	-34.170948	0.000154	1.541673	0.522333	-0.000063
1440	1.4318e+02	-17.3017	-34.236123	0.000160	1.601738	0.542684	-0.000066
1441	1.4328e+02	-17.3273	-34.299669	0.000156	1.561695	0.529116	-0.000064
1442	1.4338e+02	-17.3947	-34.361992	0.000153	1.531662	0.518941	-0.000063
1443	1.4348e+02	-17.4428	-34.426352	0.000158	1.581716	0.535900	-0.000065
1444	1.4358e+02	-17.4781	-34.494378	0.000167	1.671814	0.566426	-0.000068
1445	1.4368e+02	-17.5295	-34.556294	0.000152	1.521651	0.515549	-0.000062
1446	1.4378e+02	-17.5696	-34.621469	0.000160	1.601738	0.542684	-0.000066
1447	1.4388e+02	-17.5824	-34.687051	0.000161	1.611749	0.546075	-0.000066
1448	1.4398e+02	-17.6016	-34.748153	0.000150	1.501629	0.508766	-0.000061
1449	1.4408e+02	-17.6835	-34.817401	0.000170	1.701847	0.576601	-0.000070
1450	1.4418e+02	-17.7059	-34.877280	0.000147	1.471597	0.498591	-0.000060
1451	1.4428e+02	-17.7573	-34.947751	0.000173	1.731879	0.586777	-0.000071
1452	1.4437e+02	-17.7925	-35.010074	0.000153	1.531662	0.518941	-0.000063
1453	1.4447e+02	-17.8423	-35.077693	0.000166	1.661803	0.563034	-0.000068
1454	1.4457e+02	-17.8407	-35.139609	-0.000152	-1.521651	-0.515549	-0.000062
1455	1.4467e+02	-17.9016	-35.206006	0.000163	1.631771	0.552859	-0.000067
1456	1.4477e+02	-17.9321	-35.271588	0.000161	1.611749	0.546075	-0.000066
1457	1.4487e+02	-17.9899	-35.339207	0.000166	1.661803	0.563034	-0.000068
1458	1.4497e+02	-18.0412	-35.405196	0.000162	1.621760	0.549467	-0.000066
1459	1.4507e+02	-18.0605	-35.471186	0.000162	1.621760	0.549467	-0.000066
1460	1.4517e+02	-18.0974	-35.537175	0.000162	1.621760	0.549467	-0.000066
1461	1.4527e+02	-18.1407	-35.605201	0.000167	1.671814	0.566426	-0.000068
1462	1.4537e+02	-18.1984	-35.677708	0.000178	1.781934	0.603735	-0.000073
1463	1.4547e+02	-18.2273	-35.746549	0.000169	1.691836	0.573210	-0.000069
1464	1.4557e+02	-18.2818	-35.810909	0.000158	1.581716	0.535900	-0.000065
1465	1.4567e+02	-18.2915	-35.881380	0.000173	1.731879	0.586777	-0.000071
1466	1.4577e+02	-18.3701	-35.952257	0.000174	1.741890	0.590168	-0.000071
1467	1.4587e+02	-18.4070	-36.022728	0.000173	1.731879	0.586777	-0.000071
1468	1.4597e+02	-18.4310	-36.097679	0.000184	1.841999	0.624086	-0.000075
1469	1.4607e+02	-18.4615	-36.166112	0.000168	1.681825	0.569818	-0.000069
1470	1.4617e+02	-18.5000	-36.241063	0.000184	1.841999	0.624086	-0.000075
1471	1.4626e+02	-18.5481	-36.312755	0.000176	1.761912	0.596952	-0.000072
1472	1.4636e+02	-18.5690	-36.381189	0.000168	1.681825	0.569818	-0.000069
1473	1.4646e+02	-18.6284	-36.452067	0.000174	1.741890	0.590168	-0.000071
1474	1.4656e+02	-18.6797	-36.525796	0.000181	1.811966	0.613911	-0.000074
1475	1.4666e+02	-18.7214	-36.595451	0.000171	1.711858	0.579993	-0.000070
1476	1.4676e+02	-18.7423	-36.667958	0.000178	1.781934	0.603735	-0.000073
1477	1.4686e+02	-18.8064	-36.741280	0.000180	1.801955	0.610519	-0.000074
1478	1.4696e+02	-18.8000	-36.813787	-0.000178	-1.781934	-0.603735	-0.000073
1479	1.4706e+02	-18.8722	-36.885886	0.000177	1.771923	0.600344	-0.000072
1480	1.4716e+02	-18.9283	-36.960023	0.000182	1.821977	0.617303	-0.000075
1481	1.4726e+02	-18.9316	-37.036603	0.000188	1.882042	0.637653	-0.000077
1482	1.4736e+02	-18.9957	-37.107481	0.000174	1.741890	0.590168	-0.000071
1483	1.4746e+02	-19.0021	-37.178766	0.000175	1.751901	0.593560	-0.000072
1484	1.4756e+02	-19.0711	-37.256568	0.000191	1.912075	0.647829	-0.000078
1485	1.4766e+02	-19.1016	-37.320928	0.000158	1.581716	0.535900	-0.000065
1486	1.4776e+02	-19.1433	-37.402397	0.000200	2.002173	0.678354	-0.000082
1487	1.4786e+02	-19.2011	-37.468386	0.000162	1.621760	0.549467	-0.000066
1488	1.4796e+02	-19.2075	-37.542115	0.000181	1.811966	0.613911	-0.000074
1489	1.4806e+02	-19.2749	-37.616252	0.000182	1.821977	0.617303	-0.000075
1490	1.4816e+02	-19.3053	-37.693239	0.000189	1.892053	0.641045	-0.000077
1491	1.4825e+02	-19.3519	-37.762080	0.000169	1.691836	0.573210	-0.000069
1492	1.4835e+02	-19.4144	-37.833773	0.000176	1.761912	0.596952	-0.000072
1493	1.4845e+02	-19.4337	-37.911982	0.000192	1.922086	0.651220	-0.000079
1494	1.4855e+02	-19.4658	-37.975935	0.000157	1.571706	0.532508	-0.000064
1495	1.4865e+02	-19.4866	-38.050886	0.000184	1.841999	0.624086	-0.000075
1496	1.4875e+02	-19.5299	-38.127059	0.000187	1.872031	0.634261	-0.000077
1497	1.4885e+02	-19.6117	-38.211379	0.000207	2.072249	0.702097	-0.000085
1498	1.4895e+02	-19.6069	-38.281442	-0.000172	-1.721868	-0.583385	-0.000070
1499	1.4905e+02	-19.6567	-38.354764	0.000180	1.801955	0.610519	-0.000074
1500	1.4915e+02	-19.6936	-38.430529	0.000186	1.862021	0.630870	-0.000076
1501	1.4925e+02	-19.7417	-38.505888	0.000185	1.852010	0.627478	-0.000076
1502	1.4935e+02	-19.7978	-38.580024	0.000182	1.821977	0.617303	-0.000075
1503	1.4945e+02	-19.7994	-38.654160	0.000182	1.821977	0.617303	-0.000075
1504	1.4955e+02	-19.8732	-38.729111	0.000184	1.841999	0.624086	-0.000075
1505	1.4965e+02	-19.8797	-38.806507	0.000190	1.902064	0.644437	-0.000078
1506	1.4975e+02	-19.9262	-38.879013	0.000178	1.781934	0.603735	-0.000073
1507	1.4985e+02	-19.9631	-38.953557	0.000183	1.831988	0.620694	-0.000075
1508	1.4995e+02	-19.9342	-38.934412	0.000047	0.470511	0.159413	0.000019
1509	1.5005e+02	-19.9198	-38.914045	0.000050	0.500543	0.169589	0.000020
1510	1.5015e+02	-19.8748	-38.883087	0.000076	0.760826	0.257775	0.000031
1511	1.5025e+02	-19.8379	-38.849685	0.000082	0.820891	0.278125	0.000034
1512	1.5034e+02	-19.7722	-38.816690	0.000081	0.810880	0.274734	0.000033
1513	1.5044e+02	-19.7369	-38.788583	0.000069	0.690750	0.234032	0.000028
1514	1.5054e+02	-19.6920	-38.752330	0.000089	0.890967	0.301868	0.000036
1515	1.5064e+02	-19.6599	-38.713225	0.000096	0.961043	0.325610	0.000039
1516	1.5074e+02	-19.6037	-38.675750	0.000092	0.920999	0.312043	0.000038
1517	1.5084e+02	-19.5973	-38.639903	0.000088	0.880956	0.298476	0.000036
1518	1.5094e+02	-19.5331	-38.601613	0.000094	0.941021	0.318827	0.000038
1519	1.5104e+02	-19.5059	-38.558435	0.000106	1.061152	0.359528	0.000043
1520	1.5114e+02	-19.4754	-38.516479	0.000103	1.031119	0.349353	0.000042
1521	1.5124e+02	-19.4016	-38.475744	0.000100	1.001086	0.339177	0.000041
1522	1.5134e+02	-19.3791	-38.433788	0.000103	1.031119	0.349353	0.000042
1523	1.5144e+02	-19.3663	-38.396313	0.000092	0.920999	0.312043	0.000038
1524	1.5154e+02	-19.3454	-38.356393	0.000098	0.981065	0.332394	0.000040
1525	1.5164e+02	-19.2893	-38.316473	0.000098	0.981065	0.332394	0.000040
1526	1.5174e+02	-19.2331	-38.278998	0.000092	0.920999	0.312043	0.000038
1527	1.5184e+02	-19.2075	-38.236634	0.000104	1.041130	0.352744	0.000043
1528	1.5194e+02	-19.1561	-38.192641	0.000108	1.081173	0.366311	0.000044
1529	1.5204e+02	-19.1032	-38.145390	0.000116	1.161260	0.393446	0.000047
1530	1.5214e+02	-19.0455	-38.105877	0.000097	0.971054	0.329002	0.000040
1531	1.5224e+02	-19.0214	-38.059848	0.000113	1.131228	0.383270	0.000046
1532	1.5233e+02	-18.9877	-38.019928	0.000098	0.981065	0.332394	0.000040
1533	1.5243e+02	-18.9251	-37.973898	0.000113	1.131228	0.383270	0.000046
1534	1.5253e+02	-18.8882	-37.927869	0.000113	1.131228	0.383270	0.000046
1535	1.5263e+02	-18.8610	-37.880617	0.000116	1.161260	0.393446	0.000047
1536	1.5273e+02	-18.8225	-37.841105	0.000097	0.971054	0.329002	0.000040
1537	1.5283e+02	-18.7791	-37.794668	0.000114	1.141238	0.386662	0.000047
1538	1.5293e+02	-18.7294	-37.750675	0.000108	1.081173	0.366311	0.000044
1539	1.5303e+02	-18.7342	-37.702608	-0.000118	-1.181282	-0.400229	0.000048
1540	1.5313e+02	-18.6717	-37.653320	0.000121	1.211314	0.410404	0.000050
1541	1.5323e+02	-18.5866	-37.610141	0.000106	1.061152	0.359528	0.000043
1542	1.5333e+02	-18.6107	-37.563297	-0.000115	-1.151249	-0.390054	0.000047
1543	1.5343e+02	-18.5594	-37.519304	0.000108	1.081173	0.366311	0.000044
1544	1.5353e+02	-18.5353	-37.470016	0.000121	1.211314	0.410404	0.000050
1545	1.5363e+02	-18.4727	-37.415839	0.000133	1.331445	0.451106	0.000054
1546	1.5373e+02	-18.4487	-37.368180	0.000117	1.171271	0.396837	0.000048
1547	1.5383e+02	-18.4118	-37.319299	0.000120	1.201304	0.407013	0.000049
1548	1.5393e+02	-18.3396	-37.274491	0.000110	1.101195	0.373095	0.000045
1549	1.5403e+02	-18.3107	-37.225203	0.000121	1.211314	0.410404	0.000050
1550	1.5413e+02	-18.2802	-37.166138	0.000145	1.451575	0.491807	0.000059
1551	1.5422e+02	-18.2385	-37.114813	0.000126	1.261369	0.427363	0.000052
1552	1.5432e+02	-18.2161	-37.062673	0.000128	1.281390	0.434147	0.000052
1553	1.5442e+02	-18.1246	-37.010126	0.000129	1.291401	0.437539	0.000053
1554	1.5452e+02	-18.0957	-36.960837	0.000121	1.211314	0.410404	0.000050
1555	1.5462e+02	-18.0460	-36.904624	0.000138	1.381499	0.468065	0.000056
1556	1.5472e+02	-18.0139	-36.854521	0.000123	1.231336	0.417188	0.000050
1557	1.5482e+02	-17.9834	-36.803603	0.000125	1.251358	0.423972	0.000051
1558	1.5492e+02	-17.9401	-36.748612	0.000135	1.351467	0.457889	0.000055
1559	1.5502e+02	-17.9353	-36.697287	0.000126	1.261369	0.427363	0.000052
1560	1.5512e+02	-17.8535	-36.641888	0.000136	1.361477	0.461281	0.000056
1561	1.5522e+02	-17.8343	-36.588526	0.000131	1.311423	0.444322	0.000054
1562	1.5532e+02	-17.8118	-36.534757	0.000132	1.321434	0.447714	0.000054
1563	1.5542e+02	-17.7573	-36.479766	0.000135	1.351467	0.457889	0.000055
1564	1.5552e+02	-17.7220	-36.425589	0.000133	1.331445	0.451106	0.000054
1565	1.5562e+02	-17.6802	-36.376708	0.000120	1.201304	0.407013	0.000049
1566	1.5572e+02	-17.6097	-36.318458	0.000143	1.431553	0.485023	0.000059
1567	1.5582e+02	-17.5952	-36.264689	0.000132	1.321434	0.447714	0.000054
1568	1.5592e+02	-17.5776	-36.206846	0.000142	1.421543	0.481632	0.000058
1569	1.5602e+02	-17.5214	-36.153892	0.000130	1.301412	0.440930	0.000053
1570	1.5612e+02	-17.4958	-36.101752	0.000128	1.281390	0.434147	0.000052
1571	1.5622e+02	-17.4188	-36.049612	0.000128	1.281390	0.434147	0.000052
1572	1.5631e+02	-17.3819	-36.000731	0.000120	1.201304	0.407013	0.000049
1573	1.5641e+02	-17.3466	-35.945740	0.000135	1.351467	0.457889	0.000055
1574	1.5651e+02	-17.2984	-35.889527	0.000138	1.381499	0.468065	0.000056
1575	1.5661e+02	-17.2407	-35.840645	0.000120	1.201304	0.407013	0.000049
1576	1.5671e+02	-17.2439	-35.788098	-0.000129	-1.291401	-0.437539	0.000053
1577	1.5681e+02	-17.1958	-35.733514	0.000134	1.341456	0.454497	0.000055
1578	1.5691e+02	-17.1653	-35.680560	0.000130	1.301412	0.440930	0.000053
1579	1.5701e+02	-17.1124	-35.624347	0.000138	1.381499	0.468065	0.000056
1580	1.5711e+02	-17.0835	-35.568541	0.000137	1.371488	0.464673	0.000056
1581	1.5721e+02	-17.0145	-35.515179	0.000131	1.311423	0.444322	0.000054
1582	1.5731e+02	-16.9968	-35.463039	0.000128	1.281390	0.434147	0.000052
1583	1.5741e+02	-16.9391	-35.408455	0.000134	1.341456	0.454497	0.000055
1584	1.5751e+02	-16.9182	-35.355093	0.000131	1.311423	0.444322	0.000054
1585	1.5761e+02	-16.8781	-35.302139	0.000130	1.301412	0.440930	0.000053
1586	1.5771e+02	-16.8412	-35.245518	0.000139	1.391510	0.471456	0.000057
1587	1.5781e+02	-16.8252	-35.195415	0.000123	1.231336	0.417188	0.000050
1588	1.5791e+02	-16.7706	-35.139609	0.000137	1.371488	0.464673	0.000056
1589	1.5801e+02	-16.7113	-35.081359	0.000143	1.431553	0.485023	0.000059
1590	1.5811e+02	-16.6535	-35.024331	0.000140	1.401521	0.474848	0.000057
1591	1.5821e+02	-16.6263	-34.975042	0.000121	1.211314	0.410404	0.000050
1592	1.5830e+02	-16.6086	-34.921681	0.000131	1.311423	0.444322	0.000054
1593	1.5840e+02	-16.5557	-34.869133	0.000129	1.291401	0.437539	0.000053
1594	1.5850e+02	-16.5477	-34.812513	0.000139	1.391510	0.471456	0.000057
1595	1.5860e+02	-16.4883	-34.758336	0.000133	1.331445	0.451106	0.000054
1596	1.5870e+02	-16.4289	-34.706196	0.000128	1.281390	0.434147	0.000052
1597	1.5880e+02	-16.4113	-34.646724	0.000146	1.461586	0.495199	0.000060
1598	1.5890e+02	-16.3568	-34.592955	0.000132	1.321434	0.447714	0.000054
1599	1.5900e+02	-16.3343	-34.538371	0.000134	1.341456	0.454497	0.000055
1600	1.5910e+02	-16.2846	-34.482158	0.000138	1.381499	0.468065	0.000056
1601	1.5920e+02	-16.2717	-34.426759	0.000136	1.361477	0.461281	0.000056
1602	1.5930e+02	-16.1963	-34.376656	0.000123	1.231336	0.417188	0.000050
1603	1.5940e+02	-16.1482	-34.321258	0.000136	1.361477	0.461281	0.000056
1604	1.5950e+02	-16.1306	-34.267081	0.000133	1.331445	0.451106	0.000054
1605	1.5960e+02	-16.0760	-34.211683	0.000136	1.361477	0.461281	0.000056
1606	1.5970e+02	-16.0343	-34.162394	0.000121	1.211314	0.410404	0.000050
1607	1.5980e+02	-15.9926	-34.097219	0.000160	1.601738	0.542684	0.000066
1608	1.5990e+02	-15.9669	-34.042228	0.000135	1.351467	0.457889	0.000055
1609	1.6000e+02	-15.9316	-33.989274	0.000130	1.301412	0.440930	0.000053
1610	1.6010e+02	-15.8627	-33.931024	0.000143	1.431553	0.485023	0.000059
1611	1.6019e+02	-15.8610	-33.871959	0.000145	1.451575	0.491807	0.000059
1612	1.6029e+02	-15.7696	-33.810043	0.000152	1.521651	0.515549	0.000062
1613	1.6039e+02	-15.7455	-33.755866	0.000133	1.331445	0.451106	0.000054
1614	1.6049e+02	-15.7070	-33.699246	0.000139	1.391510	0.471456	0.000057
1615	1.6059e+02	-15.6974	-33.639366	0.000147	1.471597	0.498591	0.000060
1616	1.6069e+02	-15.6525	-33.583560	0.000137	1.371488	0.464673	0.000056
1617	1.6079e+02	-15.6268	-33.528162	0.000136	1.361477	0.461281	0.000056
1618	1.6089e+02	-15.5370	-33.471134	0.000140	1.401521	0.474848	0.000057
1619	1.6099e+02	-15.5338	-33.416550	0.000134	1.341456	0.454497	0.000055
1620	1.6109e+02	-15.4680	-33.353412	0.000155	1.551684	0.525725	0.000063
1621	1.6119e+02	-15.4231	-33.300457	0.000130	1.301412	0.440930	0.000053
1622	1.6129e+02	-15.4022	-33.240171	0.000148	1.481608	0.501982	0.000061
1623	1.6139e+02	-15.3637	-33.181921	0.000143	1.431553	0.485023	0.000059
1624	1.6149e+02	-15.3012	-33.120819	0.000150	1.501629	0.508766	0.000061
1625	1.6159e+02	-15.3092	-33.065013	-0.000137	-1.371488	-0.464673	0.000056
1626	1.6169e+02	-15.2546	-33.006763	0.000143	1.431553	0.485023	0.000059
1627	1.6179e+02	-15.1600	-32.951365	0.000136	1.361477	0.461281	0.000056
1628	1.6189e+02	-15.1793	-32.895559	-0.000137	-1.371488	-0.464673	0.000056
1629	1.6199e+02	-15.1103	-32.837309	0.000143	1.431553	0.485023	0.000059
1630	1.6209e+02	-15.0589	-32.781503	0.000137	1.371488	0.464673	0.000056
1631	1.6219e+02	-15.0621	-32.723660	-0.000142	-1.421543	-0.481632	0.000058
1632	1.6228e+02	-14.9803	-32.665818	0.000142	1.421543	0.481632	0.000058
1633	1.6238e+02	-14.9595	-32.615714	0.000123	1.231336	0.417188	0.000050
1634	1.6248e+02	-14.9402	-32.560723	0.000135	1.351467	0.457889	0.000055
1635	1.6258e+02	-14.8761	-32.501659	0.000145	1.451575	0.491807	0.000059
1636	1.6268e+02	-14.8375	-32.450741	0.000125	1.251358	0.423972	0.000051
1637	1.6278e+02	-14.7942	-32.394120	0.000139	1.391510	0.471456	0.000057
1638	1.6288e+02	-14.7493	-32.342795	0.000126	1.261369	0.427363	0.000052
1639	1.6298e+02	-14.7044	-32.287396	0.000136	1.361477	0.461281	0.000056
1640	1.6308e+02	-14.6868	-32.231590	0.000137	1.371488	0.464673	0.000056
1641	1.6318e+02	-14.6386	-32.177414	0.000133	1.331445	0.451106	0.000054
1642	1.6328e+02	-14.5680	-32.122830	0.000134	1.341456	0.454497	0.000055
1643	1.6338e+02	-14.5424	-32.061729	0.000150	1.501629	0.508766	0.000061
1644	1.6348e+02	-14.5215	-32.009996	0.000127	1.271380	0.430755	0.000052
1645	1.6358e+02	-14.4798	-31.960300	0.000122	1.221325	0.413796	0.000050
1646	1.6368e+02	-14.4798	-31.897977	-0.000153	-1.531662	-0.518941	0.000063
1647	1.6378e+02	-14.4204	-31.844615	0.000131	1.311423	0.444322	0.000054
1648	1.6388e+02	-14.3787	-31.789624	0.000135	1.351467	0.457889	0.000055
1649	1.6398e+02	-14.3434	-31.734225	0.000136	1.361477	0.461281	0.000056
1650	1.6408e+02	-14.2584	-31.678827	0.000136	1.361477	0.461281	0.000056
1651	1.6418e+02	-14.2408	-31.621391	0.000141	1.411532	0.478240	0.000058
1652	1.6427e+02	-14.2552	-31.569251	-0.000128	-1.281390	-0.434147	0.000052
1653	1.6437e+02	-14.1686	-31.504484	0.000159	1.591727	0.539292	0.000065
1654	1.6447e+02	-14.1269	-31.454381	0.000123	1.231336	0.417188	0.000050
1655	1.6457e+02	-14.0739	-31.390835	0.000156	1.561695	0.529116	0.000064
1656	1.6467e+02	-14.0451	-31.330549	0.000148	1.481608	0.501982	0.000061
1657	1.6477e+02	-14.0226	-31.278001	0.000129	1.291401	0.437539	0.000053
1658	1.6487e+02	-13.9632	-31.217715	0.000148	1.481608	0.501982	0.000061
1659	1.6497e+02	-13.9215	-31.165982	0.000127	1.271380	0.430755	0.000052
1660	1.6507e+02	-13.8991	-31.102844	0.000155	1.551684	0.525725	0.000063
1661	1.6517e+02	-13.8574	-31.047446	0.000136	1.361477	0.461281	0.000056
1662	1.6527e+02	-13.8124	-30.989196	0.000143	1.431553	0.485023	0.000059
1663	1.6537e+02	-13.7354	-30.930131	0.000145	1.451575	0.491807	0.000059
1664	1.6547e+02	-13.7435	-30.869437	-0.000149	-1.491619	-0.505374	0.000061
1665	1.6557e+02	-13.6937	-30.812409	0.000140	1.401521	0.474848	0.000057
1666	1.6567e+02	-13.6729	-30.755788	0.000139	1.391510	0.471456	0.000057
1667	1.6577e+02	-13.5846	-30.698760	0.000140	1.401521	0.474848	0.000057
1668	1.6587e+02	-13.5622	-30.638881	0.000147	1.471597	0.498591	0.000060
1669	1.6597e+02	-13.5349	-30.576558	0.000153	1.531662	0.518941	0.000063
1670	1.6607e+02	-13.4740	-30.515049	0.000151	1.511640	0.512158	0.000062
1671	1.6616e+02	-13.4675	-30.464946	0.000123	1.231336	0.417188	0.000050
1672	1.6626e+02	-13.4002	-30.398956	0.000162	1.621760	0.549467	0.000066
1673	1.6636e+02	-13.3488	-30.339484	0.000146	1.461586	0.495199	0.000060
1674	1.6646e+02	-13.3408	-30.285715	0.000132	1.321434	0.447714	0.000054
1675	1.6656e+02	-13.2863	-30.229502	0.000138	1.381499	0.468065	0.000056
1676	1.6666e+02	-13.2782	-30.164734	0.000159	1.591727	0.539292	0.000065
1677	1.6676e+02	-13.2189	-30.107706	0.000140	1.401521	0.474848	0.000057
1678	1.6686e+02	-13.1579	-30.047012	0.000149	1.491619	0.505374	0.000061
1679	1.6696e+02	-13.1371	-29.983874	0.000155	1.551684	0.525725	0.000063
1680	1.6706e+02	-13.0873	-29.928883	0.000135	1.351467	0.457889	0.000055
1681	1.6716e+02	-13.0424	-29.863708	0.000160	1.601738	0.542684	0.000066
1682	1.6726e+02	-12.9959	-29.804236	0.000146	1.461586	0.495199	0.000060
1683	1.6736e+02	-12.9815	-29.742320	0.000152	1.521651	0.515549	0.000062
1684	1.6746e+02	-12.9333	-29.685699	0.000139	1.391510	0.471456	0.000057
1685	1.6756e+02	-12.8900	-29.622969	0.000154	1.541673	0.522333	0.000063
1686	1.6766e+02	-12.8226	-29.567163	0.000137	1.371488	0.464673	0.000056
1687	1.6776e+02	-12.8130	-29.504025	0.000155	1.551684	0.525725	0.000063
1688	1.6786e+02	-12.7954	-29.446589	0.000141	1.411532	0.478240	0.000058
1689	1.6796e+02	-12.7520	-29.380600	0.000162	1.621760	0.549467	0.000066
1690	1.6806e+02	-12.6943	-29.319906	0.000149	1.491619	0.505374	0.000061
1691	1.6816e+02	-12.6317	-29.259212	0.000149	1.491619	0.505374	0.000061
1692	1.6825e+02	-12.5964	-29.200962	0.000143	1.431553	0.485023	0.000059
1693	1.6835e+02	-12.5579	-29.140675	0.000148	1.481608	0.501982	0.000061
1694	1.6845e+02	-12.5275	-29.088535	0.000128	1.281390	0.434147	0.000052
1695	1.6855e+02	-12.4954	-29.021731	0.000164	1.641782	0.556251	0.000067
1696	1.6865e+02	-12.4200	-28.963074	0.000144	1.441564	0.488415	0.000059
1697	1.6875e+02	-12.4119	-28.903194	0.000147	1.471597	0.498591	0.000060
1698	1.6885e+02	-12.3734	-28.850240	0.000130	1.301412	0.440930	0.000053
1699	1.6895e+02	-12.3301	-28.784658	0.000161	1.611749	0.546075	0.000066
1700	1.6905e+02	-12.2964	-28.725186	0.000146	1.461586	0.495199	0.000060
1701	1.6915e+02	-12.2547	-28.662862	0.000153	1.531662	0.518941	0.000063
1702	1.6925e+02	-12.2259	-28.601761	0.000150	1.501629	0.508766	0.000061
1703	1.6935e+02	-12.2002	-28.543918	0.000142	1.421543	0.481632	0.000058
1704	1.6945e+02	-12.1456	-28.488927	0.000135	1.351467	0.457889	0.000055
1705	1.6955e+02	-12.1087	-28.419679	0.000170	1.701847	0.576601	0.000070
1706	1.6965e+02	-12.0382	-28.362244	0.000141	1.411532	0.478240	0.000058
1707	1.6975e+02	-12.0301	-28.301957	0.000148	1.481608	0.501982	0.000061
1708	1.6985e+02	-11.9660	-28.238004	0.000157	1.571706	0.532508	0.000064
1709	1.6995e+02	-11.9259	-28.179347	0.000144	1.441564	0.488415	0.000059
1710	1.7005e+02	-11.8408	-28.117431	0.000152	1.521651	0.515549	0.000062
1711	1.7015e+02	-11.8232	-28.057144	0.000148	1.481608	0.501982	0.000061
1712	1.7024e+02	-11.8055	-27.992376	0.000159	1.591727	0.539292	0.000065
1713	1.7034e+02	-11.7606	-27.926387	0.000162	1.621760	0.549467	0.000066
1714	1.7044e+02	-11.7221	-27.865693	0.000149	1.491619	0.505374	0.000061
1715	1.7054e+02	-11.7125	-27.806628	0.000145	1.451575	0.491807	0.000059
1716	1.7064e+02	-11.6724	-27.737787	0.000169	1.691836	0.573210	0.000069
1717	1.7074e+02	-11.5938	-27.673835	0.000157	1.571706	0.532508	0.000064
1718	1.7084e+02	-11.5794	-27.607030	0.000164	1.641782	0.556251	0.000067
1719	1.7094e+02	-11.5232	-27.541041	0.000162	1.621760	0.549467	0.000066
1720	1.7104e+02	-11.4943	-27.474644	0.000163	1.631771	0.552859	0.000067
1721	1.7114e+02	-11.4590	-27.407840	0.000164	1.641782	0.556251	0.000067
1722	1.7124e+02	-11.4077	-27.343887	0.000157	1.571706	0.532508	0.000064
1723	1.7134e+02	-11.3580	-27.280342	0.000156	1.561695	0.529116	0.000064
1724	1.7144e+02	-11.3483	-27.207427	0.000179	1.791945	0.607127	0.000073
1725	1.7154e+02	-11.2778	-27.141031	0.000163	1.631771	0.552859	0.000067
1726	1.7164e+02	-11.2617	-27.078300	0.000154	1.541673	0.522333	0.000063
1727	1.7174e+02	-11.2344	-27.010274	0.000167	1.671814	0.566426	0.000068
1728	1.7184e+02	-11.1606	-26.951209	0.000145	1.451575	0.491807	0.000059
1729	1.7194e+02	-11.1574	-26.880331	0.000174	1.741890	0.590168	0.000071
1730	1.7204e+02	-11.0660	-26.811490	0.000169	1.691836	0.573210	0.000069
1731	1.7213e+02	-11.0644	-26.748760	0.000154	1.541673	0.522333	0.000063
1732	1.7223e+02	-11.0403	-26.678289	0.000173	1.731879	0.586777	0.000071
1733	1.7233e+02	-10.9954	-26.607412	0.000174	1.741890	0.590168	0.000071
1734	1.7243e+02	-10.9457	-26.548347	0.000145	1.451575	0.491807	0.000059
1735	1.7253e+02	-10.8799	-26.475433	0.000179	1.791945	0.607127	0.000073
1736	1.7263e+02	-10.8494	-26.413109	0.000153	1.531662	0.518941	0.000063
1737	1.7273e+02	-10.8077	-26.347935	0.000160	1.601738	0.542684	0.000066
1738	1.7283e+02	-10.7772	-26.280723	0.000165	1.651792	0.559642	0.000068
1739	1.7293e+02	-10.7403	-26.209845	0.000174	1.741890	0.590168	0.000071
1740	1.7303e+02	-10.7066	-26.148337	0.000151	1.511640	0.512158	0.000062
1741	1.7313e+02	-10.6345	-26.083162	0.000160	1.601738	0.542684	0.000066
1742	1.7323e+02	-10.6280	-26.017580	0.000161	1.611749	0.546075	0.000066
1743	1.7333e+02	-10.5607	-25.948332	0.000170	1.701847	0.576601	0.000070
1744	1.7343e+02	-10.5398	-25.884379	0.000157	1.571706	0.532508	0.000064
1745	1.7353e+02	-10.5077	-25.811872	0.000178	1.781934	0.603735	0.000073
1746	1.7363e+02	-10.4772	-25.749956	0.000152	1.521651	0.515549	0.000062
1747	1.7373e+02	-10.4355	-25.680707	0.000170	1.701847	0.576601	0.000070
1748	1.7383e+02	-10.3746	-25.619199	0.000151	1.511640	0.512158	0.000062
1749	1.7393e+02	-10.3297	-25.546284	0.000179	1.791945	0.607127	0.000073
1750	1.7403e+02	-10.3120	-25.484368	0.000152	1.521651	0.515549	0.000062
1751	1.7413e+02	-10.2751	-25.417564	0.000164	1.641782	0.556251	0.000067
1752	1.7422e+02	-10.2366	-25.349131	0.000168	1.681825	0.569818	0.000069
1753	1.7432e+02	-10.1452	-25.281919	0.000165	1.651792	0.559642	0.000068
1754	1.7442e+02	-10.1436	-25.218781	0.000155	1.551684	0.525725	0.000063
1755	1.7452e+02	-10.0858	-25.149940	0.000169	1.691836	0.573210	0.000069
1756	1.7462e+02	-10.0489	-25.083951	0.000162	1.621760	0.549467	0.000066
1757	1.7472e+02	-10.0249	-25.012666	0.000175	1.751901	0.593560	0.000072
1758	1.7482e+02	-9.9575	-24.943010	0.000171	1.711858	0.579993	0.000070
1759	1.7492e+02	-9.9238	-24.879872	0.000155	1.551684	0.525725	0.000063
1760	1.7502e+02	-9.8965	-24.813068	0.000164	1.641782	0.556251	0.000067
1761	1.7512e+02	-9.8548	-24.744227	0.000169	1.691836	0.573210	0.000069
1762	1.7522e+02	-9.8083	-24.678645	0.000161	1.611749	0.546075	0.000066
1763	1.7532e+02	-9.7569	-24.613470	0.000160	1.601738	0.542684	0.000066
1764	1.7542e+02	-9.7265	-24.543814	0.000171	1.711858	0.579993	0.000070
1765	1.7552e+02	-9.6928	-24.473752	0.000172	1.721868	0.583385	0.000070
1766	1.7562e+02	-9.6831	-24.405725	0.000167	1.671814	0.566426	0.000068
1767	1.7572e+02	-9.6446	-24.341365	0.000158	1.581716	0.535900	0.000065
1768	1.7582e+02	-9.5789	-24.275376	0.000162	1.621760	0.549467	0.000066
1769	1.7592e+02	-9.5532	-24.208164	0.000165	1.651792	0.559642	0.000068
1770	1.7602e+02	-9.5131	-24.138509	0.000171	1.711858	0.579993	0.000070
1771	1.7612e+02	-9.4521	-24.070075	0.000168	1.681825	0.569818	0.000069
1772	1.7621e+02	-9.4297	-24.001234	0.000169	1.691836	0.573210	0.000069
1773	1.7631e+02	-9.3864	-23.938911	0.000153	1.531662	0.518941	0.000063
1774	1.7641e+02	-9.3318	-23.864367	0.000183	1.831988	0.620694	0.000075
1775	1.7651e+02	-9.2853	-23.797156	0.000165	1.651792	0.559642	0.000068
1776	1.7661e+02	-9.2677	-23.726685	0.000173	1.731879	0.586777	0.000071
1777	1.7671e+02	-9.2115	-23.659881	0.000164	1.641782	0.556251	0.000067
1778	1.7681e+02	-9.1955	-23.583708	0.000187	1.872031	0.634261	0.000077
1779	1.7691e+02	-9.1666	-23.516904	0.000164	1.641782	0.556251	0.000067
1780	1.7701e+02	-9.1024	-23.446434	0.000173	1.731879	0.586777	0.000071
1781	1.7711e+02	-9.0912	-23.375556	0.000174	1.741890	0.590168	0.000071
1782	1.7721e+02	-9.0046	-23.301420	0.000182	1.821977	0.617303	0.000075
1783	1.7731e+02	-8.9965	-23.235430	0.000162	1.621760	0.549467	0.000066
1784	1.7741e+02	-8.9260	-23.167811	0.000166	1.661803	0.563034	0.000068
1785	1.7751e+02	-8.9292	-23.092046	-0.000186	-1.862021	-0.630870	0.000076
1786	1.7761e+02	-8.8666	-23.028093	0.000157	1.571706	0.532508	0.000064
1787	1.7771e+02	-8.8457	-22.952327	0.000186	1.862021	0.630870	0.000076
1788	1.7781e+02	-8.7848	-22.879820	0.000178	1.781934	0.603735	0.000073
1789	1.7791e+02	-8.7591	-22.807720	0.000177	1.771923	0.600344	0.000072
1790	1.7801e+02	-8.6998	-22.742546	0.000160	1.601738	0.542684	0.000066
1791	1.7810e+02	-8.6484	-22.670853	0.000176	1.761912	0.596952	0.000072
1792	1.7820e+02	-8.6388	-22.597939	0.000179	1.791945	0.607127	0.000073
1793	1.7830e+02	-8.5923	-22.528283	0.000171	1.711858	0.579993	0.000070
1794	1.7840e+02	-8.5425	-22.461887	0.000163	1.631771	0.552859	0.000067
1795	1.7850e+02	-8.5265	-22.384492	0.000190	1.902064	0.644437	0.000078
1796	1.7860e+02	-8.4720	-22.316058	0.000168	1.681825	0.569818	0.000069
1797	1.7870e+02	-8.4302	-22.247217	0.000169	1.691836	0.573210	0.000069
1798	1.7880e+02	-8.3709	-22.183264	0.000157	1.571706	0.532508	0.000064
1799	1.7890e+02	-8.3613	-22.110350	0.000179	1.791945	0.607127	0.000073
1800	1.7900e+02	-8.2955	-22.042324	0.000167	1.671814	0.566426	0.000068
1801	1.7910e+02	-8.2490	-21.967780	0.000183	1.831988	0.620694	0.000075
1802	1.7920e+02	-8.2233	-21.910345	0.000141	1.411532	0.478240	0.000058
1803	1.7930e+02	-8.1623	-21.834579	0.000186	1.862021	0.630870	0.000076
1804	1.7940e+02	-8.1607	-21.768997	0.000161	1.611749	0.546075	0.000066
1805	1.7950e+02	-8.0966	-21.700971	0.000167	1.671814	0.566426	0.000068
1806	1.7960e+02	-8.0789	-21.630500	0.000173	1.731879	0.586777	0.000071
1807	1.7970e+02	-8.0356	-21.560845	0.000171	1.711858	0.579993	0.000070
1808	1.7980e+02	-7.9859	-21.495670	0.000160	1.601738	0.542684	0.000066
1809	1.7990e+02	-7.9618	-21.421126	0.000183	1.831988	0.620694	0.000075
1810	1.8000e+02	-7.9121	-21.350249	0.000174	1.741890	0.590168	0.000071
1811	1.8009e+02	-7.8623	-21.285481	0.000159	1.591727	0.539292	0.000065
1812	1.8019e+02	-7.8254	-21.213382	0.000177	1.771923	0.600344	0.000072
1813	1.8029e+02	-7.7982	-21.153502	0.000147	1.471597	0.498591	0.000060
1814	1.8039e+02	-7.7164	-21.078551	0.000184	1.841999	0.624086	0.000075
1815	1.8049e+02	-7.7308	-21.005637	-0.000179	-1.791945	-0.607127	0.000073
1816	1.8059e+02	-7.6779	-20.939240	0.000163	1.631771	0.552859	0.000067
1817	1.8069e+02	-7.6281	-20.869177	0.000172	1.721868	0.583385	0.000070
1818	1.8079e+02	-7.5864	-20.796263	0.000179	1.791945	0.607127	0.000073
1819	1.8089e+02	-7.5463	-20.727015	0.000170	1.701847	0.576601	0.000070
1820	1.8099e+02	-7.5206	-20.656137	0.000174	1.741890	0.590168	0.000071
1821	1.8109e+02	-7.4436	-20.589333	0.000164	1.641782	0.556251	0.000067
1822	1.8119e+02	-7.4292	-20.513975	0.000185	1.852010	0.627478	0.000076
1823	1.8129e+02	-7.4100	-20.445948	0.000167	1.671814	0.566426	0.000068
1824	1.8139e+02	-7.3378	-20.368961	0.000189	1.892053	0.641045	0.000077
1825	1.8149e+02	-7.3073	-20.299305	0.000171	1.711858	0.579993	0.000070
1826	1.8159e+02	-7.2575	-20.222725	0.000188	1.882042	0.637653	0.000077
1827	1.8169e+02	-7.2543	-20.156328	0.000163	1.631771	0.552859	0.000067
1828	1.8179e+02	-7.1982	-20.079747	0.000188	1.882042	0.637653	0.000077
1829	1.8189e+02	-7.1565	-20.013758	0.000162	1.621760	0.549467	0.000066
1830	1.8199e+02	-7.1308	-19.937585	0.000187	1.872031	0.634261	0.000077
1831	1.8209e+02	-7.0410	-19.864671	0.000179	1.791945	0.607127	0.000073
1832	1.8218e+02	-7.0201	-19.791349	0.000180	1.801955	0.610519	0.000074
1833	1.8228e+02	-6.9945	-19.715583	0.000186	1.862021	0.630870	0.000076
1834	1.8238e+02	-6.9383	-19.643891	0.000176	1.761912	0.596952	0.000072
1835	1.8248e+02	-6.9094	-19.566496	0.000190	1.902064	0.644437	0.000078
1836	1.8258e+02	-6.8709	-19.493174	0.000180	1.801955	0.610519	0.000074
1837	1.8268e+02	-6.8036	-19.420667	0.000178	1.781934	0.603735	0.000073
1838	1.8278e+02	-6.7827	-19.347753	0.000179	1.791945	0.607127	0.000073
1839	1.8288e+02	-6.7586	-19.275246	0.000178	1.781934	0.603735	0.000073
1840	1.8298e+02	-6.6961	-19.201517	0.000181	1.811966	0.613911	0.000074
1841	1.8308e+02	-6.6415	-19.128195	0.000180	1.801955	0.610519	0.000074
1842	1.8318e+02	-6.6126	-19.053244	0.000184	1.841999	0.624086	0.000075
1843	1.8328e+02	-6.5950	-18.979515	0.000181	1.811966	0.613911	0.000074
1844	1.8338e+02	-6.5469	-18.900898	0.000193	1.932097	0.654612	0.000079
1845	1.8348e+02	-6.5036	-18.828798	0.000177	1.771923	0.600344	0.000072
1846	1.8358e+02	-6.4763	-18.755069	0.000181	1.811966	0.613911	0.000074
1847	1.8368e+02	-6.4282	-18.681748	0.000180	1.801955	0.610519	0.000074
1848	1.8378e+02	-6.3784	-18.609241	0.000178	1.781934	0.603735	0.000073
1849	1.8388e+02	-6.3463	-18.533475	0.000186	1.862021	0.630870	0.000076
1850	1.8398e+02	-6.3111	-18.461783	0.000176	1.761912	0.596952	0.000072
1851	1.8407e+02	-6.2357	-18.389683	0.000177	1.771923	0.600344	0.000072
1852	1.8417e+02	-6.2340	-18.307400	0.000202	2.022194	0.685138	0.000083
1853	1.8427e+02	-6.1635	-18.228376	0.000194	1.942107	0.658004	0.000079
1854	1.8437e+02	-6.1827	-18.158720	-0.000171	-1.711858	-0.579993	0.000070
1855	1.8447e+02	-6.0977	-18.077251	0.000200	2.002173	0.678354	0.000082
1856	1.8457e+02	-6.0624	-18.005152	0.000177	1.771923	0.600344	0.000072
1857	1.8467e+02	-5.9950	-17.924498	0.000198	1.982151	0.671571	0.000081
1858	1.8477e+02	-6.0207	-17.849954	-0.000183	-1.831988	-0.620694	0.000075
1859	1.8487e+02	-5.9517	-17.775003	0.000184	1.841999	0.624086	0.000075
1860	1.8497e+02	-5.9068	-17.701274	0.000181	1.811966	0.613911	0.000074
1861	1.8507e+02	-5.8811	-17.625101	0.000187	1.872031	0.634261	0.000077
1862	1.8517e+02	-5.8474	-17.548521	0.000188	1.882042	0.637653	0.000077
1863	1.8527e+02	-5.7913	-17.471940	0.000188	1.882042	0.637653	0.000077
1864	1.8537e+02	-5.7480	-17.402285	0.000171	1.711858	0.579993	0.000070
1865	1.8547e+02	-5.7095	-17.320816	0.000200	2.002173	0.678354	0.000082
1866	1.8557e+02	-5.6726	-17.244236	0.000188	1.882042	0.637653	0.000077
1867	1.8567e+02	-5.6437	-17.166433	0.000191	1.912075	0.647829	0.000078
1868	1.8577e+02	-5.5875	-17.090668	0.000186	1.862021	0.630870	0.000076
1869	1.8587e+02	-5.5490	-17.014902	0.000186	1.862021	0.630870	0.000076
1870	1.8597e+02	-5.5137	-16.940766	0.000182	1.821977	0.617303	0.000075
1871	1.8606e+02	-5.4720	-16.862149	0.000193	1.932097	0.654612	0.000079
1872	1.8616e+02	-5.4464	-16.778236	0.000206	2.062238	0.698705	0.000084
1873	1.8626e+02	-5.3822	-16.704507	0.000181	1.811966	0.613911	0.000074
1874	1.8636e+02	-5.3597	-16.625890	0.000193	1.932097	0.654612	0.000079
1875	1.8646e+02	-5.3244	-16.552161	0.000181	1.811966	0.613911	0.000074
1876	1.8656e+02	-5.2892	-16.473136	0.000194	1.942107	0.658004	0.000079
1877	1.8666e+02	-5.2234	-16.393705	0.000195	1.952118	0.661396	0.000080
1878	1.8676e+02	-5.2122	-16.315088	0.000193	1.932097	0.654612	0.000079
1879	1.8686e+02	-5.1688	-16.235248	0.000196	1.962129	0.664787	0.000080
1880	1.8696e+02	-5.1255	-16.154595	0.000198	1.982151	0.671571	0.000081
1881	1.8706e+02	-5.0790	-16.075163	0.000195	1.952118	0.661396	0.000080
1882	1.8716e+02	-5.0068	-15.992880	0.000202	2.022194	0.685138	0.000083
1883	1.8726e+02	-5.0020	-15.913448	0.000195	1.952118	0.661396	0.000080
1884	1.8736e+02	-4.9523	-15.827906	0.000210	2.102281	0.712272	0.000086
1885	1.8746e+02	-4.9266	-15.743993	0.000206	2.062238	0.698705	0.000084
1886	1.8756e+02	-4.8624	-15.660488	0.000205	2.052227	0.695313	0.000084
1887	1.8766e+02	-4.8175	-15.579834	0.000198	1.982151	0.671571	0.000081
1888	1.8776e+02	-4.8111	-15.495922	0.000206	2.062238	0.698705	0.000084
1889	1.8786e+02	-4.7646	-15.409565	0.000212	2.122303	0.719056	0.000087
1890	1.8796e+02	-4.6988	-15.323616	0.000211	2.112292	0.715664	0.000086
1891	1.8806e+02	-4.7116	-15.241740	-0.000201	-2.012184	-0.681746	0.000082
1892	1.8815e+02	-4.6715	-15.161901	0.000196	1.962129	0.664787	0.000080
1893	1.8825e+02	-4.5993	-15.069434	0.000227	2.272466	0.769932	0.000093
1894	1.8835e+02	-4.5689	-14.990002	0.000195	1.952118	0.661396	0.000080
1895	1.8845e+02	-4.5320	-14.906904	0.000204	2.042216	0.691922	0.000084
1896	1.8855e+02	-4.4678	-14.820548	0.000212	2.122303	0.719056	0.000087
1897	1.8865e+02	-4.4517	-14.733376	0.000214	2.142325	0.725839	0.000088
1898	1.8875e+02	-4.3747	-14.649057	0.000207	2.072249	0.702097	0.000085
1899	1.8885e+02	-4.3667	-14.559034	0.000221	2.212401	0.749582	0.000090
1900	1.8895e+02	-4.3154	-14.480009	0.000194	1.942107	0.658004	0.000079
1901	1.8905e+02	-4.2929	-14.388765	0.000224	2.242433	0.759757	0.000092
1902	1.8915e+02	-4.2657	-14.304037	0.000208	2.082260	0.705489	0.000085
1903	1.8925e+02	-4.1919	-14.218495	0.000210	2.102281	0.712272	0.000086
1904	1.8935e+02	-4.1646	-14.137434	0.000199	1.992162	0.674963	0.000081
1905	1.8945e+02	-4.1229	-14.045782	0.000225	2.252444	0.763149	0.000092
1906	1.8955e+02	-4.0908	-13.965128	0.000198	1.982151	0.671571	0.000081
1907	1.8965e+02	-4.0443	-13.873069	0.000226	2.262455	0.766541	0.000093
1908	1.8975e+02	-3.9528	-13.795674	0.000190	1.902064	0.644437	0.000078
1909	1.8985e+02	-3.9689	-13.709725	-0.000211	-2.112292	-0.715664	0.000086
1910	1.8995e+02	-3.9592	-13.623368	0.000212	2.122303	0.719056	0.000087
1911	1.9004e+02	-3.8855	-13.530494	0.000228	2.282477	0.773324	0.000093
1912	1.9014e+02	-3.8341	-13.444137	0.000212	2.122303	0.719056	0.000087
1913	1.9024e+02	-3.7940	-13.356151	0.000216	2.162346	0.732623	0.000088
1914	1.9034e+02	-3.7748	-13.272239	0.000206	2.062238	0.698705	0.000084
1915	1.9044e+02	-3.7026	-13.186289	0.000211	2.112292	0.715664	0.000086
1916	1.9054e+02	-3.6978	-13.095045	0.000224	2.242433	0.759757	0.000092
1917	1.9064e+02	-3.6769	-13.015613	0.000195	1.952118	0.661396	0.000080
1918	1.9074e+02	-3.6191	-12.924775	0.000223	2.232423	0.756365	0.000091
1919	1.9084e+02	-3.5470	-12.836382	0.000217	2.172357	0.736015	0.000089
1920	1.9094e+02	-3.5293	-12.745952	0.000222	2.222412	0.752973	0.000091
1921	1.9104e+02	-3.4716	-12.659188	0.000213	2.132314	0.722447	0.000087
1922	1.9114e+02	-3.4379	-12.575683	0.000205	2.052227	0.695313	0.000084
1923	1.9124e+02	-3.4090	-12.484438	0.000224	2.242433	0.759757	0.000092
1924	1.9134e+02	-3.3368	-12.400526	0.000206	2.062238	0.698705	0.000084
1925	1.9144e+02	-3.3095	-12.310096	0.000222	2.222412	0.752973	0.000091
1926	1.9154e+02	-3.2807	-12.220888	0.000219	2.192379	0.742798	0.000090
1927	1.9164e+02	-3.2422	-12.133716	0.000214	2.142325	0.725839	0.000088
1928	1.9174e+02	-3.1940	-12.042064	0.000225	2.252444	0.763149	0.000092
1929	1.9184e+02	-3.1876	-11.951634	0.000222	2.222412	0.752973	0.000091
1930	1.9194e+02	-3.1555	-11.862833	0.000218	2.182368	0.739406	0.000089
1931	1.9203e+02	-3.0881	-11.773625	0.000219	2.192379	0.742798	0.000090
1932	1.9213e+02	-3.0400	-11.682381	0.000224	2.242433	0.759757	0.000092
1933	1.9223e+02	-2.9967	-11.596431	0.000211	2.112292	0.715664	0.000086
1934	1.9233e+02	-2.9775	-11.506816	0.000220	2.202390	0.746190	0.000090
1935	1.9243e+02	-2.9197	-11.413127	0.000230	2.302499	0.780108	0.000094
1936	1.9253e+02	-2.9069	-11.324734	0.000217	2.172357	0.736015	0.000089
1937	1.9263e+02	-2.8491	-11.230230	0.000232	2.322520	0.786891	0.000095
1938	1.9273e+02	-2.8026	-11.141022	0.000219	2.192379	0.742798	0.000090
1939	1.9283e+02	-2.7641	-11.048556	0.000227	2.272466	0.769932	0.000093
1940	1.9293e+02	-2.7224	-10.960162	0.000217	2.172357	0.736015	0.000089
1941	1.9303e+02	-2.6694	-10.868510	0.000225	2.252444	0.763149	0.000092
1942	1.9313e+02	-2.6662	-10.778488	0.000221	2.212401	0.749582	0.000090
1943	1.9323e+02	-2.5908	-10.678281	0.000246	2.462672	0.834376	0.000101
1944	1.9333e+02	-2.5908	-10.588259	-0.000221	-2.212401	-0.749582	0.000090
1945	1.9343e+02	-2.5202	-10.491311	0.000238	2.382585	0.807242	0.000097
1946	1.9353e+02	-2.4801	-10.394771	0.000237	2.372575	0.803850	0.000097
1947	1.9363e+02	-2.4288	-10.299453	0.000234	2.342542	0.793675	0.000096
1948	1.9373e+02	-2.4288	-10.211059	-0.000217	-2.172357	-0.736015	0.000089
1949	1.9383e+02	-2.3807	-10.110038	0.000248	2.482694	0.841160	0.000102
1950	1.9393e+02	-2.3293	-10.017164	0.000228	2.282477	0.773324	0.000093
1951	1.9403e+02	-2.2844	-9.917773	0.000244	2.442651	0.827592	0.000100
1952	1.9412e+02	-2.2299	-9.826935	0.000223	2.232423	0.756365	0.000091
1953	1.9422e+02	-2.1930	-9.729173	0.000240	2.402607	0.814025	0.000098
1954	1.9432e+02	-2.1930	-9.630189	-0.000243	-2.432640	-0.824201	0.000099
1955	1.9442e+02	-2.1352	-9.536907	0.000229	2.292488	0.776716	0.000094
1956	1.9452e+02	-2.0663	-9.441182	0.000235	2.352553	0.797066	0.000096
1957	1.9462e+02	-2.0807	-9.346679	-0.000232	-2.322520	-0.786891	0.000095
1958	1.9472e+02	-2.0390	-9.249324	0.000239	2.392596	0.810634	0.000098
1959	1.9482e+02	-1.9556	-9.144637	0.000257	2.572792	0.871685	0.000105
1960	1.9492e+02	-1.9267	-9.052577	0.000226	2.262455	0.766541	0.000093
1961	1.9502e+02	-1.9106	-8.958074	0.000232	2.322520	0.786891	0.000095
1962	1.9512e+02	-1.8417	-8.857867	0.000246	2.462672	0.834376	0.000101
1963	1.9522e+02	-1.8096	-8.759291	0.000242	2.422629	0.820809	0.000099
1964	1.9532e+02	-1.8032	-8.659899	0.000244	2.442651	0.827592	0.000100
1965	1.9542e+02	-1.7486	-8.565803	0.000231	2.312509	0.783499	0.000095
1966	1.9552e+02	-1.6893	-8.469263	0.000237	2.372575	0.803850	0.000097
1967	1.9562e+02	-1.6508	-8.375981	0.000229	2.292488	0.776716	0.000094
1968	1.9572e+02	-1.5914	-8.276997	0.000243	2.432640	0.824201	0.000099
1969	1.9582e+02	-1.5609	-8.182086	0.000233	2.332531	0.790283	0.000095
1970	1.9592e+02	-1.5160	-8.083917	0.000241	2.412618	0.817417	0.000099
1971	1.9601e+02	-1.4775	-7.990228	0.000230	2.302499	0.780108	0.000094
1972	1.9611e+02	-1.4518	-7.894502	0.000235	2.352553	0.797066	0.000096
1973	1.9621e+02	-1.3877	-7.796333	0.000241	2.412618	0.817417	0.000099
1974	1.9631e+02	-1.4149	-7.701422	-0.000233	-2.332531	-0.790283	0.000095
1975	1.9641e+02	-1.3476	-7.606511	0.000233	2.332531	0.790283	0.000095
1976	1.9651e+02	-1.3171	-7.504675	0.000250	2.502716	0.847943	0.000102
1977	1.9661e+02	-1.2529	-7.401210	0.000254	2.542759	0.861510	0.000104
1978	1.9671e+02	-1.2112	-7.306300	0.000233	2.332531	0.790283	0.000095
1979	1.9681e+02	-1.1550	-7.208945	0.000239	2.392596	0.810634	0.000098
1980	1.9691e+02	-1.1278	-7.116071	0.000228	2.282477	0.773324	0.000093
1981	1.9701e+02	-1.0620	-7.014235	0.000250	2.502716	0.847943	0.000102
1982	1.9711e+02	-1.0315	-6.910770	0.000254	2.542759	0.861510	0.000104
1983	1.9721e+02	-0.9898	-6.815859	0.000233	2.332531	0.790283	0.000095
1984	1.9731e+02	-0.9609	-6.714838	0.000248	2.482694	0.841160	0.000102
1985	1.9741e+02	-0.9369	-6.615039	0.000245	2.452661	0.830984	0.000100
1986	1.9751e+02	-0.8679	-6.511167	0.000255	2.552770	0.864902	0.000104
1987	1.9761e+02	-0.8518	-6.406073	0.000258	2.582803	0.875077	0.000106
1988	1.9771e+02	-0.8246	-6.311569	0.000232	2.322520	0.786891	0.000095
1989	1.9781e+02	-0.7668	-6.203623	0.000265	2.652879	0.898820	0.000108
1990	1.9791e+02	-0.7331	-6.098529	0.000258	2.582803	0.875077	0.000106
1991	1.9800e+02	-0.6754	-5.995064	0.000254	2.542759	0.861510	0.000104
1992	1.9810e+02	-0.6321	-5.894043	0.000248	2.482694	0.841160	0.000102
1993	1.9820e+02	-0.6016	-5.791800	0.000251	2.512727	0.851335	0.000103
1994	1.9830e+02	-0.5904	-5.685076	0.000262	2.622846	0.888644	0.000107
1995	1.9840e+02	-0.5246	-5.577538	0.000264	2.642868	0.895428	0.000108
1996	1.9850e+02	-0.4749	-5.481812	0.000235	2.352553	0.797066	0.000096
1997	1.9860e+02	-0.4331	-5.376718	0.000258	2.582803	0.875077	0.000106
1998	1.9870e+02	-0.4299	-5.271624	0.000258	2.582803	0.875077	0.000106
1999	1.9880e+02	-0.3882	-5.164900	0.000262	2.622846	0.888644	0.000107
2000	1.9890e+02	-0.3433	-5.056547	0.000266	2.662890	0.902211	0.000109
2001	1.9900e+02	-0.2984	-4.952674	0.000255	2.552770	0.864902	0.000104
2002	1.9910e+02	-0.2583	-4.844729	0.000265	2.652879	0.898820	0.000108
2003	1.9920e+02	-0.2294	-4.737190	0.000264	2.642868	0.895428	0.000108
2004	1.9930e+02	-0.1797	-4.633318	0.000255	2.552770	0.864902	0.000104
2005	1.9940e+02	-0.1396	-4.528631	0.000257	2.572792	0.871685	0.000105
2006	1.9950e+02	-0.0946	-4.424351	0.000256	2.562781	0.868294	0.000105
2007	1.9960e+02	-0.0289	-4.313961	0.000271	2.712944	0.919170	0.000111
2008	1.9970e+02	-0.0353	-4.207645	-0.000261	-2.612835	-0.885253	0.000107
2009	1.9980e+02	0.0080	-4.096848	-0.000261	-2.612835	-0.885253	0.000111

Center data before PMax,+/-Pr and +/-Vc Calc.

PMax (uC/cm2):	3.90e+01
Pr (uC/cm2):	1.14e+00
-Pr (uC/cm2):	-4.10e+00
PLoss (uC/cm2):	-1.37e+00
Vc:	1.10e+00
-Vc:	-4.47e-01
C (Max-Eff) (nF):	1.95e-01
K (Eff):	6.60e+02
Vert. (+/-Pr) Shift (uC/cm2):	-1.48e+00
Horiz. Shift (+/-Vc):	3.27e-01
Offset (uC/cm2):	2.72e+00

A (Loop Area - uC/cm2·Volts):	3.25e-02



Hysteresis Version: 5.48.1 - Radiant Technologies, Inc., 1999 - 9/12/24

