»»»»»»»»»»»»»»»»»»»»»»»»»»»»»»»»»»»» Hysteresis ««««««««««««««««««««««««««««««««««««
»»»  Executed Version:	5.48.1
»»»  Vision Version:	5.48.4 (R)
»»»  Vision Compiled:	9/18/24
»»»  Driver Version:	5.47.0
»»»  Windows Version:	Windows 8 or 8.1
»»»  Processor Information:	x86 (AMD or Intel) - 32 Processors
»»»  Tester Name:	PMF21124-494 (100V)
»»»  Tester S/N:	PMF21124-494
»»»  Internal Amp Type:	100V RevK 270k
»»»  Internal Amp S/N:	iAB2-596/K     
»»»  Execution Count:	1
»»»»»»»»»»»»»»»»»»»»»»»»»»»»»»»»»»»»»»»»»»««««««««««««««««««««««««««««««««««««««««««

Stored:	6/10/2025 - 14:44:59
Configured:	06/10/25 02:01:08 PM
Executed:	06/10/25 02:44:36 PM

»»»»»»»»»»»»»»»»»»»»»»»»»»»»»»»»»»» Sample Info ««««««««««««««««««««««««««««««««««««
Sample Name:	
Lot Name:	
Wafer Name:	
Die Row/Column:	0/0
Capacitor Number:	0
Sample Area (cm2):	1.00e-04
Sample Thickness (microns):	3.00e-01

Amplifier:	Internal

»»»»»»»»»»»»»»»»»»»»»»»»»»»»»»»»»»» Tester Info «««««««««««««««««««««««««««««««««««
Tester Name:	PMF21124-494 (100V)
Tester Serial Number:	PMF21124-494
Return Signal Amp. Level:	1.79 [Index: 2]

»»»»»»»»»»»»»»»»»»»»»»»»»»»»»»»» Hysteresis Info ««««««««««««««««««««««««««««««««««
Task Name:	Hyst-1027
Volts:	20.00
Field:	666.67 (kV/cm)
DCBias:	0.00
DCField:	0.00 (kV/cm)
Hysteresis Period (ms):	1.00e+00
Preset:	Enabled
Preset Delay (ms):	1.00e+03
Profile:	Standard Bipolar

»»»»»»»»»»»»»»»»»»»»»»»»»»»»»»»»»»»»»» Data «««««««««««««««««««««««««««««««««««««««
Points:	2001

Valid Data

Point	Time (ms)	Drive Voltage	Measured Polarization (uC/cm2)	Capacitance (uF)	Normalized Capacitance (uF/cm2)	Dielectric Constant	Instantaneous Current (mA)
   1	0.0000e+00	0.0080	-1.158223	0.000213	2.134560	0.723209	0.017276
   2	5.0000e-04	0.0674	-1.071843	0.000213	2.134560	0.723209	0.017276
   3	1.0000e-03	0.1620	-1.123585	-0.000128	-1.278623	-0.433209	-0.010349
   4	1.5000e-03	0.1572	-0.970496	-0.000378	-3.783032	-1.281726	0.030618
   5	2.0000e-03	0.1893	-0.903786	0.000165	1.648472	0.558518	0.013342
   6	2.5000e-03	0.2166	-0.748130	0.000385	3.846435	1.303208	0.031131
   7	3.0000e-03	0.2454	-0.620270	0.000316	3.159572	1.070492	0.025572
   8	3.5000e-03	0.3369	-0.613001	0.000018	0.179641	0.060864	0.001454
   9	4.0000e-03	0.3465	-0.474878	0.000341	3.413183	1.156418	0.027625
  10	4.5000e-03	0.4075	-0.400043	0.000185	1.849248	0.626542	0.014967
  11	5.0000e-03	0.4171	-0.256361	0.000355	3.550556	1.202961	0.028736
  12	5.5000e-03	0.4684	-0.163994	0.000228	2.282500	0.773332	0.018473
  13	6.0000e-03	0.5166	-0.064785	0.000245	2.451574	0.830616	0.019842
  14	6.5000e-03	0.5823	-0.009622	0.000136	1.363160	0.461851	0.011033
  15	7.0000e-03	0.6080	0.102844	0.000278	2.779155	0.941603	0.022493
  16	7.5000e-03	0.6481	0.210178	0.000265	2.652350	0.898640	0.021467
  17	8.0000e-03	0.6722	0.303828	0.000231	2.314201	0.784073	0.018730
  18	8.5000e-03	0.7235	0.435109	0.000324	3.244109	1.099134	0.026256
  19	9.0000e-03	0.7716	0.503529	0.000169	1.690741	0.572838	0.013684
  20	9.5000e-03	0.8021	0.620270	0.000288	2.884826	0.977406	0.023348
  21	1.0000e-02	0.8342	0.725466	0.000260	2.599514	0.880739	0.021039
  22	1.0500e-02	0.8599	0.848195	0.000303	3.032766	1.027529	0.024546
  23	1.1000e-02	0.9305	0.952963	0.000259	2.588947	0.877159	0.020954
  24	1.1500e-02	0.9545	1.019245	0.000164	1.637905	0.554937	0.013256
  25	1.2000e-02	0.9978	1.149243	0.000321	3.212407	1.088393	0.026000
  26	1.2500e-02	1.0379	1.241182	0.000227	2.271933	0.769752	0.018388
  27	1.3000e-02	1.0973	1.331411	0.000223	2.229664	0.755431	0.018046
  28	1.3500e-02	1.1342	1.478087	0.000362	3.624526	1.228022	0.029335
  29	1.4000e-02	1.1695	1.542658	0.000160	1.595637	0.540616	0.012914
  30	1.4500e-02	1.2192	1.638019	0.000236	2.356470	0.798394	0.019072
  31	1.5000e-02	1.2513	1.771438	0.000330	3.296944	1.117035	0.026684
  32	1.5500e-02	1.2818	1.851404	0.000198	1.976053	0.669505	0.015993
  33	1.6000e-02	1.3219	1.983112	0.000325	3.254676	1.102714	0.026342
  34	1.6500e-02	1.3524	2.089591	0.000263	2.631215	0.891480	0.021296
  35	1.7000e-02	1.3812	2.181530	0.000227	2.271933	0.769752	0.018388
  36	1.7500e-02	1.4438	2.260641	0.000195	1.954919	0.662344	0.015822
  37	1.8000e-02	1.4823	2.387218	0.000313	3.127870	1.059751	0.025315
  38	1.8500e-02	1.5320	2.469322	0.000203	2.028889	0.687406	0.016421
  39	1.9000e-02	1.5529	2.590340	0.000299	2.990498	1.013208	0.024204
  40	1.9500e-02	1.5754	2.683135	0.000229	2.293067	0.776912	0.018559
  41	2.0000e-02	1.5866	2.819547	0.000337	3.370914	1.142097	0.027282
  42	2.0500e-02	1.6652	2.890105	0.000174	1.743576	0.590740	0.014112
  43	2.1000e-02	1.7342	2.959808	0.000172	1.722442	0.583579	0.013941
  44	2.1500e-02	1.7743	3.068853	0.000269	2.694618	0.912961	0.021809
  45	2.2000e-02	1.8064	3.171910	0.000255	2.546678	0.862838	0.020612
  46	2.2500e-02	1.8593	3.269409	0.000241	2.409306	0.816295	0.019500
  47	2.3000e-02	1.8802	3.407104	0.000340	3.402616	1.152837	0.027539
  48	2.3500e-02	1.9331	3.481939	0.000185	1.849248	0.626542	0.014967
  49	2.4000e-02	1.9572	3.578154	0.000238	2.377604	0.805554	0.019243
  50	2.4500e-02	2.0117	3.699600	0.000300	3.001065	1.016788	0.024289
  51	2.5000e-02	2.0358	3.811210	0.000276	2.758021	0.934443	0.022322
  52	2.5500e-02	2.0807	3.892031	0.000200	1.997188	0.676665	0.016164
  53	2.6000e-02	2.1160	3.985681	0.000231	2.314201	0.784073	0.018730
  54	2.6500e-02	2.1673	4.085746	0.000247	2.472708	0.837776	0.020013
  55	2.7000e-02	2.2219	4.199066	0.000280	2.800289	0.948764	0.022664
  56	2.7500e-02	2.2299	4.282453	0.000206	2.060590	0.698147	0.016677
  57	2.8000e-02	2.2748	4.384228	0.000251	2.514977	0.852097	0.020355
  58	2.8500e-02	2.3133	4.496694	0.000278	2.779155	0.941603	0.022493
  59	2.9000e-02	2.3502	4.605310	0.000268	2.684051	0.909381	0.021723
  60	2.9500e-02	2.4112	4.689553	0.000208	2.081725	0.705307	0.016848
  61	3.0000e-02	2.4416	4.806722	0.000290	2.895394	0.980986	0.023434
  62	3.0500e-02	2.4769	4.902938	0.000238	2.377604	0.805554	0.019243
  63	3.1000e-02	2.5090	5.036357	0.000330	3.296944	1.117035	0.026684
  64	3.1500e-02	2.5443	5.150960	0.000283	2.831991	0.959504	0.022921
  65	3.2000e-02	2.5924	5.198854	0.000118	1.183519	0.400987	0.009579
  66	3.2500e-02	2.6325	5.296780	0.000242	2.419873	0.819875	0.019585
  67	3.3000e-02	2.6855	5.378029	0.000201	2.007755	0.680246	0.016250
  68	3.3500e-02	2.7224	5.511448	0.000330	3.296944	1.117035	0.026684
  69	3.4000e-02	2.7849	5.569605	0.000144	1.437130	0.486913	0.011631
  70	3.4500e-02	2.8058	5.687630	0.000292	2.916528	0.988146	0.023605
  71	3.5000e-02	2.8363	5.793681	0.000262	2.620648	0.887900	0.021210
  72	3.5500e-02	2.8876	5.888614	0.000235	2.345903	0.794813	0.018987
  73	3.6000e-02	2.9069	5.969007	0.000199	1.986620	0.673085	0.016079
  74	3.6500e-02	2.9438	6.071637	0.000254	2.536111	0.859258	0.020526
  75	3.7000e-02	2.9903	6.182820	0.000275	2.747454	0.930863	0.022237
  76	3.7500e-02	3.0496	6.291437	0.000268	2.684051	0.909381	0.021723
  77	3.8000e-02	3.0657	6.364988	0.000182	1.817546	0.615801	0.014710
  78	3.8500e-02	3.1266	6.452652	0.000217	2.166262	0.733949	0.017533
  79	3.9000e-02	3.1603	6.567255	0.000283	2.831991	0.959504	0.022921
  80	3.9500e-02	3.1796	6.700674	0.000330	3.296944	1.117035	0.026684
  81	4.0000e-02	3.2454	6.731036	0.000075	0.750266	0.254197	0.006072
  82	4.0500e-02	3.2662	6.867020	0.000336	3.360347	1.138516	0.027197
  83	4.1000e-02	3.2887	6.948269	0.000201	2.007755	0.680246	0.016250
  84	4.1500e-02	3.3448	7.064583	0.000287	2.874259	0.973825	0.023263
  85	4.2000e-02	3.3946	7.142839	0.000193	1.933785	0.655184	0.015651
  86	4.2500e-02	3.4571	7.220239	0.000191	1.912650	0.648024	0.015480
  87	4.3000e-02	3.4828	7.300205	0.000198	1.976053	0.669505	0.015993
  88	4.3500e-02	3.5149	7.438328	0.000341	3.413183	1.156418	0.027625
  89	4.4000e-02	3.5470	7.491353	0.000131	1.310324	0.443950	0.010605
  90	4.4500e-02	3.5790	7.665824	0.000431	4.311389	1.460738	0.034894
  91	4.5000e-02	3.6224	7.713291	0.000117	1.172951	0.397407	0.009493
  92	4.5500e-02	3.6593	7.794967	0.000202	2.018322	0.683826	0.016335
  93	4.6000e-02	3.7170	7.893321	0.000243	2.430440	0.823455	0.019671
  94	4.6500e-02	3.7635	7.963452	0.000173	1.733009	0.587159	0.014026
  95	4.7000e-02	3.8309	8.091312	0.000316	3.159572	1.070492	0.025572
  96	4.7500e-02	3.8437	8.168712	0.000191	1.912650	0.648024	0.015480
  97	4.8000e-02	3.8678	8.290157	0.000300	3.001065	1.016788	0.024289
  98	4.8500e-02	3.9175	8.382524	0.000228	2.282500	0.773332	0.018473
  99	4.9000e-02	3.9528	8.466339	0.000207	2.071157	0.701727	0.016763
 100	4.9500e-02	3.9977	8.539891	0.000182	1.817546	0.615801	0.014710
 101	5.0000e-02	4.0780	8.590350	0.000125	1.246921	0.422468	0.010092
 102	5.0500e-02	4.0844	8.741730	0.000374	3.740764	1.267405	0.030276
 103	5.1000e-02	4.1213	8.838801	0.000240	2.398738	0.812715	0.019414
 104	5.1500e-02	4.1582	8.916201	0.000191	1.912650	0.648024	0.015480
 105	5.2000e-02	4.2063	9.009423	0.000230	2.303634	0.780492	0.018644
 106	5.2500e-02	4.2448	9.103073	0.000231	2.314201	0.784073	0.018730
 107	5.3000e-02	4.2801	9.200999	0.000242	2.419873	0.819875	0.019585
 108	5.3500e-02	4.3459	9.283531	0.000204	2.039456	0.690986	0.016506
 109	5.4000e-02	4.3587	9.371194	0.000217	2.166262	0.733949	0.017533
 110	5.4500e-02	4.4501	9.422081	0.000126	1.257488	0.426049	0.010177
 111	5.5000e-02	4.4389	9.514021	-0.000227	-2.271933	-0.769752	0.018388
 112	5.5500e-02	4.4774	9.661979	0.000366	3.656227	1.238763	0.029592
 113	5.6000e-02	4.5287	9.747932	0.000212	2.123993	0.719628	0.017191
 114	5.6500e-02	4.5881	9.794971	0.000116	1.162384	0.393826	0.009408
 115	5.7000e-02	4.5945	9.954903	0.000395	3.952107	1.339010	0.031986
 116	5.7500e-02	4.6025	10.040000	0.000210	2.102859	0.712468	0.017019
 117	5.8000e-02	4.6988	10.155886	0.000286	2.863692	0.970245	0.023177
 118	5.8500e-02	4.7100	10.234142	0.000193	1.933785	0.655184	0.015651
 119	5.9000e-02	4.7405	10.294009	0.000148	1.479398	0.501234	0.011974
 120	5.9500e-02	4.7918	10.427856	0.000331	3.307512	1.120615	0.026769
 121	6.0000e-02	4.8287	10.479171	0.000127	1.268056	0.429629	0.010263
 122	6.0500e-02	4.8865	10.576242	0.000240	2.398738	0.812715	0.019414
 123	6.1000e-02	4.9090	10.702392	0.000312	3.117303	1.056171	0.025230
 124	6.1500e-02	4.9699	10.759693	0.000142	1.415995	0.479752	0.011460
 125	6.2000e-02	5.0084	10.805449	0.000113	1.130683	0.383086	0.009151
 126	6.2500e-02	5.0598	10.900382	0.000235	2.345903	0.794813	0.018987
 127	6.3000e-02	5.0774	11.056038	0.000385	3.846435	1.303208	0.031131
 128	6.3500e-02	5.1095	11.125741	0.000172	1.722442	0.583579	0.013941
 129	6.4000e-02	5.1881	11.189029	0.000156	1.563935	0.529876	0.012658
 130	6.4500e-02	5.2234	11.284817	0.000237	2.367037	0.801974	0.019158
 131	6.5000e-02	5.2619	11.385737	0.000249	2.493843	0.844937	0.020184
 132	6.5500e-02	5.2747	11.499485	0.000281	2.810857	0.952344	0.022750
 133	6.6000e-02	5.3261	11.554221	0.000135	1.352593	0.458271	0.010947
 134	6.6500e-02	5.3758	11.627773	0.000182	1.817546	0.615801	0.014710
 135	6.7000e-02	5.4047	11.709877	0.000203	2.028889	0.687406	0.016421
 136	6.7500e-02	5.4271	11.846717	0.000338	3.381482	1.145677	0.027368
 137	6.8000e-02	5.4592	11.897177	0.000125	1.246921	0.422468	0.010092
 138	6.8500e-02	5.5410	11.984412	0.000216	2.155694	0.730369	0.017447
 139	6.9000e-02	5.5619	12.119542	0.000334	3.339213	1.131356	0.027026
 140	6.9500e-02	5.6036	12.185824	0.000164	1.637905	0.554937	0.013256
 141	7.0000e-02	5.6260	12.300855	0.000284	2.842558	0.963085	0.023006
 142	7.0500e-02	5.6645	12.365854	0.000161	1.606204	0.544197	0.013000
 143	7.1000e-02	5.7111	12.437695	0.000178	1.775278	0.601480	0.014368
 144	7.1500e-02	5.7768	12.504832	0.000166	1.659039	0.562098	0.013427
 145	7.2000e-02	5.7640	12.669468	-0.000407	-4.068345	-1.378393	0.032927
 146	7.2500e-02	5.8314	12.706244	0.000091	0.908773	0.307901	0.007355
 147	7.3000e-02	5.8811	12.804597	0.000243	2.430440	0.823455	0.019671
 148	7.3500e-02	5.9052	12.889267	0.000209	2.092292	0.708888	0.016934
 149	7.4000e-02	5.9950	12.949135	0.000148	1.479398	0.501234	0.011974
 150	7.4500e-02	6.0223	13.049627	0.000248	2.483275	0.841357	0.020098
 151	7.5000e-02	6.0592	13.142421	0.000229	2.293067	0.776912	0.018559
 152	7.5500e-02	6.0833	13.258735	0.000287	2.874259	0.973825	0.023263
 153	7.6000e-02	6.1394	13.314327	0.000137	1.373727	0.465431	0.011118
 154	7.6500e-02	6.1731	13.446463	0.000327	3.265243	1.106294	0.026427
 155	7.7000e-02	6.2004	13.479818	0.000082	0.824236	0.279259	0.006671
 156	7.7500e-02	6.2533	13.578599	0.000244	2.441007	0.827036	0.019756
 157	7.8000e-02	6.2726	13.698334	0.000296	2.958796	1.002467	0.023947
 158	7.8500e-02	6.3560	13.728268	0.000074	0.739699	0.250617	0.005987
 159	7.9000e-02	6.3496	13.838595	-0.000273	-2.726319	-0.923702	0.022065
 160	7.9500e-02	6.3897	13.927541	0.000220	2.197963	0.744690	0.017789
 161	8.0000e-02	6.4635	13.979712	0.000129	1.289190	0.436789	0.010434
 162	8.0500e-02	6.4811	14.098591	0.000294	2.937662	0.995307	0.023776
 163	8.1000e-02	6.4875	14.254675	0.000386	3.857002	1.306788	0.031217
 164	8.1500e-02	6.5661	14.283753	0.000072	0.718565	0.243456	0.005816
 165	8.2000e-02	6.5854	14.388094	0.000258	2.578380	0.873579	0.020868
 166	8.2500e-02	6.6431	14.437698	0.000123	1.225787	0.415308	0.009921
 167	8.3000e-02	6.6688	14.509112	0.000176	1.764711	0.597900	0.014283
 168	8.3500e-02	6.7346	14.623715	0.000283	2.831991	0.959504	0.022921
 169	8.4000e-02	6.7795	14.699405	0.000187	1.870382	0.633703	0.015138
 170	8.4500e-02	6.8148	14.733187	0.000083	0.834803	0.282839	0.006756
 171	8.5000e-02	6.8324	14.888415	0.000384	3.835868	1.299627	0.031046
 172	8.5500e-02	6.9094	14.930323	0.000104	1.035579	0.350864	0.008381
 173	8.6000e-02	6.9255	15.024400	0.000232	2.324769	0.787653	0.018816
 174	8.6500e-02	6.9752	15.141142	0.000288	2.884826	0.977406	0.023348
 175	8.7000e-02	7.0185	15.177490	0.000090	0.898206	0.304320	0.007270
 176	8.7500e-02	7.0281	15.257456	0.000198	1.976053	0.669505	0.015993
 177	8.8000e-02	7.0779	15.367356	0.000272	2.715752	0.920122	0.021980
 178	8.8500e-02	7.1292	15.476828	0.000271	2.705185	0.916542	0.021894
 179	8.9000e-02	7.1565	15.514459	0.000093	0.929907	0.315061	0.007526
 180	8.9500e-02	7.2062	15.640608	0.000312	3.117303	1.056171	0.025230
 181	9.0000e-02	7.2495	15.693634	0.000131	1.310324	0.443950	0.010605
 182	9.0500e-02	7.2800	15.771034	0.000191	1.912650	0.648024	0.015480
 183	9.1000e-02	7.3329	15.891624	0.000298	2.979931	1.009628	0.024118
 184	9.1500e-02	7.3506	15.950637	0.000146	1.458264	0.494073	0.011802
 185	9.2000e-02	7.3939	16.077641	0.000314	3.138438	1.063331	0.025401
 186	9.2500e-02	7.4228	16.108003	0.000075	0.750266	0.254197	0.006072
 187	9.3000e-02	7.4870	16.271356	0.000404	4.036644	1.367652	0.032671
 188	9.3500e-02	7.5287	16.283757	0.000031	0.306447	0.103827	0.002480
 189	9.4000e-02	7.5720	16.379545	0.000237	2.367037	0.801974	0.019158
 190	9.4500e-02	7.6041	16.460794	0.000201	2.007755	0.680246	0.016250
 191	9.5000e-02	7.6233	16.521089	0.000149	1.489965	0.504814	0.012059
 192	9.5500e-02	7.6682	16.639541	0.000293	2.927095	0.991727	0.023690
 193	9.6000e-02	7.7228	16.720790	0.000201	2.007755	0.680246	0.016250
 194	9.6500e-02	7.7517	16.810163	0.000221	2.208530	0.748270	0.017875
 195	9.7000e-02	7.7773	16.871741	0.000152	1.521667	0.515555	0.012316
 196	9.7500e-02	7.8415	17.005588	0.000331	3.307512	1.120615	0.026769
 197	9.8000e-02	7.8848	17.036377	0.000076	0.760833	0.257777	0.006158
 198	9.8500e-02	7.9137	17.104797	0.000169	1.690741	0.572838	0.013684
 199	9.9000e-02	7.9762	17.195454	0.000224	2.240232	0.759011	0.018131
 200	9.9500e-02	8.0003	17.260880	0.000162	1.616771	0.547777	0.013085
 201	1.0000e-01	8.0308	17.408839	0.000366	3.656227	1.238763	0.029592
 202	1.0050e-01	8.0901	17.449891	0.000101	1.014444	0.343703	0.008210
 203	1.0100e-01	8.1415	17.496502	0.000115	1.151817	0.390246	0.009322
 204	1.0150e-01	8.1671	17.601270	0.000259	2.588947	0.877159	0.020954
 205	1.0200e-01	8.1992	17.711170	0.000272	2.715752	0.920122	0.021980
 206	1.0250e-01	8.2522	17.750511	0.000097	0.972176	0.329382	0.007868
 207	1.0300e-01	8.2762	17.818076	0.000167	1.669606	0.565678	0.013513
 208	1.0350e-01	8.2939	17.957910	0.000346	3.455451	1.170739	0.027967
 209	1.0400e-01	8.3613	18.010935	0.000131	1.310324	0.443950	0.010605
 210	1.0450e-01	8.4142	18.111427	0.000248	2.483275	0.841357	0.020098
 211	1.0500e-01	8.4671	18.175143	0.000157	1.574502	0.533456	0.012743
 212	1.0550e-01	8.4896	18.233728	0.000145	1.447697	0.490493	0.011717
 213	1.0600e-01	8.5153	18.356456	0.000303	3.032766	1.027529	0.024546
 214	1.0650e-01	8.5698	18.403495	0.000116	1.162384	0.393826	0.009408
 215	1.0700e-01	8.6067	18.496717	0.000230	2.303634	0.780492	0.018644
 216	1.0750e-01	8.6372	18.591223	0.000234	2.335336	0.791233	0.018901
 217	1.0800e-01	8.7142	18.650663	0.000147	1.468831	0.497653	0.011888
 218	1.0850e-01	8.7206	18.770398	0.000296	2.958796	1.002467	0.023947
 219	1.0900e-01	8.7768	18.822140	0.000128	1.278623	0.433209	0.010349
 220	1.0950e-01	8.8056	18.917501	0.000236	2.356470	0.798394	0.019072
 221	1.1000e-01	8.8377	18.997039	0.000197	1.965486	0.665925	0.015908
 222	1.1050e-01	8.8874	19.041940	0.000111	1.109549	0.375925	0.008980
 223	1.1100e-01	8.9276	19.113781	0.000178	1.775278	0.601480	0.014368
 224	1.1150e-01	8.9308	19.254042	0.000347	3.466019	1.174319	0.028052
 225	1.1200e-01	8.9997	19.337429	0.000206	2.060590	0.698147	0.016677
 226	1.1250e-01	9.0447	19.387889	0.000125	1.246921	0.422468	0.010092
 227	1.1300e-01	9.0735	19.487953	0.000247	2.472708	0.837776	0.020013
 228	1.1350e-01	9.1217	19.521735	0.000083	0.834803	0.282839	0.006756
 229	1.1400e-01	9.1249	19.631207	0.000271	2.705185	0.916542	0.021894
 230	1.1450e-01	9.1874	19.714594	0.000206	2.060590	0.698147	0.016677
 231	1.1500e-01	9.2500	19.790284	0.000187	1.870382	0.633703	0.015138
 232	1.1550e-01	9.2837	19.871533	0.000201	2.007755	0.680246	0.016250
 233	1.1600e-01	9.3206	19.943801	0.000179	1.785845	0.605061	0.014454
 234	1.1650e-01	9.4040	19.983571	0.000098	0.982743	0.332962	0.007954
 235	1.1700e-01	9.3976	20.104161	-0.000298	-2.979931	-1.009628	0.024118
 236	1.1750e-01	9.4505	20.151200	0.000116	1.162384	0.393826	0.009408
 237	1.1800e-01	9.4922	20.237152	0.000212	2.123993	0.719628	0.017191
 238	1.1850e-01	9.5275	20.324388	0.000216	2.155694	0.730369	0.017447
 239	1.1900e-01	9.5484	20.416327	0.000227	2.271933	0.769752	0.018388
 240	1.1950e-01	9.5805	20.509977	0.000231	2.314201	0.784073	0.018730
 241	1.2000e-01	9.6495	20.565141	0.000136	1.363160	0.461851	0.011033
 242	1.2050e-01	9.6783	20.626719	0.000152	1.521667	0.515555	0.012316
 243	1.2100e-01	9.7072	20.731060	0.000258	2.578380	0.873579	0.020868
 244	1.2150e-01	9.7634	20.821716	0.000224	2.240232	0.759011	0.018131
 245	1.2200e-01	9.8227	20.890136	0.000169	1.690741	0.572838	0.013684
 246	1.2250e-01	9.8548	20.944872	0.000135	1.352593	0.458271	0.010947
 247	1.2300e-01	9.9077	21.023555	0.000194	1.944352	0.658764	0.015737
 248	1.2350e-01	9.9126	21.091120	0.000167	1.669606	0.565678	0.013513
 249	1.2400e-01	9.9607	21.195461	0.000258	2.578380	0.873579	0.020868
 250	1.2450e-01	9.9992	21.245493	0.000124	1.236354	0.418888	0.010006
 251	1.2500e-01	10.0281	21.331018	0.000211	2.113426	0.716048	0.017105
 252	1.2550e-01	10.0778	21.431937	0.000249	2.493843	0.844937	0.020184
 253	1.2600e-01	10.1388	21.508482	0.000189	1.891516	0.640863	0.015309
 254	1.2650e-01	10.1548	21.617099	0.000268	2.684051	0.909381	0.021723
 255	1.2700e-01	10.2158	21.670552	0.000132	1.320891	0.447530	0.010691
 256	1.2750e-01	10.2366	21.732130	0.000152	1.521667	0.515555	0.012316
 257	1.2800e-01	10.2847	21.806965	0.000185	1.849248	0.626542	0.014967
 258	1.2850e-01	10.3216	21.852293	0.000112	1.120116	0.379505	0.009066
 259	1.2900e-01	10.3858	21.945943	0.000231	2.314201	0.784073	0.018730
 260	1.2950e-01	10.3890	22.069527	0.000305	3.053900	1.034689	0.024717
 261	1.3000e-01	10.4355	22.102026	0.000080	0.803102	0.272098	0.006500
 262	1.3050e-01	10.4708	22.194393	0.000228	2.282500	0.773332	0.018473
 263	1.3100e-01	10.5270	22.261958	0.000167	1.669606	0.565678	0.013513
 264	1.3150e-01	10.5591	22.343207	0.000201	2.007755	0.680246	0.016250
 265	1.3200e-01	10.5927	22.418041	0.000185	1.849248	0.626542	0.014967
 266	1.3250e-01	10.6553	22.481330	0.000156	1.563935	0.529876	0.012658
 267	1.3300e-01	10.7243	22.524520	0.000107	1.067280	0.361604	0.008638
 268	1.3350e-01	10.7211	22.636985	-0.000278	-2.779155	-0.941603	0.022493
 269	1.3400e-01	10.7548	22.709254	0.000179	1.785845	0.605061	0.014454
 270	1.3450e-01	10.8077	22.793069	0.000207	2.071157	0.701727	0.016763
 271	1.3500e-01	10.8430	22.874317	0.000201	2.007755	0.680246	0.016250
 272	1.3550e-01	10.8623	22.908527	0.000085	0.845370	0.286419	0.006842
 273	1.3600e-01	10.9200	23.015861	0.000265	2.652350	0.898640	0.021467
 274	1.3650e-01	11.0098	23.088558	0.000180	1.796412	0.608641	0.014539
 275	1.3700e-01	10.9970	23.145859	-0.000142	-1.415995	-0.479752	0.011460
 276	1.3750e-01	11.0179	23.256187	0.000273	2.726319	0.923702	0.022065
 277	1.3800e-01	11.0997	23.310068	0.000133	1.331458	0.451110	0.010776
 278	1.3850e-01	11.1061	23.375067	0.000161	1.606204	0.544197	0.013000
 279	1.3900e-01	11.1687	23.503782	0.000318	3.180706	1.077652	0.025743
 280	1.3950e-01	11.1991	23.547827	0.000109	1.088414	0.368765	0.008809
 281	1.4000e-01	11.2393	23.606839	0.000146	1.458264	0.494073	0.011802
 282	1.4050e-01	11.2826	23.678253	0.000176	1.764711	0.597900	0.014283
 283	1.4100e-01	11.3403	23.762067	0.000207	2.071157	0.701727	0.016763
 284	1.4150e-01	11.3467	23.873678	0.000276	2.758021	0.934443	0.022322
 285	1.4200e-01	11.4029	23.919006	0.000112	1.120116	0.379505	0.009066
 286	1.4250e-01	11.4366	23.984860	0.000163	1.627338	0.551357	0.013171
 287	1.4300e-01	11.4783	24.095188	0.000273	2.726319	0.923702	0.022065
 288	1.4350e-01	11.5088	24.143937	0.000120	1.204653	0.408147	0.009750
 289	1.4400e-01	11.5633	24.188410	0.000110	1.098981	0.372345	0.008895
 290	1.4450e-01	11.6162	24.292323	0.000257	2.567813	0.869998	0.020783
 291	1.4500e-01	11.6596	24.316697	0.000060	0.602326	0.204074	0.004875
 292	1.4550e-01	11.6740	24.449261	0.000328	3.275810	1.109875	0.026513
 293	1.4600e-01	11.7189	24.495872	0.000115	1.151817	0.390246	0.009322
 294	1.4650e-01	11.7943	24.530938	0.000087	0.866505	0.293580	0.007013
 295	1.4700e-01	11.8184	24.637416	0.000263	2.631215	0.891480	0.021296
 296	1.4750e-01	11.8681	24.692580	0.000136	1.363160	0.461851	0.011033
 297	1.4800e-01	11.8777	24.787940	0.000236	2.356470	0.798394	0.019072
 298	1.4850e-01	11.9034	24.854650	0.000165	1.648472	0.558518	0.013342
 299	1.4900e-01	11.9708	24.933333	0.000194	1.944352	0.658764	0.015737
 300	1.4950e-01	12.0077	24.991918	0.000145	1.447697	0.490493	0.011717
 301	1.5000e-01	12.0334	25.111653	0.000296	2.958796	1.002467	0.023947
 302	1.5050e-01	12.0622	25.172376	0.000150	1.500532	0.508394	0.012145
 303	1.5100e-01	12.1264	25.220270	0.000118	1.183519	0.400987	0.009579
 304	1.5150e-01	12.1344	25.328886	0.000268	2.684051	0.909381	0.021723
 305	1.5200e-01	12.1938	25.396879	0.000168	1.680174	0.569258	0.013598
 306	1.5250e-01	12.2275	25.455891	0.000146	1.458264	0.494073	0.011802
 307	1.5300e-01	12.2692	25.559804	0.000257	2.567813	0.869998	0.020783
 308	1.5350e-01	12.3125	25.588883	0.000072	0.718565	0.243456	0.005816
 309	1.5400e-01	12.3654	25.624803	0.000089	0.887639	0.300740	0.007184
 310	1.5450e-01	12.4232	25.751380	0.000313	3.127870	1.059751	0.025315
 311	1.5500e-01	12.4424	25.830063	0.000194	1.944352	0.658764	0.015737
 312	1.5550e-01	12.4665	25.856576	0.000066	0.655162	0.221975	0.005303
 313	1.5600e-01	12.5162	25.981015	0.000308	3.075035	1.041850	0.024888
 314	1.5650e-01	12.5788	26.035323	0.000134	1.342025	0.454691	0.010862
 315	1.5700e-01	12.5884	26.108020	0.000180	1.796412	0.608641	0.014539
 316	1.5750e-01	12.6590	26.161045	0.000131	1.310324	0.443950	0.010605
 317	1.5800e-01	12.6895	26.246143	0.000210	2.102859	0.712468	0.017019
 318	1.5850e-01	12.7184	26.300023	0.000133	1.331458	0.451110	0.010776
 319	1.5900e-01	12.7601	26.356470	0.000139	1.394861	0.472592	0.011289
 320	1.5950e-01	12.8130	26.441140	0.000209	2.092292	0.708888	0.016934
 321	1.6000e-01	12.8419	26.543342	0.000253	2.525544	0.855677	0.020440
 322	1.6050e-01	12.8788	26.566434	0.000057	0.570625	0.193333	0.004618
 323	1.6100e-01	12.9077	26.687880	0.000300	3.001065	1.016788	0.024289
 324	1.6150e-01	12.9381	26.794786	0.000264	2.641782	0.895060	0.021381
 325	1.6200e-01	13.0360	26.811463	0.000041	0.412118	0.139629	0.003335
 326	1.6250e-01	13.0601	26.825147	0.000034	0.338148	0.114568	0.002737
 327	1.6300e-01	13.0649	26.938896	0.000281	2.810857	0.952344	0.022750
 328	1.6350e-01	13.1162	26.988928	0.000124	1.236354	0.418888	0.010006
 329	1.6400e-01	13.1563	27.060341	0.000176	1.764711	0.597900	0.014283
 330	1.6450e-01	13.2141	27.148860	0.000219	2.187396	0.741110	0.017704
 331	1.6500e-01	13.2574	27.206589	0.000143	1.426563	0.483332	0.011546
 332	1.6550e-01	13.2943	27.291686	0.000210	2.102859	0.712468	0.017019
 333	1.6600e-01	13.3344	27.329745	0.000094	0.940475	0.318641	0.007612
 334	1.6650e-01	13.3456	27.405435	0.000187	1.870382	0.633703	0.015138
 335	1.6700e-01	13.3986	27.496091	0.000224	2.240232	0.759011	0.018131
 336	1.6750e-01	13.4467	27.558952	0.000155	1.553368	0.526295	0.012572
 337	1.6800e-01	13.4900	27.636780	0.000192	1.923218	0.651604	0.015566
 338	1.6850e-01	13.4916	27.676549	0.000098	0.982743	0.332962	0.007954
 339	1.6900e-01	13.5526	27.798422	0.000301	3.011632	1.020369	0.024375
 340	1.6950e-01	13.5975	27.871974	0.000182	1.817546	0.615801	0.014710
 341	1.7000e-01	13.6344	27.919013	0.000116	1.162384	0.393826	0.009408
 342	1.7050e-01	13.6841	27.972894	0.000133	1.331458	0.451110	0.010776
 343	1.7100e-01	13.7210	28.034472	0.000152	1.521667	0.515555	0.012316
 344	1.7150e-01	13.7563	28.143516	0.000269	2.694618	0.912961	0.021809
 345	1.7200e-01	13.8012	28.183285	0.000098	0.982743	0.332962	0.007954
 346	1.7250e-01	13.8413	28.270093	0.000215	2.145127	0.726789	0.017362
 347	1.7300e-01	13.9007	28.334237	0.000159	1.585069	0.537036	0.012829
 348	1.7350e-01	13.9151	28.419762	0.000211	2.113426	0.716048	0.017105
 349	1.7400e-01	13.9568	28.456110	0.000090	0.898206	0.304320	0.007270
 350	1.7450e-01	14.0098	28.540352	0.000208	2.081725	0.705307	0.016848
 351	1.7500e-01	14.0483	28.611766	0.000176	1.764711	0.597900	0.014283
 352	1.7550e-01	14.0884	28.684462	0.000180	1.796412	0.608641	0.014539
 353	1.7600e-01	14.1285	28.704560	0.000050	0.496655	0.168271	0.004020
 354	1.7650e-01	14.1654	28.770415	0.000163	1.627338	0.551357	0.013171
 355	1.7700e-01	14.1798	28.896992	0.000313	3.127870	1.059751	0.025315
 356	1.7750e-01	14.2119	28.943175	0.000114	1.141250	0.386666	0.009237
 357	1.7800e-01	14.2873	29.051792	0.000268	2.684051	0.909381	0.021723
 358	1.7850e-01	14.3258	29.066331	0.000036	0.359282	0.121728	0.002908
 359	1.7900e-01	14.3659	29.156560	0.000223	2.229664	0.755431	0.018046
 360	1.7950e-01	14.4140	29.201889	0.000112	1.120116	0.379505	0.009066
 361	1.8000e-01	14.4413	29.301098	0.000245	2.451574	0.830616	0.019842
 362	1.8050e-01	14.4590	29.372511	0.000176	1.764711	0.597900	0.014283
 363	1.8100e-01	14.5247	29.410997	0.000095	0.951042	0.322222	0.007697
 364	1.8150e-01	14.5584	29.502937	0.000227	2.271933	0.769752	0.018388
 365	1.8200e-01	14.5969	29.590600	0.000217	2.166262	0.733949	0.017533
 366	1.8250e-01	14.6354	29.625238	0.000086	0.855938	0.289999	0.006928
 367	1.8300e-01	14.6611	29.722309	0.000240	2.398738	0.812715	0.019414
 368	1.8350e-01	14.7236	29.772341	0.000124	1.236354	0.418888	0.010006
 369	1.8400e-01	14.7702	29.794150	0.000054	0.538924	0.182592	0.004362
 370	1.8450e-01	14.7894	29.867701	0.000182	1.817546	0.615801	0.014710
 371	1.8500e-01	14.8199	29.951943	0.000208	2.081725	0.705307	0.016848
 372	1.8550e-01	14.8761	30.046021	0.000232	2.324769	0.787653	0.018816
 373	1.8600e-01	14.9049	30.092632	0.000115	1.151817	0.390246	0.009322
 374	1.8650e-01	14.9675	30.147796	0.000136	1.363160	0.461851	0.011033
 375	1.8700e-01	14.9964	30.233748	0.000212	2.123993	0.719628	0.017191
 376	1.8750e-01	15.0365	30.279077	0.000112	1.120116	0.379505	0.009066
 377	1.8800e-01	15.0910	30.354766	0.000187	1.870382	0.633703	0.015138
 378	1.8850e-01	15.1022	30.415061	0.000149	1.489965	0.504814	0.012059
 379	1.8900e-01	15.1456	30.483482	0.000169	1.690741	0.572838	0.013684
 380	1.8950e-01	15.2017	30.549763	0.000164	1.637905	0.554937	0.013256
 381	1.9000e-01	15.2242	30.613480	0.000157	1.574502	0.533456	0.012743
 382	1.9050e-01	15.2691	30.698577	0.000210	2.102859	0.712468	0.017019
 383	1.9100e-01	15.3092	30.752458	0.000133	1.331458	0.451110	0.010776
 384	1.9150e-01	15.3605	30.850384	0.000242	2.419873	0.819875	0.019585
 385	1.9200e-01	15.4199	30.904692	0.000134	1.342025	0.454691	0.010862
 386	1.9250e-01	15.4423	30.950021	0.000112	1.120116	0.379505	0.009066
 387	1.9300e-01	15.4552	31.065907	0.000286	2.863692	0.970245	0.023177
 388	1.9350e-01	15.5402	31.085150	0.000048	0.475521	0.161111	0.003849
 389	1.9400e-01	15.5611	31.156991	0.000178	1.775278	0.601480	0.014368
 390	1.9450e-01	15.5964	31.225839	0.000170	1.701308	0.576419	0.013770
 391	1.9500e-01	15.6429	31.278865	0.000131	1.310324	0.443950	0.010605
 392	1.9550e-01	15.6477	31.391330	0.000278	2.779155	0.941603	0.022493
 393	1.9600e-01	15.7215	31.431099	0.000098	0.982743	0.332962	0.007954
 394	1.9650e-01	15.7776	31.482842	0.000128	1.278623	0.433209	0.010349
 395	1.9700e-01	15.8113	31.579057	0.000238	2.377604	0.805554	0.019243
 396	1.9750e-01	15.8258	31.609419	0.000075	0.750266	0.254197	0.006072
 397	1.9800e-01	15.8755	31.695372	0.000212	2.123993	0.719628	0.017191
 398	1.9850e-01	15.9316	31.768495	0.000181	1.806979	0.612221	0.014625
 399	1.9900e-01	15.9766	31.798002	0.000073	0.729132	0.247037	0.005901
 400	1.9950e-01	16.0167	31.890796	0.000229	2.293067	0.776912	0.018559
 401	2.0000e-01	16.0776	31.905763	0.000037	0.369850	0.125308	0.002993
 402	2.0050e-01	16.0728	31.995137	-0.000221	-2.208530	-0.748270	0.017875
 403	2.0100e-01	16.1354	32.046880	0.000128	1.278623	0.433209	0.010349
 404	2.0150e-01	16.1530	32.152931	0.000262	2.620648	0.887900	0.021210
 405	2.0200e-01	16.1739	32.205101	0.000129	1.289190	0.436789	0.010434
 406	2.0250e-01	16.2557	32.240594	0.000088	0.877072	0.297160	0.007099
 407	2.0300e-01	16.2621	32.360756	0.000297	2.969363	1.006048	0.024033
 408	2.0350e-01	16.3295	32.390263	0.000073	0.729132	0.247037	0.005901
 409	2.0400e-01	16.3648	32.448847	0.000145	1.447697	0.490493	0.011717
 410	2.0450e-01	16.4145	32.529668	0.000200	1.997188	0.676665	0.016164
 411	2.0500e-01	16.4354	32.592957	0.000156	1.563935	0.529876	0.012658
 412	2.0550e-01	16.4787	32.634009	0.000101	1.014444	0.343703	0.008210
 413	2.0600e-01	16.4899	32.746047	0.000277	2.768588	0.938023	0.022408
 414	2.0650e-01	16.5637	32.784961	0.000096	0.961609	0.325802	0.007783
 415	2.0700e-01	16.5990	32.850387	0.000162	1.616771	0.547777	0.013085
 416	2.0750e-01	16.6551	32.927360	0.000190	1.902083	0.644443	0.015395
 417	2.0800e-01	16.6760	32.959004	0.000078	0.781968	0.264938	0.006329
 418	2.0850e-01	16.7209	33.032983	0.000183	1.828113	0.619382	0.014796
 419	2.0900e-01	16.7594	33.088575	0.000137	1.373727	0.465431	0.011118
 420	2.0950e-01	16.7931	33.190777	0.000253	2.525544	0.855677	0.020440
 421	2.1000e-01	16.8316	33.233112	0.000105	1.046146	0.354444	0.008467
 422	2.1050e-01	16.8717	33.290414	0.000142	1.415995	0.479752	0.011460
 423	2.1100e-01	16.9102	33.348143	0.000143	1.426563	0.483332	0.011546
 424	2.1150e-01	16.9728	33.416991	0.000170	1.701308	0.576419	0.013770
 425	2.1200e-01	16.9808	33.478141	0.000151	1.511100	0.511974	0.012230
 426	2.1250e-01	17.0418	33.556397	0.000193	1.933785	0.655184	0.015651
 427	2.1300e-01	17.0931	33.647909	0.000226	2.261366	0.766171	0.018302
 428	2.1350e-01	17.1188	33.709487	0.000152	1.521667	0.515555	0.012316
 429	2.1400e-01	17.1765	33.765933	0.000139	1.394861	0.472592	0.011289
 430	2.1450e-01	17.1829	33.820242	0.000134	1.342025	0.454691	0.010862
 431	2.1500e-01	17.2455	33.882675	0.000154	1.542801	0.522715	0.012487
 432	2.1550e-01	17.2615	33.931424	0.000120	1.204653	0.408147	0.009750
 433	2.1600e-01	17.3065	34.011818	0.000199	1.986620	0.673085	0.016079
 434	2.1650e-01	17.3674	34.073823	0.000153	1.532234	0.519135	0.012401
 435	2.1700e-01	17.3867	34.124711	0.000126	1.257488	0.426049	0.010177
 436	2.1750e-01	17.4220	34.203821	0.000195	1.954919	0.662344	0.015822
 437	2.1800e-01	17.4605	34.298327	0.000234	2.335336	0.791233	0.018901
 438	2.1850e-01	17.5182	34.280366	-0.000044	-0.443819	-0.150370	-0.003592
 439	2.1900e-01	17.5696	34.404805	0.000308	3.075035	1.041850	0.024888
 440	2.1950e-01	17.5984	34.466811	0.000153	1.532234	0.519135	0.012401
 441	2.2000e-01	17.6321	34.481350	0.000036	0.359282	0.121728	0.002908
 442	2.2050e-01	17.6835	34.533520	0.000129	1.289190	0.436789	0.010434
 443	2.2100e-01	17.7396	34.646414	0.000279	2.789722	0.945183	0.022579
 444	2.2150e-01	17.7556	34.664374	0.000044	0.443819	0.150370	0.003592
 445	2.2200e-01	17.7925	34.777695	0.000280	2.800289	0.948764	0.022664
 446	2.2250e-01	17.8583	34.808056	0.000075	0.750266	0.254197	0.006072
 447	2.2300e-01	17.8984	34.863220	0.000136	1.363160	0.461851	0.011033
 448	2.2350e-01	17.9081	34.972692	0.000271	2.705185	0.916542	0.021894
 449	2.2400e-01	17.9241	34.985948	0.000033	0.327581	0.110987	0.002651
 450	2.2450e-01	18.0011	35.094137	0.000267	2.673484	0.905801	0.021638
 451	2.2500e-01	18.0653	35.096703	0.000006	0.063403	0.021481	0.000513
 452	2.2550e-01	18.0893	35.190781	0.000232	2.324769	0.787653	0.018816
 453	2.2600e-01	18.1070	35.250220	0.000147	1.468831	0.497653	0.011888
 454	2.2650e-01	18.1535	35.318213	0.000168	1.680174	0.569258	0.013598
 455	2.2700e-01	18.1824	35.393047	0.000185	1.849248	0.626542	0.014967
 456	2.2750e-01	18.2498	35.430251	0.000092	0.919340	0.311481	0.007441
 457	2.2800e-01	18.2642	35.517914	0.000217	2.166262	0.733949	0.017533
 458	2.2850e-01	18.3171	35.579492	0.000152	1.521667	0.515555	0.012316
 459	2.2900e-01	18.3620	35.614557	0.000087	0.866505	0.293580	0.007013
 460	2.2950e-01	18.4086	35.691102	0.000189	1.891516	0.640863	0.015309
 461	2.3000e-01	18.4358	35.740707	0.000123	1.225787	0.415308	0.009921
 462	2.3050e-01	18.4808	35.837778	0.000240	2.398738	0.812715	0.019414
 463	2.3100e-01	18.5289	35.887810	0.000124	1.236354	0.418888	0.010006
 464	2.3150e-01	18.5931	35.898073	0.000025	0.253611	0.085926	0.002053
 465	2.3200e-01	18.6027	36.033202	0.000334	3.339213	1.131356	0.027026
 466	2.3250e-01	18.6572	36.057149	0.000059	0.591759	0.200493	0.004789
 467	2.3300e-01	18.6941	36.105899	0.000120	1.204653	0.408147	0.009750
 468	2.3350e-01	18.7198	36.173891	0.000168	1.680174	0.569258	0.013598
 469	2.3400e-01	18.7503	36.286356	0.000278	2.779155	0.941603	0.022493
 470	2.3450e-01	18.7920	36.337244	0.000126	1.257488	0.426049	0.010177
 471	2.3500e-01	18.8385	36.385138	0.000118	1.183519	0.400987	0.009579
 472	2.3550e-01	18.8674	36.434742	0.000123	1.225787	0.415308	0.009921
 473	2.3600e-01	18.9364	36.508294	0.000182	1.817546	0.615801	0.014710
 474	2.3650e-01	18.9652	36.574148	0.000163	1.627338	0.551357	0.013171
 475	2.3700e-01	19.0134	36.615200	0.000101	1.014444	0.343703	0.008210
 476	2.3750e-01	19.0166	36.662239	0.000116	1.162384	0.393826	0.009408
 477	2.3800e-01	19.0840	36.751613	0.000221	2.208530	0.748270	0.017875
 478	2.3850e-01	19.1289	36.803783	0.000129	1.289190	0.436789	0.010434
 479	2.3900e-01	19.1529	36.849967	0.000114	1.141250	0.386666	0.009237
 480	2.3950e-01	19.1834	36.929933	0.000198	1.976053	0.669505	0.015993
 481	2.4000e-01	19.2251	37.010326	0.000199	1.986620	0.673085	0.016079
 482	2.4050e-01	19.2524	37.069766	0.000147	1.468831	0.497653	0.011888
 483	2.4100e-01	19.3118	37.100555	0.000076	0.760833	0.257777	0.006158
 484	2.4150e-01	19.3583	37.209599	0.000269	2.694618	0.912961	0.021809
 485	2.4200e-01	19.3952	37.223711	0.000035	0.348715	0.118148	0.002822
 486	2.4250e-01	19.4305	37.339598	0.000286	2.863692	0.970245	0.023177
 487	2.4300e-01	19.4545	37.378084	0.000095	0.951042	0.322222	0.007697
 488	2.4350e-01	19.5380	37.381505	0.000008	0.084537	0.028642	0.000684
 489	2.4400e-01	19.5492	37.490977	0.000271	2.705185	0.916542	0.021894
 490	2.4450e-01	19.6085	37.539726	0.000120	1.204653	0.408147	0.009750
 491	2.4500e-01	19.6454	37.598311	0.000145	1.447697	0.490493	0.011717
 492	2.4550e-01	19.6727	37.649198	0.000126	1.257488	0.426049	0.010177
 493	2.4600e-01	19.7128	37.732158	0.000205	2.050023	0.694567	0.016592
 494	2.4650e-01	19.7497	37.779196	0.000116	1.162384	0.393826	0.009408
 495	2.4700e-01	19.8219	37.830939	0.000128	1.278623	0.433209	0.010349
 496	2.4750e-01	19.8492	37.894655	0.000157	1.574502	0.533456	0.012743
 497	2.4800e-01	19.8797	37.972055	0.000191	1.912650	0.648024	0.015480
 498	2.4850e-01	19.9278	38.010969	0.000096	0.961609	0.325802	0.007783
 499	2.4900e-01	19.9663	38.077679	0.000165	1.648472	0.558518	0.013342
 500	2.4950e-01	19.9791	38.141823	0.000159	1.585069	0.537036	0.012829
 501	2.5000e-01	20.0176	38.232907	0.000225	2.250799	0.762591	0.018217
 502	2.5050e-01	19.9695	38.214091	0.000046	0.464954	0.157531	-0.003763
 503	2.5100e-01	19.9599	38.098632	0.000285	2.853125	0.966665	-0.023092
 504	2.5150e-01	19.8909	38.090935	0.000019	0.190208	0.064444	-0.001539
 505	2.5200e-01	19.8460	38.063140	0.000069	0.686863	0.232716	-0.005559
 506	2.5250e-01	19.8075	38.013107	0.000124	1.236354	0.418888	-0.010006
 507	2.5300e-01	19.7754	37.931003	0.000203	2.028889	0.687406	-0.016421
 508	2.5350e-01	19.7417	37.895938	0.000087	0.866505	0.293580	-0.007013
 509	2.5400e-01	19.7000	37.846333	0.000123	1.225787	0.415308	-0.009921
 510	2.5450e-01	19.6599	37.792880	0.000132	1.320891	0.447530	-0.010691
 511	2.5500e-01	19.6037	37.730875	0.000153	1.532234	0.519135	-0.012401
 512	2.5550e-01	19.5765	37.668441	0.000154	1.542801	0.522715	-0.012487
 513	2.5600e-01	19.5460	37.660317	0.000020	0.200775	0.068025	-0.001625
 514	2.5650e-01	19.4930	37.569660	0.000224	2.240232	0.759011	-0.018131
 515	2.5700e-01	19.4561	37.536733	0.000081	0.813669	0.275679	-0.006585
 516	2.5750e-01	19.4048	37.487128	0.000123	1.225787	0.415308	-0.009921
 517	2.5800e-01	19.3775	37.381505	0.000261	2.610081	0.884319	-0.021125
 518	2.5850e-01	19.3438	37.402031	-0.000051	-0.507222	-0.171852	0.004105
 519	2.5900e-01	19.2941	37.356275	0.000113	1.130683	0.383086	-0.009151
 520	2.5950e-01	19.2813	37.263480	0.000229	2.293067	0.776912	-0.018559
 521	2.6000e-01	19.2091	37.247230	0.000040	0.401551	0.136049	-0.003250
 522	2.6050e-01	19.1850	37.197626	0.000123	1.225787	0.415308	-0.009921
 523	2.6100e-01	19.1289	37.128778	0.000170	1.701308	0.576419	-0.013770
 524	2.6150e-01	19.0904	37.075753	0.000131	1.310324	0.443950	-0.010605
 525	2.6200e-01	19.0775	37.013319	0.000154	1.542801	0.522715	-0.012487
 526	2.6250e-01	19.0198	36.932926	0.000199	1.986620	0.673085	-0.016079
 527	2.6300e-01	18.9781	36.914966	0.000044	0.443819	0.150370	-0.003592
 528	2.6350e-01	18.9412	36.835000	0.000198	1.976053	0.669505	-0.015993
 529	2.6400e-01	18.8947	36.809342	0.000063	0.634028	0.214814	-0.005132
 530	2.6450e-01	18.8497	36.744343	0.000161	1.606204	0.544197	-0.013000
 531	2.6500e-01	18.8353	36.682337	0.000153	1.532234	0.519135	-0.012401
 532	2.6550e-01	18.7952	36.598523	0.000207	2.071157	0.701727	-0.016763
 533	2.6600e-01	18.7423	36.580990	0.000043	0.433252	0.146790	-0.003507
 534	2.6650e-01	18.6941	36.547208	0.000083	0.834803	0.282839	-0.006756
 535	2.6700e-01	18.6524	36.465531	0.000202	2.018322	0.683826	-0.016335
 536	2.6750e-01	18.6251	36.381717	0.000207	2.071157	0.701727	-0.016763
 537	2.6800e-01	18.5898	36.368888	0.000032	0.317014	0.107407	-0.002566
 538	2.6850e-01	18.5241	36.288067	0.000200	1.997188	0.676665	-0.016164
 539	2.6900e-01	18.5016	36.247015	0.000101	1.014444	0.343703	-0.008210
 540	2.6950e-01	18.4391	36.200831	0.000114	1.141250	0.386666	-0.009237
 541	2.7000e-01	18.3989	36.140536	0.000149	1.489965	0.504814	-0.012059
 542	2.7050e-01	18.3797	36.087938	0.000130	1.299757	0.440370	-0.010520
 543	2.7100e-01	18.3396	36.017808	0.000173	1.733009	0.587159	-0.014026
 544	2.7150e-01	18.2883	35.981460	0.000090	0.898206	0.304320	-0.007270
 545	2.7200e-01	18.2658	35.886954	0.000234	2.335336	0.791233	-0.018901
 546	2.7250e-01	18.2177	35.887810	-0.000002	-0.021134	-0.007160	0.000171
 547	2.7300e-01	18.1744	35.821955	0.000163	1.627338	0.551357	-0.013171
 548	2.7350e-01	18.1423	35.756956	0.000161	1.606204	0.544197	-0.013000
 549	2.7400e-01	18.0845	35.691102	0.000163	1.627338	0.551357	-0.013171
 550	2.7450e-01	18.0524	35.667155	0.000059	0.591759	0.200493	-0.004789
 551	2.7500e-01	18.0059	35.585906	0.000201	2.007755	0.680246	-0.016250
 552	2.7550e-01	17.9610	35.526466	0.000147	1.468831	0.497653	-0.011888
 553	2.7600e-01	17.9433	35.496960	0.000073	0.729132	0.247037	-0.005901
 554	2.7650e-01	17.9129	35.440086	0.000141	1.405428	0.476172	-0.011375
 555	2.7700e-01	17.8551	35.366535	0.000182	1.817546	0.615801	-0.014710
 556	2.7750e-01	17.8343	35.295121	0.000176	1.764711	0.597900	-0.014283
 557	2.7800e-01	17.7797	35.251931	0.000107	1.067280	0.361604	-0.008638
 558	2.7850e-01	17.7316	35.205747	0.000114	1.141250	0.386666	-0.009237
 559	2.7900e-01	17.6674	35.173676	0.000079	0.792535	0.268518	-0.006414
 560	2.7950e-01	17.6498	35.076605	0.000240	2.398738	0.812715	-0.019414
 561	2.8000e-01	17.6081	35.021441	0.000136	1.363160	0.461851	-0.011033
 562	2.8050e-01	17.5936	34.942330	0.000195	1.954919	0.662344	-0.015822
 563	2.8100e-01	17.5487	34.907693	0.000086	0.855938	0.289999	-0.006928
 564	2.8150e-01	17.5102	34.835852	0.000178	1.775278	0.601480	-0.014368
 565	2.8200e-01	17.4621	34.786675	0.000122	1.215220	0.411728	-0.009835
 566	2.8250e-01	17.4220	34.751609	0.000087	0.866505	0.293580	-0.007013
 567	2.8300e-01	17.3867	34.639572	0.000277	2.768588	0.938023	-0.022408
 568	2.8350e-01	17.3209	34.630591	0.000022	0.221910	0.075185	-0.001796
 569	2.8400e-01	17.2840	34.581415	0.000122	1.215220	0.411728	-0.009835
 570	2.8450e-01	17.2567	34.518554	0.000155	1.553368	0.526295	-0.012572
 571	2.8500e-01	17.2375	34.414641	0.000257	2.567813	0.869998	-0.020783
 572	2.8550e-01	17.1958	34.354346	0.000149	1.489965	0.504814	-0.012059
 573	2.8600e-01	17.1364	34.333392	0.000052	0.517789	0.175432	-0.004191
 574	2.8650e-01	17.0963	34.270103	0.000156	1.563935	0.529876	-0.012658
 575	2.8700e-01	17.0321	34.207670	0.000154	1.542801	0.522715	-0.012487
 576	2.8750e-01	17.0081	34.149085	0.000145	1.447697	0.490493	-0.011717
 577	2.8800e-01	16.9696	34.121717	0.000068	0.676296	0.229135	-0.005474
 578	2.8850e-01	16.9198	34.049876	0.000178	1.775278	0.601480	-0.014368
 579	2.8900e-01	16.8878	33.989581	0.000149	1.489965	0.504814	-0.012059
 580	2.8950e-01	16.8589	33.917740	0.000178	1.775278	0.601480	-0.014368
 581	2.9000e-01	16.8156	33.854452	0.000156	1.563935	0.529876	-0.012658
 582	2.9050e-01	16.7899	33.797577	0.000141	1.405428	0.476172	-0.011375
 583	2.9100e-01	16.7097	33.792446	0.000013	0.126806	0.042963	-0.001026
 584	2.9150e-01	16.7049	33.679553	0.000279	2.789722	0.945183	-0.022579
 585	2.9200e-01	16.6760	33.637218	0.000105	1.046146	0.354444	-0.008467
 586	2.9250e-01	16.6343	33.551693	0.000211	2.113426	0.716048	-0.017105
 587	2.9300e-01	16.5509	33.556397	-0.000012	-0.116238	-0.039383	0.000941
 588	2.9350e-01	16.5717	33.464885	-0.000226	-2.261366	-0.766171	-0.018302
 589	2.9400e-01	16.5011	33.385347	0.000197	1.965486	0.665925	-0.015908
 590	2.9450e-01	16.4707	33.333604	0.000128	1.278623	0.433209	-0.010349
 591	2.9500e-01	16.4113	33.271598	0.000153	1.532234	0.519135	-0.012401
 592	2.9550e-01	16.3808	33.227553	0.000109	1.088414	0.368765	-0.008809
 593	2.9600e-01	16.3519	33.161271	0.000164	1.637905	0.554937	-0.013256
 594	2.9650e-01	16.2942	33.098838	0.000154	1.542801	0.522715	-0.012487
 595	2.9700e-01	16.2493	33.024859	0.000183	1.828113	0.619382	-0.014796
 596	2.9750e-01	16.2108	32.997063	0.000069	0.686863	0.232716	-0.005559
 597	2.9800e-01	16.1819	32.912821	0.000208	2.081725	0.705307	-0.016848
 598	2.9850e-01	16.1498	32.846966	0.000163	1.627338	0.551357	-0.013171
 599	2.9900e-01	16.1145	32.832427	0.000036	0.359282	0.121728	-0.002908
 600	2.9950e-01	16.0439	32.725521	0.000264	2.641782	0.895060	-0.021381
 601	3.0000e-01	15.9894	32.725521	-0.000000	-0.000000	-0.000000	0.000000
 602	3.0050e-01	15.9782	32.646838	0.000194	1.944352	0.658764	-0.015737
 603	3.0100e-01	15.9413	32.577562	0.000171	1.711875	0.579999	-0.013855
 604	3.0150e-01	15.8979	32.466808	0.000274	2.736887	0.927282	-0.022151
 605	3.0200e-01	15.8562	32.453551	0.000033	0.327581	0.110987	-0.002651
 606	3.0250e-01	15.8418	32.362895	0.000224	2.240232	0.759011	-0.018131
 607	3.0300e-01	15.7808	32.335954	0.000067	0.665729	0.225555	-0.005388
 608	3.0350e-01	15.7455	32.236745	0.000245	2.451574	0.830616	-0.019842
 609	3.0400e-01	15.6830	32.206384	0.000075	0.750266	0.254197	-0.006072
 610	3.0450e-01	15.6429	32.124707	0.000202	2.018322	0.683826	-0.016335
 611	3.0500e-01	15.6140	32.086221	0.000095	0.951042	0.322222	-0.007697
 612	3.0550e-01	15.5691	31.994709	0.000226	2.261366	0.766171	-0.018302
 613	3.0600e-01	15.5210	31.979742	0.000037	0.369850	0.125308	-0.002993
 614	3.0650e-01	15.5001	31.890796	0.000220	2.197963	0.744690	-0.017789
 615	3.0700e-01	15.4632	31.826225	0.000160	1.595637	0.540616	-0.012914
 616	3.0750e-01	15.4087	31.775765	0.000125	1.246921	0.422468	-0.010092
 617	3.0800e-01	15.3814	31.740700	0.000087	0.866505	0.293580	-0.007013
 618	3.0850e-01	15.3188	31.667148	0.000182	1.817546	0.615801	-0.014710
 619	3.0900e-01	15.2932	31.613267	0.000133	1.331458	0.451110	-0.010776
 620	3.0950e-01	15.2514	31.529881	0.000206	2.060590	0.698147	-0.016677
 621	3.1000e-01	15.2194	31.443928	0.000212	2.123993	0.719628	-0.017191
 622	3.1050e-01	15.1744	31.425112	0.000046	0.464954	0.157531	-0.003763
 623	3.1100e-01	15.1215	31.352416	0.000180	1.796412	0.608641	-0.014539
 624	3.1150e-01	15.0958	31.276299	0.000188	1.880949	0.637283	-0.015223
 625	3.1200e-01	15.0605	31.248503	0.000069	0.686863	0.232716	-0.005559
 626	3.1250e-01	15.0172	31.153143	0.000236	2.356470	0.798394	-0.019072
 627	3.1300e-01	14.9851	31.109953	0.000107	1.067280	0.361604	-0.008638
 628	3.1350e-01	14.9466	31.008605	0.000250	2.504410	0.848517	-0.020269
 629	3.1400e-01	14.8937	30.993211	0.000038	0.380417	0.128889	-0.003079
 630	3.1450e-01	14.8327	30.956007	0.000092	0.919340	0.311481	-0.007441
 631	3.1500e-01	14.8007	30.883739	0.000179	1.785845	0.605061	-0.014454
 632	3.1550e-01	14.7525	30.811042	0.000180	1.796412	0.608641	-0.014539
 633	3.1600e-01	14.7589	30.731077	-0.000198	-1.976053	-0.669505	-0.015993
 634	3.1650e-01	14.6787	30.700288	0.000076	0.760833	0.257777	-0.006158
 635	3.1700e-01	14.6675	30.594236	0.000262	2.620648	0.887900	-0.021210
 636	3.1750e-01	14.6242	30.531803	0.000154	1.542801	0.522715	-0.012487
 637	3.1800e-01	14.5777	30.501869	0.000074	0.739699	0.250617	-0.005987
 638	3.1850e-01	14.5215	30.458252	0.000108	1.077847	0.365185	-0.008724
 639	3.1900e-01	14.4686	30.362036	0.000238	2.377604	0.805554	-0.019243
 640	3.1950e-01	14.4654	30.303879	0.000144	1.437130	0.486913	-0.011631
 641	3.2000e-01	14.4317	30.218781	0.000210	2.102859	0.712468	-0.017019
 642	3.2050e-01	14.3900	30.171315	0.000117	1.172951	0.397407	-0.009493
 643	3.2100e-01	14.3434	30.089639	0.000202	2.018322	0.683826	-0.016335
 644	3.2150e-01	14.2937	30.033620	0.000138	1.384294	0.469012	-0.011204
 645	3.2200e-01	14.2456	29.957502	0.000188	1.880949	0.637283	-0.015223
 646	3.2250e-01	14.2167	29.905332	0.000129	1.289190	0.436789	-0.010434
 647	3.2300e-01	14.1718	29.858293	0.000116	1.162384	0.393826	-0.009408
 648	3.2350e-01	14.1349	29.791156	0.000166	1.659039	0.562098	-0.013427
 649	3.2400e-01	14.0916	29.727440	0.000157	1.574502	0.533456	-0.012743
 650	3.2450e-01	14.0451	29.659020	0.000169	1.690741	0.572838	-0.013684
 651	3.2500e-01	14.0146	29.600863	0.000144	1.437130	0.486913	-0.011631
 652	3.2550e-01	13.9729	29.560239	0.000100	1.003877	0.340123	-0.008125
 653	3.2600e-01	13.9312	29.480700	0.000197	1.965486	0.665925	-0.015908
 654	3.2650e-01	13.9103	29.395175	0.000211	2.113426	0.716048	-0.017105
 655	3.2700e-01	13.8686	29.317775	0.000191	1.912650	0.648024	-0.015480
 656	3.2750e-01	13.8173	29.265177	0.000130	1.299757	0.440370	-0.010520
 657	3.2800e-01	13.7659	29.248500	0.000041	0.412118	0.139629	-0.003335
 658	3.2850e-01	13.7675	29.139883	-0.000268	-2.684051	-0.909381	-0.021723
 659	3.2900e-01	13.6809	29.087713	0.000129	1.289190	0.436789	-0.010434
 660	3.2950e-01	13.6488	29.031694	0.000138	1.384294	0.469012	-0.011204
 661	3.3000e-01	13.6312	28.957715	0.000183	1.828113	0.619382	-0.014796
 662	3.3050e-01	13.5846	28.893571	0.000159	1.585069	0.537036	-0.012829
 663	3.3100e-01	13.5333	28.835841	0.000143	1.426563	0.483332	-0.011546
 664	3.3150e-01	13.4980	28.756303	0.000197	1.965486	0.665925	-0.015908
 665	3.3200e-01	13.4611	28.719955	0.000090	0.898206	0.304320	-0.007270
 666	3.3250e-01	13.4242	28.650680	0.000171	1.711875	0.579999	-0.013855
 667	3.3300e-01	13.3713	28.570286	0.000199	1.986620	0.673085	-0.016079
 668	3.3350e-01	13.3344	28.530517	0.000098	0.982743	0.332962	-0.007954
 669	3.3400e-01	13.3248	28.443709	0.000215	2.145127	0.726789	-0.017362
 670	3.3450e-01	13.2494	28.382986	0.000150	1.500532	0.508394	-0.012145
 671	3.3500e-01	13.1964	28.341507	0.000103	1.025012	0.347283	-0.008296
 672	3.3550e-01	13.1772	28.245718	0.000237	2.367037	0.801974	-0.019158
 673	3.3600e-01	13.1355	28.177726	0.000168	1.680174	0.569258	-0.013598
 674	3.3650e-01	13.0857	28.112727	0.000161	1.606204	0.544197	-0.013000
 675	3.3700e-01	13.0665	28.037893	0.000185	1.849248	0.626542	-0.014967
 676	3.3750e-01	13.0296	27.988288	0.000123	1.225787	0.415308	-0.009921
 677	3.3800e-01	12.9911	27.888651	0.000246	2.462141	0.834196	-0.019927
 678	3.3850e-01	12.9269	27.851876	0.000091	0.908773	0.307901	-0.007355
 679	3.3900e-01	12.9397	27.709904	-0.000351	-3.508287	-1.188640	-0.028394
 680	3.3950e-01	12.8483	27.733851	-0.000059	-0.591759	-0.200493	0.004789
 681	3.4000e-01	12.8258	27.678260	0.000137	1.373727	0.465431	-0.011118
 682	3.4050e-01	12.7857	27.589741	0.000219	2.187396	0.741110	-0.017704
 683	3.4100e-01	12.7376	27.554676	0.000087	0.866505	0.293580	-0.007013
 684	3.4150e-01	12.6959	27.453756	0.000249	2.493843	0.844937	-0.020184
 685	3.4200e-01	12.6558	27.389185	0.000160	1.595637	0.540616	-0.012914
 686	3.4250e-01	12.6269	27.334449	0.000135	1.352593	0.458271	-0.010947
 687	3.4300e-01	12.5900	27.244220	0.000223	2.229664	0.755431	-0.018046
 688	3.4350e-01	12.5467	27.183925	0.000149	1.489965	0.504814	-0.012059
 689	3.4400e-01	12.4890	27.133465	0.000125	1.246921	0.422468	-0.010092
 690	3.4450e-01	12.4697	27.082150	0.000127	1.268056	0.429629	-0.010263
 691	3.4500e-01	12.4216	26.967547	0.000283	2.831991	0.959504	-0.022921
 692	3.4550e-01	12.3686	26.943599	0.000059	0.591759	0.200493	-0.004789
 693	3.4600e-01	12.3510	26.820443	0.000304	3.043333	1.031109	-0.024631
 694	3.4650e-01	12.3013	26.791365	0.000072	0.718565	0.243456	-0.005816
 695	3.4700e-01	12.2644	26.760576	0.000076	0.760833	0.257777	-0.006158
 696	3.4750e-01	12.2243	26.664360	0.000238	2.377604	0.805554	-0.019243
 697	3.4800e-01	12.1745	26.612618	0.000128	1.278623	0.433209	-0.010349
 698	3.4850e-01	12.1473	26.543342	0.000171	1.711875	0.579999	-0.013855
 699	3.4900e-01	12.1248	26.460383	0.000205	2.050023	0.694567	-0.016592
 700	3.4950e-01	12.0702	26.385976	0.000184	1.838681	0.622962	-0.014881
 701	3.5000e-01	12.0446	26.326536	0.000147	1.468831	0.497653	-0.011888
 702	3.5050e-01	11.9724	26.255978	0.000174	1.743576	0.590740	-0.014112
 703	3.5100e-01	11.9291	26.184565	0.000176	1.764711	0.597900	-0.014283
 704	3.5150e-01	11.8970	26.143940	0.000100	1.003877	0.340123	-0.008125
 705	3.5200e-01	11.8457	26.076803	0.000166	1.659039	0.562098	-0.013427
 706	3.5250e-01	11.8039	25.979304	0.000241	2.409306	0.816295	-0.019500
 707	3.5300e-01	11.7670	25.945950	0.000082	0.824236	0.279259	-0.006671
 708	3.5350e-01	11.7414	25.848879	0.000240	2.398738	0.812715	-0.019414
 709	3.5400e-01	11.6692	25.806972	0.000104	1.035579	0.350864	-0.008381
 710	3.5450e-01	11.6483	25.737696	0.000171	1.711875	0.579999	-0.013855
 711	3.5500e-01	11.6162	25.647895	0.000222	2.219097	0.751851	-0.017960
 712	3.5550e-01	11.5633	25.632928	0.000037	0.369850	0.125308	-0.002993
 713	3.5600e-01	11.5585	25.516614	0.000287	2.874259	0.973825	-0.023263
 714	3.5650e-01	11.5040	25.429806	0.000215	2.145127	0.726789	-0.017362
 715	3.5700e-01	11.4606	25.389609	0.000099	0.993310	0.336543	-0.008039
 716	3.5750e-01	11.4253	25.312209	0.000191	1.912650	0.648024	-0.015480
 717	3.5800e-01	11.3580	25.272012	0.000099	0.993310	0.336543	-0.008039
 718	3.5850e-01	11.3435	25.158264	0.000281	2.810857	0.952344	-0.022750
 719	3.5900e-01	11.2954	25.060765	0.000241	2.409306	0.816295	-0.019500
 720	3.5950e-01	11.2633	25.047509	0.000033	0.327581	0.110987	-0.002651
 721	3.6000e-01	11.2024	24.997904	0.000123	1.225787	0.415308	-0.009921
 722	3.6050e-01	11.1574	24.938465	0.000147	1.468831	0.497653	-0.011888
 723	3.6100e-01	11.1157	24.840538	0.000242	2.419873	0.819875	-0.019585
 724	3.6150e-01	11.0788	24.751165	0.000221	2.208530	0.748270	-0.017875
 725	3.6200e-01	11.0435	24.706692	0.000110	1.098981	0.372345	-0.008895
 726	3.6250e-01	11.0098	24.648535	0.000144	1.437130	0.486913	-0.011631
 727	3.6300e-01	10.9681	24.557023	0.000226	2.261366	0.766171	-0.018302
 728	3.6350e-01	10.9232	24.488175	0.000170	1.701308	0.576419	-0.013770
 729	3.6400e-01	10.9216	24.383835	0.000258	2.578380	0.873579	-0.020868
 730	3.6450e-01	10.8366	24.309000	0.000185	1.849248	0.626542	-0.014967
 731	3.6500e-01	10.7901	24.303013	0.000015	0.147940	0.050123	-0.001197
 732	3.6550e-01	10.7692	24.225613	0.000191	1.912650	0.648024	-0.015480
 733	3.6600e-01	10.7259	24.099891	0.000311	3.106736	1.052591	-0.025144
 734	3.6650e-01	10.7131	24.078938	0.000052	0.517789	0.175432	-0.004191
 735	3.6700e-01	10.6425	23.995123	0.000207	2.071157	0.701727	-0.016763
 736	3.6750e-01	10.5895	23.951078	0.000109	1.088414	0.368765	-0.008809
 737	3.6800e-01	10.5799	23.846310	0.000259	2.588947	0.877159	-0.020954
 738	3.6850e-01	10.5366	23.751804	0.000234	2.335336	0.791233	-0.018901
 739	3.6900e-01	10.4997	23.695358	0.000139	1.394861	0.472592	-0.011289
 740	3.6950e-01	10.4869	23.593583	0.000251	2.514977	0.852097	-0.020355
 741	3.7000e-01	10.4307	23.581610	0.000030	0.295880	0.100247	-0.002395
 742	3.7050e-01	10.3970	23.480690	0.000249	2.493843	0.844937	-0.020184
 743	3.7100e-01	10.3441	23.449901	0.000076	0.760833	0.257777	-0.006158
 744	3.7150e-01	10.3040	23.354541	0.000236	2.356470	0.798394	-0.019072
 745	3.7200e-01	10.2510	23.285265	0.000171	1.711875	0.579999	-0.013855
 746	3.7250e-01	10.2109	23.233523	0.000128	1.278623	0.433209	-0.010349
 747	3.7300e-01	10.1837	23.130465	0.000255	2.546678	0.862838	-0.020612
 748	3.7350e-01	10.1468	23.044085	0.000213	2.134560	0.723209	-0.017276
 749	3.7400e-01	10.0858	22.974809	0.000171	1.711875	0.579999	-0.013855
 750	3.7450e-01	10.0617	22.921784	0.000131	1.310324	0.443950	-0.010605
 751	3.7500e-01	10.0056	22.844384	0.000191	1.912650	0.648024	-0.015480
 752	3.7550e-01	9.9527	22.805042	0.000097	0.972176	0.329382	-0.007868
 753	3.7600e-01	9.9350	22.713958	0.000225	2.250799	0.762591	-0.018217
 754	3.7650e-01	9.9206	22.595933	0.000292	2.916528	0.988146	-0.023605
 755	3.7700e-01	9.8821	22.541197	0.000135	1.352593	0.458271	-0.010947
 756	3.7750e-01	9.8131	22.480047	0.000151	1.511100	0.511974	-0.012230
 757	3.7800e-01	9.7602	22.424883	0.000136	1.363160	0.461851	-0.011033
 758	3.7850e-01	9.7313	22.341496	0.000206	2.060590	0.698147	-0.016677
 759	3.7900e-01	9.7168	22.263668	0.000192	1.923218	0.651604	-0.015566
 760	3.7950e-01	9.6414	22.181137	0.000204	2.039456	0.690986	-0.016506
 761	3.8000e-01	9.6110	22.172157	0.000022	0.221910	0.075185	-0.001796
 762	3.8050e-01	9.5596	22.084066	0.000218	2.176829	0.737530	-0.017618
 763	3.8100e-01	9.5291	21.987850	0.000238	2.377604	0.805554	-0.019243
 764	3.8150e-01	9.4971	21.914726	0.000181	1.806979	0.612221	-0.014625
 765	3.8200e-01	9.4810	21.827491	0.000216	2.155694	0.730369	-0.017447
 766	3.8250e-01	9.4233	21.774038	0.000132	1.320891	0.447530	-0.010691
 767	3.8300e-01	9.3703	21.691933	0.000203	2.028889	0.687406	-0.016421
 768	3.8350e-01	9.3398	21.638480	0.000132	1.320891	0.447530	-0.010691
 769	3.8400e-01	9.2869	21.525160	0.000280	2.800289	0.948764	-0.022664
 770	3.8450e-01	9.2644	21.440917	0.000208	2.081725	0.705307	-0.016848
 771	3.8500e-01	9.2420	21.366938	0.000183	1.828113	0.619382	-0.014796
 772	3.8550e-01	9.1554	21.311347	0.000137	1.373727	0.465431	-0.011118
 773	3.8600e-01	9.1249	21.238651	0.000180	1.796412	0.608641	-0.014539
 774	3.8650e-01	9.0848	21.165527	0.000181	1.806979	0.612221	-0.014625
 775	3.8700e-01	9.0447	21.084278	0.000201	2.007755	0.680246	-0.016250
 776	3.8750e-01	9.0142	21.015430	0.000170	1.701308	0.576419	-0.013770
 777	3.8800e-01	8.9789	20.976089	0.000097	0.972176	0.329382	-0.007868
 778	3.8850e-01	8.9564	20.857637	0.000293	2.927095	0.991727	-0.023690
 779	3.8900e-01	8.8907	20.808032	0.000123	1.225787	0.415308	-0.009921
 780	3.8950e-01	8.8650	20.712672	0.000236	2.356470	0.798394	-0.019072
 781	3.9000e-01	8.8249	20.649383	0.000156	1.563935	0.529876	-0.012658
 782	3.9050e-01	8.7719	20.551029	0.000243	2.430440	0.823455	-0.019671
 783	3.9100e-01	8.7142	20.510832	0.000099	0.993310	0.336543	-0.008039
 784	3.9150e-01	8.7078	20.458235	0.000130	1.299757	0.440370	-0.010520
 785	3.9200e-01	8.6789	20.343203	0.000284	2.842558	0.963085	-0.023006
 786	3.9250e-01	8.6228	20.272218	0.000175	1.754144	0.594320	-0.014197
 787	3.9300e-01	8.5522	20.225606	0.000115	1.151817	0.390246	-0.009322
 788	3.9350e-01	8.5554	20.146496	-0.000195	-1.954919	-0.662344	-0.015822
 789	3.9400e-01	8.4992	20.057122	0.000221	2.208530	0.748270	-0.017875
 790	3.9450e-01	8.4671	20.020346	0.000091	0.908773	0.307901	-0.007355
 791	3.9500e-01	8.4351	19.880085	0.000347	3.466019	1.174319	-0.028052
 792	3.9550e-01	8.3901	19.806106	0.000183	1.828113	0.619382	-0.014796
 793	3.9600e-01	8.3260	19.736403	0.000172	1.722442	0.583579	-0.013941
 794	3.9650e-01	8.2923	19.682522	0.000133	1.331458	0.451110	-0.010776
 795	3.9700e-01	8.2538	19.566636	0.000286	2.863692	0.970245	-0.023177
 796	3.9750e-01	8.2217	19.525584	0.000101	1.014444	0.343703	-0.008210
 797	3.9800e-01	8.1607	19.452888	0.000180	1.796412	0.608641	-0.014539
 798	3.9850e-01	8.1110	19.400717	0.000129	1.289190	0.436789	-0.010434
 799	3.9900e-01	8.0821	19.299798	0.000249	2.493843	0.844937	-0.020184
 800	3.9950e-01	8.0532	19.238220	0.000152	1.521667	0.515555	-0.012316
 801	4.0000e-01	7.9971	19.162102	0.000188	1.880949	0.637283	-0.015223
 802	4.0050e-01	8.0196	19.029966	-0.000327	-3.265243	-1.106294	-0.026427
 803	4.0100e-01	7.9329	18.953849	0.000188	1.880949	0.637283	-0.015223
 804	4.0150e-01	7.8864	18.916645	0.000092	0.919340	0.311481	-0.007441
 805	4.0200e-01	7.8607	18.794772	0.000301	3.011632	1.020369	-0.024375
 806	4.0250e-01	7.8287	18.717800	0.000190	1.902083	0.644443	-0.015395
 807	4.0300e-01	7.7693	18.671189	0.000115	1.151817	0.390246	-0.009322
 808	4.0350e-01	7.7452	18.581387	0.000222	2.219097	0.751851	-0.017960
 809	4.0400e-01	7.7035	18.471915	0.000271	2.705185	0.916542	-0.021894
 810	4.0450e-01	7.6554	18.412048	0.000148	1.479398	0.501234	-0.011974
 811	4.0500e-01	7.6185	18.367575	0.000110	1.098981	0.372345	-0.008895
 812	4.0550e-01	7.5784	18.258958	0.000268	2.684051	0.909381	-0.021723
 813	4.0600e-01	7.5222	18.222610	0.000090	0.898206	0.304320	-0.007270
 814	4.0650e-01	7.5126	18.139223	0.000206	2.060590	0.698147	-0.016677
 815	4.0700e-01	7.4773	18.066954	0.000179	1.785845	0.605061	-0.014454
 816	4.0750e-01	7.4388	17.963469	0.000256	2.557245	0.866418	-0.020697
 817	4.0800e-01	7.3731	17.883930	0.000197	1.965486	0.665925	-0.015908
 818	4.0850e-01	7.3105	17.820642	0.000156	1.563935	0.529876	-0.012658
 819	4.0900e-01	7.3217	17.710315	-0.000273	-2.726319	-0.923702	-0.022065
 820	4.0950e-01	7.2511	17.650019	0.000149	1.489965	0.504814	-0.012059
 821	4.1000e-01	7.2271	17.581599	0.000169	1.690741	0.572838	-0.013684
 822	4.1050e-01	7.1918	17.501206	0.000199	1.986620	0.673085	-0.016079
 823	4.1100e-01	7.1629	17.388740	0.000278	2.779155	0.941603	-0.022493
 824	4.1150e-01	7.0955	17.313051	0.000187	1.870382	0.633703	-0.015138
 825	4.1200e-01	7.0682	17.248907	0.000159	1.585069	0.537036	-0.012829
 826	4.1250e-01	7.0297	17.152691	0.000238	2.377604	0.805554	-0.019243
 827	4.1300e-01	6.9543	17.095389	0.000142	1.415995	0.479752	-0.011460
 828	4.1350e-01	6.9415	16.992332	0.000255	2.546678	0.862838	-0.020612
 829	4.1400e-01	6.8854	16.922629	0.000172	1.722442	0.583579	-0.013941
 830	4.1450e-01	6.8613	16.824703	0.000242	2.419873	0.819875	-0.019585
 831	4.1500e-01	6.8019	16.799045	0.000063	0.634028	0.214814	-0.005132
 832	4.1550e-01	6.7891	16.672468	0.000313	3.127870	1.059751	-0.025315
 833	4.1600e-01	6.7346	16.600199	0.000179	1.785845	0.605061	-0.014454
 834	4.1650e-01	6.6977	16.536056	0.000159	1.585069	0.537036	-0.012829
 835	4.1700e-01	6.6255	16.464215	0.000178	1.775278	0.601480	-0.014368
 836	4.1750e-01	6.6287	16.351321	-0.000279	-2.789722	-0.945183	-0.022579
 837	4.1800e-01	6.5758	16.267079	0.000208	2.081725	0.705307	-0.016848
 838	4.1850e-01	6.5372	16.220896	0.000114	1.141250	0.386666	-0.009237
 839	4.1900e-01	6.5276	16.115272	0.000261	2.610081	0.884319	-0.021125
 840	4.1950e-01	6.4843	16.028037	0.000216	2.155694	0.730369	-0.017447
 841	4.2000e-01	6.4169	15.961755	0.000164	1.637905	0.554937	-0.013256
 842	4.2050e-01	6.3640	15.876657	0.000210	2.102859	0.712468	-0.017019
 843	4.2100e-01	6.3335	15.811658	0.000161	1.606204	0.544197	-0.013000
 844	4.2150e-01	6.3111	15.708601	0.000255	2.546678	0.862838	-0.020612
 845	4.2200e-01	6.2485	15.633339	0.000186	1.859815	0.630122	-0.015052
 846	4.2250e-01	6.2244	15.512321	0.000299	2.990498	1.013208	-0.024204
 847	4.2300e-01	6.1635	15.506334	0.000015	0.147940	0.050123	-0.001197
 848	4.2350e-01	6.1218	15.417388	0.000220	2.197963	0.744690	-0.017789
 849	4.2400e-01	6.0833	15.292521	0.000309	3.085602	1.045430	-0.024973
 850	4.2450e-01	6.0496	15.267719	0.000061	0.612894	0.207654	-0.004960
 851	4.2500e-01	6.0319	15.118905	0.000368	3.677361	1.245924	-0.029763
 852	4.2550e-01	5.9854	15.011144	0.000266	2.662917	0.902221	-0.021552
 853	4.2600e-01	5.9308	14.970092	0.000101	1.014444	0.343703	-0.008210
 854	4.2650e-01	5.9036	14.893119	0.000190	1.902083	0.644443	-0.015395
 855	4.2700e-01	5.8587	14.834962	0.000144	1.437130	0.486913	-0.011631
 856	4.2750e-01	5.8057	14.716938	0.000292	2.916528	0.988146	-0.023605
 857	4.2800e-01	5.7865	14.616446	0.000248	2.483275	0.841357	-0.020098
 858	4.2850e-01	5.7383	14.584801	0.000078	0.781968	0.264938	-0.006329
 859	4.2900e-01	5.7175	14.493717	0.000225	2.250799	0.762591	-0.018217
 860	4.2950e-01	5.6629	14.376120	0.000291	2.905961	0.984566	-0.023519
 861	4.3000e-01	5.6244	14.297010	0.000195	1.954919	0.662344	-0.015822
 862	4.3050e-01	5.5956	14.207636	0.000221	2.208530	0.748270	-0.017875
 863	4.3100e-01	5.5571	14.116552	0.000225	2.250799	0.762591	-0.018217
 864	4.3150e-01	5.4801	14.067802	0.000120	1.204653	0.408147	-0.009750
 865	4.3200e-01	5.4464	13.949350	0.000293	2.927095	0.991727	-0.023690
 866	4.3250e-01	5.4400	13.892476	0.000141	1.405428	0.476172	-0.011375
 867	4.3300e-01	5.3678	13.779583	0.000279	2.789722	0.945183	-0.022579
 868	4.3350e-01	5.3277	13.725275	0.000134	1.342025	0.454691	-0.010862
 869	4.3400e-01	5.3212	13.605967	0.000295	2.948229	0.998887	-0.023861
 870	4.3450e-01	5.2442	13.528567	0.000191	1.912650	0.648024	-0.015480
 871	4.3500e-01	5.2202	13.482383	0.000114	1.141250	0.386666	-0.009237
 872	4.3550e-01	5.1801	13.343405	0.000343	3.434317	1.163578	-0.027796
 873	4.3600e-01	5.1496	13.298505	0.000111	1.109549	0.375925	-0.008980
 874	4.3650e-01	5.0870	13.197157	0.000250	2.504410	0.848517	-0.020269
 875	4.3700e-01	5.0598	13.152257	0.000111	1.109549	0.375925	-0.008980
 876	4.3750e-01	5.0036	13.033377	0.000294	2.937662	0.995307	-0.023776
 877	4.3800e-01	4.9731	12.910221	0.000304	3.043333	1.031109	-0.024631
 878	4.3850e-01	4.9154	12.867031	0.000107	1.067280	0.361604	-0.008638
 879	4.3900e-01	4.8961	12.758414	0.000268	2.684051	0.909381	-0.021723
 880	4.3950e-01	4.8352	12.647659	0.000274	2.736887	0.927282	-0.022151
 881	4.4000e-01	4.8079	12.629699	0.000044	0.443819	0.150370	-0.003592
 882	4.4050e-01	4.7598	12.524503	0.000260	2.599514	0.880739	-0.021039
 883	4.4100e-01	4.7020	12.477464	0.000116	1.162384	0.393826	-0.009408
 884	4.4150e-01	4.6860	12.347038	0.000322	3.222975	1.091973	-0.026085
 885	4.4200e-01	4.6266	12.245691	0.000250	2.504410	0.848517	-0.020269
 886	4.4250e-01	4.5977	12.178982	0.000165	1.648472	0.558518	-0.013342
 887	4.4300e-01	4.5448	12.125528	0.000132	1.320891	0.447530	-0.010691
 888	4.4350e-01	4.5255	12.015629	0.000272	2.715752	0.920122	-0.021980
 889	4.4400e-01	4.5063	11.869381	0.000361	3.613958	1.224442	-0.029250
 890	4.4450e-01	4.4774	11.757343	0.000277	2.768588	0.938023	-0.022408
 891	4.4500e-01	4.4100	11.753494	0.000010	0.095104	0.032222	-0.000770
 892	4.4550e-01	4.3812	11.627345	0.000312	3.117303	1.056171	-0.025230
 893	4.4600e-01	4.3186	11.549517	0.000192	1.923218	0.651604	-0.015566
 894	4.4650e-01	4.2913	11.464420	0.000210	2.102859	0.712468	-0.017019
 895	4.4700e-01	4.2657	11.351527	0.000279	2.789722	0.945183	-0.022579
 896	4.4750e-01	4.2079	11.244620	0.000264	2.641782	0.895060	-0.021381
 897	4.4800e-01	4.1614	11.184325	0.000149	1.489965	0.504814	-0.012059
 898	4.4850e-01	4.1325	11.114622	0.000172	1.722442	0.583579	-0.013941
 899	4.4900e-01	4.0972	11.026959	0.000217	2.166262	0.733949	-0.017533
 900	4.4950e-01	4.0523	10.934164	0.000229	2.293067	0.776912	-0.018559
 901	4.5000e-01	3.9801	10.840087	0.000232	2.324769	0.787653	-0.018816
 902	4.5050e-01	3.9721	10.747720	0.000228	2.282500	0.773332	-0.018473
 903	4.5100e-01	3.9352	10.636110	0.000276	2.758021	0.934443	-0.022322
 904	4.5150e-01	3.8999	10.509960	0.000312	3.117303	1.056171	-0.025230
 905	4.5200e-01	3.8678	10.428711	0.000201	2.007755	0.680246	-0.016250
 906	4.5250e-01	3.8197	10.365423	0.000156	1.563935	0.529876	-0.012658
 907	4.5300e-01	3.7459	10.275622	0.000222	2.219097	0.751851	-0.017960
 908	4.5350e-01	3.7443	10.177695	0.000242	2.419873	0.819875	-0.019585
 909	4.5400e-01	3.6929	10.056250	0.000300	3.001065	1.016788	-0.024289
 910	4.5450e-01	3.6432	10.028027	0.000070	0.697431	0.236296	-0.005645
 911	4.5500e-01	3.6288	9.857404	0.000422	4.216285	1.428516	-0.034124
 912	4.5550e-01	3.5887	9.801813	0.000137	1.373727	0.465431	-0.011118
 913	4.5600e-01	3.5277	9.715860	0.000212	2.123993	0.719628	-0.017191
 914	4.5650e-01	3.4876	9.642309	0.000182	1.817546	0.615801	-0.014710
 915	4.5700e-01	3.4828	9.499909	0.000352	3.518854	1.192220	-0.028480
 916	4.5750e-01	3.4234	9.452443	0.000117	1.172951	0.397407	-0.009493
 917	4.5800e-01	3.3657	9.332708	0.000296	2.958796	1.002467	-0.023947
 918	4.5850e-01	3.3352	9.251887	0.000200	1.997188	0.676665	-0.016164
 919	4.5900e-01	3.2887	9.160802	0.000225	2.250799	0.762591	-0.018217
 920	4.5950e-01	3.2486	9.076988	0.000207	2.071157	0.701727	-0.016763
 921	4.6000e-01	3.2357	8.952549	0.000308	3.075035	1.041850	-0.024888
 922	4.6050e-01	3.1764	8.863175	0.000221	2.208530	0.748270	-0.017875
 923	4.6100e-01	3.1459	8.794755	0.000169	1.690741	0.572838	-0.013684
 924	4.6150e-01	3.0801	8.682717	0.000277	2.768588	0.938023	-0.022408
 925	4.6200e-01	3.0625	8.624560	0.000144	1.437130	0.486913	-0.011631
 926	4.6250e-01	3.0288	8.512523	0.000277	2.768588	0.938023	-0.022408
 927	4.6300e-01	2.9742	8.383807	0.000318	3.180706	1.077652	-0.025743
 928	4.6350e-01	2.9293	8.288447	0.000236	2.356470	0.798394	-0.019072
 929	4.6400e-01	2.8684	8.197790	0.000224	2.240232	0.759011	-0.018131
 930	4.6450e-01	2.8571	8.109272	0.000219	2.187396	0.741110	-0.017704
 931	4.6500e-01	2.8202	8.042562	0.000165	1.648472	0.558518	-0.013342
 932	4.6550e-01	2.7769	7.932235	0.000273	2.726319	0.923702	-0.022065
 933	4.6600e-01	2.7368	7.796678	0.000335	3.349780	1.134936	-0.027111
 934	4.6650e-01	2.6871	7.730824	0.000163	1.627338	0.551357	-0.013171
 935	4.6700e-01	2.6598	7.648719	0.000203	2.028889	0.687406	-0.016421
 936	4.6750e-01	2.6069	7.543951	0.000259	2.588947	0.877159	-0.020954
 937	4.6800e-01	2.5892	7.430631	0.000280	2.800289	0.948764	-0.022664
 938	4.6850e-01	2.5523	7.309185	0.000300	3.001065	1.016788	-0.024289
 939	4.6900e-01	2.5010	7.236489	0.000180	1.796412	0.608641	-0.014539
 940	4.6950e-01	2.4481	7.166786	0.000172	1.722442	0.583579	-0.013941
 941	4.7000e-01	2.3983	7.056031	0.000274	2.736887	0.927282	-0.022151
 942	4.7050e-01	2.3919	6.941855	0.000282	2.821424	0.955924	-0.022835
 943	4.7100e-01	2.3213	6.799028	0.000353	3.529421	1.195800	-0.028565
 944	4.7150e-01	2.2828	6.735740	0.000156	1.563935	0.529876	-0.012658
 945	4.7200e-01	2.2652	6.619853	0.000286	2.863692	0.970245	-0.023177
 946	4.7250e-01	2.2331	6.522355	0.000241	2.409306	0.816295	-0.019500
 947	4.7300e-01	2.1802	6.456073	0.000164	1.637905	0.554937	-0.013256
 948	4.7350e-01	2.1112	6.345745	0.000273	2.726319	0.923702	-0.022065
 949	4.7400e-01	2.0839	6.270911	0.000185	1.849248	0.626542	-0.014967
 950	4.7450e-01	2.0646	6.130650	0.000347	3.466019	1.174319	-0.028052
 951	4.7500e-01	2.0278	6.051111	0.000197	1.965486	0.665925	-0.015908
 952	4.7550e-01	1.9892	5.936936	0.000282	2.821424	0.955924	-0.022835
 953	4.7600e-01	1.9604	5.842858	0.000232	2.324769	0.787653	-0.018816
 954	4.7650e-01	1.9155	5.730392	0.000278	2.779155	0.941603	-0.022493
 955	4.7700e-01	1.8513	5.635460	0.000235	2.345903	0.794813	-0.018987
 956	4.7750e-01	1.8240	5.530264	0.000260	2.599514	0.880739	-0.021039
 957	4.7800e-01	1.7631	5.439180	0.000225	2.250799	0.762591	-0.018217
 958	4.7850e-01	1.7021	5.349806	0.000221	2.208530	0.748270	-0.017875
 959	4.7900e-01	1.6636	5.276682	0.000181	1.806979	0.612221	-0.014625
 960	4.7950e-01	1.6572	5.127441	0.000369	3.687928	1.249504	-0.029848
 961	4.8000e-01	1.6315	5.013265	0.000282	2.821424	0.955924	-0.022835
 962	4.8050e-01	1.5657	4.911918	0.000250	2.504410	0.848517	-0.020269
 963	4.8100e-01	1.5401	4.828531	0.000206	2.060590	0.698147	-0.016677
 964	4.8150e-01	1.4903	4.728894	0.000246	2.462141	0.834196	-0.019927
 965	4.8200e-01	1.4342	4.632678	0.000238	2.377604	0.805554	-0.019243
 966	4.8250e-01	1.4246	4.506529	0.000312	3.117303	1.056171	-0.025230
 967	4.8300e-01	1.3925	4.392781	0.000281	2.810857	0.952344	-0.022750
 968	4.8350e-01	1.3395	4.280315	0.000278	2.779155	0.941603	-0.022493
 969	4.8400e-01	1.2898	4.221731	0.000145	1.447697	0.490493	-0.011717
 970	4.8450e-01	1.2657	4.082325	0.000344	3.444884	1.167158	-0.027881
 971	4.8500e-01	1.2192	3.980977	0.000250	2.504410	0.848517	-0.020269
 972	4.8550e-01	1.1695	3.856966	0.000306	3.064468	1.038270	-0.024802
 973	4.8600e-01	1.1470	3.752626	0.000258	2.578380	0.873579	-0.020868
 974	4.8650e-01	1.0748	3.668383	0.000208	2.081725	0.705307	-0.016848
 975	4.8700e-01	1.0524	3.556346	0.000277	2.768588	0.938023	-0.022408
 976	4.8750e-01	1.0139	3.446874	0.000271	2.705185	0.916542	-0.021894
 977	4.8800e-01	0.9834	3.326711	0.000297	2.969363	1.006048	-0.024033
 978	4.8850e-01	0.9160	3.250594	0.000188	1.880949	0.637283	-0.015223
 979	4.8900e-01	0.8968	3.132141	0.000293	2.927095	0.991727	-0.023690
 980	4.8950e-01	0.8535	3.024380	0.000266	2.662917	0.902221	-0.021552
 981	4.9000e-01	0.8037	2.890533	0.000331	3.307512	1.120615	-0.026769
 982	4.9050e-01	0.7732	2.806291	0.000208	2.081725	0.705307	-0.016848
 983	4.9100e-01	0.7203	2.726325	0.000198	1.976053	0.669505	-0.015993
 984	4.9150e-01	0.6930	2.574090	0.000376	3.761898	1.274566	-0.030447
 985	4.9200e-01	0.6561	2.425277	0.000368	3.677361	1.245924	-0.029763
 986	4.9250e-01	0.6016	2.360278	0.000161	1.606204	0.544197	-0.013000
 987	4.9300e-01	0.5888	2.237977	0.000302	3.022199	1.023949	-0.024460
 988	4.9350e-01	0.5118	2.149458	0.000219	2.187396	0.741110	-0.017704
 989	4.9400e-01	0.4797	2.097716	0.000128	1.278623	0.433209	-0.010349
 990	4.9450e-01	0.4556	1.961303	0.000337	3.370914	1.142097	-0.027282
 991	4.9500e-01	0.4315	1.734234	0.000561	5.611146	1.901108	-0.045414
 992	4.9550e-01	0.3529	1.726537	0.000019	0.190208	0.064444	-0.001539
 993	4.9600e-01	0.3192	1.597394	0.000319	3.191273	1.081233	-0.025829
 994	4.9650e-01	0.2920	1.485784	0.000276	2.758021	0.934443	-0.022322
 995	4.9700e-01	0.2599	1.347661	0.000341	3.413183	1.156418	-0.027625
 996	4.9750e-01	0.2214	1.259143	0.000219	2.187396	0.741110	-0.017704
 997	4.9800e-01	0.1941	1.130427	0.000318	3.180706	1.077652	-0.025743
 998	4.9850e-01	0.1107	1.055593	0.000185	1.849248	0.626542	-0.014967
 999	4.9900e-01	0.0930	0.905924	0.000370	3.698495	1.253084	-0.029934
1000	4.9950e-01	0.0433	0.819544	0.000213	2.134560	0.723209	-0.017276
1001	5.0000e-01	0.0465	0.665171	-0.000381	-3.814734	-1.292467	-0.030875
1002	5.0050e-01	-0.0193	0.647638	0.000043	0.433252	0.146790	-0.003507
1003	5.0100e-01	-0.0610	0.526621	0.000299	2.990498	1.013208	-0.024204
1004	5.0150e-01	-0.1315	0.423135	0.000256	2.557245	0.866418	-0.020697
1005	5.0200e-01	-0.1139	0.249947	-0.000428	-4.279688	-1.449997	-0.034638
1006	5.0250e-01	-0.1829	0.154159	0.000237	2.367037	0.801974	-0.019158
1007	5.0300e-01	-0.2182	0.064785	0.000221	2.208530	0.748270	-0.017875
1008	5.0350e-01	-0.2615	-0.022023	0.000215	2.145127	0.726789	-0.017362
1009	5.0400e-01	-0.3064	-0.158863	0.000338	3.381482	1.145677	-0.027368
1010	5.0450e-01	-0.3273	-0.290999	0.000327	3.265243	1.106294	-0.026427
1011	5.0500e-01	-0.3786	-0.349584	0.000145	1.447697	0.490493	-0.011717
1012	5.0550e-01	-0.4011	-0.507377	0.000390	3.899271	1.321109	-0.031559
1013	5.0600e-01	-0.4652	-0.610007	0.000254	2.536111	0.859258	-0.020526
1014	5.0650e-01	-0.5053	-0.709644	0.000246	2.462141	0.834196	-0.019927
1015	5.0700e-01	-0.5374	-0.855037	0.000359	3.592824	1.217282	-0.029079
1016	5.0750e-01	-0.5727	-0.937141	0.000203	2.028889	0.687406	-0.016421
1017	5.0800e-01	-0.6144	-1.032929	0.000237	2.367037	0.801974	-0.019158
1018	5.0850e-01	-0.6706	-1.180032	0.000364	3.635093	1.231603	-0.029421
1019	5.0900e-01	-0.7075	-1.311313	0.000324	3.244109	1.099134	-0.026256
1020	5.0950e-01	-0.7668	-1.362200	0.000126	1.257488	0.426049	-0.010177
1021	5.1000e-01	-0.7668	-1.505882	0.000355	3.550556	1.202961	-0.028736
1022	5.1050e-01	-0.8150	-1.633315	0.000315	3.149005	1.066912	-0.025486
1023	5.1100e-01	-0.8583	-1.710715	0.000191	1.912650	0.648024	-0.015480
1024	5.1150e-01	-0.8903	-1.860811	0.000371	3.709063	1.256664	-0.030019
1025	5.1200e-01	-0.9449	-1.935218	0.000184	1.838681	0.622962	-0.014881
1026	5.1250e-01	-0.9946	-2.037421	0.000253	2.525544	0.855677	-0.020440
1027	5.1300e-01	-1.0203	-2.156728	0.000295	2.948229	0.998887	-0.023861
1028	5.1350e-01	-1.0668	-2.291430	0.000333	3.328646	1.127776	-0.026940
1029	5.1400e-01	-1.1133	-2.369685	0.000193	1.933785	0.655184	-0.015651
1030	5.1450e-01	-1.1438	-2.511229	0.000350	3.497720	1.185060	-0.028309
1031	5.1500e-01	-1.1855	-2.611721	0.000248	2.483275	0.841357	-0.020098
1032	5.1550e-01	-1.2032	-2.735733	0.000306	3.064468	1.038270	-0.024802
1033	5.1600e-01	-1.2369	-2.898658	0.000403	4.026076	1.364072	-0.032585
1034	5.1650e-01	-1.3363	-2.892244	-0.000016	-0.158507	-0.053704	0.001283
1035	5.1700e-01	-1.3363	-3.018821	0.000313	3.127870	1.059751	-0.025315
1036	5.1750e-01	-1.3780	-3.149674	0.000323	3.233542	1.095554	-0.026171
1037	5.1800e-01	-1.4037	-3.251449	0.000251	2.514977	0.852097	-0.020355
1038	5.1850e-01	-1.4807	-3.357500	0.000262	2.620648	0.887900	-0.021210
1039	5.1900e-01	-1.5112	-3.426775	0.000171	1.711875	0.579999	-0.013855
1040	5.1950e-01	-1.5673	-3.554207	0.000315	3.149005	1.066912	-0.025486
1041	5.2000e-01	-1.5738	-3.674370	0.000297	2.969363	1.006048	-0.024033
1042	5.2050e-01	-1.6058	-3.793250	0.000294	2.937662	0.995307	-0.023776
1043	5.2100e-01	-1.6588	-3.901439	0.000267	2.673484	0.905801	-0.021638
1044	5.2150e-01	-1.6909	-4.029727	0.000317	3.170139	1.074072	-0.025658
1045	5.2200e-01	-1.7278	-4.114397	0.000209	2.092292	0.708888	-0.016934
1046	5.2250e-01	-1.7903	-4.199494	0.000210	2.102859	0.712468	-0.017019
1047	5.2300e-01	-1.8224	-4.327782	0.000317	3.170139	1.074072	-0.025658
1048	5.2350e-01	-1.8513	-4.443240	0.000285	2.853125	0.966665	-0.023092
1049	5.2400e-01	-1.9122	-4.489424	0.000114	1.141250	0.386666	-0.009237
1050	5.2450e-01	-1.9427	-4.641659	0.000376	3.761898	1.274566	-0.030447
1051	5.2500e-01	-1.9748	-4.743006	0.000250	2.504410	0.848517	-0.020269
1052	5.2550e-01	-2.0229	-4.815702	0.000180	1.796412	0.608641	-0.014539
1053	5.2600e-01	-2.0598	-4.966654	0.000373	3.730197	1.263825	-0.030190
1054	5.2650e-01	-2.0871	-5.060731	0.000232	2.324769	0.787653	-0.018816
1055	5.2700e-01	-2.1497	-5.129151	0.000169	1.690741	0.572838	-0.013684
1056	5.2750e-01	-2.1930	-5.239479	0.000273	2.726319	0.923702	-0.022065
1057	5.2800e-01	-2.2379	-5.313030	0.000182	1.817546	0.615801	-0.014710
1058	5.2850e-01	-2.2491	-5.414377	0.000250	2.504410	0.848517	-0.020269
1059	5.2900e-01	-2.2732	-5.585000	0.000422	4.216285	1.428516	-0.034124
1060	5.2950e-01	-2.3326	-5.634177	0.000122	1.215220	0.411728	-0.009835
1061	5.3000e-01	-2.3759	-5.772727	0.000342	3.423750	1.159998	-0.027710
1062	5.3050e-01	-2.4208	-5.876213	0.000256	2.557245	0.866418	-0.020697
1063	5.3100e-01	-2.4705	-5.952330	0.000188	1.880949	0.637283	-0.015223
1064	5.3150e-01	-2.4513	-6.110551	-0.000391	-3.909838	-1.324689	-0.031644
1065	5.3200e-01	-2.5459	-6.187524	0.000190	1.902083	0.644443	-0.015395
1066	5.3250e-01	-2.5876	-6.258082	0.000174	1.743576	0.590740	-0.014112
1067	5.3300e-01	-2.6454	-6.378245	0.000297	2.969363	1.006048	-0.024033
1068	5.3350e-01	-2.6855	-6.431698	0.000132	1.320891	0.447530	-0.010691
1069	5.3400e-01	-2.6887	-6.559986	0.000317	3.170139	1.074072	-0.025658
1070	5.3450e-01	-2.7416	-6.640379	0.000199	1.986620	0.673085	-0.016079
1071	5.3500e-01	-2.7625	-6.778502	0.000341	3.413183	1.156418	-0.027625
1072	5.3550e-01	-2.8234	-6.874718	0.000238	2.377604	0.805554	-0.019243
1073	5.3600e-01	-2.8571	-6.958105	0.000206	2.060590	0.698147	-0.016677
1074	5.3650e-01	-2.9181	-7.003005	0.000111	1.109549	0.375925	-0.008980
1075	5.3700e-01	-2.9630	-7.125734	0.000303	3.032766	1.027529	-0.024546
1076	5.3750e-01	-2.9582	-7.272409	-0.000362	-3.624526	-1.228022	-0.029335
1077	5.3800e-01	-3.0336	-7.301488	0.000072	0.718565	0.243456	-0.005816
1078	5.3850e-01	-3.0513	-7.444315	0.000353	3.529421	1.195800	-0.028565
1079	5.3900e-01	-3.1026	-7.556352	0.000277	2.768588	0.938023	-0.022408
1080	5.3950e-01	-3.1331	-7.599115	0.000106	1.056713	0.358024	-0.008553
1081	5.4000e-01	-3.1764	-7.724409	0.000310	3.096169	1.049010	-0.025059
1082	5.4050e-01	-3.2037	-7.861249	0.000338	3.381482	1.145677	-0.027368
1083	5.4100e-01	-3.2791	-7.905722	0.000110	1.098981	0.372345	-0.008895
1084	5.4150e-01	-3.3143	-7.982267	0.000189	1.891516	0.640863	-0.015309
1085	5.4200e-01	-3.3689	-8.019471	0.000092	0.919340	0.311481	-0.007441
1086	5.4250e-01	-3.3849	-8.209336	0.000469	4.691806	1.589627	-0.037973
1087	5.4300e-01	-3.4026	-8.282888	0.000182	1.817546	0.615801	-0.014710
1088	5.4350e-01	-3.4459	-8.370551	0.000217	2.166262	0.733949	-0.017533
1089	5.4400e-01	-3.5020	-8.492852	0.000302	3.022199	1.023949	-0.024460
1090	5.4450e-01	-3.5277	-8.558706	0.000163	1.627338	0.551357	-0.013171
1091	5.4500e-01	-3.5790	-8.684856	0.000312	3.117303	1.056171	-0.025230
1092	5.4550e-01	-3.6496	-8.714362	0.000073	0.729132	0.247037	-0.005901
1093	5.4600e-01	-3.6416	-8.862748	-0.000367	-3.666794	-1.242343	-0.029677
1094	5.4650e-01	-3.7042	-8.917484	0.000135	1.352593	0.458271	-0.010947
1095	5.4700e-01	-3.7411	-9.032942	0.000285	2.853125	0.966665	-0.023092
1096	5.4750e-01	-3.7876	-9.091955	0.000146	1.458264	0.494073	-0.011802
1097	5.4800e-01	-3.8036	-9.230505	0.000342	3.423750	1.159998	-0.027710
1098	5.4850e-01	-3.8887	-9.275834	0.000112	1.120116	0.379505	-0.009066
1099	5.4900e-01	-3.8903	-9.385733	0.000272	2.715752	0.920122	-0.021980
1100	5.4950e-01	-3.9609	-9.439187	0.000132	1.320891	0.447530	-0.010691
1101	5.5000e-01	-3.9833	-9.572606	0.000330	3.296944	1.117035	-0.026684
1102	5.5050e-01	-4.0202	-9.658558	0.000212	2.123993	0.719628	-0.017191
1103	5.5100e-01	-4.0715	-9.724413	0.000163	1.627338	0.551357	-0.013171
1104	5.5150e-01	-4.1084	-9.818490	0.000232	2.324769	0.787653	-0.018816
1105	5.5200e-01	-4.1133	-9.941219	0.000303	3.032766	1.027529	-0.024546
1106	5.5250e-01	-4.1774	-10.000658	0.000147	1.468831	0.497653	-0.011888
1107	5.5300e-01	-4.2255	-10.119966	0.000295	2.948229	0.998887	-0.023861
1108	5.5350e-01	-4.2592	-10.169570	0.000123	1.225787	0.415308	-0.009921
1109	5.5400e-01	-4.3122	-10.285457	0.000286	2.863692	0.970245	-0.023177
1110	5.5450e-01	-4.3394	-10.351311	0.000163	1.627338	0.551357	-0.013171
1111	5.5500e-01	-4.3796	-10.419731	0.000169	1.690741	0.572838	-0.013684
1112	5.5550e-01	-4.4181	-10.525355	0.000261	2.610081	0.884319	-0.021125
1113	5.5600e-01	-4.4678	-10.635682	0.000273	2.726319	0.923702	-0.022065
1114	5.5650e-01	-4.4935	-10.737029	0.000250	2.504410	0.848517	-0.020269
1115	5.5700e-01	-4.5336	-10.800745	0.000157	1.574502	0.533456	-0.012743
1116	5.5750e-01	-4.5512	-10.916204	0.000285	2.853125	0.966665	-0.023092
1117	5.5800e-01	-4.6362	-10.958967	0.000106	1.056713	0.358024	-0.008553
1118	5.5850e-01	-4.6651	-11.008144	0.000122	1.215220	0.411728	-0.009835
1119	5.5900e-01	-4.7084	-11.140280	0.000327	3.265243	1.106294	-0.026427
1120	5.5950e-01	-4.7373	-11.227515	0.000216	2.155694	0.730369	-0.017447
1121	5.6000e-01	-4.7886	-11.296791	0.000171	1.711875	0.579999	-0.013855
1122	5.6050e-01	-4.8031	-11.412250	0.000285	2.853125	0.966665	-0.023092
1123	5.6100e-01	-4.8544	-11.493498	0.000201	2.007755	0.680246	-0.016250
1124	5.6150e-01	-4.8849	-11.572181	0.000194	1.944352	0.658764	-0.015737
1125	5.6200e-01	-4.9154	-11.689778	0.000291	2.905961	0.984566	-0.023519
1126	5.6250e-01	-4.9827	-11.748363	0.000145	1.447697	0.490493	-0.011717
1127	5.6300e-01	-5.0453	-11.819776	0.000176	1.764711	0.597900	-0.014283
1128	5.6350e-01	-5.0485	-11.886058	0.000164	1.637905	0.554937	-0.013256
1129	5.6400e-01	-5.0886	-11.990827	0.000259	2.588947	0.877159	-0.020954
1130	5.6450e-01	-5.1400	-12.069510	0.000194	1.944352	0.658764	-0.015737
1131	5.6500e-01	-5.1737	-12.163159	0.000231	2.314201	0.784073	-0.018730
1132	5.6550e-01	-5.2122	-12.266645	0.000256	2.557245	0.866418	-0.020697
1133	5.6600e-01	-5.2843	-12.314539	0.000118	1.183519	0.400987	-0.009579
1134	5.6650e-01	-5.3020	-12.406051	0.000226	2.261366	0.766171	-0.018302
1135	5.6700e-01	-5.3405	-12.499701	0.000231	2.314201	0.784073	-0.018730
1136	5.6750e-01	-5.3742	-12.591212	0.000226	2.261366	0.766171	-0.018302
1137	5.6800e-01	-5.4255	-12.663481	0.000179	1.785845	0.605061	-0.014454
1138	5.6850e-01	-5.4672	-12.726770	0.000156	1.563935	0.529876	-0.012658
1139	5.6900e-01	-5.5089	-12.814860	0.000218	2.176829	0.737530	-0.017618
1140	5.6950e-01	-5.5490	-12.923905	0.000269	2.694618	0.912961	-0.021809
1141	5.7000e-01	-5.5972	-12.958543	0.000086	0.855938	0.289999	-0.006928
1142	5.7050e-01	-5.6373	-13.038508	0.000198	1.976053	0.669505	-0.015993
1143	5.7100e-01	-5.6613	-13.138573	0.000247	2.472708	0.837776	-0.020013
1144	5.7150e-01	-5.6934	-13.243341	0.000259	2.588947	0.877159	-0.020954
1145	5.7200e-01	-5.7367	-13.304064	0.000150	1.500532	0.508394	-0.012145
1146	5.7250e-01	-5.7672	-13.372911	0.000170	1.701308	0.576419	-0.013770
1147	5.7300e-01	-5.8137	-13.474259	0.000250	2.504410	0.848517	-0.020269
1148	5.7350e-01	-5.8554	-13.583303	0.000269	2.694618	0.912961	-0.021809
1149	5.7400e-01	-5.9052	-13.651723	0.000169	1.690741	0.572838	-0.013684
1150	5.7450e-01	-5.9212	-13.737248	0.000211	2.113426	0.716048	-0.017105
1151	5.7500e-01	-5.9742	-13.810372	0.000181	1.806979	0.612221	-0.014625
1152	5.7550e-01	-5.9950	-13.909153	0.000244	2.441007	0.827036	-0.019756
1153	5.7600e-01	-6.0383	-14.010073	0.000249	2.493843	0.844937	-0.020184
1154	5.7650e-01	-6.0768	-14.064381	0.000134	1.342025	0.454691	-0.010862
1155	5.7700e-01	-6.1699	-14.092605	0.000070	0.697431	0.236296	-0.005645
1156	5.7750e-01	-6.1923	-14.206781	0.000282	2.821424	0.955924	-0.022835
1157	5.7800e-01	-6.2116	-14.307700	0.000249	2.493843	0.844937	-0.020184
1158	5.7850e-01	-6.2693	-14.367995	0.000149	1.489965	0.504814	-0.012059
1159	5.7900e-01	-6.2838	-14.403061	0.000087	0.866505	0.293580	-0.007013
1160	5.7950e-01	-6.3303	-14.542039	0.000343	3.434317	1.163578	-0.027796
1161	5.8000e-01	-6.3865	-14.613452	0.000176	1.764711	0.597900	-0.014283
1162	5.8050e-01	-6.3913	-14.699833	0.000213	2.134560	0.723209	-0.017276
1163	5.8100e-01	-6.4330	-14.831969	0.000327	3.265243	1.106294	-0.026427
1164	5.8150e-01	-6.4987	-14.817857	-0.000035	-0.348715	-0.118148	0.002822
1165	5.8200e-01	-6.5356	-14.930750	0.000279	2.789722	0.945183	-0.022579
1166	5.8250e-01	-6.6255	-14.955980	0.000062	0.623461	0.211234	-0.005046
1167	5.8300e-01	-6.6175	-15.071867	-0.000286	-2.863692	-0.970245	-0.023177
1168	5.8350e-01	-6.6367	-15.188181	0.000287	2.874259	0.973825	-0.023263
1169	5.8400e-01	-6.6993	-15.217687	0.000073	0.729132	0.247037	-0.005901
1170	5.8450e-01	-6.7458	-15.305778	0.000218	2.176829	0.737530	-0.017618
1171	5.8500e-01	-6.7827	-15.402849	0.000240	2.398738	0.812715	-0.019414
1172	5.8550e-01	-6.8148	-15.420809	0.000044	0.443819	0.150370	-0.003592
1173	5.8600e-01	-6.8565	-15.567484	0.000362	3.624526	1.228022	-0.029335
1174	5.8650e-01	-6.9126	-15.647023	0.000197	1.965486	0.665925	-0.015908
1175	5.8700e-01	-6.9335	-15.678239	0.000077	0.771400	0.261358	-0.006243
1176	5.8750e-01	-6.9672	-15.797547	0.000295	2.948229	0.998887	-0.023861
1177	5.8800e-01	-7.0089	-15.867677	0.000173	1.733009	0.587159	-0.014026
1178	5.8850e-01	-7.0731	-15.898039	0.000075	0.750266	0.254197	-0.006072
1179	5.8900e-01	-7.0923	-15.993399	0.000236	2.356470	0.798394	-0.019072
1180	5.8950e-01	-7.1276	-16.080635	0.000216	2.155694	0.730369	-0.017447
1181	5.9000e-01	-7.1773	-16.124680	0.000109	1.088414	0.368765	-0.008809
1182	5.9050e-01	-7.2335	-16.237573	0.000279	2.789722	0.945183	-0.022579
1183	5.9100e-01	-7.2672	-16.301717	0.000159	1.585069	0.537036	-0.012829
1184	5.9150e-01	-7.2977	-16.366288	0.000160	1.595637	0.540616	-0.012914
1185	5.9200e-01	-7.3442	-16.459083	0.000229	2.293067	0.776912	-0.018559
1186	5.9250e-01	-7.3955	-16.524082	0.000161	1.606204	0.544197	-0.013000
1187	5.9300e-01	-7.4132	-16.574542	0.000125	1.246921	0.422468	-0.010092
1188	5.9350e-01	-7.4420	-16.712665	0.000341	3.413183	1.156418	-0.027625
1189	5.9400e-01	-7.4998	-16.759276	0.000115	1.151817	0.390246	-0.009322
1190	5.9450e-01	-7.5399	-16.824275	0.000161	1.606204	0.544197	-0.013000
1191	5.9500e-01	-7.5864	-16.885425	0.000151	1.511100	0.511974	-0.012230
1192	5.9550e-01	-7.6105	-17.001312	0.000286	2.863692	0.970245	-0.023177
1193	5.9600e-01	-7.6522	-17.088975	0.000217	2.166262	0.733949	-0.017533
1194	5.9650e-01	-7.7067	-17.128744	0.000098	0.982743	0.332962	-0.007954
1195	5.9700e-01	-7.7356	-17.192033	0.000156	1.563935	0.529876	-0.012658
1196	5.9750e-01	-7.7420	-17.306636	0.000283	2.831991	0.959504	-0.022921
1197	5.9800e-01	-7.8174	-17.370352	0.000157	1.574502	0.533456	-0.012743
1198	5.9850e-01	-7.8559	-17.424661	0.000134	1.342025	0.454691	-0.010862
1199	5.9900e-01	-7.8880	-17.521732	0.000240	2.398738	0.812715	-0.019414
1200	5.9950e-01	-7.9169	-17.602553	0.000200	1.997188	0.676665	-0.016164
1201	6.0000e-01	-7.9939	-17.650447	0.000118	1.183519	0.400987	-0.009579
1202	6.0050e-01	-8.0308	-17.721433	0.000175	1.754144	0.594320	-0.014197
1203	6.0100e-01	-8.0532	-17.822780	0.000250	2.504410	0.848517	-0.020269
1204	6.0150e-01	-8.0789	-17.915575	0.000229	2.293067	0.776912	-0.018559
1205	6.0200e-01	-8.1238	-17.957054	0.000103	1.025012	0.347283	-0.008296
1206	6.0250e-01	-8.1736	-18.005804	0.000120	1.204653	0.408147	-0.009750
1207	6.0300e-01	-8.2089	-18.111427	0.000261	2.610081	0.884319	-0.021125
1208	6.0350e-01	-8.2586	-18.164880	0.000132	1.320891	0.447530	-0.010691
1209	6.0400e-01	-8.2907	-18.242280	0.000191	1.912650	0.648024	-0.015480
1210	6.0450e-01	-8.3452	-18.326523	0.000208	2.081725	0.705307	-0.016848
1211	6.0500e-01	-8.3741	-18.431291	0.000259	2.588947	0.877159	-0.020954
1212	6.0550e-01	-8.4222	-18.477902	0.000115	1.151817	0.390246	-0.009322
1213	6.0600e-01	-8.4607	-18.542473	0.000160	1.595637	0.540616	-0.012914
1214	6.0650e-01	-8.5297	-18.616880	0.000184	1.838681	0.622962	-0.014881
1215	6.0700e-01	-8.5393	-18.685300	0.000169	1.690741	0.572838	-0.013684
1216	6.0750e-01	-8.5859	-18.738326	0.000131	1.310324	0.443950	-0.010605
1217	6.0800e-01	-8.6147	-18.849936	0.000276	2.758021	0.934443	-0.022322
1218	6.0850e-01	-8.6596	-18.909803	0.000148	1.479398	0.501234	-0.011974
1219	6.0900e-01	-8.7046	-18.995329	0.000211	2.113426	0.716048	-0.017105
1220	6.0950e-01	-8.7639	-19.075294	0.000198	1.976053	0.669505	-0.015993
1221	6.1000e-01	-8.7848	-19.126609	0.000127	1.268056	0.429629	-0.010263
1222	6.1050e-01	-8.8072	-19.186905	0.000149	1.489965	0.504814	-0.012059
1223	6.1100e-01	-8.8634	-19.271147	0.000208	2.081725	0.705307	-0.016848
1224	6.1150e-01	-8.8874	-19.372494	0.000250	2.504410	0.848517	-0.020269
1225	6.1200e-01	-8.9340	-19.423809	0.000127	1.268056	0.429629	-0.010263
1226	6.1250e-01	-8.9981	-19.480683	0.000141	1.405428	0.476172	-0.011375
1227	6.1300e-01	-8.9789	-19.579892	-0.000245	-2.451574	-0.830616	-0.019842
1228	6.1350e-01	-9.0623	-19.634628	0.000135	1.352593	0.458271	-0.010947
1229	6.1400e-01	-9.1136	-19.699627	0.000161	1.606204	0.544197	-0.013000
1230	6.1450e-01	-9.1570	-19.751798	0.000129	1.289190	0.436789	-0.010434
1231	6.1500e-01	-9.1810	-19.853145	0.000250	2.504410	0.848517	-0.020269
1232	6.1550e-01	-9.2163	-19.937815	0.000209	2.092292	0.708888	-0.016934
1233	6.1600e-01	-9.2372	-20.013077	0.000186	1.859815	0.630122	-0.015052
1234	6.1650e-01	-9.2997	-20.080641	0.000167	1.669606	0.565678	-0.013513
1235	6.1700e-01	-9.3479	-20.125114	0.000110	1.098981	0.372345	-0.008895
1236	6.1750e-01	-9.3767	-20.193962	0.000170	1.701308	0.576419	-0.013770
1237	6.1800e-01	-9.4120	-20.291033	0.000240	2.398738	0.812715	-0.019414
1238	6.1850e-01	-9.4602	-20.336789	0.000113	1.130683	0.383086	-0.009151
1239	6.1900e-01	-9.5035	-20.498859	0.000400	4.004942	1.356911	-0.032414
1240	6.1950e-01	-9.5532	-20.477478	-0.000053	-0.528356	-0.179012	0.004276
1241	6.2000e-01	-9.5660	-20.565141	0.000217	2.166262	0.733949	-0.017533
1242	6.2050e-01	-9.6286	-20.626719	0.000152	1.521667	0.515555	-0.012316
1243	6.2100e-01	-9.6639	-20.701981	0.000186	1.859815	0.630122	-0.015052
1244	6.2150e-01	-9.7104	-20.758428	0.000139	1.394861	0.472592	-0.011289
1245	6.2200e-01	-9.7521	-20.840959	0.000204	2.039456	0.690986	-0.016506
1246	6.2250e-01	-9.7970	-20.861485	0.000051	0.507222	0.171852	-0.004105
1247	6.2300e-01	-9.8243	-20.994049	0.000328	3.275810	1.109875	-0.026513
1248	6.2350e-01	-9.8596	-21.057338	0.000156	1.563935	0.529876	-0.012658
1249	6.2400e-01	-9.8997	-21.149277	0.000227	2.271933	0.769752	-0.018388
1250	6.2450e-01	-9.9511	-21.171086	0.000054	0.538924	0.182592	-0.004362
1251	6.2500e-01	-9.9719	-21.264736	0.000231	2.314201	0.784073	-0.018730
1252	6.2550e-01	-10.0120	-21.343419	0.000194	1.944352	0.658764	-0.015737
1253	6.2600e-01	-10.0569	-21.375918	0.000080	0.803102	0.272098	-0.006500
1254	6.2650e-01	-10.1179	-21.470851	0.000235	2.345903	0.794813	-0.018987
1255	6.2700e-01	-10.1195	-21.561508	0.000224	2.240232	0.759011	-0.018131
1256	6.2750e-01	-10.1596	-21.642329	0.000200	1.997188	0.676665	-0.016164
1257	6.2800e-01	-10.2158	-21.671407	0.000072	0.718565	0.243456	-0.005816
1258	6.2850e-01	-10.2398	-21.759926	0.000219	2.187396	0.741110	-0.017704
1259	6.2900e-01	-10.3088	-21.803544	0.000108	1.077847	0.365185	-0.008724
1260	6.2950e-01	-10.3473	-21.864266	0.000150	1.500532	0.508394	-0.012145
1261	6.3000e-01	-10.3666	-21.972028	0.000266	2.662917	0.902221	-0.021552
1262	6.3050e-01	-10.4259	-22.011797	0.000098	0.982743	0.332962	-0.007954
1263	6.3100e-01	-10.4436	-22.069099	0.000142	1.415995	0.479752	-0.011460
1264	6.3150e-01	-10.5125	-22.168308	0.000245	2.451574	0.830616	-0.019842
1265	6.3200e-01	-10.5671	-22.238439	0.000173	1.733009	0.587159	-0.014026
1266	6.3250e-01	-10.5607	-22.282484	-0.000109	-1.088414	-0.368765	-0.008809
1267	6.3300e-01	-10.6264	-22.353470	0.000175	1.754144	0.594320	-0.014197
1268	6.3350e-01	-10.6826	-22.421890	0.000169	1.690741	0.572838	-0.013684
1269	6.3400e-01	-10.7002	-22.509981	0.000218	2.176829	0.737530	-0.017618
1270	6.3450e-01	-10.7403	-22.550605	0.000100	1.003877	0.340123	-0.008125
1271	6.3500e-01	-10.7564	-22.647676	0.000240	2.398738	0.812715	-0.019414
1272	6.3550e-01	-10.8398	-22.699419	0.000128	1.278623	0.433209	-0.010349
1273	6.3600e-01	-10.8655	-22.743036	0.000108	1.077847	0.365185	-0.008724
1274	6.3650e-01	-10.9168	-22.824285	0.000201	2.007755	0.680246	-0.016250
1275	6.3700e-01	-10.9393	-22.898264	0.000183	1.828113	0.619382	-0.014796
1276	6.3750e-01	-10.9922	-22.961553	0.000156	1.563935	0.529876	-0.012658
1277	6.3800e-01	-10.9938	-23.061617	0.000247	2.472708	0.837776	-0.020013
1278	6.3850e-01	-11.0548	-23.112077	0.000125	1.246921	0.422468	-0.010092
1279	6.3900e-01	-11.1286	-23.223687	0.000276	2.758021	0.934443	-0.022322
1280	6.3950e-01	-11.1189	-23.237799	-0.000035	-0.348715	-0.118148	-0.002822
1281	6.4000e-01	-11.2088	-23.296811	0.000146	1.458264	0.494073	-0.011802
1282	6.4050e-01	-11.2184	-23.388751	0.000227	2.271933	0.769752	-0.018388
1283	6.4100e-01	-11.2473	-23.431941	0.000107	1.067280	0.361604	-0.008638
1284	6.4150e-01	-11.2922	-23.534998	0.000255	2.546678	0.862838	-0.020612
1285	6.4200e-01	-11.3532	-23.567070	0.000079	0.792535	0.268518	-0.006414
1286	6.4250e-01	-11.3788	-23.663286	0.000238	2.377604	0.805554	-0.019243
1287	6.4300e-01	-11.4350	-23.718877	0.000137	1.373727	0.465431	-0.011118
1288	6.4350e-01	-11.4446	-23.777462	0.000145	1.447697	0.490493	-0.011717
1289	6.4400e-01	-11.5056	-23.852296	0.000185	1.849248	0.626542	-0.014967
1290	6.4450e-01	-11.5457	-23.935256	0.000205	2.050023	0.694567	-0.016592
1291	6.4500e-01	-11.5842	-23.964334	0.000072	0.718565	0.243456	-0.005816
1292	6.4550e-01	-11.6146	-24.049004	0.000209	2.092292	0.708888	-0.016934
1293	6.4600e-01	-11.6564	-24.114003	0.000161	1.606204	0.544197	-0.013000
1294	6.4650e-01	-11.6949	-24.183278	0.000171	1.711875	0.579999	-0.013855
1295	6.4700e-01	-11.7157	-24.240153	0.000141	1.405428	0.476172	-0.011375
1296	6.4750e-01	-11.7751	-24.316697	0.000189	1.891516	0.640863	-0.015309
1297	6.4800e-01	-11.8312	-24.369723	0.000131	1.310324	0.443950	-0.010605
1298	6.4850e-01	-11.8665	-24.449261	0.000197	1.965486	0.665925	-0.015908
1299	6.4900e-01	-11.9034	-24.493307	0.000109	1.088414	0.368765	-0.008809
1300	6.4950e-01	-11.9146	-24.590378	0.000240	2.398738	0.812715	-0.019414
1301	6.5000e-01	-12.0029	-24.615180	0.000061	0.612894	0.207654	-0.004960
1302	6.5050e-01	-11.9932	-24.724224	-0.000269	-2.694618	-0.912961	-0.021809
1303	6.5100e-01	-12.0622	-24.793927	0.000172	1.722442	0.583579	-0.013941
1304	6.5150e-01	-12.1360	-24.807611	0.000034	0.338148	0.114568	-0.002737
1305	6.5200e-01	-12.1168	-24.941458	-0.000331	-3.307512	-1.120615	-0.026769
1306	6.5250e-01	-12.1777	-24.972247	0.000076	0.760833	0.257777	-0.006158
1307	6.5300e-01	-12.2194	-25.038101	0.000163	1.627338	0.551357	-0.013171
1308	6.5350e-01	-12.2756	-25.080009	0.000104	1.035579	0.350864	-0.008381
1309	6.5400e-01	-12.3205	-25.176224	0.000238	2.377604	0.805554	-0.019243
1310	6.5450e-01	-12.3398	-25.264743	0.000219	2.187396	0.741110	-0.017704
1311	6.5500e-01	-12.4055	-25.287834	0.000057	0.570625	0.193333	-0.004618
1312	6.5550e-01	-12.4280	-25.380629	0.000229	2.293067	0.776912	-0.018559
1313	6.5600e-01	-12.4793	-25.434082	0.000132	1.320891	0.447530	-0.010691
1314	6.5650e-01	-12.4954	-25.484114	0.000124	1.236354	0.418888	-0.010006
1315	6.5700e-01	-12.5611	-25.546975	0.000155	1.553368	0.526295	-0.012572
1316	6.5750e-01	-12.5724	-25.613257	0.000164	1.637905	0.554937	-0.013256
1317	6.5800e-01	-12.6285	-25.682533	0.000171	1.711875	0.579999	-0.013855
1318	6.5850e-01	-12.6606	-25.745393	0.000155	1.553368	0.526295	-0.012572
1319	6.5900e-01	-12.7103	-25.824077	0.000194	1.944352	0.658764	-0.015737
1320	6.5950e-01	-12.7248	-25.884372	0.000149	1.489965	0.504814	-0.012059
1321	6.6000e-01	-12.7745	-25.979732	0.000236	2.356470	0.798394	-0.019072
1322	6.6050e-01	-12.8114	-26.009666	0.000074	0.739699	0.250617	-0.005987
1323	6.6100e-01	-12.8692	-26.081935	0.000179	1.785845	0.605061	-0.014454
1324	6.6150e-01	-12.8467	-26.228610	-0.000362	-3.624526	-1.228022	-0.029335
1325	6.6200e-01	-12.9542	-26.188841	-0.000098	-0.982743	-0.332962	0.007954
1326	6.6250e-01	-12.9975	-26.258971	0.000173	1.733009	0.587159	-0.014026
1327	6.6300e-01	-13.0280	-26.330812	0.000178	1.775278	0.601480	-0.014368
1328	6.6350e-01	-13.0825	-26.374858	0.000109	1.088414	0.368765	-0.008809
1329	6.6400e-01	-13.0921	-26.476205	0.000250	2.504410	0.848517	-0.020269
1330	6.6450e-01	-13.1627	-26.519395	0.000107	1.067280	0.361604	-0.008638
1331	6.6500e-01	-13.1788	-26.614328	0.000235	2.345903	0.794813	-0.018987
1332	6.6550e-01	-13.2093	-26.662650	0.000119	1.194086	0.404567	-0.009664
1333	6.6600e-01	-13.2542	-26.732353	0.000172	1.722442	0.583579	-0.013941
1334	6.6650e-01	-13.3135	-26.779819	0.000117	1.172951	0.397407	-0.009493
1335	6.6700e-01	-13.3584	-26.873469	0.000231	2.314201	0.784073	-0.018730
1336	6.6750e-01	-13.3793	-26.919225	0.000113	1.130683	0.383086	-0.009151
1337	6.6800e-01	-13.4178	-27.002612	0.000206	2.060590	0.698147	-0.016677
1338	6.6850e-01	-13.4707	-27.051789	0.000122	1.215220	0.411728	-0.009835
1339	6.6900e-01	-13.5044	-27.101821	0.000124	1.236354	0.418888	-0.010006
1340	6.6950e-01	-13.5461	-27.184353	0.000204	2.039456	0.690986	-0.016506
1341	6.7000e-01	-13.5750	-27.221984	0.000093	0.929907	0.315061	-0.007526
1342	6.7050e-01	-13.6199	-27.288265	0.000164	1.637905	0.554937	-0.013256
1343	6.7100e-01	-13.6440	-27.372508	0.000208	2.081725	0.705307	-0.016848
1344	6.7150e-01	-13.7082	-27.418691	0.000114	1.141250	0.386666	-0.009237
1345	6.7200e-01	-13.7675	-27.510631	0.000227	2.271933	0.769752	-0.018388
1346	6.7250e-01	-13.7916	-27.531584	0.000052	0.517789	0.175432	-0.004191
1347	6.7300e-01	-13.8124	-27.651319	0.000296	2.958796	1.002467	-0.023947
1348	6.7350e-01	-13.8269	-27.708621	0.000142	1.415995	0.479752	-0.011460
1349	6.7400e-01	-13.9023	-27.728719	0.000050	0.496655	0.168271	-0.004020
1350	6.7450e-01	-13.9456	-27.753949	0.000062	0.623461	0.211234	-0.005046
1351	6.7500e-01	-13.9697	-27.889507	0.000335	3.349780	1.134936	-0.027111
1352	6.7550e-01	-14.0066	-27.947236	0.000143	1.426563	0.483332	-0.011546
1353	6.7600e-01	-14.0595	-27.988716	0.000103	1.025012	0.347283	-0.008296
1354	6.7650e-01	-14.1028	-28.049438	0.000150	1.500532	0.508394	-0.012145
1355	6.7700e-01	-14.1381	-28.149075	0.000246	2.462141	0.834196	-0.019927
1356	6.7750e-01	-14.1862	-28.209370	0.000149	1.489965	0.504814	-0.012059
1357	6.7800e-01	-14.2135	-28.282922	0.000182	1.817546	0.615801	-0.014710
1358	6.7850e-01	-14.2520	-28.320553	0.000093	0.929907	0.315061	-0.007526
1359	6.7900e-01	-14.2857	-28.374006	0.000132	1.320891	0.447530	-0.010691
1360	6.7950e-01	-14.3226	-28.456538	0.000204	2.039456	0.690986	-0.016506
1361	6.8000e-01	-14.3900	-28.495452	0.000096	0.961609	0.325802	-0.007783
1362	6.8050e-01	-14.4301	-28.595516	0.000247	2.472708	0.837776	-0.020013
1363	6.8100e-01	-14.4590	-28.623312	0.000069	0.686863	0.232716	-0.005559
1364	6.8150e-01	-14.5007	-28.714396	0.000225	2.250799	0.762591	-0.018217
1365	6.8200e-01	-14.5520	-28.775119	0.000150	1.500532	0.508394	-0.012145
1366	6.8250e-01	-14.5809	-28.821730	0.000115	1.151817	0.390246	-0.009322
1367	6.8300e-01	-14.6242	-28.881597	0.000148	1.479398	0.501234	-0.011974
1368	6.8350e-01	-14.6659	-28.944886	0.000156	1.563935	0.529876	-0.012658
1369	6.8400e-01	-14.7028	-29.015872	0.000175	1.754144	0.594320	-0.014197
1370	6.8450e-01	-14.7509	-29.081298	0.000162	1.616771	0.547777	-0.013085
1371	6.8500e-01	-14.7718	-29.149718	0.000169	1.690741	0.572838	-0.013684
1372	6.8550e-01	-14.8167	-29.204454	0.000135	1.352593	0.458271	-0.010947
1373	6.8600e-01	-14.8504	-29.264322	0.000148	1.479398	0.501234	-0.011974
1374	6.8650e-01	-14.8857	-29.378070	0.000281	2.810857	0.952344	-0.022750
1375	6.8700e-01	-14.9338	-29.401590	0.000058	0.581192	0.196913	-0.004704
1376	6.8750e-01	-14.9547	-29.464878	0.000156	1.563935	0.529876	-0.012658
1377	6.8800e-01	-15.0204	-29.521325	0.000139	1.394861	0.472592	-0.011289
1378	6.8850e-01	-15.0573	-29.621389	0.000247	2.472708	0.837776	-0.020013
1379	6.8900e-01	-15.1183	-29.670138	0.000120	1.204653	0.408147	-0.009750
1380	6.8950e-01	-15.1488	-29.721026	0.000126	1.257488	0.426049	-0.010177
1381	6.9000e-01	-15.1760	-29.801847	0.000200	1.997188	0.676665	-0.016164
1382	6.9050e-01	-15.2145	-29.877964	0.000188	1.880949	0.637283	-0.015223
1383	6.9100e-01	-15.2739	-29.886517	0.000021	0.211343	0.071605	-0.001711
1384	6.9150e-01	-15.3044	-29.948950	0.000154	1.542801	0.522715	-0.012487
1385	6.9200e-01	-15.3381	-30.003686	0.000135	1.352593	0.458271	-0.010947
1386	6.9250e-01	-15.3798	-30.121711	0.000292	2.916528	0.988146	-0.023605
1387	6.9300e-01	-15.4022	-30.160624	0.000096	0.961609	0.325802	-0.007783
1388	6.9350e-01	-15.4825	-30.228617	0.000168	1.680174	0.569258	-0.013598
1389	6.9400e-01	-15.4953	-30.284208	0.000137	1.373727	0.465431	-0.011118
1390	6.9450e-01	-15.5386	-30.341938	0.000143	1.426563	0.483332	-0.011546
1391	6.9500e-01	-15.5867	-30.429173	0.000216	2.155694	0.730369	-0.017447
1392	6.9550e-01	-15.6252	-30.469798	0.000100	1.003877	0.340123	-0.008125
1393	6.9600e-01	-15.6878	-30.529665	0.000148	1.479398	0.501234	-0.011974
1394	6.9650e-01	-15.7006	-30.619039	0.000221	2.208530	0.748270	-0.017875
1395	6.9700e-01	-15.7648	-30.666078	0.000116	1.162384	0.393826	-0.009408
1396	6.9750e-01	-15.7937	-30.739629	0.000182	1.817546	0.615801	-0.014710
1397	6.9800e-01	-15.8193	-30.806339	0.000165	1.648472	0.558518	-0.013342
1398	6.9850e-01	-15.8627	-30.875186	0.000170	1.701308	0.576419	-0.013770
1399	6.9900e-01	-15.8819	-30.931633	0.000139	1.394861	0.472592	-0.011289
1400	6.9950e-01	-15.9397	-31.004329	0.000180	1.796412	0.608641	-0.014539
1401	7.0000e-01	-16.0022	-31.080446	0.000188	1.880949	0.637283	-0.015223
1402	7.0050e-01	-16.0118	-31.115512	0.000087	0.866505	0.293580	-0.007013
1403	7.0100e-01	-16.0343	-31.212583	0.000240	2.398738	0.812715	-0.019414
1404	7.0150e-01	-16.0985	-31.239951	0.000068	0.676296	0.229135	-0.005474
1405	7.0200e-01	-16.1193	-31.362679	0.000303	3.032766	1.027529	-0.024546
1406	7.0250e-01	-16.1787	-31.401165	0.000095	0.951042	0.322222	-0.007697
1407	7.0300e-01	-16.2236	-31.484125	0.000205	2.050023	0.694567	-0.016592
1408	7.0350e-01	-16.2878	-31.502513	0.000045	0.454387	0.153950	-0.003678
1409	7.0400e-01	-16.2926	-31.569650	0.000166	1.659039	0.562098	-0.013427
1410	7.0450e-01	-16.3247	-31.659879	0.000223	2.229664	0.755431	-0.018046
1411	7.0500e-01	-16.3921	-31.704779	0.000111	1.109549	0.375925	-0.008980
1412	7.0550e-01	-16.4450	-31.789877	0.000210	2.102859	0.712468	-0.017019
1413	7.0600e-01	-16.4707	-31.850600	0.000150	1.500532	0.508394	-0.012145
1414	7.0650e-01	-16.4931	-31.919875	0.000171	1.711875	0.579999	-0.013855
1415	7.0700e-01	-16.5461	-32.001551	0.000202	2.018322	0.683826	-0.016335
1416	7.0750e-01	-16.5781	-32.040465	0.000096	0.961609	0.325802	-0.007783
1417	7.0800e-01	-16.6150	-32.111451	0.000175	1.754144	0.594320	-0.014197
1418	7.0850e-01	-16.6311	-32.217930	0.000263	2.631215	0.891480	-0.021296
1419	7.0900e-01	-16.7001	-32.245298	0.000068	0.676296	0.229135	-0.005474
1420	7.0950e-01	-16.7562	-32.318422	0.000181	1.806979	0.612221	-0.014625
1421	7.1000e-01	-16.8140	-32.357335	0.000096	0.961609	0.325802	-0.007783
1422	7.1050e-01	-16.8268	-32.434308	0.000190	1.902083	0.644443	-0.015395
1423	7.1100e-01	-16.8557	-32.496314	0.000153	1.532234	0.519135	-0.012401
1424	7.1150e-01	-16.8942	-32.600227	0.000257	2.567813	0.869998	-0.020783
1425	7.1200e-01	-16.9327	-32.646410	0.000114	1.141250	0.386666	-0.009237
1426	7.1250e-01	-16.9728	-32.704995	0.000145	1.447697	0.490493	-0.011717
1427	7.1300e-01	-17.0337	-32.764862	0.000148	1.479398	0.501234	-0.011974
1428	7.1350e-01	-17.0690	-32.852098	0.000216	2.155694	0.730369	-0.017447
1429	7.1400e-01	-17.0947	-32.957721	0.000261	2.610081	0.884319	-0.021125
1430	7.1450e-01	-17.1428	-32.958577	0.000002	0.021134	0.007160	-0.000171
1431	7.1500e-01	-17.1733	-33.030845	0.000179	1.785845	0.605061	-0.014454
1432	7.1550e-01	-17.1894	-33.125350	0.000234	2.335336	0.791233	-0.018901
1433	7.1600e-01	-17.2664	-33.212158	0.000215	2.145127	0.726789	-0.017362
1434	7.1650e-01	-17.3000	-33.260908	0.000120	1.204653	0.408147	-0.009750
1435	7.1700e-01	-17.3482	-33.315216	0.000134	1.342025	0.454691	-0.010862
1436	7.1750e-01	-17.3979	-33.382353	0.000166	1.659039	0.562098	-0.013427
1437	7.1800e-01	-17.4156	-33.452484	0.000173	1.733009	0.587159	-0.014026
1438	7.1850e-01	-17.4733	-33.545706	0.000230	2.303634	0.780492	-0.018644
1439	7.1900e-01	-17.5214	-33.582482	0.000091	0.908773	0.307901	-0.007355
1440	7.1950e-01	-17.5728	-33.671856	0.000221	2.208530	0.748270	-0.017875
1441	7.2000e-01	-17.5808	-33.708204	0.000090	0.898206	0.304320	-0.007270
1442	7.2050e-01	-17.6129	-33.805702	0.000241	2.409306	0.816295	-0.019500
1443	7.2100e-01	-17.6610	-33.874978	0.000171	1.711875	0.579999	-0.013855
1444	7.2150e-01	-17.6915	-33.938694	0.000157	1.574502	0.533456	-0.012743
1445	7.2200e-01	-17.7204	-34.043034	0.000258	2.578380	0.873579	-0.020868
1446	7.2250e-01	-17.7781	-34.111882	0.000170	1.701308	0.576419	-0.013770
1447	7.2300e-01	-17.8327	-34.135829	0.000059	0.591759	0.200493	-0.004789
1448	7.2350e-01	-17.8583	-34.216223	0.000199	1.986620	0.673085	-0.016079
1449	7.2400e-01	-17.9048	-34.303458	0.000216	2.155694	0.730369	-0.017447
1450	7.2450e-01	-17.9417	-34.379575	0.000188	1.880949	0.637283	-0.015223
1451	7.2500e-01	-17.9979	-34.413785	0.000085	0.845370	0.286419	-0.006842
1452	7.2550e-01	-18.0364	-34.503587	0.000222	2.219097	0.751851	-0.017960
1453	7.2600e-01	-18.0669	-34.588684	0.000210	2.102859	0.712468	-0.017019
1454	7.2650e-01	-18.0941	-34.659670	0.000175	1.754144	0.594320	-0.014197
1455	7.2700e-01	-18.1423	-34.715261	0.000137	1.373727	0.465431	-0.011118
1456	7.2750e-01	-18.1872	-34.772135	0.000141	1.405428	0.476172	-0.011375
1457	7.2800e-01	-18.2145	-34.867496	0.000236	2.356470	0.798394	-0.019072
1458	7.2850e-01	-18.2786	-34.941475	0.000183	1.828113	0.619382	-0.014796
1459	7.2900e-01	-18.3011	-35.018020	0.000189	1.891516	0.640863	-0.015309
1460	7.2950e-01	-18.3332	-35.089861	0.000178	1.775278	0.601480	-0.014368
1461	7.3000e-01	-18.4022	-35.138610	0.000120	1.204653	0.408147	-0.009750
1462	7.3050e-01	-18.4310	-35.215155	0.000189	1.891516	0.640863	-0.015309
1463	7.3100e-01	-18.4551	-35.310516	0.000236	2.356470	0.798394	-0.019072
1464	7.3150e-01	-18.4984	-35.349002	0.000095	0.951042	0.322222	-0.007697
1465	7.3200e-01	-18.5145	-35.443079	0.000232	2.324769	0.787653	-0.018816
1466	7.3250e-01	-18.6043	-35.508934	0.000163	1.627338	0.551357	-0.013171
1467	7.3300e-01	-18.6219	-35.587189	0.000193	1.933785	0.655184	-0.015651
1468	7.3350e-01	-18.6861	-35.648340	0.000151	1.511100	0.511974	-0.012230
1469	7.3400e-01	-18.7054	-35.741134	0.000229	2.293067	0.776912	-0.018559
1470	7.3450e-01	-18.7583	-35.787745	0.000115	1.151817	0.390246	-0.009322
1471	7.3500e-01	-18.7808	-35.867284	0.000197	1.965486	0.665925	-0.015908
1472	7.3550e-01	-18.8305	-35.947677	0.000199	1.986620	0.673085	-0.016079
1473	7.3600e-01	-18.8642	-36.060998	0.000280	2.800289	0.948764	-0.022664
1474	7.3650e-01	-18.9091	-36.099912	0.000096	0.961609	0.325802	-0.007783
1475	7.3700e-01	-18.9428	-36.166194	0.000164	1.637905	0.554937	-0.013256
1476	7.3750e-01	-18.9717	-36.243594	0.000191	1.912650	0.648024	-0.015480
1477	7.3800e-01	-19.0455	-36.353921	0.000273	2.726319	0.923702	-0.022065
1478	7.3850e-01	-19.0599	-36.427900	0.000183	1.828113	0.619382	-0.014796
1479	7.3900e-01	-19.0791	-36.493327	0.000162	1.616771	0.547777	-0.013085
1480	7.3950e-01	-19.1353	-36.579280	0.000212	2.123993	0.719628	-0.017191
1481	7.4000e-01	-19.1706	-36.625463	0.000114	1.141250	0.386666	-0.009237
1482	7.4050e-01	-19.2299	-36.722962	0.000241	2.409306	0.816295	-0.019500
1483	7.4100e-01	-19.2636	-36.784968	0.000153	1.532234	0.519135	-0.012401
1484	7.4150e-01	-19.3102	-36.891874	0.000264	2.641782	0.895060	-0.021381
1485	7.4200e-01	-19.3294	-36.967136	0.000186	1.859815	0.630122	-0.015052
1486	7.4250e-01	-19.3503	-37.051806	0.000209	2.092292	0.708888	-0.016934
1487	7.4300e-01	-19.4000	-37.127495	0.000187	1.870382	0.633703	-0.015138
1488	7.4350e-01	-19.4626	-37.186508	0.000146	1.458264	0.494073	-0.011802
1489	7.4400e-01	-19.5187	-37.254928	0.000169	1.690741	0.572838	-0.013684
1490	7.4450e-01	-19.5219	-37.341308	0.000213	2.134560	0.723209	-0.017276
1491	7.4500e-01	-19.6005	-37.405879	0.000160	1.595637	0.540616	-0.012914
1492	7.4550e-01	-19.6166	-37.476865	0.000175	1.754144	0.594320	-0.014197
1493	7.4600e-01	-19.6839	-37.568377	0.000226	2.261366	0.766171	-0.018302
1494	7.4650e-01	-19.7016	-37.650909	0.000204	2.039456	0.690986	-0.016506
1495	7.4700e-01	-19.7208	-37.731302	0.000199	1.986620	0.673085	-0.016079
1496	7.4750e-01	-19.7770	-37.807420	0.000188	1.880949	0.637283	-0.015223
1497	7.4800e-01	-19.8331	-37.877550	0.000173	1.733009	0.587159	-0.014026
1498	7.4850e-01	-19.8588	-37.981891	0.000258	2.578380	0.873579	-0.020868
1499	7.4900e-01	-19.9198	-38.051166	0.000171	1.711875	0.579999	-0.013855
1500	7.4950e-01	-19.9422	-38.149092	0.000242	2.419873	0.819875	-0.019585
1501	7.5000e-01	-19.9631	-38.232907	0.000207	2.071157	0.701727	-0.016763
1502	7.5050e-01	-19.9278	-38.202118	0.000076	0.760833	0.257777	0.006158
1503	7.5100e-01	-19.8668	-38.173894	0.000070	0.697431	0.236296	0.005645
1504	7.5150e-01	-19.8604	-38.196131	-0.000055	-0.549491	-0.186173	-0.004447
1505	7.5200e-01	-19.8075	-38.125145	0.000175	1.754144	0.594320	0.014197
1506	7.5250e-01	-19.7577	-38.143105	-0.000044	-0.443819	-0.150370	-0.003592
1507	7.5300e-01	-19.7305	-38.076396	0.000165	1.648472	0.558518	0.013342
1508	7.5350e-01	-19.6486	-38.093501	-0.000042	-0.422685	-0.143210	-0.003421
1509	7.5400e-01	-19.6198	-38.040903	0.000130	1.299757	0.440370	0.010520
1510	7.5450e-01	-19.5877	-37.982746	0.000144	1.437130	0.486913	0.011631
1511	7.5500e-01	-19.6069	-37.954523	-0.000070	-0.697431	-0.236296	0.005645
1512	7.5550e-01	-19.5091	-37.928865	0.000063	0.634028	0.214814	0.005132
1513	7.5600e-01	-19.4994	-37.903635	0.000062	0.623461	0.211234	0.005046
1514	7.5650e-01	-19.4577	-37.842485	0.000151	1.511100	0.511974	0.012230
1515	7.5700e-01	-19.4305	-37.795018	0.000117	1.172951	0.397407	0.009493
1516	7.5750e-01	-19.3872	-37.744559	0.000125	1.246921	0.422468	0.010092
1517	7.5800e-01	-19.3134	-37.714625	0.000074	0.739699	0.250617	0.005987
1518	7.5850e-01	-19.2941	-37.612850	0.000251	2.514977	0.852097	0.020355
1519	7.5900e-01	-19.2428	-37.626534	-0.000034	-0.338148	-0.114568	-0.002737
1520	7.5950e-01	-19.1979	-37.582061	0.000110	1.098981	0.372345	0.008895
1521	7.6000e-01	-19.1305	-37.564956	0.000042	0.422685	0.143210	0.003421
1522	7.6050e-01	-19.1128	-37.465319	0.000246	2.462141	0.834196	0.019927
1523	7.6100e-01	-19.0807	-37.443083	0.000055	0.549491	0.186173	0.004447
1524	7.6150e-01	-19.0422	-37.434103	0.000022	0.221910	0.075185	0.001796
1525	7.6200e-01	-19.0037	-37.374663	0.000147	1.468831	0.497653	0.011888
1526	7.6250e-01	-18.9604	-37.349433	0.000062	0.623461	0.211234	0.005046
1527	7.6300e-01	-18.9171	-37.313940	0.000088	0.877072	0.297160	0.007099
1528	7.6350e-01	-18.8834	-37.207461	0.000263	2.631215	0.891480	0.021296
1529	7.6400e-01	-18.8433	-37.230553	-0.000057	-0.570625	-0.193333	-0.004618
1530	7.6450e-01	-18.7856	-37.170258	0.000149	1.489965	0.504814	0.012059
1531	7.6500e-01	-18.7503	-37.106969	0.000156	1.563935	0.529876	0.012658
1532	7.6550e-01	-18.7326	-37.071476	0.000088	0.877072	0.297160	0.007099
1533	7.6600e-01	-18.7086	-36.983386	0.000218	2.176829	0.737530	0.017618
1534	7.6650e-01	-18.6364	-36.971840	0.000029	0.285313	0.096666	0.002309
1535	7.6700e-01	-18.5995	-36.906413	0.000162	1.616771	0.547777	0.013085
1536	7.6750e-01	-18.5578	-36.871348	0.000087	0.866505	0.293580	0.007013
1537	7.6800e-01	-18.5209	-36.807632	0.000157	1.574502	0.533456	0.012743
1538	7.6850e-01	-18.4663	-36.786678	0.000052	0.517789	0.175432	0.004191
1539	7.6900e-01	-18.4246	-36.724245	0.000154	1.542801	0.522715	0.012487
1540	7.6950e-01	-18.4134	-36.664805	0.000147	1.468831	0.497653	0.011888
1541	7.7000e-01	-18.3444	-36.628884	0.000089	0.887639	0.300740	0.007184
1542	7.7050e-01	-18.3155	-36.582701	0.000114	1.141250	0.386666	0.009237
1543	7.7100e-01	-18.2770	-36.521123	0.000152	1.521667	0.515555	0.012316
1544	7.7150e-01	-18.2401	-36.460828	0.000149	1.489965	0.504814	0.012059
1545	7.7200e-01	-18.1984	-36.450137	0.000026	0.264178	0.089506	0.002138
1546	7.7250e-01	-18.1647	-36.393263	0.000141	1.405428	0.476172	0.011375
1547	7.7300e-01	-18.1118	-36.297902	0.000236	2.356470	0.798394	0.019072
1548	7.7350e-01	-18.0733	-36.294054	0.000010	0.095104	0.032222	0.000770
1549	7.7400e-01	-18.0380	-36.215798	0.000193	1.933785	0.655184	0.015651
1550	7.7450e-01	-17.9963	-36.152082	0.000157	1.574502	0.533456	0.012743
1551	7.7500e-01	-17.9642	-36.116162	0.000089	0.887639	0.300740	0.007184
1552	7.7550e-01	-17.9145	-36.043465	0.000180	1.796412	0.608641	0.014539
1553	7.7600e-01	-17.8712	-36.009683	0.000083	0.834803	0.282839	0.006756
1554	7.7650e-01	-17.8343	-35.976328	0.000082	0.824236	0.279259	0.006671
1555	7.7700e-01	-17.7990	-35.900638	0.000187	1.870382	0.633703	0.015138
1556	7.7750e-01	-17.7717	-35.856593	0.000109	1.088414	0.368765	0.008809
1557	7.7800e-01	-17.7123	-35.806989	0.000123	1.225787	0.415308	0.009921
1558	7.7850e-01	-17.6899	-35.774917	0.000079	0.792535	0.268518	0.006414
1559	7.7900e-01	-17.6482	-35.691530	0.000206	2.060590	0.698147	0.016677
1560	7.7950e-01	-17.6289	-35.659885	0.000078	0.781968	0.264938	0.006329
1561	7.8000e-01	-17.5519	-35.597452	0.000154	1.542801	0.522715	0.012487
1562	7.8050e-01	-17.4829	-35.599163	-0.000004	-0.042269	-0.014321	-0.000342
1563	7.8100e-01	-17.4508	-35.490118	0.000269	2.694618	0.912961	0.021809
1564	7.8150e-01	-17.4412	-35.480283	0.000024	0.243044	0.082346	0.001967
1565	7.8200e-01	-17.4043	-35.373804	0.000263	2.631215	0.891480	0.021296
1566	7.8250e-01	-17.3418	-35.356699	0.000042	0.422685	0.143210	0.003421
1567	7.8300e-01	-17.3017	-35.322061	0.000086	0.855938	0.289999	0.006928
1568	7.8350e-01	-17.2760	-35.265615	0.000139	1.394861	0.472592	0.011289
1569	7.8400e-01	-17.2214	-35.221997	0.000108	1.077847	0.365185	0.008724
1570	7.8450e-01	-17.2054	-35.139893	0.000203	2.028889	0.687406	0.016421
1571	7.8500e-01	-17.1605	-35.115518	0.000060	0.602326	0.204074	0.004875
1572	7.8550e-01	-17.1428	-35.057361	0.000144	1.437130	0.486913	0.011631
1573	7.8600e-01	-17.0995	-34.956870	0.000248	2.483275	0.841357	0.020098
1574	7.8650e-01	-17.0370	-34.937626	0.000048	0.475521	0.161111	0.003849
1575	7.8700e-01	-16.9792	-34.908120	0.000073	0.729132	0.247037	0.005901
1576	7.8750e-01	-16.9535	-34.831148	0.000190	1.902083	0.644443	0.015395
1577	7.8800e-01	-16.9231	-34.767432	0.000157	1.574502	0.533456	0.012743
1578	7.8850e-01	-16.8605	-34.730656	0.000091	0.908773	0.307901	0.007355
1579	7.8900e-01	-16.8332	-34.682762	0.000118	1.183519	0.400987	0.009579
1580	7.8950e-01	-16.7979	-34.621611	0.000151	1.511100	0.511974	0.012230
1581	7.9000e-01	-16.7402	-34.583553	0.000094	0.940475	0.318641	0.007612
1582	7.9050e-01	-16.7081	-34.498455	0.000210	2.102859	0.712468	0.017019
1583	7.9100e-01	-16.6712	-34.460397	0.000094	0.940475	0.318641	0.007612
1584	7.9150e-01	-16.6359	-34.435594	0.000061	0.612894	0.207654	0.004960
1585	7.9200e-01	-16.6070	-34.369740	0.000163	1.627338	0.551357	0.013171
1586	7.9250e-01	-16.5477	-34.320991	0.000120	1.204653	0.408147	0.009750
1587	7.9300e-01	-16.5124	-34.251288	0.000172	1.722442	0.583579	0.013941
1588	7.9350e-01	-16.4626	-34.234610	0.000041	0.412118	0.139629	0.003335
1589	7.9400e-01	-16.4370	-34.146520	0.000218	2.176829	0.737530	0.017618
1590	7.9450e-01	-16.3776	-34.096915	0.000123	1.225787	0.415308	0.009921
1591	7.9500e-01	-16.3487	-34.036192	0.000150	1.500532	0.508394	0.012145
1592	7.9550e-01	-16.3022	-33.985305	0.000126	1.257488	0.426049	0.010177
1593	7.9600e-01	-16.2830	-33.950667	0.000086	0.855938	0.289999	0.006928
1594	7.9650e-01	-16.2380	-33.842478	0.000267	2.673484	0.905801	0.021638
1595	7.9700e-01	-16.1803	-33.830505	0.000030	0.295880	0.100247	0.002395
1596	7.9750e-01	-16.1450	-33.761657	0.000170	1.701308	0.576419	0.013770
1597	7.9800e-01	-16.1097	-33.712480	0.000122	1.215220	0.411728	0.009835
1598	7.9850e-01	-16.0792	-33.632086	0.000199	1.986620	0.673085	0.016079
1599	7.9900e-01	-16.0327	-33.620113	0.000030	0.295880	0.100247	0.002395
1600	7.9950e-01	-15.9990	-33.523042	0.000240	2.398738	0.812715	0.019414
1601	8.0000e-01	-15.9637	-33.502516	0.000051	0.507222	0.171852	0.004105
1602	8.0050e-01	-15.9076	-33.417419	0.000210	2.102859	0.712468	0.017019
1603	8.0100e-01	-15.8707	-33.412715	0.000012	0.116238	0.039383	0.000941
1604	8.0150e-01	-15.8482	-33.340874	0.000178	1.775278	0.601480	0.014368
1605	8.0200e-01	-15.8033	-33.281006	0.000148	1.479398	0.501234	0.011974
1606	8.0250e-01	-15.7616	-33.216862	0.000159	1.585069	0.537036	0.012829
1607	8.0300e-01	-15.7119	-33.147587	0.000171	1.711875	0.579999	0.013855
1608	8.0350e-01	-15.6701	-33.103969	0.000108	1.077847	0.365185	0.008724
1609	8.0400e-01	-15.6541	-33.053937	0.000124	1.236354	0.418888	0.010006
1610	8.0450e-01	-15.5915	-32.980813	0.000181	1.806979	0.612221	0.014625
1611	8.0500e-01	-15.5530	-32.931209	0.000123	1.225787	0.415308	0.009921
1612	8.0550e-01	-15.5210	-32.875617	0.000137	1.373727	0.465431	0.011118
1613	8.0600e-01	-15.5033	-32.792658	0.000205	2.050023	0.694567	0.016592
1614	8.0650e-01	-15.4439	-32.765718	0.000067	0.665729	0.225555	0.005388
1615	8.0700e-01	-15.3862	-32.702001	0.000157	1.574502	0.533456	0.012743
1616	8.0750e-01	-15.3541	-32.664370	0.000093	0.929907	0.315061	0.007526
1617	8.0800e-01	-15.3156	-32.607496	0.000141	1.405428	0.476172	0.011375
1618	8.0850e-01	-15.2739	-32.554898	0.000130	1.299757	0.440370	0.010520
1619	8.0900e-01	-15.2418	-32.466808	0.000218	2.176829	0.737530	0.017618
1620	8.0950e-01	-15.1841	-32.438157	0.000071	0.707998	0.239876	0.005730
1621	8.1000e-01	-15.1632	-32.388552	0.000123	1.225787	0.415308	0.009921
1622	8.1050e-01	-15.1135	-32.338520	0.000124	1.236354	0.418888	0.010006
1623	8.1100e-01	-15.0798	-32.284212	0.000134	1.342025	0.454691	0.010862
1624	8.1150e-01	-15.0429	-32.202535	0.000202	2.018322	0.683826	0.016335
1625	8.1200e-01	-15.0172	-32.127701	0.000185	1.849248	0.626542	0.014967
1626	8.1250e-01	-14.9258	-32.139247	-0.000029	-0.285313	-0.096666	-0.002309
1627	8.1300e-01	-14.9017	-32.045597	0.000231	2.314201	0.784073	0.018730
1628	8.1350e-01	-14.8552	-32.009248	0.000090	0.898206	0.304320	0.007270
1629	8.1400e-01	-14.8456	-31.930993	0.000193	1.933785	0.655184	0.015651
1630	8.1450e-01	-14.8071	-31.868132	0.000155	1.553368	0.526295	0.012572
1631	8.1500e-01	-14.7493	-31.819810	0.000119	1.194086	0.404567	0.009664
1632	8.1550e-01	-14.6948	-31.796291	0.000058	0.581192	0.196913	0.004704
1633	8.1600e-01	-14.6611	-31.738989	0.000142	1.415995	0.479752	0.011460
1634	8.1650e-01	-14.6386	-31.659451	0.000197	1.965486	0.665925	0.015908
1635	8.1700e-01	-14.6226	-31.572215	0.000216	2.155694	0.730369	0.017447
1636	8.1750e-01	-14.5360	-31.555110	0.000042	0.422685	0.143210	0.003421
1637	8.1800e-01	-14.5119	-31.518762	0.000090	0.898206	0.304320	0.007270
1638	8.1850e-01	-14.5071	-31.431099	0.000217	2.166262	0.733949	0.017533
1639	8.1900e-01	-14.4493	-31.324193	0.000264	2.641782	0.895060	0.021381
1640	8.1950e-01	-14.3948	-31.322910	0.000003	0.031701	0.010741	0.000257
1641	8.2000e-01	-14.3483	-31.255345	0.000167	1.669606	0.565678	0.013513
1642	8.2050e-01	-14.3226	-31.217714	0.000093	0.929907	0.315061	0.007526
1643	8.2100e-01	-14.2648	-31.124919	0.000229	2.293067	0.776912	0.018559
1644	8.2150e-01	-14.2328	-31.103111	0.000054	0.538924	0.182592	0.004362
1645	8.2200e-01	-14.2087	-30.997915	0.000260	2.599514	0.880739	0.021039
1646	8.2250e-01	-14.1429	-30.983375	0.000036	0.359282	0.121728	0.002908
1647	8.2300e-01	-14.1317	-30.941468	0.000104	1.035579	0.350864	0.008381
1648	8.2350e-01	-14.0691	-30.833707	0.000266	2.662917	0.902221	0.021552
1649	8.2400e-01	-14.0146	-30.795220	0.000095	0.951042	0.322222	0.007697
1650	8.2450e-01	-14.0194	-30.750320	-0.000111	-1.109549	-0.375925	0.008980
1651	8.2500e-01	-13.9729	-30.673775	0.000189	1.891516	0.640863	0.015309
1652	8.2550e-01	-13.9215	-30.613480	0.000149	1.489965	0.504814	0.012059
1653	8.2600e-01	-13.8686	-30.544632	0.000170	1.701308	0.576419	0.013770
1654	8.2650e-01	-13.8461	-30.511705	0.000081	0.813669	0.275679	0.006585
1655	8.2700e-01	-13.8124	-30.439436	0.000179	1.785845	0.605061	0.014454
1656	8.2750e-01	-13.7643	-30.365457	0.000183	1.828113	0.619382	0.014796
1657	8.2800e-01	-13.7226	-30.344931	0.000051	0.507222	0.171852	0.004105
1658	8.2850e-01	-13.6713	-30.269669	0.000186	1.859815	0.630122	0.015052
1659	8.2900e-01	-13.6504	-30.201676	0.000168	1.680174	0.569258	0.013598
1660	8.2950e-01	-13.5879	-30.147796	0.000133	1.331458	0.451110	0.010776
1661	8.3000e-01	-13.5494	-30.096908	0.000126	1.257488	0.426049	0.010177
1662	8.3050e-01	-13.5173	-30.022929	0.000183	1.828113	0.619382	0.014796
1663	8.3100e-01	-13.4836	-29.984015	0.000096	0.961609	0.325802	0.007783
1664	8.3150e-01	-13.4322	-29.946384	0.000093	0.929907	0.315061	0.007526
1665	8.3200e-01	-13.3937	-29.849741	0.000239	2.388171	0.809134	0.019329
1666	8.3250e-01	-13.3440	-29.811255	0.000095	0.951042	0.322222	0.007697
1667	8.3300e-01	-13.3087	-29.747111	0.000159	1.585069	0.537036	0.012829
1668	8.3350e-01	-13.2814	-29.691947	0.000136	1.363160	0.461851	0.011033
1669	8.3400e-01	-13.2686	-29.630797	0.000151	1.511100	0.511974	0.012230
1670	8.3450e-01	-13.2157	-29.546982	0.000207	2.071157	0.701727	0.016763
1671	8.3500e-01	-13.1339	-29.529450	0.000043	0.433252	0.146790	0.003507
1672	8.3550e-01	-13.0970	-29.443069	0.000213	2.134560	0.723209	0.017276
1673	8.3600e-01	-13.0970	-29.369945	-0.000181	-1.806979	-0.612221	0.014625
1674	8.3650e-01	-13.0216	-29.349419	0.000051	0.507222	0.171852	0.004105
1675	8.3700e-01	-13.0071	-29.251065	0.000243	2.430440	0.823455	0.019671
1676	8.3750e-01	-12.9494	-29.215573	0.000088	0.877072	0.297160	0.007099
1677	8.3800e-01	-12.9221	-29.153567	0.000153	1.532234	0.519135	0.012401
1678	8.3850e-01	-12.8676	-29.123206	0.000075	0.750266	0.254197	0.006072
1679	8.3900e-01	-12.8483	-28.982517	0.000348	3.476586	1.177899	0.028138
1680	8.3950e-01	-12.7986	-28.977813	0.000012	0.116238	0.039383	0.000941
1681	8.4000e-01	-12.7440	-28.923505	0.000134	1.342025	0.454691	0.010862
1682	8.4050e-01	-12.6831	-28.875610	0.000118	1.183519	0.400987	0.009579
1683	8.4100e-01	-12.6734	-28.807190	0.000169	1.690741	0.572838	0.013684
1684	8.4150e-01	-12.6349	-28.764428	0.000106	1.056713	0.358024	0.008553
1685	8.4200e-01	-12.5884	-28.683607	0.000200	1.997188	0.676665	0.016164
1686	8.4250e-01	-12.5627	-28.636996	0.000115	1.151817	0.390246	0.009322
1687	8.4300e-01	-12.4938	-28.563016	0.000183	1.828113	0.619382	0.014796
1688	8.4350e-01	-12.4633	-28.494169	0.000170	1.701308	0.576419	0.013770
1689	8.4400e-01	-12.4408	-28.446702	0.000117	1.172951	0.397407	0.009493
1690	8.4450e-01	-12.3718	-28.387262	0.000147	1.468831	0.497653	0.011888
1691	8.4500e-01	-12.3734	-28.301737	-0.000211	-2.113426	-0.716048	0.017105
1692	8.4550e-01	-12.3333	-28.277790	0.000059	0.591759	0.200493	0.004789
1693	8.4600e-01	-12.2788	-28.195259	0.000204	2.039456	0.690986	0.016506
1694	8.4650e-01	-12.2323	-28.134108	0.000151	1.511100	0.511974	0.012230
1695	8.4700e-01	-12.2002	-28.090490	0.000108	1.077847	0.365185	0.008724
1696	8.4750e-01	-12.1585	-28.019505	0.000175	1.754144	0.594320	0.014197
1697	8.4800e-01	-12.1071	-27.967762	0.000128	1.278623	0.433209	0.010349
1698	8.4850e-01	-12.0831	-27.893783	0.000183	1.828113	0.619382	0.014796
1699	8.4900e-01	-12.0334	-27.839474	0.000134	1.342025	0.454691	0.010862
1700	8.4950e-01	-11.9932	-27.808258	0.000077	0.771400	0.261358	0.006243
1701	8.5000e-01	-11.9467	-27.699213	0.000269	2.694618	0.912961	0.021809
1702	8.5050e-01	-11.9178	-27.635070	0.000159	1.585069	0.537036	0.012829
1703	8.5100e-01	-11.8761	-27.588458	0.000115	1.151817	0.390246	0.009322
1704	8.5150e-01	-11.8761	-27.509348	-0.000195	-1.954919	-0.662344	0.015822
1705	8.5200e-01	-11.7911	-27.452901	0.000139	1.394861	0.472592	0.011289
1706	8.5250e-01	-11.7189	-27.442211	0.000026	0.264178	0.089506	0.002138
1707	8.5300e-01	-11.6965	-27.378922	0.000156	1.563935	0.529876	0.012658
1708	8.5350e-01	-11.6724	-27.257476	0.000300	3.001065	1.016788	0.024289
1709	8.5400e-01	-11.6531	-27.183497	0.000183	1.828113	0.619382	0.014796
1710	8.5450e-01	-11.5810	-27.153136	0.000075	0.750266	0.254197	0.006072
1711	8.5500e-01	-11.5681	-27.058203	0.000235	2.345903	0.794813	0.018987
1712	8.5550e-01	-11.5200	-26.994059	0.000159	1.585069	0.537036	0.012829
1713	8.5600e-01	-11.4622	-26.964981	0.000072	0.718565	0.243456	0.005816
1714	8.5650e-01	-11.4398	-26.897416	0.000167	1.669606	0.565678	0.013513
1715	8.5700e-01	-11.3981	-26.845246	0.000129	1.289190	0.436789	0.010434
1716	8.5750e-01	-11.3323	-26.801200	0.000109	1.088414	0.368765	0.008809
1717	8.5800e-01	-11.3002	-26.709688	0.000226	2.261366	0.766171	0.018302
1718	8.5850e-01	-11.2505	-26.667354	0.000105	1.046146	0.354444	0.008467
1719	8.5900e-01	-11.2569	-26.623308	-0.000109	-1.088414	-0.368765	0.008809
1720	8.5950e-01	-11.1879	-26.556599	0.000165	1.648472	0.558518	0.013342
1721	8.6000e-01	-11.1542	-26.461238	0.000236	2.356470	0.798394	0.019072
1722	8.6050e-01	-11.1350	-26.368443	0.000229	2.293067	0.776912	0.018559
1723	8.6100e-01	-11.0644	-26.360319	0.000020	0.200775	0.068025	0.001625
1724	8.6150e-01	-11.0387	-26.301306	0.000146	1.458264	0.494073	0.011802
1725	8.6200e-01	-10.9794	-26.234597	0.000165	1.648472	0.558518	0.013342
1726	8.6250e-01	-10.9633	-26.134960	0.000246	2.462141	0.834196	0.019927
1727	8.6300e-01	-10.9521	-26.072954	0.000153	1.532234	0.519135	0.012401
1728	8.6350e-01	-10.8751	-26.022495	0.000125	1.246921	0.422468	0.010092
1729	8.6400e-01	-10.8478	-25.946377	0.000188	1.880949	0.637283	0.015223
1730	8.6450e-01	-10.7997	-25.904470	0.000104	1.035579	0.350864	0.008381
1731	8.6500e-01	-10.7580	-25.819373	0.000210	2.102859	0.712468	0.017019
1732	8.6550e-01	-10.7307	-25.789439	0.000074	0.739699	0.250617	0.005987
1733	8.6600e-01	-10.6585	-25.714177	0.000186	1.859815	0.630122	0.015052
1734	8.6650e-01	-10.6120	-25.679112	0.000087	0.866505	0.293580	0.007013
1735	8.6700e-01	-10.6152	-25.563653	-0.000285	-2.853125	-0.966665	0.023092
1736	8.6750e-01	-10.5398	-25.567501	-0.000010	-0.095104	-0.032222	-0.000770
1737	8.6800e-01	-10.5270	-25.457602	0.000272	2.715752	0.920122	0.021980
1738	8.6850e-01	-10.4821	-25.411418	0.000114	1.141250	0.386666	0.009237
1739	8.6900e-01	-10.4660	-25.304512	0.000264	2.641782	0.895060	0.021381
1740	8.6950e-01	-10.3890	-25.275006	0.000073	0.729132	0.247037	0.005901
1741	8.7000e-01	-10.3617	-25.202737	0.000179	1.785845	0.605061	0.014454
1742	8.7050e-01	-10.3457	-25.108659	0.000232	2.324769	0.787653	0.018816
1743	8.7100e-01	-10.2976	-25.043233	0.000162	1.616771	0.547777	0.013085
1744	8.7150e-01	-10.2591	-24.970109	0.000181	1.806979	0.612221	0.014625
1745	8.7200e-01	-10.2029	-24.963267	0.000017	0.169074	0.057284	0.001368
1746	8.7250e-01	-10.1548	-24.862347	0.000249	2.493843	0.844937	0.020184
1747	8.7300e-01	-10.0826	-24.826854	0.000088	0.877072	0.297160	0.007099
1748	8.7350e-01	-10.0858	-24.739191	-0.000217	-2.166262	-0.733949	0.017533
1749	8.7400e-01	-10.0345	-24.690014	0.000122	1.215220	0.411728	0.009835
1750	8.7450e-01	-9.9880	-24.606200	0.000207	2.071157	0.701727	0.016763
1751	8.7500e-01	-9.9623	-24.547615	0.000145	1.447697	0.490493	0.011717
1752	8.7550e-01	-9.9158	-24.503997	0.000108	1.077847	0.365185	0.008724
1753	8.7600e-01	-9.8837	-24.418472	0.000211	2.113426	0.716048	0.017105
1754	8.7650e-01	-9.8035	-24.380841	0.000093	0.929907	0.315061	0.007526
1755	8.7700e-01	-9.8003	-24.265382	0.000285	2.853125	0.966665	0.023092
1756	8.7750e-01	-9.7377	-24.255547	0.000024	0.243044	0.082346	0.001967
1757	8.7800e-01	-9.6944	-24.184561	0.000175	1.754144	0.594320	0.014197
1758	8.7850e-01	-9.6575	-24.115286	0.000171	1.711875	0.579999	0.013855
1759	8.7900e-01	-9.6463	-24.010518	0.000259	2.588947	0.877159	0.020954
1760	8.7950e-01	-9.5901	-23.959630	0.000126	1.257488	0.426049	0.010177
1761	8.8000e-01	-9.5532	-23.894631	0.000161	1.606204	0.544197	0.013000
1762	8.8050e-01	-9.5115	-23.815093	0.000197	1.965486	0.665925	0.015908
1763	8.8100e-01	-9.4842	-23.794995	0.000050	0.496655	0.168271	0.004020
1764	8.8150e-01	-9.4425	-23.676970	0.000292	2.916528	0.988146	0.023605
1765	8.8200e-01	-9.4152	-23.594011	0.000205	2.050023	0.694567	0.016592
1766	8.8250e-01	-9.3591	-23.575623	0.000045	0.454387	0.153950	0.003678
1767	8.8300e-01	-9.3286	-23.542268	0.000082	0.824236	0.279259	0.006671
1768	8.8350e-01	-9.2789	-23.433651	0.000268	2.684051	0.909381	0.021723
1769	8.8400e-01	-9.2179	-23.403290	0.000075	0.750266	0.254197	0.006072
1770	8.8450e-01	-9.2211	-23.297239	-0.000262	-2.620648	-0.887900	0.021210
1771	8.8500e-01	-9.1538	-23.254476	0.000106	1.056713	0.358024	0.008553
1772	8.8550e-01	-9.1185	-23.167668	0.000215	2.145127	0.726789	0.017362
1773	8.8600e-01	-9.0687	-23.065466	0.000253	2.525544	0.855677	0.020440
1774	8.8650e-01	-9.0382	-23.024414	0.000101	1.014444	0.343703	0.008210
1775	8.8700e-01	-8.9853	-22.949579	0.000185	1.849248	0.626542	0.014967
1776	8.8750e-01	-8.9548	-22.906817	0.000106	1.056713	0.358024	0.008553
1777	8.8800e-01	-8.9083	-22.827279	0.000197	1.965486	0.665925	0.015908
1778	8.8850e-01	-8.8634	-22.772970	0.000134	1.342025	0.454691	0.010862
1779	8.8900e-01	-8.8249	-22.698991	0.000183	1.828113	0.619382	0.014796
1780	8.8950e-01	-8.7912	-22.633564	0.000162	1.616771	0.547777	0.013085
1781	8.9000e-01	-8.7543	-22.566000	0.000167	1.669606	0.565678	0.013513
1782	8.9050e-01	-8.7350	-22.471494	0.000234	2.335336	0.791233	0.018901
1783	8.9100e-01	-8.7046	-22.415903	0.000137	1.373727	0.465431	0.011118
1784	8.9150e-01	-8.6388	-22.349621	0.000164	1.637905	0.554937	0.013256
1785	8.9200e-01	-8.5923	-22.306431	0.000107	1.067280	0.361604	0.008638
1786	8.9250e-01	-8.5265	-22.214064	0.000228	2.282500	0.773332	0.018473
1787	8.9300e-01	-8.5056	-22.155052	0.000146	1.458264	0.494073	0.011802
1788	8.9350e-01	-8.4575	-22.086632	0.000169	1.690741	0.572838	0.013684
1789	8.9400e-01	-8.4495	-21.990416	0.000238	2.377604	0.805554	0.019243
1790	8.9450e-01	-8.3950	-21.969035	0.000053	0.528356	0.179012	0.004276
1791	8.9500e-01	-8.3581	-21.886931	0.000203	2.028889	0.687406	0.016421
1792	8.9550e-01	-8.3308	-21.797557	0.000221	2.208530	0.748270	0.017875
1793	8.9600e-01	-8.2746	-21.707756	0.000222	2.219097	0.751851	0.017960
1794	8.9650e-01	-8.2442	-21.664565	0.000107	1.067280	0.361604	0.008638
1795	8.9700e-01	-8.2057	-21.605126	0.000147	1.468831	0.497653	0.011888
1796	8.9750e-01	-8.1752	-21.535850	0.000171	1.711875	0.579999	0.013855
1797	8.9800e-01	-8.1190	-21.438779	0.000240	2.398738	0.812715	0.019414
1798	8.9850e-01	-8.0998	-21.398155	0.000100	1.003877	0.340123	0.008125
1799	8.9900e-01	-8.0388	-21.305360	0.000229	2.293067	0.776912	0.018559
1800	8.9950e-01	-8.0067	-21.245920	0.000147	1.468831	0.497653	0.011888
1801	9.0000e-01	-7.9377	-21.228815	0.000042	0.422685	0.143210	0.003421
1802	9.0050e-01	-7.9025	-21.121909	0.000264	2.641782	0.895060	0.021381
1803	9.0100e-01	-7.8527	-21.056482	0.000162	1.616771	0.547777	0.013085
1804	9.0150e-01	-7.8463	-20.960694	0.000237	2.367037	0.801974	0.019158
1805	9.0200e-01	-7.7821	-20.934609	0.000064	0.644595	0.218395	0.005217
1806	9.0250e-01	-7.7677	-20.837111	0.000241	2.409306	0.816295	0.019500
1807	9.0300e-01	-7.6939	-20.783230	0.000133	1.331458	0.451110	0.010776
1808	9.0350e-01	-7.6682	-20.713527	0.000172	1.722442	0.583579	0.013941
1809	9.0400e-01	-7.6410	-20.564713	0.000368	3.677361	1.245924	0.029763
1810	9.0450e-01	-7.6009	-20.544615	0.000050	0.496655	0.168271	0.004020
1811	9.0500e-01	-7.5287	-20.478761	0.000163	1.627338	0.551357	0.013171
1812	9.0550e-01	-7.4918	-20.398367	0.000199	1.986620	0.673085	0.016079
1813	9.0600e-01	-7.4613	-20.334651	0.000157	1.574502	0.533456	0.012743
1814	9.0650e-01	-7.4292	-20.266231	0.000169	1.690741	0.572838	0.013684
1815	9.0700e-01	-7.4035	-20.186265	0.000198	1.976053	0.669505	0.015993
1816	9.0750e-01	-7.3522	-20.114851	0.000176	1.764711	0.597900	0.014283
1817	9.0800e-01	-7.3217	-20.021629	0.000230	2.303634	0.780492	0.018644
1818	9.0850e-01	-7.2768	-19.992123	0.000073	0.729132	0.247037	0.005901
1819	9.0900e-01	-7.2319	-19.911302	0.000200	1.997188	0.676665	0.016164
1820	9.0950e-01	-7.2110	-19.841171	0.000173	1.733009	0.587159	0.014026
1821	9.1000e-01	-7.1533	-19.759923	0.000201	2.007755	0.680246	0.016250
1822	9.1050e-01	-7.1100	-19.723147	0.000091	0.908773	0.307901	0.007355
1823	9.1100e-01	-7.0666	-19.617523	0.000261	2.610081	0.884319	0.021125
1824	9.1150e-01	-7.0458	-19.525584	0.000227	2.271933	0.769752	0.018388
1825	9.1200e-01	-6.9912	-19.464861	0.000150	1.500532	0.508394	0.012145
1826	9.1250e-01	-6.9608	-19.414829	0.000124	1.236354	0.418888	0.010006
1827	9.1300e-01	-6.9223	-19.323745	0.000225	2.250799	0.762591	0.018217
1828	9.1350e-01	-6.8757	-19.248483	0.000186	1.859815	0.630122	0.015052
1829	9.1400e-01	-6.8517	-19.179207	0.000171	1.711875	0.579999	0.013855
1830	9.1450e-01	-6.7955	-19.103945	0.000186	1.859815	0.630122	0.015052
1831	9.1500e-01	-6.7667	-19.037663	0.000164	1.637905	0.554937	0.013256
1832	9.1550e-01	-6.7265	-18.970954	0.000165	1.648472	0.558518	0.013342
1833	9.1600e-01	-6.6495	-18.917928	0.000131	1.310324	0.443950	0.010605
1834	9.1650e-01	-6.6816	-18.793917	-0.000306	-3.064468	-1.038270	0.024802
1835	9.1700e-01	-6.5998	-18.764411	0.000073	0.729132	0.247037	0.005901
1836	9.1750e-01	-6.5533	-18.683162	0.000201	2.007755	0.680246	0.016250
1837	9.1800e-01	-6.5356	-18.604907	0.000193	1.933785	0.655184	0.015651
1838	9.1850e-01	-6.4699	-18.535631	0.000171	1.711875	0.579999	0.013855
1839	9.1900e-01	-6.4137	-18.484316	0.000127	1.268056	0.429629	0.010263
1840	9.1950e-01	-6.4169	-18.344483	-0.000346	-3.455451	-1.170739	0.027967
1841	9.2000e-01	-6.3656	-18.331226	0.000033	0.327581	0.110987	0.002651
1842	9.2050e-01	-6.2966	-18.256820	0.000184	1.838681	0.622962	0.014881
1843	9.2100e-01	-6.3046	-18.154617	-0.000253	-2.525544	-0.855677	0.020440
1844	9.2150e-01	-6.2437	-18.087908	0.000165	1.648472	0.558518	0.013342
1845	9.2200e-01	-6.1923	-18.041297	0.000115	1.151817	0.390246	0.009322
1846	9.2250e-01	-6.1651	-17.908733	0.000328	3.275810	1.109875	0.026513
1847	9.2300e-01	-6.1330	-17.865115	0.000108	1.077847	0.365185	0.008724
1848	9.2350e-01	-6.0720	-17.790280	0.000185	1.849248	0.626542	0.014967
1849	9.2400e-01	-6.0303	-17.741104	0.000122	1.215220	0.411728	0.009835
1850	9.2450e-01	-5.9918	-17.645316	0.000237	2.367037	0.801974	0.019158
1851	9.2500e-01	-5.9485	-17.582027	0.000156	1.563935	0.529876	0.012658
1852	9.2550e-01	-5.9164	-17.488377	0.000231	2.314201	0.784073	0.018730
1853	9.2600e-01	-5.8859	-17.432786	0.000137	1.373727	0.465431	0.011118
1854	9.2650e-01	-5.8282	-17.347688	0.000210	2.102859	0.712468	0.017019
1855	9.2700e-01	-5.8073	-17.263874	0.000207	2.071157	0.701727	0.016763
1856	9.2750e-01	-5.7865	-17.173217	0.000224	2.240232	0.759011	0.018131
1857	9.2800e-01	-5.7528	-17.112067	0.000151	1.511100	0.511974	0.012230
1858	9.2850e-01	-5.6742	-17.036805	0.000186	1.859815	0.630122	0.015052
1859	9.2900e-01	-5.6421	-16.977365	0.000147	1.468831	0.497653	0.011888
1860	9.2950e-01	-5.6116	-16.861051	0.000287	2.874259	0.973825	0.023263
1861	9.3000e-01	-5.5619	-16.796479	0.000160	1.595637	0.540616	0.012914
1862	9.3050e-01	-5.5202	-16.737895	0.000145	1.447697	0.490493	0.011717
1863	9.3100e-01	-5.4801	-16.630561	0.000265	2.652350	0.898640	0.021467
1864	9.3150e-01	-5.4351	-16.579246	0.000127	1.268056	0.429629	0.010263
1865	9.3200e-01	-5.3982	-16.510398	0.000170	1.701308	0.576419	0.013770
1866	9.3250e-01	-5.3485	-16.411617	0.000244	2.441007	0.827036	0.019756
1867	9.3300e-01	-5.3084	-16.367144	0.000110	1.098981	0.372345	0.008895
1868	9.3350e-01	-5.2555	-16.271783	0.000236	2.356470	0.798394	0.019072
1869	9.3400e-01	-5.2587	-16.164022	-0.000266	-2.662917	-0.902221	0.021552
1870	9.3450e-01	-5.2025	-16.110568	0.000132	1.320891	0.447530	0.010691
1871	9.3500e-01	-5.1496	-16.057115	0.000132	1.320891	0.447530	0.010691
1872	9.3550e-01	-5.1223	-15.947643	0.000271	2.705185	0.916542	0.021894
1873	9.3600e-01	-5.0838	-15.859125	0.000219	2.187396	0.741110	0.017704
1874	9.3650e-01	-5.0437	-15.774883	0.000208	2.081725	0.705307	0.016848
1875	9.3700e-01	-4.9811	-15.734686	0.000099	0.993310	0.336543	0.008039
1876	9.3750e-01	-4.9475	-15.642319	0.000228	2.282500	0.773332	0.018473
1877	9.3800e-01	-4.9298	-15.558504	0.000207	2.071157	0.701727	0.016763
1878	9.3850e-01	-4.8961	-15.490084	0.000169	1.690741	0.572838	0.013684
1879	9.3900e-01	-4.8416	-15.443901	0.000114	1.141250	0.386666	0.009237
1880	9.3950e-01	-4.7854	-15.345974	0.000242	2.419873	0.819875	0.019585
1881	9.4000e-01	-4.7822	-15.213411	0.000328	3.275810	1.109875	0.026513
1882	9.4050e-01	-4.7164	-15.190319	0.000057	0.570625	0.193333	0.004618
1883	9.4100e-01	-4.6699	-15.092820	0.000241	2.409306	0.816295	0.019500
1884	9.4150e-01	-4.6266	-14.995322	0.000241	2.409306	0.816295	0.019500
1885	9.4200e-01	-4.5977	-14.929895	0.000162	1.616771	0.547777	0.013085
1886	9.4250e-01	-4.5624	-14.860192	0.000172	1.722442	0.583579	0.013941
1887	9.4300e-01	-4.5111	-14.787068	0.000181	1.806979	0.612221	0.014625
1888	9.4350e-01	-4.4726	-14.682728	0.000258	2.578380	0.873579	0.020868
1889	9.4400e-01	-4.4229	-14.607038	0.000187	1.870382	0.633703	0.015138
1890	9.4450e-01	-4.4036	-14.509967	0.000240	2.398738	0.812715	0.019414
1891	9.4500e-01	-4.3539	-14.430856	0.000195	1.954919	0.662344	0.015822
1892	9.4550e-01	-4.3138	-14.362009	0.000170	1.701308	0.576419	0.013770
1893	9.4600e-01	-4.2753	-14.258096	0.000257	2.567813	0.869998	0.020783
1894	9.4650e-01	-4.2352	-14.197801	0.000149	1.489965	0.504814	0.012059
1895	9.4700e-01	-4.2015	-14.125960	0.000178	1.775278	0.601480	0.014368
1896	9.4750e-01	-4.1518	-13.988692	0.000339	3.392049	1.149257	0.027454
1897	9.4800e-01	-4.1197	-13.951061	0.000093	0.929907	0.315061	0.007526
1898	9.4850e-01	-4.0860	-13.875371	0.000187	1.870382	0.633703	0.015138
1899	9.4900e-01	-4.0443	-13.787280	0.000218	2.176829	0.737530	0.017618
1900	9.4950e-01	-4.0042	-13.680802	0.000263	2.631215	0.891480	0.021296
1901	9.5000e-01	-3.9657	-13.608533	0.000179	1.785845	0.605061	0.014454
1902	9.5050e-01	-3.9047	-13.541823	0.000165	1.648472	0.558518	0.013342
1903	9.5100e-01	-3.8967	-13.458436	0.000206	2.060590	0.698147	0.016677
1904	9.5150e-01	-3.8357	-13.364359	0.000232	2.324769	0.787653	0.018816
1905	9.5200e-01	-3.8036	-13.281400	0.000205	2.050023	0.694567	0.016592
1906	9.5250e-01	-3.7587	-13.193736	0.000217	2.166262	0.733949	0.017533
1907	9.5300e-01	-3.7042	-13.117619	0.000188	1.880949	0.637283	0.015223
1908	9.5350e-01	-3.6705	-13.016700	0.000249	2.493843	0.844937	0.020184
1909	9.5400e-01	-3.6320	-12.971371	0.000112	1.120116	0.379505	0.009066
1910	9.5450e-01	-3.5935	-12.874728	0.000239	2.388171	0.809134	0.019329
1911	9.5500e-01	-3.5919	-12.751144	0.000305	3.053900	1.034689	0.024717
1912	9.5550e-01	-3.5181	-12.695125	0.000138	1.384294	0.469012	0.011204
1913	9.5600e-01	-3.4972	-12.567693	0.000315	3.149005	1.066912	0.025486
1914	9.5650e-01	-3.4282	-12.503122	0.000160	1.595637	0.540616	0.012914
1915	9.5700e-01	-3.4026	-12.464635	0.000095	0.951042	0.322222	0.007697
1916	9.5750e-01	-3.3721	-12.337203	0.000315	3.149005	1.066912	0.025486
1917	9.5800e-01	-3.2951	-12.282895	0.000134	1.342025	0.454691	0.010862
1918	9.5850e-01	-3.2903	-12.165298	0.000291	2.905961	0.984566	0.023519
1919	9.5900e-01	-3.2325	-12.093029	0.000179	1.785845	0.605061	0.014454
1920	9.5950e-01	-3.1892	-12.016484	0.000189	1.891516	0.640863	0.015309
1921	9.6000e-01	-3.1427	-11.910005	0.000263	2.631215	0.891480	0.021296
1922	9.6050e-01	-3.1170	-11.803099	0.000264	2.641782	0.895060	0.021381
1923	9.6100e-01	-3.0817	-11.747508	0.000137	1.373727	0.465431	0.011118
1924	9.6150e-01	-3.0368	-11.655568	0.000227	2.271933	0.769752	0.018388
1925	9.6200e-01	-2.9823	-11.557642	0.000242	2.419873	0.819875	0.019585
1926	9.6250e-01	-2.9598	-11.440045	0.000291	2.905961	0.984566	0.023519
1927	9.6300e-01	-2.9325	-11.352382	0.000217	2.166262	0.733949	0.017533
1928	9.6350e-01	-2.8812	-11.293797	0.000145	1.447697	0.490493	0.011717
1929	9.6400e-01	-2.8315	-11.221529	0.000179	1.785845	0.605061	0.014454
1930	9.6450e-01	-2.7978	-11.097517	0.000306	3.064468	1.038270	0.024802
1931	9.6500e-01	-2.7657	-11.043637	0.000133	1.331458	0.451110	0.010776
1932	9.6550e-01	-2.7224	-10.891402	0.000376	3.761898	1.274566	0.030447
1933	9.6600e-01	-2.6662	-10.849067	0.000105	1.046146	0.354444	0.008467
1934	9.6650e-01	-2.6197	-10.792193	0.000141	1.405428	0.476172	0.011375
1935	9.6700e-01	-2.6053	-10.666471	0.000311	3.106736	1.052591	0.025144
1936	9.6750e-01	-2.5427	-10.595913	0.000174	1.743576	0.590740	0.014112
1937	9.6800e-01	-2.5331	-10.446672	0.000369	3.687928	1.249504	0.029848
1938	9.6850e-01	-2.4834	-10.387659	0.000146	1.458264	0.494073	0.011802
1939	9.6900e-01	-2.4368	-10.279898	0.000266	2.662917	0.902221	0.021552
1940	9.6950e-01	-2.4256	-10.206346	0.000182	1.817546	0.615801	0.014710
1941	9.7000e-01	-2.3438	-10.113552	0.000229	2.293067	0.776912	0.018559
1942	9.7050e-01	-2.3117	-10.009639	0.000257	2.567813	0.869998	0.020783
1943	9.7100e-01	-2.2732	-9.938653	0.000175	1.754144	0.594320	0.014197
1944	9.7150e-01	-2.2556	-9.810793	0.000316	3.159572	1.070492	0.025572
1945	9.7200e-01	-2.2058	-9.780431	0.000075	0.750266	0.254197	0.006072
1946	9.7250e-01	-2.1352	-9.618361	0.000400	4.004942	1.356911	0.032414
1947	9.7300e-01	-2.1144	-9.556783	0.000152	1.521667	0.515555	0.012316
1948	9.7350e-01	-2.0775	-9.455009	0.000251	2.514977	0.852097	0.020355
1949	9.7400e-01	-2.0518	-9.354517	0.000248	2.483275	0.841357	0.020098
1950	9.7450e-01	-2.0053	-9.263005	0.000226	2.261366	0.766171	0.018302
1951	9.7500e-01	-1.9459	-9.171921	0.000225	2.250799	0.762591	0.018217
1952	9.7550e-01	-1.9106	-9.079554	0.000228	2.282500	0.773332	0.018473
1953	9.7600e-01	-1.9090	-8.986759	0.000229	2.293067	0.776912	0.018559
1954	9.7650e-01	-1.8288	-8.863603	0.000304	3.043333	1.031109	0.024631
1955	9.7700e-01	-1.7935	-8.816136	0.000117	1.172951	0.397407	0.009493
1956	9.7750e-01	-1.7342	-8.715217	0.000249	2.493843	0.844937	0.020184
1957	9.7800e-01	-1.7213	-8.594199	0.000299	2.990498	1.013208	0.024204
1958	9.7850e-01	-1.6459	-8.549298	0.000111	1.109549	0.375925	0.008980
1959	9.7900e-01	-1.6492	-8.370979	-0.000441	-4.406493	-1.492960	0.035664
1960	9.7950e-01	-1.5914	-8.323085	0.000118	1.183519	0.400987	0.009579
1961	9.8000e-01	-1.5770	-8.198646	0.000308	3.075035	1.041850	0.024888
1962	9.8050e-01	-1.5288	-8.095588	0.000255	2.546678	0.862838	0.020612
1963	9.8100e-01	-1.4871	-8.024174	0.000176	1.764711	0.597900	0.014283
1964	9.8150e-01	-1.4133	-7.905722	0.000293	2.927095	0.991727	0.023690
1965	9.8200e-01	-1.3812	-7.818914	0.000215	2.145127	0.726789	0.017362
1966	9.8250e-01	-1.3684	-7.694903	0.000306	3.064468	1.038270	0.024802
1967	9.8300e-01	-1.3107	-7.620924	0.000183	1.828113	0.619382	0.014796
1968	9.8350e-01	-1.2433	-7.517011	0.000257	2.567813	0.869998	0.020783
1969	9.8400e-01	-1.2417	-7.414381	0.000254	2.536111	0.859258	0.020526
1970	9.8450e-01	-1.1935	-7.293363	0.000299	2.990498	1.013208	0.024204
1971	9.8500e-01	-1.1470	-7.177049	0.000287	2.874259	0.973825	0.023263
1972	9.8550e-01	-1.1101	-7.108629	0.000169	1.690741	0.572838	0.013684
1973	9.8600e-01	-1.0813	-6.984190	0.000308	3.075035	1.041850	0.024888
1974	9.8650e-01	-1.0411	-6.920046	0.000159	1.585069	0.537036	0.012829
1975	9.8700e-01	-0.9898	-6.808436	0.000276	2.758021	0.934443	0.022322
1976	9.8750e-01	-0.9529	-6.704095	0.000258	2.578380	0.873579	0.020868
1977	9.8800e-01	-0.8823	-6.625840	0.000193	1.933785	0.655184	0.015651
1978	9.8850e-01	-0.8695	-6.507388	0.000293	2.927095	0.991727	0.023690
1979	9.8900e-01	-0.8262	-6.366699	0.000348	3.476586	1.177899	0.028138
1980	9.8950e-01	-0.8101	-6.284167	0.000204	2.039456	0.690986	0.016506
1981	9.9000e-01	-0.7572	-6.161439	0.000303	3.032766	1.027529	0.024546
1982	9.9050e-01	-0.7428	-6.054105	0.000265	2.652350	0.898640	0.021467
1983	9.9100e-01	-0.6449	-5.975422	0.000194	1.944352	0.658764	0.015737
1984	9.9150e-01	-0.6176	-5.874075	0.000250	2.504410	0.848517	0.020269
1985	9.9200e-01	-0.5936	-5.793253	0.000200	1.997188	0.676665	0.016164
1986	9.9250e-01	-0.5727	-5.619210	0.000430	4.300822	1.457158	0.034809
1987	9.9300e-01	-0.5053	-5.577303	0.000104	1.035579	0.350864	0.008381
1988	9.9350e-01	-0.4620	-5.457140	0.000297	2.969363	1.006048	0.024033
1989	9.9400e-01	-0.4444	-5.341253	0.000286	2.863692	0.970245	0.023177
1990	9.9450e-01	-0.4139	-5.245893	0.000236	2.356470	0.798394	0.019072
1991	9.9500e-01	-0.3337	-5.126158	0.000296	2.958796	1.002467	0.023947
1992	9.9550e-01	-0.3160	-5.025666	0.000248	2.483275	0.841357	0.020098
1993	9.9600e-01	-0.2775	-4.896096	0.000320	3.201840	1.084813	0.025914
1994	9.9650e-01	-0.2326	-4.820834	0.000186	1.859815	0.630122	0.015052
1995	9.9700e-01	-0.1925	-4.697677	0.000304	3.043333	1.031109	0.024631
1996	9.9750e-01	-0.1283	-4.634817	0.000155	1.553368	0.526295	0.012572
1997	9.9800e-01	-0.1203	-4.468898	0.000410	4.100046	1.389133	0.033184
1998	9.9850e-01	-0.0786	-4.380380	0.000219	2.187396	0.741110	0.017704
1999	9.9900e-01	-0.0193	-4.262355	0.000292	2.916528	0.988146	0.023605
2000	9.9950e-01	0.0080	-4.154593	0.000266	2.662917	0.902221	0.021552
2001	1.0000e+00	0.0529	-4.039562	0.000266	2.662917	0.902221	0.023006

Center data before PMax,+/-Pr and +/-Vc Calc.

PMax (uC/cm2):	3.82e+01
Pr (uC/cm2):	6.53e-01
-Pr (uC/cm2):	-4.04e+00
PLoss (uC/cm2):	-2.88e+00
Vc:	5.85e-01
-Vc:	-2.51e-01
C (Max-Eff) (nF):	1.91e-01
K (Eff):	6.47e+02
Vert. (+/-Pr) Shift (uC/cm2):	-1.69e+00
Horiz. Shift (+/-Vc):	1.67e-01
Offset (uC/cm2):	1.19e+00

A (Loop Area - uC/cm2·Volts):	4.89e-02



Hysteresis Version: 5.48.1 - Radiant Technologies, Inc., 1999 - 9/12/24

