»»»»»»»»»»»»»»»»»»»»»»»»»»»»»»»»»»»» Hysteresis ««««««««««««««««««««««««««««««««««««
»»»  Executed Version:	5.48.1
»»»  Vision Version:	5.48.4 (R)
»»»  Vision Compiled:	9/18/24
»»»  Driver Version:	5.47.0
»»»  Windows Version:	Windows 8 or 8.1
»»»  Processor Information:	x86 (AMD or Intel) - 32 Processors
»»»  Tester Name:	PMF21124-494 (100V)
»»»  Tester S/N:	PMF21124-494
»»»  Internal Amp Type:	100V RevK 270k
»»»  Internal Amp S/N:	iAB2-596/K     
»»»  Execution Count:	1
»»»»»»»»»»»»»»»»»»»»»»»»»»»»»»»»»»»»»»»»»»««««««««««««««««««««««««««««««««««««««««««

Stored:	6/12/2025 - 16:28:10
Configured:	06/12/25 03:03:03 PM
Executed:	06/12/25 04:27:22 PM

»»»»»»»»»»»»»»»»»»»»»»»»»»»»»»»»»»» Sample Info ««««««««««««««««««««««««««««««««««««
Sample Name:	
Lot Name:	
Wafer Name:	
Die Row/Column:	0/0
Capacitor Number:	0
Sample Area (cm2):	1.00e-04
Sample Thickness (microns):	3.00e-01

Amplifier:	Internal

»»»»»»»»»»»»»»»»»»»»»»»»»»»»»»»»»»» Tester Info «««««««««««««««««««««««««««««««««««
Tester Name:	PMF21124-494 (100V)
Tester Serial Number:	PMF21124-494
Return Signal Amp. Level:	0.19 [Index: 3]

»»»»»»»»»»»»»»»»»»»»»»»»»»»»»»»» Hysteresis Info ««««««««««««««««««««««««««««««««««
Task Name:	Hyst-1570
Volts:	20.00
Field:	666.67 (kV/cm)
DCBias:	0.00
DCField:	0.00 (kV/cm)
Hysteresis Period (ms):	2.00e+02
Preset:	Enabled
Preset Delay (ms):	1.00e+03
Profile:	Standard Bipolar

»»»»»»»»»»»»»»»»»»»»»»»»»»»»»»»»»»»»»» Data «««««««««««««««««««««««««««««««««««««««
Points:	2009

Valid Data

Point	Time (ms)	Drive Voltage	Measured Polarization (uC/cm2)	Capacitance (uF)	Normalized Capacitance (uF/cm2)	Dielectric Constant	Instantaneous Current (mA)
   1	0.0000e+00	0.0016	6.394823	0.000588	5.876917	1.991154	0.000235
   2	9.9500e-02	0.0305	6.628977	0.000588	5.876917	1.991154	0.000235
   3	1.9900e-01	0.0690	6.923688	0.000740	7.396810	2.506107	0.000296
   4	2.9850e-01	0.1139	7.194176	0.000679	6.788853	2.300126	0.000272
   5	3.9800e-01	0.1588	7.496961	0.000760	7.599462	2.574767	0.000304
   6	4.9750e-01	0.1957	7.828006	0.000831	8.308745	2.815079	0.000333
   7	5.9700e-01	0.2294	8.102531	0.000689	6.890179	2.334456	0.000276
   8	6.9650e-01	0.2711	8.413391	0.000780	7.802115	2.643428	0.000312
   9	7.9600e-01	0.3144	8.736362	0.000811	8.106093	2.746419	0.000325
  10	8.9550e-01	0.3513	9.035110	0.000750	7.498136	2.540437	0.000300
  11	9.9500e-01	0.3946	9.329821	0.000740	7.396810	2.506107	0.000296
  12	1.0945e+00	0.4315	9.600309	0.000679	6.788853	2.300126	0.000272
  13	1.1940e+00	0.4749	9.979800	0.000952	9.524659	3.227042	0.000381
  14	1.2935e+00	0.5198	10.322956	0.000861	8.612724	2.918070	0.000345
  15	1.3930e+00	0.5406	10.544999	0.000557	5.572939	1.888163	0.000223
  16	1.4925e+00	0.5968	10.920452	0.000942	9.423333	3.192712	0.000377
  17	1.5920e+00	0.6321	11.227274	0.000770	7.700788	2.609098	0.000308
  18	1.6915e+00	0.6642	11.578505	0.000882	8.815376	2.986730	0.000353
  19	1.7910e+00	0.7139	11.836882	0.000648	6.484874	2.197135	0.000260
  20	1.8905e+00	0.7540	12.220410	0.000963	9.625985	3.261372	0.000385
  21	1.9900e+00	0.7909	12.507047	0.000719	7.194158	2.437447	0.000288
  22	2.0895e+00	0.8422	12.866352	0.000902	9.018028	3.055391	0.000361
  23	2.1890e+00	0.8791	13.173174	0.000770	7.700788	2.609098	0.000308
  24	2.2885e+00	0.9176	13.532479	0.000902	9.018028	3.055391	0.000361
  25	2.3880e+00	0.9449	13.867561	0.000841	8.410071	2.849409	0.000337
  26	2.4875e+00	0.9898	14.218792	0.000882	8.815376	2.986730	0.000353
  27	2.5870e+00	1.0299	14.465057	0.000618	6.180896	2.094144	0.000248
  28	2.6865e+00	1.0716	14.844548	0.000952	9.524659	3.227042	0.000381
  29	2.7860e+00	1.1021	15.179630	0.000841	8.410071	2.849409	0.000337
  30	2.8855e+00	1.1518	15.518750	0.000851	8.511398	2.883740	0.000341
  31	2.9850e+00	1.1903	15.869981	0.000882	8.815376	2.986730	0.000353
  32	3.0845e+00	1.2337	16.184877	0.000790	7.903441	2.677758	0.000316
  33	3.1840e+00	1.2689	16.568405	0.000963	9.625985	3.261372	0.000385
  34	3.2835e+00	1.3155	16.867153	0.000750	7.498136	2.540437	0.000300
  35	3.3830e+00	1.3411	17.250681	0.000963	9.625985	3.261372	0.000385
  36	3.4825e+00	1.3828	17.601912	0.000882	8.815376	2.986730	0.000353
  37	3.5820e+00	1.4326	17.924883	0.000811	8.106093	2.746419	0.000325
  38	3.6815e+00	1.4775	18.272076	0.000871	8.714050	2.952400	0.000349
  39	3.7810e+00	1.5064	18.639456	0.000922	9.220681	3.124051	0.000369
  40	3.8805e+00	1.5497	18.966464	0.000821	8.207419	2.780749	0.000329
  41	3.9800e+00	1.5802	19.333843	0.000922	9.220681	3.124051	0.000369
  42	4.0795e+00	1.6315	19.648740	0.000790	7.903441	2.677758	0.000316
  43	4.1790e+00	1.6588	20.020156	0.000932	9.322007	3.158381	0.000373
  44	4.2785e+00	1.7133	20.351201	0.000831	8.308745	2.815079	0.000333
  45	4.3780e+00	1.7406	20.730692	0.000952	9.524659	3.227042	0.000381
  46	4.4775e+00	1.7887	21.085960	0.000892	8.916702	3.021061	0.000357
  47	4.5770e+00	1.8272	21.433154	0.000871	8.714050	2.952400	0.000349
  48	4.6765e+00	1.8737	21.748050	0.000790	7.903441	2.677758	0.000316
  49	4.7760e+00	1.9122	22.135615	0.000973	9.727312	3.295702	0.000390
  50	4.8755e+00	1.9395	22.442438	0.000770	7.700788	2.609098	0.000308
  51	4.9750e+00	1.9844	22.797706	0.000892	8.916702	3.021061	0.000357
  52	5.0745e+00	2.0310	23.157011	0.000902	9.018028	3.055391	0.000361
  53	5.1740e+00	2.0743	23.524390	0.000922	9.220681	3.124051	0.000369
  54	5.2735e+00	2.1015	23.859472	0.000841	8.410071	2.849409	0.000337
  55	5.3730e+00	2.1449	24.214740	0.000892	8.916702	3.021061	0.000357
  56	5.4725e+00	2.1850	24.549822	0.000841	8.410071	2.849409	0.000337
  57	5.5720e+00	2.2235	24.905090	0.000892	8.916702	3.021061	0.000357
  58	5.6715e+00	2.2668	25.228061	0.000811	8.106093	2.746419	0.000325
  59	5.7710e+00	2.2957	25.583329	0.000892	8.916702	3.021061	0.000357
  60	5.8705e+00	2.3342	25.934560	0.000882	8.815376	2.986730	0.000353
  61	5.9700e+00	2.3903	26.261568	0.000821	8.207419	2.780749	0.000329
  62	6.0695e+00	2.4320	26.624910	0.000912	9.119355	3.089721	0.000365
  63	6.1690e+00	2.4657	26.976141	0.000882	8.815376	2.986730	0.000353
  64	6.2685e+00	2.5026	27.327372	0.000882	8.815376	2.986730	0.000353
  65	6.3680e+00	2.5491	27.634194	0.000770	7.700788	2.609098	0.000308
  66	6.4675e+00	2.5860	28.033871	0.001003	10.031290	3.398693	0.000402
  67	6.5670e+00	2.6197	28.316470	0.000709	7.092831	2.403116	0.000284
  68	6.6665e+00	2.6630	28.720184	0.001013	10.132616	3.433023	0.000406
  69	6.7660e+00	2.7031	29.010857	0.000730	7.295484	2.471777	0.000292
  70	6.8655e+00	2.7448	29.337865	0.000821	8.207419	2.780749	0.000329
  71	6.9650e+00	2.7817	29.689096	0.000882	8.815376	2.986730	0.000353
  72	7.0645e+00	2.8186	30.040327	0.000882	8.815376	2.986730	0.000353
  73	7.1640e+00	2.8603	30.351186	0.000780	7.802115	2.643428	0.000312
  74	7.2635e+00	2.8972	30.706454	0.000892	8.916702	3.021061	0.000357
  75	7.3630e+00	2.9422	31.017314	0.000780	7.802115	2.643428	0.000312
  76	7.4625e+00	2.9823	31.348359	0.000831	8.308745	2.815079	0.000333
  77	7.5620e+00	3.0160	31.663256	0.000790	7.903441	2.677758	0.000316
  78	7.6615e+00	3.0689	32.018524	0.000892	8.916702	3.021061	0.000357
  79	7.7610e+00	3.1042	32.345532	0.000821	8.207419	2.780749	0.000329
  80	7.8605e+00	3.1475	32.688688	0.000861	8.612724	2.918070	0.000345
  81	7.9600e+00	3.1812	32.963213	0.000689	6.890179	2.334456	0.000276
  82	8.0595e+00	3.2245	33.346741	0.000963	9.625985	3.261372	0.000385
  83	8.1590e+00	3.2662	33.665675	0.000800	8.004767	2.712088	0.000321
  84	8.2585e+00	3.3047	33.984609	0.000800	8.004767	2.712088	0.000321
  85	8.3580e+00	3.3416	34.299505	0.000790	7.903441	2.677758	0.000316
  86	8.4575e+00	3.3753	34.598253	0.000750	7.498136	2.540437	0.000300
  87	8.5570e+00	3.4218	34.949484	0.000882	8.815376	2.986730	0.000353
  88	8.6565e+00	3.4635	35.244195	0.000740	7.396810	2.506107	0.000296
  89	8.7560e+00	3.5004	35.639834	0.000993	9.929964	3.364363	0.000398
  90	8.8555e+00	3.5454	35.886100	0.000618	6.180896	2.094144	0.000248
  91	8.9550e+00	3.5758	36.205033	0.000800	8.004767	2.712088	0.000321
  92	9.0545e+00	3.6256	36.511856	0.000770	7.700788	2.609098	0.000308
  93	9.1540e+00	3.6705	36.818678	0.000770	7.700788	2.609098	0.000308
  94	9.2535e+00	3.6978	37.113389	0.000740	7.396810	2.506107	0.000296
  95	9.3530e+00	3.7363	37.464620	0.000882	8.815376	2.986730	0.000353
  96	9.4525e+00	3.7860	37.779516	0.000790	7.903441	2.677758	0.000316
  97	9.5520e+00	3.8068	38.090376	0.000780	7.802115	2.643428	0.000312
  98	9.6515e+00	3.8582	38.401235	0.000780	7.802115	2.643428	0.000312
  99	9.7510e+00	3.8919	38.740355	0.000851	8.511398	2.883740	0.000341
 100	9.8505e+00	3.9352	39.051214	0.000780	7.802115	2.643428	0.000312
 101	9.9500e+00	3.9769	39.337851	0.000719	7.194158	2.437447	0.000288
 102	1.0050e+01	4.0218	39.588153	0.000628	6.282222	2.128474	0.000252
 103	1.0149e+01	4.0587	39.939384	0.000882	8.815376	2.986730	0.000353
 104	1.0248e+01	4.0892	40.286578	0.000871	8.714050	2.952400	0.000349
 105	1.0348e+01	4.1389	40.540917	0.000638	6.383548	2.162805	0.000256
 106	1.0447e+01	4.1678	40.863888	0.000811	8.106093	2.746419	0.000325
 107	1.0547e+01	4.2127	41.142450	0.000699	6.991505	2.368786	0.000280
 108	1.0646e+01	4.2544	41.461384	0.000800	8.004767	2.712088	0.000321
 109	1.0746e+01	4.2977	41.788392	0.000821	8.207419	2.780749	0.000329
 110	1.0845e+01	4.3394	42.079066	0.000730	7.295484	2.471777	0.000292
 111	1.0945e+01	4.3796	42.398000	0.000800	8.004767	2.712088	0.000321
 112	1.1044e+01	4.4213	42.676562	0.000699	6.991505	2.368786	0.000280
 113	1.1144e+01	4.4598	42.967236	0.000730	7.295484	2.471777	0.000292
 114	1.1243e+01	4.4886	43.241761	0.000689	6.890179	2.334456	0.000276
 115	1.1343e+01	4.5271	43.609140	0.000922	9.220681	3.124051	0.000369
 116	1.1443e+01	4.5785	43.847331	0.000598	5.978244	2.025484	0.000239
 117	1.1542e+01	4.6186	44.170302	0.000811	8.106093	2.746419	0.000325
 118	1.1642e+01	4.6587	44.481162	0.000780	7.802115	2.643428	0.000312
 119	1.1741e+01	4.7004	44.763761	0.000709	7.092831	2.403116	0.000284
 120	1.1841e+01	4.7357	45.046361	0.000709	7.092831	2.403116	0.000284
 121	1.1940e+01	4.7662	45.332997	0.000719	7.194158	2.437447	0.000288
 122	1.2040e+01	4.8175	45.623671	0.000730	7.295484	2.471777	0.000292
 123	1.2139e+01	4.8544	45.938568	0.000790	7.903441	2.677758	0.000316
 124	1.2239e+01	4.8993	46.205019	0.000669	6.687527	2.265795	0.000268
 125	1.2338e+01	4.9314	46.499729	0.000740	7.396810	2.506107	0.000296
 126	1.2438e+01	4.9795	46.766180	0.000669	6.687527	2.265795	0.000268
 127	1.2537e+01	5.0068	47.077040	0.000780	7.802115	2.643428	0.000312
 128	1.2636e+01	5.0533	47.355602	0.000699	6.991505	2.368786	0.000280
 129	1.2736e+01	5.0806	47.638202	0.000709	7.092831	2.403116	0.000284
 130	1.2835e+01	5.1384	47.928875	0.000730	7.295484	2.471777	0.000292
 131	1.2935e+01	5.1656	48.243772	0.000790	7.903441	2.677758	0.000316
 132	1.3034e+01	5.2154	48.502149	0.000648	6.484874	2.197135	0.000260
 133	1.3134e+01	5.2523	48.788785	0.000719	7.194158	2.437447	0.000288
 134	1.3233e+01	5.2940	49.063311	0.000689	6.890179	2.334456	0.000276
 135	1.3333e+01	5.3405	49.349947	0.000719	7.194158	2.437447	0.000288
 136	1.3432e+01	5.3790	49.616398	0.000669	6.687527	2.265795	0.000268
 137	1.3532e+01	5.4111	49.898998	0.000709	7.092831	2.403116	0.000284
 138	1.3632e+01	5.4560	50.189671	0.000730	7.295484	2.471777	0.000292
 139	1.3731e+01	5.4913	50.464197	0.000689	6.890179	2.334456	0.000276
 140	1.3831e+01	5.5426	50.730648	0.000669	6.687527	2.265795	0.000268
 141	1.3930e+01	5.5699	51.049581	0.000800	8.004767	2.712088	0.000321
 142	1.4030e+01	5.6100	51.267587	0.000547	5.471613	1.853833	0.000219
 143	1.4129e+01	5.6517	51.558261	0.000730	7.295484	2.471777	0.000292
 144	1.4229e+01	5.6918	51.869120	0.000780	7.802115	2.643428	0.000312
 145	1.4328e+01	5.7287	52.115385	0.000618	6.180896	2.094144	0.000248
 146	1.4428e+01	5.7688	52.430282	0.000790	7.903441	2.677758	0.000316
 147	1.4527e+01	5.8218	52.680584	0.000628	6.282222	2.128474	0.000252
 148	1.4627e+01	5.8522	52.947035	0.000669	6.687527	2.265795	0.000268
 149	1.4726e+01	5.8972	53.233672	0.000719	7.194158	2.437447	0.000288
 150	1.4825e+01	5.9421	53.479937	0.000618	6.180896	2.094144	0.000248
 151	1.4925e+01	5.9726	53.762537	0.000709	7.092831	2.403116	0.000284
 152	1.5024e+01	6.0079	54.045136	0.000709	7.092831	2.403116	0.000284
 153	1.5124e+01	6.0496	54.319661	0.000689	6.890179	2.334456	0.000276
 154	1.5223e+01	6.0913	54.574001	0.000638	6.383548	2.162805	0.000256
 155	1.5323e+01	6.1201	54.852563	0.000699	6.991505	2.368786	0.000280
 156	1.5422e+01	6.1667	55.106903	0.000638	6.383548	2.162805	0.000256
 157	1.5522e+01	6.2084	55.369317	0.000659	6.586201	2.231465	0.000264
 158	1.5621e+01	6.2405	55.639805	0.000679	6.788853	2.300126	0.000272
 159	1.5721e+01	6.2950	55.914330	0.000689	6.890179	2.334456	0.000276
 160	1.5820e+01	6.3271	56.184818	0.000679	6.788853	2.300126	0.000272
 161	1.5920e+01	6.3688	56.443195	0.000648	6.484874	2.197135	0.000260
 162	1.6020e+01	6.4041	56.693497	0.000628	6.282222	2.128474	0.000252
 163	1.6119e+01	6.4474	56.963985	0.000679	6.788853	2.300126	0.000272
 164	1.6218e+01	6.4859	57.242548	0.000699	6.991505	2.368786	0.000280
 165	1.6318e+01	6.5324	57.500924	0.000648	6.484874	2.197135	0.000260
 166	1.6418e+01	6.5677	57.755264	0.000638	6.383548	2.162805	0.000256
 167	1.6517e+01	6.6078	58.009603	0.000638	6.383548	2.162805	0.000256
 168	1.6616e+01	6.6544	58.296240	0.000719	7.194158	2.437447	0.000288
 169	1.6716e+01	6.6913	58.546542	0.000628	6.282222	2.128474	0.000252
 170	1.6816e+01	6.7265	58.821068	0.000689	6.890179	2.334456	0.000276
 171	1.6915e+01	6.7667	59.035036	0.000537	5.370287	1.819502	0.000215
 172	1.7015e+01	6.8036	59.325710	0.000730	7.295484	2.471777	0.000292
 173	1.7114e+01	6.8501	59.596198	0.000679	6.788853	2.300126	0.000272
 174	1.7213e+01	6.8886	59.842463	0.000618	6.180896	2.094144	0.000248
 175	1.7313e+01	6.9303	60.121025	0.000699	6.991505	2.368786	0.000280
 176	1.7413e+01	6.9688	60.379402	0.000648	6.484874	2.197135	0.000260
 177	1.7512e+01	7.0105	60.641816	0.000659	6.586201	2.231465	0.000264
 178	1.7611e+01	7.0458	60.892118	0.000628	6.282222	2.128474	0.000252
 179	1.7711e+01	7.0875	61.150495	0.000648	6.484874	2.197135	0.000260
 180	1.7811e+01	7.1228	61.441169	0.000730	7.295484	2.471777	0.000292
 181	1.7910e+01	7.1645	61.647063	0.000517	5.167634	1.750842	0.000207
 182	1.8009e+01	7.2094	61.913514	0.000669	6.687527	2.265795	0.000268
 183	1.8109e+01	7.2319	62.151705	0.000598	5.978244	2.025484	0.000239
 184	1.8209e+01	7.2832	62.410081	0.000648	6.484874	2.197135	0.000260
 185	1.8308e+01	7.3169	62.688644	0.000699	6.991505	2.368786	0.000280
 186	1.8407e+01	7.3666	62.926835	0.000598	5.978244	2.025484	0.000239
 187	1.8507e+01	7.3955	63.169063	0.000608	6.079570	2.059814	0.000243
 188	1.8607e+01	7.4340	63.451662	0.000709	7.092831	2.403116	0.000284
 189	1.8706e+01	7.4805	63.697928	0.000618	6.180896	2.094144	0.000248
 190	1.8805e+01	7.5351	63.936119	0.000598	5.978244	2.025484	0.000239
 191	1.8905e+01	7.5640	64.194495	0.000648	6.484874	2.197135	0.000260
 192	1.9005e+01	7.6073	64.416538	0.000557	5.572939	1.888163	0.000223
 193	1.9104e+01	7.6490	64.654729	0.000598	5.978244	2.025484	0.000239
 194	1.9203e+01	7.6875	64.937328	0.000709	7.092831	2.403116	0.000284
 195	1.9303e+01	7.7340	65.199742	0.000659	6.586201	2.231465	0.000264
 196	1.9402e+01	7.7661	65.401599	0.000507	5.066308	1.716512	0.000203
 197	1.9502e+01	7.7966	65.664013	0.000659	6.586201	2.231465	0.000264
 198	1.9602e+01	7.8415	65.910278	0.000618	6.180896	2.094144	0.000248
 199	1.9701e+01	7.8896	66.152506	0.000608	6.079570	2.059814	0.000243
 200	1.9800e+01	7.9137	66.402809	0.000628	6.282222	2.128474	0.000252
 201	1.9900e+01	7.9586	66.665222	0.000659	6.586201	2.231465	0.000264
 202	2.0000e+01	8.0067	66.879191	0.000537	5.370287	1.819502	0.000215
 203	2.0099e+01	8.0484	67.133530	0.000638	6.383548	2.162805	0.000256
 204	2.0198e+01	8.0805	67.387870	0.000638	6.383548	2.162805	0.000256
 205	2.0298e+01	8.1190	67.638172	0.000628	6.282222	2.128474	0.000252
 206	2.0398e+01	8.1688	67.848103	0.000527	5.268960	1.785172	0.000211
 207	2.0497e+01	8.2024	68.114554	0.000669	6.687527	2.265795	0.000268
 208	2.0596e+01	8.2345	68.360819	0.000618	6.180896	2.094144	0.000248
 209	2.0696e+01	8.2746	68.578825	0.000547	5.471613	1.853833	0.000219
 210	2.0796e+01	8.3179	68.837201	0.000648	6.484874	2.197135	0.000260
 211	2.0895e+01	8.3613	69.091541	0.000638	6.383548	2.162805	0.000256
 212	2.0994e+01	8.3998	69.345881	0.000638	6.383548	2.162805	0.000256
 213	2.1094e+01	8.4367	69.543700	0.000496	4.964982	1.682181	0.000199
 214	2.1194e+01	8.4848	69.802077	0.000648	6.484874	2.197135	0.000260
 215	2.1293e+01	8.5233	70.016045	0.000537	5.370287	1.819502	0.000215
 216	2.1392e+01	8.5618	70.294607	0.000699	6.991505	2.368786	0.000280
 217	2.1492e+01	8.6035	70.548947	0.000638	6.383548	2.162805	0.000256
 218	2.1591e+01	8.6436	70.754841	0.000517	5.167634	1.750842	0.000207
 219	2.1691e+01	8.6789	70.976883	0.000557	5.572939	1.888163	0.000223
 220	2.1791e+01	8.7110	71.227186	0.000628	6.282222	2.128474	0.000252
 221	2.1890e+01	8.7559	71.437117	0.000527	5.268960	1.785172	0.000211
 222	2.1989e+01	8.8024	71.719716	0.000709	7.092831	2.403116	0.000284
 223	2.2089e+01	8.8506	71.949833	0.000578	5.775591	1.956823	0.000231
 224	2.2189e+01	8.8746	72.188024	0.000598	5.978244	2.025484	0.000239
 225	2.2288e+01	8.9195	72.410067	0.000557	5.572939	1.888163	0.000223
 226	2.2387e+01	8.9596	72.668443	0.000648	6.484874	2.197135	0.000260
 227	2.2487e+01	9.0014	72.874337	0.000517	5.167634	1.750842	0.000207
 228	2.2587e+01	9.0543	73.120602	0.000618	6.180896	2.094144	0.000248
 229	2.2686e+01	9.0800	73.391091	0.000679	6.788853	2.300126	0.000272
 230	2.2785e+01	9.1104	73.605059	0.000537	5.370287	1.819502	0.000215
 231	2.2885e+01	9.1602	73.819027	0.000537	5.370287	1.819502	0.000215
 232	2.2985e+01	9.1939	74.065292	0.000618	6.180896	2.094144	0.000248
 233	2.3084e+01	9.2468	74.351929	0.000719	7.194158	2.437447	0.000288
 234	2.3183e+01	9.2789	74.529563	0.000446	4.458351	1.510530	0.000179
 235	2.3283e+01	9.3126	74.743531	0.000537	5.370287	1.819502	0.000215
 236	2.3383e+01	9.3559	74.993833	0.000628	6.282222	2.128474	0.000252
 237	2.3482e+01	9.3928	75.244136	0.000628	6.282222	2.128474	0.000252
 238	2.3581e+01	9.4345	75.486364	0.000608	6.079570	2.059814	0.000243
 239	2.3681e+01	9.4810	75.684184	0.000496	4.964982	1.682181	0.000199
 240	2.3780e+01	9.5259	75.906226	0.000557	5.572939	1.888163	0.000223
 241	2.3880e+01	9.5580	76.176714	0.000679	6.788853	2.300126	0.000272
 242	2.3980e+01	9.6013	76.386645	0.000527	5.268960	1.785172	0.000211
 243	2.4079e+01	9.6414	76.636948	0.000628	6.282222	2.128474	0.000252
 244	2.4178e+01	9.6735	76.842842	0.000517	5.167634	1.750842	0.000207
 245	2.4278e+01	9.7152	77.060847	0.000547	5.471613	1.853833	0.000219
 246	2.4378e+01	9.7602	77.303075	0.000608	6.079570	2.059814	0.000243
 247	2.4477e+01	9.7970	77.541266	0.000598	5.978244	2.025484	0.000239
 248	2.4576e+01	9.8339	77.722937	0.000456	4.559677	1.544860	0.000183
 249	2.4676e+01	9.8789	77.965165	0.000608	6.079570	2.059814	0.000243
 250	2.4776e+01	9.9174	78.183171	0.000547	5.471613	1.853833	0.000219
 251	2.4875e+01	9.9623	78.429436	0.000618	6.180896	2.094144	0.000248
 252	2.4974e+01	9.9976	78.639367	0.000527	5.268960	1.785172	0.000211
 253	2.5074e+01	10.0216	78.901781	0.000659	6.586201	2.231465	0.000264
 254	2.5174e+01	10.0698	79.071341	0.000426	4.255699	1.441870	0.000170
 255	2.5273e+01	10.1163	79.313569	0.000608	6.079570	2.059814	0.000243
 256	2.5372e+01	10.1516	79.567908	0.000638	6.383548	2.162805	0.000256
 257	2.5472e+01	10.1901	79.765728	0.000496	4.964982	1.682181	0.000199
 258	2.5572e+01	10.2350	79.959510	0.000486	4.863656	1.647851	0.000195
 259	2.5671e+01	10.2623	80.181553	0.000557	5.572939	1.888163	0.000223
 260	2.5770e+01	10.3136	80.435892	0.000638	6.383548	2.162805	0.000256
 261	2.5870e+01	10.3505	80.653898	0.000547	5.471613	1.853833	0.000219
 262	2.5970e+01	10.3970	80.851717	0.000496	4.964982	1.682181	0.000199
 263	2.6069e+01	10.4355	81.097983	0.000618	6.180896	2.094144	0.000248
 264	2.6169e+01	10.4660	81.332137	0.000588	5.876917	1.991154	0.000235
 265	2.6268e+01	10.5125	81.562253	0.000578	5.775591	1.956823	0.000231
 266	2.6367e+01	10.5542	81.804481	0.000608	6.079570	2.059814	0.000243
 267	2.6467e+01	10.6056	82.018450	0.000537	5.370287	1.819502	0.000215
 268	2.6567e+01	10.6313	82.200121	0.000456	4.559677	1.544860	0.000183
 269	2.6666e+01	10.6714	82.474646	0.000689	6.890179	2.334456	0.000276
 270	2.6765e+01	10.7131	82.652280	0.000446	4.458351	1.510530	0.000179
 271	2.6865e+01	10.7676	82.878360	0.000567	5.674265	1.922493	0.000227
 272	2.6965e+01	10.7917	83.128662	0.000628	6.282222	2.128474	0.000252
 273	2.7064e+01	10.8334	83.338593	0.000527	5.268960	1.785172	0.000211
 274	2.7163e+01	10.8591	83.532376	0.000486	4.863656	1.647851	0.000195
 275	2.7263e+01	10.9184	83.730195	0.000496	4.964982	1.682181	0.000199
 276	2.7363e+01	10.9505	84.020869	0.000730	7.295484	2.471777	0.000292
 277	2.7462e+01	10.9842	84.218689	0.000496	4.964982	1.682181	0.000199
 278	2.7561e+01	11.0339	84.444768	0.000567	5.674265	1.922493	0.000227
 279	2.7661e+01	11.0660	84.674885	0.000578	5.775591	1.956823	0.000231
 280	2.7761e+01	11.1077	84.864630	0.000476	4.762330	1.613521	0.000191
 281	2.7860e+01	11.1478	85.094747	0.000578	5.775591	1.956823	0.000231
 282	2.7959e+01	11.1927	85.332938	0.000598	5.978244	2.025484	0.000239
 283	2.8059e+01	11.2280	85.534795	0.000507	5.066308	1.716512	0.000203
 284	2.8159e+01	11.2681	85.760874	0.000567	5.674265	1.922493	0.000227
 285	2.8258e+01	11.3098	85.974843	0.000537	5.370287	1.819502	0.000215
 286	2.8358e+01	11.3516	86.208997	0.000588	5.876917	1.991154	0.000235
 287	2.8457e+01	11.3884	86.402779	0.000486	4.863656	1.647851	0.000195
 288	2.8556e+01	11.4237	86.608673	0.000517	5.167634	1.750842	0.000207
 289	2.8656e+01	11.4622	86.826678	0.000547	5.471613	1.853833	0.000219
 290	2.8756e+01	11.5152	87.068906	0.000608	6.079570	2.059814	0.000243
 291	2.8855e+01	11.5457	87.274800	0.000517	5.167634	1.750842	0.000207
 292	2.8954e+01	11.5777	87.476657	0.000507	5.066308	1.716512	0.000203
 293	2.9054e+01	11.6339	87.706774	0.000578	5.775591	1.956823	0.000231
 294	2.9154e+01	11.6660	87.936891	0.000578	5.775591	1.956823	0.000231
 295	2.9253e+01	11.7157	88.126636	0.000476	4.762330	1.613521	0.000191
 296	2.9352e+01	11.7414	88.328493	0.000507	5.066308	1.716512	0.000203
 297	2.9452e+01	11.7895	88.594944	0.000669	6.687527	2.265795	0.000268
 298	2.9552e+01	11.8328	88.760466	0.000415	4.154373	1.407540	0.000166
 299	2.9651e+01	11.8633	88.994620	0.000588	5.876917	1.991154	0.000235
 300	2.9750e+01	11.9050	89.184366	0.000476	4.762330	1.613521	0.000191
 301	2.9850e+01	11.9563	89.402371	0.000547	5.471613	1.853833	0.000219
 302	2.9950e+01	11.9836	89.620376	0.000547	5.471613	1.853833	0.000219
 303	3.0049e+01	12.0317	89.838382	0.000547	5.471613	1.853833	0.000219
 304	3.0148e+01	12.0670	90.060424	0.000557	5.572939	1.888163	0.000223
 305	3.0248e+01	12.1023	90.306689	0.000618	6.180896	2.094144	0.000248
 306	3.0348e+01	12.1424	90.435878	0.000324	3.242437	1.098567	0.000130
 307	3.0447e+01	12.1922	90.730589	0.000740	7.396810	2.506107	0.000296
 308	3.0547e+01	12.2291	90.888037	0.000395	3.951720	1.338879	0.000158
 309	3.0646e+01	12.2628	91.110079	0.000557	5.572939	1.888163	0.000223
 310	3.0745e+01	12.3045	91.332122	0.000557	5.572939	1.888163	0.000223
 311	3.0845e+01	12.3478	91.529941	0.000496	4.964982	1.682181	0.000199
 312	3.0945e+01	12.3895	91.772170	0.000608	6.079570	2.059814	0.000243
 313	3.1044e+01	12.4152	92.002286	0.000578	5.775591	1.956823	0.000231
 314	3.1143e+01	12.4697	92.204143	0.000507	5.066308	1.716512	0.000203
 315	3.1243e+01	12.4986	92.418111	0.000537	5.370287	1.819502	0.000215
 316	3.1343e+01	12.5499	92.640154	0.000557	5.572939	1.888163	0.000223
 317	3.1442e+01	12.5868	92.789528	0.000375	3.749068	1.270219	0.000150
 318	3.1541e+01	12.6285	93.047904	0.000648	6.484874	2.197135	0.000260
 319	3.1641e+01	12.6606	93.241687	0.000486	4.863656	1.647851	0.000195
 320	3.1741e+01	12.7087	93.479878	0.000598	5.978244	2.025484	0.000239
 321	3.1840e+01	12.7488	93.681735	0.000507	5.066308	1.716512	0.000203
 322	3.1939e+01	12.7825	93.875517	0.000486	4.863656	1.647851	0.000195
 323	3.2039e+01	12.8194	94.065263	0.000476	4.762330	1.613521	0.000191
 324	3.2139e+01	12.8676	94.271157	0.000517	5.167634	1.750842	0.000207
 325	3.2238e+01	12.9044	94.513385	0.000608	6.079570	2.059814	0.000243
 326	3.2337e+01	12.9430	94.686982	0.000436	4.357025	1.476200	0.000174
 327	3.2437e+01	12.9782	94.900950	0.000537	5.370287	1.819502	0.000215
 328	3.2536e+01	13.0167	95.106844	0.000517	5.167634	1.750842	0.000207
 329	3.2636e+01	13.0617	95.316775	0.000527	5.268960	1.785172	0.000211
 330	3.2736e+01	13.1034	95.550929	0.000588	5.876917	1.991154	0.000235
 331	3.2835e+01	13.1419	95.785083	0.000588	5.876917	1.991154	0.000235
 332	3.2934e+01	13.1772	95.970791	0.000466	4.661003	1.579191	0.000187
 333	3.3034e+01	13.2173	96.204945	0.000588	5.876917	1.991154	0.000235
 334	3.3133e+01	13.2622	96.390653	0.000466	4.661003	1.579191	0.000187
 335	3.3233e+01	13.2943	96.556175	0.000415	4.154373	1.407540	0.000166
 336	3.3333e+01	13.3408	96.810515	0.000638	6.383548	2.162805	0.000256
 337	3.3432e+01	13.3857	97.060817	0.000628	6.282222	2.128474	0.000252
 338	3.3532e+01	13.4130	97.250563	0.000476	4.762330	1.613521	0.000191
 339	3.3631e+01	13.4595	97.444345	0.000486	4.863656	1.647851	0.000195
 340	3.3730e+01	13.4916	97.658314	0.000537	5.370287	1.819502	0.000215
 341	3.3830e+01	13.5317	97.868245	0.000527	5.268960	1.785172	0.000211
 342	3.3929e+01	13.5766	98.066064	0.000496	4.964982	1.682181	0.000199
 343	3.4029e+01	13.6183	98.288107	0.000557	5.572939	1.888163	0.000223
 344	3.4129e+01	13.6616	98.510149	0.000557	5.572939	1.888163	0.000223
 345	3.4228e+01	13.6889	98.720080	0.000527	5.268960	1.785172	0.000211
 346	3.4328e+01	13.7435	98.913863	0.000486	4.863656	1.647851	0.000195
 347	3.4427e+01	13.7772	99.139942	0.000567	5.674265	1.922493	0.000227
 348	3.4526e+01	13.8140	99.378133	0.000598	5.978244	2.025484	0.000239
 349	3.4626e+01	13.8622	99.563842	0.000466	4.661003	1.579191	0.000187
 350	3.4725e+01	13.8991	99.757624	0.000486	4.863656	1.647851	0.000195
 351	3.4825e+01	13.9344	99.955444	0.000496	4.964982	1.682181	0.000199
 352	3.4925e+01	13.9729	100.169412	0.000537	5.370287	1.819502	0.000215
 353	3.5024e+01	14.0178	100.379343	0.000527	5.268960	1.785172	0.000211
 354	3.5123e+01	14.0563	100.532754	0.000385	3.850394	1.304549	0.000154
 355	3.5223e+01	14.0916	100.827465	0.000740	7.396810	2.506107	0.000296
 356	3.5322e+01	14.1413	101.033359	0.000517	5.167634	1.750842	0.000207
 357	3.5422e+01	14.1830	101.243290	0.000527	5.268960	1.785172	0.000211
 358	3.5522e+01	14.2183	101.404775	0.000405	4.053047	1.373209	0.000162
 359	3.5621e+01	14.2536	101.655078	0.000628	6.282222	2.128474	0.000252
 360	3.5721e+01	14.2825	101.865009	0.000527	5.268960	1.785172	0.000211
 361	3.5820e+01	14.3418	102.038606	0.000436	4.357025	1.476200	0.000174
 362	3.5919e+01	14.3755	102.244500	0.000517	5.167634	1.750842	0.000207
 363	3.6019e+01	14.4140	102.450394	0.000517	5.167634	1.750842	0.000207
 364	3.6118e+01	14.4622	102.672436	0.000557	5.572939	1.888163	0.000223
 365	3.6218e+01	14.4958	102.862181	0.000476	4.762330	1.613521	0.000191
 366	3.6318e+01	14.5424	103.108447	0.000618	6.180896	2.094144	0.000248
 367	3.6417e+01	14.5777	103.314341	0.000517	5.167634	1.750842	0.000207
 368	3.6517e+01	14.6162	103.508123	0.000486	4.863656	1.647851	0.000195
 369	3.6616e+01	14.6515	103.746314	0.000598	5.978244	2.025484	0.000239
 370	3.6715e+01	14.7012	103.895688	0.000375	3.749068	1.270219	0.000150
 371	3.6815e+01	14.7317	104.154065	0.000648	6.484874	2.197135	0.000260
 372	3.6914e+01	14.7782	104.372070	0.000547	5.471613	1.853833	0.000219
 373	3.7014e+01	14.8167	104.577964	0.000517	5.167634	1.750842	0.000207
 374	3.7114e+01	14.8520	104.783858	0.000517	5.167634	1.750842	0.000207
 375	3.7213e+01	14.8969	104.965529	0.000456	4.559677	1.544860	0.000183
 376	3.7313e+01	14.9322	105.207757	0.000608	6.079570	2.059814	0.000243
 377	3.7412e+01	14.9691	105.413651	0.000517	5.167634	1.750842	0.000207
 378	3.7511e+01	15.0156	105.639731	0.000567	5.674265	1.922493	0.000227
 379	3.7611e+01	15.0509	105.837551	0.000496	4.964982	1.682181	0.000199
 380	3.7711e+01	15.0830	106.043444	0.000517	5.167634	1.750842	0.000207
 381	3.7810e+01	15.1343	106.249338	0.000517	5.167634	1.750842	0.000207
 382	3.7910e+01	15.1680	106.475418	0.000567	5.674265	1.922493	0.000227
 383	3.8009e+01	15.2065	106.713609	0.000598	5.978244	2.025484	0.000239
 384	3.8108e+01	15.2482	106.907391	0.000486	4.863656	1.647851	0.000195
 385	3.8208e+01	15.2915	107.113285	0.000517	5.167634	1.750842	0.000207
 386	3.8307e+01	15.3220	107.294957	0.000456	4.559677	1.544860	0.000183
 387	3.8407e+01	15.3734	107.533148	0.000598	5.978244	2.025484	0.000239
 388	3.8507e+01	15.4022	107.795561	0.000659	6.586201	2.231465	0.000264
 389	3.8606e+01	15.4552	107.965121	0.000426	4.255699	1.441870	0.000170
 390	3.8706e+01	15.4921	108.207349	0.000608	6.079570	2.059814	0.000243
 391	3.8805e+01	15.5354	108.409206	0.000507	5.066308	1.716512	0.000203
 392	3.8904e+01	15.5803	108.643360	0.000588	5.876917	1.991154	0.000235
 393	3.9004e+01	15.6188	108.841179	0.000496	4.964982	1.682181	0.000199
 394	3.9103e+01	15.6493	109.038999	0.000496	4.964982	1.682181	0.000199
 395	3.9203e+01	15.6990	109.277190	0.000598	5.978244	2.025484	0.000239
 396	3.9303e+01	15.7311	109.462898	0.000466	4.661003	1.579191	0.000187
 397	3.9402e+01	15.7776	109.693015	0.000578	5.775591	1.956823	0.000231
 398	3.9502e+01	15.8209	109.923132	0.000578	5.775591	1.956823	0.000231
 399	3.9601e+01	15.8594	110.129026	0.000517	5.167634	1.750842	0.000207
 400	3.9700e+01	15.8915	110.383365	0.000638	6.383548	2.162805	0.000256
 401	3.9800e+01	15.9332	110.577148	0.000486	4.863656	1.647851	0.000195
 402	3.9900e+01	15.9685	110.774968	0.000496	4.964982	1.682181	0.000199
 403	3.9999e+01	16.0118	111.045456	0.000679	6.788853	2.300126	0.000272
 404	4.0099e+01	16.0503	111.210978	0.000415	4.154373	1.407540	0.000166
 405	4.0198e+01	16.0889	111.445132	0.000588	5.876917	1.991154	0.000235
 406	4.0297e+01	16.1290	111.667175	0.000557	5.572939	1.888163	0.000223
 407	4.0397e+01	16.1626	111.913440	0.000618	6.180896	2.094144	0.000248
 408	4.0496e+01	16.2124	112.107222	0.000486	4.863656	1.647851	0.000195
 409	4.0596e+01	16.2396	112.349450	0.000608	6.079570	2.059814	0.000243
 410	4.0696e+01	16.2862	112.555344	0.000517	5.167634	1.750842	0.000207
 411	4.0795e+01	16.3263	112.793535	0.000598	5.978244	2.025484	0.000239
 412	4.0895e+01	16.3648	112.987318	0.000486	4.863656	1.647851	0.000195
 413	4.0994e+01	16.4081	113.209360	0.000557	5.572939	1.888163	0.000223
 414	4.1093e+01	16.4546	113.455626	0.000618	6.180896	2.094144	0.000248
 415	4.1193e+01	16.4851	113.665557	0.000527	5.268960	1.785172	0.000211
 416	4.1292e+01	16.5300	113.915859	0.000628	6.282222	2.128474	0.000252
 417	4.1392e+01	16.5685	114.105604	0.000476	4.762330	1.613521	0.000191
 418	4.1492e+01	16.6070	114.331684	0.000567	5.674265	1.922493	0.000227
 419	4.1591e+01	16.6551	114.581987	0.000628	6.282222	2.128474	0.000252
 420	4.1691e+01	16.6904	114.787880	0.000517	5.167634	1.750842	0.000207
 421	4.1790e+01	16.7354	114.993774	0.000517	5.167634	1.750842	0.000207
 422	4.1889e+01	16.7706	115.248114	0.000638	6.383548	2.162805	0.000256
 423	4.1989e+01	16.8059	115.502453	0.000638	6.383548	2.162805	0.000256
 424	4.2089e+01	16.8428	115.708347	0.000517	5.167634	1.750842	0.000207
 425	4.2188e+01	16.8862	115.865796	0.000395	3.951720	1.338879	0.000158
 426	4.2288e+01	16.9263	116.152432	0.000719	7.194158	2.437447	0.000288
 427	4.2387e+01	16.9567	116.370438	0.000547	5.471613	1.853833	0.000219
 428	4.2486e+01	17.0033	116.620740	0.000628	6.282222	2.128474	0.000252
 429	4.2586e+01	17.0434	116.826634	0.000517	5.167634	1.750842	0.000207
 430	4.2685e+01	17.0803	117.085011	0.000648	6.484874	2.197135	0.000260
 431	4.2785e+01	17.1284	117.274756	0.000476	4.762330	1.613521	0.000191
 432	4.2885e+01	17.1765	117.521021	0.000618	6.180896	2.094144	0.000248
 433	4.2984e+01	17.2070	117.739027	0.000547	5.471613	1.853833	0.000219
 434	4.3084e+01	17.2423	118.021626	0.000709	7.092831	2.403116	0.000284
 435	4.3183e+01	17.2856	118.251743	0.000578	5.775591	1.956823	0.000231
 436	4.3282e+01	17.3273	118.453600	0.000507	5.066308	1.716512	0.000203
 437	4.3382e+01	17.3482	118.671605	0.000547	5.471613	1.853833	0.000219
 438	4.3481e+01	17.4059	118.942093	0.000679	6.788853	2.300126	0.000272
 439	4.3581e+01	17.4412	119.160098	0.000547	5.471613	1.853833	0.000219
 440	4.3681e+01	17.4813	119.361955	0.000507	5.066308	1.716512	0.000203
 441	4.3780e+01	17.5311	119.648592	0.000719	7.194158	2.437447	0.000288
 442	4.3880e+01	17.5696	119.906969	0.000648	6.484874	2.197135	0.000260
 443	4.3979e+01	17.6049	120.124974	0.000547	5.471613	1.853833	0.000219
 444	4.4078e+01	17.6450	120.347016	0.000557	5.572939	1.888163	0.000223
 445	4.4178e+01	17.6786	120.609430	0.000659	6.586201	2.231465	0.000264
 446	4.4278e+01	17.7268	120.855695	0.000618	6.180896	2.094144	0.000248
 447	4.4377e+01	17.7749	121.101961	0.000618	6.180896	2.094144	0.000248
 448	4.4477e+01	17.7990	121.356300	0.000638	6.383548	2.162805	0.000256
 449	4.4576e+01	17.8455	121.590454	0.000588	5.876917	1.991154	0.000235
 450	4.4675e+01	17.8760	121.860942	0.000679	6.788853	2.300126	0.000272
 451	4.4775e+01	17.9257	122.050688	0.000476	4.762330	1.613521	0.000191
 452	4.4874e+01	17.9738	122.305027	0.000638	6.383548	2.162805	0.000256
 453	4.4974e+01	18.0011	122.579552	0.000689	6.890179	2.334456	0.000276
 454	4.5074e+01	18.0460	122.793521	0.000537	5.370287	1.819502	0.000215
 455	4.5173e+01	18.0797	123.035749	0.000608	6.079570	2.059814	0.000243
 456	4.5273e+01	18.1230	123.269903	0.000588	5.876917	1.991154	0.000235
 457	4.5372e+01	18.1647	123.544428	0.000689	6.890179	2.334456	0.000276
 458	4.5471e+01	18.2048	123.806842	0.000659	6.586201	2.231465	0.000264
 459	4.5571e+01	18.2385	124.061181	0.000638	6.383548	2.162805	0.000256
 460	4.5670e+01	18.2850	124.271112	0.000527	5.268960	1.785172	0.000211
 461	4.5770e+01	18.3139	124.557749	0.000719	7.194158	2.437447	0.000288
 462	4.5870e+01	18.3637	124.804014	0.000618	6.180896	2.094144	0.000248
 463	4.5969e+01	18.4102	125.017982	0.000537	5.370287	1.819502	0.000215
 464	4.6069e+01	18.4407	125.308656	0.000730	7.295484	2.471777	0.000292
 465	4.6168e+01	18.4792	125.546847	0.000598	5.978244	2.025484	0.000239
 466	4.6267e+01	18.5161	125.793112	0.000618	6.180896	2.094144	0.000248
 467	4.6367e+01	18.5610	126.051489	0.000648	6.484874	2.197135	0.000260
 468	4.6467e+01	18.5979	126.321977	0.000679	6.788853	2.300126	0.000272
 469	4.6566e+01	18.6444	126.588428	0.000669	6.687527	2.265795	0.000268
 470	4.6666e+01	18.6877	126.838731	0.000628	6.282222	2.128474	0.000252
 471	4.6765e+01	18.7262	127.080959	0.000608	6.079570	2.059814	0.000243
 472	4.6864e+01	18.7583	127.339335	0.000648	6.484874	2.197135	0.000260
 473	4.6964e+01	18.7984	127.577526	0.000598	5.978244	2.025484	0.000239
 474	4.7063e+01	18.8401	127.848015	0.000679	6.788853	2.300126	0.000272
 475	4.7163e+01	18.8802	128.110428	0.000659	6.586201	2.231465	0.000264
 476	4.7263e+01	18.9203	128.405139	0.000740	7.396810	2.506107	0.000296
 477	4.7362e+01	18.9540	128.627182	0.000557	5.572939	1.888163	0.000223
 478	4.7462e+01	18.9909	128.905744	0.000699	6.991505	2.368786	0.000280
 479	4.7561e+01	19.0390	129.196418	0.000730	7.295484	2.471777	0.000292
 480	4.7660e+01	19.0807	129.446720	0.000628	6.282222	2.128474	0.000252
 481	4.7760e+01	19.1144	129.672800	0.000567	5.674265	1.922493	0.000227
 482	4.7859e+01	19.1545	129.971548	0.000750	7.498136	2.540437	0.000300
 483	4.7959e+01	19.1930	130.225888	0.000638	6.383548	2.162805	0.000256
 484	4.8059e+01	19.2396	130.480227	0.000638	6.383548	2.162805	0.000256
 485	4.8158e+01	19.2652	130.754752	0.000689	6.890179	2.334456	0.000276
 486	4.8258e+01	19.3198	131.049463	0.000740	7.396810	2.506107	0.000296
 487	4.8357e+01	19.3631	131.303803	0.000638	6.383548	2.162805	0.000256
 488	4.8456e+01	19.4000	131.570254	0.000669	6.687527	2.265795	0.000268
 489	4.8556e+01	19.4385	131.832668	0.000659	6.586201	2.231465	0.000264
 490	4.8656e+01	19.4786	132.107193	0.000689	6.890179	2.334456	0.000276
 491	4.8755e+01	19.5203	132.365569	0.000648	6.484874	2.197135	0.000260
 492	4.8855e+01	19.5620	132.676429	0.000780	7.802115	2.643428	0.000312
 493	4.8954e+01	19.6021	132.959028	0.000709	7.092831	2.403116	0.000284
 494	4.9053e+01	19.6358	133.225479	0.000669	6.687527	2.265795	0.000268
 495	4.9153e+01	19.6743	133.504042	0.000699	6.991505	2.368786	0.000280
 496	4.9252e+01	19.7112	133.766456	0.000659	6.586201	2.231465	0.000264
 497	4.9352e+01	19.7674	134.093464	0.000821	8.207419	2.780749	0.000329
 498	4.9452e+01	19.7930	134.323580	0.000578	5.775591	1.956823	0.000231
 499	4.9551e+01	19.8347	134.626365	0.000760	7.599462	2.574767	0.000304
 500	4.9651e+01	19.8748	134.904928	0.000699	6.991505	2.368786	0.000280
 501	4.9750e+01	19.9085	135.195602	0.000730	7.295484	2.471777	0.000292
 502	4.9849e+01	19.9583	135.470127	0.000689	6.890179	2.334456	0.000276
 503	4.9949e+01	19.9968	135.756763	0.000719	7.194158	2.437447	0.000288
 504	5.0048e+01	19.9551	135.809246	-0.000132	-1.317240	-0.446293	0.000053
 505	5.0148e+01	19.9182	135.853655	-0.000111	-1.114588	-0.377633	0.000045
 506	5.0248e+01	19.8732	135.833469	0.000051	0.506631	0.171651	-0.000020
 507	5.0347e+01	19.8315	135.841543	-0.000020	-0.202652	-0.068660	0.000008
 508	5.0447e+01	19.7898	135.898063	-0.000142	-1.418566	-0.480623	0.000057
 509	5.0546e+01	19.7545	135.898063	-0.000000	-0.000000	-0.000000	0.000000
 510	5.0645e+01	19.7080	135.894026	0.000010	0.101326	0.034330	-0.000004
 511	5.0745e+01	19.6727	135.898063	-0.000010	-0.101326	-0.034330	0.000004
 512	5.0844e+01	19.6374	135.873840	0.000061	0.607957	0.205981	-0.000024
 513	5.0944e+01	19.5861	135.861729	0.000030	0.303978	0.102991	-0.000012
 514	5.1044e+01	19.5460	135.837506	0.000061	0.607957	0.205981	-0.000024
 515	5.1143e+01	19.5091	135.805209	0.000081	0.810609	0.274642	-0.000032
 516	5.1242e+01	19.4786	135.748689	0.000142	1.418566	0.480623	-0.000057
 517	5.1342e+01	19.4289	135.724466	0.000061	0.607957	0.205981	-0.000024
 518	5.1441e+01	19.4000	135.688132	0.000091	0.911935	0.308972	-0.000037
 519	5.1541e+01	19.3567	135.676021	0.000030	0.303978	0.102991	-0.000012
 520	5.1641e+01	19.3230	135.603352	0.000182	1.823871	0.617944	-0.000073
 521	5.1740e+01	19.2781	135.514535	0.000223	2.229176	0.755265	-0.000089
 522	5.1840e+01	19.2444	135.490313	0.000061	0.607957	0.205981	-0.000024
 523	5.1939e+01	19.1930	135.425718	0.000162	1.621219	0.549284	-0.000065
 524	5.2038e+01	19.1513	135.385347	0.000101	1.013262	0.343302	-0.000041
 525	5.2138e+01	19.1257	135.304604	0.000203	2.026523	0.686605	-0.000081
 526	5.2237e+01	19.0791	135.231936	0.000182	1.823871	0.617944	-0.000073
 527	5.2337e+01	19.0358	135.179453	0.000132	1.317240	0.446293	-0.000053
 528	5.2437e+01	18.9941	135.126970	0.000132	1.317240	0.446293	-0.000053
 529	5.2536e+01	18.9556	135.026042	0.000253	2.533154	0.858256	-0.000101
 530	5.2636e+01	18.9171	134.965485	0.000152	1.519892	0.514953	-0.000061
 531	5.2735e+01	18.8850	134.860519	0.000263	2.634480	0.892586	-0.000105
 532	5.2834e+01	18.8401	134.820148	0.000101	1.013262	0.343302	-0.000041
 533	5.2934e+01	18.7952	134.731331	0.000223	2.229176	0.755265	-0.000089
 534	5.3033e+01	18.7663	134.666737	0.000162	1.621219	0.549284	-0.000065
 535	5.3133e+01	18.7294	134.581957	0.000213	2.127849	0.720935	-0.000085
 536	5.3233e+01	18.6861	134.521400	0.000152	1.519892	0.514953	-0.000061
 537	5.3332e+01	18.6412	134.384137	0.000345	3.445090	1.167228	-0.000138
 538	5.3431e+01	18.6123	134.283209	0.000253	2.533154	0.858256	-0.000101
 539	5.3531e+01	18.5578	134.226689	0.000142	1.418566	0.480623	-0.000057
 540	5.3630e+01	18.5321	134.141909	0.000213	2.127849	0.720935	-0.000085
 541	5.3730e+01	18.4776	134.093464	0.000122	1.215914	0.411963	-0.000049
 542	5.3830e+01	18.4358	133.944090	0.000375	3.749068	1.270219	-0.000150
 543	5.3929e+01	18.4022	133.847198	0.000243	2.431828	0.823926	-0.000097
 544	5.4029e+01	18.3637	133.770493	0.000193	1.925197	0.652274	-0.000077
 545	5.4128e+01	18.3107	133.685713	0.000213	2.127849	0.720935	-0.000085
 546	5.4227e+01	18.2722	133.568636	0.000294	2.938459	0.995577	-0.000118
 547	5.4327e+01	18.2401	133.479819	0.000223	2.229176	0.755265	-0.000089
 548	5.4426e+01	18.2016	133.366779	0.000284	2.837133	0.961247	-0.000114
 549	5.4526e+01	18.1711	133.273925	0.000233	2.330502	0.789595	-0.000093
 550	5.4626e+01	18.1134	133.185108	0.000223	2.229176	0.755265	-0.000089
 551	5.4725e+01	18.0813	133.092254	0.000233	2.330502	0.789595	-0.000093
 552	5.4825e+01	18.0412	132.983251	0.000274	2.735806	0.926916	-0.000110
 553	5.4924e+01	17.9963	132.841951	0.000355	3.546416	1.201558	-0.000142
 554	5.5023e+01	17.9610	132.765246	0.000193	1.925197	0.652274	-0.000077
 555	5.5123e+01	17.9257	132.668355	0.000243	2.431828	0.823926	-0.000097
 556	5.5222e+01	17.8840	132.531092	0.000345	3.445090	1.167228	-0.000138
 557	5.5322e+01	17.8423	132.426126	0.000263	2.634480	0.892586	-0.000105
 558	5.5422e+01	17.8118	132.313087	0.000284	2.837133	0.961247	-0.000114
 559	5.5521e+01	17.7540	132.200047	0.000284	2.837133	0.961247	-0.000114
 560	5.5620e+01	17.7220	132.099118	0.000253	2.533154	0.858256	-0.000101
 561	5.5720e+01	17.6883	132.014339	0.000213	2.127849	0.720935	-0.000085
 562	5.5819e+01	17.6401	131.860927	0.000385	3.850394	1.304549	-0.000154
 563	5.5919e+01	17.6000	131.739813	0.000304	3.039785	1.029907	-0.000122
 564	5.6019e+01	17.5680	131.646959	0.000233	2.330502	0.789595	-0.000093
 565	5.6118e+01	17.5246	131.537957	0.000274	2.735806	0.926916	-0.000110
 566	5.6218e+01	17.4797	131.432991	0.000263	2.634480	0.892586	-0.000105
 567	5.6317e+01	17.4476	131.315914	0.000294	2.938459	0.995577	-0.000118
 568	5.6416e+01	17.3995	131.202874	0.000284	2.837133	0.961247	-0.000114
 569	5.6516e+01	17.3674	131.081760	0.000304	3.039785	1.029907	-0.000122
 570	5.6615e+01	17.3241	130.960646	0.000304	3.039785	1.029907	-0.000122
 571	5.6715e+01	17.2872	130.851644	0.000274	2.735806	0.926916	-0.000110
 572	5.6815e+01	17.2487	130.698232	0.000385	3.850394	1.304549	-0.000154
 573	5.6914e+01	17.2022	130.617490	0.000203	2.026523	0.686605	-0.000081
 574	5.7014e+01	17.1653	130.472153	0.000365	3.647742	1.235888	-0.000146
 575	5.7113e+01	17.1156	130.338927	0.000334	3.343763	1.132898	-0.000134
 576	5.7212e+01	17.0883	130.246073	0.000233	2.330502	0.789595	-0.000093
 577	5.7312e+01	17.0402	130.141108	0.000263	2.634480	0.892586	-0.000105
 578	5.7411e+01	17.0081	129.983659	0.000395	3.951720	1.338879	-0.000158
 579	5.7511e+01	16.9632	129.882731	0.000253	2.533154	0.858256	-0.000101
 580	5.7611e+01	16.9279	129.761617	0.000304	3.039785	1.029907	-0.000122
 581	5.7710e+01	16.8894	129.612243	0.000375	3.749068	1.270219	-0.000150
 582	5.7809e+01	16.8444	129.466906	0.000365	3.647742	1.235888	-0.000146
 583	5.7909e+01	16.8043	129.378089	0.000223	2.229176	0.755265	-0.000089
 584	5.8008e+01	16.7706	129.216604	0.000405	4.053047	1.373209	-0.000162
 585	5.8108e+01	16.7241	129.095489	0.000304	3.039785	1.029907	-0.000122
 586	5.8208e+01	16.6936	128.990524	0.000263	2.634480	0.892586	-0.000105
 587	5.8307e+01	16.6439	128.869410	0.000304	3.039785	1.029907	-0.000122
 588	5.8407e+01	16.6038	128.744259	0.000314	3.141111	1.064237	-0.000126
 589	5.8506e+01	16.5685	128.623145	0.000304	3.039785	1.029907	-0.000122
 590	5.8605e+01	16.5348	128.461659	0.000405	4.053047	1.373209	-0.000162
 591	5.8705e+01	16.4899	128.308248	0.000385	3.850394	1.304549	-0.000154
 592	5.8804e+01	16.4466	128.215394	0.000233	2.330502	0.789595	-0.000093
 593	5.8904e+01	16.4081	128.037760	0.000446	4.458351	1.510530	-0.000179
 594	5.9004e+01	16.3648	127.948943	0.000223	2.229176	0.755265	-0.000089
 595	5.9103e+01	16.3231	127.783420	0.000415	4.154373	1.407540	-0.000166
 596	5.9203e+01	16.2894	127.670381	0.000284	2.837133	0.961247	-0.000114
 597	5.9302e+01	16.2541	127.521007	0.000375	3.749068	1.270219	-0.000150
 598	5.9401e+01	16.2044	127.395855	0.000314	3.141111	1.064237	-0.000126
 599	5.9501e+01	16.1675	127.303001	0.000233	2.330502	0.789595	-0.000093
 600	5.9600e+01	16.1386	127.137479	0.000415	4.154373	1.407540	-0.000166
 601	5.9700e+01	16.0840	127.016365	0.000304	3.039785	1.029907	-0.000122
 602	5.9800e+01	16.0439	126.866991	0.000375	3.749068	1.270219	-0.000150
 603	5.9899e+01	16.0102	126.741839	0.000314	3.141111	1.064237	-0.000126
 604	5.9998e+01	15.9669	126.616688	0.000314	3.141111	1.064237	-0.000126
 605	6.0098e+01	15.9316	126.475388	0.000355	3.546416	1.201558	-0.000142
 606	6.0197e+01	15.8883	126.366386	0.000274	2.735806	0.926916	-0.000110
 607	6.0297e+01	15.8482	126.196826	0.000426	4.255699	1.441870	-0.000170
 608	6.0397e+01	15.8129	126.087823	0.000274	2.735806	0.926916	-0.000110
 609	6.0496e+01	15.7664	125.938449	0.000375	3.749068	1.270219	-0.000150
 610	6.0596e+01	15.7295	125.817335	0.000304	3.039785	1.029907	-0.000122
 611	6.0695e+01	15.6958	125.676036	0.000355	3.546416	1.201558	-0.000142
 612	6.0794e+01	15.6557	125.538773	0.000345	3.445090	1.167228	-0.000138
 613	6.0894e+01	15.6140	125.405547	0.000334	3.343763	1.132898	-0.000134
 614	6.0993e+01	15.5803	125.252136	0.000385	3.850394	1.304549	-0.000154
 615	6.1093e+01	15.5322	125.122948	0.000324	3.242437	1.098567	-0.000130
 616	6.1193e+01	15.4937	124.985685	0.000345	3.445090	1.167228	-0.000138
 617	6.1292e+01	15.4552	124.872646	0.000284	2.837133	0.961247	-0.000114
 618	6.1392e+01	15.4103	124.731346	0.000355	3.546416	1.201558	-0.000142
 619	6.1491e+01	15.3718	124.598120	0.000334	3.343763	1.132898	-0.000134
 620	6.1590e+01	15.3333	124.424523	0.000436	4.357025	1.476200	-0.000174
 621	6.1690e+01	15.2964	124.319558	0.000263	2.634480	0.892586	-0.000105
 622	6.1789e+01	15.2498	124.154035	0.000415	4.154373	1.407540	-0.000166
 623	6.1889e+01	15.2113	124.028884	0.000314	3.141111	1.064237	-0.000126
 624	6.1989e+01	15.1664	123.895659	0.000334	3.343763	1.132898	-0.000134
 625	6.2088e+01	15.1327	123.722062	0.000436	4.357025	1.476200	-0.000174
 626	6.2188e+01	15.0830	123.592873	0.000324	3.242437	1.098567	-0.000130
 627	6.2287e+01	15.0605	123.471759	0.000304	3.039785	1.029907	-0.000122
 628	6.2386e+01	15.0156	123.269903	0.000507	5.066308	1.716512	-0.000203
 629	6.2486e+01	14.9675	123.152826	0.000294	2.938459	0.995577	-0.000118
 630	6.2586e+01	14.9290	122.999415	0.000385	3.850394	1.304549	-0.000154
 631	6.2685e+01	14.9001	122.882338	0.000294	2.938459	0.995577	-0.000118
 632	6.2785e+01	14.8616	122.757186	0.000314	3.141111	1.064237	-0.000126
 633	6.2884e+01	14.8167	122.583590	0.000436	4.357025	1.476200	-0.000174
 634	6.2983e+01	14.7750	122.422104	0.000405	4.053047	1.373209	-0.000162
 635	6.3083e+01	14.7349	122.296953	0.000314	3.141111	1.064237	-0.000126
 636	6.3182e+01	14.6964	122.155653	0.000355	3.546416	1.201558	-0.000142
 637	6.3282e+01	14.6499	122.026465	0.000324	3.242437	1.098567	-0.000130
 638	6.3382e+01	14.6130	121.873054	0.000385	3.850394	1.304549	-0.000154
 639	6.3481e+01	14.5712	121.727717	0.000365	3.647742	1.235888	-0.000146
 640	6.3581e+01	14.5343	121.598528	0.000324	3.242437	1.098567	-0.000130
 641	6.3680e+01	14.4958	121.449154	0.000375	3.749068	1.270219	-0.000150
 642	6.3779e+01	14.4573	121.307855	0.000355	3.546416	1.201558	-0.000142
 643	6.3879e+01	14.4108	121.150406	0.000395	3.951720	1.338879	-0.000158
 644	6.3978e+01	14.3836	120.992958	0.000395	3.951720	1.338879	-0.000158
 645	6.4078e+01	14.3450	120.835510	0.000395	3.951720	1.338879	-0.000158
 646	6.4177e+01	14.2985	120.694210	0.000355	3.546416	1.201558	-0.000142
 647	6.4277e+01	14.2472	120.508502	0.000466	4.661003	1.579191	-0.000187
 648	6.4376e+01	14.2135	120.419685	0.000223	2.229176	0.755265	-0.000089
 649	6.4476e+01	14.1734	120.246088	0.000436	4.357025	1.476200	-0.000174
 650	6.4576e+01	14.1317	120.080565	0.000415	4.154373	1.407540	-0.000166
 651	6.4675e+01	14.1060	119.919080	0.000405	4.053047	1.373209	-0.000162
 652	6.4775e+01	14.0627	119.814114	0.000263	2.634480	0.892586	-0.000105
 653	6.4874e+01	14.0258	119.636480	0.000446	4.458351	1.510530	-0.000179
 654	6.4974e+01	13.9777	119.511329	0.000314	3.141111	1.064237	-0.000126
 655	6.5073e+01	13.9440	119.333695	0.000446	4.458351	1.510530	-0.000179
 656	6.5172e+01	13.8991	119.172210	0.000405	4.053047	1.373209	-0.000162
 657	6.5272e+01	13.8590	119.038984	0.000334	3.343763	1.132898	-0.000134
 658	6.5371e+01	13.8108	118.845202	0.000486	4.863656	1.647851	-0.000195
 659	6.5471e+01	13.7739	118.732162	0.000284	2.837133	0.961247	-0.000114
 660	6.5570e+01	13.7531	118.566639	0.000415	4.154373	1.407540	-0.000166
 661	6.5670e+01	13.6937	118.421303	0.000365	3.647742	1.235888	-0.000146
 662	6.5769e+01	13.6649	118.263854	0.000395	3.951720	1.338879	-0.000158
 663	6.5869e+01	13.6183	118.098332	0.000415	4.154373	1.407540	-0.000166
 664	6.5969e+01	13.5814	117.973181	0.000314	3.141111	1.064237	-0.000126
 665	6.6068e+01	13.5317	117.763249	0.000527	5.268960	1.785172	-0.000211
 666	6.6168e+01	13.5076	117.646173	0.000294	2.938459	0.995577	-0.000118
 667	6.6267e+01	13.4611	117.500836	0.000365	3.647742	1.235888	-0.000146
 668	6.6367e+01	13.4178	117.339350	0.000405	4.053047	1.373209	-0.000162
 669	6.6466e+01	13.3841	117.194013	0.000365	3.647742	1.235888	-0.000146
 670	6.6566e+01	13.3472	117.052714	0.000355	3.546416	1.201558	-0.000142
 671	6.6665e+01	13.2895	116.854894	0.000496	4.964982	1.682181	-0.000199
 672	6.6764e+01	13.2542	116.717631	0.000345	3.445090	1.167228	-0.000138
 673	6.6864e+01	13.2221	116.564220	0.000385	3.850394	1.304549	-0.000154
 674	6.6963e+01	13.1836	116.410809	0.000385	3.850394	1.304549	-0.000154
 675	6.7063e+01	13.1387	116.269509	0.000355	3.546416	1.201558	-0.000142
 676	6.7162e+01	13.1018	116.099950	0.000426	4.255699	1.441870	-0.000170
 677	6.7262e+01	13.0665	115.962687	0.000345	3.445090	1.167228	-0.000138
 678	6.7362e+01	13.0135	115.776979	0.000466	4.661003	1.579191	-0.000187
 679	6.7461e+01	12.9766	115.643753	0.000334	3.343763	1.132898	-0.000134
 680	6.7561e+01	12.9430	115.494379	0.000375	3.749068	1.270219	-0.000150
 681	6.7660e+01	12.8964	115.304634	0.000476	4.762330	1.613521	-0.000191
 682	6.7760e+01	12.8692	115.183520	0.000304	3.039785	1.029907	-0.000122
 683	6.7859e+01	12.8323	114.997811	0.000466	4.661003	1.579191	-0.000187
 684	6.7959e+01	12.7889	114.836326	0.000405	4.053047	1.373209	-0.000162
 685	6.8058e+01	12.7376	114.682915	0.000385	3.850394	1.304549	-0.000154
 686	6.8157e+01	12.7087	114.493170	0.000476	4.762330	1.613521	-0.000191
 687	6.8257e+01	12.6622	114.380130	0.000284	2.837133	0.961247	-0.000114
 688	6.8356e+01	12.6237	114.182310	0.000496	4.964982	1.682181	-0.000199
 689	6.8456e+01	12.5804	114.049085	0.000334	3.343763	1.132898	-0.000134
 690	6.8555e+01	12.5403	113.831079	0.000547	5.471613	1.853833	-0.000219
 691	6.8655e+01	12.5082	113.689780	0.000355	3.546416	1.201558	-0.000142
 692	6.8754e+01	12.4649	113.532331	0.000395	3.951720	1.338879	-0.000158
 693	6.8854e+01	12.4200	113.362772	0.000426	4.255699	1.441870	-0.000170
 694	6.8954e+01	12.3879	113.209360	0.000385	3.850394	1.304549	-0.000154
 695	6.9053e+01	12.3462	113.055949	0.000385	3.850394	1.304549	-0.000154
 696	6.9153e+01	12.2980	112.841981	0.000537	5.370287	1.819502	-0.000215
 697	6.9252e+01	12.2660	112.716830	0.000314	3.141111	1.064237	-0.000126
 698	6.9352e+01	12.2259	112.510936	0.000517	5.167634	1.750842	-0.000207
 699	6.9451e+01	12.1841	112.393859	0.000294	2.938459	0.995577	-0.000118
 700	6.9550e+01	12.1424	112.208151	0.000466	4.661003	1.579191	-0.000187
 701	6.9650e+01	12.1120	112.022442	0.000466	4.661003	1.579191	-0.000187
 702	6.9749e+01	12.0622	111.869031	0.000385	3.850394	1.304549	-0.000154
 703	6.9849e+01	12.0269	111.687360	0.000456	4.559677	1.544860	-0.000183
 704	6.9948e+01	11.9820	111.554135	0.000334	3.343763	1.132898	-0.000134
 705	7.0048e+01	11.9483	111.364389	0.000476	4.762330	1.613521	-0.000191
 706	7.0147e+01	11.9146	111.178681	0.000466	4.661003	1.579191	-0.000187
 707	7.0247e+01	11.8681	111.033344	0.000365	3.647742	1.235888	-0.000146
 708	7.0347e+01	11.8248	110.855710	0.000446	4.458351	1.510530	-0.000179
 709	7.0446e+01	11.7895	110.674039	0.000456	4.559677	1.544860	-0.000183
 710	7.0546e+01	11.7446	110.484294	0.000476	4.762330	1.613521	-0.000191
 711	7.0645e+01	11.7061	110.342994	0.000355	3.546416	1.201558	-0.000142
 712	7.0745e+01	11.6724	110.173434	0.000426	4.255699	1.441870	-0.000170
 713	7.0844e+01	11.6323	110.003875	0.000426	4.255699	1.441870	-0.000170
 714	7.0944e+01	11.5826	109.806055	0.000496	4.964982	1.682181	-0.000199
 715	7.1043e+01	11.5569	109.688978	0.000294	2.938459	0.995577	-0.000118
 716	7.1142e+01	11.5104	109.483084	0.000517	5.167634	1.750842	-0.000207
 717	7.1242e+01	11.4703	109.337747	0.000365	3.647742	1.235888	-0.000146
 718	7.1341e+01	11.4366	109.156076	0.000456	4.559677	1.544860	-0.000183
 719	7.1441e+01	11.3884	108.962294	0.000486	4.863656	1.647851	-0.000195
 720	7.1540e+01	11.3532	108.812920	0.000375	3.749068	1.270219	-0.000150
 721	7.1640e+01	11.3114	108.619137	0.000486	4.863656	1.647851	-0.000195
 722	7.1740e+01	11.2729	108.485912	0.000334	3.343763	1.132898	-0.000134
 723	7.1839e+01	11.2312	108.296166	0.000476	4.762330	1.613521	-0.000191
 724	7.1939e+01	11.1975	108.138718	0.000395	3.951720	1.338879	-0.000158
 725	7.2038e+01	11.1510	107.953010	0.000466	4.661003	1.579191	-0.000187
 726	7.2138e+01	11.1205	107.771339	0.000456	4.559677	1.544860	-0.000183
 727	7.2237e+01	11.0724	107.593705	0.000446	4.458351	1.510530	-0.000179
 728	7.2337e+01	11.0339	107.395885	0.000496	4.964982	1.682181	-0.000199
 729	7.2436e+01	10.9922	107.234399	0.000405	4.053047	1.373209	-0.000162
 730	7.2535e+01	10.9473	107.072914	0.000405	4.053047	1.373209	-0.000162
 731	7.2635e+01	10.9088	106.891243	0.000456	4.559677	1.544860	-0.000183
 732	7.2734e+01	10.8623	106.673238	0.000547	5.471613	1.853833	-0.000219
 733	7.2834e+01	10.8350	106.552124	0.000304	3.039785	1.029907	-0.000122
 734	7.2933e+01	10.7933	106.362378	0.000476	4.762330	1.613521	-0.000191
 735	7.3033e+01	10.7580	106.176670	0.000466	4.661003	1.579191	-0.000187
 736	7.3132e+01	10.7099	106.035370	0.000355	3.546416	1.201558	-0.000142
 737	7.3232e+01	10.6762	105.809291	0.000567	5.674265	1.922493	-0.000227
 738	7.3332e+01	10.6345	105.655879	0.000385	3.850394	1.304549	-0.000154
 739	7.3431e+01	10.5863	105.429800	0.000567	5.674265	1.922493	-0.000227
 740	7.3531e+01	10.5607	105.284463	0.000365	3.647742	1.235888	-0.000146
 741	7.3630e+01	10.5109	105.127015	0.000395	3.951720	1.338879	-0.000158
 742	7.3730e+01	10.4756	104.953418	0.000436	4.357025	1.476200	-0.000174
 743	7.3829e+01	10.4323	104.743487	0.000527	5.268960	1.785172	-0.000211
 744	7.3928e+01	10.3874	104.565853	0.000446	4.458351	1.510530	-0.000179
 745	7.4028e+01	10.3553	104.388219	0.000446	4.458351	1.510530	-0.000179
 746	7.4127e+01	10.3152	104.234808	0.000385	3.850394	1.304549	-0.000154
 747	7.4227e+01	10.2735	104.041025	0.000486	4.863656	1.647851	-0.000195
 748	7.4326e+01	10.2270	103.823020	0.000547	5.471613	1.853833	-0.000219
 749	7.4426e+01	10.1933	103.689794	0.000334	3.343763	1.132898	-0.000134
 750	7.4525e+01	10.1500	103.475826	0.000537	5.370287	1.819502	-0.000215
 751	7.4625e+01	10.1195	103.326452	0.000375	3.749068	1.270219	-0.000150
 752	7.4725e+01	10.0730	103.128632	0.000496	4.964982	1.682181	-0.000199
 753	7.4824e+01	10.0361	102.898516	0.000578	5.775591	1.956823	-0.000231
 754	7.4924e+01	9.9880	102.720882	0.000446	4.458351	1.510530	-0.000179
 755	7.5023e+01	9.9607	102.571508	0.000375	3.749068	1.270219	-0.000150
 756	7.5123e+01	9.9126	102.389837	0.000456	4.559677	1.544860	-0.000183
 757	7.5222e+01	9.8757	102.196054	0.000486	4.863656	1.647851	-0.000195
 758	7.5322e+01	9.8356	102.006309	0.000476	4.762330	1.613521	-0.000191
 759	7.5421e+01	9.7970	101.856935	0.000375	3.749068	1.270219	-0.000150
 760	7.5520e+01	9.7569	101.642966	0.000537	5.370287	1.819502	-0.000215
 761	7.5620e+01	9.7168	101.477444	0.000415	4.154373	1.407540	-0.000166
 762	7.5719e+01	9.6751	101.271550	0.000517	5.167634	1.750842	-0.000207
 763	7.5819e+01	9.6382	101.073730	0.000496	4.964982	1.682181	-0.000199
 764	7.5918e+01	9.5917	100.896096	0.000446	4.458351	1.510530	-0.000179
 765	7.6018e+01	9.5612	100.698277	0.000496	4.964982	1.682181	-0.000199
 766	7.6118e+01	9.5195	100.516606	0.000456	4.559677	1.544860	-0.000183
 767	7.6217e+01	9.4762	100.338972	0.000446	4.458351	1.510530	-0.000179
 768	7.6317e+01	9.4457	100.161338	0.000446	4.458351	1.510530	-0.000179
 769	7.6416e+01	9.3960	99.963518	0.000496	4.964982	1.682181	-0.000199
 770	7.6516e+01	9.3671	99.753587	0.000527	5.268960	1.785172	-0.000211
 771	7.6615e+01	9.3222	99.612287	0.000355	3.546416	1.201558	-0.000142
 772	7.6715e+01	9.2821	99.390245	0.000557	5.572939	1.888163	-0.000223
 773	7.6814e+01	9.2340	99.224722	0.000415	4.154373	1.407540	-0.000166
 774	7.6913e+01	9.1923	99.034977	0.000476	4.762330	1.613521	-0.000191
 775	7.7013e+01	9.1602	98.829083	0.000517	5.167634	1.750842	-0.000207
 776	7.7112e+01	9.1136	98.635300	0.000486	4.863656	1.647851	-0.000195
 777	7.7212e+01	9.0767	98.457666	0.000446	4.458351	1.510530	-0.000179
 778	7.7311e+01	9.0431	98.231587	0.000567	5.674265	1.922493	-0.000227
 779	7.7411e+01	8.9997	98.098361	0.000334	3.343763	1.132898	-0.000134
 780	7.7510e+01	8.9596	97.900542	0.000496	4.964982	1.682181	-0.000199
 781	7.7610e+01	8.9211	97.706759	0.000486	4.863656	1.647851	-0.000195
 782	7.7710e+01	8.8794	97.512977	0.000486	4.863656	1.647851	-0.000195
 783	7.7809e+01	8.8345	97.331306	0.000456	4.559677	1.544860	-0.000183
 784	7.7909e+01	8.8008	97.149634	0.000456	4.559677	1.544860	-0.000183
 785	7.8008e+01	8.7559	96.927592	0.000557	5.572939	1.888163	-0.000223
 786	7.8108e+01	8.7238	96.749958	0.000446	4.458351	1.510530	-0.000179
 787	7.8207e+01	8.6869	96.544064	0.000517	5.167634	1.750842	-0.000207
 788	7.8306e+01	8.6452	96.346244	0.000496	4.964982	1.682181	-0.000199
 789	7.8406e+01	8.5939	96.156499	0.000476	4.762330	1.613521	-0.000191
 790	7.8505e+01	8.5554	95.934457	0.000557	5.572939	1.888163	-0.000223
 791	7.8605e+01	8.5137	95.760860	0.000436	4.357025	1.476200	-0.000174
 792	7.8704e+01	8.4864	95.567077	0.000486	4.863656	1.647851	-0.000195
 793	7.8804e+01	8.4415	95.369258	0.000496	4.964982	1.682181	-0.000199
 794	7.8903e+01	8.3998	95.167401	0.000507	5.066308	1.716512	-0.000203
 795	7.9003e+01	8.3564	94.993804	0.000436	4.357025	1.476200	-0.000174
 796	7.9103e+01	8.3244	94.779836	0.000537	5.370287	1.819502	-0.000215
 797	7.9202e+01	8.2875	94.618350	0.000405	4.053047	1.373209	-0.000162
 798	7.9302e+01	8.2329	94.380159	0.000598	5.978244	2.025484	-0.000239
 799	7.9401e+01	8.1960	94.234822	0.000365	3.647742	1.235888	-0.000146
 800	7.9501e+01	8.1591	93.976446	0.000648	6.484874	2.197135	-0.000260
 801	7.9600e+01	8.1254	93.782663	0.000486	4.863656	1.647851	-0.000195
 802	7.9700e+01	8.0918	93.580806	0.000507	5.066308	1.716512	-0.000203
 803	7.9799e+01	8.0420	93.443544	0.000345	3.445090	1.167228	-0.000138
 804	7.9898e+01	7.9987	93.205353	0.000598	5.978244	2.025484	-0.000239
 805	7.9998e+01	7.9666	92.987347	0.000547	5.471613	1.853833	-0.000219
 806	8.0097e+01	7.9201	92.805676	0.000456	4.559677	1.544860	-0.000183
 807	8.0197e+01	7.8832	92.575560	0.000578	5.775591	1.956823	-0.000231
 808	8.0296e+01	7.8431	92.377740	0.000496	4.964982	1.682181	-0.000199
 809	8.0396e+01	7.7998	92.216255	0.000405	4.053047	1.373209	-0.000162
 810	8.0496e+01	7.7549	92.018435	0.000496	4.964982	1.682181	-0.000199
 811	8.0595e+01	7.7212	91.800430	0.000547	5.471613	1.853833	-0.000219
 812	8.0695e+01	7.6779	91.598573	0.000507	5.066308	1.716512	-0.000203
 813	8.0794e+01	7.6506	91.392679	0.000517	5.167634	1.750842	-0.000207
 814	8.0894e+01	7.6073	91.194859	0.000496	4.964982	1.682181	-0.000199
 815	8.0993e+01	7.5575	90.984928	0.000527	5.268960	1.785172	-0.000211
 816	8.1093e+01	7.5190	90.787108	0.000496	4.964982	1.682181	-0.000199
 817	8.1192e+01	7.4870	90.593326	0.000486	4.863656	1.647851	-0.000195
 818	8.1291e+01	7.4501	90.363209	0.000578	5.775591	1.956823	-0.000231
 819	8.1391e+01	7.4132	90.137130	0.000567	5.674265	1.922493	-0.000227
 820	8.1490e+01	7.3602	89.975644	0.000405	4.053047	1.373209	-0.000162
 821	8.1590e+01	7.3201	89.757639	0.000547	5.471613	1.853833	-0.000219
 822	8.1689e+01	7.2880	89.551745	0.000517	5.167634	1.750842	-0.000207
 823	8.1789e+01	7.2399	89.337777	0.000537	5.370287	1.819502	-0.000215
 824	8.1888e+01	7.2046	89.164180	0.000436	4.357025	1.476200	-0.000174
 825	8.1988e+01	7.1581	88.930026	0.000588	5.876917	1.991154	-0.000235
 826	8.2088e+01	7.1260	88.724132	0.000517	5.167634	1.750842	-0.000207
 827	8.2187e+01	7.0907	88.481904	0.000608	6.079570	2.059814	-0.000243
 828	8.2287e+01	7.0394	88.292159	0.000476	4.762330	1.613521	-0.000191
 829	8.2386e+01	7.0153	88.062042	0.000578	5.775591	1.956823	-0.000231
 830	8.2486e+01	6.9624	87.848074	0.000537	5.370287	1.819502	-0.000215
 831	8.2585e+01	6.9223	87.670440	0.000446	4.458351	1.510530	-0.000179
 832	8.2684e+01	6.8886	87.424174	0.000618	6.180896	2.094144	-0.000248
 833	8.2784e+01	6.8453	87.218280	0.000517	5.167634	1.750842	-0.000207
 834	8.2883e+01	6.8132	87.008349	0.000527	5.268960	1.785172	-0.000211
 835	8.2983e+01	6.7602	86.822641	0.000466	4.661003	1.579191	-0.000187
 836	8.3082e+01	6.7233	86.572339	0.000628	6.282222	2.128474	-0.000252
 837	8.3182e+01	6.6784	86.358371	0.000537	5.370287	1.819502	-0.000215
 838	8.3281e+01	6.6544	86.180737	0.000446	4.458351	1.510530	-0.000179
 839	8.3381e+01	6.6223	85.954657	0.000567	5.674265	1.922493	-0.000227
 840	8.3481e+01	6.5597	85.768949	0.000466	4.661003	1.579191	-0.000187
 841	8.3580e+01	6.5308	85.575166	0.000486	4.863656	1.647851	-0.000195
 842	8.3680e+01	6.4923	85.320827	0.000638	6.383548	2.162805	-0.000256
 843	8.3779e+01	6.4506	85.123007	0.000496	4.964982	1.682181	-0.000199
 844	8.3879e+01	6.4089	84.925187	0.000496	4.964982	1.682181	-0.000199
 845	8.3978e+01	6.3656	84.658736	0.000669	6.687527	2.265795	-0.000268
 846	8.4078e+01	6.3239	84.468991	0.000476	4.762330	1.613521	-0.000191
 847	8.4177e+01	6.2934	84.255023	0.000537	5.370287	1.819502	-0.000215
 848	8.4276e+01	6.2597	84.024906	0.000578	5.775591	1.956823	-0.000231
 849	8.4376e+01	6.2164	83.786715	0.000598	5.978244	2.025484	-0.000239
 850	8.4475e+01	6.1779	83.588895	0.000496	4.964982	1.682181	-0.000199
 851	8.4575e+01	6.1362	83.346667	0.000608	6.079570	2.059814	-0.000243
 852	8.4674e+01	6.0913	83.112513	0.000588	5.876917	1.991154	-0.000235
 853	8.4774e+01	6.0512	82.934879	0.000446	4.458351	1.510530	-0.000179
 854	8.4874e+01	6.0095	82.708800	0.000567	5.674265	1.922493	-0.000227
 855	8.4973e+01	5.9661	82.470609	0.000598	5.978244	2.025484	-0.000239
 856	8.5073e+01	5.9308	82.276826	0.000486	4.863656	1.647851	-0.000195
 857	8.5172e+01	5.8907	82.054784	0.000557	5.572939	1.888163	-0.000223
 858	8.5272e+01	5.8458	81.788333	0.000669	6.687527	2.265795	-0.000268
 859	8.5371e+01	5.8186	81.594550	0.000486	4.863656	1.647851	-0.000195
 860	8.5471e+01	5.7849	81.368471	0.000567	5.674265	1.922493	-0.000227
 861	8.5570e+01	5.7351	81.162577	0.000517	5.167634	1.750842	-0.000207
 862	8.5669e+01	5.6982	80.916312	0.000618	6.180896	2.094144	-0.000248
 863	8.5769e+01	5.6533	80.698306	0.000547	5.471613	1.853833	-0.000219
 864	8.5868e+01	5.6100	80.427818	0.000679	6.788853	2.300126	-0.000272
 865	8.5968e+01	5.5715	80.242110	0.000466	4.661003	1.579191	-0.000187
 866	8.6067e+01	5.5458	80.007956	0.000588	5.876917	1.991154	-0.000235
 867	8.6167e+01	5.4961	79.765728	0.000608	6.079570	2.059814	-0.000243
 868	8.6266e+01	5.4544	79.527537	0.000598	5.978244	2.025484	-0.000239
 869	8.6366e+01	5.4111	79.317606	0.000527	5.268960	1.785172	-0.000211
 870	8.6466e+01	5.3774	79.071341	0.000618	6.180896	2.094144	-0.000248
 871	8.6565e+01	5.3341	78.833150	0.000598	5.978244	2.025484	-0.000239
 872	8.6665e+01	5.2972	78.611107	0.000557	5.572939	1.888163	-0.000223
 873	8.6764e+01	5.2603	78.397139	0.000537	5.370287	1.819502	-0.000215
 874	8.6864e+01	5.2073	78.130688	0.000669	6.687527	2.265795	-0.000268
 875	8.6963e+01	5.1753	77.932868	0.000496	4.964982	1.682181	-0.000199
 876	8.7063e+01	5.1464	77.706789	0.000567	5.674265	1.922493	-0.000227
 877	8.7162e+01	5.0870	77.440338	0.000669	6.687527	2.265795	-0.000268
 878	8.7261e+01	5.0646	77.222332	0.000547	5.471613	1.853833	-0.000219
 879	8.7361e+01	5.0084	76.980104	0.000608	6.079570	2.059814	-0.000243
 880	8.7460e+01	4.9699	76.749988	0.000578	5.775591	1.956823	-0.000231
 881	8.7560e+01	4.9346	76.527945	0.000557	5.572939	1.888163	-0.000223
 882	8.7659e+01	4.8993	76.293791	0.000588	5.876917	1.991154	-0.000235
 883	8.7759e+01	4.8480	76.079823	0.000537	5.370287	1.819502	-0.000215
 884	8.7859e+01	4.8063	75.825483	0.000638	6.383548	2.162805	-0.000256
 885	8.7958e+01	4.7726	75.583255	0.000608	6.079570	2.059814	-0.000243
 886	8.8058e+01	4.7357	75.365250	0.000547	5.471613	1.853833	-0.000219
 887	8.8157e+01	4.6956	75.127059	0.000598	5.978244	2.025484	-0.000239
 888	8.8257e+01	4.6571	74.828311	0.000750	7.498136	2.540437	-0.000300
 889	8.8356e+01	4.6250	74.626454	0.000507	5.066308	1.716512	-0.000203
 890	8.8456e+01	4.5721	74.368077	0.000648	6.484874	2.197135	-0.000260
 891	8.8555e+01	4.5352	74.162184	0.000517	5.167634	1.750842	-0.000207
 892	8.8654e+01	4.4951	73.887658	0.000689	6.890179	2.334456	-0.000276
 893	8.8754e+01	4.4517	73.657542	0.000578	5.775591	1.956823	-0.000231
 894	8.8853e+01	4.4165	73.411276	0.000618	6.180896	2.094144	-0.000248
 895	8.8953e+01	4.3780	73.189234	0.000557	5.572939	1.888163	-0.000223
 896	8.9052e+01	4.3394	72.955080	0.000588	5.876917	1.991154	-0.000235
 897	8.9152e+01	4.2929	72.688629	0.000669	6.687527	2.265795	-0.000268
 898	8.9251e+01	4.2657	72.450438	0.000598	5.978244	2.025484	-0.000239
 899	8.9351e+01	4.2255	72.196098	0.000638	6.383548	2.162805	-0.000256
 900	8.9451e+01	4.1774	71.961945	0.000588	5.876917	1.991154	-0.000235
 901	8.9550e+01	4.1421	71.739902	0.000557	5.572939	1.888163	-0.000223
 902	8.9650e+01	4.0892	71.433080	0.000770	7.700788	2.609098	-0.000308
 903	8.9749e+01	4.0603	71.243334	0.000476	4.762330	1.613521	-0.000191
 904	8.9849e+01	4.0202	70.993032	0.000628	6.282222	2.128474	-0.000252
 905	8.9948e+01	3.9721	70.726581	0.000669	6.687527	2.265795	-0.000268
 906	9.0047e+01	3.9320	70.456093	0.000679	6.788853	2.300126	-0.000272
 907	9.0147e+01	3.9063	70.262310	0.000486	4.863656	1.647851	-0.000195
 908	9.0246e+01	3.8566	69.951451	0.000780	7.802115	2.643428	-0.000312
 909	9.0346e+01	3.8229	69.725371	0.000567	5.674265	1.922493	-0.000227
 910	9.0445e+01	3.7748	69.483143	0.000608	6.079570	2.059814	-0.000243
 911	9.0545e+01	3.7443	69.244952	0.000598	5.978244	2.025484	-0.000239
 912	9.0644e+01	3.6962	68.962353	0.000709	7.092831	2.403116	-0.000284
 913	9.0744e+01	3.6577	68.712050	0.000628	6.282222	2.128474	-0.000252
 914	9.0844e+01	3.6256	68.461748	0.000628	6.282222	2.128474	-0.000252
 915	9.0943e+01	3.5823	68.207408	0.000638	6.383548	2.162805	-0.000256
 916	9.1043e+01	3.5357	67.928846	0.000699	6.991505	2.368786	-0.000280
 917	9.1142e+01	3.5069	67.686618	0.000608	6.079570	2.059814	-0.000243
 918	9.1242e+01	3.4635	67.460538	0.000567	5.674265	1.922493	-0.000227
 919	9.1341e+01	3.4186	67.190050	0.000679	6.788853	2.300126	-0.000272
 920	9.1441e+01	3.3817	66.955896	0.000588	5.876917	1.991154	-0.000235
 921	9.1540e+01	3.3432	66.641000	0.000790	7.903441	2.677758	-0.000316
 922	9.1639e+01	3.3079	66.394734	0.000618	6.180896	2.094144	-0.000248
 923	9.1739e+01	3.2614	66.128283	0.000669	6.687527	2.265795	-0.000268
 924	9.1838e+01	3.2245	65.869907	0.000648	6.484874	2.197135	-0.000260
 925	9.1938e+01	3.1876	65.623641	0.000618	6.180896	2.094144	-0.000248
 926	9.2037e+01	3.1411	65.328931	0.000740	7.396810	2.506107	-0.000296
 927	9.2137e+01	3.0994	65.070554	0.000648	6.484874	2.197135	-0.000260
 928	9.2237e+01	3.0609	64.804103	0.000669	6.687527	2.265795	-0.000268
 929	9.2336e+01	3.0240	64.549763	0.000638	6.383548	2.162805	-0.000256
 930	9.2436e+01	2.9694	64.246978	0.000760	7.599462	2.574767	-0.000304
 931	9.2535e+01	2.9454	64.016861	0.000578	5.775591	1.956823	-0.000231
 932	9.2635e+01	2.8940	63.730225	0.000719	7.194158	2.437447	-0.000288
 933	9.2734e+01	2.8732	63.479922	0.000628	6.282222	2.128474	-0.000252
 934	9.2834e+01	2.8234	63.197323	0.000709	7.092831	2.403116	-0.000284
 935	9.2933e+01	2.7737	62.906649	0.000730	7.295484	2.471777	-0.000292
 936	9.3032e+01	2.7384	62.692681	0.000537	5.370287	1.819502	-0.000215
 937	9.3132e+01	2.7079	62.402007	0.000730	7.295484	2.471777	-0.000292
 938	9.3231e+01	2.6614	62.143630	0.000648	6.484874	2.197135	-0.000260
 939	9.3331e+01	2.6261	61.848920	0.000740	7.396810	2.506107	-0.000296
 940	9.3430e+01	2.5828	61.610728	0.000598	5.978244	2.025484	-0.000239
 941	9.3530e+01	2.5427	61.320055	0.000730	7.295484	2.471777	-0.000292
 942	9.3629e+01	2.5074	61.041492	0.000699	6.991505	2.368786	-0.000280
 943	9.3729e+01	2.4561	60.746781	0.000740	7.396810	2.506107	-0.000296
 944	9.3829e+01	2.4240	60.484368	0.000659	6.586201	2.231465	-0.000264
 945	9.3928e+01	2.3871	60.246177	0.000598	5.978244	2.025484	-0.000239
 946	9.4028e+01	2.3470	59.959540	0.000719	7.194158	2.437447	-0.000288
 947	9.4127e+01	2.3037	59.680978	0.000699	6.991505	2.368786	-0.000280
 948	9.4227e+01	2.2588	59.386267	0.000740	7.396810	2.506107	-0.000296
 949	9.4326e+01	2.2203	59.087519	0.000750	7.498136	2.540437	-0.000300
 950	9.4425e+01	2.1898	58.841253	0.000618	6.180896	2.094144	-0.000248
 951	9.4525e+01	2.1497	58.534431	0.000770	7.700788	2.609098	-0.000308
 952	9.4624e+01	2.1112	58.231646	0.000760	7.599462	2.574767	-0.000304
 953	9.4724e+01	2.0727	58.005566	0.000567	5.674265	1.922493	-0.000227
 954	9.4823e+01	2.0197	57.694707	0.000780	7.802115	2.643428	-0.000312
 955	9.4923e+01	1.9812	57.424219	0.000679	6.788853	2.300126	-0.000272
 956	9.5022e+01	1.9363	57.133545	0.000730	7.295484	2.471777	-0.000292
 957	9.5122e+01	1.9042	56.859020	0.000689	6.890179	2.334456	-0.000276
 958	9.5222e+01	1.8657	56.552197	0.000770	7.700788	2.609098	-0.000308
 959	9.5321e+01	1.8304	56.249412	0.000760	7.599462	2.574767	-0.000304
 960	9.5421e+01	1.7887	55.962776	0.000719	7.194158	2.437447	-0.000288
 961	9.5520e+01	1.7454	55.655953	0.000770	7.700788	2.609098	-0.000308
 962	9.5620e+01	1.7005	55.389502	0.000669	6.687527	2.265795	-0.000268
 963	9.5719e+01	1.6732	55.090754	0.000750	7.498136	2.540437	-0.000300
 964	9.5819e+01	1.6219	54.767783	0.000811	8.106093	2.746419	-0.000325
 965	9.5918e+01	1.5882	54.481147	0.000719	7.194158	2.437447	-0.000288
 966	9.6017e+01	1.5481	54.226807	0.000638	6.383548	2.162805	-0.000256
 967	9.6117e+01	1.5048	53.875576	0.000882	8.815376	2.986730	-0.000353
 968	9.6216e+01	1.4582	53.580866	0.000740	7.396810	2.506107	-0.000296
 969	9.6316e+01	1.4246	53.261932	0.000800	8.004767	2.712088	-0.000321
 970	9.6415e+01	1.3893	52.991444	0.000679	6.788853	2.300126	-0.000272
 971	9.6515e+01	1.3460	52.692696	0.000750	7.498136	2.540437	-0.000300
 972	9.6615e+01	1.3123	52.365688	0.000821	8.207419	2.780749	-0.000329
 973	9.6714e+01	1.2706	52.070977	0.000740	7.396810	2.506107	-0.000296
 974	9.6814e+01	1.2304	51.727820	0.000861	8.612724	2.918070	-0.000345
 975	9.6913e+01	1.1823	51.493666	0.000588	5.876917	1.991154	-0.000235
 976	9.7013e+01	1.1422	51.146473	0.000871	8.714050	2.952400	-0.000349
 977	9.7112e+01	1.1005	50.855799	0.000730	7.295484	2.471777	-0.000292
 978	9.7212e+01	1.0748	50.508605	0.000871	8.714050	2.952400	-0.000349
 979	9.7311e+01	1.0315	50.209857	0.000750	7.498136	2.540437	-0.000300
 980	9.7410e+01	0.9882	49.911109	0.000750	7.498136	2.540437	-0.000300
 981	9.7510e+01	0.9449	49.555841	0.000892	8.916702	3.021061	-0.000357
 982	9.7609e+01	0.9064	49.285353	0.000679	6.788853	2.300126	-0.000272
 983	9.7709e+01	0.8743	48.974494	0.000780	7.802115	2.643428	-0.000312
 984	9.7808e+01	0.8406	48.631337	0.000861	8.612724	2.918070	-0.000345
 985	9.7908e+01	0.7861	48.296255	0.000841	8.410071	2.849409	-0.000337
 986	9.8007e+01	0.7476	47.997507	0.000750	7.498136	2.540437	-0.000300
 987	9.8107e+01	0.7043	47.622053	0.000942	9.423333	3.192712	-0.000377
 988	9.8207e+01	0.6754	47.323305	0.000750	7.498136	2.540437	-0.000300
 989	9.8306e+01	0.6208	47.016483	0.000770	7.700788	2.609098	-0.000308
 990	9.8406e+01	0.5904	46.737920	0.000699	6.991505	2.368786	-0.000280
 991	9.8505e+01	0.5567	46.390727	0.000871	8.714050	2.952400	-0.000349
 992	9.8605e+01	0.5118	46.027385	0.000912	9.119355	3.089721	-0.000365
 993	9.8704e+01	0.4684	45.724599	0.000760	7.599462	2.574767	-0.000304
 994	9.8803e+01	0.4396	45.357220	0.000922	9.220681	3.124051	-0.000369
 995	9.8903e+01	0.3930	45.034249	0.000811	8.106093	2.746419	-0.000325
 996	9.9002e+01	0.3433	44.707241	0.000821	8.207419	2.780749	-0.000329
 997	9.9102e+01	0.3064	44.351973	0.000892	8.916702	3.021061	-0.000357
 998	9.9201e+01	0.2775	44.065337	0.000719	7.194158	2.437447	-0.000288
 999	9.9301e+01	0.2262	43.693920	0.000932	9.322007	3.158381	-0.000373
1000	9.9400e+01	0.1861	43.342689	0.000882	8.815376	2.986730	-0.000353
1001	9.9500e+01	0.1412	43.027793	0.000790	7.903441	2.677758	-0.000316
1002	9.9600e+01	0.1107	42.680599	0.000871	8.714050	2.952400	-0.000349
1003	9.9699e+01	0.0706	42.349554	0.000831	8.308745	2.815079	-0.000333
1004	9.9799e+01	0.0353	41.994286	0.000892	8.916702	3.021061	-0.000357
1005	9.9898e+01	0.0080	41.711686	0.000709	7.092831	2.403116	-0.000284
1006	9.9998e+01	-0.0401	41.396790	0.000790	7.903441	2.677758	-0.000316
1007	1.0010e+02	-0.0754	41.001151	0.000993	9.929964	3.364363	-0.000398
1008	1.0020e+02	-0.1171	40.678180	0.000811	8.106093	2.746419	-0.000325
1009	1.0030e+02	-0.1684	40.367320	0.000780	7.802115	2.643428	-0.000312
1010	1.0040e+02	-0.1957	40.003978	0.000912	9.119355	3.089721	-0.000365
1011	1.0050e+02	-0.2326	39.664859	0.000851	8.511398	2.883740	-0.000341
1012	1.0059e+02	-0.2743	39.253071	0.001034	10.335269	3.501684	-0.000414
1013	1.0069e+02	-0.3144	38.934137	0.000800	8.004767	2.712088	-0.000321
1014	1.0079e+02	-0.3658	38.562721	0.000932	9.322007	3.158381	-0.000373
1015	1.0089e+02	-0.3995	38.231675	0.000831	8.308745	2.815079	-0.000333
1016	1.0099e+02	-0.4347	37.876407	0.000892	8.916702	3.021061	-0.000357
1017	1.0109e+02	-0.4797	37.480768	0.000993	9.929964	3.364363	-0.000398
1018	1.0119e+02	-0.5134	37.121463	0.000902	9.018028	3.055391	-0.000361
1019	1.0129e+02	-0.5567	36.794455	0.000821	8.207419	2.780749	-0.000329
1020	1.0139e+02	-0.6032	36.435150	0.000902	9.018028	3.055391	-0.000361
1021	1.0149e+02	-0.6417	36.031436	0.001013	10.132616	3.433023	-0.000406
1022	1.0159e+02	-0.6802	35.688280	0.000861	8.612724	2.918070	-0.000345
1023	1.0169e+02	-0.7139	35.288603	0.001003	10.031290	3.398693	-0.000402
1024	1.0179e+02	-0.7492	34.945447	0.000861	8.612724	2.918070	-0.000345
1025	1.0189e+02	-0.7973	34.578068	0.000922	9.220681	3.124051	-0.000369
1026	1.0199e+02	-0.8374	34.186465	0.000983	9.828638	3.330033	-0.000394
1027	1.0209e+02	-0.8727	33.819086	0.000922	9.220681	3.124051	-0.000369
1028	1.0219e+02	-0.9305	33.475930	0.000861	8.612724	2.918070	-0.000345
1029	1.0229e+02	-0.9609	33.100476	0.000942	9.423333	3.192712	-0.000377
1030	1.0239e+02	-0.9978	32.708874	0.000983	9.828638	3.330033	-0.000394
1031	1.0248e+02	-1.0379	32.333420	0.000942	9.423333	3.192712	-0.000377
1032	1.0258e+02	-1.0700	31.962004	0.000932	9.322007	3.158381	-0.000373
1033	1.0268e+02	-1.1246	31.618847	0.000861	8.612724	2.918070	-0.000345
1034	1.0278e+02	-1.1534	31.231282	0.000973	9.727312	3.295702	-0.000390
1035	1.0288e+02	-1.1903	30.847754	0.000963	9.625985	3.261372	-0.000385
1036	1.0298e+02	-1.2321	30.464226	0.000963	9.625985	3.261372	-0.000385
1037	1.0308e+02	-1.2706	30.068587	0.000993	9.929964	3.364363	-0.000398
1038	1.0318e+02	-1.3187	29.693133	0.000942	9.423333	3.192712	-0.000377
1039	1.0328e+02	-1.3540	29.349977	0.000861	8.612724	2.918070	-0.000345
1040	1.0338e+02	-1.3957	28.913966	0.001094	10.943226	3.707665	-0.000438
1041	1.0348e+02	-1.4374	28.566772	0.000871	8.714050	2.952400	-0.000349
1042	1.0358e+02	-1.4679	28.175170	0.000983	9.828638	3.330033	-0.000394
1043	1.0368e+02	-1.5176	27.827977	0.000871	8.714050	2.952400	-0.000349
1044	1.0378e+02	-1.5561	27.428300	0.001003	10.031290	3.398693	-0.000402
1045	1.0388e+02	-1.5994	27.056884	0.000932	9.322007	3.158381	-0.000373
1046	1.0398e+02	-1.6331	26.681430	0.000942	9.423333	3.192712	-0.000377
1047	1.0408e+02	-1.6636	26.293865	0.000973	9.727312	3.295702	-0.000390
1048	1.0418e+02	-1.7181	25.942634	0.000882	8.815376	2.986730	-0.000353
1049	1.0428e+02	-1.7582	25.591403	0.000882	8.815376	2.986730	-0.000353
1050	1.0438e+02	-1.7967	25.199801	0.000983	9.828638	3.330033	-0.000394
1051	1.0447e+02	-1.8385	24.788013	0.001034	10.335269	3.501684	-0.000414
1052	1.0457e+02	-1.8721	24.416597	0.000932	9.322007	3.158381	-0.000373
1053	1.0467e+02	-1.9138	24.020958	0.000993	9.929964	3.364363	-0.000398
1054	1.0477e+02	-1.9588	23.685875	0.000841	8.410071	2.849409	-0.000337
1055	1.0487e+02	-1.9989	23.274088	0.001034	10.335269	3.501684	-0.000414
1056	1.0497e+02	-2.0358	22.939005	0.000841	8.410071	2.849409	-0.000337
1057	1.0507e+02	-2.0807	22.519143	0.001054	10.537921	3.570344	-0.000422
1058	1.0517e+02	-2.1112	22.131578	0.000973	9.727312	3.295702	-0.000390
1059	1.0527e+02	-2.1465	21.804570	0.000821	8.207419	2.780749	-0.000329
1060	1.0537e+02	-2.1898	21.441228	0.000912	9.119355	3.089721	-0.000365
1061	1.0547e+02	-2.2267	21.033477	0.001023	10.233942	3.467354	-0.000410
1062	1.0557e+02	-2.2716	20.645912	0.000973	9.727312	3.295702	-0.000390
1063	1.0567e+02	-2.3213	20.326978	0.000800	8.004767	2.712088	-0.000321
1064	1.0577e+02	-2.3470	19.919228	0.001023	10.233942	3.467354	-0.000410
1065	1.0587e+02	-2.3983	19.596257	0.000811	8.106093	2.746419	-0.000325
1066	1.0597e+02	-2.4368	19.212729	0.000963	9.625985	3.261372	-0.000385
1067	1.0607e+02	-2.4753	18.841312	0.000932	9.322007	3.158381	-0.000373
1068	1.0617e+02	-2.5138	18.486045	0.000892	8.916702	3.021061	-0.000357
1069	1.0627e+02	-2.5475	18.102517	0.000963	9.625985	3.261372	-0.000385
1070	1.0637e+02	-2.5973	17.775509	0.000821	8.207419	2.780749	-0.000329
1071	1.0647e+02	-2.6245	17.371795	0.001013	10.132616	3.433023	-0.000406
1072	1.0656e+02	-2.6839	17.016527	0.000892	8.916702	3.021061	-0.000357
1073	1.0666e+02	-2.7128	16.677408	0.000851	8.511398	2.883740	-0.000341
1074	1.0676e+02	-2.7432	16.297917	0.000952	9.524659	3.227042	-0.000381
1075	1.0686e+02	-2.7817	15.954760	0.000861	8.612724	2.918070	-0.000345
1076	1.0696e+02	-2.8299	15.607567	0.000871	8.714050	2.952400	-0.000349
1077	1.0706e+02	-2.8620	15.240187	0.000922	9.220681	3.124051	-0.000369
1078	1.0716e+02	-2.9101	14.860697	0.000952	9.524659	3.227042	-0.000381
1079	1.0726e+02	-2.9518	14.557911	0.000760	7.599462	2.574767	-0.000304
1080	1.0736e+02	-2.9951	14.186495	0.000932	9.322007	3.158381	-0.000373
1081	1.0746e+02	-3.0304	13.839301	0.000871	8.714050	2.952400	-0.000349
1082	1.0756e+02	-3.0673	13.512293	0.000821	8.207419	2.780749	-0.000329
1083	1.0766e+02	-3.1026	13.152988	0.000902	9.018028	3.055391	-0.000361
1084	1.0776e+02	-3.1523	12.789646	0.000912	9.119355	3.089721	-0.000365
1085	1.0786e+02	-3.1908	12.486861	0.000760	7.599462	2.574767	-0.000304
1086	1.0796e+02	-3.2229	12.075073	0.001034	10.335269	3.501684	-0.000414
1087	1.0806e+02	-3.2678	11.784399	0.000730	7.295484	2.471777	-0.000292
1088	1.0816e+02	-3.2919	11.425094	0.000902	9.018028	3.055391	-0.000361
1089	1.0826e+02	-3.3512	11.102123	0.000811	8.106093	2.746419	-0.000325
1090	1.0836e+02	-3.3865	10.750892	0.000882	8.815376	2.986730	-0.000353
1091	1.0845e+02	-3.4298	10.440033	0.000780	7.802115	2.643428	-0.000312
1092	1.0855e+02	-3.4667	10.084765	0.000892	8.916702	3.021061	-0.000357
1093	1.0865e+02	-3.5149	9.745646	0.000851	8.511398	2.883740	-0.000341
1094	1.0875e+02	-3.5438	9.430749	0.000790	7.903441	2.677758	-0.000316
1095	1.0885e+02	-3.5710	9.035110	0.000993	9.929964	3.364363	-0.000398
1096	1.0895e+02	-3.6288	8.760585	0.000689	6.890179	2.334456	-0.000276
1097	1.0905e+02	-3.6689	8.368982	0.000983	9.828638	3.330033	-0.000394
1098	1.0915e+02	-3.7042	8.082346	0.000719	7.194158	2.437447	-0.000288
1099	1.0925e+02	-3.7475	7.787635	0.000740	7.396810	2.506107	-0.000296
1100	1.0935e+02	-3.7716	7.420255	0.000922	9.220681	3.124051	-0.000369
1101	1.0945e+02	-3.8261	7.093247	0.000821	8.207419	2.780749	-0.000329
1102	1.0955e+02	-3.8614	6.802574	0.000730	7.295484	2.471777	-0.000292
1103	1.0965e+02	-3.9111	6.459417	0.000861	8.612724	2.918070	-0.000345
1104	1.0975e+02	-3.9432	6.112224	0.000871	8.714050	2.952400	-0.000349
1105	1.0985e+02	-3.9817	5.821550	0.000730	7.295484	2.471777	-0.000292
1106	1.0995e+02	-4.0282	5.502616	0.000800	8.004767	2.712088	-0.000321
1107	1.1005e+02	-4.0635	5.220017	0.000709	7.092831	2.403116	-0.000284
1108	1.1015e+02	-4.1036	4.876860	0.000861	8.612724	2.918070	-0.000345
1109	1.1025e+02	-4.1421	4.566001	0.000780	7.802115	2.643428	-0.000312
1110	1.1035e+02	-4.1822	4.267252	0.000750	7.498136	2.540437	-0.000300
1111	1.1044e+02	-4.2207	3.952356	0.000790	7.903441	2.677758	-0.000316
1112	1.1054e+02	-4.2608	3.637459	0.000790	7.903441	2.677758	-0.000316
1113	1.1064e+02	-4.3122	3.354860	0.000709	7.092831	2.403116	-0.000284
1114	1.1074e+02	-4.3314	3.023815	0.000831	8.308745	2.815079	-0.000333
1115	1.1084e+02	-4.3876	2.753327	0.000679	6.788853	2.300126	-0.000272
1116	1.1094e+02	-4.4245	2.402096	0.000882	8.815376	2.986730	-0.000353
1117	1.1104e+02	-4.4598	2.127571	0.000689	6.890179	2.334456	-0.000276
1118	1.1114e+02	-4.4967	1.812674	0.000790	7.903441	2.677758	-0.000316
1119	1.1124e+02	-4.5448	1.513926	0.000750	7.498136	2.540437	-0.000300
1120	1.1134e+02	-4.5769	1.227289	0.000719	7.194158	2.437447	-0.000288
1121	1.1144e+02	-4.6282	0.968913	0.000648	6.484874	2.197135	-0.000260
1122	1.1154e+02	-4.6571	0.649979	0.000800	8.004767	2.712088	-0.000321
1123	1.1164e+02	-4.7052	0.290674	0.000902	9.018028	3.055391	-0.000361
1124	1.1174e+02	-4.7453	0.016149	0.000689	6.890179	2.334456	-0.000276
1125	1.1184e+02	-4.7838	-0.246265	0.000659	6.586201	2.231465	-0.000264
1126	1.1194e+02	-4.8287	-0.569236	0.000811	8.106093	2.746419	-0.000325
1127	1.1204e+02	-4.8560	-0.872021	0.000760	7.599462	2.574767	-0.000304
1128	1.1214e+02	-4.9025	-1.142509	0.000679	6.788853	2.300126	-0.000272
1129	1.1224e+02	-4.9442	-1.408960	0.000669	6.687527	2.265795	-0.000268
1130	1.1234e+02	-4.9779	-1.715783	0.000770	7.700788	2.609098	-0.000308
1131	1.1244e+02	-5.0261	-2.022605	0.000770	7.700788	2.609098	-0.000308
1132	1.1253e+02	-5.0517	-2.293093	0.000679	6.788853	2.300126	-0.000272
1133	1.1263e+02	-5.1015	-2.575693	0.000709	7.092831	2.403116	-0.000284
1134	1.1273e+02	-5.1335	-2.882515	0.000770	7.700788	2.609098	-0.000308
1135	1.1283e+02	-5.1817	-3.181263	0.000750	7.498136	2.540437	-0.000300
1136	1.1293e+02	-5.2266	-3.467900	0.000719	7.194158	2.437447	-0.000288
1137	1.1303e+02	-5.2587	-3.758573	0.000730	7.295484	2.471777	-0.000292
1138	1.1313e+02	-5.3036	-4.008876	0.000628	6.282222	2.128474	-0.000252
1139	1.1323e+02	-5.3421	-4.364144	0.000892	8.916702	3.021061	-0.000357
1140	1.1333e+02	-5.3710	-4.634632	0.000679	6.788853	2.300126	-0.000272
1141	1.1343e+02	-5.4127	-4.868786	0.000588	5.876917	1.991154	-0.000235
1142	1.1353e+02	-5.4592	-5.147348	0.000699	6.991505	2.368786	-0.000280
1143	1.1363e+02	-5.4929	-5.397650	0.000628	6.282222	2.128474	-0.000252
1144	1.1373e+02	-5.5442	-5.712547	0.000790	7.903441	2.677758	-0.000316
1145	1.1383e+02	-5.5747	-5.999184	0.000719	7.194158	2.437447	-0.000288
1146	1.1393e+02	-5.6084	-6.269672	0.000679	6.788853	2.300126	-0.000272
1147	1.1403e+02	-5.6565	-6.552271	0.000709	7.092831	2.403116	-0.000284
1148	1.1413e+02	-5.6934	-6.822759	0.000679	6.788853	2.300126	-0.000272
1149	1.1423e+02	-5.7448	-7.073062	0.000628	6.282222	2.128474	-0.000252
1150	1.1433e+02	-5.7736	-7.331439	0.000648	6.484874	2.197135	-0.000260
1151	1.1442e+02	-5.8218	-7.626149	0.000740	7.396810	2.506107	-0.000296
1152	1.1452e+02	-5.8522	-7.900675	0.000689	6.890179	2.334456	-0.000276
1153	1.1462e+02	-5.8988	-8.171163	0.000679	6.788853	2.300126	-0.000272
1154	1.1472e+02	-5.9357	-8.482022	0.000780	7.802115	2.643428	-0.000312
1155	1.1482e+02	-5.9806	-8.695990	0.000537	5.370287	1.819502	-0.000215
1156	1.1492e+02	-6.0079	-8.966478	0.000679	6.788853	2.300126	-0.000272
1157	1.1502e+02	-6.0576	-9.253115	0.000719	7.194158	2.437447	-0.000288
1158	1.1512e+02	-6.0977	-9.527640	0.000689	6.890179	2.334456	-0.000276
1159	1.1522e+02	-6.1362	-9.781980	0.000638	6.383548	2.162805	-0.000256
1160	1.1532e+02	-6.1795	-10.040357	0.000648	6.484874	2.197135	-0.000260
1161	1.1542e+02	-6.2148	-10.335067	0.000740	7.396810	2.506107	-0.000296
1162	1.1552e+02	-6.2549	-10.585370	0.000628	6.282222	2.128474	-0.000252
1163	1.1562e+02	-6.2934	-10.884118	0.000750	7.498136	2.540437	-0.000300
1164	1.1572e+02	-6.3367	-11.122309	0.000598	5.978244	2.025484	-0.000239
1165	1.1582e+02	-6.3688	-11.400871	0.000699	6.991505	2.368786	-0.000280
1166	1.1592e+02	-6.4169	-11.635025	0.000588	5.876917	1.991154	-0.000235
1167	1.1602e+02	-6.4554	-11.905513	0.000679	6.788853	2.300126	-0.000272
1168	1.1612e+02	-6.4907	-12.167927	0.000659	6.586201	2.231465	-0.000264
1169	1.1622e+02	-6.5308	-12.406118	0.000598	5.978244	2.025484	-0.000239
1170	1.1632e+02	-6.5693	-12.656421	0.000628	6.282222	2.128474	-0.000252
1171	1.1642e+02	-6.6143	-12.918834	0.000659	6.586201	2.231465	-0.000264
1172	1.1651e+02	-6.6511	-13.197397	0.000699	6.991505	2.368786	-0.000280
1173	1.1661e+02	-6.6897	-13.383105	0.000466	4.661003	1.579191	-0.000187
1174	1.1671e+02	-6.7362	-13.681853	0.000750	7.498136	2.540437	-0.000300
1175	1.1681e+02	-6.7683	-13.928118	0.000618	6.180896	2.094144	-0.000248
1176	1.1691e+02	-6.8019	-14.174384	0.000618	6.180896	2.094144	-0.000248
1177	1.1701e+02	-6.8565	-14.456983	0.000709	7.092831	2.403116	-0.000284
1178	1.1711e+02	-6.8918	-14.731508	0.000689	6.890179	2.334456	-0.000276
1179	1.1721e+02	-6.9239	-14.969699	0.000598	5.978244	2.025484	-0.000239
1180	1.1731e+02	-6.9672	-15.211927	0.000608	6.079570	2.059814	-0.000243
1181	1.1741e+02	-7.0169	-15.486453	0.000689	6.890179	2.334456	-0.000276
1182	1.1751e+02	-7.0538	-15.712532	0.000567	5.674265	1.922493	-0.000227
1183	1.1761e+02	-7.0923	-15.962835	0.000628	6.282222	2.128474	-0.000252
1184	1.1771e+02	-7.1324	-16.217174	0.000638	6.383548	2.162805	-0.000256
1185	1.1781e+02	-7.1773	-16.439217	0.000557	5.572939	1.888163	-0.000223
1186	1.1791e+02	-7.2110	-16.717779	0.000699	6.991505	2.368786	-0.000280
1187	1.1801e+02	-7.2511	-16.951933	0.000588	5.876917	1.991154	-0.000235
1188	1.1811e+02	-7.2864	-17.214347	0.000659	6.586201	2.231465	-0.000264
1189	1.1821e+02	-7.3233	-17.428315	0.000537	5.370287	1.819502	-0.000215
1190	1.1831e+02	-7.3763	-17.727063	0.000750	7.498136	2.540437	-0.000300
1191	1.1841e+02	-7.4067	-17.973328	0.000618	6.180896	2.094144	-0.000248
1192	1.1850e+02	-7.4485	-18.191334	0.000547	5.471613	1.853833	-0.000219
1193	1.1860e+02	-7.4934	-18.453747	0.000659	6.586201	2.231465	-0.000264
1194	1.1870e+02	-7.5271	-18.732310	0.000699	6.991505	2.368786	-0.000280
1195	1.1880e+02	-7.5688	-18.954352	0.000557	5.572939	1.888163	-0.000223
1196	1.1890e+02	-7.6057	-19.200618	0.000618	6.180896	2.094144	-0.000248
1197	1.1900e+02	-7.6490	-19.454957	0.000638	6.383548	2.162805	-0.000256
1198	1.1910e+02	-7.6827	-19.709297	0.000638	6.383548	2.162805	-0.000256
1199	1.1920e+02	-7.7276	-19.943451	0.000588	5.876917	1.991154	-0.000235
1200	1.1930e+02	-7.7693	-20.185679	0.000608	6.079570	2.059814	-0.000243
1201	1.1940e+02	-7.8014	-20.427907	0.000608	6.079570	2.059814	-0.000243
1202	1.1950e+02	-7.8383	-20.678209	0.000628	6.282222	2.128474	-0.000252
1203	1.1960e+02	-7.8816	-20.928512	0.000628	6.282222	2.128474	-0.000252
1204	1.1970e+02	-7.9297	-21.158628	0.000578	5.775591	1.956823	-0.000231
1205	1.1980e+02	-7.9618	-21.384708	0.000567	5.674265	1.922493	-0.000227
1206	1.1990e+02	-8.0035	-21.651159	0.000669	6.687527	2.265795	-0.000268
1207	1.2000e+02	-8.0549	-21.836867	0.000466	4.661003	1.579191	-0.000187
1208	1.2010e+02	-8.0837	-22.155801	0.000800	8.004767	2.712088	-0.000321
1209	1.2020e+02	-8.1286	-22.341509	0.000466	4.661003	1.579191	-0.000187
1210	1.2030e+02	-8.1655	-22.616034	0.000689	6.890179	2.334456	-0.000276
1211	1.2039e+02	-8.2024	-22.846151	0.000578	5.775591	1.956823	-0.000231
1212	1.2049e+02	-8.2538	-23.076268	0.000578	5.775591	1.956823	-0.000231
1213	1.2059e+02	-8.2923	-23.330607	0.000638	6.383548	2.162805	-0.000256
1214	1.2069e+02	-8.3244	-23.580910	0.000628	6.282222	2.128474	-0.000252
1215	1.2079e+02	-8.3645	-23.778729	0.000496	4.964982	1.682181	-0.000199
1216	1.2089e+02	-8.4046	-24.041143	0.000659	6.586201	2.231465	-0.000264
1217	1.2099e+02	-8.4447	-24.238963	0.000496	4.964982	1.682181	-0.000199
1218	1.2109e+02	-8.4816	-24.497340	0.000648	6.484874	2.197135	-0.000260
1219	1.2119e+02	-8.5297	-24.727456	0.000578	5.775591	1.956823	-0.000231
1220	1.2129e+02	-8.5682	-24.965647	0.000598	5.978244	2.025484	-0.000239
1221	1.2139e+02	-8.6035	-25.203838	0.000598	5.978244	2.025484	-0.000239
1222	1.2149e+02	-8.6452	-25.409732	0.000517	5.167634	1.750842	-0.000207
1223	1.2159e+02	-8.6949	-25.655998	0.000618	6.180896	2.094144	-0.000248
1224	1.2169e+02	-8.7334	-25.902263	0.000618	6.180896	2.094144	-0.000248
1225	1.2179e+02	-8.7671	-26.128342	0.000567	5.674265	1.922493	-0.000227
1226	1.2189e+02	-8.8056	-26.374608	0.000618	6.180896	2.094144	-0.000248
1227	1.2199e+02	-8.8393	-26.588576	0.000537	5.370287	1.819502	-0.000215
1228	1.2209e+02	-8.8778	-26.850990	0.000659	6.586201	2.231465	-0.000264
1229	1.2219e+02	-8.9243	-27.068995	0.000547	5.471613	1.853833	-0.000219
1230	1.2229e+02	-8.9580	-27.299112	0.000578	5.775591	1.956823	-0.000231
1231	1.2239e+02	-9.0078	-27.480783	0.000456	4.559677	1.544860	-0.000183
1232	1.2248e+02	-9.0366	-27.747234	0.000669	6.687527	2.265795	-0.000268
1233	1.2258e+02	-9.0880	-27.989462	0.000608	6.079570	2.059814	-0.000243
1234	1.2268e+02	-9.1185	-28.235727	0.000618	6.180896	2.094144	-0.000248
1235	1.2278e+02	-9.1666	-28.453733	0.000547	5.471613	1.853833	-0.000219
1236	1.2288e+02	-9.2003	-28.663664	0.000527	5.268960	1.785172	-0.000211
1237	1.2298e+02	-9.2468	-28.877632	0.000537	5.370287	1.819502	-0.000215
1238	1.2308e+02	-9.2821	-29.103712	0.000567	5.674265	1.922493	-0.000227
1239	1.2318e+02	-9.3158	-29.337865	0.000588	5.876917	1.991154	-0.000235
1240	1.2328e+02	-9.3623	-29.539722	0.000507	5.066308	1.716512	-0.000203
1241	1.2338e+02	-9.4024	-29.794062	0.000638	6.383548	2.162805	-0.000256
1242	1.2348e+02	-9.4441	-30.048401	0.000638	6.383548	2.162805	-0.000256
1243	1.2358e+02	-9.4730	-30.242184	0.000486	4.863656	1.647851	-0.000195
1244	1.2368e+02	-9.5195	-30.452115	0.000527	5.268960	1.785172	-0.000211
1245	1.2378e+02	-9.5692	-30.674157	0.000557	5.572939	1.888163	-0.000223
1246	1.2388e+02	-9.6029	-30.920423	0.000618	6.180896	2.094144	-0.000248
1247	1.2398e+02	-9.6366	-31.150539	0.000578	5.775591	1.956823	-0.000231
1248	1.2408e+02	-9.6864	-31.364508	0.000537	5.370287	1.819502	-0.000215
1249	1.2418e+02	-9.7184	-31.610773	0.000618	6.180896	2.094144	-0.000248
1250	1.2428e+02	-9.7602	-31.844927	0.000588	5.876917	1.991154	-0.000235
1251	1.2438e+02	-9.7922	-32.062932	0.000547	5.471613	1.853833	-0.000219
1252	1.2447e+02	-9.8404	-32.236529	0.000436	4.357025	1.476200	-0.000174
1253	1.2457e+02	-9.8805	-32.498943	0.000659	6.586201	2.231465	-0.000264
1254	1.2467e+02	-9.9222	-32.757319	0.000648	6.484874	2.197135	-0.000260
1255	1.2477e+02	-9.9527	-32.955139	0.000496	4.964982	1.682181	-0.000199
1256	1.2487e+02	-10.0056	-33.189293	0.000588	5.876917	1.991154	-0.000235
1257	1.2497e+02	-10.0393	-33.447670	0.000648	6.484874	2.197135	-0.000260
1258	1.2507e+02	-10.0858	-33.645489	0.000496	4.964982	1.682181	-0.000199
1259	1.2517e+02	-10.1227	-33.875606	0.000578	5.775591	1.956823	-0.000231
1260	1.2527e+02	-10.1564	-34.117834	0.000608	6.079570	2.059814	-0.000243
1261	1.2537e+02	-10.1885	-34.303542	0.000466	4.661003	1.579191	-0.000187
1262	1.2547e+02	-10.2334	-34.606328	0.000760	7.599462	2.574767	-0.000304
1263	1.2557e+02	-10.2783	-34.779924	0.000436	4.357025	1.476200	-0.000174
1264	1.2567e+02	-10.3152	-35.042338	0.000659	6.586201	2.231465	-0.000264
1265	1.2577e+02	-10.3601	-35.219972	0.000446	4.458351	1.510530	-0.000179
1266	1.2587e+02	-10.3970	-35.486423	0.000669	6.687527	2.265795	-0.000268
1267	1.2597e+02	-10.4355	-35.716540	0.000578	5.775591	1.956823	-0.000231
1268	1.2607e+02	-10.4788	-35.906285	0.000476	4.762330	1.613521	-0.000191
1269	1.2617e+02	-10.5174	-36.164662	0.000648	6.484874	2.197135	-0.000260
1270	1.2627e+02	-10.5559	-36.386704	0.000557	5.572939	1.888163	-0.000223
1271	1.2636e+02	-10.5879	-36.616821	0.000578	5.775591	1.956823	-0.000231
1272	1.2646e+02	-10.6393	-36.855012	0.000598	5.978244	2.025484	-0.000239
1273	1.2656e+02	-10.6842	-37.077055	0.000557	5.572939	1.888163	-0.000223
1274	1.2666e+02	-10.7147	-37.230466	0.000385	3.850394	1.304549	-0.000154
1275	1.2676e+02	-10.7500	-37.521140	0.000730	7.295484	2.471777	-0.000292
1276	1.2686e+02	-10.7949	-37.759331	0.000598	5.978244	2.025484	-0.000239
1277	1.2696e+02	-10.8414	-37.989447	0.000578	5.775591	1.956823	-0.000231
1278	1.2706e+02	-10.8751	-38.219564	0.000578	5.775591	1.956823	-0.000231
1279	1.2716e+02	-10.9136	-38.465829	0.000618	6.180896	2.094144	-0.000248
1280	1.2726e+02	-10.9601	-38.687872	0.000557	5.572939	1.888163	-0.000223
1281	1.2736e+02	-10.9986	-38.917989	0.000578	5.775591	1.956823	-0.000231
1282	1.2746e+02	-11.0355	-39.135994	0.000547	5.471613	1.853833	-0.000219
1283	1.2756e+02	-11.0724	-39.358036	0.000557	5.572939	1.888163	-0.000223
1284	1.2766e+02	-11.1173	-39.580079	0.000557	5.572939	1.888163	-0.000223
1285	1.2776e+02	-11.1574	-39.781936	0.000507	5.066308	1.716512	-0.000203
1286	1.2786e+02	-11.1927	-40.052424	0.000679	6.788853	2.300126	-0.000272
1287	1.2796e+02	-11.2377	-40.306763	0.000638	6.383548	2.162805	-0.000256
1288	1.2806e+02	-11.2729	-40.536880	0.000578	5.775591	1.956823	-0.000231
1289	1.2816e+02	-11.3195	-40.762960	0.000567	5.674265	1.922493	-0.000227
1290	1.2826e+02	-11.3532	-41.001151	0.000598	5.978244	2.025484	-0.000239
1291	1.2835e+02	-11.3917	-41.207044	0.000517	5.167634	1.750842	-0.000207
1292	1.2845e+02	-11.4350	-41.429087	0.000557	5.572939	1.888163	-0.000223
1293	1.2855e+02	-11.4671	-41.723798	0.000740	7.396810	2.506107	-0.000296
1294	1.2865e+02	-11.5072	-41.909506	0.000466	4.661003	1.579191	-0.000187
1295	1.2875e+02	-11.5521	-42.192106	0.000709	7.092831	2.403116	-0.000284
1296	1.2885e+02	-11.5922	-42.337442	0.000365	3.647742	1.235888	-0.000146
1297	1.2895e+02	-11.6403	-42.620042	0.000709	7.092831	2.403116	-0.000284
1298	1.2905e+02	-11.6628	-42.842084	0.000557	5.572939	1.888163	-0.000223
1299	1.2915e+02	-11.7125	-43.116610	0.000689	6.890179	2.334456	-0.000276
1300	1.2925e+02	-11.7462	-43.318466	0.000507	5.066308	1.716512	-0.000203
1301	1.2935e+02	-11.7927	-43.552620	0.000588	5.876917	1.991154	-0.000235
1302	1.2945e+02	-11.8344	-43.819071	0.000669	6.687527	2.265795	-0.000268
1303	1.2955e+02	-11.8729	-44.041114	0.000557	5.572939	1.888163	-0.000223
1304	1.2965e+02	-11.9114	-44.291416	0.000628	6.282222	2.128474	-0.000252
1305	1.2975e+02	-11.9435	-44.509422	0.000547	5.471613	1.853833	-0.000219
1306	1.2985e+02	-11.9916	-44.759724	0.000628	6.282222	2.128474	-0.000252
1307	1.2995e+02	-12.0269	-45.014063	0.000638	6.383548	2.162805	-0.000256
1308	1.3005e+02	-12.0767	-45.268403	0.000638	6.383548	2.162805	-0.000256
1309	1.3015e+02	-12.1104	-45.478334	0.000527	5.268960	1.785172	-0.000211
1310	1.3025e+02	-12.1617	-45.724599	0.000618	6.180896	2.094144	-0.000248
1311	1.3034e+02	-12.1970	-45.958753	0.000588	5.876917	1.991154	-0.000235
1312	1.3044e+02	-12.2355	-46.200981	0.000608	6.079570	2.059814	-0.000243
1313	1.3054e+02	-12.2740	-46.447247	0.000618	6.180896	2.094144	-0.000248
1314	1.3064e+02	-12.3077	-46.713698	0.000669	6.687527	2.265795	-0.000268
1315	1.3074e+02	-12.3478	-46.955926	0.000608	6.079570	2.059814	-0.000243
1316	1.3084e+02	-12.3927	-47.230451	0.000689	6.890179	2.334456	-0.000276
1317	1.3094e+02	-12.4360	-47.452493	0.000557	5.572939	1.888163	-0.000223
1318	1.3104e+02	-12.4809	-47.714907	0.000659	6.586201	2.231465	-0.000264
1319	1.3114e+02	-12.5066	-47.953098	0.000598	5.978244	2.025484	-0.000239
1320	1.3124e+02	-12.5451	-48.207438	0.000638	6.383548	2.162805	-0.000256
1321	1.3134e+02	-12.5932	-48.445629	0.000598	5.978244	2.025484	-0.000239
1322	1.3144e+02	-12.6221	-48.752451	0.000770	7.700788	2.609098	-0.000308
1323	1.3154e+02	-12.6606	-48.994679	0.000608	6.079570	2.059814	-0.000243
1324	1.3164e+02	-12.7055	-49.236907	0.000608	6.079570	2.059814	-0.000243
1325	1.3174e+02	-12.7408	-49.479136	0.000608	6.079570	2.059814	-0.000243
1326	1.3184e+02	-12.8018	-49.757698	0.000699	6.991505	2.368786	-0.000280
1327	1.3194e+02	-12.8307	-49.979740	0.000557	5.572939	1.888163	-0.000223
1328	1.3204e+02	-12.8659	-50.270414	0.000730	7.295484	2.471777	-0.000292
1329	1.3214e+02	-12.9061	-50.500531	0.000578	5.775591	1.956823	-0.000231
1330	1.3224e+02	-12.9430	-50.766982	0.000669	6.687527	2.265795	-0.000268
1331	1.3234e+02	-12.9782	-51.045544	0.000699	6.991505	2.368786	-0.000280
1332	1.3243e+02	-13.0167	-51.307958	0.000659	6.586201	2.231465	-0.000264
1333	1.3253e+02	-13.0761	-51.509815	0.000507	5.066308	1.716512	-0.000203
1334	1.3263e+02	-13.1002	-51.780303	0.000679	6.788853	2.300126	-0.000272
1335	1.3273e+02	-13.1563	-52.079051	0.000750	7.498136	2.540437	-0.000300
1336	1.3283e+02	-13.1820	-52.365688	0.000719	7.194158	2.437447	-0.000288
1337	1.3293e+02	-13.2221	-52.587730	0.000557	5.572939	1.888163	-0.000223
1338	1.3303e+02	-13.2654	-52.886478	0.000750	7.498136	2.540437	-0.000300
1339	1.3313e+02	-13.3055	-53.156966	0.000679	6.788853	2.300126	-0.000272
1340	1.3323e+02	-13.3440	-53.431491	0.000689	6.890179	2.334456	-0.000276
1341	1.3333e+02	-13.3873	-53.685831	0.000638	6.383548	2.162805	-0.000256
1342	1.3343e+02	-13.4274	-53.936133	0.000628	6.282222	2.128474	-0.000252
1343	1.3353e+02	-13.4707	-54.214696	0.000699	6.991505	2.368786	-0.000280
1344	1.3363e+02	-13.5076	-54.456924	0.000608	6.079570	2.059814	-0.000243
1345	1.3373e+02	-13.5429	-54.792006	0.000841	8.410071	2.849409	-0.000337
1346	1.3383e+02	-13.5782	-55.018086	0.000567	5.674265	1.922493	-0.000227
1347	1.3393e+02	-13.6231	-55.316834	0.000750	7.498136	2.540437	-0.000300
1348	1.3403e+02	-13.6649	-55.595396	0.000699	6.991505	2.368786	-0.000280
1349	1.3413e+02	-13.6985	-55.890107	0.000740	7.396810	2.506107	-0.000296
1350	1.3423e+02	-13.7451	-56.116187	0.000567	5.674265	1.922493	-0.000227
1351	1.3432e+02	-13.7852	-56.427046	0.000780	7.802115	2.643428	-0.000312
1352	1.3442e+02	-13.8205	-56.725794	0.000750	7.498136	2.540437	-0.000300
1353	1.3452e+02	-13.8654	-57.008394	0.000709	7.092831	2.403116	-0.000284
1354	1.3462e+02	-13.9087	-57.278882	0.000679	6.788853	2.300126	-0.000272
1355	1.3472e+02	-13.9424	-57.504961	0.000567	5.674265	1.922493	-0.000227
1356	1.3482e+02	-13.9841	-57.864267	0.000902	9.018028	3.055391	-0.000361
1357	1.3492e+02	-14.0258	-58.122643	0.000648	6.484874	2.197135	-0.000260
1358	1.3502e+02	-14.0739	-58.445614	0.000811	8.106093	2.746419	-0.000325
1359	1.3512e+02	-14.1044	-58.760511	0.000790	7.903441	2.677758	-0.000316
1360	1.3522e+02	-14.1429	-59.055222	0.000740	7.396810	2.506107	-0.000296
1361	1.3532e+02	-14.1814	-59.321673	0.000669	6.687527	2.265795	-0.000268
1362	1.3542e+02	-14.2279	-59.660792	0.000851	8.511398	2.883740	-0.000341
1363	1.3552e+02	-14.2632	-59.939354	0.000699	6.991505	2.368786	-0.000280
1364	1.3562e+02	-14.3017	-60.234065	0.000740	7.396810	2.506107	-0.000296
1365	1.3572e+02	-14.3450	-60.548962	0.000790	7.903441	2.677758	-0.000316
1366	1.3582e+02	-14.3739	-60.880007	0.000831	8.308745	2.815079	-0.000333
1367	1.3592e+02	-14.4253	-61.162606	0.000709	7.092831	2.403116	-0.000284
1368	1.3602e+02	-14.4590	-61.509800	0.000871	8.714050	2.952400	-0.000349
1369	1.3612e+02	-14.5039	-61.764140	0.000638	6.383548	2.162805	-0.000256
1370	1.3622e+02	-14.5424	-62.099222	0.000841	8.410071	2.849409	-0.000337
1371	1.3631e+02	-14.5873	-62.414119	0.000790	7.903441	2.677758	-0.000316
1372	1.3641e+02	-14.6162	-62.729015	0.000790	7.903441	2.677758	-0.000316
1373	1.3651e+02	-14.6515	-63.015652	0.000719	7.194158	2.437447	-0.000288
1374	1.3661e+02	-14.6996	-63.370920	0.000892	8.916702	3.021061	-0.000357
1375	1.3671e+02	-14.7317	-63.677742	0.000770	7.700788	2.609098	-0.000308
1376	1.3681e+02	-14.7878	-64.004750	0.000821	8.207419	2.780749	-0.000329
1377	1.3691e+02	-14.8183	-64.355981	0.000882	8.815376	2.986730	-0.000353
1378	1.3701e+02	-14.8616	-64.626469	0.000679	6.788853	2.300126	-0.000272
1379	1.3711e+02	-14.8873	-64.969625	0.000861	8.612724	2.918070	-0.000345
1380	1.3721e+02	-14.9386	-65.264336	0.000740	7.396810	2.506107	-0.000296
1381	1.3731e+02	-14.9851	-65.643827	0.000952	9.524659	3.227042	-0.000381
1382	1.3741e+02	-15.0365	-65.958724	0.000790	7.903441	2.677758	-0.000316
1383	1.3751e+02	-15.0477	-66.313992	0.000892	8.916702	3.021061	-0.000357
1384	1.3761e+02	-15.1006	-66.636962	0.000811	8.106093	2.746419	-0.000325
1385	1.3771e+02	-15.1375	-66.988193	0.000882	8.815376	2.986730	-0.000353
1386	1.3781e+02	-15.1760	-67.307127	0.000800	8.004767	2.712088	-0.000321
1387	1.3791e+02	-15.2194	-67.650284	0.000861	8.612724	2.918070	-0.000345
1388	1.3801e+02	-15.2546	-67.969217	0.000800	8.004767	2.712088	-0.000321
1389	1.3811e+02	-15.2948	-68.364857	0.000993	9.929964	3.364363	-0.000398
1390	1.3821e+02	-15.3365	-68.716087	0.000882	8.815376	2.986730	-0.000353
1391	1.3831e+02	-15.3830	-69.030984	0.000790	7.903441	2.677758	-0.000316
1392	1.3840e+02	-15.4183	-69.382215	0.000882	8.815376	2.986730	-0.000353
1393	1.3850e+02	-15.4472	-69.761706	0.000952	9.524659	3.227042	-0.000381
1394	1.3860e+02	-15.5049	-70.104862	0.000861	8.612724	2.918070	-0.000345
1395	1.3870e+02	-15.5386	-70.452056	0.000871	8.714050	2.952400	-0.000349
1396	1.3880e+02	-15.5771	-70.819435	0.000922	9.220681	3.124051	-0.000369
1397	1.3890e+02	-15.6220	-71.182777	0.000912	9.119355	3.089721	-0.000365
1398	1.3900e+02	-15.6605	-71.586491	0.001013	10.132616	3.433023	-0.000406
1399	1.3910e+02	-15.6990	-71.917536	0.000831	8.308745	2.815079	-0.000333
1400	1.3920e+02	-15.7359	-72.276841	0.000902	9.018028	3.055391	-0.000361
1401	1.3930e+02	-15.7889	-72.660369	0.000963	9.625985	3.261372	-0.000385
1402	1.3940e+02	-15.8193	-73.007563	0.000871	8.714050	2.952400	-0.000349
1403	1.3950e+02	-15.8546	-73.383016	0.000942	9.423333	3.192712	-0.000377
1404	1.3960e+02	-15.9028	-73.778656	0.000993	9.929964	3.364363	-0.000398
1405	1.3970e+02	-15.9332	-74.109701	0.000831	8.308745	2.815079	-0.000333
1406	1.3980e+02	-15.9766	-74.533600	0.001064	10.639247	3.604674	-0.000426
1407	1.3990e+02	-16.0183	-74.896942	0.000912	9.119355	3.089721	-0.000365
1408	1.4000e+02	-16.0487	-75.296619	0.001003	10.031290	3.398693	-0.000402
1409	1.4010e+02	-16.0985	-75.712444	0.001044	10.436595	3.536014	-0.000418
1410	1.4020e+02	-16.1322	-76.079823	0.000922	9.220681	3.124051	-0.000369
1411	1.4029e+02	-16.1675	-76.451239	0.000932	9.322007	3.158381	-0.000373
1412	1.4039e+02	-16.2092	-76.899362	0.001125	11.247204	3.810656	-0.000450
1413	1.4049e+02	-16.2509	-77.262704	0.000912	9.119355	3.089721	-0.000365
1414	1.4059e+02	-16.3070	-77.718900	0.001145	11.449856	3.879316	-0.000458
1415	1.4069e+02	-16.3327	-78.106465	0.000973	9.727312	3.295702	-0.000390
1416	1.4079e+02	-16.3760	-78.514216	0.001023	10.233942	3.467354	-0.000410
1417	1.4089e+02	-16.4161	-78.934078	0.001054	10.537921	3.570344	-0.000422
1418	1.4099e+02	-16.4594	-79.329717	0.000993	9.929964	3.364363	-0.000398
1419	1.4109e+02	-16.4931	-79.721319	0.000983	9.828638	3.330033	-0.000394
1420	1.4119e+02	-16.5332	-80.141182	0.001054	10.537921	3.570344	-0.000422
1421	1.4129e+02	-16.5701	-80.597378	0.001145	11.449856	3.879316	-0.000458
1422	1.4139e+02	-16.6118	-80.997054	0.001003	10.031290	3.398693	-0.000402
1423	1.4149e+02	-16.6551	-81.437102	0.001104	11.044552	3.741995	-0.000442
1424	1.4159e+02	-16.6985	-81.889261	0.001135	11.348530	3.844986	-0.000454
1425	1.4169e+02	-16.7273	-82.317198	0.001074	10.740573	3.639005	-0.000430
1426	1.4179e+02	-16.7787	-82.749171	0.001084	10.841899	3.673335	-0.000434
1427	1.4189e+02	-16.8172	-83.169033	0.001054	10.537921	3.570344	-0.000422
1428	1.4199e+02	-16.8396	-83.637341	0.001175	11.753835	3.982307	-0.000471
1429	1.4209e+02	-16.8974	-84.085463	0.001125	11.247204	3.810656	-0.000450
1430	1.4219e+02	-16.9263	-84.541659	0.001145	11.449856	3.879316	-0.000458
1431	1.4228e+02	-16.9648	-85.038227	0.001246	12.463118	4.222619	-0.000499
1432	1.4238e+02	-17.0049	-85.474238	0.001094	10.943226	3.707665	-0.000438
1433	1.4248e+02	-17.0530	-85.861803	0.000973	9.727312	3.295702	-0.000390
1434	1.4258e+02	-17.0995	-86.346259	0.001216	12.159140	4.119628	-0.000487
1435	1.4268e+02	-17.1316	-86.850901	0.001267	12.665770	4.291279	-0.000507
1436	1.4278e+02	-17.1701	-87.278838	0.001074	10.740573	3.639005	-0.000430
1437	1.4288e+02	-17.2134	-87.747145	0.001175	11.753835	3.982307	-0.000471
1438	1.4298e+02	-17.2535	-88.239676	0.001236	12.361792	4.188288	-0.000495
1439	1.4308e+02	-17.2936	-88.712021	0.001186	11.855161	4.016637	-0.000475
1440	1.4318e+02	-17.3321	-89.212626	0.001256	12.564444	4.256949	-0.000503
1441	1.4328e+02	-17.3787	-89.680933	0.001175	11.753835	3.982307	-0.000471
1442	1.4338e+02	-17.4091	-90.141167	0.001155	11.551183	3.913647	-0.000463
1443	1.4348e+02	-17.4508	-90.653883	0.001287	12.868423	4.359940	-0.000515
1444	1.4358e+02	-17.4926	-91.166599	0.001287	12.868423	4.359940	-0.000515
1445	1.4368e+02	-17.5327	-91.655093	0.001226	12.260466	4.153958	-0.000491
1446	1.4378e+02	-17.5728	-92.139549	0.001216	12.159140	4.119628	-0.000487
1447	1.4388e+02	-17.6161	-92.603820	0.001165	11.652509	3.947977	-0.000467
1448	1.4398e+02	-17.6466	-93.128647	0.001317	13.172401	4.462930	-0.000527
1449	1.4408e+02	-17.6802	-93.673661	0.001368	13.679032	4.634581	-0.000548
1450	1.4418e+02	-17.7300	-94.182340	0.001277	12.767096	4.325609	-0.000511
1451	1.4428e+02	-17.7749	-94.739464	0.001398	13.983010	4.737572	-0.000560
1452	1.4437e+02	-17.8006	-95.175475	0.001094	10.943226	3.707665	-0.000438
1453	1.4447e+02	-17.8471	-95.728563	0.001388	13.881684	4.703242	-0.000556
1454	1.4457e+02	-17.8888	-96.285687	0.001398	13.983010	4.737572	-0.000560
1455	1.4467e+02	-17.9273	-96.790329	0.001267	12.665770	4.291279	-0.000507
1456	1.4477e+02	-17.9674	-97.299008	0.001277	12.767096	4.325609	-0.000511
1457	1.4487e+02	-18.0107	-97.848059	0.001378	13.780358	4.668912	-0.000552
1458	1.4497e+02	-18.0284	-98.401146	0.001388	13.881684	4.703242	-0.000556
1459	1.4507e+02	-18.0925	-98.921937	0.001307	13.071075	4.428600	-0.000523
1460	1.4517e+02	-18.1198	-99.567879	0.001621	16.212186	5.492837	-0.000649
1461	1.4527e+02	-18.1631	-100.084632	0.001297	12.969749	4.394270	-0.000519
1462	1.4537e+02	-18.2096	-100.665980	0.001459	14.590967	4.943554	-0.000584
1463	1.4547e+02	-18.2433	-101.210993	0.001368	13.679032	4.634581	-0.000548
1464	1.4557e+02	-18.2931	-101.796378	0.001469	14.692294	4.977884	-0.000588
1465	1.4567e+02	-18.3219	-102.325242	0.001327	13.273727	4.497261	-0.000532
1466	1.4577e+02	-18.3701	-102.942924	0.001550	15.502903	5.252526	-0.000621
1467	1.4587e+02	-18.4022	-103.508123	0.001419	14.185663	4.806233	-0.000568
1468	1.4597e+02	-18.4423	-104.113694	0.001520	15.198924	5.149535	-0.000609
1469	1.4607e+02	-18.4776	-104.703115	0.001479	14.793620	5.012214	-0.000592
1470	1.4617e+02	-18.5289	-105.296574	0.001489	14.894946	5.046544	-0.000596
1471	1.4626e+02	-18.5626	-105.881959	0.001469	14.692294	4.977884	-0.000588
1472	1.4636e+02	-18.6091	-106.515789	0.001591	15.908208	5.389847	-0.000637
1473	1.4646e+02	-18.6492	-107.105211	0.001479	14.793620	5.012214	-0.000592
1474	1.4656e+02	-18.6941	-107.730967	0.001571	15.705555	5.321186	-0.000629
1475	1.4666e+02	-18.7294	-108.336538	0.001520	15.198924	5.149535	-0.000609
1476	1.4676e+02	-18.7647	-108.950182	0.001540	15.401577	5.218195	-0.000617
1477	1.4686e+02	-18.8032	-109.563827	0.001540	15.401577	5.218195	-0.000617
1478	1.4696e+02	-18.8465	-110.181509	0.001550	15.502903	5.252526	-0.000621
1479	1.4706e+02	-18.8866	-110.855710	0.001692	16.921469	5.733149	-0.000678
1480	1.4716e+02	-18.9267	-111.505689	0.001631	16.313512	5.527168	-0.000653
1481	1.4726e+02	-18.9717	-112.107222	0.001510	15.097598	5.115205	-0.000605
1482	1.4736e+02	-18.9973	-112.785461	0.001702	17.022795	5.767479	-0.000682
1483	1.4746e+02	-19.0503	-113.439477	0.001641	16.414838	5.561498	-0.000657
1484	1.4756e+02	-19.0872	-114.117716	0.001702	17.022795	5.767479	-0.000682
1485	1.4766e+02	-19.1192	-114.723286	0.001520	15.198924	5.149535	-0.000609
1486	1.4776e+02	-19.1626	-115.409599	0.001723	17.225448	5.836140	-0.000690
1487	1.4786e+02	-19.2059	-116.103987	0.001743	17.428100	5.904800	-0.000698
1488	1.4796e+02	-19.2428	-116.733780	0.001581	15.806881	5.355516	-0.000633
1489	1.4806e+02	-19.2877	-117.464501	0.001834	18.340035	6.213772	-0.000734
1490	1.4816e+02	-19.3262	-118.138703	0.001692	16.921469	5.733149	-0.000678
1491	1.4825e+02	-19.3647	-118.804830	0.001672	16.718817	5.664488	-0.000669
1492	1.4835e+02	-19.4000	-119.531515	0.001824	18.238709	6.179442	-0.000730
1493	1.4845e+02	-19.4401	-120.233977	0.001763	17.630752	5.973461	-0.000706
1494	1.4855e+02	-19.4706	-120.952587	0.001804	18.036057	6.110782	-0.000722
1495	1.4865e+02	-19.5251	-121.663123	0.001783	17.833405	6.042121	-0.000714
1496	1.4875e+02	-19.5556	-122.393844	0.001834	18.340035	6.213772	-0.000734
1497	1.4885e+02	-19.6037	-123.124566	0.001834	18.340035	6.213772	-0.000734
1498	1.4895e+02	-19.6390	-123.843176	0.001804	18.036057	6.110782	-0.000722
1499	1.4905e+02	-19.6679	-124.553712	0.001783	17.833405	6.042121	-0.000714
1500	1.4915e+02	-19.7160	-125.332879	0.001956	19.555949	6.625735	-0.000783
1501	1.4925e+02	-19.7609	-126.083786	0.001885	18.846666	6.385423	-0.000755
1502	1.4935e+02	-19.8123	-126.838731	0.001895	18.947992	6.419754	-0.000759
1503	1.4945e+02	-19.8412	-127.577526	0.001854	18.542688	6.282433	-0.000743
1504	1.4955e+02	-19.8877	-128.340545	0.001915	19.150645	6.488414	-0.000767
1505	1.4965e+02	-19.9182	-129.071267	0.001834	18.340035	6.213772	-0.000734
1506	1.4975e+02	-19.9567	-129.838322	0.001925	19.251971	6.522744	-0.000771
1507	1.4985e+02	-20.0032	-130.641712	0.002016	20.163906	6.831716	-0.000807
1508	1.4995e+02	-19.9422	-131.069649	-0.001074	-10.740573	-3.639005	-0.000430
1509	1.5005e+02	-19.9182	-131.558142	-0.001226	-12.260466	-4.153958	-0.000491
1510	1.5015e+02	-19.8764	-131.905336	-0.000871	-8.714050	-2.952400	-0.000349
1511	1.5025e+02	-19.8395	-132.325198	-0.001054	-10.537921	-3.570344	-0.000422
1512	1.5034e+02	-19.7978	-132.636058	-0.000780	-7.802115	-2.643428	-0.000312
1513	1.5044e+02	-19.7625	-132.938843	-0.000760	-7.599462	-2.574767	-0.000304
1514	1.5054e+02	-19.7273	-133.221442	-0.000709	-7.092831	-2.403116	-0.000284
1515	1.5064e+02	-19.6775	-133.495967	-0.000689	-6.890179	-2.334456	-0.000276
1516	1.5074e+02	-19.6326	-133.762418	-0.000669	-6.687527	-2.265795	-0.000268
1517	1.5084e+02	-19.5957	-133.968312	-0.000517	-5.167634	-1.750842	-0.000207
1518	1.5094e+02	-19.5604	-134.129798	-0.000405	-4.053047	-1.373209	-0.000162
1519	1.5104e+02	-19.5155	-134.388174	-0.000648	-6.484874	-2.197135	-0.000260
1520	1.5114e+02	-19.4770	-134.525437	-0.000345	-3.445090	-1.167228	-0.000138
1521	1.5124e+02	-19.4433	-134.682885	-0.000395	-3.951720	-1.338879	-0.000158
1522	1.5134e+02	-19.4000	-134.844371	-0.000405	-4.053047	-1.373209	-0.000162
1523	1.5144e+02	-19.3503	-134.985671	-0.000355	-3.546416	-1.201558	-0.000142
1524	1.5154e+02	-19.3294	-135.090636	-0.000263	-2.634480	-0.892586	-0.000105
1525	1.5164e+02	-19.2781	-135.244047	-0.000385	-3.850394	-1.304549	-0.000154
1526	1.5174e+02	-19.2540	-135.320753	-0.000193	-1.925197	-0.652274	-0.000077
1527	1.5184e+02	-19.2011	-135.441867	-0.000304	-3.039785	-1.029907	-0.000122
1528	1.5194e+02	-19.1561	-135.506461	-0.000162	-1.621219	-0.549284	-0.000065
1529	1.5204e+02	-19.1273	-135.518572	-0.000030	-0.303978	-0.102991	-0.000012
1530	1.5214e+02	-19.0856	-135.639687	-0.000304	-3.039785	-1.029907	-0.000122
1531	1.5224e+02	-19.0358	-135.639687	0.000000	0.000000	0.000000	0.000000
1532	1.5233e+02	-19.0005	-135.752726	-0.000284	-2.837133	-0.961247	-0.000114
1533	1.5243e+02	-18.9636	-135.756763	-0.000010	-0.101326	-0.034330	-0.000004
1534	1.5253e+02	-18.9219	-135.768875	-0.000030	-0.303978	-0.102991	-0.000012
1535	1.5263e+02	-18.8786	-135.780986	-0.000030	-0.303978	-0.102991	-0.000012
1536	1.5273e+02	-18.8449	-135.841543	-0.000152	-1.519892	-0.514953	-0.000061
1537	1.5283e+02	-18.8016	-135.865766	-0.000061	-0.607957	-0.205981	-0.000024
1538	1.5293e+02	-18.7679	-135.869803	-0.000010	-0.101326	-0.034330	-0.000004
1539	1.5303e+02	-18.7246	-135.837506	0.000081	0.810609	0.274642	0.000032
1540	1.5313e+02	-18.6909	-135.898063	-0.000152	-1.519892	-0.514953	-0.000061
1541	1.5323e+02	-18.6412	-135.825395	0.000182	1.823871	0.617944	0.000073
1542	1.5333e+02	-18.6027	-135.809246	0.000041	0.405305	0.137321	0.000016
1543	1.5343e+02	-18.5658	-135.805209	0.000010	0.101326	0.034330	0.000004
1544	1.5353e+02	-18.5337	-135.793098	0.000030	0.303978	0.102991	0.000012
1545	1.5363e+02	-18.4840	-135.752726	0.000101	1.013262	0.343302	0.000041
1546	1.5373e+02	-18.4439	-135.728504	0.000061	0.607957	0.205981	0.000024
1547	1.5383e+02	-18.4006	-135.663909	0.000162	1.621219	0.549284	0.000065
1548	1.5393e+02	-18.3669	-135.611427	0.000132	1.317240	0.446293	0.000053
1549	1.5403e+02	-18.3203	-135.575092	0.000091	0.911935	0.308972	0.000037
1550	1.5413e+02	-18.2963	-135.522610	0.000132	1.317240	0.446293	0.000053
1551	1.5422e+02	-18.2433	-135.478201	0.000111	1.114588	0.377633	0.000045
1552	1.5432e+02	-18.2096	-135.433793	0.000111	1.114588	0.377633	0.000045
1553	1.5442e+02	-18.1695	-135.401496	0.000081	0.810609	0.274642	0.000032
1554	1.5452e+02	-18.1375	-135.304604	0.000243	2.431828	0.823926	0.000097
1555	1.5462e+02	-18.0861	-135.268270	0.000091	0.911935	0.308972	0.000037
1556	1.5472e+02	-18.0524	-135.195602	0.000182	1.823871	0.617944	0.000073
1557	1.5482e+02	-18.0107	-135.110822	0.000213	2.127849	0.720935	0.000085
1558	1.5492e+02	-17.9722	-135.013930	0.000243	2.431828	0.823926	0.000097
1559	1.5502e+02	-17.9273	-134.965485	0.000122	1.215914	0.411963	0.000049
1560	1.5512e+02	-17.8840	-134.880705	0.000213	2.127849	0.720935	0.000085
1561	1.5522e+02	-17.8567	-134.840334	0.000101	1.013262	0.343302	0.000041
1562	1.5532e+02	-17.8054	-134.735368	0.000263	2.634480	0.892586	0.000105
1563	1.5542e+02	-17.7717	-134.634440	0.000253	2.533154	0.858256	0.000101
1564	1.5552e+02	-17.7348	-134.553697	0.000203	2.026523	0.686605	0.000081
1565	1.5562e+02	-17.6802	-134.493140	0.000152	1.519892	0.514953	0.000061
1566	1.5572e+02	-17.6498	-134.396249	0.000243	2.431828	0.823926	0.000097
1567	1.5582e+02	-17.6161	-134.319543	0.000193	1.925197	0.652274	0.000077
1568	1.5592e+02	-17.5792	-134.234763	0.000213	2.127849	0.720935	0.000085
1569	1.5602e+02	-17.5343	-134.182281	0.000132	1.317240	0.446293	0.000053
1570	1.5612e+02	-17.4926	-134.065204	0.000294	2.938459	0.995577	0.000118
1571	1.5622e+02	-17.4524	-133.972349	0.000233	2.330502	0.789595	0.000093
1572	1.5631e+02	-17.4139	-133.810864	0.000405	4.053047	1.373209	0.000162
1573	1.5641e+02	-17.3658	-133.750307	0.000152	1.519892	0.514953	0.000061
1574	1.5651e+02	-17.3337	-133.641304	0.000274	2.735806	0.926916	0.000110
1575	1.5661e+02	-17.2936	-133.588822	0.000132	1.317240	0.446293	0.000053
1576	1.5671e+02	-17.2391	-133.443485	0.000365	3.647742	1.235888	0.000146
1577	1.5681e+02	-17.2150	-133.342556	0.000253	2.533154	0.858256	0.000101
1578	1.5691e+02	-17.1685	-133.245665	0.000243	2.431828	0.823926	0.000097
1579	1.5701e+02	-17.1380	-133.112440	0.000334	3.343763	1.132898	0.000134
1580	1.5711e+02	-17.0835	-133.043808	0.000172	1.722545	0.583614	0.000069
1581	1.5721e+02	-17.0482	-132.942880	0.000253	2.533154	0.858256	0.000101
1582	1.5731e+02	-17.0193	-132.797543	0.000365	3.647742	1.235888	0.000146
1583	1.5741e+02	-16.9744	-132.692577	0.000263	2.634480	0.892586	0.000105
1584	1.5751e+02	-16.9214	-132.559352	0.000334	3.343763	1.132898	0.000134
1585	1.5761e+02	-16.8942	-132.458424	0.000253	2.533154	0.858256	0.000101
1586	1.5771e+02	-16.8541	-132.409978	0.000122	1.215914	0.411963	0.000049
1587	1.5781e+02	-16.8140	-132.272715	0.000345	3.445090	1.167228	0.000138
1588	1.5791e+02	-16.7706	-132.171787	0.000253	2.533154	0.858256	0.000101
1589	1.5801e+02	-16.7289	-132.062784	0.000274	2.735806	0.926916	0.000110
1590	1.5811e+02	-16.6888	-131.965893	0.000243	2.431828	0.823926	0.000097
1591	1.5821e+02	-16.6503	-131.828630	0.000345	3.445090	1.167228	0.000138
1592	1.5830e+02	-16.6086	-131.699442	0.000324	3.242437	1.098567	0.000130
1593	1.5840e+02	-16.5669	-131.634848	0.000162	1.621219	0.549284	0.000065
1594	1.5850e+02	-16.5412	-131.481437	0.000385	3.850394	1.304549	0.000154
1595	1.5860e+02	-16.4915	-131.372434	0.000274	2.735806	0.926916	0.000110
1596	1.5870e+02	-16.4418	-131.227097	0.000365	3.647742	1.235888	0.000146
1597	1.5880e+02	-16.4065	-131.138280	0.000223	2.229176	0.755265	0.000089
1598	1.5890e+02	-16.3728	-131.013129	0.000314	3.141111	1.064237	0.000126
1599	1.5900e+02	-16.3295	-130.908163	0.000263	2.634480	0.892586	0.000105
1600	1.5910e+02	-16.2958	-130.770901	0.000345	3.445090	1.167228	0.000138
1601	1.5920e+02	-16.2525	-130.698232	0.000182	1.823871	0.617944	0.000073
1602	1.5930e+02	-16.2108	-130.520598	0.000446	4.458351	1.510530	0.000179
1603	1.5940e+02	-16.1803	-130.443893	0.000193	1.925197	0.652274	0.000077
1604	1.5950e+02	-16.1290	-130.306630	0.000345	3.445090	1.167228	0.000138
1605	1.5960e+02	-16.0937	-130.165330	0.000355	3.546416	1.201558	0.000142
1606	1.5970e+02	-16.0536	-130.084588	0.000203	2.026523	0.686605	0.000081
1607	1.5980e+02	-16.0167	-129.951362	0.000334	3.343763	1.132898	0.000134
1608	1.5990e+02	-15.9637	-129.785840	0.000415	4.154373	1.407540	0.000166
1609	1.6000e+02	-15.9381	-129.709134	0.000193	1.925197	0.652274	0.000077
1610	1.6010e+02	-15.8915	-129.559760	0.000375	3.749068	1.270219	0.000150
1611	1.6019e+02	-15.8594	-129.386163	0.000436	4.357025	1.476200	0.000174
1612	1.6029e+02	-15.8145	-129.309458	0.000193	1.925197	0.652274	0.000077
1613	1.6039e+02	-15.7776	-129.212566	0.000243	2.431828	0.823926	0.000097
1614	1.6049e+02	-15.7327	-129.043007	0.000426	4.255699	1.441870	0.000170
1615	1.6059e+02	-15.7022	-128.913818	0.000324	3.242437	1.098567	0.000130
1616	1.6069e+02	-15.6477	-128.808853	0.000263	2.634480	0.892586	0.000105
1617	1.6079e+02	-15.6188	-128.667553	0.000355	3.546416	1.201558	0.000142
1618	1.6089e+02	-15.5659	-128.542402	0.000314	3.141111	1.064237	0.000126
1619	1.6099e+02	-15.5306	-128.429362	0.000284	2.837133	0.961247	0.000114
1620	1.6109e+02	-15.4905	-128.271914	0.000395	3.951720	1.338879	0.000158
1621	1.6119e+02	-15.4584	-128.134651	0.000345	3.445090	1.167228	0.000138
1622	1.6129e+02	-15.4199	-128.037760	0.000243	2.431828	0.823926	0.000097
1623	1.6139e+02	-15.3734	-127.900497	0.000345	3.445090	1.167228	0.000138
1624	1.6149e+02	-15.3300	-127.730938	0.000426	4.255699	1.441870	0.000170
1625	1.6159e+02	-15.2964	-127.638083	0.000233	2.330502	0.789595	0.000093
1626	1.6169e+02	-15.2530	-127.472561	0.000415	4.154373	1.407540	0.000166
1627	1.6179e+02	-15.2258	-127.363558	0.000274	2.735806	0.926916	0.000110
1628	1.6189e+02	-15.1825	-127.254556	0.000274	2.735806	0.926916	0.000110
1629	1.6199e+02	-15.1407	-127.089033	0.000415	4.154373	1.407540	0.000166
1630	1.6209e+02	-15.0974	-126.939659	0.000375	3.749068	1.270219	0.000150
1631	1.6219e+02	-15.0541	-126.790285	0.000375	3.749068	1.270219	0.000150
1632	1.6228e+02	-15.0156	-126.721654	0.000172	1.722545	0.583614	0.000069
1633	1.6238e+02	-14.9883	-126.556131	0.000415	4.154373	1.407540	0.000166
1634	1.6248e+02	-14.9386	-126.435017	0.000304	3.039785	1.029907	0.000122
1635	1.6258e+02	-14.8969	-126.265457	0.000426	4.255699	1.441870	0.000170
1636	1.6268e+02	-14.8616	-126.172603	0.000233	2.330502	0.789595	0.000093
1637	1.6278e+02	-14.8183	-126.019192	0.000385	3.850394	1.304549	0.000154
1638	1.6288e+02	-14.7782	-125.869818	0.000375	3.749068	1.270219	0.000150
1639	1.6298e+02	-14.7317	-125.732555	0.000345	3.445090	1.167228	0.000138
1640	1.6308e+02	-14.6964	-125.607404	0.000314	3.141111	1.064237	0.000126
1641	1.6318e+02	-14.6515	-125.514550	0.000233	2.330502	0.789595	0.000093
1642	1.6328e+02	-14.6146	-125.340953	0.000436	4.357025	1.476200	0.000174
1643	1.6338e+02	-14.5729	-125.231951	0.000274	2.735806	0.926916	0.000110
1644	1.6348e+02	-14.5424	-125.086614	0.000365	3.647742	1.235888	0.000146
1645	1.6358e+02	-14.4958	-124.921091	0.000415	4.154373	1.407540	0.000166
1646	1.6368e+02	-14.4606	-124.763643	0.000395	3.951720	1.338879	0.000158
1647	1.6378e+02	-14.4156	-124.674826	0.000223	2.229176	0.755265	0.000089
1648	1.6388e+02	-14.3771	-124.541600	0.000334	3.343763	1.132898	0.000134
1649	1.6398e+02	-14.3434	-124.355892	0.000466	4.661003	1.579191	0.000187
1650	1.6408e+02	-14.3001	-124.275149	0.000203	2.026523	0.686605	0.000081
1651	1.6418e+02	-14.2632	-124.141924	0.000334	3.343763	1.132898	0.000134
1652	1.6427e+02	-14.2247	-123.984476	0.000395	3.951720	1.338879	0.000158
1653	1.6437e+02	-14.1878	-123.827027	0.000395	3.951720	1.338879	0.000158
1654	1.6447e+02	-14.1445	-123.738210	0.000223	2.229176	0.755265	0.000089
1655	1.6457e+02	-14.1076	-123.564614	0.000436	4.357025	1.476200	0.000174
1656	1.6467e+02	-14.0659	-123.415240	0.000375	3.749068	1.270219	0.000150
1657	1.6477e+02	-14.0226	-123.306237	0.000274	2.735806	0.926916	0.000110
1658	1.6487e+02	-13.9793	-123.144751	0.000405	4.053047	1.373209	0.000162
1659	1.6497e+02	-13.9328	-123.035749	0.000274	2.735806	0.926916	0.000110
1660	1.6507e+02	-13.9055	-122.858115	0.000446	4.458351	1.510530	0.000179
1661	1.6517e+02	-13.8686	-122.696629	0.000405	4.053047	1.373209	0.000162
1662	1.6527e+02	-13.8301	-122.559367	0.000345	3.445090	1.167228	0.000138
1663	1.6537e+02	-13.7868	-122.446327	0.000284	2.837133	0.961247	0.000114
1664	1.6547e+02	-13.7499	-122.292916	0.000385	3.850394	1.304549	0.000154
1665	1.6557e+02	-13.7034	-122.135467	0.000395	3.951720	1.338879	0.000158
1666	1.6567e+02	-13.6729	-122.018391	0.000294	2.938459	0.995577	0.000118
1667	1.6577e+02	-13.6231	-121.864979	0.000385	3.850394	1.304549	0.000154
1668	1.6587e+02	-13.5862	-121.723680	0.000355	3.546416	1.201558	0.000142
1669	1.6597e+02	-13.5429	-121.610640	0.000284	2.837133	0.961247	0.000114
1670	1.6607e+02	-13.4948	-121.420894	0.000476	4.762330	1.613521	0.000191
1671	1.6616e+02	-13.4772	-121.291706	0.000324	3.242437	1.098567	0.000130
1672	1.6626e+02	-13.4226	-121.154443	0.000345	3.445090	1.167228	0.000138
1673	1.6636e+02	-13.3825	-121.013144	0.000355	3.546416	1.201558	0.000142
1674	1.6646e+02	-13.3408	-120.879918	0.000334	3.343763	1.132898	0.000134
1675	1.6656e+02	-13.3071	-120.722470	0.000395	3.951720	1.338879	0.000158
1676	1.6666e+02	-13.2702	-120.548873	0.000436	4.357025	1.476200	0.000174
1677	1.6676e+02	-13.2221	-120.427759	0.000304	3.039785	1.029907	0.000122
1678	1.6686e+02	-13.1852	-120.278385	0.000375	3.749068	1.270219	0.000150
1679	1.6696e+02	-13.1499	-120.120937	0.000395	3.951720	1.338879	0.000158
1680	1.6706e+02	-13.1018	-119.991748	0.000324	3.242437	1.098567	0.000130
1681	1.6716e+02	-13.0697	-119.838337	0.000385	3.850394	1.304549	0.000154
1682	1.6726e+02	-13.0264	-119.693000	0.000365	3.647742	1.235888	0.000146
1683	1.6736e+02	-12.9815	-119.547663	0.000365	3.647742	1.235888	0.000146
1684	1.6746e+02	-12.9494	-119.414438	0.000334	3.343763	1.132898	0.000134
1685	1.6756e+02	-12.9044	-119.232767	0.000456	4.559677	1.544860	0.000183
1686	1.6766e+02	-12.8627	-119.123764	0.000274	2.735806	0.926916	0.000110
1687	1.6776e+02	-12.8226	-118.929982	0.000486	4.863656	1.647851	0.000195
1688	1.6786e+02	-12.7970	-118.820979	0.000274	2.735806	0.926916	0.000110
1689	1.6796e+02	-12.7472	-118.655456	0.000415	4.154373	1.407540	0.000166
1690	1.6806e+02	-12.7071	-118.498008	0.000395	3.951720	1.338879	0.000158
1691	1.6816e+02	-12.6638	-118.352671	0.000365	3.647742	1.235888	0.000146
1692	1.6825e+02	-12.6269	-118.195223	0.000395	3.951720	1.338879	0.000158
1693	1.6835e+02	-12.5980	-118.090257	0.000263	2.634480	0.892586	0.000105
1694	1.6845e+02	-12.5467	-117.944921	0.000365	3.647742	1.235888	0.000146
1695	1.6855e+02	-12.5050	-117.783435	0.000405	4.053047	1.373209	0.000162
1696	1.6865e+02	-12.4745	-117.638098	0.000365	3.647742	1.235888	0.000146
1697	1.6875e+02	-12.4232	-117.496799	0.000355	3.546416	1.201558	0.000142
1698	1.6885e+02	-12.3943	-117.335313	0.000405	4.053047	1.373209	0.000162
1699	1.6895e+02	-12.3478	-117.206125	0.000324	3.242437	1.098567	0.000130
1700	1.6905e+02	-12.3141	-117.024454	0.000456	4.559677	1.544860	0.000183
1701	1.6915e+02	-12.2692	-116.854894	0.000426	4.255699	1.441870	0.000170
1702	1.6925e+02	-12.2339	-116.790300	0.000162	1.621219	0.549284	0.000065
1703	1.6935e+02	-12.1938	-116.584406	0.000517	5.167634	1.750842	0.000207
1704	1.6945e+02	-12.1553	-116.426958	0.000395	3.951720	1.338879	0.000158
1705	1.6955e+02	-12.1023	-116.277584	0.000375	3.749068	1.270219	0.000150
1706	1.6965e+02	-12.0751	-116.148395	0.000324	3.242437	1.098567	0.000130
1707	1.6975e+02	-12.0317	-115.994984	0.000385	3.850394	1.304549	0.000154
1708	1.6985e+02	-11.9852	-115.829461	0.000415	4.154373	1.407540	0.000166
1709	1.6995e+02	-11.9563	-115.684125	0.000365	3.647742	1.235888	0.000146
1710	1.7005e+02	-11.9050	-115.583196	0.000253	2.533154	0.858256	0.000101
1711	1.7015e+02	-11.8729	-115.389414	0.000486	4.863656	1.647851	0.000195
1712	1.7024e+02	-11.8312	-115.240040	0.000375	3.749068	1.270219	0.000150
1713	1.7034e+02	-11.7943	-115.082591	0.000395	3.951720	1.338879	0.000158
1714	1.7044e+02	-11.7526	-114.900920	0.000456	4.559677	1.544860	0.000183
1715	1.7054e+02	-11.7221	-114.779806	0.000304	3.039785	1.029907	0.000122
1716	1.7064e+02	-11.6644	-114.626395	0.000385	3.850394	1.304549	0.000154
1717	1.7074e+02	-11.6259	-114.448761	0.000446	4.458351	1.510530	0.000179
1718	1.7084e+02	-11.5890	-114.303424	0.000365	3.647742	1.235888	0.000146
1719	1.7094e+02	-11.5553	-114.093493	0.000527	5.268960	1.785172	0.000211
1720	1.7104e+02	-11.5184	-114.016788	0.000193	1.925197	0.652274	0.000077
1721	1.7114e+02	-11.4687	-113.847228	0.000426	4.255699	1.441870	0.000170
1722	1.7124e+02	-11.4366	-113.673631	0.000436	4.357025	1.476200	0.000174
1723	1.7134e+02	-11.3981	-113.516183	0.000395	3.951720	1.338879	0.000158
1724	1.7144e+02	-11.3403	-113.318363	0.000496	4.964982	1.682181	0.000199
1725	1.7154e+02	-11.3098	-113.197249	0.000304	3.039785	1.029907	0.000122
1726	1.7164e+02	-11.2810	-113.039801	0.000395	3.951720	1.338879	0.000158
1727	1.7174e+02	-11.2264	-112.890427	0.000375	3.749068	1.270219	0.000150
1728	1.7184e+02	-11.1927	-112.741053	0.000375	3.749068	1.270219	0.000150
1729	1.7194e+02	-11.1558	-112.567456	0.000436	4.357025	1.476200	0.000174
1730	1.7204e+02	-11.1173	-112.397896	0.000426	4.255699	1.441870	0.000170
1731	1.7213e+02	-11.0820	-112.240448	0.000395	3.951720	1.338879	0.000158
1732	1.7223e+02	-11.0339	-112.103185	0.000345	3.445090	1.167228	0.000138
1733	1.7233e+02	-11.0018	-111.913440	0.000476	4.762330	1.613521	0.000191
1734	1.7243e+02	-10.9473	-111.776177	0.000345	3.445090	1.167228	0.000138
1735	1.7253e+02	-10.9216	-111.610655	0.000415	4.154373	1.407540	0.000166
1736	1.7263e+02	-10.8735	-111.441095	0.000426	4.255699	1.441870	0.000170
1737	1.7273e+02	-10.8398	-111.271535	0.000426	4.255699	1.441870	0.000170
1738	1.7283e+02	-10.7965	-111.130235	0.000355	3.546416	1.201558	0.000142
1739	1.7293e+02	-10.7548	-110.984899	0.000365	3.647742	1.235888	0.000146
1740	1.7303e+02	-10.7147	-110.791116	0.000486	4.863656	1.647851	0.000195
1741	1.7313e+02	-10.6762	-110.641742	0.000375	3.749068	1.270219	0.000150
1742	1.7323e+02	-10.6280	-110.520628	0.000304	3.039785	1.029907	0.000122
1743	1.7333e+02	-10.5944	-110.278400	0.000608	6.079570	2.059814	0.000243
1744	1.7343e+02	-10.5542	-110.185546	0.000233	2.330502	0.789595	0.000093
1745	1.7353e+02	-10.5174	-109.971578	0.000537	5.370287	1.819502	0.000215
1746	1.7363e+02	-10.4676	-109.862575	0.000274	2.735806	0.926916	0.000110
1747	1.7373e+02	-10.4420	-109.688978	0.000436	4.357025	1.476200	0.000174
1748	1.7383e+02	-10.3970	-109.543641	0.000365	3.647742	1.235888	0.000146
1749	1.7393e+02	-10.3553	-109.337747	0.000517	5.167634	1.750842	0.000207
1750	1.7403e+02	-10.3184	-109.152039	0.000466	4.661003	1.579191	0.000187
1751	1.7413e+02	-10.2783	-108.986516	0.000415	4.154373	1.407540	0.000166
1752	1.7422e+02	-10.2350	-108.812920	0.000436	4.357025	1.476200	0.000174
1753	1.7432e+02	-10.2077	-108.675657	0.000345	3.445090	1.167228	0.000138
1754	1.7442e+02	-10.1660	-108.522246	0.000385	3.850394	1.304549	0.000154
1755	1.7452e+02	-10.1179	-108.300203	0.000557	5.572939	1.888163	0.000223
1756	1.7462e+02	-10.0778	-108.199275	0.000253	2.533154	0.858256	0.000101
1757	1.7472e+02	-10.0313	-108.001455	0.000496	4.964982	1.682181	0.000199
1758	1.7482e+02	-10.0024	-107.815747	0.000466	4.661003	1.579191	0.000187
1759	1.7492e+02	-9.9559	-107.662336	0.000385	3.850394	1.304549	0.000154
1760	1.7502e+02	-9.9238	-107.512962	0.000375	3.749068	1.270219	0.000150
1761	1.7512e+02	-9.8805	-107.323216	0.000476	4.762330	1.613521	0.000191
1762	1.7522e+02	-9.8452	-107.165768	0.000395	3.951720	1.338879	0.000158
1763	1.7532e+02	-9.8051	-106.984097	0.000456	4.559677	1.544860	0.000183
1764	1.7542e+02	-9.7569	-106.850872	0.000334	3.343763	1.132898	0.000134
1765	1.7552e+02	-9.7168	-106.685349	0.000415	4.154373	1.407540	0.000166
1766	1.7562e+02	-9.6767	-106.491566	0.000486	4.863656	1.647851	0.000195
1767	1.7572e+02	-9.6382	-106.390638	0.000253	2.533154	0.858256	0.000101
1768	1.7582e+02	-9.6094	-106.156484	0.000588	5.876917	1.991154	0.000235
1769	1.7592e+02	-9.5564	-105.970776	0.000466	4.661003	1.579191	0.000187
1770	1.7602e+02	-9.5195	-105.813328	0.000395	3.951720	1.338879	0.000158
1771	1.7612e+02	-9.4842	-105.627619	0.000466	4.661003	1.579191	0.000187
1772	1.7621e+02	-9.4473	-105.478245	0.000375	3.749068	1.270219	0.000150
1773	1.7631e+02	-9.4072	-105.316760	0.000405	4.053047	1.373209	0.000162
1774	1.7641e+02	-9.3575	-105.167386	0.000375	3.749068	1.270219	0.000150
1775	1.7651e+02	-9.3222	-104.953418	0.000537	5.370287	1.819502	0.000215
1776	1.7661e+02	-9.2837	-104.795969	0.000395	3.951720	1.338879	0.000158
1777	1.7671e+02	-9.2452	-104.634484	0.000405	4.053047	1.373209	0.000162
1778	1.7681e+02	-9.2035	-104.436664	0.000496	4.964982	1.682181	0.000199
1779	1.7691e+02	-9.1682	-104.230770	0.000517	5.167634	1.750842	0.000207
1780	1.7701e+02	-9.1185	-104.089471	0.000355	3.546416	1.201558	0.000142
1781	1.7711e+02	-9.0832	-103.907800	0.000456	4.559677	1.544860	0.000183
1782	1.7721e+02	-9.0463	-103.726129	0.000456	4.559677	1.544860	0.000183
1783	1.7731e+02	-9.0030	-103.536383	0.000476	4.762330	1.613521	0.000191
1784	1.7741e+02	-8.9612	-103.366823	0.000426	4.255699	1.441870	0.000170
1785	1.7751e+02	-8.9308	-103.245709	0.000304	3.039785	1.029907	0.000122
1786	1.7761e+02	-8.8826	-103.019630	0.000567	5.674265	1.922493	0.000227
1787	1.7771e+02	-8.8457	-102.813736	0.000517	5.167634	1.750842	0.000207
1788	1.7781e+02	-8.8056	-102.652250	0.000405	4.053047	1.373209	0.000162
1789	1.7791e+02	-8.7575	-102.498839	0.000385	3.850394	1.304549	0.000154
1790	1.7801e+02	-8.7254	-102.288908	0.000527	5.268960	1.785172	0.000211
1791	1.7810e+02	-8.6789	-102.107237	0.000456	4.559677	1.544860	0.000183
1792	1.7820e+02	-8.6420	-101.913455	0.000486	4.863656	1.647851	0.000195
1793	1.7830e+02	-8.6067	-101.731783	0.000456	4.559677	1.544860	0.000183
1794	1.7840e+02	-8.5634	-101.542038	0.000476	4.762330	1.613521	0.000191
1795	1.7850e+02	-8.5377	-101.392664	0.000375	3.749068	1.270219	0.000150
1796	1.7860e+02	-8.4816	-101.202919	0.000476	4.762330	1.613521	0.000191
1797	1.7870e+02	-8.4415	-101.005099	0.000496	4.964982	1.682181	0.000199
1798	1.7880e+02	-8.4030	-100.827465	0.000446	4.458351	1.510530	0.000179
1799	1.7890e+02	-8.3741	-100.678091	0.000375	3.749068	1.270219	0.000150
1800	1.7900e+02	-8.3308	-100.528717	0.000375	3.749068	1.270219	0.000150
1801	1.7910e+02	-8.2923	-100.302637	0.000567	5.674265	1.922493	0.000227
1802	1.7920e+02	-8.2506	-100.133078	0.000426	4.255699	1.441870	0.000170
1803	1.7930e+02	-8.2089	-99.915072	0.000547	5.471613	1.853833	0.000219
1804	1.7940e+02	-8.1655	-99.777810	0.000345	3.445090	1.167228	0.000138
1805	1.7950e+02	-8.1286	-99.555767	0.000557	5.572939	1.888163	0.000223
1806	1.7960e+02	-8.0853	-99.382170	0.000436	4.357025	1.476200	0.000174
1807	1.7970e+02	-8.0484	-99.208574	0.000436	4.357025	1.476200	0.000174
1808	1.7980e+02	-8.0051	-99.055162	0.000385	3.850394	1.304549	0.000154
1809	1.7990e+02	-7.9746	-98.821009	0.000588	5.876917	1.991154	0.000235
1810	1.8000e+02	-7.9249	-98.590892	0.000578	5.775591	1.956823	0.000231
1811	1.8009e+02	-7.8960	-98.441518	0.000375	3.749068	1.270219	0.000150
1812	1.8019e+02	-7.8367	-98.235624	0.000517	5.167634	1.750842	0.000207
1813	1.8029e+02	-7.8046	-98.053953	0.000456	4.559677	1.544860	0.000183
1814	1.8039e+02	-7.7725	-97.896505	0.000395	3.951720	1.338879	0.000158
1815	1.8049e+02	-7.7212	-97.670425	0.000567	5.674265	1.922493	0.000227
1816	1.8059e+02	-7.6875	-97.496828	0.000436	4.357025	1.476200	0.000174
1817	1.8069e+02	-7.6474	-97.290934	0.000517	5.167634	1.750842	0.000207
1818	1.8079e+02	-7.6105	-97.117337	0.000436	4.357025	1.476200	0.000174
1819	1.8089e+02	-7.5640	-96.984112	0.000334	3.343763	1.132898	0.000134
1820	1.8099e+02	-7.5303	-96.778218	0.000517	5.167634	1.750842	0.000207
1821	1.8109e+02	-7.4805	-96.592510	0.000466	4.661003	1.579191	0.000187
1822	1.8119e+02	-7.4485	-96.354319	0.000598	5.978244	2.025484	0.000239
1823	1.8129e+02	-7.4083	-96.180722	0.000436	4.357025	1.476200	0.000174
1824	1.8139e+02	-7.3650	-95.990976	0.000476	4.762330	1.613521	0.000191
1825	1.8149e+02	-7.3249	-95.801231	0.000476	4.762330	1.613521	0.000191
1826	1.8159e+02	-7.2896	-95.647820	0.000385	3.850394	1.304549	0.000154
1827	1.8169e+02	-7.2527	-95.445963	0.000507	5.066308	1.716512	0.000203
1828	1.8179e+02	-7.2078	-95.227958	0.000547	5.471613	1.853833	0.000219
1829	1.8189e+02	-7.1693	-95.018027	0.000527	5.268960	1.785172	0.000211
1830	1.8199e+02	-7.1276	-94.840393	0.000446	4.458351	1.510530	0.000179
1831	1.8209e+02	-7.0955	-94.646610	0.000486	4.863656	1.647851	0.000195
1832	1.8218e+02	-7.0538	-94.481088	0.000415	4.154373	1.407540	0.000166
1833	1.8228e+02	-7.0153	-94.246934	0.000588	5.876917	1.991154	0.000235
1834	1.8238e+02	-6.9624	-94.085448	0.000405	4.053047	1.373209	0.000162
1835	1.8248e+02	-6.9239	-93.883592	0.000507	5.066308	1.716512	0.000203
1836	1.8258e+02	-6.8854	-93.641363	0.000608	6.079570	2.059814	0.000243
1837	1.8268e+02	-6.8517	-93.479878	0.000405	4.053047	1.373209	0.000162
1838	1.8278e+02	-6.8132	-93.253798	0.000567	5.674265	1.922493	0.000227
1839	1.8288e+02	-6.7683	-93.060016	0.000486	4.863656	1.647851	0.000195
1840	1.8298e+02	-6.7314	-92.862196	0.000496	4.964982	1.682181	0.000199
1841	1.8308e+02	-6.6945	-92.668414	0.000486	4.863656	1.647851	0.000195
1842	1.8318e+02	-6.6528	-92.510965	0.000395	3.951720	1.338879	0.000158
1843	1.8328e+02	-6.6159	-92.248552	0.000659	6.586201	2.231465	0.000264
1844	1.8338e+02	-6.5693	-92.050732	0.000496	4.964982	1.682181	0.000199
1845	1.8348e+02	-6.5260	-91.836764	0.000537	5.370287	1.819502	0.000215
1846	1.8358e+02	-6.4955	-91.687390	0.000375	3.749068	1.270219	0.000150
1847	1.8368e+02	-6.4458	-91.400753	0.000719	7.194158	2.437447	0.000288
1848	1.8378e+02	-6.4137	-91.255416	0.000365	3.647742	1.235888	0.000146
1849	1.8388e+02	-6.3736	-91.061634	0.000486	4.863656	1.647851	0.000195
1850	1.8398e+02	-6.3351	-90.879963	0.000456	4.559677	1.544860	0.000183
1851	1.8407e+02	-6.2982	-90.678106	0.000507	5.066308	1.716512	0.000203
1852	1.8417e+02	-6.2533	-90.447989	0.000578	5.775591	1.956823	0.000231
1853	1.8427e+02	-6.2148	-90.242095	0.000517	5.167634	1.750842	0.000207
1854	1.8437e+02	-6.1795	-90.048313	0.000486	4.863656	1.647851	0.000195
1855	1.8447e+02	-6.1346	-89.834344	0.000537	5.370287	1.819502	0.000215
1856	1.8457e+02	-6.0945	-89.632488	0.000507	5.066308	1.716512	0.000203
1857	1.8467e+02	-6.0480	-89.398334	0.000588	5.876917	1.991154	0.000235
1858	1.8477e+02	-6.0175	-89.232811	0.000415	4.154373	1.407540	0.000166
1859	1.8487e+02	-5.9790	-89.006732	0.000567	5.674265	1.922493	0.000227
1860	1.8497e+02	-5.9437	-88.788726	0.000547	5.471613	1.853833	0.000219
1861	1.8507e+02	-5.9020	-88.623204	0.000415	4.154373	1.407540	0.000166
1862	1.8517e+02	-5.8474	-88.393087	0.000578	5.775591	1.956823	0.000231
1863	1.8527e+02	-5.8153	-88.199304	0.000486	4.863656	1.647851	0.000195
1864	1.8537e+02	-5.7833	-87.997448	0.000507	5.066308	1.716512	0.000203
1865	1.8547e+02	-5.7432	-87.779442	0.000547	5.471613	1.853833	0.000219
1866	1.8557e+02	-5.6934	-87.549326	0.000578	5.775591	1.956823	0.000231
1867	1.8567e+02	-5.6629	-87.359580	0.000476	4.762330	1.613521	0.000191
1868	1.8577e+02	-5.6148	-87.129463	0.000578	5.775591	1.956823	0.000231
1869	1.8587e+02	-5.5699	-86.903384	0.000567	5.674265	1.922493	0.000227
1870	1.8597e+02	-5.5314	-86.725750	0.000446	4.458351	1.510530	0.000179
1871	1.8606e+02	-5.4993	-86.536005	0.000476	4.762330	1.613521	0.000191
1872	1.8616e+02	-5.4656	-86.334148	0.000507	5.066308	1.716512	0.000203
1873	1.8626e+02	-5.4111	-86.112105	0.000557	5.572939	1.888163	0.000223
1874	1.8636e+02	-5.3774	-85.865840	0.000618	6.180896	2.094144	0.000248
1875	1.8646e+02	-5.3453	-85.672057	0.000486	4.863656	1.647851	0.000195
1876	1.8656e+02	-5.2908	-85.437904	0.000588	5.876917	1.991154	0.000235
1877	1.8666e+02	-5.2635	-85.227973	0.000527	5.268960	1.785172	0.000211
1878	1.8676e+02	-5.2154	-85.009967	0.000547	5.471613	1.853833	0.000219
1879	1.8686e+02	-5.1849	-84.804073	0.000517	5.167634	1.750842	0.000207
1880	1.8696e+02	-5.1448	-84.569919	0.000588	5.876917	1.991154	0.000235
1881	1.8706e+02	-5.1015	-84.359988	0.000527	5.268960	1.785172	0.000211
1882	1.8716e+02	-5.0549	-84.129872	0.000578	5.775591	1.956823	0.000231
1883	1.8726e+02	-5.0132	-83.932052	0.000496	4.964982	1.682181	0.000199
1884	1.8736e+02	-4.9827	-83.701935	0.000578	5.775591	1.956823	0.000231
1885	1.8746e+02	-4.9362	-83.467781	0.000588	5.876917	1.991154	0.000235
1886	1.8756e+02	-4.9041	-83.282073	0.000466	4.661003	1.579191	0.000187
1887	1.8766e+02	-4.8624	-83.015622	0.000669	6.687527	2.265795	0.000268
1888	1.8776e+02	-4.8336	-82.809728	0.000517	5.167634	1.750842	0.000207
1889	1.8786e+02	-4.7838	-82.575574	0.000588	5.876917	1.991154	0.000235
1890	1.8796e+02	-4.7373	-82.365643	0.000527	5.268960	1.785172	0.000211
1891	1.8806e+02	-4.7020	-82.163787	0.000507	5.066308	1.716512	0.000203
1892	1.8815e+02	-4.6555	-81.925596	0.000598	5.978244	2.025484	0.000239
1893	1.8825e+02	-4.6218	-81.671256	0.000638	6.383548	2.162805	0.000256
1894	1.8835e+02	-4.5817	-81.445176	0.000567	5.674265	1.922493	0.000227
1895	1.8845e+02	-4.5352	-81.227171	0.000547	5.471613	1.853833	0.000219
1896	1.8855e+02	-4.5063	-80.968794	0.000648	6.484874	2.197135	0.000260
1897	1.8865e+02	-4.4614	-80.762900	0.000517	5.167634	1.750842	0.000207
1898	1.8875e+02	-4.4213	-80.577192	0.000466	4.661003	1.579191	0.000187
1899	1.8885e+02	-4.3731	-80.286518	0.000730	7.295484	2.471777	0.000292
1900	1.8895e+02	-4.3491	-80.100810	0.000466	4.661003	1.579191	0.000187
1901	1.8905e+02	-4.3026	-79.842433	0.000648	6.484874	2.197135	0.000260
1902	1.8915e+02	-4.2608	-79.612317	0.000578	5.775591	1.956823	0.000231
1903	1.8925e+02	-4.2191	-79.406423	0.000517	5.167634	1.750842	0.000207
1904	1.8935e+02	-4.1854	-79.192455	0.000537	5.370287	1.819502	0.000215
1905	1.8945e+02	-4.1325	-78.950226	0.000608	6.079570	2.059814	0.000243
1906	1.8955e+02	-4.1068	-78.695887	0.000638	6.383548	2.162805	0.000256
1907	1.8965e+02	-4.0555	-78.437510	0.000648	6.484874	2.197135	0.000260
1908	1.8975e+02	-4.0218	-78.251802	0.000466	4.661003	1.579191	0.000187
1909	1.8985e+02	-3.9753	-78.005537	0.000618	6.180896	2.094144	0.000248
1910	1.8995e+02	-3.9448	-77.731012	0.000689	6.890179	2.334456	0.000276
1911	1.9004e+02	-3.9031	-77.504932	0.000567	5.674265	1.922493	0.000227
1912	1.9014e+02	-3.8630	-77.250592	0.000638	6.383548	2.162805	0.000256
1913	1.9024e+02	-3.8165	-77.012401	0.000598	5.978244	2.025484	0.000239
1914	1.9034e+02	-3.7780	-76.758062	0.000638	6.383548	2.162805	0.000256
1915	1.9044e+02	-3.7427	-76.540056	0.000547	5.471613	1.853833	0.000219
1916	1.9054e+02	-3.6994	-76.249383	0.000730	7.295484	2.471777	0.000292
1917	1.9064e+02	-3.6737	-76.055600	0.000486	4.863656	1.647851	0.000195
1918	1.9074e+02	-3.6240	-75.764926	0.000730	7.295484	2.471777	0.000292
1919	1.9084e+02	-3.5823	-75.542884	0.000557	5.572939	1.888163	0.000223
1920	1.9094e+02	-3.5373	-75.272396	0.000679	6.788853	2.300126	0.000272
1921	1.9104e+02	-3.5069	-75.005945	0.000669	6.687527	2.265795	0.000268
1922	1.9114e+02	-3.4667	-74.791977	0.000537	5.370287	1.819502	0.000215
1923	1.9124e+02	-3.4234	-74.545711	0.000618	6.180896	2.094144	0.000248
1924	1.9134e+02	-3.3865	-74.299446	0.000618	6.180896	2.094144	0.000248
1925	1.9144e+02	-3.3400	-74.069329	0.000578	5.775591	1.956823	0.000231
1926	1.9154e+02	-3.3111	-73.839213	0.000578	5.775591	1.956823	0.000231
1927	1.9164e+02	-3.2614	-73.512205	0.000821	8.207419	2.780749	0.000329
1928	1.9174e+02	-3.2293	-73.290162	0.000557	5.572939	1.888163	0.000223
1929	1.9184e+02	-3.1908	-73.039860	0.000628	6.282222	2.128474	0.000252
1930	1.9194e+02	-3.1491	-72.789557	0.000628	6.282222	2.128474	0.000252
1931	1.9203e+02	-3.1106	-72.547329	0.000608	6.079570	2.059814	0.000243
1932	1.9213e+02	-3.0689	-72.264730	0.000709	7.092831	2.403116	0.000284
1933	1.9223e+02	-3.0272	-72.022502	0.000608	6.079570	2.059814	0.000243
1934	1.9233e+02	-2.9823	-71.719716	0.000760	7.599462	2.574767	0.000304
1935	1.9243e+02	-2.9454	-71.461340	0.000648	6.484874	2.197135	0.000260
1936	1.9253e+02	-2.9085	-71.219112	0.000608	6.079570	2.059814	0.000243
1937	1.9263e+02	-2.8748	-70.968809	0.000628	6.282222	2.128474	0.000252
1938	1.9273e+02	-2.8299	-70.718507	0.000628	6.282222	2.128474	0.000252
1939	1.9283e+02	-2.7866	-70.415722	0.000760	7.599462	2.574767	0.000304
1940	1.9293e+02	-2.7497	-70.165419	0.000628	6.282222	2.128474	0.000252
1941	1.9303e+02	-2.7047	-69.890894	0.000689	6.890179	2.334456	0.000276
1942	1.9313e+02	-2.6710	-69.624443	0.000669	6.687527	2.265795	0.000268
1943	1.9323e+02	-2.6261	-69.370103	0.000638	6.383548	2.162805	0.000256
1944	1.9333e+02	-2.5812	-69.067318	0.000760	7.599462	2.574767	0.000304
1945	1.9343e+02	-2.5475	-68.808942	0.000648	6.484874	2.197135	0.000260
1946	1.9353e+02	-2.5090	-68.530379	0.000699	6.991505	2.368786	0.000280
1947	1.9363e+02	-2.4673	-68.247780	0.000709	7.092831	2.403116	0.000284
1948	1.9373e+02	-2.4320	-67.973254	0.000689	6.890179	2.334456	0.000276
1949	1.9383e+02	-2.3887	-67.654321	0.000800	8.004767	2.712088	0.000321
1950	1.9393e+02	-2.3566	-67.412093	0.000608	6.079570	2.059814	0.000243
1951	1.9403e+02	-2.3069	-67.129493	0.000709	7.092831	2.403116	0.000284
1952	1.9412e+02	-2.2668	-66.842856	0.000719	7.194158	2.437447	0.000288
1953	1.9422e+02	-2.2283	-66.564294	0.000699	6.991505	2.368786	0.000280
1954	1.9432e+02	-2.1866	-66.257472	0.000770	7.700788	2.609098	0.000308
1955	1.9442e+02	-2.1545	-66.003132	0.000638	6.383548	2.162805	0.000256
1956	1.9452e+02	-2.1080	-65.732644	0.000679	6.788853	2.300126	0.000272
1957	1.9462e+02	-2.0695	-65.413710	0.000800	8.004767	2.712088	0.000321
1958	1.9472e+02	-2.0245	-65.090740	0.000811	8.106093	2.746419	0.000325
1959	1.9482e+02	-1.9989	-64.816214	0.000689	6.890179	2.334456	0.000276
1960	1.9492e+02	-1.9507	-64.485169	0.000831	8.308745	2.815079	0.000333
1961	1.9502e+02	-1.9074	-64.202570	0.000709	7.092831	2.403116	0.000284
1962	1.9512e+02	-1.8657	-63.948230	0.000638	6.383548	2.162805	0.000256
1963	1.9522e+02	-1.8320	-63.637371	0.000780	7.802115	2.643428	0.000312
1964	1.9532e+02	-1.7887	-63.306326	0.000831	8.308745	2.815079	0.000333
1965	1.9542e+02	-1.7534	-62.999503	0.000770	7.700788	2.609098	0.000308
1966	1.9552e+02	-1.7053	-62.712867	0.000719	7.194158	2.437447	0.000288
1967	1.9562e+02	-1.6668	-62.418156	0.000740	7.396810	2.506107	0.000296
1968	1.9572e+02	-1.6347	-62.103259	0.000790	7.903441	2.677758	0.000316
1969	1.9582e+02	-1.5882	-61.788362	0.000790	7.903441	2.677758	0.000316
1970	1.9592e+02	-1.5561	-61.525949	0.000659	6.586201	2.231465	0.000264
1971	1.9601e+02	-1.5080	-61.207015	0.000800	8.004767	2.712088	0.000321
1972	1.9611e+02	-1.4679	-60.904230	0.000760	7.599462	2.574767	0.000304
1973	1.9621e+02	-1.4326	-60.528776	0.000942	9.423333	3.192712	0.000377
1974	1.9631e+02	-1.4005	-60.230028	0.000750	7.498136	2.540437	0.000300
1975	1.9641e+02	-1.3572	-59.931280	0.000750	7.498136	2.540437	0.000300
1976	1.9651e+02	-1.3171	-59.620421	0.000780	7.802115	2.643428	0.000312
1977	1.9661e+02	-1.2770	-59.301487	0.000800	8.004767	2.712088	0.000321
1978	1.9671e+02	-1.2529	-58.938145	0.000912	9.119355	3.089721	0.000365
1979	1.9681e+02	-1.1984	-58.655545	0.000709	7.092831	2.403116	0.000284
1980	1.9691e+02	-1.1534	-58.340649	0.000790	7.903441	2.677758	0.000316
1981	1.9701e+02	-1.1101	-58.009603	0.000831	8.308745	2.815079	0.000333
1982	1.9711e+02	-1.0780	-57.670484	0.000851	8.511398	2.883740	0.000341
1983	1.9721e+02	-1.0347	-57.323290	0.000871	8.714050	2.952400	0.000349
1984	1.9731e+02	-0.9914	-57.020505	0.000760	7.599462	2.574767	0.000304
1985	1.9741e+02	-0.9593	-56.661200	0.000902	9.018028	3.055391	0.000361
1986	1.9751e+02	-0.9208	-56.362452	0.000750	7.498136	2.540437	0.000300
1987	1.9761e+02	-0.8727	-55.986998	0.000942	9.423333	3.192712	0.000377
1988	1.9771e+02	-0.8390	-55.680176	0.000770	7.700788	2.609098	0.000308
1989	1.9781e+02	-0.7957	-55.296648	0.000963	9.625985	3.261372	0.000385
1990	1.9791e+02	-0.7588	-55.005974	0.000730	7.295484	2.471777	0.000292
1991	1.9800e+02	-0.7171	-54.634558	0.000932	9.322007	3.158381	0.000373
1992	1.9810e+02	-0.6786	-54.242956	0.000983	9.828638	3.330033	0.000394
1993	1.9820e+02	-0.6401	-53.928059	0.000790	7.903441	2.677758	0.000316
1994	1.9830e+02	-0.5855	-53.605088	0.000811	8.106093	2.746419	0.000325
1995	1.9840e+02	-0.5503	-53.193300	0.001034	10.335269	3.501684	0.000414
1996	1.9850e+02	-0.5069	-52.874367	0.000800	8.004767	2.712088	0.000321
1997	1.9860e+02	-0.4829	-52.519099	0.000892	8.916702	3.021061	0.000357
1998	1.9870e+02	-0.4364	-52.192091	0.000821	8.207419	2.780749	0.000329
1999	1.9880e+02	-0.3962	-51.808563	0.000963	9.625985	3.261372	0.000385
2000	1.9890e+02	-0.3561	-51.425035	0.000963	9.625985	3.261372	0.000385
2001	1.9900e+02	-0.3176	-51.073804	0.000882	8.815376	2.986730	0.000353
2002	1.9910e+02	-0.2727	-50.746796	0.000821	8.207419	2.780749	0.000329
2003	1.9920e+02	-0.2374	-50.318860	0.001074	10.740573	3.639005	0.000430
2004	1.9930e+02	-0.2005	-49.971666	0.000871	8.714050	2.952400	0.000349
2005	1.9940e+02	-0.1700	-49.559878	0.001034	10.335269	3.501684	0.000414
2006	1.9950e+02	-0.1155	-49.236907	0.000811	8.106093	2.746419	0.000325
2007	1.9960e+02	-0.0754	-48.857417	0.000952	9.524659	3.227042	0.000381
2008	1.9970e+02	-0.0433	-48.461777	0.000993	9.929964	3.364363	0.000398
2009	1.9980e+02	0.0064	-48.058064	0.000993	9.929964	3.364363	0.000406

Center data before PMax,+/-Pr and +/-Vc Calc.

PMax (uC/cm2):	1.36e+02
Pr (uC/cm2):	4.17e+01
-Pr (uC/cm2):	-4.81e+01
PLoss (uC/cm2):	-5.45e+01
-Vc:	-4.75e+00
C (Max-Eff) (nF):	6.79e-01
K (Eff):	2.30e+03
Vert. (+/-Pr) Shift (uC/cm2):	-3.20e+00
Offset (uC/cm2):	-6.44e+00

A (Loop Area - uC/cm2·Volts):	4.50e-01



Hysteresis Version: 5.48.1 - Radiant Technologies, Inc., 1999 - 9/12/24

