»»»»»»»»»»»»»»»»»»»»»»»»»»»»»»»»»»»» Hysteresis ««««««««««««««««««««««««««««««««««««
»»»  Executed Version:	5.48.1
»»»  Vision Version:	5.48.4 (R)
»»»  Vision Compiled:	9/18/24
»»»  Driver Version:	5.47.0
»»»  Windows Version:	Windows 8 or 8.1
»»»  Processor Information:	x86 (AMD or Intel) - 32 Processors
»»»  Tester Name:	PMF21124-494 (100V)
»»»  Tester S/N:	PMF21124-494
»»»  Internal Amp Type:	100V RevK 270k
»»»  Internal Amp S/N:	iAB2-596/K     
»»»  Execution Count:	1
»»»»»»»»»»»»»»»»»»»»»»»»»»»»»»»»»»»»»»»»»»««««««««««««««««««««««««««««««««««««««««««

Stored:	6/10/2025 - 14:14:21
Configured:	06/10/25 02:01:08 PM
Executed:	06/10/25 02:13:41 PM

»»»»»»»»»»»»»»»»»»»»»»»»»»»»»»»»»»» Sample Info ««««««««««««««««««««««««««««««««««««
Sample Name:	
Lot Name:	
Wafer Name:	
Die Row/Column:	0/0
Capacitor Number:	0
Sample Area (cm2):	1.00e-04
Sample Thickness (microns):	3.00e-01

Amplifier:	Internal

»»»»»»»»»»»»»»»»»»»»»»»»»»»»»»»»»»» Tester Info «««««««««««««««««««««««««««««««««««
Tester Name:	PMF21124-494 (100V)
Tester Serial Number:	PMF21124-494
Return Signal Amp. Level:	0.19 [Index: 3]

»»»»»»»»»»»»»»»»»»»»»»»»»»»»»»»» Hysteresis Info ««««««««««««««««««««««««««««««««««
Task Name:	Hyst-1027
Volts:	20.00
Field:	666.67 (kV/cm)
DCBias:	0.00
DCField:	0.00 (kV/cm)
Hysteresis Period (ms):	2.00e+02
Preset:	Enabled
Preset Delay (ms):	1.00e+03
Profile:	Standard Bipolar

»»»»»»»»»»»»»»»»»»»»»»»»»»»»»»»»»»»»»» Data «««««««««««««««««««««««««««««««««««««««
Points:	2009

Valid Data

Point	Time (ms)	Drive Voltage	Measured Polarization (uC/cm2)	Capacitance (uF)	Normalized Capacitance (uF/cm2)	Dielectric Constant	Instantaneous Current (mA)
   1	0.0000e+00	-0.0096	2.678640	0.000456	4.560409	1.545108	0.000183
   2	9.9500e-02	0.0160	2.860311	0.000456	4.560409	1.545108	0.000183
   3	1.9900e-01	0.0545	3.058130	0.000497	4.965779	1.682451	0.000199
   4	2.9850e-01	0.0930	3.280173	0.000557	5.573833	1.888466	0.000223
   5	3.9800e-01	0.1332	3.510290	0.000578	5.776518	1.957137	0.000231
   6	4.9750e-01	0.1749	3.756555	0.000618	6.181888	2.094480	0.000248
   7	5.9700e-01	0.2134	3.982634	0.000568	5.675175	1.922802	0.000227
   8	6.9650e-01	0.2663	4.172380	0.000476	4.763094	1.613780	0.000191
   9	7.9600e-01	0.2856	4.410571	0.000598	5.979203	2.025809	0.000239
  10	8.9550e-01	0.3321	4.681059	0.000679	6.789942	2.300495	0.000272
  11	9.9500e-01	0.3674	4.907138	0.000568	5.675175	1.922802	0.000227
  12	1.0945e+00	0.4187	5.113032	0.000517	5.168463	1.751123	0.000207
  13	1.1940e+00	0.4524	5.367372	0.000638	6.384572	2.163152	0.000256
  14	1.2935e+00	0.4957	5.601526	0.000588	5.877860	1.991473	0.000235
  15	1.3930e+00	0.5406	5.843754	0.000608	6.080545	2.060144	0.000243
  16	1.4925e+00	0.5791	6.069834	0.000568	5.675175	1.922802	0.000227
  17	1.5920e+00	0.6112	6.340322	0.000679	6.789942	2.300495	0.000272
  18	1.6915e+00	0.6642	6.582550	0.000608	6.080545	2.060144	0.000243
  19	1.7910e+00	0.6898	6.776332	0.000486	4.864436	1.648116	0.000195
  20	1.8905e+00	0.7347	7.046820	0.000679	6.789942	2.300495	0.000272
  21	1.9900e+00	0.7797	7.297123	0.000628	6.283230	2.128816	0.000252
  22	2.0895e+00	0.8133	7.571648	0.000689	6.891285	2.334830	0.000276
  23	2.1890e+00	0.8502	7.793691	0.000557	5.573833	1.888466	0.000223
  24	2.2885e+00	0.8887	8.003622	0.000527	5.269806	1.785459	0.000211
  25	2.3880e+00	0.9321	8.253924	0.000628	6.283230	2.128816	0.000252
  26	2.4875e+00	0.9738	8.548635	0.000740	7.397997	2.506509	0.000296
  27	2.5870e+00	1.0026	8.770677	0.000557	5.573833	1.888466	0.000223
  28	2.6865e+00	1.0556	9.041165	0.000679	6.789942	2.300495	0.000272
  29	2.7860e+00	1.0957	9.255134	0.000537	5.371148	1.819794	0.000215
  30	2.8855e+00	1.1278	9.574067	0.000801	8.006051	2.712524	0.000321
  31	2.9850e+00	1.1647	9.796110	0.000557	5.573833	1.888466	0.000223
  32	3.0845e+00	1.2096	10.070635	0.000689	6.891285	2.334830	0.000276
  33	3.1840e+00	1.2449	10.320938	0.000628	6.283230	2.128816	0.000252
  34	3.2835e+00	1.2914	10.555091	0.000588	5.877860	1.991473	0.000235
  35	3.3830e+00	1.3299	10.898248	0.000861	8.614106	2.918538	0.000345
  36	3.4825e+00	1.3796	11.124328	0.000568	5.675175	1.922802	0.000227
  37	3.5820e+00	1.4101	11.354444	0.000578	5.776518	1.957137	0.000231
  38	3.6815e+00	1.4486	11.641081	0.000720	7.195312	2.437838	0.000288
  39	3.7810e+00	1.4951	11.899458	0.000649	6.485915	2.197487	0.000260
  40	3.8805e+00	1.5336	12.129574	0.000578	5.776518	1.957137	0.000231
  41	3.9800e+00	1.5738	12.408137	0.000699	6.992627	2.369166	0.000280
  42	4.0795e+00	1.6106	12.646328	0.000598	5.979203	2.025809	0.000239
  43	4.1790e+00	1.6443	12.945076	0.000750	7.499339	2.540845	0.000300
  44	4.2785e+00	1.7005	13.187304	0.000608	6.080545	2.060144	0.000243
  45	4.3780e+00	1.7229	13.425495	0.000598	5.979203	2.025809	0.000239
  46	4.4775e+00	1.7743	13.687909	0.000659	6.587257	2.231823	0.000264
  47	4.5770e+00	1.8144	13.982620	0.000740	7.397997	2.506509	0.000296
  48	4.6765e+00	1.8401	14.249071	0.000669	6.688600	2.266159	0.000268
  49	4.7760e+00	1.9026	14.475150	0.000568	5.675175	1.922802	0.000227
  50	4.8755e+00	1.9299	14.765824	0.000730	7.296654	2.472173	0.000292
  51	4.9750e+00	1.9636	15.016126	0.000628	6.283230	2.128816	0.000252
  52	5.0745e+00	2.0149	15.290652	0.000689	6.891285	2.334830	0.000276
  53	5.1740e+00	2.0534	15.581325	0.000730	7.296654	2.472173	0.000292
  54	5.2735e+00	2.0743	15.791256	0.000527	5.269806	1.785459	0.000211
  55	5.3730e+00	2.1304	16.118264	0.000821	8.208736	2.781195	0.000329
  56	5.4725e+00	2.1753	16.400864	0.000709	7.093969	2.403502	0.000284
  57	5.5720e+00	2.2042	16.618869	0.000547	5.472491	1.854130	0.000219
  58	5.6715e+00	2.2523	16.889357	0.000679	6.789942	2.300495	0.000272
  59	5.7710e+00	2.2908	17.163883	0.000689	6.891285	2.334830	0.000276
  60	5.8705e+00	2.3342	17.414185	0.000628	6.283230	2.128816	0.000252
  61	5.9700e+00	2.3695	17.704859	0.000730	7.296654	2.472173	0.000292
  62	6.0695e+00	2.4031	17.955161	0.000628	6.283230	2.128816	0.000252
  63	6.1690e+00	2.4497	18.241798	0.000720	7.195312	2.437838	0.000288
  64	6.2685e+00	2.4801	18.500175	0.000649	6.485915	2.197487	0.000260
  65	6.3680e+00	2.5299	18.774700	0.000689	6.891285	2.334830	0.000276
  66	6.4675e+00	2.5732	19.053262	0.000699	6.992627	2.369166	0.000280
  67	6.5670e+00	2.6117	19.307602	0.000638	6.384572	2.163152	0.000256
  68	6.6665e+00	2.6438	19.586164	0.000699	6.992627	2.369166	0.000280
  69	6.7660e+00	2.6855	19.788021	0.000507	5.067121	1.716787	0.000203
  70	6.8655e+00	2.7256	20.082732	0.000740	7.397997	2.506509	0.000296
  71	6.9650e+00	2.7641	20.385517	0.000760	7.600681	2.575181	0.000304
  72	7.0645e+00	2.8122	20.631782	0.000618	6.181888	2.094480	0.000248
  73	7.1640e+00	2.8491	20.874010	0.000608	6.080545	2.060144	0.000243
  74	7.2635e+00	2.8908	21.156610	0.000709	7.093969	2.403502	0.000284
  75	7.3630e+00	2.9390	21.439209	0.000709	7.093969	2.403502	0.000284
  76	7.4625e+00	2.9678	21.677400	0.000598	5.979203	2.025809	0.000239
  77	7.5620e+00	2.9999	21.939814	0.000659	6.587257	2.231823	0.000264
  78	7.6615e+00	3.0400	22.246636	0.000770	7.702024	2.609516	0.000308
  79	7.7610e+00	3.0898	22.480790	0.000588	5.877860	1.991473	0.000235
  80	7.8605e+00	3.1315	22.755316	0.000689	6.891285	2.334830	0.000276
  81	7.9600e+00	3.1571	23.001581	0.000618	6.181888	2.094480	0.000248
  82	8.0595e+00	3.2037	23.268032	0.000669	6.688600	2.266159	0.000268
  83	8.1590e+00	3.2502	23.538520	0.000679	6.789942	2.300495	0.000272
  84	8.2585e+00	3.2887	23.841305	0.000760	7.600681	2.575181	0.000304
  85	8.3580e+00	3.3208	24.055273	0.000537	5.371148	1.819794	0.000215
  86	8.4575e+00	3.3625	24.325761	0.000679	6.789942	2.300495	0.000272
  87	8.5570e+00	3.4106	24.559915	0.000588	5.877860	1.991473	0.000235
  88	8.6565e+00	3.4363	24.842515	0.000709	7.093969	2.403502	0.000284
  89	8.7560e+00	3.4780	25.088780	0.000618	6.181888	2.094480	0.000248
  90	8.8555e+00	3.5213	25.367342	0.000699	6.992627	2.369166	0.000280
  91	8.9550e+00	3.5726	25.609571	0.000608	6.080545	2.060144	0.000243
  92	9.0545e+00	3.6031	25.908319	0.000750	7.499339	2.540845	0.000300
  93	9.1540e+00	3.6464	26.182844	0.000689	6.891285	2.334830	0.000276
  94	9.2535e+00	3.6769	26.404886	0.000557	5.573833	1.888466	0.000223
  95	9.3530e+00	3.7218	26.667300	0.000659	6.587257	2.231823	0.000264
  96	9.4525e+00	3.7683	26.909528	0.000608	6.080545	2.060144	0.000243
  97	9.5520e+00	3.8101	27.192128	0.000709	7.093969	2.403502	0.000284
  98	9.6515e+00	3.8405	27.434356	0.000608	6.080545	2.060144	0.000243
  99	9.7510e+00	3.8951	27.672547	0.000598	5.979203	2.025809	0.000239
 100	9.8505e+00	3.9207	27.951109	0.000699	6.992627	2.369166	0.000280
 101	9.9500e+00	3.9625	28.197375	0.000618	6.181888	2.094480	0.000248
 102	1.0050e+01	4.0026	28.463826	0.000669	6.688600	2.266159	0.000268
 103	1.0149e+01	4.0379	28.685868	0.000557	5.573833	1.888466	0.000223
 104	1.0248e+01	4.0796	28.964430	0.000699	6.992627	2.369166	0.000280
 105	1.0348e+01	4.1181	29.218770	0.000638	6.384572	2.163152	0.000256
 106	1.0447e+01	4.1646	29.465035	0.000618	6.181888	2.094480	0.000248
 107	1.0547e+01	4.1999	29.687078	0.000557	5.573833	1.888466	0.000223
 108	1.0646e+01	4.2416	29.993900	0.000770	7.702024	2.609516	0.000308
 109	1.0746e+01	4.2801	30.232091	0.000598	5.979203	2.025809	0.000239
 110	1.0845e+01	4.3282	30.498542	0.000669	6.688600	2.266159	0.000268
 111	1.0945e+01	4.3603	30.720584	0.000557	5.573833	1.888466	0.000223
 112	1.1044e+01	4.4020	30.974924	0.000638	6.384572	2.163152	0.000256
 113	1.1144e+01	4.4341	31.229264	0.000638	6.384572	2.163152	0.000256
 114	1.1243e+01	4.4806	31.455343	0.000568	5.675175	1.922802	0.000227
 115	1.1343e+01	4.5223	31.701608	0.000618	6.181888	2.094480	0.000248
 116	1.1443e+01	4.5576	31.935762	0.000588	5.877860	1.991473	0.000235
 117	1.1542e+01	4.5993	32.173953	0.000598	5.979203	2.025809	0.000239
 118	1.1642e+01	4.6491	32.420219	0.000618	6.181888	2.094480	0.000248
 119	1.1741e+01	4.6779	32.662447	0.000608	6.080545	2.060144	0.000243
 120	1.1841e+01	4.7164	32.908712	0.000618	6.181888	2.094480	0.000248
 121	1.1940e+01	4.7662	33.150940	0.000608	6.080545	2.060144	0.000243
 122	1.2040e+01	4.7999	33.389131	0.000598	5.979203	2.025809	0.000239
 123	1.2139e+01	4.8336	33.647508	0.000649	6.485915	2.197487	0.000260
 124	1.2239e+01	4.8817	33.881662	0.000588	5.877860	1.991473	0.000235
 125	1.2338e+01	4.9138	34.079481	0.000497	4.965779	1.682451	0.000199
 126	1.2438e+01	4.9571	34.337858	0.000649	6.485915	2.197487	0.000260
 127	1.2537e+01	4.9924	34.596235	0.000649	6.485915	2.197487	0.000260
 128	1.2636e+01	5.0405	34.818277	0.000557	5.573833	1.888466	0.000223
 129	1.2736e+01	5.0870	35.036283	0.000547	5.472491	1.854130	0.000219
 130	1.2835e+01	5.1175	35.326956	0.000730	7.296654	2.472173	0.000292
 131	1.2935e+01	5.1512	35.484405	0.000395	3.952354	1.339094	0.000158
 132	1.3034e+01	5.2041	35.803338	0.000801	8.006051	2.712524	0.000321
 133	1.3134e+01	5.2362	36.009232	0.000517	5.168463	1.751123	0.000207
 134	1.3233e+01	5.2779	36.227238	0.000547	5.472491	1.854130	0.000219
 135	1.3333e+01	5.3228	36.501763	0.000689	6.891285	2.334830	0.000276
 136	1.3432e+01	5.3710	36.739954	0.000598	5.979203	2.025809	0.000239
 137	1.3532e+01	5.3934	36.978145	0.000598	5.979203	2.025809	0.000239
 138	1.3632e+01	5.4303	37.192113	0.000537	5.371148	1.819794	0.000215
 139	1.3731e+01	5.4801	37.466638	0.000689	6.891285	2.334830	0.000276
 140	1.3831e+01	5.5154	37.660421	0.000486	4.864436	1.648116	0.000195
 141	1.3930e+01	5.5635	37.910723	0.000628	6.283230	2.128816	0.000252
 142	1.4030e+01	5.5956	38.112580	0.000507	5.067121	1.716787	0.000203
 143	1.4129e+01	5.6373	38.354808	0.000608	6.080545	2.060144	0.000243
 144	1.4229e+01	5.6790	38.601073	0.000618	6.181888	2.094480	0.000248
 145	1.4328e+01	5.7303	38.875599	0.000689	6.891285	2.334830	0.000276
 146	1.4428e+01	5.7608	39.069381	0.000486	4.864436	1.648116	0.000195
 147	1.4527e+01	5.7945	39.307572	0.000598	5.979203	2.025809	0.000239
 148	1.4627e+01	5.8346	39.533652	0.000568	5.675175	1.922802	0.000227
 149	1.4726e+01	5.8763	39.755694	0.000557	5.573833	1.888466	0.000223
 150	1.4825e+01	5.9116	39.969662	0.000537	5.371148	1.819794	0.000215
 151	1.4925e+01	5.9533	40.211891	0.000608	6.080545	2.060144	0.000243
 152	1.5024e+01	6.0030	40.417784	0.000517	5.168463	1.751123	0.000207
 153	1.5124e+01	6.0367	40.619641	0.000507	5.067121	1.716787	0.000203
 154	1.5223e+01	6.0800	40.849758	0.000578	5.776518	1.957137	0.000231
 155	1.5323e+01	6.1185	41.091986	0.000608	6.080545	2.060144	0.000243
 156	1.5422e+01	6.1538	41.342289	0.000628	6.283230	2.128816	0.000252
 157	1.5522e+01	6.2052	41.556257	0.000537	5.371148	1.819794	0.000215
 158	1.5621e+01	6.2389	41.754076	0.000497	4.965779	1.682451	0.000199
 159	1.5721e+01	6.2774	41.972082	0.000547	5.472491	1.854130	0.000219
 160	1.5820e+01	6.3094	42.165864	0.000486	4.864436	1.648116	0.000195
 161	1.5920e+01	6.3560	42.416167	0.000628	6.283230	2.128816	0.000252
 162	1.6020e+01	6.3929	42.613986	0.000497	4.965779	1.682451	0.000199
 163	1.6119e+01	6.4410	42.876400	0.000659	6.587257	2.231823	0.000264
 164	1.6218e+01	6.4747	43.098443	0.000557	5.573833	1.888466	0.000223
 165	1.6318e+01	6.5084	43.296262	0.000497	4.965779	1.682451	0.000199
 166	1.6418e+01	6.5501	43.506193	0.000527	5.269806	1.785459	0.000211
 167	1.6517e+01	6.5902	43.744384	0.000598	5.979203	2.025809	0.000239
 168	1.6616e+01	6.6255	43.930093	0.000466	4.661751	1.579444	0.000187
 169	1.6716e+01	6.6800	44.184432	0.000638	6.384572	2.163152	0.000256
 170	1.6816e+01	6.7073	44.390326	0.000517	5.168463	1.751123	0.000207
 171	1.6915e+01	6.7490	44.592183	0.000507	5.067121	1.716787	0.000203
 172	1.7015e+01	6.7923	44.834411	0.000608	6.080545	2.060144	0.000243
 173	1.7114e+01	6.8292	45.032231	0.000497	4.965779	1.682451	0.000199
 174	1.7213e+01	6.8741	45.258310	0.000568	5.675175	1.922802	0.000227
 175	1.7313e+01	6.9078	45.508613	0.000628	6.283230	2.128816	0.000252
 176	1.7413e+01	6.9511	45.670098	0.000405	4.053697	1.373430	0.000162
 177	1.7512e+01	7.0025	45.928475	0.000649	6.485915	2.197487	0.000260
 178	1.7611e+01	7.0330	46.118220	0.000476	4.763094	1.613780	0.000191
 179	1.7711e+01	7.0682	46.283743	0.000416	4.155039	1.407765	0.000166
 180	1.7811e+01	7.1116	46.509822	0.000568	5.675175	1.922802	0.000227
 181	1.7910e+01	7.1404	46.731865	0.000557	5.573833	1.888466	0.000223
 182	1.8009e+01	7.1838	46.937759	0.000517	5.168463	1.751123	0.000207
 183	1.8109e+01	7.2255	47.192098	0.000638	6.384572	2.163152	0.000256
 184	1.8209e+01	7.2688	47.317249	0.000314	3.141615	1.064408	0.000126
 185	1.8308e+01	7.3153	47.591775	0.000689	6.891285	2.334830	0.000276
 186	1.8407e+01	7.3410	47.789594	0.000497	4.965779	1.682451	0.000199
 187	1.8507e+01	7.3859	47.995488	0.000517	5.168463	1.751123	0.000207
 188	1.8607e+01	7.4292	48.221568	0.000568	5.675175	1.922802	0.000227
 189	1.8706e+01	7.4693	48.431499	0.000527	5.269806	1.785459	0.000211
 190	1.8805e+01	7.5174	48.637393	0.000517	5.168463	1.751123	0.000207
 191	1.8905e+01	7.5559	48.867510	0.000578	5.776518	1.957137	0.000231
 192	1.9005e+01	7.5880	49.065329	0.000497	4.965779	1.682451	0.000199
 193	1.9104e+01	7.6361	49.251037	0.000466	4.661751	1.579444	0.000187
 194	1.9203e+01	7.6666	49.452894	0.000507	5.067121	1.716787	0.000203
 195	1.9303e+01	7.7051	49.674937	0.000557	5.573833	1.888466	0.000223
 196	1.9402e+01	7.7468	49.876793	0.000507	5.067121	1.716787	0.000203
 197	1.9502e+01	7.7805	50.062502	0.000466	4.661751	1.579444	0.000187
 198	1.9602e+01	7.8271	50.300693	0.000598	5.979203	2.025809	0.000239
 199	1.9701e+01	7.8623	50.486401	0.000466	4.661751	1.579444	0.000187
 200	1.9800e+01	7.9089	50.704406	0.000547	5.472491	1.854130	0.000219
 201	1.9900e+01	7.9506	50.918374	0.000537	5.371148	1.819794	0.000215
 202	2.0000e+01	7.9778	51.083897	0.000416	4.155039	1.407765	0.000166
 203	2.0099e+01	8.0308	51.338237	0.000638	6.384572	2.163152	0.000256
 204	2.0198e+01	8.0629	51.536056	0.000497	4.965779	1.682451	0.000199
 205	2.0298e+01	8.1030	51.725802	0.000476	4.763094	1.613780	0.000191
 206	2.0398e+01	8.1415	51.931696	0.000517	5.168463	1.751123	0.000207
 207	2.0497e+01	8.1928	52.125478	0.000486	4.864436	1.648116	0.000195
 208	2.0596e+01	8.2201	52.327335	0.000507	5.067121	1.716787	0.000203
 209	2.0696e+01	8.2634	52.565526	0.000598	5.979203	2.025809	0.000239
 210	2.0796e+01	8.3051	52.739123	0.000436	4.357724	1.476437	0.000174
 211	2.0895e+01	8.3452	52.961165	0.000557	5.573833	1.888466	0.000223
 212	2.0994e+01	8.3869	53.179171	0.000547	5.472491	1.854130	0.000219
 213	2.1094e+01	8.4318	53.376990	0.000497	4.965779	1.682451	0.000199
 214	2.1194e+01	8.4655	53.578847	0.000507	5.067121	1.716787	0.000203
 215	2.1293e+01	8.5056	53.776667	0.000497	4.965779	1.682451	0.000199
 216	2.1392e+01	8.5490	53.946226	0.000426	4.256382	1.442101	0.000170
 217	2.1492e+01	8.5826	54.184417	0.000598	5.979203	2.025809	0.000239
 218	2.1591e+01	8.6292	54.374163	0.000476	4.763094	1.613780	0.000191
 219	2.1691e+01	8.6709	54.551797	0.000446	4.459066	1.510773	0.000179
 220	2.1791e+01	8.6965	54.757691	0.000517	5.168463	1.751123	0.000207
 221	2.1890e+01	8.7399	54.923213	0.000416	4.155039	1.407765	0.000166
 222	2.1989e+01	8.7816	55.092773	0.000426	4.256382	1.442101	0.000170
 223	2.2089e+01	8.8249	55.306741	0.000537	5.371148	1.819794	0.000215
 224	2.2189e+01	8.8650	55.565118	0.000649	6.485915	2.197487	0.000260
 225	2.2288e+01	8.9067	55.686232	0.000304	3.040273	1.030072	0.000122
 226	2.2387e+01	8.9420	55.892126	0.000517	5.168463	1.751123	0.000207
 227	2.2487e+01	8.9789	56.102057	0.000527	5.269806	1.785459	0.000211
 228	2.2587e+01	9.0174	56.311988	0.000527	5.269806	1.785459	0.000211
 229	2.2686e+01	9.0655	56.509807	0.000497	4.965779	1.682451	0.000199
 230	2.2785e+01	9.1072	56.715701	0.000517	5.168463	1.751123	0.000207
 231	2.2885e+01	9.1377	56.885261	0.000426	4.256382	1.442101	0.000170
 232	2.2985e+01	9.1858	57.075006	0.000476	4.763094	1.613780	0.000191
 233	2.3084e+01	9.2195	57.244566	0.000426	4.256382	1.442101	0.000170
 234	2.3183e+01	9.2677	57.482757	0.000598	5.979203	2.025809	0.000239
 235	2.3283e+01	9.3062	57.692688	0.000527	5.269806	1.785459	0.000211
 236	2.3383e+01	9.3318	57.850137	0.000395	3.952354	1.339094	0.000158
 237	2.3482e+01	9.3848	58.007585	0.000395	3.952354	1.339094	0.000158
 238	2.3581e+01	9.4152	58.225590	0.000547	5.472491	1.854130	0.000219
 239	2.3681e+01	9.4634	58.411298	0.000466	4.661751	1.579444	0.000187
 240	2.3780e+01	9.4987	58.609118	0.000497	4.965779	1.682451	0.000199
 241	2.3880e+01	9.5516	58.810975	0.000507	5.067121	1.716787	0.000203
 242	2.3980e+01	9.5885	58.984572	0.000436	4.357724	1.476437	0.000174
 243	2.4079e+01	9.6190	59.166243	0.000456	4.560409	1.545108	0.000183
 244	2.4178e+01	9.6623	59.376174	0.000527	5.269806	1.785459	0.000211
 245	2.4278e+01	9.7008	59.541696	0.000416	4.155039	1.407765	0.000166
 246	2.4378e+01	9.7377	59.739516	0.000497	4.965779	1.682451	0.000199
 247	2.4477e+01	9.7698	59.933299	0.000486	4.864436	1.648116	0.000195
 248	2.4576e+01	9.8163	60.131118	0.000497	4.965779	1.682451	0.000199
 249	2.4676e+01	9.8660	60.324901	0.000486	4.864436	1.648116	0.000195
 250	2.4776e+01	9.8997	60.502535	0.000446	4.459066	1.510773	0.000179
 251	2.4875e+01	9.9511	60.696317	0.000486	4.864436	1.648116	0.000195
 252	2.4974e+01	9.9719	60.918360	0.000557	5.573833	1.888466	0.000223
 253	2.5074e+01	10.0216	61.035437	0.000294	2.938930	0.995736	0.000118
 254	2.5174e+01	10.0537	61.257479	0.000557	5.573833	1.888466	0.000223
 255	2.5273e+01	10.0954	61.475484	0.000547	5.472491	1.854130	0.000219
 256	2.5372e+01	10.1388	61.641007	0.000416	4.155039	1.407765	0.000166
 257	2.5472e+01	10.1740	61.806530	0.000416	4.155039	1.407765	0.000166
 258	2.5572e+01	10.2174	61.996275	0.000476	4.763094	1.613780	0.000191
 259	2.5671e+01	10.2591	62.190057	0.000486	4.864436	1.648116	0.000195
 260	2.5770e+01	10.3024	62.383840	0.000486	4.864436	1.648116	0.000195
 261	2.5870e+01	10.3264	62.561474	0.000446	4.459066	1.510773	0.000179
 262	2.5970e+01	10.3762	62.739108	0.000446	4.459066	1.510773	0.000179
 263	2.6069e+01	10.4259	62.928853	0.000476	4.763094	1.613780	0.000191
 264	2.6169e+01	10.4564	63.114562	0.000466	4.661751	1.579444	0.000187
 265	2.6268e+01	10.5029	63.284121	0.000426	4.256382	1.442101	0.000170
 266	2.6367e+01	10.5446	63.445607	0.000405	4.053697	1.373430	0.000162
 267	2.6467e+01	10.5687	63.647463	0.000507	5.067121	1.716787	0.000203
 268	2.6567e+01	10.6152	63.849320	0.000507	5.067121	1.716787	0.000203
 269	2.6666e+01	10.6553	64.039066	0.000476	4.763094	1.613780	0.000191
 270	2.6765e+01	10.6938	64.240922	0.000507	5.067121	1.716787	0.000203
 271	2.6865e+01	10.7355	64.438742	0.000497	4.965779	1.682451	0.000199
 272	2.6965e+01	10.7788	64.547745	0.000274	2.736245	0.927065	0.000110
 273	2.7064e+01	10.8189	64.769787	0.000557	5.573833	1.888466	0.000223
 274	2.7163e+01	10.8526	64.935310	0.000416	4.155039	1.407765	0.000166
 275	2.7263e+01	10.8976	65.116981	0.000456	4.560409	1.545108	0.000183
 276	2.7363e+01	10.9425	65.330949	0.000537	5.371148	1.819794	0.000215
 277	2.7462e+01	10.9794	65.460137	0.000324	3.242957	1.098744	0.000130
 278	2.7561e+01	11.0115	65.682180	0.000557	5.573833	1.888466	0.000223
 279	2.7661e+01	11.0564	65.799257	0.000294	2.938930	0.995736	0.000118
 280	2.7761e+01	11.0917	66.037448	0.000598	5.979203	2.025809	0.000239
 281	2.7860e+01	11.1382	66.215082	0.000446	4.459066	1.510773	0.000179
 282	2.7959e+01	11.1703	66.344270	0.000324	3.242957	1.098744	0.000130
 283	2.8059e+01	11.2120	66.542090	0.000497	4.965779	1.682451	0.000199
 284	2.8159e+01	11.2537	66.731835	0.000476	4.763094	1.613780	0.000191
 285	2.8258e+01	11.2874	66.893321	0.000405	4.053697	1.373430	0.000162
 286	2.8358e+01	11.3307	67.123437	0.000578	5.776518	1.957137	0.000231
 287	2.8457e+01	11.3756	67.252626	0.000324	3.242957	1.098744	0.000130
 288	2.8556e+01	11.4109	67.454482	0.000507	5.067121	1.716787	0.000203
 289	2.8656e+01	11.4558	67.591745	0.000345	3.445642	1.167415	0.000138
 290	2.8756e+01	11.4879	67.765342	0.000436	4.357724	1.476437	0.000174
 291	2.8855e+01	11.5376	67.975273	0.000527	5.269806	1.785459	0.000211
 292	2.8954e+01	11.5697	68.136758	0.000405	4.053697	1.373430	0.000162
 293	2.9054e+01	11.6259	68.326504	0.000476	4.763094	1.613780	0.000191
 294	2.9154e+01	11.6548	68.524323	0.000497	4.965779	1.682451	0.000199
 295	2.9253e+01	11.6981	68.681772	0.000395	3.952354	1.339094	0.000158
 296	2.9352e+01	11.7430	68.855369	0.000436	4.357724	1.476437	0.000174
 297	2.9452e+01	11.7767	68.992631	0.000345	3.445642	1.167415	0.000138
 298	2.9552e+01	11.8055	69.186414	0.000486	4.864436	1.648116	0.000195
 299	2.9651e+01	11.8521	69.392308	0.000517	5.168463	1.751123	0.000207
 300	2.9750e+01	11.8938	69.569942	0.000446	4.459066	1.510773	0.000179
 301	2.9850e+01	11.9355	69.711241	0.000355	3.546985	1.201751	0.000142
 302	2.9950e+01	11.9756	69.880801	0.000426	4.256382	1.442101	0.000170
 303	3.0049e+01	12.0157	70.078621	0.000497	4.965779	1.682451	0.000199
 304	3.0148e+01	12.0574	70.284515	0.000517	5.168463	1.751123	0.000207
 305	3.0248e+01	12.0879	70.441963	0.000395	3.952354	1.339094	0.000158
 306	3.0348e+01	12.1296	70.615560	0.000436	4.357724	1.476437	0.000174
 307	3.0447e+01	12.1761	70.797231	0.000456	4.560409	1.545108	0.000183
 308	3.0547e+01	12.2098	70.950642	0.000385	3.851012	1.304758	0.000154
 309	3.0646e+01	12.2483	71.140387	0.000476	4.763094	1.613780	0.000191
 310	3.0745e+01	12.2884	71.330133	0.000476	4.763094	1.613780	0.000191
 311	3.0845e+01	12.3414	71.475470	0.000365	3.648327	1.236087	0.000146
 312	3.0945e+01	12.3702	71.701549	0.000568	5.675175	1.922802	0.000227
 313	3.1044e+01	12.4168	71.863035	0.000405	4.053697	1.373430	0.000162
 314	3.1143e+01	12.4537	72.000297	0.000345	3.445642	1.167415	0.000138
 315	3.1243e+01	12.4954	72.186006	0.000466	4.661751	1.579444	0.000187
 316	3.1343e+01	12.5242	72.351528	0.000416	4.155039	1.407765	0.000166
 317	3.1442e+01	12.5756	72.529162	0.000446	4.459066	1.510773	0.000179
 318	3.1541e+01	12.6093	72.670462	0.000355	3.546985	1.201751	0.000142
 319	3.1641e+01	12.6606	72.860207	0.000476	4.763094	1.613780	0.000191
 320	3.1741e+01	12.6927	73.049953	0.000476	4.763094	1.613780	0.000191
 321	3.1840e+01	12.7360	73.187215	0.000345	3.445642	1.167415	0.000138
 322	3.1939e+01	12.7729	73.385035	0.000497	4.965779	1.682451	0.000199
 323	3.2039e+01	12.8114	73.526335	0.000355	3.546985	1.201751	0.000142
 324	3.2139e+01	12.8515	73.744340	0.000547	5.472491	1.854130	0.000219
 325	3.2238e+01	12.8964	73.881603	0.000345	3.445642	1.167415	0.000138
 326	3.2337e+01	12.9253	74.043088	0.000405	4.053697	1.373430	0.000162
 327	3.2437e+01	12.9686	74.232833	0.000476	4.763094	1.613780	0.000191
 328	3.2536e+01	13.0103	74.402393	0.000426	4.256382	1.442101	0.000170
 329	3.2636e+01	13.0360	74.575990	0.000436	4.357724	1.476437	0.000174
 330	3.2736e+01	13.0809	74.721327	0.000365	3.648327	1.236087	0.000146
 331	3.2835e+01	13.1194	74.894924	0.000436	4.357724	1.476437	0.000174
 332	3.2934e+01	13.1659	75.068520	0.000436	4.357724	1.476437	0.000174
 333	3.3034e+01	13.2093	75.254229	0.000466	4.661751	1.579444	0.000187
 334	3.3133e+01	13.2445	75.395528	0.000355	3.546985	1.201751	0.000142
 335	3.3233e+01	13.2863	75.569125	0.000436	4.357724	1.476437	0.000174
 336	3.3333e+01	13.3232	75.734648	0.000416	4.155039	1.407765	0.000166
 337	3.3432e+01	13.3745	75.904208	0.000426	4.256382	1.442101	0.000170
 338	3.3532e+01	13.4050	76.045507	0.000355	3.546985	1.201751	0.000142
 339	3.3631e+01	13.4531	76.231216	0.000466	4.661751	1.579444	0.000187
 340	3.3730e+01	13.4884	76.400775	0.000426	4.256382	1.442101	0.000170
 341	3.3830e+01	13.5269	76.562261	0.000405	4.053697	1.373430	0.000162
 342	3.3929e+01	13.5670	76.772192	0.000527	5.269806	1.785459	0.000211
 343	3.4029e+01	13.6087	76.873120	0.000253	2.533560	0.858394	0.000101
 344	3.4129e+01	13.6440	77.062866	0.000476	4.763094	1.613780	0.000191
 345	3.4228e+01	13.6809	77.240500	0.000446	4.459066	1.510773	0.000179
 346	3.4328e+01	13.7290	77.397948	0.000395	3.952354	1.339094	0.000158
 347	3.4427e+01	13.7627	77.575582	0.000446	4.459066	1.510773	0.000179
 348	3.4526e+01	13.7900	77.704770	0.000324	3.242957	1.098744	0.000130
 349	3.4626e+01	13.8445	77.878367	0.000436	4.357724	1.476437	0.000174
 350	3.4725e+01	13.8750	78.051964	0.000436	4.357724	1.476437	0.000174
 351	3.4825e+01	13.9247	78.233635	0.000456	4.560409	1.545108	0.000183
 352	3.4925e+01	13.9552	78.411269	0.000446	4.459066	1.510773	0.000179
 353	3.5024e+01	14.0001	78.536420	0.000314	3.141615	1.064408	0.000126
 354	3.5123e+01	14.0370	78.734240	0.000497	4.965779	1.682451	0.000199
 355	3.5223e+01	14.0755	78.867465	0.000334	3.344300	1.133079	0.000134
 356	3.5322e+01	14.1269	79.061248	0.000486	4.864436	1.648116	0.000195
 357	3.5422e+01	14.1590	79.198510	0.000345	3.445642	1.167415	0.000138
 358	3.5522e+01	14.1975	79.392293	0.000486	4.864436	1.648116	0.000195
 359	3.5621e+01	14.2456	79.529555	0.000345	3.445642	1.167415	0.000138
 360	3.5721e+01	14.2809	79.674892	0.000365	3.648327	1.236087	0.000146
 361	3.5820e+01	14.3226	79.868675	0.000486	4.864436	1.648116	0.000195
 362	3.5919e+01	14.3627	80.005937	0.000345	3.445642	1.167415	0.000138
 363	3.6019e+01	14.3996	80.215869	0.000527	5.269806	1.785459	0.000211
 364	3.6118e+01	14.4365	80.349094	0.000334	3.344300	1.133079	0.000134
 365	3.6218e+01	14.4926	80.502505	0.000385	3.851012	1.304758	0.000154
 366	3.6318e+01	14.5279	80.688213	0.000466	4.661751	1.579444	0.000187
 367	3.6417e+01	14.5632	80.865847	0.000446	4.459066	1.510773	0.000179
 368	3.6517e+01	14.6017	80.999073	0.000334	3.344300	1.133079	0.000134
 369	3.6616e+01	14.6418	81.156521	0.000395	3.952354	1.339094	0.000158
 370	3.6715e+01	14.6851	81.346267	0.000476	4.763094	1.613780	0.000191
 371	3.6815e+01	14.7140	81.463343	0.000294	2.938930	0.995736	0.000118
 372	3.6914e+01	14.7573	81.681349	0.000547	5.472491	1.854130	0.000219
 373	3.7014e+01	14.8023	81.822649	0.000355	3.546985	1.201751	0.000142
 374	3.7114e+01	14.8456	81.959911	0.000345	3.445642	1.167415	0.000138
 375	3.7213e+01	14.8809	82.149657	0.000476	4.763094	1.613780	0.000191
 376	3.7313e+01	14.9162	82.331328	0.000456	4.560409	1.545108	0.000183
 377	3.7412e+01	14.9675	82.468590	0.000345	3.445642	1.167415	0.000138
 378	3.7511e+01	14.9980	82.626039	0.000395	3.952354	1.339094	0.000158
 379	3.7611e+01	15.0381	82.815784	0.000476	4.763094	1.613780	0.000191
 380	3.7711e+01	15.0734	82.969195	0.000385	3.851012	1.304758	0.000154
 381	3.7810e+01	15.1183	83.110495	0.000355	3.546985	1.201751	0.000142
 382	3.7910e+01	15.1600	83.288129	0.000446	4.459066	1.510773	0.000179
 383	3.8009e+01	15.2033	83.453651	0.000416	4.155039	1.407765	0.000166
 384	3.8108e+01	15.2338	83.562654	0.000274	2.736245	0.927065	0.000110
 385	3.8208e+01	15.2707	83.760474	0.000497	4.965779	1.682451	0.000199
 386	3.8307e+01	15.3252	83.962331	0.000507	5.067121	1.716787	0.000203
 387	3.8407e+01	15.3573	84.095556	0.000334	3.344300	1.133079	0.000134
 388	3.8507e+01	15.3958	84.216670	0.000304	3.040273	1.030072	0.000122
 389	3.8606e+01	15.4391	84.366044	0.000375	3.749670	1.270422	0.000150
 390	3.8706e+01	15.4825	84.575975	0.000527	5.269806	1.785459	0.000211
 391	3.8805e+01	15.5210	84.713238	0.000345	3.445642	1.167415	0.000138
 392	3.8904e+01	15.5643	84.866649	0.000385	3.851012	1.304758	0.000154
 393	3.9004e+01	15.6012	85.036209	0.000426	4.256382	1.442101	0.000170
 394	3.9103e+01	15.6349	85.173471	0.000345	3.445642	1.167415	0.000138
 395	3.9203e+01	15.6830	85.343031	0.000426	4.256382	1.442101	0.000170
 396	3.9303e+01	15.7119	85.520665	0.000446	4.459066	1.510773	0.000179
 397	3.9402e+01	15.7664	85.686187	0.000416	4.155039	1.407765	0.000166
 398	3.9502e+01	15.8001	85.819413	0.000334	3.344300	1.133079	0.000134
 399	3.9601e+01	15.8370	86.013195	0.000486	4.864436	1.648116	0.000195
 400	3.9700e+01	15.8787	86.166607	0.000385	3.851012	1.304758	0.000154
 401	3.9800e+01	15.9188	86.287721	0.000304	3.040273	1.030072	0.000122
 402	3.9900e+01	15.9557	86.477466	0.000476	4.763094	1.613780	0.000191
 403	3.9999e+01	15.9958	86.626840	0.000375	3.749670	1.270422	0.000150
 404	4.0099e+01	16.0407	86.800437	0.000436	4.357724	1.476437	0.000174
 405	4.0198e+01	16.0728	86.949811	0.000375	3.749670	1.270422	0.000150
 406	4.0297e+01	16.1193	87.123408	0.000436	4.357724	1.476437	0.000174
 407	4.0397e+01	16.1514	87.276819	0.000385	3.851012	1.304758	0.000154
 408	4.0496e+01	16.1899	87.466564	0.000476	4.763094	1.613780	0.000191
 409	4.0596e+01	16.2380	87.583641	0.000294	2.938930	0.995736	0.000118
 410	4.0696e+01	16.2701	87.741090	0.000395	3.952354	1.339094	0.000158
 411	4.0795e+01	16.3183	87.910649	0.000426	4.256382	1.442101	0.000170
 412	4.0895e+01	16.3535	88.088283	0.000446	4.459066	1.510773	0.000179
 413	4.0994e+01	16.3856	88.225546	0.000345	3.445642	1.167415	0.000138
 414	4.1093e+01	16.4354	88.366846	0.000355	3.546985	1.201751	0.000142
 415	4.1193e+01	16.4787	88.520257	0.000385	3.851012	1.304758	0.000154
 416	4.1292e+01	16.5060	88.710002	0.000476	4.763094	1.613780	0.000191
 417	4.1392e+01	16.5525	88.875525	0.000416	4.155039	1.407765	0.000166
 418	4.1492e+01	16.5942	89.037010	0.000405	4.053697	1.373430	0.000162
 419	4.1591e+01	16.6391	89.226756	0.000476	4.763094	1.613780	0.000191
 420	4.1691e+01	16.6776	89.351907	0.000314	3.141615	1.064408	0.000126
 421	4.1790e+01	16.7033	89.509355	0.000395	3.952354	1.339094	0.000158
 422	4.1889e+01	16.7482	89.658729	0.000375	3.749670	1.270422	0.000150
 423	4.1989e+01	16.7995	89.820214	0.000405	4.053697	1.373430	0.000162
 424	4.2089e+01	16.8300	89.965551	0.000365	3.648327	1.236087	0.000146
 425	4.2188e+01	16.8765	90.139148	0.000436	4.357724	1.476437	0.000174
 426	4.2288e+01	16.9198	90.300634	0.000405	4.053697	1.373430	0.000162
 427	4.2387e+01	16.9487	90.437896	0.000345	3.445642	1.167415	0.000138
 428	4.2486e+01	16.9824	90.587270	0.000375	3.749670	1.270422	0.000150
 429	4.2586e+01	17.0305	90.801238	0.000537	5.371148	1.819794	0.000215
 430	4.2685e+01	17.0722	90.962724	0.000405	4.053697	1.373430	0.000162
 431	4.2785e+01	17.1124	91.108061	0.000365	3.648327	1.236087	0.000146
 432	4.2885e+01	17.1541	91.257435	0.000375	3.749670	1.270422	0.000150
 433	4.2984e+01	17.1878	91.422957	0.000416	4.155039	1.407765	0.000166
 434	4.3084e+01	17.2311	91.600591	0.000446	4.459066	1.510773	0.000179
 435	4.3183e+01	17.2744	91.766114	0.000416	4.155039	1.407765	0.000166
 436	4.3282e+01	17.3081	91.943748	0.000446	4.459066	1.510773	0.000179
 437	4.3382e+01	17.3498	92.028528	0.000213	2.128191	0.721051	0.000085
 438	4.3481e+01	17.3835	92.230385	0.000507	5.067121	1.716787	0.000203
 439	4.3581e+01	17.4332	92.420130	0.000476	4.763094	1.613780	0.000191
 440	4.3681e+01	17.4781	92.593727	0.000436	4.357724	1.476437	0.000174
 441	4.3780e+01	17.5150	92.730989	0.000345	3.445642	1.167415	0.000138
 442	4.3880e+01	17.5535	92.880363	0.000375	3.749670	1.270422	0.000150
 443	4.3979e+01	17.5920	93.041849	0.000405	4.053697	1.373430	0.000162
 444	4.4078e+01	17.6193	93.227557	0.000466	4.661751	1.579444	0.000187
 445	4.4178e+01	17.6658	93.405191	0.000446	4.459066	1.510773	0.000179
 446	4.4278e+01	17.6995	93.530342	0.000314	3.141615	1.064408	0.000126
 447	4.4377e+01	17.7412	93.691828	0.000405	4.053697	1.373430	0.000162
 448	4.4477e+01	17.7925	93.837165	0.000365	3.648327	1.236087	0.000146
 449	4.4576e+01	17.8262	94.034984	0.000497	4.965779	1.682451	0.000199
 450	4.4675e+01	17.8647	94.168210	0.000334	3.344300	1.133079	0.000134
 451	4.4775e+01	17.9113	94.333732	0.000416	4.155039	1.407765	0.000166
 452	4.4874e+01	17.9449	94.523478	0.000476	4.763094	1.613780	0.000191
 453	4.4974e+01	17.9899	94.664777	0.000355	3.546985	1.201751	0.000142
 454	4.5074e+01	18.0316	94.814151	0.000375	3.749670	1.270422	0.000150
 455	4.5173e+01	18.0733	94.967563	0.000385	3.851012	1.304758	0.000154
 456	4.5273e+01	18.1118	95.169419	0.000507	5.067121	1.716787	0.000203
 457	4.5372e+01	18.1455	95.290533	0.000304	3.040273	1.030072	0.000122
 458	4.5471e+01	18.1856	95.480279	0.000476	4.763094	1.613780	0.000191
 459	4.5571e+01	18.2241	95.621579	0.000355	3.546985	1.201751	0.000142
 460	4.5670e+01	18.2610	95.787101	0.000416	4.155039	1.407765	0.000166
 461	4.5770e+01	18.3091	95.960698	0.000436	4.357724	1.476437	0.000174
 462	4.5870e+01	18.3412	96.134295	0.000436	4.357724	1.476437	0.000174
 463	4.5969e+01	18.3893	96.287706	0.000385	3.851012	1.304758	0.000154
 464	4.6069e+01	18.4294	96.461303	0.000436	4.357724	1.476437	0.000174
 465	4.6168e+01	18.4647	96.626825	0.000416	4.155039	1.407765	0.000166
 466	4.6267e+01	18.5032	96.816571	0.000476	4.763094	1.613780	0.000191
 467	4.6367e+01	18.5513	97.018427	0.000507	5.067121	1.716787	0.000203
 468	4.6467e+01	18.5834	97.127430	0.000274	2.736245	0.927065	0.000110
 469	4.6566e+01	18.6380	97.296990	0.000426	4.256382	1.442101	0.000170
 470	4.6666e+01	18.6781	97.478661	0.000456	4.560409	1.545108	0.000183
 471	4.6765e+01	18.7086	97.668406	0.000476	4.763094	1.613780	0.000191
 472	4.6864e+01	18.7503	97.817780	0.000375	3.749670	1.270422	0.000150
 473	4.6964e+01	18.7840	97.955043	0.000345	3.445642	1.167415	0.000138
 474	4.7063e+01	18.8353	98.156900	0.000507	5.067121	1.716787	0.000203
 475	4.7163e+01	18.8738	98.314348	0.000395	3.952354	1.339094	0.000158
 476	4.7263e+01	18.9075	98.471796	0.000395	3.952354	1.339094	0.000158
 477	4.7362e+01	18.9492	98.649430	0.000446	4.459066	1.510773	0.000179
 478	4.7462e+01	18.9893	98.835139	0.000466	4.661751	1.579444	0.000187
 479	4.7561e+01	19.0150	98.984513	0.000375	3.749670	1.270422	0.000150
 480	4.7660e+01	19.0695	99.145998	0.000405	4.053697	1.373430	0.000162
 481	4.7760e+01	19.1048	99.315558	0.000426	4.256382	1.442101	0.000170
 482	4.7859e+01	19.1449	99.473006	0.000395	3.952354	1.339094	0.000158
 483	4.7959e+01	19.1786	99.670826	0.000497	4.965779	1.682451	0.000199
 484	4.8059e+01	19.2331	99.820200	0.000375	3.749670	1.270422	0.000150
 485	4.8158e+01	19.2604	100.018019	0.000497	4.965779	1.682451	0.000199
 486	4.8258e+01	19.3053	100.163356	0.000365	3.648327	1.236087	0.000146
 487	4.8357e+01	19.3454	100.340990	0.000446	4.459066	1.510773	0.000179
 488	4.8456e+01	19.3727	100.482290	0.000355	3.546985	1.201751	0.000142
 489	4.8556e+01	19.4096	100.684147	0.000507	5.067121	1.716787	0.000203
 490	4.8656e+01	19.4658	100.853706	0.000426	4.256382	1.442101	0.000170
 491	4.8755e+01	19.4946	101.019229	0.000416	4.155039	1.407765	0.000166
 492	4.8855e+01	19.5444	101.176677	0.000395	3.952354	1.339094	0.000158
 493	4.8954e+01	19.5765	101.362386	0.000466	4.661751	1.579444	0.000187
 494	4.9053e+01	19.6166	101.531945	0.000426	4.256382	1.442101	0.000170
 495	4.9153e+01	19.6551	101.729765	0.000497	4.965779	1.682451	0.000199
 496	4.9252e+01	19.7080	101.887213	0.000395	3.952354	1.339094	0.000158
 497	4.9352e+01	19.7369	102.056773	0.000426	4.256382	1.442101	0.000170
 498	4.9452e+01	19.7866	102.206147	0.000375	3.749670	1.270422	0.000150
 499	4.9551e+01	19.8059	102.428189	0.000557	5.573833	1.888466	0.000223
 500	4.9651e+01	19.8540	102.565452	0.000345	3.445642	1.167415	0.000138
 501	4.9750e+01	19.9005	102.771346	0.000517	5.168463	1.751123	0.000207
 502	4.9849e+01	19.9342	102.953017	0.000456	4.560409	1.545108	0.000183
 503	4.9949e+01	19.9839	103.102391	0.000375	3.749670	1.270422	0.000150
 504	5.0048e+01	19.9326	103.078168	0.000061	0.608055	0.206014	-0.000024
 505	5.0148e+01	19.8909	103.053945	0.000061	0.608055	0.206014	-0.000024
 506	5.0248e+01	19.8572	102.981277	0.000182	1.824164	0.618043	-0.000073
 507	5.0347e+01	19.8187	102.981277	-0.000000	-0.000000	-0.000000	0.000000
 508	5.0447e+01	19.7834	102.888423	0.000233	2.330876	0.789722	-0.000093
 509	5.0546e+01	19.7417	102.835940	0.000132	1.317451	0.446365	-0.000053
 510	5.0645e+01	19.6920	102.759235	0.000193	1.925506	0.652379	-0.000077
 511	5.0745e+01	19.6679	102.702715	0.000142	1.418794	0.480700	-0.000057
 512	5.0844e+01	19.6262	102.662343	0.000101	1.013424	0.343357	-0.000041
 513	5.0944e+01	19.5845	102.617935	0.000111	1.114767	0.377693	-0.000045
 514	5.1044e+01	19.5380	102.521043	0.000243	2.432218	0.824058	-0.000097
 515	5.1143e+01	19.4994	102.408004	0.000284	2.837588	0.961401	-0.000114
 516	5.1242e+01	19.4577	102.359558	0.000122	1.216109	0.412029	-0.000049
 517	5.1342e+01	19.4176	102.290927	0.000172	1.722821	0.583708	-0.000069
 518	5.1441e+01	19.3807	102.234407	0.000142	1.418794	0.480700	-0.000057
 519	5.1541e+01	19.3406	102.157701	0.000193	1.925506	0.652379	-0.000077
 520	5.1641e+01	19.3069	102.117330	0.000101	1.013424	0.343357	-0.000041
 521	5.1740e+01	19.2636	102.008327	0.000274	2.736245	0.927065	-0.000110
 522	5.1840e+01	19.2187	101.923547	0.000213	2.128191	0.721051	-0.000085
 523	5.1939e+01	19.1802	101.846842	0.000193	1.925506	0.652379	-0.000077
 524	5.2038e+01	19.1401	101.786285	0.000152	1.520136	0.515036	-0.000061
 525	5.2138e+01	19.0984	101.693431	0.000233	2.330876	0.789722	-0.000093
 526	5.2237e+01	19.0759	101.616725	0.000193	1.925506	0.652379	-0.000077
 527	5.2337e+01	19.0278	101.507722	0.000274	2.736245	0.927065	-0.000110
 528	5.2437e+01	18.9941	101.418905	0.000223	2.229533	0.755386	-0.000089
 529	5.2536e+01	18.9556	101.313940	0.000263	2.634903	0.892729	-0.000105
 530	5.2636e+01	18.9091	101.277606	0.000091	0.912082	0.309022	-0.000037
 531	5.2735e+01	18.8626	101.148417	0.000324	3.242957	1.098744	-0.000130
 532	5.2834e+01	18.8305	101.087860	0.000152	1.520136	0.515036	-0.000061
 533	5.2934e+01	18.7840	100.990969	0.000243	2.432218	0.824058	-0.000097
 534	5.3033e+01	18.7471	100.894078	0.000243	2.432218	0.824058	-0.000097
 535	5.3133e+01	18.7086	100.793149	0.000253	2.533560	0.858394	-0.000101
 536	5.3233e+01	18.6701	100.740667	0.000132	1.317451	0.446365	-0.000053
 537	5.3332e+01	18.6235	100.627627	0.000284	2.837588	0.961401	-0.000114
 538	5.3431e+01	18.5898	100.506513	0.000304	3.040273	1.030072	-0.000122
 539	5.3531e+01	18.5481	100.441919	0.000162	1.621479	0.549372	-0.000065
 540	5.3630e+01	18.5096	100.353102	0.000223	2.229533	0.755386	-0.000089
 541	5.3730e+01	18.4679	100.231988	0.000304	3.040273	1.030072	-0.000122
 542	5.3830e+01	18.4262	100.159319	0.000182	1.824164	0.618043	-0.000073
 543	5.3929e+01	18.3893	100.082614	0.000193	1.925506	0.652379	-0.000077
 544	5.4029e+01	18.3492	99.969574	0.000284	2.837588	0.961401	-0.000114
 545	5.4128e+01	18.3139	99.884794	0.000213	2.128191	0.721051	-0.000085
 546	5.4227e+01	18.2642	99.767717	0.000294	2.938930	0.995736	-0.000118
 547	5.4327e+01	18.2321	99.691011	0.000193	1.925506	0.652379	-0.000077
 548	5.4426e+01	18.1776	99.553749	0.000345	3.445642	1.167415	-0.000138
 549	5.4526e+01	18.1487	99.460895	0.000233	2.330876	0.789722	-0.000093
 550	5.4626e+01	18.1054	99.372078	0.000223	2.229533	0.755386	-0.000089
 551	5.4725e+01	18.0701	99.279224	0.000233	2.330876	0.789722	-0.000093
 552	5.4825e+01	18.0268	99.150035	0.000324	3.242957	1.098744	-0.000130
 553	5.4924e+01	17.9899	99.049107	0.000253	2.533560	0.858394	-0.000101
 554	5.5023e+01	17.9449	98.960290	0.000223	2.229533	0.755386	-0.000089
 555	5.5123e+01	17.9097	98.831101	0.000324	3.242957	1.098744	-0.000130
 556	5.5222e+01	17.8615	98.709987	0.000304	3.040273	1.030072	-0.000122
 557	5.5322e+01	17.8343	98.621170	0.000223	2.229533	0.755386	-0.000089
 558	5.5422e+01	17.7829	98.532353	0.000223	2.229533	0.755386	-0.000089
 559	5.5521e+01	17.7428	98.431425	0.000253	2.533560	0.858394	-0.000101
 560	5.5620e+01	17.7043	98.265902	0.000416	4.155039	1.407765	-0.000166
 561	5.5720e+01	17.6674	98.233605	0.000081	0.810739	0.274686	-0.000032
 562	5.5819e+01	17.6305	98.064046	0.000426	4.256382	1.442101	-0.000170
 563	5.5919e+01	17.5888	97.951006	0.000284	2.837588	0.961401	-0.000114
 564	5.6019e+01	17.5535	97.882375	0.000172	1.722821	0.583708	-0.000069
 565	5.6118e+01	17.5070	97.773372	0.000274	2.736245	0.927065	-0.000110
 566	5.6218e+01	17.4701	97.628035	0.000365	3.648327	1.236087	-0.000146
 567	5.6317e+01	17.4284	97.539218	0.000223	2.229533	0.755386	-0.000089
 568	5.6416e+01	17.3995	97.438290	0.000253	2.533560	0.858394	-0.000101
 569	5.6516e+01	17.3578	97.345435	0.000233	2.330876	0.789722	-0.000093
 570	5.6615e+01	17.3081	97.220284	0.000314	3.141615	1.064408	-0.000126
 571	5.6715e+01	17.2728	97.111282	0.000274	2.736245	0.927065	-0.000110
 572	5.6815e+01	17.2295	96.978056	0.000334	3.344300	1.133079	-0.000134
 573	5.6914e+01	17.1845	96.885202	0.000233	2.330876	0.789722	-0.000093
 574	5.7014e+01	17.1509	96.768125	0.000294	2.938930	0.995736	-0.000118
 575	5.7113e+01	17.1124	96.663160	0.000263	2.634903	0.892729	-0.000105
 576	5.7212e+01	17.0738	96.533971	0.000324	3.242957	1.098744	-0.000130
 577	5.7312e+01	17.0305	96.473414	0.000152	1.520136	0.515036	-0.000061
 578	5.7411e+01	16.9856	96.356337	0.000294	2.938930	0.995736	-0.000118
 579	5.7511e+01	16.9487	96.231186	0.000314	3.141615	1.064408	-0.000126
 580	5.7611e+01	16.9086	96.097961	0.000334	3.344300	1.133079	-0.000134
 581	5.7710e+01	16.8717	95.984921	0.000284	2.837588	0.961401	-0.000114
 582	5.7809e+01	16.8300	95.863807	0.000304	3.040273	1.030072	-0.000122
 583	5.7909e+01	16.7947	95.746730	0.000294	2.938930	0.995736	-0.000118
 584	5.8008e+01	16.7642	95.637727	0.000274	2.736245	0.927065	-0.000110
 585	5.8108e+01	16.7113	95.536799	0.000253	2.533560	0.858394	-0.000101
 586	5.8208e+01	16.6728	95.411647	0.000314	3.141615	1.064408	-0.000126
 587	5.8307e+01	16.6327	95.310719	0.000253	2.533560	0.858394	-0.000101
 588	5.8407e+01	16.5958	95.193642	0.000294	2.938930	0.995736	-0.000118
 589	5.8506e+01	16.5461	95.068491	0.000314	3.141615	1.064408	-0.000126
 590	5.8605e+01	16.5172	94.951414	0.000294	2.938930	0.995736	-0.000118
 591	5.8705e+01	16.4691	94.846448	0.000263	2.634903	0.892729	-0.000105
 592	5.8804e+01	16.4322	94.737446	0.000274	2.736245	0.927065	-0.000110
 593	5.8904e+01	16.4065	94.600183	0.000345	3.445642	1.167415	-0.000138
 594	5.9004e+01	16.3519	94.458883	0.000355	3.546985	1.201751	-0.000142
 595	5.9103e+01	16.3134	94.357955	0.000253	2.533560	0.858394	-0.000101
 596	5.9203e+01	16.2749	94.204544	0.000385	3.851012	1.304758	-0.000154
 597	5.9302e+01	16.2316	94.127838	0.000193	1.925506	0.652379	-0.000077
 598	5.9401e+01	16.1995	93.974427	0.000385	3.851012	1.304758	-0.000154
 599	5.9501e+01	16.1530	93.893684	0.000203	2.026848	0.686715	-0.000081
 600	5.9600e+01	16.1145	93.788719	0.000263	2.634903	0.892729	-0.000105
 601	5.9700e+01	16.0808	93.647419	0.000355	3.546985	1.201751	-0.000142
 602	5.9800e+01	16.0343	93.542454	0.000263	2.634903	0.892729	-0.000105
 603	5.9899e+01	15.9958	93.409228	0.000334	3.344300	1.133079	-0.000134
 604	5.9998e+01	15.9557	93.344634	0.000162	1.621479	0.549372	-0.000065
 605	6.0098e+01	15.9108	93.187186	0.000395	3.952354	1.339094	-0.000158
 606	6.0197e+01	15.8739	93.062034	0.000314	3.141615	1.064408	-0.000126
 607	6.0297e+01	15.8354	92.904586	0.000395	3.952354	1.339094	-0.000158
 608	6.0397e+01	15.7921	92.795584	0.000274	2.736245	0.927065	-0.000110
 609	6.0496e+01	15.7568	92.714841	0.000203	2.026848	0.686715	-0.000081
 610	6.0596e+01	15.7167	92.585652	0.000324	3.242957	1.098744	-0.000130
 611	6.0695e+01	15.6814	92.436278	0.000375	3.749670	1.270422	-0.000150
 612	6.0794e+01	15.6332	92.331313	0.000263	2.634903	0.892729	-0.000105
 613	6.0894e+01	15.5899	92.218273	0.000284	2.837588	0.961401	-0.000114
 614	6.0993e+01	15.5498	92.085048	0.000334	3.344300	1.133079	-0.000134
 615	6.1093e+01	15.5081	91.972008	0.000284	2.837588	0.961401	-0.000114
 616	6.1193e+01	15.4696	91.834745	0.000345	3.445642	1.167415	-0.000138
 617	6.1292e+01	15.4375	91.733817	0.000253	2.533560	0.858394	-0.000101
 618	6.1392e+01	15.3926	91.588480	0.000365	3.648327	1.236087	-0.000146
 619	6.1491e+01	15.3605	91.451217	0.000345	3.445642	1.167415	-0.000138
 620	6.1590e+01	15.3172	91.301843	0.000375	3.749670	1.270422	-0.000150
 621	6.1690e+01	15.2723	91.188803	0.000284	2.837588	0.961401	-0.000114
 622	6.1789e+01	15.2450	91.063652	0.000314	3.141615	1.064408	-0.000126
 623	6.1889e+01	15.1985	90.982910	0.000203	2.026848	0.686715	-0.000081
 624	6.1989e+01	15.1552	90.825461	0.000395	3.952354	1.339094	-0.000158
 625	6.2088e+01	15.1135	90.720496	0.000263	2.634903	0.892729	-0.000105
 626	6.2188e+01	15.0782	90.599382	0.000304	3.040273	1.030072	-0.000122
 627	6.2287e+01	15.0445	90.462119	0.000345	3.445642	1.167415	-0.000138
 628	6.2386e+01	15.0028	90.328894	0.000334	3.344300	1.133079	-0.000134
 629	6.2486e+01	14.9595	90.191631	0.000345	3.445642	1.167415	-0.000138
 630	6.2586e+01	14.9274	90.070517	0.000304	3.040273	1.030072	-0.000122
 631	6.2685e+01	14.8825	89.921143	0.000375	3.749670	1.270422	-0.000150
 632	6.2785e+01	14.8472	89.848474	0.000182	1.824164	0.618043	-0.000073
 633	6.2884e+01	14.7990	89.686989	0.000405	4.053697	1.373430	-0.000162
 634	6.2983e+01	14.7718	89.573949	0.000284	2.837588	0.961401	-0.000114
 635	6.3083e+01	14.7220	89.404389	0.000426	4.256382	1.442101	-0.000170
 636	6.3182e+01	14.6803	89.335758	0.000172	1.722821	0.583708	-0.000069
 637	6.3282e+01	14.6402	89.218681	0.000294	2.938930	0.995736	-0.000118
 638	6.3382e+01	14.6033	89.081419	0.000345	3.445642	1.167415	-0.000138
 639	6.3481e+01	14.5648	88.948193	0.000334	3.344300	1.133079	-0.000134
 640	6.3581e+01	14.5279	88.831116	0.000294	2.938930	0.995736	-0.000118
 641	6.3680e+01	14.4830	88.689816	0.000355	3.546985	1.201751	-0.000142
 642	6.3779e+01	14.4477	88.584851	0.000263	2.634903	0.892729	-0.000105
 643	6.3879e+01	14.4076	88.471811	0.000284	2.837588	0.961401	-0.000114
 644	6.3978e+01	14.3579	88.294177	0.000446	4.459066	1.510773	-0.000179
 645	6.4078e+01	14.3210	88.193249	0.000253	2.533560	0.858394	-0.000101
 646	6.4177e+01	14.2841	88.060023	0.000334	3.344300	1.133079	-0.000134
 647	6.4277e+01	14.2440	87.922761	0.000345	3.445642	1.167415	-0.000138
 648	6.4376e+01	14.2103	87.825869	0.000243	2.432218	0.824058	-0.000097
 649	6.4476e+01	14.1541	87.676495	0.000375	3.749670	1.270422	-0.000150
 650	6.4576e+01	14.1285	87.531159	0.000365	3.648327	1.236087	-0.000146
 651	6.4675e+01	14.0820	87.442342	0.000223	2.229533	0.755386	-0.000089
 652	6.4775e+01	14.0370	87.305079	0.000345	3.445642	1.167415	-0.000138
 653	6.4874e+01	14.0082	87.151668	0.000385	3.851012	1.304758	-0.000154
 654	6.4974e+01	13.9616	87.050739	0.000253	2.533560	0.858394	-0.000101
 655	6.5073e+01	13.9231	86.860994	0.000476	4.763094	1.613780	-0.000191
 656	6.5172e+01	13.8830	86.772177	0.000223	2.229533	0.755386	-0.000089
 657	6.5272e+01	13.8445	86.626840	0.000365	3.648327	1.236087	-0.000146
 658	6.5371e+01	13.8044	86.493615	0.000334	3.344300	1.133079	-0.000134
 659	6.5471e+01	13.7579	86.372501	0.000304	3.040273	1.030072	-0.000122
 660	6.5570e+01	13.7146	86.235238	0.000345	3.445642	1.167415	-0.000138
 661	6.5670e+01	13.6889	86.110087	0.000314	3.141615	1.064408	-0.000126
 662	6.5769e+01	13.6344	85.980898	0.000324	3.242957	1.098744	-0.000130
 663	6.5869e+01	13.6103	85.827487	0.000385	3.851012	1.304758	-0.000154
 664	6.5969e+01	13.5606	85.682150	0.000365	3.648327	1.236087	-0.000146
 665	6.6068e+01	13.5237	85.577185	0.000263	2.634903	0.892729	-0.000105
 666	6.6168e+01	13.4820	85.395514	0.000456	4.560409	1.545108	-0.000183
 667	6.6267e+01	13.4451	85.298622	0.000243	2.432218	0.824058	-0.000097
 668	6.6367e+01	13.4066	85.193657	0.000263	2.634903	0.892729	-0.000105
 669	6.6466e+01	13.3697	85.044283	0.000375	3.749670	1.270422	-0.000150
 670	6.6566e+01	13.3183	84.915095	0.000324	3.242957	1.098744	-0.000130
 671	6.6665e+01	13.2895	84.785906	0.000324	3.242957	1.098744	-0.000130
 672	6.6764e+01	13.2429	84.644606	0.000355	3.546985	1.201751	-0.000142
 673	6.6864e+01	13.2044	84.483121	0.000405	4.053697	1.373430	-0.000162
 674	6.6963e+01	13.1756	84.390267	0.000233	2.330876	0.789722	-0.000093
 675	6.7063e+01	13.1274	84.220707	0.000426	4.256382	1.442101	-0.000170
 676	6.7162e+01	13.0889	84.091519	0.000324	3.242957	1.098744	-0.000130
 677	6.7262e+01	13.0440	83.966368	0.000314	3.141615	1.064408	-0.000126
 678	6.7362e+01	12.9991	83.841216	0.000314	3.141615	1.064408	-0.000126
 679	6.7461e+01	12.9670	83.659545	0.000456	4.560409	1.545108	-0.000183
 680	6.7561e+01	12.9189	83.554580	0.000263	2.634903	0.892729	-0.000105
 681	6.7660e+01	12.8820	83.401169	0.000385	3.851012	1.304758	-0.000154
 682	6.7760e+01	12.8531	83.280055	0.000304	3.040273	1.030072	-0.000122
 683	6.7859e+01	12.8082	83.126643	0.000385	3.851012	1.304758	-0.000154
 684	6.7959e+01	12.7713	83.021678	0.000263	2.634903	0.892729	-0.000105
 685	6.8058e+01	12.7280	82.848081	0.000436	4.357724	1.476437	-0.000174
 686	6.8157e+01	12.6959	82.706781	0.000355	3.546985	1.201751	-0.000142
 687	6.8257e+01	12.6494	82.589704	0.000294	2.938930	0.995736	-0.000118
 688	6.8356e+01	12.6125	82.436293	0.000385	3.851012	1.304758	-0.000154
 689	6.8456e+01	12.5611	82.266734	0.000426	4.256382	1.442101	-0.000170
 690	6.8555e+01	12.5307	82.165805	0.000253	2.533560	0.858394	-0.000101
 691	6.8655e+01	12.4938	82.012394	0.000385	3.851012	1.304758	-0.000154
 692	6.8754e+01	12.4488	81.875131	0.000345	3.445642	1.167415	-0.000138
 693	6.8854e+01	12.4136	81.778240	0.000243	2.432218	0.824058	-0.000097
 694	6.8954e+01	12.3702	81.592532	0.000466	4.661751	1.579444	-0.000187
 695	6.9053e+01	12.3349	81.515826	0.000193	1.925506	0.652379	-0.000077
 696	6.9153e+01	12.2900	81.322044	0.000486	4.864436	1.648116	-0.000195
 697	6.9252e+01	12.2451	81.188818	0.000334	3.344300	1.133079	-0.000134
 698	6.9352e+01	12.2114	81.055593	0.000334	3.344300	1.133079	-0.000134
 699	6.9451e+01	12.1745	80.934479	0.000304	3.040273	1.030072	-0.000122
 700	6.9550e+01	12.1296	80.744733	0.000476	4.763094	1.613780	-0.000191
 701	6.9650e+01	12.0879	80.615545	0.000324	3.242957	1.098744	-0.000130
 702	6.9749e+01	12.0446	80.490394	0.000314	3.141615	1.064408	-0.000126
 703	6.9849e+01	12.0109	80.332945	0.000395	3.952354	1.339094	-0.000158
 704	6.9948e+01	11.9676	80.183571	0.000375	3.749670	1.270422	-0.000150
 705	7.0048e+01	11.9291	80.066495	0.000294	2.938930	0.995736	-0.000118
 706	7.0147e+01	11.8938	79.913083	0.000385	3.851012	1.304758	-0.000154
 707	7.0247e+01	11.8601	79.751598	0.000405	4.053697	1.373430	-0.000162
 708	7.0347e+01	11.8120	79.622410	0.000324	3.242957	1.098744	-0.000130
 709	7.0446e+01	11.7783	79.509370	0.000284	2.837588	0.961401	-0.000114
 710	7.0546e+01	11.7382	79.327699	0.000456	4.560409	1.545108	-0.000183
 711	7.0645e+01	11.6949	79.202547	0.000314	3.141615	1.064408	-0.000126
 712	7.0745e+01	11.6531	79.101619	0.000253	2.533560	0.858394	-0.000101
 713	7.0844e+01	11.6146	78.936097	0.000416	4.155039	1.407765	-0.000166
 714	7.0944e+01	11.5761	78.814982	0.000304	3.040273	1.030072	-0.000122
 715	7.1043e+01	11.5280	78.649460	0.000416	4.155039	1.407765	-0.000166
 716	7.1142e+01	11.4991	78.508160	0.000355	3.546985	1.201751	-0.000142
 717	7.1242e+01	11.4590	78.318415	0.000476	4.763094	1.613780	-0.000191
 718	7.1341e+01	11.4141	78.193264	0.000314	3.141615	1.064408	-0.000126
 719	7.1441e+01	11.3772	78.060038	0.000334	3.344300	1.133079	-0.000134
 720	7.1540e+01	11.3355	77.902590	0.000395	3.952354	1.339094	-0.000158
 721	7.1640e+01	11.2986	77.753216	0.000375	3.749670	1.270422	-0.000150
 722	7.1740e+01	11.2553	77.624027	0.000324	3.242957	1.098744	-0.000130
 723	7.1839e+01	11.2136	77.442356	0.000456	4.560409	1.545108	-0.000183
 724	7.1939e+01	11.1783	77.297019	0.000365	3.648327	1.236087	-0.000146
 725	7.2038e+01	11.1366	77.147645	0.000375	3.749670	1.270422	-0.000150
 726	7.2138e+01	11.0933	77.010383	0.000345	3.445642	1.167415	-0.000138
 727	7.2237e+01	11.0516	76.848897	0.000405	4.053697	1.373430	-0.000162
 728	7.2337e+01	11.0163	76.687412	0.000405	4.053697	1.373430	-0.000162
 729	7.2436e+01	10.9794	76.529964	0.000395	3.952354	1.339094	-0.000158
 730	7.2535e+01	10.9425	76.412887	0.000294	2.938930	0.995736	-0.000118
 731	7.2635e+01	10.8959	76.219104	0.000486	4.864436	1.648116	-0.000195
 732	7.2734e+01	10.8510	76.093953	0.000314	3.141615	1.064408	-0.000126
 733	7.2834e+01	10.8141	75.940542	0.000385	3.851012	1.304758	-0.000154
 734	7.2933e+01	10.7901	75.779056	0.000405	4.053697	1.373430	-0.000162
 735	7.3033e+01	10.7387	75.674091	0.000263	2.634903	0.892729	-0.000105
 736	7.3132e+01	10.7034	75.480308	0.000486	4.864436	1.648116	-0.000195
 737	7.3232e+01	10.6537	75.334971	0.000365	3.648327	1.236087	-0.000146
 738	7.3332e+01	10.6120	75.221932	0.000284	2.837588	0.961401	-0.000114
 739	7.3431e+01	10.5799	75.044298	0.000446	4.459066	1.510773	-0.000179
 740	7.3531e+01	10.5382	74.886849	0.000395	3.952354	1.339094	-0.000158
 741	7.3630e+01	10.5045	74.729401	0.000395	3.952354	1.339094	-0.000158
 742	7.3730e+01	10.4628	74.592138	0.000345	3.445642	1.167415	-0.000138
 743	7.3829e+01	10.4163	74.406430	0.000466	4.661751	1.579444	-0.000187
 744	7.3928e+01	10.3778	74.277242	0.000324	3.242957	1.098744	-0.000130
 745	7.4028e+01	10.3329	74.127868	0.000375	3.749670	1.270422	-0.000150
 746	7.4127e+01	10.2992	73.978494	0.000375	3.749670	1.270422	-0.000150
 747	7.4227e+01	10.2607	73.804897	0.000436	4.357724	1.476437	-0.000174
 748	7.4326e+01	10.2125	73.675709	0.000324	3.242957	1.098744	-0.000130
 749	7.4426e+01	10.1869	73.526335	0.000375	3.749670	1.270422	-0.000150
 750	7.4525e+01	10.1339	73.360812	0.000416	4.155039	1.407765	-0.000166
 751	7.4625e+01	10.1035	73.223549	0.000345	3.445642	1.167415	-0.000138
 752	7.4725e+01	10.0617	73.082250	0.000355	3.546985	1.201751	-0.000142
 753	7.4824e+01	10.0184	72.872319	0.000527	5.269806	1.785459	-0.000211
 754	7.4924e+01	9.9831	72.731019	0.000355	3.546985	1.201751	-0.000142
 755	7.5023e+01	9.9398	72.573571	0.000395	3.952354	1.339094	-0.000158
 756	7.5123e+01	9.8965	72.399974	0.000436	4.357724	1.476437	-0.000174
 757	7.5222e+01	9.8564	72.250600	0.000375	3.749670	1.270422	-0.000150
 758	7.5322e+01	9.8179	72.121411	0.000324	3.242957	1.098744	-0.000130
 759	7.5421e+01	9.7778	71.968000	0.000385	3.851012	1.304758	-0.000154
 760	7.5520e+01	9.7441	71.810552	0.000395	3.952354	1.339094	-0.000158
 761	7.5620e+01	9.7072	71.628881	0.000456	4.560409	1.545108	-0.000183
 762	7.5719e+01	9.6671	71.475470	0.000385	3.851012	1.304758	-0.000154
 763	7.5819e+01	9.6158	71.322059	0.000385	3.851012	1.304758	-0.000154
 764	7.5918e+01	9.5933	71.184796	0.000345	3.445642	1.167415	-0.000138
 765	7.6018e+01	9.5452	71.011199	0.000436	4.357724	1.476437	-0.000174
 766	7.6118e+01	9.5003	70.857788	0.000385	3.851012	1.304758	-0.000154
 767	7.6217e+01	9.4586	70.668043	0.000476	4.763094	1.613780	-0.000191
 768	7.6317e+01	9.4313	70.546928	0.000304	3.040273	1.030072	-0.000122
 769	7.6416e+01	9.3864	70.393517	0.000385	3.851012	1.304758	-0.000154
 770	7.6516e+01	9.3382	70.219920	0.000436	4.357724	1.476437	-0.000174
 771	7.6615e+01	9.2949	70.050361	0.000426	4.256382	1.442101	-0.000170
 772	7.6715e+01	9.2644	69.872727	0.000446	4.459066	1.510773	-0.000179
 773	7.6814e+01	9.2227	69.735464	0.000345	3.445642	1.167415	-0.000138
 774	7.6913e+01	9.1810	69.594164	0.000355	3.546985	1.201751	-0.000142
 775	7.7013e+01	9.1473	69.396345	0.000497	4.965779	1.682451	-0.000199
 776	7.7112e+01	9.1104	69.283305	0.000284	2.837588	0.961401	-0.000114
 777	7.7212e+01	9.0607	69.101634	0.000456	4.560409	1.545108	-0.000183
 778	7.7311e+01	9.0142	68.944186	0.000395	3.952354	1.339094	-0.000158
 779	7.7411e+01	8.9837	68.790774	0.000385	3.851012	1.304758	-0.000154
 780	7.7510e+01	8.9372	68.617178	0.000436	4.357724	1.476437	-0.000174
 781	7.7610e+01	8.9019	68.467804	0.000375	3.749670	1.270422	-0.000150
 782	7.7710e+01	8.8570	68.278058	0.000476	4.763094	1.613780	-0.000191
 783	7.7809e+01	8.8281	68.096387	0.000456	4.560409	1.545108	-0.000183
 784	7.7909e+01	8.7896	67.987384	0.000274	2.736245	0.927065	-0.000110
 785	7.8008e+01	8.7334	67.813788	0.000436	4.357724	1.476437	-0.000174
 786	7.8108e+01	8.7062	67.599819	0.000537	5.371148	1.819794	-0.000215
 787	7.8207e+01	8.6613	67.454482	0.000365	3.648327	1.236087	-0.000146
 788	7.8306e+01	8.6179	67.288960	0.000416	4.155039	1.407765	-0.000166
 789	7.8406e+01	8.5810	67.123437	0.000416	4.155039	1.407765	-0.000166
 790	7.8505e+01	8.5441	66.970026	0.000385	3.851012	1.304758	-0.000154
 791	7.8605e+01	8.4992	66.792392	0.000446	4.459066	1.510773	-0.000179
 792	7.8704e+01	8.4687	66.614758	0.000446	4.459066	1.510773	-0.000179
 793	7.8804e+01	8.4254	66.461347	0.000385	3.851012	1.304758	-0.000154
 794	7.8903e+01	8.3869	66.275639	0.000466	4.661751	1.579444	-0.000187
 795	7.9003e+01	8.3484	66.142413	0.000334	3.344300	1.133079	-0.000134
 796	7.9103e+01	8.3051	65.968817	0.000436	4.357724	1.476437	-0.000174
 797	7.9202e+01	8.2586	65.811368	0.000395	3.952354	1.339094	-0.000158
 798	7.9302e+01	8.2201	65.613549	0.000497	4.965779	1.682451	-0.000199
 799	7.9401e+01	8.1864	65.484360	0.000324	3.242957	1.098744	-0.000130
 800	7.9501e+01	8.1383	65.310763	0.000436	4.357724	1.476437	-0.000174
 801	7.9600e+01	8.0998	65.129092	0.000456	4.560409	1.545108	-0.000183
 802	7.9700e+01	8.0613	64.931273	0.000497	4.965779	1.682451	-0.000199
 803	7.9799e+01	8.0292	64.794010	0.000345	3.445642	1.167415	-0.000138
 804	7.9898e+01	7.9907	64.616376	0.000446	4.459066	1.510773	-0.000179
 805	7.9998e+01	7.9490	64.442779	0.000436	4.357724	1.476437	-0.000174
 806	8.0097e+01	7.9105	64.277257	0.000416	4.155039	1.407765	-0.000166
 807	8.0197e+01	7.8736	64.087511	0.000476	4.763094	1.613780	-0.000191
 808	8.0296e+01	7.8222	63.950249	0.000345	3.445642	1.167415	-0.000138
 809	8.0396e+01	7.7886	63.788763	0.000405	4.053697	1.373430	-0.000162
 810	8.0496e+01	7.7565	63.599018	0.000476	4.763094	1.613780	-0.000191
 811	8.0595e+01	7.7051	63.413310	0.000466	4.661751	1.579444	-0.000187
 812	8.0695e+01	7.6682	63.304307	0.000274	2.736245	0.927065	-0.000110
 813	8.0794e+01	7.6329	63.118599	0.000466	4.661751	1.579444	-0.000187
 814	8.0894e+01	7.5880	62.945002	0.000436	4.357724	1.476437	-0.000174
 815	8.0993e+01	7.5447	62.751219	0.000486	4.864436	1.648116	-0.000195
 816	8.1093e+01	7.5142	62.577623	0.000436	4.357724	1.476437	-0.000174
 817	8.1192e+01	7.4709	62.416137	0.000405	4.053697	1.373430	-0.000162
 818	8.1291e+01	7.4260	62.262726	0.000385	3.851012	1.304758	-0.000154
 819	8.1391e+01	7.3859	62.093166	0.000426	4.256382	1.442101	-0.000170
 820	8.1490e+01	7.3506	61.891309	0.000507	5.067121	1.716787	-0.000203
 821	8.1590e+01	7.3121	61.725787	0.000416	4.155039	1.407765	-0.000166
 822	8.1689e+01	7.2704	61.527967	0.000497	4.965779	1.682451	-0.000199
 823	8.1789e+01	7.2319	61.374556	0.000385	3.851012	1.304758	-0.000154
 824	8.1888e+01	7.1886	61.196922	0.000446	4.459066	1.510773	-0.000179
 825	8.1988e+01	7.1549	61.031400	0.000416	4.155039	1.407765	-0.000166
 826	8.2088e+01	7.1051	60.821468	0.000527	5.269806	1.785459	-0.000211
 827	8.2187e+01	7.0699	60.688243	0.000334	3.344300	1.133079	-0.000134
 828	8.2287e+01	7.0297	60.478312	0.000527	5.269806	1.785459	-0.000211
 829	8.2386e+01	6.9977	60.324901	0.000385	3.851012	1.304758	-0.000154
 830	8.2486e+01	6.9576	60.127081	0.000497	4.965779	1.682451	-0.000199
 831	8.2585e+01	6.9110	60.022116	0.000263	2.634903	0.892729	-0.000105
 832	8.2684e+01	6.8709	59.800073	0.000557	5.573833	1.888466	-0.000223
 833	8.2784e+01	6.8324	59.618402	0.000456	4.560409	1.545108	-0.000183
 834	8.2883e+01	6.7907	59.432694	0.000466	4.661751	1.579444	-0.000187
 835	8.2983e+01	6.7458	59.251023	0.000456	4.560409	1.545108	-0.000183
 836	8.3082e+01	6.7121	59.061277	0.000476	4.763094	1.613780	-0.000191
 837	8.3182e+01	6.6768	58.835198	0.000568	5.675175	1.922802	-0.000227
 838	8.3281e+01	6.6335	58.738306	0.000243	2.432218	0.824058	-0.000097
 839	8.3381e+01	6.5950	58.532412	0.000517	5.168463	1.751123	-0.000207
 840	8.3481e+01	6.5533	58.330556	0.000507	5.067121	1.716787	-0.000203
 841	8.3580e+01	6.5068	58.144847	0.000466	4.661751	1.579444	-0.000187
 842	8.3680e+01	6.4731	57.991436	0.000385	3.851012	1.304758	-0.000154
 843	8.3779e+01	6.4346	57.813802	0.000446	4.459066	1.510773	-0.000179
 844	8.3879e+01	6.3929	57.640205	0.000436	4.357724	1.476437	-0.000174
 845	8.3978e+01	6.3496	57.454497	0.000466	4.661751	1.579444	-0.000187
 846	8.4078e+01	6.3159	57.240529	0.000537	5.371148	1.819794	-0.000215
 847	8.4177e+01	6.2806	57.087118	0.000385	3.851012	1.304758	-0.000154
 848	8.4276e+01	6.2324	56.889298	0.000497	4.965779	1.682451	-0.000199
 849	8.4376e+01	6.1891	56.719739	0.000426	4.256382	1.442101	-0.000170
 850	8.4475e+01	6.1554	56.517882	0.000507	5.067121	1.716787	-0.000203
 851	8.4575e+01	6.1153	56.324099	0.000486	4.864436	1.648116	-0.000195
 852	8.4674e+01	6.0640	56.146465	0.000446	4.459066	1.510773	-0.000179
 853	8.4774e+01	6.0447	56.025351	0.000304	3.040273	1.030072	-0.000122
 854	8.4874e+01	5.9966	55.783123	0.000608	6.080545	2.060144	-0.000243
 855	8.4973e+01	5.9405	55.589341	0.000486	4.864436	1.648116	-0.000195
 856	8.5073e+01	5.9148	55.427855	0.000405	4.053697	1.373430	-0.000162
 857	8.5172e+01	5.8731	55.238110	0.000476	4.763094	1.613780	-0.000191
 858	8.5272e+01	5.8314	55.036253	0.000507	5.067121	1.716787	-0.000203
 859	8.5371e+01	5.8009	54.866693	0.000426	4.256382	1.442101	-0.000170
 860	8.5471e+01	5.7512	54.685022	0.000456	4.560409	1.545108	-0.000183
 861	8.5570e+01	5.7159	54.483165	0.000507	5.067121	1.716787	-0.000203
 862	8.5669e+01	5.6758	54.301494	0.000456	4.560409	1.545108	-0.000183
 863	8.5769e+01	5.6389	54.079452	0.000557	5.573833	1.888466	-0.000223
 864	8.5868e+01	5.5972	53.873558	0.000517	5.168463	1.751123	-0.000207
 865	8.5968e+01	5.5651	53.712072	0.000405	4.053697	1.373430	-0.000162
 866	8.6067e+01	5.5250	53.526364	0.000466	4.661751	1.579444	-0.000187
 867	8.6167e+01	5.4817	53.332582	0.000486	4.864436	1.648116	-0.000195
 868	8.6266e+01	5.4351	53.118613	0.000537	5.371148	1.819794	-0.000215
 869	8.6366e+01	5.3982	52.981351	0.000345	3.445642	1.167415	-0.000138
 870	8.6466e+01	5.3565	52.763346	0.000547	5.472491	1.854130	-0.000219
 871	8.6565e+01	5.3148	52.569563	0.000486	4.864436	1.648116	-0.000195
 872	8.6665e+01	5.2779	52.367706	0.000507	5.067121	1.716787	-0.000203
 873	8.6764e+01	5.2346	52.190072	0.000446	4.459066	1.510773	-0.000179
 874	8.6864e+01	5.2009	51.976104	0.000537	5.371148	1.819794	-0.000215
 875	8.6963e+01	5.1688	51.782322	0.000486	4.864436	1.648116	-0.000195
 876	8.7063e+01	5.1223	51.608725	0.000436	4.357724	1.476437	-0.000174
 877	8.7162e+01	5.0806	51.406868	0.000507	5.067121	1.716787	-0.000203
 878	8.7261e+01	5.0453	51.192900	0.000537	5.371148	1.819794	-0.000215
 879	8.7361e+01	4.9956	50.987006	0.000517	5.168463	1.751123	-0.000207
 880	8.7460e+01	4.9555	50.805335	0.000456	4.560409	1.545108	-0.000183
 881	8.7560e+01	4.9250	50.579255	0.000568	5.675175	1.922802	-0.000227
 882	8.7659e+01	4.8817	50.397584	0.000456	4.560409	1.545108	-0.000183
 883	8.7759e+01	4.8384	50.236099	0.000405	4.053697	1.373430	-0.000162
 884	8.7859e+01	4.7967	50.038279	0.000497	4.965779	1.682451	-0.000199
 885	8.7958e+01	4.7501	49.816236	0.000557	5.573833	1.888466	-0.000223
 886	8.8058e+01	4.7229	49.626491	0.000476	4.763094	1.613780	-0.000191
 887	8.8157e+01	4.6860	49.428671	0.000497	4.965779	1.682451	-0.000199
 888	8.8257e+01	4.6362	49.222777	0.000517	5.168463	1.751123	-0.000207
 889	8.8356e+01	4.5913	49.008809	0.000537	5.371148	1.819794	-0.000215
 890	8.8456e+01	4.5640	48.831175	0.000446	4.459066	1.510773	-0.000179
 891	8.8555e+01	4.5336	48.609133	0.000557	5.573833	1.888466	-0.000223
 892	8.8654e+01	4.4790	48.391128	0.000547	5.472491	1.854130	-0.000219
 893	8.8754e+01	4.4469	48.197345	0.000486	4.864436	1.648116	-0.000195
 894	8.8853e+01	4.3876	47.955117	0.000608	6.080545	2.060144	-0.000243
 895	8.8953e+01	4.3571	47.769409	0.000466	4.661751	1.579444	-0.000187
 896	8.9052e+01	4.3250	47.563515	0.000517	5.168463	1.751123	-0.000207
 897	8.9152e+01	4.2849	47.341472	0.000557	5.573833	1.888466	-0.000223
 898	8.9251e+01	4.2448	47.135578	0.000517	5.168463	1.751123	-0.000207
 899	8.9351e+01	4.2063	46.941796	0.000486	4.864436	1.648116	-0.000195
 900	8.9451e+01	4.1582	46.752050	0.000476	4.763094	1.613780	-0.000191
 901	8.9550e+01	4.1197	46.530008	0.000557	5.573833	1.888466	-0.000223
 902	8.9650e+01	4.0812	46.295854	0.000588	5.877860	1.991473	-0.000235
 903	8.9749e+01	4.0411	46.138406	0.000395	3.952354	1.339094	-0.000158
 904	8.9849e+01	4.0122	45.884066	0.000638	6.384572	2.163152	-0.000256
 905	8.9948e+01	3.9641	45.698358	0.000466	4.661751	1.579444	-0.000187
 906	9.0047e+01	3.9304	45.468241	0.000578	5.776518	1.957137	-0.000231
 907	9.0147e+01	3.8774	45.274459	0.000486	4.864436	1.648116	-0.000195
 908	9.0246e+01	3.8325	45.060491	0.000537	5.371148	1.819794	-0.000215
 909	9.0346e+01	3.8052	44.870745	0.000476	4.763094	1.613780	-0.000191
 910	9.0445e+01	3.7635	44.588146	0.000709	7.093969	2.403502	-0.000284
 911	9.0545e+01	3.7218	44.438772	0.000375	3.749670	1.270422	-0.000150
 912	9.0644e+01	3.6897	44.200581	0.000598	5.979203	2.025809	-0.000239
 913	9.0744e+01	3.6512	43.994687	0.000517	5.168463	1.751123	-0.000207
 914	9.0844e+01	3.5983	43.796867	0.000497	4.965779	1.682451	-0.000199
 915	9.0943e+01	3.5710	43.558676	0.000598	5.979203	2.025809	-0.000239
 916	9.1043e+01	3.5213	43.340671	0.000547	5.472491	1.854130	-0.000219
 917	9.1142e+01	3.4796	43.150925	0.000476	4.763094	1.613780	-0.000191
 918	9.1242e+01	3.4443	42.872363	0.000699	6.992627	2.369166	-0.000280
 919	9.1341e+01	3.4058	42.686655	0.000466	4.661751	1.579444	-0.000187
 920	9.1441e+01	3.3673	42.484798	0.000507	5.067121	1.716787	-0.000203
 921	9.1540e+01	3.3304	42.262755	0.000557	5.573833	1.888466	-0.000223
 922	9.1639e+01	3.2823	42.012453	0.000628	6.283230	2.128816	-0.000252
 923	9.1739e+01	3.2438	41.842893	0.000426	4.256382	1.442101	-0.000170
 924	9.1838e+01	3.1988	41.580480	0.000659	6.587257	2.231823	-0.000264
 925	9.1938e+01	3.1684	41.374586	0.000517	5.168463	1.751123	-0.000207
 926	9.2037e+01	3.1266	41.148506	0.000568	5.675175	1.922802	-0.000227
 927	9.2137e+01	3.0881	40.950686	0.000497	4.965779	1.682451	-0.000199
 928	9.2237e+01	3.0416	40.684235	0.000669	6.688600	2.266159	-0.000268
 929	9.2336e+01	3.0031	40.482379	0.000507	5.067121	1.716787	-0.000203
 930	9.2436e+01	2.9646	40.260336	0.000557	5.573833	1.888466	-0.000223
 931	9.2535e+01	2.9229	40.050405	0.000527	5.269806	1.785459	-0.000211
 932	9.2635e+01	2.8876	39.783954	0.000669	6.688600	2.266159	-0.000268
 933	9.2734e+01	2.8459	39.582097	0.000507	5.067121	1.716787	-0.000203
 934	9.2834e+01	2.8090	39.356018	0.000568	5.675175	1.922802	-0.000227
 935	9.2933e+01	2.7721	39.109752	0.000618	6.181888	2.094480	-0.000248
 936	9.3032e+01	2.7256	38.911933	0.000497	4.965779	1.682451	-0.000199
 937	9.3132e+01	2.6903	38.669705	0.000608	6.080545	2.060144	-0.000243
 938	9.3231e+01	2.6550	38.451699	0.000547	5.472491	1.854130	-0.000219
 939	9.3331e+01	2.6101	38.193323	0.000649	6.485915	2.197487	-0.000260
 940	9.3430e+01	2.5652	37.991466	0.000507	5.067121	1.716787	-0.000203
 941	9.3530e+01	2.5219	37.757312	0.000588	5.877860	1.991473	-0.000235
 942	9.3629e+01	2.4898	37.502972	0.000638	6.384572	2.163152	-0.000256
 943	9.3729e+01	2.4481	37.276893	0.000568	5.675175	1.922802	-0.000227
 944	9.3829e+01	2.4031	37.066962	0.000527	5.269806	1.785459	-0.000211
 945	9.3928e+01	2.3695	36.772251	0.000740	7.397997	2.506509	-0.000296
 946	9.4028e+01	2.3293	36.586543	0.000466	4.661751	1.579444	-0.000187
 947	9.4127e+01	2.2876	36.352389	0.000588	5.877860	1.991473	-0.000235
 948	9.4227e+01	2.2523	36.142458	0.000527	5.269806	1.785459	-0.000211
 949	9.4326e+01	2.2090	35.851784	0.000730	7.296654	2.472173	-0.000292
 950	9.4425e+01	2.1641	35.649927	0.000507	5.067121	1.716787	-0.000203
 951	9.4525e+01	2.1304	35.399625	0.000628	6.283230	2.128816	-0.000252
 952	9.4624e+01	2.0855	35.157397	0.000608	6.080545	2.060144	-0.000243
 953	9.4724e+01	2.0518	34.923243	0.000588	5.877860	1.991473	-0.000235
 954	9.4823e+01	2.0101	34.676977	0.000618	6.181888	2.094480	-0.000248
 955	9.4923e+01	1.9636	34.446861	0.000578	5.776518	1.957137	-0.000231
 956	9.5022e+01	1.9315	34.180410	0.000669	6.688600	2.266159	-0.000268
 957	9.5122e+01	1.8882	33.982590	0.000497	4.965779	1.682451	-0.000199
 958	9.5222e+01	1.8529	33.708065	0.000689	6.891285	2.334830	-0.000276
 959	9.5321e+01	1.8112	33.457762	0.000628	6.283230	2.128816	-0.000252
 960	9.5421e+01	1.7631	33.215534	0.000608	6.080545	2.060144	-0.000243
 961	9.5520e+01	1.7326	32.961195	0.000638	6.384572	2.163152	-0.000256
 962	9.5620e+01	1.6925	32.747227	0.000537	5.371148	1.819794	-0.000215
 963	9.5719e+01	1.6572	32.448478	0.000750	7.499339	2.540845	-0.000300
 964	9.5819e+01	1.6155	32.226436	0.000557	5.573833	1.888466	-0.000223
 965	9.5918e+01	1.5705	31.984208	0.000608	6.080545	2.060144	-0.000243
 966	9.6017e+01	1.5288	31.750054	0.000588	5.877860	1.991473	-0.000235
 967	9.6117e+01	1.4984	31.479566	0.000679	6.789942	2.300495	-0.000272
 968	9.6216e+01	1.4486	31.257523	0.000557	5.573833	1.888466	-0.000223
 969	9.6316e+01	1.4117	31.011258	0.000618	6.181888	2.094480	-0.000248
 970	9.6415e+01	1.3732	30.756919	0.000638	6.384572	2.163152	-0.000256
 971	9.6515e+01	1.3267	30.506616	0.000628	6.283230	2.128816	-0.000252
 972	9.6615e+01	1.2914	30.272462	0.000588	5.877860	1.991473	-0.000235
 973	9.6714e+01	1.2561	29.989863	0.000709	7.093969	2.403502	-0.000284
 974	9.6814e+01	1.2144	29.747635	0.000608	6.080545	2.060144	-0.000243
 975	9.6913e+01	1.1663	29.481184	0.000669	6.688600	2.266159	-0.000268
 976	9.7013e+01	1.1262	29.218770	0.000659	6.587257	2.231823	-0.000264
 977	9.7112e+01	1.0973	28.968467	0.000628	6.283230	2.128816	-0.000252
 978	9.7212e+01	1.0540	28.746425	0.000557	5.573833	1.888466	-0.000223
 979	9.7311e+01	1.0059	28.508234	0.000598	5.979203	2.025809	-0.000239
 980	9.7410e+01	0.9722	28.233709	0.000689	6.891285	2.334830	-0.000276
 981	9.7510e+01	0.9353	27.971295	0.000659	6.587257	2.231823	-0.000264
 982	9.7609e+01	0.8936	27.720993	0.000628	6.283230	2.128816	-0.000252
 983	9.7709e+01	0.8454	27.450504	0.000679	6.789942	2.300495	-0.000272
 984	9.7808e+01	0.8133	27.204239	0.000618	6.181888	2.094480	-0.000248
 985	9.7908e+01	0.7748	26.945862	0.000649	6.485915	2.197487	-0.000260
 986	9.8007e+01	0.7251	26.663263	0.000709	7.093969	2.403502	-0.000284
 987	9.8107e+01	0.6914	26.404886	0.000649	6.485915	2.197487	-0.000260
 988	9.8207e+01	0.6529	26.174770	0.000578	5.776518	1.957137	-0.000231
 989	9.8306e+01	0.6080	25.847762	0.000821	8.208736	2.781195	-0.000329
 990	9.8406e+01	0.5679	25.613608	0.000588	5.877860	1.991473	-0.000235
 991	9.8505e+01	0.5278	25.326971	0.000720	7.195312	2.437838	-0.000288
 992	9.8605e+01	0.5005	25.108966	0.000547	5.472491	1.854130	-0.000219
 993	9.8704e+01	0.4556	24.814255	0.000740	7.397997	2.506509	-0.000296
 994	9.8803e+01	0.4155	24.555878	0.000649	6.485915	2.197487	-0.000260
 995	9.8903e+01	0.3786	24.293464	0.000659	6.587257	2.231823	-0.000264
 996	9.9002e+01	0.3321	24.010865	0.000709	7.093969	2.403502	-0.000284
 997	9.9102e+01	0.2968	23.764600	0.000618	6.181888	2.094480	-0.000248
 998	9.9201e+01	0.2583	23.514297	0.000628	6.283230	2.128816	-0.000252
 999	9.9301e+01	0.2166	23.227660	0.000720	7.195312	2.437838	-0.000288
1000	9.9400e+01	0.1668	22.945061	0.000709	7.093969	2.403502	-0.000284
1001	9.9500e+01	0.1348	22.662461	0.000709	7.093969	2.403502	-0.000284
1002	9.9600e+01	0.1011	22.387936	0.000689	6.891285	2.334830	-0.000276
1003	9.9699e+01	0.0481	22.149745	0.000598	5.979203	2.025809	-0.000239
1004	9.9799e+01	0.0160	21.855034	0.000740	7.397997	2.506509	-0.000296
1005	9.9898e+01	-0.0241	21.673363	0.000456	4.560409	1.545108	-0.000183
1006	9.9998e+01	-0.0594	21.382689	0.000730	7.296654	2.472173	-0.000292
1007	1.0010e+02	-0.0979	21.104127	0.000699	6.992627	2.369166	-0.000280
1008	1.0020e+02	-0.1444	20.817490	0.000720	7.195312	2.437838	-0.000288
1009	1.0030e+02	-0.1845	20.534891	0.000709	7.093969	2.403502	-0.000284
1010	1.0040e+02	-0.2214	20.292663	0.000608	6.080545	2.060144	-0.000243
1011	1.0050e+02	-0.2583	20.046398	0.000618	6.181888	2.094480	-0.000248
1012	1.0059e+02	-0.2952	19.711315	0.000841	8.411421	2.849867	-0.000337
1013	1.0069e+02	-0.3321	19.412567	0.000750	7.499339	2.540845	-0.000300
1014	1.0079e+02	-0.3722	19.146116	0.000669	6.688600	2.266159	-0.000268
1015	1.0089e+02	-0.4219	18.855442	0.000730	7.296654	2.472173	-0.000292
1016	1.0099e+02	-0.4524	18.621289	0.000588	5.877860	1.991473	-0.000235
1017	1.0109e+02	-0.4861	18.322541	0.000750	7.499339	2.540845	-0.000300
1018	1.0119e+02	-0.5342	18.064164	0.000649	6.485915	2.197487	-0.000260
1019	1.0129e+02	-0.5743	17.797713	0.000669	6.688600	2.266159	-0.000268
1020	1.0139e+02	-0.6112	17.507039	0.000730	7.296654	2.472173	-0.000292
1021	1.0149e+02	-0.6513	17.204254	0.000760	7.600681	2.575181	-0.000304
1022	1.0159e+02	-0.7010	16.917617	0.000720	7.195312	2.437838	-0.000288
1023	1.0169e+02	-0.7347	16.667315	0.000628	6.283230	2.128816	-0.000252
1024	1.0179e+02	-0.7716	16.376641	0.000730	7.296654	2.472173	-0.000292
1025	1.0189e+02	-0.8101	16.098079	0.000699	6.992627	2.369166	-0.000280
1026	1.0199e+02	-0.8615	15.771071	0.000821	8.208736	2.781195	-0.000329
1027	1.0209e+02	-0.8855	15.520768	0.000628	6.283230	2.128816	-0.000252
1028	1.0219e+02	-0.9337	15.254317	0.000669	6.688600	2.266159	-0.000268
1029	1.0229e+02	-0.9722	14.991904	0.000659	6.587257	2.231823	-0.000264
1030	1.0239e+02	-1.0123	14.660858	0.000831	8.310078	2.815531	-0.000333
1031	1.0248e+02	-1.0460	14.374222	0.000720	7.195312	2.437838	-0.000288
1032	1.0258e+02	-1.0925	14.115845	0.000649	6.485915	2.197487	-0.000260
1033	1.0268e+02	-1.1374	13.861506	0.000638	6.384572	2.163152	-0.000256
1034	1.0278e+02	-1.1759	13.542572	0.000801	8.006051	2.712524	-0.000321
1035	1.0288e+02	-1.2192	13.223638	0.000801	8.006051	2.712524	-0.000321
1036	1.0298e+02	-1.2481	12.945076	0.000699	6.992627	2.369166	-0.000280
1037	1.0308e+02	-1.2882	12.650365	0.000740	7.397997	2.506509	-0.000296
1038	1.0318e+02	-1.3283	12.416211	0.000588	5.877860	1.991473	-0.000235
1039	1.0328e+02	-1.3748	12.149760	0.000669	6.688600	2.266159	-0.000268
1040	1.0338e+02	-1.4117	11.826789	0.000811	8.107394	2.746859	-0.000325
1041	1.0348e+02	-1.4518	11.544190	0.000709	7.093969	2.403502	-0.000284
1042	1.0358e+02	-1.4919	11.289850	0.000638	6.384572	2.163152	-0.000256
1043	1.0368e+02	-1.5336	10.999176	0.000730	7.296654	2.472173	-0.000292
1044	1.0378e+02	-1.5705	10.712540	0.000720	7.195312	2.437838	-0.000288
1045	1.0388e+02	-1.6106	10.442052	0.000679	6.789942	2.300495	-0.000272
1046	1.0398e+02	-1.6572	10.151378	0.000730	7.296654	2.472173	-0.000292
1047	1.0408e+02	-1.6877	9.828407	0.000811	8.107394	2.746859	-0.000325
1048	1.0418e+02	-1.7278	9.578105	0.000628	6.283230	2.128816	-0.000252
1049	1.0428e+02	-1.7695	9.287431	0.000730	7.296654	2.472173	-0.000292
1050	1.0438e+02	-1.8112	9.000794	0.000720	7.195312	2.437838	-0.000288
1051	1.0447e+02	-1.8449	8.702046	0.000750	7.499339	2.540845	-0.000300
1052	1.0457e+02	-1.8930	8.451744	0.000628	6.283230	2.128816	-0.000252
1053	1.0467e+02	-1.9411	8.165107	0.000720	7.195312	2.437838	-0.000288
1054	1.0477e+02	-1.9700	7.902693	0.000659	6.587257	2.231823	-0.000264
1055	1.0487e+02	-2.0005	7.607982	0.000740	7.397997	2.506509	-0.000296
1056	1.0497e+02	-2.0486	7.309234	0.000750	7.499339	2.540845	-0.000300
1057	1.0507e+02	-2.0871	7.018560	0.000730	7.296654	2.472173	-0.000292
1058	1.0517e+02	-2.1256	6.739998	0.000699	6.992627	2.369166	-0.000280
1059	1.0527e+02	-2.1769	6.437213	0.000760	7.600681	2.575181	-0.000304
1060	1.0537e+02	-2.2090	6.150576	0.000720	7.195312	2.437838	-0.000288
1061	1.0547e+02	-2.2475	5.912385	0.000598	5.979203	2.025809	-0.000239
1062	1.0557e+02	-2.2892	5.589414	0.000811	8.107394	2.746859	-0.000325
1063	1.0567e+02	-2.3229	5.322963	0.000669	6.688600	2.266159	-0.000268
1064	1.0577e+02	-2.3695	5.040364	0.000709	7.093969	2.403502	-0.000284
1065	1.0587e+02	-2.4080	4.757764	0.000709	7.093969	2.403502	-0.000284
1066	1.0597e+02	-2.4465	4.483239	0.000689	6.891285	2.334830	-0.000276
1067	1.0607e+02	-2.4898	4.208714	0.000689	6.891285	2.334830	-0.000276
1068	1.0617e+02	-2.5251	3.905929	0.000760	7.600681	2.575181	-0.000304
1069	1.0627e+02	-2.5700	3.643515	0.000659	6.587257	2.231823	-0.000264
1070	1.0637e+02	-2.6133	3.352841	0.000730	7.296654	2.472173	-0.000292
1071	1.0647e+02	-2.6502	3.082353	0.000679	6.789942	2.300495	-0.000272
1072	1.0656e+02	-2.6855	2.819939	0.000659	6.587257	2.231823	-0.000264
1073	1.0666e+02	-2.7272	2.505043	0.000790	7.904709	2.678188	-0.000316
1074	1.0676e+02	-2.7673	2.278963	0.000568	5.675175	1.922802	-0.000227
1075	1.0686e+02	-2.8106	2.012512	0.000669	6.688600	2.266159	-0.000268
1076	1.0696e+02	-2.8411	1.693578	0.000801	8.006051	2.712524	-0.000321
1077	1.0706e+02	-2.8892	1.427127	0.000669	6.688600	2.266159	-0.000268
1078	1.0716e+02	-2.9197	1.144528	0.000709	7.093969	2.403502	-0.000284
1079	1.0726e+02	-2.9694	0.841743	0.000760	7.600681	2.575181	-0.000304
1080	1.0736e+02	-3.0079	0.619700	0.000557	5.573833	1.888466	-0.000223
1081	1.0746e+02	-3.0480	0.316915	0.000760	7.600681	2.575181	-0.000304
1082	1.0756e+02	-3.0898	0.066613	0.000628	6.283230	2.128816	-0.000252
1083	1.0766e+02	-3.1234	-0.211950	0.000699	6.992627	2.369166	-0.000280
1084	1.0776e+02	-3.1619	-0.506661	0.000740	7.397997	2.506509	-0.000296
1085	1.0786e+02	-3.2004	-0.761000	0.000638	6.384572	2.163152	-0.000256
1086	1.0796e+02	-3.2422	-1.011303	0.000628	6.283230	2.128816	-0.000252
1087	1.0806e+02	-3.2807	-1.285828	0.000689	6.891285	2.334830	-0.000276
1088	1.0816e+02	-3.3272	-1.536130	0.000628	6.283230	2.128816	-0.000252
1089	1.0826e+02	-3.3689	-1.859101	0.000811	8.107394	2.746859	-0.000325
1090	1.0836e+02	-3.4026	-2.081143	0.000557	5.573833	1.888466	-0.000223
1091	1.0845e+02	-3.4523	-2.339520	0.000649	6.485915	2.197487	-0.000260
1092	1.0855e+02	-3.4908	-2.585785	0.000618	6.181888	2.094480	-0.000248
1093	1.0865e+02	-3.5245	-2.844162	0.000649	6.485915	2.197487	-0.000260
1094	1.0875e+02	-3.5630	-3.126762	0.000709	7.093969	2.403502	-0.000284
1095	1.0885e+02	-3.6079	-3.385138	0.000649	6.485915	2.197487	-0.000260
1096	1.0895e+02	-3.6384	-3.663701	0.000699	6.992627	2.369166	-0.000280
1097	1.0905e+02	-3.6945	-3.918040	0.000638	6.384572	2.163152	-0.000256
1098	1.0915e+02	-3.7170	-4.180454	0.000659	6.587257	2.231823	-0.000264
1099	1.0925e+02	-3.7651	-4.467091	0.000720	7.195312	2.437838	-0.000288
1100	1.0935e+02	-3.8036	-4.717393	0.000628	6.283230	2.128816	-0.000252
1101	1.0945e+02	-3.8405	-4.971733	0.000638	6.384572	2.163152	-0.000256
1102	1.0955e+02	-3.8790	-5.189738	0.000547	5.472491	1.854130	-0.000219
1103	1.0965e+02	-3.9175	-5.468300	0.000699	6.992627	2.369166	-0.000280
1104	1.0975e+02	-3.9625	-5.750900	0.000709	7.093969	2.403502	-0.000284
1105	1.0985e+02	-4.0074	-5.972942	0.000557	5.573833	1.888466	-0.000223
1106	1.0995e+02	-4.0298	-6.239393	0.000669	6.688600	2.266159	-0.000268
1107	1.1005e+02	-4.0780	-6.517956	0.000699	6.992627	2.369166	-0.000280
1108	1.1015e+02	-4.1181	-6.748072	0.000578	5.776518	1.957137	-0.000231
1109	1.1025e+02	-4.1614	-6.986263	0.000598	5.979203	2.025809	-0.000239
1110	1.1035e+02	-4.1999	-7.264826	0.000699	6.992627	2.369166	-0.000280
1111	1.1044e+02	-4.2384	-7.511091	0.000618	6.181888	2.094480	-0.000248
1112	1.1054e+02	-4.2801	-7.745245	0.000588	5.877860	1.991473	-0.000235
1113	1.1064e+02	-4.3170	-8.027844	0.000709	7.093969	2.403502	-0.000284
1114	1.1074e+02	-4.3523	-8.241813	0.000537	5.371148	1.819794	-0.000215
1115	1.1084e+02	-4.3908	-8.524412	0.000709	7.093969	2.403502	-0.000284
1116	1.1094e+02	-4.4373	-8.766640	0.000608	6.080545	2.060144	-0.000243
1117	1.1104e+02	-4.4774	-8.992720	0.000568	5.675175	1.922802	-0.000227
1118	1.1114e+02	-4.5255	-9.263208	0.000679	6.789942	2.300495	-0.000272
1119	1.1124e+02	-4.5528	-9.537733	0.000689	6.891285	2.334830	-0.000276
1120	1.1134e+02	-4.5993	-9.747664	0.000527	5.269806	1.785459	-0.000211
1121	1.1144e+02	-4.6394	-10.022189	0.000689	6.891285	2.334830	-0.000276
1122	1.1154e+02	-4.6779	-10.220009	0.000497	4.965779	1.682451	-0.000199
1123	1.1164e+02	-4.7164	-10.494534	0.000689	6.891285	2.334830	-0.000276
1124	1.1174e+02	-4.7598	-10.732725	0.000598	5.979203	2.025809	-0.000239
1125	1.1184e+02	-4.7854	-10.995139	0.000659	6.587257	2.231823	-0.000264
1126	1.1194e+02	-4.8319	-11.257553	0.000659	6.587257	2.231823	-0.000264
1127	1.1204e+02	-4.8897	-11.475558	0.000547	5.472491	1.854130	-0.000219
1128	1.1214e+02	-4.9218	-11.681452	0.000517	5.168463	1.751123	-0.000207
1129	1.1224e+02	-4.9507	-11.964052	0.000709	7.093969	2.403502	-0.000284
1130	1.1234e+02	-4.9924	-12.178020	0.000537	5.371148	1.819794	-0.000215
1131	1.1244e+02	-5.0453	-12.440434	0.000659	6.587257	2.231823	-0.000264
1132	1.1253e+02	-5.0790	-12.646328	0.000517	5.168463	1.751123	-0.000207
1133	1.1263e+02	-5.1191	-12.908742	0.000659	6.587257	2.231823	-0.000264
1134	1.1273e+02	-5.1608	-13.146933	0.000598	5.979203	2.025809	-0.000239
1135	1.1283e+02	-5.1993	-13.377049	0.000578	5.776518	1.957137	-0.000231
1136	1.1293e+02	-5.2346	-13.627352	0.000628	6.283230	2.128816	-0.000252
1137	1.1303e+02	-5.2795	-13.865543	0.000598	5.979203	2.025809	-0.000239
1138	1.1313e+02	-5.3164	-14.099697	0.000588	5.877860	1.991473	-0.000235
1139	1.1323e+02	-5.3662	-14.333850	0.000588	5.877860	1.991473	-0.000235
1140	1.1333e+02	-5.3966	-14.547819	0.000537	5.371148	1.819794	-0.000215
1141	1.1343e+02	-5.4400	-14.761787	0.000537	5.371148	1.819794	-0.000215
1142	1.1353e+02	-5.4720	-15.012089	0.000628	6.283230	2.128816	-0.000252
1143	1.1363e+02	-5.5202	-15.209909	0.000497	4.965779	1.682451	-0.000199
1144	1.1373e+02	-5.5539	-15.488471	0.000699	6.992627	2.369166	-0.000280
1145	1.1383e+02	-5.5988	-15.690328	0.000507	5.067121	1.716787	-0.000203
1146	1.1393e+02	-5.6357	-15.904296	0.000537	5.371148	1.819794	-0.000215
1147	1.1403e+02	-5.6710	-16.122302	0.000547	5.472491	1.854130	-0.000219
1148	1.1413e+02	-5.7239	-16.368567	0.000618	6.181888	2.094480	-0.000248
1149	1.1423e+02	-5.7560	-16.622906	0.000638	6.384572	2.163152	-0.000256
1150	1.1433e+02	-5.7945	-16.836875	0.000537	5.371148	1.819794	-0.000215
1151	1.1442e+02	-5.8394	-17.030657	0.000486	4.864436	1.648116	-0.000195
1152	1.1452e+02	-5.8763	-17.264811	0.000588	5.877860	1.991473	-0.000235
1153	1.1462e+02	-5.9180	-17.466668	0.000507	5.067121	1.716787	-0.000203
1154	1.1472e+02	-5.9517	-17.716970	0.000628	6.283230	2.128816	-0.000252
1155	1.1482e+02	-5.9918	-17.963235	0.000618	6.181888	2.094480	-0.000248
1156	1.1492e+02	-6.0415	-18.161055	0.000497	4.965779	1.682451	-0.000199
1157	1.1502e+02	-6.0672	-18.391172	0.000578	5.776518	1.957137	-0.000231
1158	1.1512e+02	-6.1153	-18.653586	0.000659	6.587257	2.231823	-0.000264
1159	1.1522e+02	-6.1554	-18.863517	0.000527	5.269806	1.785459	-0.000211
1160	1.1532e+02	-6.1875	-19.065374	0.000507	5.067121	1.716787	-0.000203
1161	1.1542e+02	-6.2373	-19.287416	0.000557	5.573833	1.888466	-0.000223
1162	1.1552e+02	-6.2774	-19.473124	0.000466	4.661751	1.579444	-0.000187
1163	1.1562e+02	-6.3143	-19.711315	0.000598	5.979203	2.025809	-0.000239
1164	1.1572e+02	-6.3544	-19.969692	0.000649	6.485915	2.197487	-0.000260
1165	1.1582e+02	-6.3929	-20.155400	0.000466	4.661751	1.579444	-0.000187
1166	1.1592e+02	-6.4378	-20.389554	0.000588	5.877860	1.991473	-0.000235
1167	1.1602e+02	-6.4554	-20.643894	0.000638	6.384572	2.163152	-0.000256
1168	1.1612e+02	-6.5132	-20.809416	0.000416	4.155039	1.407765	-0.000166
1169	1.1622e+02	-6.5437	-21.031459	0.000557	5.573833	1.888466	-0.000223
1170	1.1632e+02	-6.5838	-21.241390	0.000527	5.269806	1.785459	-0.000211
1171	1.1642e+02	-6.6399	-21.443246	0.000507	5.067121	1.716787	-0.000203
1172	1.1651e+02	-6.6656	-21.661252	0.000547	5.472491	1.854130	-0.000219
1173	1.1661e+02	-6.7057	-21.911554	0.000628	6.283230	2.128816	-0.000252
1174	1.1671e+02	-6.7442	-22.089188	0.000446	4.459066	1.510773	-0.000179
1175	1.1681e+02	-6.7923	-22.315268	0.000568	5.675175	1.922802	-0.000227
1176	1.1691e+02	-6.8244	-22.533273	0.000547	5.472491	1.854130	-0.000219
1177	1.1701e+02	-6.8709	-22.759353	0.000568	5.675175	1.922802	-0.000227
1178	1.1711e+02	-6.9046	-22.957172	0.000497	4.965779	1.682451	-0.000199
1179	1.1721e+02	-6.9415	-23.150955	0.000486	4.864436	1.648116	-0.000195
1180	1.1731e+02	-6.9800	-23.401257	0.000628	6.283230	2.128816	-0.000252
1181	1.1741e+02	-7.0346	-23.582928	0.000456	4.560409	1.545108	-0.000183
1182	1.1751e+02	-7.0682	-23.756525	0.000436	4.357724	1.476437	-0.000174
1183	1.1761e+02	-7.1068	-24.014902	0.000649	6.485915	2.197487	-0.000260
1184	1.1771e+02	-7.1404	-24.196573	0.000456	4.560409	1.545108	-0.000183
1185	1.1781e+02	-7.1854	-24.418616	0.000557	5.573833	1.888466	-0.000223
1186	1.1791e+02	-7.2223	-24.636621	0.000547	5.472491	1.854130	-0.000219
1187	1.1801e+02	-7.2736	-24.846552	0.000527	5.269806	1.785459	-0.000211
1188	1.1811e+02	-7.3137	-25.072632	0.000568	5.675175	1.922802	-0.000227
1189	1.1821e+02	-7.3522	-25.282563	0.000527	5.269806	1.785459	-0.000211
1190	1.1831e+02	-7.3907	-25.452122	0.000426	4.256382	1.442101	-0.000170
1191	1.1841e+02	-7.4276	-25.662053	0.000527	5.269806	1.785459	-0.000211
1192	1.1850e+02	-7.4773	-25.871984	0.000527	5.269806	1.785459	-0.000211
1193	1.1860e+02	-7.5046	-26.049618	0.000446	4.459066	1.510773	-0.000179
1194	1.1870e+02	-7.5367	-26.295884	0.000618	6.181888	2.094480	-0.000248
1195	1.1880e+02	-7.5864	-26.497740	0.000507	5.067121	1.716787	-0.000203
1196	1.1890e+02	-7.6233	-26.683449	0.000466	4.661751	1.579444	-0.000187
1197	1.1900e+02	-7.6698	-26.893380	0.000527	5.269806	1.785459	-0.000211
1198	1.1910e+02	-7.7067	-27.115422	0.000557	5.573833	1.888466	-0.000223
1199	1.1920e+02	-7.7420	-27.289019	0.000436	4.357724	1.476437	-0.000174
1200	1.1930e+02	-7.7966	-27.486839	0.000497	4.965779	1.682451	-0.000199
1201	1.1940e+02	-7.8238	-27.704844	0.000547	5.472491	1.854130	-0.000219
1202	1.1950e+02	-7.8591	-27.898627	0.000486	4.864436	1.648116	-0.000195
1203	1.1960e+02	-7.8960	-28.128743	0.000578	5.776518	1.957137	-0.000231
1204	1.1970e+02	-7.9426	-28.282154	0.000385	3.851012	1.304758	-0.000154
1205	1.1980e+02	-7.9907	-28.484011	0.000507	5.067121	1.716787	-0.000203
1206	1.1990e+02	-8.0276	-28.669719	0.000466	4.661751	1.579444	-0.000187
1207	1.2000e+02	-8.0629	-28.928096	0.000649	6.485915	2.197487	-0.000260
1208	1.2010e+02	-8.1062	-29.089582	0.000405	4.053697	1.373430	-0.000162
1209	1.2020e+02	-8.1399	-29.279327	0.000476	4.763094	1.613780	-0.000191
1210	1.2030e+02	-8.1896	-29.473109	0.000486	4.864436	1.648116	-0.000195
1211	1.2039e+02	-8.2281	-29.699189	0.000568	5.675175	1.922802	-0.000227
1212	1.2049e+02	-8.2634	-29.872786	0.000436	4.357724	1.476437	-0.000174
1213	1.2059e+02	-8.3035	-30.066568	0.000486	4.864436	1.648116	-0.000195
1214	1.2069e+02	-8.3452	-30.288611	0.000557	5.573833	1.888466	-0.000223
1215	1.2079e+02	-8.3773	-30.474319	0.000466	4.661751	1.579444	-0.000187
1216	1.2089e+02	-8.4158	-30.643879	0.000426	4.256382	1.442101	-0.000170
1217	1.2099e+02	-8.4575	-30.873996	0.000578	5.776518	1.957137	-0.000231
1218	1.2109e+02	-8.5008	-31.047592	0.000436	4.357724	1.476437	-0.000174
1219	1.2119e+02	-8.5425	-31.269635	0.000557	5.573833	1.888466	-0.000223
1220	1.2129e+02	-8.5891	-31.463417	0.000486	4.864436	1.648116	-0.000195
1221	1.2139e+02	-8.6276	-31.657200	0.000486	4.864436	1.648116	-0.000195
1222	1.2149e+02	-8.6645	-31.850982	0.000486	4.864436	1.648116	-0.000195
1223	1.2159e+02	-8.6949	-32.016505	0.000416	4.155039	1.407765	-0.000166
1224	1.2169e+02	-8.7495	-32.246622	0.000578	5.776518	1.957137	-0.000231
1225	1.2179e+02	-8.7768	-32.408107	0.000405	4.053697	1.373430	-0.000162
1226	1.2189e+02	-8.8217	-32.549407	0.000355	3.546985	1.201751	-0.000142
1227	1.2199e+02	-8.8682	-32.827969	0.000699	6.992627	2.369166	-0.000280
1228	1.2209e+02	-8.8971	-32.985418	0.000395	3.952354	1.339094	-0.000158
1229	1.2219e+02	-8.9468	-33.179200	0.000486	4.864436	1.648116	-0.000195
1230	1.2229e+02	-8.9853	-33.393168	0.000537	5.371148	1.819794	-0.000215
1231	1.2239e+02	-9.0126	-33.554654	0.000405	4.053697	1.373430	-0.000162
1232	1.2248e+02	-9.0559	-33.784770	0.000578	5.776518	1.957137	-0.000231
1233	1.2258e+02	-9.1056	-33.978553	0.000486	4.864436	1.648116	-0.000195
1234	1.2268e+02	-9.1377	-34.136001	0.000395	3.952354	1.339094	-0.000158
1235	1.2278e+02	-9.1842	-34.362081	0.000568	5.675175	1.922802	-0.000227
1236	1.2288e+02	-9.2227	-34.523566	0.000405	4.053697	1.373430	-0.000162
1237	1.2298e+02	-9.2628	-34.733497	0.000527	5.269806	1.785459	-0.000211
1238	1.2308e+02	-9.3029	-34.907094	0.000436	4.357724	1.476437	-0.000174
1239	1.2318e+02	-9.3414	-35.108951	0.000507	5.067121	1.716787	-0.000203
1240	1.2328e+02	-9.3751	-35.298696	0.000476	4.763094	1.613780	-0.000191
1241	1.2338e+02	-9.4265	-35.464219	0.000416	4.155039	1.407765	-0.000166
1242	1.2348e+02	-9.4553	-35.682224	0.000547	5.472491	1.854130	-0.000219
1243	1.2358e+02	-9.5019	-35.855821	0.000436	4.357724	1.476437	-0.000174
1244	1.2368e+02	-9.5468	-36.025381	0.000426	4.256382	1.442101	-0.000170
1245	1.2378e+02	-9.5901	-36.235312	0.000527	5.269806	1.785459	-0.000211
1246	1.2388e+02	-9.6174	-36.441206	0.000517	5.168463	1.751123	-0.000207
1247	1.2398e+02	-9.6591	-36.602691	0.000405	4.053697	1.373430	-0.000162
1248	1.2408e+02	-9.6912	-36.788399	0.000466	4.661751	1.579444	-0.000187
1249	1.2418e+02	-9.7393	-36.949885	0.000405	4.053697	1.373430	-0.000162
1250	1.2428e+02	-9.7746	-37.115407	0.000416	4.155039	1.407765	-0.000166
1251	1.2438e+02	-9.8099	-37.317264	0.000507	5.067121	1.716787	-0.000203
1252	1.2447e+02	-9.8564	-37.482787	0.000416	4.155039	1.407765	-0.000166
1253	1.2457e+02	-9.8981	-37.716941	0.000588	5.877860	1.991473	-0.000235
1254	1.2467e+02	-9.9430	-37.854203	0.000345	3.445642	1.167415	-0.000138
1255	1.2477e+02	-9.9703	-38.052023	0.000497	4.965779	1.682451	-0.000199
1256	1.2487e+02	-10.0168	-38.209471	0.000395	3.952354	1.339094	-0.000158
1257	1.2497e+02	-10.0505	-38.427477	0.000547	5.472491	1.854130	-0.000219
1258	1.2507e+02	-10.1002	-38.621259	0.000486	4.864436	1.648116	-0.000195
1259	1.2517e+02	-10.1388	-38.802930	0.000456	4.560409	1.545108	-0.000183
1260	1.2527e+02	-10.1756	-38.968453	0.000416	4.155039	1.407765	-0.000166
1261	1.2537e+02	-10.2190	-39.150124	0.000456	4.560409	1.545108	-0.000183
1262	1.2547e+02	-10.2559	-39.335832	0.000466	4.661751	1.579444	-0.000187
1263	1.2557e+02	-10.2928	-39.557875	0.000557	5.573833	1.888466	-0.000223
1264	1.2567e+02	-10.3361	-39.691100	0.000334	3.344300	1.133079	-0.000134
1265	1.2577e+02	-10.3730	-39.848548	0.000395	3.952354	1.339094	-0.000158
1266	1.2587e+02	-10.4179	-40.026182	0.000446	4.459066	1.510773	-0.000179
1267	1.2597e+02	-10.4580	-40.215928	0.000476	4.763094	1.613780	-0.000191
1268	1.2607e+02	-10.5029	-40.437970	0.000557	5.573833	1.888466	-0.000223
1269	1.2617e+02	-10.5302	-40.551010	0.000284	2.837588	0.961401	-0.000114
1270	1.2627e+02	-10.5719	-40.752867	0.000507	5.067121	1.716787	-0.000203
1271	1.2636e+02	-10.6184	-40.962798	0.000527	5.269806	1.785459	-0.000211
1272	1.2646e+02	-10.6569	-41.132357	0.000426	4.256382	1.442101	-0.000170
1273	1.2656e+02	-10.6986	-41.273657	0.000355	3.546985	1.201751	-0.000142
1274	1.2666e+02	-10.7339	-41.507811	0.000588	5.877860	1.991473	-0.000235
1275	1.2676e+02	-10.7708	-41.665259	0.000395	3.952354	1.339094	-0.000158
1276	1.2686e+02	-10.8061	-41.838856	0.000436	4.357724	1.476437	-0.000174
1277	1.2696e+02	-10.8542	-42.016490	0.000446	4.459066	1.510773	-0.000179
1278	1.2706e+02	-10.9008	-42.190087	0.000436	4.357724	1.476437	-0.000174
1279	1.2716e+02	-10.9377	-42.359647	0.000426	4.256382	1.442101	-0.000170
1280	1.2726e+02	-10.9730	-42.513058	0.000385	3.851012	1.304758	-0.000154
1281	1.2736e+02	-11.0082	-42.755286	0.000608	6.080545	2.060144	-0.000243
1282	1.2746e+02	-11.0532	-42.904660	0.000375	3.749670	1.270422	-0.000150
1283	1.2756e+02	-11.0885	-43.078257	0.000436	4.357724	1.476437	-0.000174
1284	1.2766e+02	-11.1286	-43.239742	0.000405	4.053697	1.373430	-0.000162
1285	1.2776e+02	-11.1703	-43.457748	0.000547	5.472491	1.854130	-0.000219
1286	1.2786e+02	-11.2104	-43.611159	0.000385	3.851012	1.304758	-0.000154
1287	1.2796e+02	-11.2473	-43.752459	0.000355	3.546985	1.201751	-0.000142
1288	1.2806e+02	-11.2986	-43.998724	0.000618	6.181888	2.094480	-0.000248
1289	1.2816e+02	-11.3355	-44.156172	0.000395	3.952354	1.339094	-0.000158
1290	1.2826e+02	-11.3660	-44.345918	0.000476	4.763094	1.613780	-0.000191
1291	1.2835e+02	-11.4173	-44.547774	0.000507	5.067121	1.716787	-0.000203
1292	1.2845e+02	-11.4526	-44.705223	0.000395	3.952354	1.339094	-0.000158
1293	1.2855e+02	-11.4879	-44.878819	0.000436	4.357724	1.476437	-0.000174
1294	1.2865e+02	-11.5312	-45.044342	0.000416	4.155039	1.407765	-0.000166
1295	1.2875e+02	-11.5665	-45.246199	0.000507	5.067121	1.716787	-0.000203
1296	1.2885e+02	-11.6114	-45.375387	0.000324	3.242957	1.098744	-0.000130
1297	1.2895e+02	-11.6483	-45.613578	0.000598	5.979203	2.025809	-0.000239
1298	1.2905e+02	-11.6884	-45.771026	0.000395	3.952354	1.339094	-0.000158
1299	1.2915e+02	-11.7350	-45.968846	0.000497	4.965779	1.682451	-0.000199
1300	1.2925e+02	-11.7719	-46.085923	0.000294	2.938930	0.995736	-0.000118
1301	1.2935e+02	-11.8104	-46.295854	0.000527	5.269806	1.785459	-0.000211
1302	1.2945e+02	-11.8537	-46.465414	0.000426	4.256382	1.442101	-0.000170
1303	1.2955e+02	-11.8906	-46.651122	0.000466	4.661751	1.579444	-0.000187
1304	1.2965e+02	-11.9339	-46.848942	0.000497	4.965779	1.682451	-0.000199
1305	1.2975e+02	-11.9692	-46.990241	0.000355	3.546985	1.201751	-0.000142
1306	1.2985e+02	-12.0141	-47.196135	0.000517	5.168463	1.751123	-0.000207
1307	1.2995e+02	-12.0510	-47.406066	0.000527	5.269806	1.785459	-0.000211
1308	1.3005e+02	-12.0975	-47.571589	0.000416	4.155039	1.407765	-0.000166
1309	1.3015e+02	-12.1264	-47.729037	0.000395	3.952354	1.339094	-0.000158
1310	1.3025e+02	-12.1665	-47.922820	0.000486	4.864436	1.648116	-0.000195
1311	1.3034e+02	-12.2114	-48.116602	0.000486	4.864436	1.648116	-0.000195
1312	1.3044e+02	-12.2499	-48.274051	0.000395	3.952354	1.339094	-0.000158
1313	1.3054e+02	-12.2884	-48.451685	0.000446	4.459066	1.510773	-0.000179
1314	1.3064e+02	-12.3285	-48.653541	0.000507	5.067121	1.716787	-0.000203
1315	1.3074e+02	-12.3718	-48.810990	0.000395	3.952354	1.339094	-0.000158
1316	1.3084e+02	-12.4039	-48.980549	0.000426	4.256382	1.442101	-0.000170
1317	1.3094e+02	-12.4488	-49.166258	0.000466	4.661751	1.579444	-0.000187
1318	1.3104e+02	-12.4954	-49.311594	0.000365	3.648327	1.236087	-0.000146
1319	1.3114e+02	-12.5403	-49.557860	0.000618	6.181888	2.094480	-0.000248
1320	1.3124e+02	-12.5724	-49.707234	0.000375	3.749670	1.270422	-0.000150
1321	1.3134e+02	-12.6093	-49.921202	0.000537	5.371148	1.819794	-0.000215
1322	1.3144e+02	-12.6542	-50.098836	0.000446	4.459066	1.510773	-0.000179
1323	1.3154e+02	-12.6831	-50.272433	0.000436	4.357724	1.476437	-0.000174
1324	1.3164e+02	-12.7264	-50.458141	0.000466	4.661751	1.579444	-0.000187
1325	1.3174e+02	-12.7745	-50.623664	0.000416	4.155039	1.407765	-0.000166
1326	1.3184e+02	-12.8050	-50.837632	0.000537	5.371148	1.819794	-0.000215
1327	1.3194e+02	-12.8483	-50.999117	0.000405	4.053697	1.373430	-0.000162
1328	1.3204e+02	-12.8804	-51.188863	0.000476	4.763094	1.613780	-0.000191
1329	1.3214e+02	-12.9253	-51.362459	0.000436	4.357724	1.476437	-0.000174
1330	1.3224e+02	-12.9654	-51.568353	0.000517	5.168463	1.751123	-0.000207
1331	1.3234e+02	-13.0055	-51.741950	0.000436	4.357724	1.476437	-0.000174
1332	1.3243e+02	-13.0360	-51.947844	0.000517	5.168463	1.751123	-0.000207
1333	1.3253e+02	-13.0954	-52.093181	0.000365	3.648327	1.236087	-0.000146
1334	1.3263e+02	-13.1226	-52.286964	0.000486	4.864436	1.648116	-0.000195
1335	1.3273e+02	-13.1611	-52.444412	0.000395	3.952354	1.339094	-0.000158
1336	1.3283e+02	-13.2028	-52.674529	0.000578	5.776518	1.957137	-0.000231
1337	1.3293e+02	-13.2494	-52.860237	0.000466	4.661751	1.579444	-0.000187
1338	1.3303e+02	-13.2879	-53.041908	0.000456	4.560409	1.545108	-0.000183
1339	1.3313e+02	-13.3248	-53.231653	0.000476	4.763094	1.613780	-0.000191
1340	1.3323e+02	-13.3601	-53.469844	0.000598	5.979203	2.025809	-0.000239
1341	1.3333e+02	-13.4018	-53.627293	0.000395	3.952354	1.339094	-0.000158
1342	1.3343e+02	-13.4403	-53.776667	0.000375	3.749670	1.270422	-0.000150
1343	1.3353e+02	-13.4756	-53.998709	0.000557	5.573833	1.888466	-0.000223
1344	1.3363e+02	-13.5157	-54.135972	0.000345	3.445642	1.167415	-0.000138
1345	1.3373e+02	-13.5654	-54.390311	0.000638	6.384572	2.163152	-0.000256
1346	1.3383e+02	-13.5927	-54.539685	0.000375	3.749670	1.270422	-0.000150
1347	1.3393e+02	-13.6328	-54.765765	0.000568	5.675175	1.922802	-0.000227
1348	1.3403e+02	-13.6889	-54.927250	0.000405	4.053697	1.373430	-0.000162
1349	1.3413e+02	-13.7194	-55.116996	0.000476	4.763094	1.613780	-0.000191
1350	1.3423e+02	-13.7595	-55.339038	0.000557	5.573833	1.888466	-0.000223
1351	1.3432e+02	-13.8044	-55.532821	0.000486	4.864436	1.648116	-0.000195
1352	1.3442e+02	-13.8429	-55.750826	0.000547	5.472491	1.854130	-0.000219
1353	1.3452e+02	-13.8846	-55.904237	0.000385	3.851012	1.304758	-0.000154
1354	1.3462e+02	-13.9247	-56.114168	0.000527	5.269806	1.785459	-0.000211
1355	1.3472e+02	-13.9536	-56.307951	0.000486	4.864436	1.648116	-0.000195
1356	1.3482e+02	-14.0082	-56.509807	0.000507	5.067121	1.716787	-0.000203
1357	1.3492e+02	-14.0354	-56.707627	0.000497	4.965779	1.682451	-0.000199
1358	1.3502e+02	-14.0804	-56.917558	0.000527	5.269806	1.785459	-0.000211
1359	1.3512e+02	-14.1237	-57.111341	0.000486	4.864436	1.648116	-0.000195
1360	1.3522e+02	-14.1590	-57.321272	0.000527	5.269806	1.785459	-0.000211
1361	1.3532e+02	-14.1943	-57.531203	0.000527	5.269806	1.785459	-0.000211
1362	1.3542e+02	-14.2328	-57.704800	0.000436	4.357724	1.476437	-0.000174
1363	1.3552e+02	-14.2857	-57.926842	0.000557	5.573833	1.888466	-0.000223
1364	1.3562e+02	-14.3210	-58.084290	0.000395	3.952354	1.339094	-0.000158
1365	1.3572e+02	-14.3611	-58.334593	0.000628	6.283230	2.128816	-0.000252
1366	1.3582e+02	-14.3932	-58.500115	0.000416	4.155039	1.407765	-0.000166
1367	1.3592e+02	-14.4381	-58.734269	0.000588	5.877860	1.991473	-0.000235
1368	1.3602e+02	-14.4782	-58.919978	0.000466	4.661751	1.579444	-0.000187
1369	1.3612e+02	-14.5167	-59.101649	0.000456	4.560409	1.545108	-0.000183
1370	1.3622e+02	-14.5600	-59.355988	0.000638	6.384572	2.163152	-0.000256
1371	1.3631e+02	-14.5937	-59.521511	0.000416	4.155039	1.407765	-0.000166
1372	1.3641e+02	-14.6402	-59.731442	0.000527	5.269806	1.785459	-0.000211
1373	1.3651e+02	-14.6787	-59.981744	0.000628	6.283230	2.128816	-0.000252
1374	1.3661e+02	-14.7220	-60.167452	0.000466	4.661751	1.579444	-0.000187
1375	1.3671e+02	-14.7525	-60.369309	0.000507	5.067121	1.716787	-0.000203
1376	1.3681e+02	-14.7990	-60.534832	0.000416	4.155039	1.407765	-0.000166
1377	1.3691e+02	-14.8327	-60.781097	0.000618	6.181888	2.094480	-0.000248
1378	1.3701e+02	-14.8825	-61.015251	0.000588	5.877860	1.991473	-0.000235
1379	1.3711e+02	-14.9226	-61.217108	0.000507	5.067121	1.716787	-0.000203
1380	1.3721e+02	-14.9498	-61.427039	0.000527	5.269806	1.785459	-0.000211
1381	1.3731e+02	-15.0092	-61.624858	0.000497	4.965779	1.682451	-0.000199
1382	1.3741e+02	-15.0333	-61.806530	0.000456	4.560409	1.545108	-0.000183
1383	1.3751e+02	-15.0766	-62.052795	0.000618	6.181888	2.094480	-0.000248
1384	1.3761e+02	-15.1151	-62.270800	0.000547	5.472491	1.854130	-0.000219
1385	1.3771e+02	-15.1472	-62.525140	0.000638	6.384572	2.163152	-0.000256
1386	1.3781e+02	-15.1953	-62.755256	0.000578	5.776518	1.957137	-0.000231
1387	1.3791e+02	-15.2434	-62.945002	0.000476	4.763094	1.613780	-0.000191
1388	1.3801e+02	-15.2787	-63.187230	0.000608	6.080545	2.060144	-0.000243
1389	1.3811e+02	-15.3124	-63.405235	0.000547	5.472491	1.854130	-0.000219
1390	1.3821e+02	-15.3525	-63.631315	0.000568	5.675175	1.922802	-0.000227
1391	1.3831e+02	-15.3878	-63.857395	0.000568	5.675175	1.922802	-0.000227
1392	1.3840e+02	-15.4343	-64.071363	0.000537	5.371148	1.819794	-0.000215
1393	1.3850e+02	-15.4760	-64.329739	0.000649	6.485915	2.197487	-0.000260
1394	1.3860e+02	-15.5113	-64.531596	0.000507	5.067121	1.716787	-0.000203
1395	1.3870e+02	-15.5659	-64.773824	0.000608	6.080545	2.060144	-0.000243
1396	1.3880e+02	-15.5947	-65.016052	0.000608	6.080545	2.060144	-0.000243
1397	1.3890e+02	-15.6365	-65.250206	0.000588	5.877860	1.991473	-0.000235
1398	1.3900e+02	-15.6798	-65.448026	0.000497	4.965779	1.682451	-0.000199
1399	1.3910e+02	-15.7199	-65.710440	0.000659	6.587257	2.231823	-0.000264
1400	1.3920e+02	-15.7471	-65.956705	0.000618	6.181888	2.094480	-0.000248
1401	1.3930e+02	-15.8001	-66.186822	0.000578	5.776518	1.957137	-0.000231
1402	1.3940e+02	-15.8290	-66.408864	0.000557	5.573833	1.888466	-0.000223
1403	1.3950e+02	-15.8739	-66.683390	0.000689	6.891285	2.334830	-0.000276
1404	1.3960e+02	-15.9188	-66.885246	0.000507	5.067121	1.716787	-0.000203
1405	1.3970e+02	-15.9605	-67.119400	0.000588	5.877860	1.991473	-0.000235
1406	1.3980e+02	-15.9894	-67.402000	0.000709	7.093969	2.403502	-0.000284
1407	1.3990e+02	-16.0215	-67.611931	0.000527	5.269806	1.785459	-0.000211
1408	1.4000e+02	-16.0696	-67.833973	0.000557	5.573833	1.888466	-0.000223
1409	1.4010e+02	-16.1145	-68.096387	0.000659	6.587257	2.231823	-0.000264
1410	1.4020e+02	-16.1530	-68.314392	0.000547	5.472491	1.854130	-0.000219
1411	1.4029e+02	-16.1915	-68.625252	0.000780	7.803366	2.643852	-0.000312
1412	1.4039e+02	-16.2364	-68.863443	0.000598	5.979203	2.025809	-0.000239
1413	1.4049e+02	-16.2765	-69.142005	0.000699	6.992627	2.369166	-0.000280
1414	1.4059e+02	-16.3231	-69.368085	0.000568	5.675175	1.922802	-0.000227
1415	1.4069e+02	-16.3535	-69.654721	0.000720	7.195312	2.437838	-0.000288
1416	1.4079e+02	-16.3937	-69.844467	0.000476	4.763094	1.613780	-0.000191
1417	1.4089e+02	-16.4322	-70.163401	0.000801	8.006051	2.712524	-0.000321
1418	1.4099e+02	-16.4626	-70.377369	0.000537	5.371148	1.819794	-0.000215
1419	1.4109e+02	-16.5140	-70.639783	0.000659	6.587257	2.231823	-0.000264
1420	1.4119e+02	-16.5557	-70.946605	0.000770	7.702024	2.609516	-0.000308
1421	1.4129e+02	-16.5942	-71.136350	0.000476	4.763094	1.613780	-0.000191
1422	1.4139e+02	-16.6471	-71.414913	0.000699	6.992627	2.369166	-0.000280
1423	1.4149e+02	-16.6744	-71.754032	0.000851	8.512763	2.884202	-0.000341
1424	1.4159e+02	-16.7113	-71.980112	0.000568	5.675175	1.922802	-0.000227
1425	1.4169e+02	-16.7482	-72.250600	0.000679	6.789942	2.300495	-0.000272
1426	1.4179e+02	-16.7963	-72.504939	0.000638	6.384572	2.163152	-0.000256
1427	1.4189e+02	-16.8316	-72.811762	0.000770	7.702024	2.609516	-0.000308
1428	1.4199e+02	-16.8685	-73.090324	0.000699	6.992627	2.369166	-0.000280
1429	1.4209e+02	-16.9070	-73.368886	0.000699	6.992627	2.369166	-0.000280
1430	1.4219e+02	-16.9519	-73.623226	0.000638	6.384572	2.163152	-0.000256
1431	1.4228e+02	-16.9888	-73.926011	0.000760	7.600681	2.575181	-0.000304
1432	1.4238e+02	-17.0353	-74.184388	0.000649	6.485915	2.197487	-0.000260
1433	1.4248e+02	-17.0690	-74.434690	0.000628	6.283230	2.128816	-0.000252
1434	1.4258e+02	-17.1075	-74.749587	0.000790	7.904709	2.678188	-0.000316
1435	1.4268e+02	-17.1525	-75.096780	0.000872	8.715448	2.952874	-0.000349
1436	1.4278e+02	-17.1974	-75.351120	0.000638	6.384572	2.163152	-0.000256
1437	1.4288e+02	-17.2279	-75.621608	0.000679	6.789942	2.300495	-0.000272
1438	1.4298e+02	-17.2728	-75.924393	0.000760	7.600681	2.575181	-0.000304
1439	1.4308e+02	-17.3081	-76.219104	0.000740	7.397997	2.506509	-0.000296
1440	1.4318e+02	-17.3466	-76.493629	0.000689	6.891285	2.334830	-0.000276
1441	1.4328e+02	-17.3883	-76.772192	0.000699	6.992627	2.369166	-0.000280
1442	1.4338e+02	-17.4332	-77.127460	0.000892	8.918133	3.021545	-0.000357
1443	1.4348e+02	-17.4733	-77.418133	0.000730	7.296654	2.472173	-0.000292
1444	1.4358e+02	-17.5118	-77.733030	0.000790	7.904709	2.678188	-0.000316
1445	1.4368e+02	-17.5455	-77.975258	0.000608	6.080545	2.060144	-0.000243
1446	1.4378e+02	-17.5840	-78.294192	0.000801	8.006051	2.712524	-0.000321
1447	1.4388e+02	-17.6321	-78.625237	0.000831	8.310078	2.815531	-0.000333
1448	1.4398e+02	-17.6642	-78.911874	0.000720	7.195312	2.437838	-0.000288
1449	1.4408e+02	-17.7155	-79.234845	0.000811	8.107394	2.746859	-0.000325
1450	1.4418e+02	-17.7508	-79.541667	0.000770	7.702024	2.609516	-0.000308
1451	1.4428e+02	-17.7861	-79.820229	0.000699	6.992627	2.369166	-0.000280
1452	1.4437e+02	-17.8246	-80.139163	0.000801	8.006051	2.712524	-0.000321
1453	1.4447e+02	-17.8631	-80.526728	0.000973	9.728872	3.296231	-0.000390
1454	1.4457e+02	-17.9097	-80.801253	0.000689	6.891285	2.334830	-0.000276
1455	1.4467e+02	-17.9433	-81.152484	0.000882	8.816790	2.987209	-0.000353
1456	1.4477e+02	-17.9818	-81.487566	0.000841	8.411421	2.849867	-0.000337
1457	1.4487e+02	-18.0284	-81.842834	0.000892	8.918133	3.021545	-0.000357
1458	1.4497e+02	-18.0637	-82.141582	0.000750	7.499339	2.540845	-0.000300
1459	1.4507e+02	-18.1102	-82.508962	0.000922	9.222160	3.124552	-0.000369
1460	1.4517e+02	-18.1487	-82.823858	0.000790	7.904709	2.678188	-0.000316
1461	1.4527e+02	-18.1872	-83.171052	0.000872	8.715448	2.952874	-0.000349
1462	1.4537e+02	-18.2289	-83.498060	0.000821	8.208736	2.781195	-0.000329
1463	1.4547e+02	-18.2690	-83.849291	0.000882	8.816790	2.987209	-0.000353
1464	1.4557e+02	-18.3091	-84.228781	0.000953	9.526187	3.227560	-0.000381
1465	1.4567e+02	-18.3492	-84.527530	0.000750	7.499339	2.540845	-0.000300
1466	1.4577e+02	-18.3893	-84.866649	0.000851	8.512763	2.884202	-0.000341
1467	1.4587e+02	-18.4246	-85.246140	0.000953	9.526187	3.227560	-0.000381
1468	1.4597e+02	-18.4615	-85.561036	0.000790	7.904709	2.678188	-0.000316
1469	1.4607e+02	-18.5032	-85.944564	0.000963	9.627530	3.261895	-0.000385
1470	1.4617e+02	-18.5497	-86.315981	0.000932	9.323503	3.158888	-0.000373
1471	1.4626e+02	-18.5738	-86.687397	0.000932	9.323503	3.158888	-0.000373
1472	1.4636e+02	-18.6300	-86.994219	0.000770	7.702024	2.609516	-0.000308
1473	1.4646e+02	-18.6717	-87.430230	0.001094	10.944981	3.708260	-0.000438
1474	1.4656e+02	-18.6957	-87.809721	0.000953	9.526187	3.227560	-0.000381
1475	1.4666e+02	-18.7406	-88.088283	0.000699	6.992627	2.369166	-0.000280
1476	1.4676e+02	-18.7856	-88.475848	0.000973	9.728872	3.296231	-0.000390
1477	1.4686e+02	-18.8257	-88.871488	0.000993	9.931557	3.364903	-0.000398
1478	1.4696e+02	-18.8658	-89.250978	0.000953	9.526187	3.227560	-0.000381
1479	1.4706e+02	-18.9027	-89.642580	0.000983	9.830215	3.330567	-0.000394
1480	1.4716e+02	-18.9460	-90.046294	0.001013	10.134242	3.433574	-0.000406
1481	1.4726e+02	-18.9733	-90.369265	0.000811	8.107394	2.746859	-0.000325
1482	1.4736e+02	-19.0278	-90.785090	0.001044	10.438269	3.536581	-0.000418
1483	1.4746e+02	-19.0615	-91.172655	0.000973	9.728872	3.296231	-0.000390
1484	1.4756e+02	-19.1064	-91.564257	0.000983	9.830215	3.330567	-0.000394
1485	1.4766e+02	-19.1481	-91.955859	0.000983	9.830215	3.330567	-0.000394
1486	1.4776e+02	-19.1818	-92.383796	0.001074	10.742296	3.639589	-0.000430
1487	1.4786e+02	-19.2187	-92.791546	0.001024	10.235584	3.467910	-0.000410
1488	1.4796e+02	-19.2716	-93.146814	0.000892	8.918133	3.021545	-0.000357
1489	1.4806e+02	-19.3037	-93.611085	0.001165	11.654378	3.948610	-0.000467
1490	1.4816e+02	-19.3406	-93.990576	0.000953	9.526187	3.227560	-0.000381
1491	1.4825e+02	-19.3823	-94.446772	0.001145	11.451693	3.879939	-0.000458
1492	1.4835e+02	-19.4208	-94.793966	0.000872	8.715448	2.952874	-0.000349
1493	1.4845e+02	-19.4658	-95.225939	0.001084	10.843639	3.673924	-0.000434
1494	1.4855e+02	-19.4978	-95.670024	0.001115	11.147666	3.776932	-0.000446
1495	1.4865e+02	-19.5444	-96.057589	0.000973	9.728872	3.296231	-0.000390
1496	1.4875e+02	-19.5781	-96.521860	0.001165	11.654378	3.948610	-0.000467
1497	1.4885e+02	-19.6262	-96.945759	0.001064	10.640954	3.605253	-0.000426
1498	1.4895e+02	-19.6583	-97.373695	0.001074	10.742296	3.639589	-0.000430
1499	1.4905e+02	-19.6968	-97.801632	0.001074	10.742296	3.639589	-0.000430
1500	1.4915e+02	-19.7321	-98.217457	0.001044	10.438269	3.536581	-0.000418
1501	1.4925e+02	-19.7818	-98.685765	0.001176	11.755721	3.982946	-0.000471
1502	1.4935e+02	-19.8203	-99.133887	0.001125	11.249009	3.811267	-0.000450
1503	1.4945e+02	-19.8572	-99.577972	0.001115	11.147666	3.776932	-0.000446
1504	1.4955e+02	-19.8957	-100.013982	0.001094	10.944981	3.708260	-0.000438
1505	1.4965e+02	-19.9390	-100.502476	0.001226	12.262433	4.154625	-0.000491
1506	1.4975e+02	-19.9695	-100.962709	0.001155	11.553036	3.914274	-0.000463
1507	1.4985e+02	-20.0160	-101.370460	0.001024	10.235584	3.467910	-0.000410
1508	1.4995e+02	-19.9823	-101.596539	-0.000568	-5.675175	-1.922802	-0.000227
1509	1.5005e+02	-19.9374	-101.850879	-0.000638	-6.384572	-2.163152	-0.000256
1510	1.5015e+02	-19.8973	-101.963919	-0.000284	-2.837588	-0.961401	-0.000114
1511	1.5025e+02	-19.8620	-102.153664	-0.000476	-4.763094	-1.613780	-0.000191
1512	1.5034e+02	-19.8123	-102.327261	-0.000436	-4.357724	-1.476437	-0.000174
1513	1.5044e+02	-19.7818	-102.452412	-0.000314	-3.141615	-1.064408	-0.000126
1514	1.5054e+02	-19.7369	-102.521043	-0.000172	-1.722821	-0.583708	-0.000069
1515	1.5064e+02	-19.7016	-102.605823	-0.000213	-2.128191	-0.721051	-0.000085
1516	1.5074e+02	-19.6502	-102.722900	-0.000294	-2.938930	-0.995736	-0.000118
1517	1.5084e+02	-19.6294	-102.807680	-0.000213	-2.128191	-0.721051	-0.000085
1518	1.5094e+02	-19.5781	-102.852089	-0.000111	-1.114767	-0.377693	-0.000045
1519	1.5104e+02	-19.5380	-102.916683	-0.000162	-1.621479	-0.549372	-0.000065
1520	1.5114e+02	-19.5043	-102.953017	-0.000091	-0.912082	-0.309022	-0.000037
1521	1.5124e+02	-19.4626	-102.993388	-0.000101	-1.013424	-0.343357	-0.000041
1522	1.5134e+02	-19.4208	-103.057983	-0.000162	-1.621479	-0.549372	-0.000065
1523	1.5144e+02	-19.3823	-103.041834	0.000041	0.405370	0.137343	0.000016
1524	1.5154e+02	-19.3438	-103.102391	-0.000152	-1.520136	-0.515036	-0.000061
1525	1.5164e+02	-19.3053	-103.049908	0.000132	1.317451	0.446365	0.000053
1526	1.5174e+02	-19.2604	-103.102391	-0.000132	-1.317451	-0.446365	-0.000053
1527	1.5184e+02	-19.2251	-103.102391	0.000000	0.000000	0.000000	0.000000
1528	1.5194e+02	-19.1898	-103.078168	0.000061	0.608055	0.206014	0.000024
1529	1.5204e+02	-19.1465	-103.062020	0.000041	0.405370	0.137343	0.000016
1530	1.5214e+02	-19.1048	-103.066057	-0.000010	-0.101342	-0.034336	-0.000004
1531	1.5224e+02	-19.0679	-103.029723	0.000091	0.912082	0.309022	0.000037
1532	1.5233e+02	-19.0246	-103.021648	0.000020	0.202685	0.068671	0.000008
1533	1.5243e+02	-18.9765	-103.041834	-0.000051	-0.506712	-0.171679	-0.000020
1534	1.5253e+02	-18.9428	-103.013574	0.000071	0.709397	0.240350	0.000028
1535	1.5263e+02	-18.9011	-102.944943	0.000172	1.722821	0.583708	0.000069
1536	1.5273e+02	-18.8642	-102.896497	0.000122	1.216109	0.412029	0.000049
1537	1.5283e+02	-18.8193	-102.904571	-0.000020	-0.202685	-0.068671	-0.000008
1538	1.5293e+02	-18.7808	-102.831903	0.000182	1.824164	0.618043	0.000073
1539	1.5303e+02	-18.7455	-102.791532	0.000101	1.013424	0.343357	0.000041
1540	1.5313e+02	-18.7070	-102.747123	0.000111	1.114767	0.377693	0.000045
1541	1.5323e+02	-18.6717	-102.662343	0.000213	2.128191	0.721051	0.000085
1542	1.5333e+02	-18.6203	-102.662343	0.000000	0.000000	0.000000	0.000000
1543	1.5343e+02	-18.5898	-102.545266	0.000294	2.938930	0.995736	0.000118
1544	1.5353e+02	-18.5465	-102.500858	0.000111	1.114767	0.377693	0.000045
1545	1.5363e+02	-18.5000	-102.440301	0.000152	1.520136	0.515036	0.000061
1546	1.5373e+02	-18.4615	-102.379744	0.000152	1.520136	0.515036	0.000061
1547	1.5383e+02	-18.4278	-102.294964	0.000213	2.128191	0.721051	0.000085
1548	1.5393e+02	-18.3797	-102.238444	0.000142	1.418794	0.480700	0.000057
1549	1.5403e+02	-18.3428	-102.149627	0.000223	2.229533	0.755386	0.000089
1550	1.5413e+02	-18.3107	-102.105219	0.000111	1.114767	0.377693	0.000045
1551	1.5422e+02	-18.2674	-102.040624	0.000162	1.621479	0.549372	0.000065
1552	1.5432e+02	-18.2209	-101.967956	0.000182	1.824164	0.618043	0.000073
1553	1.5442e+02	-18.1920	-101.907399	0.000152	1.520136	0.515036	0.000061
1554	1.5452e+02	-18.1503	-101.798396	0.000274	2.736245	0.927065	0.000110
1555	1.5462e+02	-18.1118	-101.733802	0.000162	1.621479	0.549372	0.000065
1556	1.5472e+02	-18.0637	-101.628837	0.000263	2.634903	0.892729	0.000105
1557	1.5482e+02	-18.0300	-101.572317	0.000142	1.418794	0.480700	0.000057
1558	1.5492e+02	-17.9867	-101.487537	0.000213	2.128191	0.721051	0.000085
1559	1.5502e+02	-17.9562	-101.422943	0.000162	1.621479	0.549372	0.000065
1560	1.5512e+02	-17.9016	-101.342200	0.000203	2.026848	0.686715	0.000081
1561	1.5522e+02	-17.8647	-101.285680	0.000142	1.418794	0.480700	0.000057
1562	1.5532e+02	-17.8343	-101.192826	0.000233	2.330876	0.789722	0.000093
1563	1.5542e+02	-17.7893	-101.071712	0.000304	3.040273	1.030072	0.000122
1564	1.5552e+02	-17.7444	-101.007118	0.000162	1.621479	0.549372	0.000065
1565	1.5562e+02	-17.7075	-100.914263	0.000233	2.330876	0.789722	0.000093
1566	1.5572e+02	-17.6754	-100.821409	0.000233	2.330876	0.789722	0.000093
1567	1.5582e+02	-17.6321	-100.756815	0.000162	1.621479	0.549372	0.000065
1568	1.5592e+02	-17.5808	-100.672035	0.000213	2.128191	0.721051	0.000085
1569	1.5602e+02	-17.5519	-100.518624	0.000385	3.851012	1.304758	0.000154
1570	1.5612e+02	-17.5086	-100.466141	0.000132	1.317451	0.446365	0.000053
1571	1.5622e+02	-17.4701	-100.365213	0.000253	2.533560	0.858394	0.000101
1572	1.5631e+02	-17.4332	-100.231988	0.000334	3.344300	1.133079	0.000134
1573	1.5641e+02	-17.3899	-100.240062	-0.000020	-0.202685	-0.068671	-0.000008
1574	1.5651e+02	-17.3562	-100.062428	0.000446	4.459066	1.510773	0.000179
1575	1.5661e+02	-17.3129	-100.009945	0.000132	1.317451	0.446365	0.000053
1576	1.5671e+02	-17.2712	-99.937277	0.000182	1.824164	0.618043	0.000073
1577	1.5681e+02	-17.2295	-99.800014	0.000345	3.445642	1.167415	0.000138
1578	1.5691e+02	-17.1829	-99.735420	0.000162	1.621479	0.549372	0.000065
1579	1.5701e+02	-17.1509	-99.634491	0.000253	2.533560	0.858394	0.000101
1580	1.5711e+02	-17.1156	-99.489155	0.000365	3.648327	1.236087	0.000146
1581	1.5721e+02	-17.0690	-99.384189	0.000263	2.634903	0.892729	0.000105
1582	1.5731e+02	-17.0353	-99.287298	0.000243	2.432218	0.824058	0.000097
1583	1.5741e+02	-16.9872	-99.230778	0.000142	1.418794	0.480700	0.000057
1584	1.5751e+02	-16.9503	-99.093515	0.000345	3.445642	1.167415	0.000138
1585	1.5761e+02	-16.9070	-98.992587	0.000253	2.533560	0.858394	0.000101
1586	1.5771e+02	-16.8701	-98.887621	0.000263	2.634903	0.892729	0.000105
1587	1.5781e+02	-16.8252	-98.790730	0.000243	2.432218	0.824058	0.000097
1588	1.5791e+02	-16.7947	-98.718062	0.000182	1.824164	0.618043	0.000073
1589	1.5801e+02	-16.7546	-98.629245	0.000223	2.229533	0.755386	0.000089
1590	1.5811e+02	-16.7161	-98.512168	0.000294	2.938930	0.995736	0.000118
1591	1.5821e+02	-16.6664	-98.374905	0.000345	3.445642	1.167415	0.000138
1592	1.5830e+02	-16.6359	-98.302237	0.000182	1.824164	0.618043	0.000073
1593	1.5840e+02	-16.5830	-98.209383	0.000233	2.330876	0.789722	0.000093
1594	1.5850e+02	-16.5477	-98.088268	0.000304	3.040273	1.030072	0.000122
1595	1.5860e+02	-16.5027	-97.955043	0.000334	3.344300	1.133079	0.000134
1596	1.5870e+02	-16.4755	-97.850077	0.000263	2.634903	0.892729	0.000105
1597	1.5880e+02	-16.4450	-97.728963	0.000304	3.040273	1.030072	0.000122
1598	1.5890e+02	-16.3888	-97.656295	0.000182	1.824164	0.618043	0.000073
1599	1.5900e+02	-16.3487	-97.579589	0.000193	1.925506	0.652379	0.000077
1600	1.5910e+02	-16.3199	-97.450401	0.000324	3.242957	1.098744	0.000130
1601	1.5920e+02	-16.2765	-97.349473	0.000253	2.533560	0.858394	0.000101
1602	1.5930e+02	-16.2348	-97.236433	0.000284	2.837588	0.961401	0.000114
1603	1.5940e+02	-16.1899	-97.078985	0.000395	3.952354	1.339094	0.000158
1604	1.5950e+02	-16.1498	-97.026502	0.000132	1.317451	0.446365	0.000053
1605	1.5960e+02	-16.1241	-96.925573	0.000253	2.533560	0.858394	0.000101
1606	1.5970e+02	-16.0712	-96.820608	0.000263	2.634903	0.892729	0.000105
1607	1.5980e+02	-16.0343	-96.707568	0.000284	2.837588	0.961401	0.000114
1608	1.5990e+02	-15.9878	-96.606640	0.000253	2.533560	0.858394	0.000101
1609	1.6000e+02	-15.9573	-96.489563	0.000294	2.938930	0.995736	0.000118
1610	1.6010e+02	-15.9204	-96.380560	0.000274	2.736245	0.927065	0.000110
1611	1.6019e+02	-15.8723	-96.263483	0.000294	2.938930	0.995736	0.000118
1612	1.6029e+02	-15.8370	-96.142369	0.000304	3.040273	1.030072	0.000122
1613	1.6039e+02	-15.7905	-96.009144	0.000334	3.344300	1.133079	0.000134
1614	1.6049e+02	-15.7423	-95.940512	0.000172	1.722821	0.583708	0.000069
1615	1.6059e+02	-15.7135	-95.863807	0.000193	1.925506	0.652379	0.000077
1616	1.6069e+02	-15.6782	-95.710396	0.000385	3.851012	1.304758	0.000154
1617	1.6079e+02	-15.6381	-95.589281	0.000304	3.040273	1.030072	0.000122
1618	1.6089e+02	-15.5964	-95.492390	0.000243	2.432218	0.824058	0.000097
1619	1.6099e+02	-15.5546	-95.411647	0.000203	2.026848	0.686715	0.000081
1620	1.6109e+02	-15.5177	-95.294571	0.000294	2.938930	0.995736	0.000118
1621	1.6119e+02	-15.4776	-95.169419	0.000314	3.141615	1.064408	0.000126
1622	1.6129e+02	-15.4327	-95.056380	0.000284	2.837588	0.961401	0.000114
1623	1.6139e+02	-15.4022	-94.931228	0.000314	3.141615	1.064408	0.000126
1624	1.6149e+02	-15.3605	-94.850486	0.000203	2.026848	0.686715	0.000081
1625	1.6159e+02	-15.3124	-94.713223	0.000345	3.445642	1.167415	0.000138
1626	1.6169e+02	-15.2723	-94.604220	0.000274	2.736245	0.927065	0.000110
1627	1.6179e+02	-15.2450	-94.523478	0.000203	2.026848	0.686715	0.000081
1628	1.6189e+02	-15.1953	-94.402364	0.000304	3.040273	1.030072	0.000122
1629	1.6199e+02	-15.1632	-94.297398	0.000263	2.634903	0.892729	0.000105
1630	1.6209e+02	-15.1183	-94.176284	0.000304	3.040273	1.030072	0.000122
1631	1.6219e+02	-15.0782	-94.034984	0.000355	3.546985	1.201751	0.000142
1632	1.6228e+02	-15.0397	-93.954241	0.000203	2.026848	0.686715	0.000081
1633	1.6238e+02	-15.0044	-93.808905	0.000365	3.648327	1.236087	0.000146
1634	1.6248e+02	-14.9547	-93.720088	0.000223	2.229533	0.755386	0.000089
1635	1.6258e+02	-14.9274	-93.574751	0.000365	3.648327	1.236087	0.000146
1636	1.6268e+02	-14.8793	-93.461711	0.000284	2.837588	0.961401	0.000114
1637	1.6278e+02	-14.8424	-93.352708	0.000274	2.736245	0.927065	0.000110
1638	1.6288e+02	-14.7958	-93.219483	0.000334	3.344300	1.133079	0.000134
1639	1.6298e+02	-14.7702	-93.134703	0.000213	2.128191	0.721051	0.000085
1640	1.6308e+02	-14.7236	-93.005515	0.000324	3.242957	1.098744	0.000130
1641	1.6318e+02	-14.6739	-92.884400	0.000304	3.040273	1.030072	0.000122
1642	1.6328e+02	-14.6482	-92.779435	0.000263	2.634903	0.892729	0.000105
1643	1.6338e+02	-14.5953	-92.638135	0.000355	3.546985	1.201751	0.000142
1644	1.6348e+02	-14.5536	-92.529133	0.000274	2.736245	0.927065	0.000110
1645	1.6358e+02	-14.5167	-92.424167	0.000263	2.634903	0.892729	0.000105
1646	1.6368e+02	-14.4798	-92.307090	0.000294	2.938930	0.995736	0.000118
1647	1.6378e+02	-14.4413	-92.169827	0.000345	3.445642	1.167415	0.000138
1648	1.6388e+02	-14.3932	-92.020453	0.000375	3.749670	1.270422	0.000150
1649	1.6398e+02	-14.3579	-91.923562	0.000243	2.432218	0.824058	0.000097
1650	1.6408e+02	-14.3258	-91.838782	0.000213	2.128191	0.721051	0.000085
1651	1.6418e+02	-14.2809	-91.669223	0.000426	4.256382	1.442101	0.000170
1652	1.6427e+02	-14.2360	-91.552146	0.000294	2.938930	0.995736	0.000118
1653	1.6437e+02	-14.1991	-91.431032	0.000304	3.040273	1.030072	0.000122
1654	1.6447e+02	-14.1670	-91.297806	0.000334	3.344300	1.133079	0.000134
1655	1.6457e+02	-14.1205	-91.225138	0.000182	1.824164	0.618043	0.000073
1656	1.6467e+02	-14.0659	-91.087875	0.000345	3.445642	1.167415	0.000138
1657	1.6477e+02	-14.0451	-90.954650	0.000334	3.344300	1.133079	0.000134
1658	1.6487e+02	-14.0098	-90.869870	0.000213	2.128191	0.721051	0.000085
1659	1.6497e+02	-13.9632	-90.760867	0.000274	2.736245	0.927065	0.000110
1660	1.6507e+02	-13.9135	-90.623604	0.000345	3.445642	1.167415	0.000138
1661	1.6517e+02	-13.8862	-90.482305	0.000355	3.546985	1.201751	0.000142
1662	1.6527e+02	-13.8429	-90.336968	0.000365	3.648327	1.236087	0.000146
1663	1.6537e+02	-13.7964	-90.244114	0.000233	2.330876	0.789722	0.000093
1664	1.6547e+02	-13.7579	-90.147222	0.000243	2.432218	0.824058	0.000097
1665	1.6557e+02	-13.7226	-90.009960	0.000345	3.445642	1.167415	0.000138
1666	1.6567e+02	-13.6777	-89.892883	0.000294	2.938930	0.995736	0.000118
1667	1.6577e+02	-13.6536	-89.751583	0.000355	3.546985	1.201751	0.000142
1668	1.6587e+02	-13.6007	-89.602209	0.000375	3.749670	1.270422	0.000150
1669	1.6597e+02	-13.5670	-89.517429	0.000213	2.128191	0.721051	0.000085
1670	1.6607e+02	-13.5221	-89.400352	0.000294	2.938930	0.995736	0.000118
1671	1.6616e+02	-13.4868	-89.283275	0.000294	2.938930	0.995736	0.000118
1672	1.6626e+02	-13.4435	-89.133901	0.000375	3.749670	1.270422	0.000150
1673	1.6636e+02	-13.3953	-89.024899	0.000274	2.736245	0.927065	0.000110
1674	1.6646e+02	-13.3617	-88.915896	0.000274	2.736245	0.927065	0.000110
1675	1.6656e+02	-13.3328	-88.742299	0.000436	4.357724	1.476437	0.000174
1676	1.6666e+02	-13.2814	-88.669631	0.000182	1.824164	0.618043	0.000073
1677	1.6676e+02	-13.2413	-88.516220	0.000385	3.851012	1.304758	0.000154
1678	1.6686e+02	-13.2076	-88.403180	0.000284	2.837588	0.961401	0.000114
1679	1.6696e+02	-13.1659	-88.273991	0.000324	3.242957	1.098744	0.000130
1680	1.6706e+02	-13.1242	-88.120580	0.000385	3.851012	1.304758	0.000154
1681	1.6716e+02	-13.0825	-87.983318	0.000345	3.445642	1.167415	0.000138
1682	1.6726e+02	-13.0424	-87.862204	0.000304	3.040273	1.030072	0.000122
1683	1.6736e+02	-13.0071	-87.741090	0.000304	3.040273	1.030072	0.000122
1684	1.6746e+02	-12.9702	-87.615938	0.000314	3.141615	1.064408	0.000126
1685	1.6756e+02	-12.9189	-87.515010	0.000253	2.533560	0.858394	0.000101
1686	1.6766e+02	-12.8884	-87.393896	0.000304	3.040273	1.030072	0.000122
1687	1.6776e+02	-12.8467	-87.252596	0.000355	3.546985	1.201751	0.000142
1688	1.6786e+02	-12.8034	-87.123408	0.000324	3.242957	1.098744	0.000130
1689	1.6796e+02	-12.7601	-87.018442	0.000263	2.634903	0.892729	0.000105
1690	1.6806e+02	-12.7328	-86.893291	0.000314	3.141615	1.064408	0.000126
1691	1.6816e+02	-12.6863	-86.743917	0.000375	3.749670	1.270422	0.000150
1692	1.6825e+02	-12.6446	-86.618766	0.000314	3.141615	1.064408	0.000126
1693	1.6835e+02	-12.6045	-86.493615	0.000314	3.141615	1.064408	0.000126
1694	1.6845e+02	-12.5756	-86.356352	0.000345	3.445642	1.167415	0.000138
1695	1.6855e+02	-12.5291	-86.255424	0.000253	2.533560	0.858394	0.000101
1696	1.6865e+02	-12.4938	-86.118161	0.000345	3.445642	1.167415	0.000138
1697	1.6875e+02	-12.4440	-85.980898	0.000345	3.445642	1.167415	0.000138
1698	1.6885e+02	-12.4071	-85.851710	0.000324	3.242957	1.098744	0.000130
1699	1.6895e+02	-12.3670	-85.738670	0.000284	2.837588	0.961401	0.000114
1700	1.6905e+02	-12.3317	-85.625630	0.000284	2.837588	0.961401	0.000114
1701	1.6915e+02	-12.2804	-85.464145	0.000405	4.053697	1.373430	0.000162
1702	1.6925e+02	-12.2435	-85.355142	0.000274	2.736245	0.927065	0.000110
1703	1.6935e+02	-12.2034	-85.185583	0.000426	4.256382	1.442101	0.000170
1704	1.6945e+02	-12.1665	-85.056394	0.000324	3.242957	1.098744	0.000130
1705	1.6955e+02	-12.1296	-84.963540	0.000233	2.330876	0.789722	0.000093
1706	1.6965e+02	-12.0831	-84.798018	0.000416	4.155039	1.407765	0.000166
1707	1.6975e+02	-12.0494	-84.709201	0.000223	2.229533	0.755386	0.000089
1708	1.6985e+02	-12.0077	-84.543678	0.000416	4.155039	1.407765	0.000166
1709	1.6995e+02	-11.9676	-84.402378	0.000355	3.546985	1.201751	0.000142
1710	1.7005e+02	-11.9371	-84.248967	0.000385	3.851012	1.304758	0.000154
1711	1.7015e+02	-11.8826	-84.139964	0.000274	2.736245	0.927065	0.000110
1712	1.7024e+02	-11.8473	-84.010776	0.000324	3.242957	1.098744	0.000130
1713	1.7034e+02	-11.8200	-83.869476	0.000355	3.546985	1.201751	0.000142
1714	1.7044e+02	-11.7703	-83.724140	0.000365	3.648327	1.236087	0.000146
1715	1.7054e+02	-11.7334	-83.623211	0.000253	2.533560	0.858394	0.000101
1716	1.7064e+02	-11.6916	-83.477874	0.000365	3.648327	1.236087	0.000146
1717	1.7074e+02	-11.6499	-83.356760	0.000304	3.040273	1.030072	0.000122
1718	1.7084e+02	-11.6050	-83.231609	0.000314	3.141615	1.064408	0.000126
1719	1.7094e+02	-11.5713	-83.110495	0.000304	3.040273	1.030072	0.000122
1720	1.7104e+02	-11.5280	-82.932861	0.000446	4.459066	1.510773	0.000179
1721	1.7114e+02	-11.4943	-82.823858	0.000274	2.736245	0.927065	0.000110
1722	1.7124e+02	-11.4494	-82.694670	0.000324	3.242957	1.098744	0.000130
1723	1.7134e+02	-11.4141	-82.573556	0.000304	3.040273	1.030072	0.000122
1724	1.7144e+02	-11.3772	-82.387848	0.000466	4.661751	1.579444	0.000187
1725	1.7154e+02	-11.3323	-82.299031	0.000223	2.229533	0.755386	0.000089
1726	1.7164e+02	-11.2906	-82.169842	0.000324	3.242957	1.098744	0.000130
1727	1.7174e+02	-11.2489	-82.016431	0.000385	3.851012	1.304758	0.000154
1728	1.7184e+02	-11.2024	-81.931651	0.000213	2.128191	0.721051	0.000085
1729	1.7194e+02	-11.1847	-81.745943	0.000466	4.661751	1.579444	0.000187
1730	1.7204e+02	-11.1270	-81.596569	0.000375	3.749670	1.270422	0.000150
1731	1.7213e+02	-11.0981	-81.471418	0.000314	3.141615	1.064408	0.000126
1732	1.7223e+02	-11.0628	-81.338192	0.000334	3.344300	1.133079	0.000134
1733	1.7233e+02	-11.0050	-81.229190	0.000274	2.736245	0.927065	0.000110
1734	1.7243e+02	-10.9713	-81.067704	0.000405	4.053697	1.373430	0.000162
1735	1.7253e+02	-10.9361	-80.946590	0.000304	3.040273	1.030072	0.000122
1736	1.7263e+02	-10.8879	-80.809328	0.000345	3.445642	1.167415	0.000138
1737	1.7273e+02	-10.8558	-80.708399	0.000253	2.533560	0.858394	0.000101
1738	1.7283e+02	-10.8157	-80.526728	0.000456	4.560409	1.545108	0.000183
1739	1.7293e+02	-10.7740	-80.361205	0.000416	4.155039	1.407765	0.000166
1740	1.7303e+02	-10.7387	-80.292574	0.000172	1.722821	0.583708	0.000069
1741	1.7313e+02	-10.6938	-80.135126	0.000395	3.952354	1.339094	0.000158
1742	1.7323e+02	-10.6601	-79.981715	0.000385	3.851012	1.304758	0.000154
1743	1.7333e+02	-10.6024	-79.844452	0.000345	3.445642	1.167415	0.000138
1744	1.7343e+02	-10.5671	-79.711227	0.000334	3.344300	1.133079	0.000134
1745	1.7353e+02	-10.5398	-79.549741	0.000405	4.053697	1.373430	0.000162
1746	1.7363e+02	-10.4917	-79.384219	0.000416	4.155039	1.407765	0.000166
1747	1.7373e+02	-10.4532	-79.303476	0.000203	2.026848	0.686715	0.000081
1748	1.7383e+02	-10.4195	-79.141990	0.000405	4.053697	1.373430	0.000162
1749	1.7393e+02	-10.3778	-79.016839	0.000314	3.141615	1.064408	0.000126
1750	1.7403e+02	-10.3329	-78.847280	0.000426	4.256382	1.442101	0.000170
1751	1.7413e+02	-10.2976	-78.726165	0.000304	3.040273	1.030072	0.000122
1752	1.7422e+02	-10.2623	-78.556606	0.000426	4.256382	1.442101	0.000170
1753	1.7432e+02	-10.2190	-78.431455	0.000314	3.141615	1.064408	0.000126
1754	1.7442e+02	-10.1724	-78.294192	0.000345	3.445642	1.167415	0.000138
1755	1.7452e+02	-10.1404	-78.148855	0.000365	3.648327	1.236087	0.000146
1756	1.7462e+02	-10.0938	-78.060038	0.000223	2.229533	0.755386	0.000089
1757	1.7472e+02	-10.0537	-77.878367	0.000456	4.560409	1.545108	0.000183
1758	1.7482e+02	-10.0120	-77.745141	0.000334	3.344300	1.133079	0.000134
1759	1.7492e+02	-9.9735	-77.599805	0.000365	3.648327	1.236087	0.000146
1760	1.7502e+02	-9.9366	-77.438319	0.000405	4.053697	1.373430	0.000162
1761	1.7512e+02	-9.9013	-77.288945	0.000375	3.749670	1.270422	0.000150
1762	1.7522e+02	-9.8548	-77.163794	0.000314	3.141615	1.064408	0.000126
1763	1.7532e+02	-9.8195	-77.018457	0.000365	3.648327	1.236087	0.000146
1764	1.7542e+02	-9.7746	-76.844860	0.000436	4.357724	1.476437	0.000174
1765	1.7552e+02	-9.7409	-76.739895	0.000263	2.634903	0.892729	0.000105
1766	1.7562e+02	-9.6960	-76.566298	0.000436	4.357724	1.476437	0.000174
1767	1.7572e+02	-9.6687	-76.420961	0.000365	3.648327	1.236087	0.000146
1768	1.7582e+02	-9.6286	-76.291773	0.000324	3.242957	1.098744	0.000130
1769	1.7592e+02	-9.5853	-76.138361	0.000385	3.851012	1.304758	0.000154
1770	1.7602e+02	-9.5420	-76.005136	0.000334	3.344300	1.133079	0.000134
1771	1.7612e+02	-9.4987	-75.871910	0.000334	3.344300	1.133079	0.000134
1772	1.7621e+02	-9.4553	-75.726574	0.000365	3.648327	1.236087	0.000146
1773	1.7631e+02	-9.4201	-75.557014	0.000426	4.256382	1.442101	0.000170
1774	1.7641e+02	-9.3799	-75.403603	0.000385	3.851012	1.304758	0.000154
1775	1.7651e+02	-9.3447	-75.246154	0.000395	3.952354	1.339094	0.000158
1776	1.7661e+02	-9.2933	-75.112929	0.000334	3.344300	1.133079	0.000134
1777	1.7671e+02	-9.2644	-74.951444	0.000405	4.053697	1.373430	0.000162
1778	1.7681e+02	-9.2259	-74.838404	0.000284	2.837588	0.961401	0.000114
1779	1.7691e+02	-9.1842	-74.689030	0.000375	3.749670	1.270422	0.000150
1780	1.7701e+02	-9.1377	-74.527544	0.000405	4.053697	1.373430	0.000162
1781	1.7711e+02	-9.1056	-74.398356	0.000324	3.242957	1.098744	0.000130
1782	1.7721e+02	-9.0591	-74.240908	0.000395	3.952354	1.339094	0.000158
1783	1.7731e+02	-9.0126	-74.067311	0.000436	4.357724	1.476437	0.000174
1784	1.7741e+02	-8.9853	-73.974457	0.000233	2.330876	0.789722	0.000093
1785	1.7751e+02	-8.9452	-73.756451	0.000547	5.472491	1.854130	0.000219
1786	1.7761e+02	-8.9083	-73.627263	0.000324	3.242957	1.098744	0.000130
1787	1.7771e+02	-8.8666	-73.465778	0.000405	4.053697	1.373430	0.000162
1788	1.7781e+02	-8.8169	-73.296218	0.000426	4.256382	1.442101	0.000170
1789	1.7791e+02	-8.7816	-73.154918	0.000355	3.546985	1.201751	0.000142
1790	1.7801e+02	-8.7383	-73.005544	0.000375	3.749670	1.270422	0.000150
1791	1.7810e+02	-8.6949	-72.852133	0.000385	3.851012	1.304758	0.000154
1792	1.7820e+02	-8.6516	-72.739093	0.000284	2.837588	0.961401	0.000114
1793	1.7830e+02	-8.6179	-72.545311	0.000486	4.864436	1.648116	0.000195
1794	1.7840e+02	-8.5842	-72.424197	0.000304	3.040273	1.030072	0.000122
1795	1.7850e+02	-8.5457	-72.278860	0.000365	3.648327	1.236087	0.000146
1796	1.7860e+02	-8.5072	-72.117374	0.000405	4.053697	1.373430	0.000162
1797	1.7870e+02	-8.4559	-71.931666	0.000466	4.661751	1.579444	0.000187
1798	1.7880e+02	-8.4142	-71.826700	0.000263	2.634903	0.892729	0.000105
1799	1.7890e+02	-8.3821	-71.673289	0.000385	3.851012	1.304758	0.000154
1800	1.7900e+02	-8.3420	-71.515841	0.000395	3.952354	1.339094	0.000158
1801	1.7910e+02	-8.3035	-71.326096	0.000476	4.763094	1.613780	0.000191
1802	1.7920e+02	-8.2602	-71.176722	0.000375	3.749670	1.270422	0.000150
1803	1.7930e+02	-8.2281	-71.019273	0.000395	3.952354	1.339094	0.000158
1804	1.7940e+02	-8.1800	-70.886048	0.000334	3.344300	1.133079	0.000134
1805	1.7950e+02	-8.1431	-70.748785	0.000345	3.445642	1.167415	0.000138
1806	1.7960e+02	-8.1078	-70.550966	0.000497	4.965779	1.682451	0.000199
1807	1.7970e+02	-8.0677	-70.441963	0.000274	2.736245	0.927065	0.000110
1808	1.7980e+02	-8.0292	-70.252218	0.000476	4.763094	1.613780	0.000191
1809	1.7990e+02	-7.9843	-70.074584	0.000446	4.459066	1.510773	0.000179
1810	1.8000e+02	-7.9410	-69.921172	0.000385	3.851012	1.304758	0.000154
1811	1.8009e+02	-7.9025	-69.791984	0.000324	3.242957	1.098744	0.000130
1812	1.8019e+02	-7.8688	-69.618387	0.000436	4.357724	1.476437	0.000174
1813	1.8029e+02	-7.8351	-69.428642	0.000476	4.763094	1.613780	0.000191
1814	1.8039e+02	-7.7821	-69.251008	0.000446	4.459066	1.510773	0.000179
1815	1.8049e+02	-7.7420	-69.117782	0.000334	3.344300	1.133079	0.000134
1816	1.8059e+02	-7.6987	-68.980520	0.000345	3.445642	1.167415	0.000138
1817	1.8069e+02	-7.6698	-68.806923	0.000436	4.357724	1.476437	0.000174
1818	1.8079e+02	-7.6217	-68.641400	0.000416	4.155039	1.407765	0.000166
1819	1.8089e+02	-7.5816	-68.504138	0.000345	3.445642	1.167415	0.000138
1820	1.8099e+02	-7.5399	-68.290170	0.000537	5.371148	1.819794	0.000215
1821	1.8109e+02	-7.5062	-68.148870	0.000355	3.546985	1.201751	0.000142
1822	1.8119e+02	-7.4581	-68.003533	0.000365	3.648327	1.236087	0.000146
1823	1.8129e+02	-7.4340	-67.842048	0.000405	4.053697	1.373430	0.000162
1824	1.8139e+02	-7.3859	-67.620005	0.000557	5.573833	1.888466	0.000223
1825	1.8149e+02	-7.3538	-67.482742	0.000345	3.445642	1.167415	0.000138
1826	1.8159e+02	-7.3041	-67.381814	0.000253	2.533560	0.858394	0.000101
1827	1.8169e+02	-7.2688	-67.175920	0.000517	5.168463	1.751123	0.000207
1828	1.8179e+02	-7.2287	-66.990212	0.000466	4.661751	1.579444	0.000187
1829	1.8189e+02	-7.1982	-66.836801	0.000385	3.851012	1.304758	0.000154
1830	1.8199e+02	-7.1501	-66.715687	0.000304	3.040273	1.030072	0.000122
1831	1.8209e+02	-7.1100	-66.497681	0.000547	5.472491	1.854130	0.000219
1832	1.8218e+02	-7.0682	-66.344270	0.000385	3.851012	1.304758	0.000154
1833	1.8228e+02	-7.0281	-66.235267	0.000274	2.736245	0.927065	0.000110
1834	1.8238e+02	-6.9929	-66.037448	0.000497	4.965779	1.682451	0.000199
1835	1.8248e+02	-6.9511	-65.835591	0.000507	5.067121	1.716787	0.000203
1836	1.8258e+02	-6.9078	-65.694291	0.000355	3.546985	1.201751	0.000142
1837	1.8268e+02	-6.8741	-65.524732	0.000426	4.256382	1.442101	0.000170
1838	1.8278e+02	-6.8324	-65.355172	0.000426	4.256382	1.442101	0.000170
1839	1.8288e+02	-6.7875	-65.177538	0.000446	4.459066	1.510773	0.000179
1840	1.8298e+02	-6.7426	-64.975681	0.000507	5.067121	1.716787	0.000203
1841	1.8308e+02	-6.7089	-64.866678	0.000274	2.736245	0.927065	0.000110
1842	1.8318e+02	-6.6688	-64.672896	0.000486	4.864436	1.648116	0.000195
1843	1.8328e+02	-6.6303	-64.503336	0.000426	4.256382	1.442101	0.000170
1844	1.8338e+02	-6.5886	-64.362037	0.000355	3.546985	1.201751	0.000142
1845	1.8348e+02	-6.5485	-64.184403	0.000446	4.459066	1.510773	0.000179
1846	1.8358e+02	-6.5084	-63.978509	0.000517	5.168463	1.751123	0.000207
1847	1.8368e+02	-6.4795	-63.796838	0.000456	4.560409	1.545108	0.000183
1848	1.8378e+02	-6.4282	-63.635352	0.000405	4.053697	1.373430	0.000162
1849	1.8388e+02	-6.3945	-63.465792	0.000426	4.256382	1.442101	0.000170
1850	1.8398e+02	-6.3463	-63.340641	0.000314	3.141615	1.064408	0.000126
1851	1.8407e+02	-6.3094	-63.146859	0.000486	4.864436	1.648116	0.000195
1852	1.8417e+02	-6.2822	-63.005559	0.000355	3.546985	1.201751	0.000142
1853	1.8427e+02	-6.2421	-62.783516	0.000557	5.573833	1.888466	0.000223
1854	1.8437e+02	-6.1955	-62.634142	0.000375	3.749670	1.270422	0.000150
1855	1.8447e+02	-6.1538	-62.456508	0.000446	4.459066	1.510773	0.000179
1856	1.8457e+02	-6.1073	-62.278874	0.000446	4.459066	1.510773	0.000179
1857	1.8467e+02	-6.0736	-62.085092	0.000486	4.864436	1.648116	0.000195
1858	1.8477e+02	-6.0351	-61.907458	0.000446	4.459066	1.510773	0.000179
1859	1.8487e+02	-5.9982	-61.721750	0.000466	4.661751	1.579444	0.000187
1860	1.8497e+02	-5.9501	-61.564301	0.000395	3.952354	1.339094	0.000158
1861	1.8507e+02	-5.9164	-61.338222	0.000568	5.675175	1.922802	0.000227
1862	1.8517e+02	-5.8795	-61.176736	0.000405	4.053697	1.373430	0.000162
1863	1.8527e+02	-5.8426	-61.047548	0.000324	3.242957	1.098744	0.000130
1864	1.8537e+02	-5.7977	-60.857803	0.000476	4.763094	1.613780	0.000191
1865	1.8547e+02	-5.7528	-60.692280	0.000416	4.155039	1.407765	0.000166
1866	1.8557e+02	-5.7127	-60.494460	0.000497	4.965779	1.682451	0.000199
1867	1.8567e+02	-5.6774	-60.328938	0.000416	4.155039	1.407765	0.000166
1868	1.8577e+02	-5.6389	-60.127081	0.000507	5.067121	1.716787	0.000203
1869	1.8587e+02	-5.5940	-59.977707	0.000375	3.749670	1.270422	0.000150
1870	1.8597e+02	-5.5506	-59.751627	0.000568	5.675175	1.922802	0.000227
1871	1.8606e+02	-5.5105	-59.598216	0.000385	3.851012	1.304758	0.000154
1872	1.8616e+02	-5.4801	-59.424619	0.000436	4.357724	1.476437	0.000174
1873	1.8626e+02	-5.4367	-59.218726	0.000517	5.168463	1.751123	0.000207
1874	1.8636e+02	-5.3934	-59.016869	0.000507	5.067121	1.716787	0.000203
1875	1.8646e+02	-5.3517	-58.798863	0.000547	5.472491	1.854130	0.000219
1876	1.8656e+02	-5.3228	-58.645452	0.000385	3.851012	1.304758	0.000154
1877	1.8666e+02	-5.2747	-58.504153	0.000355	3.546985	1.201751	0.000142
1878	1.8676e+02	-5.2378	-58.278073	0.000568	5.675175	1.922802	0.000227
1879	1.8686e+02	-5.1961	-58.116588	0.000405	4.053697	1.373430	0.000162
1880	1.8696e+02	-5.1544	-57.914731	0.000507	5.067121	1.716787	0.000203
1881	1.8706e+02	-5.1191	-57.773431	0.000355	3.546985	1.201751	0.000142
1882	1.8716e+02	-5.0838	-57.567537	0.000517	5.168463	1.751123	0.000207
1883	1.8726e+02	-5.0373	-57.341457	0.000568	5.675175	1.922802	0.000227
1884	1.8736e+02	-5.0020	-57.167861	0.000436	4.357724	1.476437	0.000174
1885	1.8746e+02	-4.9651	-56.961967	0.000517	5.168463	1.751123	0.000207
1886	1.8756e+02	-4.9234	-56.788370	0.000436	4.357724	1.476437	0.000174
1887	1.8766e+02	-4.8705	-56.614773	0.000436	4.357724	1.476437	0.000174
1888	1.8776e+02	-4.8384	-56.376582	0.000598	5.979203	2.025809	0.000239
1889	1.8786e+02	-4.7983	-56.211059	0.000416	4.155039	1.407765	0.000166
1890	1.8796e+02	-4.7566	-56.017277	0.000486	4.864436	1.648116	0.000195
1891	1.8806e+02	-4.7213	-55.831569	0.000466	4.661751	1.579444	0.000187
1892	1.8815e+02	-4.6828	-55.666046	0.000416	4.155039	1.407765	0.000166
1893	1.8825e+02	-4.6362	-55.399595	0.000669	6.688600	2.266159	0.000268
1894	1.8835e+02	-4.6009	-55.238110	0.000405	4.053697	1.373430	0.000162
1895	1.8845e+02	-4.5528	-55.060476	0.000446	4.459066	1.510773	0.000179
1896	1.8855e+02	-4.5255	-54.850545	0.000527	5.269806	1.785459	0.000211
1897	1.8865e+02	-4.4854	-54.672911	0.000446	4.459066	1.510773	0.000179
1898	1.8875e+02	-4.4389	-54.503351	0.000426	4.256382	1.442101	0.000170
1899	1.8885e+02	-4.4036	-54.301494	0.000507	5.067121	1.716787	0.000203
1900	1.8895e+02	-4.3667	-54.071378	0.000578	5.776518	1.957137	0.000231
1901	1.8905e+02	-4.3170	-53.909892	0.000405	4.053697	1.373430	0.000162
1902	1.8915e+02	-4.2817	-53.679775	0.000578	5.776518	1.957137	0.000231
1903	1.8925e+02	-4.2336	-53.514253	0.000416	4.155039	1.407765	0.000166
1904	1.8935e+02	-4.2031	-53.259913	0.000638	6.384572	2.163152	0.000256
1905	1.8945e+02	-4.1518	-53.106502	0.000385	3.851012	1.304758	0.000154
1906	1.8955e+02	-4.1181	-52.876385	0.000578	5.776518	1.957137	0.000231
1907	1.8965e+02	-4.0796	-52.662417	0.000537	5.371148	1.819794	0.000215
1908	1.8975e+02	-4.0411	-52.480746	0.000456	4.560409	1.545108	0.000183
1909	1.8985e+02	-4.0010	-52.311186	0.000426	4.256382	1.442101	0.000170
1910	1.8995e+02	-3.9657	-52.093181	0.000547	5.472491	1.854130	0.000219
1911	1.9004e+02	-3.9223	-51.859027	0.000588	5.877860	1.991473	0.000235
1912	1.9014e+02	-3.8758	-51.661207	0.000497	4.965779	1.682451	0.000199
1913	1.9024e+02	-3.8518	-51.451276	0.000527	5.269806	1.785459	0.000211
1914	1.9034e+02	-3.7988	-51.257494	0.000486	4.864436	1.648116	0.000195
1915	1.9044e+02	-3.7571	-51.055637	0.000507	5.067121	1.716787	0.000203
1916	1.9054e+02	-3.7202	-50.845706	0.000527	5.269806	1.785459	0.000211
1917	1.9064e+02	-3.6913	-50.635775	0.000527	5.269806	1.785459	0.000211
1918	1.9074e+02	-3.6496	-50.441992	0.000486	4.864436	1.648116	0.000195
1919	1.9084e+02	-3.6015	-50.203801	0.000598	5.979203	2.025809	0.000239
1920	1.9094e+02	-3.5614	-49.989833	0.000537	5.371148	1.819794	0.000215
1921	1.9104e+02	-3.5165	-49.775865	0.000537	5.371148	1.819794	0.000215
1922	1.9114e+02	-3.4796	-49.586120	0.000476	4.763094	1.613780	0.000191
1923	1.9124e+02	-3.4507	-49.376189	0.000527	5.269806	1.785459	0.000211
1924	1.9134e+02	-3.3946	-49.166258	0.000527	5.269806	1.785459	0.000211
1925	1.9144e+02	-3.3609	-48.940178	0.000568	5.675175	1.922802	0.000227
1926	1.9154e+02	-3.3272	-48.750433	0.000476	4.763094	1.613780	0.000191
1927	1.9164e+02	-3.2935	-48.528390	0.000557	5.573833	1.888466	0.000223
1928	1.9174e+02	-3.2406	-48.338645	0.000476	4.763094	1.613780	0.000191
1929	1.9184e+02	-3.1972	-48.092379	0.000618	6.181888	2.094480	0.000248
1930	1.9194e+02	-3.1603	-47.874374	0.000547	5.472491	1.854130	0.000219
1931	1.9203e+02	-3.1283	-47.668480	0.000517	5.168463	1.751123	0.000207
1932	1.9213e+02	-3.0801	-47.458549	0.000527	5.269806	1.785459	0.000211
1933	1.9223e+02	-3.0529	-47.224395	0.000588	5.877860	1.991473	0.000235
1934	1.9233e+02	-3.0079	-47.006390	0.000547	5.472491	1.854130	0.000219
1935	1.9243e+02	-2.9582	-46.768199	0.000598	5.979203	2.025809	0.000239
1936	1.9253e+02	-2.9293	-46.566342	0.000507	5.067121	1.716787	0.000203
1937	1.9263e+02	-2.8844	-46.295854	0.000679	6.789942	2.300495	0.000272
1938	1.9273e+02	-2.8475	-46.098034	0.000497	4.965779	1.682451	0.000199
1939	1.9283e+02	-2.8106	-45.855806	0.000608	6.080545	2.060144	0.000243
1940	1.9293e+02	-2.7673	-45.666061	0.000476	4.763094	1.613780	0.000191
1941	1.9303e+02	-2.7256	-45.415758	0.000628	6.283230	2.128816	0.000252
1942	1.9313e+02	-2.6839	-45.221976	0.000486	4.864436	1.648116	0.000195
1943	1.9323e+02	-2.6454	-44.959562	0.000659	6.587257	2.231823	0.000264
1944	1.9333e+02	-2.6037	-44.761742	0.000497	4.965779	1.682451	0.000199
1945	1.9343e+02	-2.5700	-44.511440	0.000628	6.283230	2.128816	0.000252
1946	1.9353e+02	-2.5219	-44.265175	0.000618	6.181888	2.094480	0.000248
1947	1.9363e+02	-2.4866	-44.043132	0.000557	5.573833	1.888466	0.000223
1948	1.9373e+02	-2.4481	-43.817053	0.000568	5.675175	1.922802	0.000227
1949	1.9383e+02	-2.4160	-43.631344	0.000466	4.661751	1.579444	0.000187
1950	1.9393e+02	-2.3695	-43.372968	0.000649	6.485915	2.197487	0.000260
1951	1.9403e+02	-2.3261	-43.130740	0.000608	6.080545	2.060144	0.000243
1952	1.9412e+02	-2.2860	-42.888512	0.000608	6.080545	2.060144	0.000243
1953	1.9422e+02	-2.2459	-42.658395	0.000578	5.776518	1.957137	0.000231
1954	1.9432e+02	-2.2170	-42.416167	0.000608	6.080545	2.060144	0.000243
1955	1.9442e+02	-2.1673	-42.165864	0.000628	6.283230	2.128816	0.000252
1956	1.9452e+02	-2.1240	-41.911525	0.000638	6.384572	2.163152	0.000256
1957	1.9462e+02	-2.0919	-41.709668	0.000507	5.067121	1.716787	0.000203
1958	1.9472e+02	-2.0502	-41.431106	0.000699	6.992627	2.369166	0.000280
1959	1.9482e+02	-2.0021	-41.237323	0.000486	4.864436	1.648116	0.000195
1960	1.9492e+02	-1.9620	-40.982983	0.000638	6.384572	2.163152	0.000256
1961	1.9502e+02	-1.9411	-40.736718	0.000618	6.181888	2.094480	0.000248
1962	1.9512e+02	-1.8946	-40.482379	0.000638	6.384572	2.163152	0.000256
1963	1.9522e+02	-1.8529	-40.232076	0.000628	6.283230	2.128816	0.000252
1964	1.9532e+02	-1.8064	-40.026182	0.000517	5.168463	1.751123	0.000207
1965	1.9542e+02	-1.7759	-39.767806	0.000649	6.485915	2.197487	0.000260
1966	1.9552e+02	-1.7374	-39.473095	0.000740	7.397997	2.506509	0.000296
1967	1.9562e+02	-1.6877	-39.267201	0.000517	5.168463	1.751123	0.000207
1968	1.9572e+02	-1.6411	-39.029010	0.000598	5.979203	2.025809	0.000239
1969	1.9582e+02	-1.6139	-38.794856	0.000588	5.877860	1.991473	0.000235
1970	1.9592e+02	-1.5721	-38.512256	0.000709	7.093969	2.403502	0.000284
1971	1.9601e+02	-1.5256	-38.237731	0.000689	6.891285	2.334830	0.000276
1972	1.9611e+02	-1.4967	-38.011652	0.000568	5.675175	1.922802	0.000227
1973	1.9621e+02	-1.4486	-37.761349	0.000628	6.283230	2.128816	0.000252
1974	1.9631e+02	-1.4101	-37.486824	0.000689	6.891285	2.334830	0.000276
1975	1.9641e+02	-1.3748	-37.208262	0.000699	6.992627	2.369166	0.000280
1976	1.9651e+02	-1.3347	-36.953922	0.000638	6.384572	2.163152	0.000256
1977	1.9661e+02	-1.2978	-36.699582	0.000638	6.384572	2.163152	0.000256
1978	1.9671e+02	-1.2433	-36.469466	0.000578	5.776518	1.957137	0.000231
1979	1.9681e+02	-1.2096	-36.211089	0.000649	6.485915	2.197487	0.000260
1980	1.9691e+02	-1.1743	-35.888118	0.000811	8.107394	2.746859	0.000325
1981	1.9701e+02	-1.1326	-35.662039	0.000568	5.675175	1.922802	0.000227
1982	1.9711e+02	-1.0941	-35.383476	0.000699	6.992627	2.369166	0.000280
1983	1.9721e+02	-1.0524	-35.149322	0.000588	5.877860	1.991473	0.000235
1984	1.9731e+02	-1.0123	-34.874797	0.000689	6.891285	2.334830	0.000276
1985	1.9741e+02	-0.9738	-34.620458	0.000638	6.384572	2.163152	0.000256
1986	1.9751e+02	-0.9369	-34.309598	0.000780	7.803366	2.643852	0.000312
1987	1.9761e+02	-0.8855	-34.026999	0.000709	7.093969	2.403502	0.000284
1988	1.9771e+02	-0.8567	-33.813030	0.000537	5.371148	1.819794	0.000215
1989	1.9781e+02	-0.8166	-33.502171	0.000780	7.803366	2.643852	0.000312
1990	1.9791e+02	-0.7716	-33.223609	0.000699	6.992627	2.369166	0.000280
1991	1.9800e+02	-0.7251	-32.949083	0.000689	6.891285	2.334830	0.000276
1992	1.9810e+02	-0.6978	-32.662447	0.000720	7.195312	2.437838	0.000288
1993	1.9820e+02	-0.6481	-32.448478	0.000537	5.371148	1.819794	0.000215
1994	1.9830e+02	-0.6080	-32.125508	0.000811	8.107394	2.746859	0.000325
1995	1.9840e+02	-0.5759	-31.875205	0.000628	6.283230	2.128816	0.000252
1996	1.9850e+02	-0.5374	-31.604717	0.000679	6.789942	2.300495	0.000272
1997	1.9860e+02	-0.4989	-31.314043	0.000730	7.296654	2.472173	0.000292
1998	1.9870e+02	-0.4588	-31.023370	0.000730	7.296654	2.472173	0.000292
1999	1.9880e+02	-0.4139	-30.777104	0.000618	6.181888	2.094480	0.000248
2000	1.9890e+02	-0.3754	-30.474319	0.000760	7.600681	2.575181	0.000304
2001	1.9900e+02	-0.3273	-30.203831	0.000679	6.789942	2.300495	0.000272
2002	1.9910e+02	-0.2952	-29.901046	0.000760	7.600681	2.575181	0.000304
2003	1.9920e+02	-0.2487	-29.614409	0.000720	7.195312	2.437838	0.000288
2004	1.9930e+02	-0.2214	-29.319698	0.000740	7.397997	2.506509	0.000296
2005	1.9940e+02	-0.1700	-29.045173	0.000689	6.891285	2.334830	0.000276
2006	1.9950e+02	-0.1332	-28.742388	0.000760	7.600681	2.575181	0.000304
2007	1.9960e+02	-0.1027	-28.508234	0.000588	5.877860	1.991473	0.000235
2008	1.9970e+02	-0.0497	-28.193337	0.000790	7.904709	2.678188	0.000316
2009	1.9980e+02	-0.0176	-27.906701	0.000790	7.904709	2.678188	0.000288

Center data before PMax,+/-Pr and +/-Vc Calc.

PMax (uC/cm2):	1.03e+02
Pr (uC/cm2):	2.18e+01
-Pr (uC/cm2):	-2.79e+01
PLoss (uC/cm2):	-3.06e+01
-Vc:	-3.10e+00
C (Max-Eff) (nF):	5.16e-01
K (Eff):	1.75e+03
Vert. (+/-Pr) Shift (uC/cm2):	-3.06e+00
Offset (uC/cm2):	-2.69e+00

A (Loop Area - uC/cm2·Volts):	4.10e-02



Hysteresis Version: 5.48.1 - Radiant Technologies, Inc., 1999 - 9/12/24

