»»»»»»»»»»»»»»»»»»»»»»»»»»»»»»»»»»»» Hysteresis ««««««««««««««««««««««««««««««««««««
»»»  Executed Version:	5.48.1
»»»  Vision Version:	5.48.4 (R)
»»»  Vision Compiled:	9/18/24
»»»  Driver Version:	5.47.0
»»»  Windows Version:	Windows 8 or 8.1
»»»  Processor Information:	x86 (AMD or Intel) - 32 Processors
»»»  Tester Name:	PMF21124-494 (100V)
»»»  Tester S/N:	PMF21124-494
»»»  Internal Amp Type:	100V RevK 270k
»»»  Internal Amp S/N:	iAB2-596/K     
»»»  Execution Count:	1
»»»»»»»»»»»»»»»»»»»»»»»»»»»»»»»»»»»»»»»»»»««««««««««««««««««««««««««««««««««««««««««

Stored:	6/10/2025 - 14:21:11
Configured:	06/10/25 02:01:08 PM
Executed:	06/10/25 02:20:39 PM

»»»»»»»»»»»»»»»»»»»»»»»»»»»»»»»»»»» Sample Info ««««««««««««««««««««««««««««««««««««
Sample Name:	
Lot Name:	
Wafer Name:	
Die Row/Column:	0/0
Capacitor Number:	0
Sample Area (cm2):	1.00e-04
Sample Thickness (microns):	3.00e-01

Amplifier:	Internal

»»»»»»»»»»»»»»»»»»»»»»»»»»»»»»»»»»» Tester Info «««««««««««««««««««««««««««««««««««
Tester Name:	PMF21124-494 (100V)
Tester Serial Number:	PMF21124-494
Return Signal Amp. Level:	0.19 [Index: 3]

»»»»»»»»»»»»»»»»»»»»»»»»»»»»»»»» Hysteresis Info ««««««««««««««««««««««««««««««««««
Task Name:	Hyst-1027
Volts:	20.00
Field:	666.67 (kV/cm)
DCBias:	0.00
DCField:	0.00 (kV/cm)
Hysteresis Period (ms):	2.00e+02
Preset:	Enabled
Preset Delay (ms):	1.00e+03
Profile:	Standard Bipolar

»»»»»»»»»»»»»»»»»»»»»»»»»»»»»»»»»»»»»» Data «««««««««««««««««««««««««««««««««««««««
Points:	2009

Valid Data

Point	Time (ms)	Drive Voltage	Measured Polarization (uC/cm2)	Capacitance (uF)	Normalized Capacitance (uF/cm2)	Dielectric Constant	Instantaneous Current (mA)
   1	0.0000e+00	-0.0144	-86.784288	0.000405	4.053047	1.373209	0.000162
   2	9.9500e-02	0.0112	-86.622803	0.000405	4.053047	1.373209	0.000162
   3	1.9900e-01	0.0674	-86.441132	0.000456	4.559677	1.544860	0.000183
   4	2.9850e-01	0.0995	-86.267535	0.000436	4.357025	1.476200	0.000174
   5	3.9800e-01	0.1396	-86.102012	0.000415	4.154373	1.407540	0.000166
   6	4.9750e-01	0.1781	-85.944564	0.000395	3.951720	1.338879	0.000158
   7	5.9700e-01	0.2262	-85.746745	0.000496	4.964982	1.682181	0.000199
   8	6.9650e-01	0.2647	-85.520665	0.000567	5.674265	1.922493	0.000227
   9	7.9600e-01	0.2936	-85.343031	0.000446	4.458351	1.510530	0.000179
  10	8.9550e-01	0.3417	-85.177508	0.000415	4.154373	1.407540	0.000166
  11	9.9500e-01	0.3834	-84.971614	0.000517	5.167634	1.750842	0.000207
  12	1.0945e+00	0.4187	-84.810129	0.000405	4.053047	1.373209	0.000162
  13	1.1940e+00	0.4604	-84.584049	0.000567	5.674265	1.922493	0.000227
  14	1.2935e+00	0.5005	-84.402378	0.000456	4.559677	1.544860	0.000183
  15	1.3930e+00	0.5422	-84.257041	0.000365	3.647742	1.235888	0.000146
  16	1.4925e+00	0.5839	-84.051147	0.000517	5.167634	1.750842	0.000207
  17	1.5920e+00	0.6289	-83.857365	0.000486	4.863656	1.647851	0.000195
  18	1.6915e+00	0.6625	-83.623211	0.000588	5.876917	1.991154	0.000235
  19	1.7910e+00	0.6994	-83.445577	0.000446	4.458351	1.510530	0.000179
  20	1.8905e+00	0.7492	-83.255832	0.000476	4.762330	1.613521	0.000191
  21	1.9900e+00	0.7764	-83.086272	0.000426	4.255699	1.441870	0.000170
  22	2.0895e+00	0.8214	-82.880378	0.000517	5.167634	1.750842	0.000207
  23	2.1890e+00	0.8518	-82.670447	0.000527	5.268960	1.785172	0.000211
  24	2.2885e+00	0.8887	-82.492813	0.000446	4.458351	1.510530	0.000179
  25	2.3880e+00	0.9449	-82.303068	0.000476	4.762330	1.613521	0.000191
  26	2.4875e+00	0.9802	-82.097174	0.000517	5.167634	1.750842	0.000207
  27	2.5870e+00	1.0219	-81.915503	0.000456	4.559677	1.544860	0.000183
  28	2.6865e+00	1.0556	-81.721720	0.000486	4.863656	1.647851	0.000195
  29	2.7860e+00	1.0989	-81.503715	0.000547	5.471613	1.853833	0.000219
  30	2.8855e+00	1.1422	-81.301858	0.000507	5.066308	1.716512	0.000203
  31	2.9850e+00	1.1775	-81.091927	0.000527	5.268960	1.785172	0.000211
  32	3.0845e+00	1.2176	-80.869885	0.000557	5.572939	1.888163	0.000223
  33	3.1840e+00	1.2593	-80.692251	0.000446	4.458351	1.510530	0.000179
  34	3.2835e+00	1.2962	-80.470208	0.000557	5.572939	1.888163	0.000223
  35	3.3830e+00	1.3363	-80.276426	0.000486	4.863656	1.647851	0.000195
  36	3.4825e+00	1.3796	-80.106866	0.000426	4.255699	1.441870	0.000170
  37	3.5820e+00	1.4165	-79.864638	0.000608	6.079570	2.059814	0.000243
  38	3.6815e+00	1.4550	-79.662781	0.000507	5.066308	1.716512	0.000203
  39	3.7810e+00	1.4984	-79.473036	0.000476	4.762330	1.613521	0.000191
  40	3.8805e+00	1.5401	-79.234845	0.000598	5.978244	2.025484	0.000239
  41	3.9800e+00	1.5738	-79.065285	0.000426	4.255699	1.441870	0.000170
  42	4.0795e+00	1.6251	-78.859391	0.000517	5.167634	1.750842	0.000207
  43	4.1790e+00	1.6588	-78.625237	0.000588	5.876917	1.991154	0.000235
  44	4.2785e+00	1.6989	-78.399157	0.000567	5.674265	1.922493	0.000227
  45	4.3780e+00	1.7342	-78.197301	0.000507	5.066308	1.716512	0.000203
  46	4.4775e+00	1.7791	-77.999481	0.000496	4.964982	1.682181	0.000199
  47	4.5770e+00	1.8144	-77.769364	0.000578	5.775591	1.956823	0.000231
  48	4.6765e+00	1.8625	-77.567508	0.000507	5.066308	1.716512	0.000203
  49	4.7760e+00	1.8946	-77.361614	0.000517	5.167634	1.750842	0.000207
  50	4.8755e+00	1.9315	-77.155720	0.000517	5.167634	1.750842	0.000207
  51	4.9750e+00	1.9748	-76.945789	0.000527	5.268960	1.785172	0.000211
  52	5.0745e+00	2.0213	-76.715672	0.000578	5.775591	1.956823	0.000231
  53	5.1740e+00	2.0550	-76.493629	0.000557	5.572939	1.888163	0.000223
  54	5.2735e+00	2.0919	-76.271587	0.000557	5.572939	1.888163	0.000223
  55	5.3730e+00	2.1400	-76.081842	0.000476	4.762330	1.613521	0.000191
  56	5.4725e+00	2.1818	-75.827502	0.000638	6.383548	2.162805	0.000256
  57	5.5720e+00	2.2170	-75.645831	0.000456	4.559677	1.544860	0.000183
  58	5.6715e+00	2.2572	-75.415714	0.000578	5.775591	1.956823	0.000231
  59	5.7710e+00	2.2957	-75.205783	0.000527	5.268960	1.785172	0.000211
  60	5.8705e+00	2.3406	-74.963555	0.000608	6.079570	2.059814	0.000243
  61	5.9700e+00	2.3807	-74.745550	0.000547	5.471613	1.853833	0.000219
  62	6.0695e+00	2.4176	-74.547730	0.000496	4.964982	1.682181	0.000199
  63	6.1690e+00	2.4577	-74.353947	0.000486	4.863656	1.647851	0.000195
  64	6.2685e+00	2.4914	-74.099608	0.000638	6.383548	2.162805	0.000256
  65	6.3680e+00	2.5331	-73.938122	0.000405	4.053047	1.373209	0.000162
  66	6.4675e+00	2.5732	-73.699931	0.000598	5.978244	2.025484	0.000239
  67	6.5670e+00	2.6053	-73.510186	0.000476	4.762330	1.613521	0.000191
  68	6.6665e+00	2.6438	-73.255847	0.000638	6.383548	2.162805	0.000256
  69	6.7660e+00	2.6935	-72.997470	0.000648	6.484874	2.197135	0.000260
  70	6.8655e+00	2.7304	-72.840022	0.000395	3.951720	1.338879	0.000158
  71	6.9650e+00	2.7641	-72.622016	0.000547	5.471613	1.853833	0.000219
  72	7.0645e+00	2.8106	-72.408048	0.000537	5.370287	1.819502	0.000215
  73	7.1640e+00	2.8571	-72.177931	0.000578	5.775591	1.956823	0.000231
  74	7.2635e+00	2.8876	-71.972037	0.000517	5.167634	1.750842	0.000207
  75	7.3630e+00	2.9422	-71.741921	0.000578	5.775591	1.956823	0.000231
  76	7.4625e+00	2.9662	-71.540064	0.000507	5.066308	1.716512	0.000203
  77	7.5620e+00	3.0127	-71.305910	0.000588	5.876917	1.991154	0.000235
  78	7.6615e+00	3.0609	-71.091942	0.000537	5.370287	1.819502	0.000215
  79	7.7610e+00	3.0898	-70.865862	0.000567	5.674265	1.922493	0.000227
  80	7.8605e+00	3.1379	-70.659968	0.000517	5.167634	1.750842	0.000207
  81	7.9600e+00	3.1684	-70.437926	0.000557	5.572939	1.888163	0.000223
  82	8.0595e+00	3.2085	-70.232032	0.000517	5.167634	1.750842	0.000207
  83	8.1590e+00	3.2550	-70.005952	0.000567	5.674265	1.922493	0.000227
  84	8.2585e+00	3.2967	-69.796021	0.000527	5.268960	1.785172	0.000211
  85	8.3580e+00	3.3336	-69.598202	0.000496	4.964982	1.682181	0.000199
  86	8.4575e+00	3.3705	-69.372122	0.000567	5.674265	1.922493	0.000227
  87	8.5570e+00	3.4074	-69.170265	0.000507	5.066308	1.716512	0.000203
  88	8.6565e+00	3.4443	-68.968408	0.000507	5.066308	1.716512	0.000203
  89	8.7560e+00	3.4860	-68.730217	0.000598	5.978244	2.025484	0.000239
  90	8.8555e+00	3.5245	-68.532398	0.000496	4.964982	1.682181	0.000199
  91	8.9550e+00	3.5646	-68.282095	0.000628	6.282222	2.128474	0.000252
  92	9.0545e+00	3.6111	-68.132721	0.000375	3.749068	1.270219	0.000150
  93	9.1540e+00	3.6448	-67.870307	0.000659	6.586201	2.231465	0.000264
  94	9.2535e+00	3.6994	-67.680562	0.000476	4.762330	1.613521	0.000191
  95	9.3530e+00	3.7330	-67.498891	0.000456	4.559677	1.544860	0.000183
  96	9.4525e+00	3.7667	-67.244551	0.000638	6.383548	2.162805	0.000256
  97	9.5520e+00	3.8084	-67.030583	0.000537	5.370287	1.819502	0.000215
  98	9.6515e+00	3.8518	-66.861024	0.000426	4.255699	1.441870	0.000170
  99	9.7510e+00	3.9015	-66.651092	0.000527	5.268960	1.785172	0.000211
 100	9.8505e+00	3.9336	-66.437124	0.000537	5.370287	1.819502	0.000215
 101	9.9500e+00	3.9721	-66.202970	0.000588	5.876917	1.991154	0.000235
 102	1.0050e+01	4.0074	-66.025336	0.000446	4.458351	1.510530	0.000179
 103	1.0149e+01	4.0427	-65.835591	0.000476	4.762330	1.613521	0.000191
 104	1.0248e+01	4.0860	-65.557029	0.000699	6.991505	2.368786	0.000280
 105	1.0348e+01	4.1293	-65.391506	0.000415	4.154373	1.407540	0.000166
 106	1.0447e+01	4.1694	-65.165427	0.000567	5.674265	1.922493	0.000227
 107	1.0547e+01	4.2095	-64.963570	0.000507	5.066308	1.716512	0.000203
 108	1.0646e+01	4.2432	-64.757676	0.000517	5.167634	1.750842	0.000207
 109	1.0746e+01	4.2929	-64.527559	0.000578	5.775591	1.956823	0.000231
 110	1.0845e+01	4.3394	-64.321665	0.000517	5.167634	1.750842	0.000207
 111	1.0945e+01	4.3699	-64.107697	0.000537	5.370287	1.819502	0.000215
 112	1.1044e+01	4.4068	-63.909877	0.000496	4.964982	1.682181	0.000199
 113	1.1144e+01	4.4373	-63.691872	0.000547	5.471613	1.853833	0.000219
 114	1.1243e+01	4.4854	-63.498089	0.000486	4.863656	1.647851	0.000195
 115	1.1343e+01	4.5336	-63.284121	0.000537	5.370287	1.819502	0.000215
 116	1.1443e+01	4.5721	-63.058042	0.000567	5.674265	1.922493	0.000227
 117	1.1542e+01	4.6058	-62.868296	0.000476	4.762330	1.613521	0.000191
 118	1.1642e+01	4.6475	-62.670477	0.000496	4.964982	1.682181	0.000199
 119	1.1741e+01	4.6844	-62.456508	0.000537	5.370287	1.819502	0.000215
 120	1.1841e+01	4.7261	-62.262726	0.000486	4.863656	1.647851	0.000195
 121	1.1940e+01	4.7598	-62.081055	0.000456	4.559677	1.544860	0.000183
 122	1.2040e+01	4.7983	-61.875161	0.000517	5.167634	1.750842	0.000207
 123	1.2139e+01	4.8512	-61.669267	0.000517	5.167634	1.750842	0.000207
 124	1.2239e+01	4.8849	-61.455299	0.000537	5.370287	1.819502	0.000215
 125	1.2338e+01	4.9218	-61.285739	0.000426	4.255699	1.441870	0.000170
 126	1.2438e+01	4.9651	-61.067734	0.000547	5.471613	1.853833	0.000219
 127	1.2537e+01	5.0036	-60.882025	0.000466	4.661003	1.579191	0.000187
 128	1.2636e+01	5.0485	-60.664020	0.000547	5.471613	1.853833	0.000219
 129	1.2736e+01	5.0790	-60.470238	0.000486	4.863656	1.647851	0.000195
 130	1.2835e+01	5.1287	-60.256269	0.000537	5.370287	1.819502	0.000215
 131	1.2935e+01	5.1576	-60.098821	0.000395	3.951720	1.338879	0.000158
 132	1.3034e+01	5.2025	-59.880816	0.000547	5.471613	1.853833	0.000219
 133	1.3134e+01	5.2490	-59.699145	0.000456	4.559677	1.544860	0.000183
 134	1.3233e+01	5.2827	-59.473065	0.000567	5.674265	1.922493	0.000227
 135	1.3333e+01	5.3261	-59.307543	0.000415	4.154373	1.407540	0.000166
 136	1.3432e+01	5.3678	-59.085500	0.000557	5.572939	1.888163	0.000223
 137	1.3532e+01	5.4063	-58.932089	0.000385	3.850394	1.304549	0.000154
 138	1.3632e+01	5.4383	-58.706009	0.000567	5.674265	1.922493	0.000227
 139	1.3731e+01	5.4817	-58.508190	0.000496	4.964982	1.682181	0.000199
 140	1.3831e+01	5.5298	-58.354779	0.000385	3.850394	1.304549	0.000154
 141	1.3930e+01	5.5651	-58.108513	0.000618	6.180896	2.094144	0.000248
 142	1.4030e+01	5.5956	-57.938954	0.000426	4.255699	1.441870	0.000170
 143	1.4129e+01	5.6469	-57.724985	0.000537	5.370287	1.819502	0.000215
 144	1.4229e+01	5.6886	-57.551389	0.000436	4.357025	1.476200	0.000174
 145	1.4328e+01	5.7095	-57.349532	0.000507	5.066308	1.716512	0.000203
 146	1.4428e+01	5.7560	-57.163823	0.000466	4.661003	1.579191	0.000187
 147	1.4527e+01	5.7961	-57.002338	0.000405	4.053047	1.373209	0.000162
 148	1.4627e+01	5.8410	-56.768184	0.000588	5.876917	1.991154	0.000235
 149	1.4726e+01	5.8827	-56.574402	0.000486	4.863656	1.647851	0.000195
 150	1.4825e+01	5.9228	-56.364471	0.000527	5.268960	1.785172	0.000211
 151	1.4925e+01	5.9501	-56.198948	0.000415	4.154373	1.407540	0.000166
 152	1.5024e+01	6.0062	-56.017277	0.000456	4.559677	1.544860	0.000183
 153	1.5124e+01	6.0415	-55.742752	0.000689	6.890179	2.334456	0.000276
 154	1.5223e+01	6.0768	-55.609526	0.000334	3.343763	1.132898	0.000134
 155	1.5323e+01	6.1201	-55.435929	0.000436	4.357025	1.476200	0.000174
 156	1.5422e+01	6.1667	-55.225998	0.000527	5.268960	1.785172	0.000211
 157	1.5522e+01	6.1988	-55.056439	0.000426	4.255699	1.441870	0.000170
 158	1.5621e+01	6.2437	-54.842470	0.000537	5.370287	1.819502	0.000215
 159	1.5721e+01	6.2822	-54.680985	0.000405	4.053047	1.373209	0.000162
 160	1.5820e+01	6.3303	-54.458943	0.000557	5.572939	1.888163	0.000223
 161	1.5920e+01	6.3624	-54.301494	0.000395	3.951720	1.338879	0.000158
 162	1.6020e+01	6.3929	-54.111749	0.000476	4.762330	1.613521	0.000191
 163	1.6119e+01	6.4426	-53.930078	0.000456	4.559677	1.544860	0.000183
 164	1.6218e+01	6.4763	-53.712072	0.000547	5.471613	1.853833	0.000219
 165	1.6318e+01	6.5196	-53.566736	0.000365	3.647742	1.235888	0.000146
 166	1.6418e+01	6.5613	-53.336619	0.000578	5.775591	1.956823	0.000231
 167	1.6517e+01	6.5934	-53.167059	0.000426	4.255699	1.441870	0.000170
 168	1.6616e+01	6.6367	-52.973277	0.000486	4.863656	1.647851	0.000195
 169	1.6716e+01	6.6720	-52.815828	0.000395	3.951720	1.338879	0.000158
 170	1.6816e+01	6.7153	-52.601860	0.000537	5.370287	1.819502	0.000215
 171	1.6915e+01	6.7650	-52.408078	0.000486	4.863656	1.647851	0.000195
 172	1.7015e+01	6.8068	-52.230444	0.000446	4.458351	1.510530	0.000179
 173	1.7114e+01	6.8356	-52.060884	0.000426	4.255699	1.441870	0.000170
 174	1.7213e+01	6.8757	-51.830767	0.000578	5.775591	1.956823	0.000231
 175	1.7313e+01	6.9142	-51.661207	0.000426	4.255699	1.441870	0.000170
 176	1.7413e+01	6.9640	-51.523945	0.000345	3.445090	1.167228	0.000138
 177	1.7512e+01	6.9977	-51.318051	0.000517	5.167634	1.750842	0.000207
 178	1.7611e+01	7.0281	-51.120231	0.000496	4.964982	1.682181	0.000199
 179	1.7711e+01	7.0731	-50.906263	0.000537	5.370287	1.819502	0.000215
 180	1.7811e+01	7.1180	-50.732666	0.000436	4.357025	1.476200	0.000174
 181	1.7910e+01	7.1597	-50.542921	0.000476	4.762330	1.613521	0.000191
 182	1.8009e+01	7.1982	-50.361250	0.000456	4.559677	1.544860	0.000183
 183	1.8109e+01	7.2319	-50.171504	0.000476	4.762330	1.613521	0.000191
 184	1.8209e+01	7.2832	-50.030205	0.000355	3.546416	1.201558	0.000142
 185	1.8308e+01	7.3201	-49.792014	0.000598	5.978244	2.025484	0.000239
 186	1.8407e+01	7.3522	-49.622454	0.000426	4.255699	1.441870	0.000170
 187	1.8507e+01	7.3987	-49.444820	0.000446	4.458351	1.510530	0.000179
 188	1.8607e+01	7.4324	-49.263149	0.000456	4.559677	1.544860	0.000183
 189	1.8706e+01	7.4821	-49.012846	0.000628	6.282222	2.128474	0.000252
 190	1.8805e+01	7.5174	-48.883658	0.000324	3.242437	1.098567	0.000130
 191	1.8905e+01	7.5575	-48.693913	0.000476	4.762330	1.613521	0.000191
 192	1.9005e+01	7.5976	-48.516279	0.000446	4.458351	1.510530	0.000179
 193	1.9104e+01	7.6265	-48.350756	0.000415	4.154373	1.407540	0.000166
 194	1.9203e+01	7.6698	-48.096417	0.000638	6.383548	2.162805	0.000256
 195	1.9303e+01	7.7196	-47.991451	0.000263	2.634480	0.892586	0.000105
 196	1.9402e+01	7.7629	-47.797669	0.000486	4.863656	1.647851	0.000195
 197	1.9502e+01	7.7934	-47.599849	0.000496	4.964982	1.682181	0.000199
 198	1.9602e+01	7.8415	-47.430289	0.000426	4.255699	1.441870	0.000170
 199	1.9701e+01	7.8672	-47.200172	0.000578	5.775591	1.956823	0.000231
 200	1.9800e+01	7.9185	-47.030613	0.000426	4.255699	1.441870	0.000170
 201	1.9900e+01	7.9522	-46.861053	0.000426	4.255699	1.441870	0.000170
 202	2.0000e+01	7.9939	-46.663233	0.000496	4.964982	1.682181	0.000199
 203	2.0099e+01	8.0356	-46.473488	0.000476	4.762330	1.613521	0.000191
 204	2.0198e+01	8.0741	-46.336225	0.000345	3.445090	1.167228	0.000138
 205	2.0298e+01	8.1174	-46.110146	0.000567	5.674265	1.922493	0.000227
 206	2.0398e+01	8.1463	-45.916363	0.000486	4.863656	1.647851	0.000195
 207	2.0497e+01	8.1880	-45.746804	0.000426	4.255699	1.441870	0.000170
 208	2.0596e+01	8.2217	-45.569170	0.000446	4.458351	1.510530	0.000179
 209	2.0696e+01	8.2730	-45.379424	0.000476	4.762330	1.613521	0.000191
 210	2.0796e+01	8.3163	-45.181605	0.000496	4.964982	1.682181	0.000199
 211	2.0895e+01	8.3564	-45.016082	0.000415	4.154373	1.407540	0.000166
 212	2.0994e+01	8.3885	-44.814225	0.000507	5.066308	1.716512	0.000203
 213	2.1094e+01	8.4302	-44.628517	0.000466	4.661003	1.579191	0.000187
 214	2.1194e+01	8.4752	-44.438772	0.000476	4.762330	1.613521	0.000191
 215	2.1293e+01	8.5040	-44.224803	0.000537	5.370287	1.819502	0.000215
 216	2.1392e+01	8.5490	-44.095615	0.000324	3.242437	1.098567	0.000130
 217	2.1492e+01	8.5826	-43.901833	0.000486	4.863656	1.647851	0.000195
 218	2.1591e+01	8.6324	-43.704013	0.000496	4.964982	1.682181	0.000199
 219	2.1691e+01	8.6613	-43.538490	0.000415	4.154373	1.407540	0.000166
 220	2.1791e+01	8.7062	-43.308374	0.000578	5.775591	1.956823	0.000231
 221	2.1890e+01	8.7559	-43.114591	0.000486	4.863656	1.647851	0.000195
 222	2.1989e+01	8.7864	-42.912734	0.000507	5.066308	1.716512	0.000203
 223	2.2089e+01	8.8329	-42.779509	0.000334	3.343763	1.132898	0.000134
 224	2.2189e+01	8.8714	-42.537281	0.000608	6.079570	2.059814	0.000243
 225	2.2288e+01	8.9067	-42.367721	0.000426	4.255699	1.441870	0.000170
 226	2.2387e+01	8.9564	-42.226421	0.000355	3.546416	1.201558	0.000142
 227	2.2487e+01	8.9885	-42.016490	0.000527	5.268960	1.785172	0.000211
 228	2.2587e+01	9.0238	-41.822708	0.000486	4.863656	1.647851	0.000195
 229	2.2686e+01	9.0703	-41.661222	0.000405	4.053047	1.373209	0.000162
 230	2.2785e+01	9.1040	-41.435143	0.000567	5.674265	1.922493	0.000227
 231	2.2885e+01	9.1409	-41.273657	0.000405	4.053047	1.373209	0.000162
 232	2.2985e+01	9.1906	-41.124283	0.000375	3.749068	1.270219	0.000150
 233	2.3084e+01	9.2259	-40.890129	0.000588	5.876917	1.991154	0.000235
 234	2.3183e+01	9.2773	-40.728644	0.000405	4.053047	1.373209	0.000162
 235	2.3283e+01	9.3206	-40.534861	0.000486	4.863656	1.647851	0.000195
 236	2.3383e+01	9.3495	-40.328967	0.000517	5.167634	1.750842	0.000207
 237	2.3482e+01	9.3896	-40.143259	0.000466	4.661003	1.579191	0.000187
 238	2.3581e+01	9.4201	-39.977737	0.000415	4.154373	1.407540	0.000166
 239	2.3681e+01	9.4666	-39.783954	0.000486	4.863656	1.647851	0.000195
 240	2.3780e+01	9.5019	-39.602283	0.000456	4.559677	1.544860	0.000183
 241	2.3880e+01	9.5484	-39.408501	0.000486	4.863656	1.647851	0.000195
 242	2.3980e+01	9.5805	-39.275275	0.000334	3.343763	1.132898	0.000134
 243	2.4079e+01	9.6286	-39.045158	0.000578	5.775591	1.956823	0.000231
 244	2.4178e+01	9.6639	-38.855413	0.000476	4.762330	1.613521	0.000191
 245	2.4278e+01	9.7040	-38.689890	0.000415	4.154373	1.407540	0.000166
 246	2.4378e+01	9.7537	-38.500145	0.000476	4.762330	1.613521	0.000191
 247	2.4477e+01	9.7922	-38.310400	0.000476	4.762330	1.613521	0.000191
 248	2.4576e+01	9.8227	-38.112580	0.000496	4.964982	1.682181	0.000199
 249	2.4676e+01	9.8724	-37.914760	0.000496	4.964982	1.682181	0.000199
 250	2.4776e+01	9.9045	-37.737126	0.000446	4.458351	1.510530	0.000179
 251	2.4875e+01	9.9478	-37.551418	0.000466	4.661003	1.579191	0.000187
 252	2.4974e+01	9.9783	-37.402044	0.000375	3.749068	1.270219	0.000150
 253	2.5074e+01	10.0184	-37.188076	0.000537	5.370287	1.819502	0.000215
 254	2.5174e+01	10.0601	-37.050813	0.000345	3.445090	1.167228	0.000138
 255	2.5273e+01	10.1115	-36.848956	0.000507	5.066308	1.716512	0.000203
 256	2.5372e+01	10.1484	-36.667285	0.000456	4.559677	1.544860	0.000183
 257	2.5472e+01	10.1837	-36.449280	0.000547	5.471613	1.853833	0.000219
 258	2.5572e+01	10.2190	-36.283757	0.000415	4.154373	1.407540	0.000166
 259	2.5671e+01	10.2591	-36.114198	0.000426	4.255699	1.441870	0.000170
 260	2.5770e+01	10.3024	-35.932527	0.000456	4.559677	1.544860	0.000183
 261	2.5870e+01	10.3441	-35.742781	0.000476	4.762330	1.613521	0.000191
 262	2.5970e+01	10.3858	-35.569184	0.000436	4.357025	1.476200	0.000174
 263	2.6069e+01	10.4259	-35.347142	0.000557	5.572939	1.888163	0.000223
 264	2.6169e+01	10.4612	-35.181619	0.000415	4.154373	1.407540	0.000166
 265	2.6268e+01	10.5029	-34.915168	0.000669	6.687527	2.265795	0.000268
 266	2.6367e+01	10.5446	-34.785980	0.000324	3.242437	1.098567	0.000130
 267	2.6467e+01	10.5767	-34.620458	0.000415	4.154373	1.407540	0.000166
 268	2.6567e+01	10.6264	-34.446861	0.000436	4.357025	1.476200	0.000174
 269	2.6666e+01	10.6601	-34.228855	0.000547	5.471613	1.853833	0.000219
 270	2.6765e+01	10.7050	-34.059296	0.000426	4.255699	1.441870	0.000170
 271	2.6865e+01	10.7468	-33.849365	0.000527	5.268960	1.785172	0.000211
 272	2.6965e+01	10.7820	-33.643471	0.000517	5.167634	1.750842	0.000207
 273	2.7064e+01	10.8222	-33.477948	0.000415	4.154373	1.407540	0.000166
 274	2.7163e+01	10.8542	-33.324537	0.000385	3.850394	1.304549	0.000154
 275	2.7263e+01	10.9040	-33.086346	0.000598	5.978244	2.025484	0.000239
 276	2.7363e+01	10.9409	-32.904675	0.000456	4.559677	1.544860	0.000183
 277	2.7462e+01	10.9842	-32.739152	0.000415	4.154373	1.407540	0.000166
 278	2.7561e+01	11.0227	-32.517110	0.000557	5.572939	1.888163	0.000223
 279	2.7661e+01	11.0676	-32.351587	0.000415	4.154373	1.407540	0.000166
 280	2.7761e+01	11.1045	-32.125508	0.000567	5.674265	1.922493	0.000227
 281	2.7860e+01	11.1350	-31.951911	0.000436	4.357025	1.476200	0.000174
 282	2.7959e+01	11.1783	-31.790425	0.000405	4.053047	1.373209	0.000162
 283	2.8059e+01	11.2168	-31.576457	0.000537	5.370287	1.819502	0.000215
 284	2.8159e+01	11.2585	-31.354415	0.000557	5.572939	1.888163	0.000223
 285	2.8258e+01	11.3002	-31.192929	0.000405	4.053047	1.373209	0.000162
 286	2.8358e+01	11.3419	-31.003184	0.000476	4.762330	1.613521	0.000191
 287	2.8457e+01	11.3724	-30.809401	0.000486	4.863656	1.647851	0.000195
 288	2.8556e+01	11.4141	-30.635805	0.000436	4.357025	1.476200	0.000174
 289	2.8656e+01	11.4574	-30.433948	0.000507	5.066308	1.716512	0.000203
 290	2.8756e+01	11.5072	-30.260351	0.000436	4.357025	1.476200	0.000174
 291	2.8855e+01	11.5457	-30.054457	0.000517	5.167634	1.750842	0.000207
 292	2.8954e+01	11.5826	-29.844526	0.000527	5.268960	1.785172	0.000211
 293	2.9054e+01	11.6146	-29.634595	0.000527	5.268960	1.785172	0.000211
 294	2.9154e+01	11.6628	-29.473109	0.000405	4.053047	1.373209	0.000162
 295	2.9253e+01	11.7013	-29.295475	0.000446	4.458351	1.510530	0.000179
 296	2.9352e+01	11.7430	-29.117842	0.000446	4.458351	1.510530	0.000179
 297	2.9452e+01	11.7815	-28.936170	0.000456	4.559677	1.544860	0.000183
 298	2.9552e+01	11.8232	-28.734314	0.000507	5.066308	1.716512	0.000203
 299	2.9651e+01	11.8601	-28.532457	0.000507	5.066308	1.716512	0.000203
 300	2.9750e+01	11.9034	-28.354823	0.000446	4.458351	1.510530	0.000179
 301	2.9850e+01	11.9403	-28.096446	0.000648	6.484874	2.197135	0.000260
 302	2.9950e+01	11.9804	-27.926886	0.000426	4.255699	1.441870	0.000170
 303	3.0049e+01	12.0157	-27.761364	0.000415	4.154373	1.407540	0.000166
 304	3.0148e+01	12.0654	-27.555470	0.000517	5.167634	1.750842	0.000207
 305	3.0248e+01	12.0927	-27.357650	0.000496	4.964982	1.682181	0.000199
 306	3.0348e+01	12.1360	-27.184053	0.000436	4.357025	1.476200	0.000174
 307	3.0447e+01	12.1858	-26.949900	0.000588	5.876917	1.991154	0.000235
 308	3.0547e+01	12.2146	-26.756117	0.000486	4.863656	1.647851	0.000195
 309	3.0646e+01	12.2644	-26.578483	0.000446	4.458351	1.510530	0.000179
 310	3.0745e+01	12.2948	-26.344329	0.000588	5.876917	1.991154	0.000235
 311	3.0845e+01	12.3462	-26.182844	0.000405	4.053047	1.373209	0.000162
 312	3.0945e+01	12.3815	-25.972913	0.000527	5.268960	1.785172	0.000211
 313	3.1044e+01	12.4119	-25.742796	0.000578	5.775591	1.956823	0.000231
 314	3.1143e+01	12.4521	-25.581311	0.000405	4.053047	1.373209	0.000162
 315	3.1243e+01	12.4970	-25.403677	0.000446	4.458351	1.510530	0.000179
 316	3.1343e+01	12.5307	-25.181634	0.000557	5.572939	1.888163	0.000223
 317	3.1442e+01	12.5740	-24.979777	0.000507	5.066308	1.716512	0.000203
 318	3.1541e+01	12.6189	-24.822329	0.000395	3.951720	1.338879	0.000158
 319	3.1641e+01	12.6606	-24.588175	0.000588	5.876917	1.991154	0.000235
 320	3.1741e+01	12.6991	-24.410541	0.000446	4.458351	1.510530	0.000179
 321	3.1840e+01	12.7424	-24.196573	0.000537	5.370287	1.819502	0.000215
 322	3.1939e+01	12.7825	-23.978568	0.000547	5.471613	1.853833	0.000219
 323	3.2039e+01	12.8162	-23.817082	0.000405	4.053047	1.373209	0.000162
 324	3.2139e+01	12.8643	-23.599077	0.000547	5.471613	1.853833	0.000219
 325	3.2238e+01	12.8980	-23.417406	0.000456	4.559677	1.544860	0.000183
 326	3.2337e+01	12.9349	-23.223623	0.000486	4.863656	1.647851	0.000195
 327	3.2437e+01	12.9654	-23.017729	0.000517	5.167634	1.750842	0.000207
 328	3.2536e+01	13.0183	-22.787613	0.000578	5.775591	1.956823	0.000231
 329	3.2636e+01	13.0456	-22.670536	0.000294	2.938459	0.995577	0.000118
 330	3.2736e+01	13.0970	-22.432345	0.000598	5.978244	2.025484	0.000239
 331	3.2835e+01	13.1339	-22.258748	0.000436	4.357025	1.476200	0.000174
 332	3.2934e+01	13.1724	-22.044780	0.000537	5.370287	1.819502	0.000215
 333	3.3034e+01	13.2076	-21.863109	0.000456	4.559677	1.544860	0.000183
 334	3.3133e+01	13.2590	-21.661252	0.000507	5.066308	1.716512	0.000203
 335	3.3233e+01	13.2991	-21.459395	0.000507	5.066308	1.716512	0.000203
 336	3.3333e+01	13.3296	-21.273687	0.000466	4.661003	1.579191	0.000187
 337	3.3432e+01	13.3809	-21.047607	0.000567	5.674265	1.922493	0.000227
 338	3.3532e+01	13.4018	-20.886122	0.000405	4.053047	1.373209	0.000162
 339	3.3631e+01	13.4563	-20.664079	0.000557	5.572939	1.888163	0.000223
 340	3.3730e+01	13.4804	-20.446074	0.000547	5.471613	1.853833	0.000219
 341	3.3830e+01	13.5349	-20.240180	0.000517	5.167634	1.750842	0.000207
 342	3.3929e+01	13.5702	-20.066583	0.000436	4.357025	1.476200	0.000174
 343	3.4029e+01	13.6071	-19.832429	0.000588	5.876917	1.991154	0.000235
 344	3.4129e+01	13.6504	-19.674981	0.000395	3.951720	1.338879	0.000158
 345	3.4228e+01	13.6905	-19.448901	0.000567	5.674265	1.922493	0.000227
 346	3.4328e+01	13.7290	-19.251082	0.000496	4.964982	1.682181	0.000199
 347	3.4427e+01	13.7723	-19.029039	0.000557	5.572939	1.888163	0.000223
 348	3.4526e+01	13.8108	-18.855442	0.000436	4.357025	1.476200	0.000174
 349	3.4626e+01	13.8590	-18.645511	0.000527	5.268960	1.785172	0.000211
 350	3.4725e+01	13.8894	-18.467877	0.000446	4.458351	1.510530	0.000179
 351	3.4825e+01	13.9312	-18.266021	0.000507	5.066308	1.716512	0.000203
 352	3.4925e+01	13.9665	-18.052052	0.000537	5.370287	1.819502	0.000215
 353	3.5024e+01	14.0130	-17.846159	0.000517	5.167634	1.750842	0.000207
 354	3.5123e+01	14.0483	-17.636227	0.000527	5.268960	1.785172	0.000211
 355	3.5223e+01	14.0932	-17.430334	0.000517	5.167634	1.750842	0.000207
 356	3.5322e+01	14.1333	-17.220402	0.000527	5.268960	1.785172	0.000211
 357	3.5422e+01	14.1750	-17.010471	0.000527	5.268960	1.785172	0.000211
 358	3.5522e+01	14.2103	-16.792466	0.000547	5.471613	1.853833	0.000219
 359	3.5621e+01	14.2536	-16.626944	0.000415	4.154373	1.407540	0.000166
 360	3.5721e+01	14.2937	-16.412975	0.000537	5.370287	1.819502	0.000215
 361	3.5820e+01	14.3322	-16.199007	0.000537	5.370287	1.819502	0.000215
 362	3.5919e+01	14.3691	-16.009262	0.000476	4.762330	1.613521	0.000191
 363	3.6019e+01	14.4012	-15.775108	0.000588	5.876917	1.991154	0.000235
 364	3.6118e+01	14.4477	-15.536917	0.000598	5.978244	2.025484	0.000239
 365	3.6218e+01	14.4878	-15.355246	0.000456	4.559677	1.544860	0.000183
 366	3.6318e+01	14.5295	-15.173575	0.000456	4.559677	1.544860	0.000183
 367	3.6417e+01	14.5712	-14.955569	0.000547	5.471613	1.853833	0.000219
 368	3.6517e+01	14.6162	-14.725453	0.000578	5.775591	1.956823	0.000231
 369	3.6616e+01	14.6434	-14.495336	0.000578	5.775591	1.956823	0.000231
 370	3.6715e+01	14.6868	-14.269256	0.000567	5.674265	1.922493	0.000227
 371	3.6815e+01	14.7236	-14.071437	0.000496	4.964982	1.682181	0.000199
 372	3.6914e+01	14.7622	-13.865543	0.000517	5.167634	1.750842	0.000207
 373	3.7014e+01	14.8039	-13.635426	0.000578	5.775591	1.956823	0.000231
 374	3.7114e+01	14.8488	-13.401272	0.000588	5.876917	1.991154	0.000235
 375	3.7213e+01	14.8841	-13.203452	0.000496	4.964982	1.682181	0.000199
 376	3.7313e+01	14.9370	-13.013707	0.000476	4.762330	1.613521	0.000191
 377	3.7412e+01	14.9611	-12.775516	0.000598	5.978244	2.025484	0.000239
 378	3.7511e+01	15.0044	-12.529251	0.000618	6.180896	2.094144	0.000248
 379	3.7611e+01	15.0381	-12.319320	0.000527	5.268960	1.785172	0.000211
 380	3.7711e+01	15.0894	-12.101314	0.000547	5.471613	1.853833	0.000219
 381	3.7810e+01	15.1295	-11.863123	0.000598	5.978244	2.025484	0.000239
 382	3.7910e+01	15.1680	-11.612821	0.000628	6.282222	2.128474	0.000252
 383	3.8009e+01	15.2033	-11.398853	0.000537	5.370287	1.819502	0.000215
 384	3.8108e+01	15.2498	-11.209107	0.000476	4.762330	1.613521	0.000191
 385	3.8208e+01	15.2883	-11.019362	0.000476	4.762330	1.613521	0.000191
 386	3.8307e+01	15.3188	-10.732725	0.000719	7.194158	2.437447	0.000288
 387	3.8407e+01	15.3637	-10.542980	0.000476	4.762330	1.613521	0.000191
 388	3.8507e+01	15.4054	-10.280566	0.000659	6.586201	2.231465	0.000264
 389	3.8606e+01	15.4407	-10.094858	0.000466	4.661003	1.579191	0.000187
 390	3.8706e+01	15.4760	-9.848593	0.000618	6.180896	2.094144	0.000248
 391	3.8805e+01	15.5258	-9.606364	0.000608	6.079570	2.059814	0.000243
 392	3.8904e+01	15.5691	-9.347988	0.000648	6.484874	2.197135	0.000260
 393	3.9004e+01	15.5964	-9.117871	0.000578	5.775591	1.956823	0.000231
 394	3.9103e+01	15.6413	-8.875643	0.000608	6.079570	2.059814	0.000243
 395	3.9203e+01	15.6846	-8.633415	0.000608	6.079570	2.059814	0.000243
 396	3.9303e+01	15.7247	-8.423484	0.000527	5.268960	1.785172	0.000211
 397	3.9402e+01	15.7616	-8.177218	0.000618	6.180896	2.094144	0.000248
 398	3.9502e+01	15.8065	-7.955176	0.000557	5.572939	1.888163	0.000223
 399	3.9601e+01	15.8370	-7.696799	0.000648	6.484874	2.197135	0.000260
 400	3.9700e+01	15.8819	-7.426311	0.000679	6.788853	2.300126	0.000272
 401	3.9800e+01	15.9188	-7.139675	0.000719	7.194158	2.437447	0.000288
 402	3.9900e+01	15.9605	-6.909558	0.000578	5.775591	1.956823	0.000231
 403	3.9999e+01	16.0022	-6.699627	0.000527	5.268960	1.785172	0.000211
 404	4.0099e+01	16.0471	-6.368582	0.000831	8.308745	2.815079	0.000333
 405	4.0198e+01	16.0808	-6.073871	0.000740	7.396810	2.506107	0.000296
 406	4.0297e+01	16.1161	-5.843754	0.000578	5.775591	1.956823	0.000231
 407	4.0397e+01	16.1562	-5.561154	0.000709	7.092831	2.403116	0.000284
 408	4.0496e+01	16.2011	-5.302778	0.000648	6.484874	2.197135	0.000260
 409	4.0596e+01	16.2380	-5.020178	0.000709	7.092831	2.403116	0.000284
 410	4.0696e+01	16.2878	-4.749690	0.000679	6.788853	2.300126	0.000272
 411	4.0795e+01	16.3150	-4.499388	0.000628	6.282222	2.128474	0.000252
 412	4.0895e+01	16.3519	-4.188528	0.000780	7.802115	2.643428	0.000312
 413	4.0994e+01	16.4097	-3.909966	0.000699	6.991505	2.368786	0.000280
 414	4.1093e+01	16.4450	-3.607181	0.000760	7.599462	2.574767	0.000304
 415	4.1193e+01	16.4787	-3.324581	0.000709	7.092831	2.403116	0.000284
 416	4.1292e+01	16.5268	-3.005648	0.000800	8.004767	2.712088	0.000321
 417	4.1392e+01	16.5589	-2.731122	0.000689	6.890179	2.334456	0.000276
 418	4.1492e+01	16.6022	-2.436411	0.000740	7.396810	2.506107	0.000296
 419	4.1591e+01	16.6359	-2.129589	0.000770	7.700788	2.609098	0.000308
 420	4.1691e+01	16.6760	-1.810655	0.000800	8.004767	2.712088	0.000321
 421	4.1790e+01	16.7129	-1.524019	0.000719	7.194158	2.437447	0.000288
 422	4.1889e+01	16.7594	-1.213159	0.000780	7.802115	2.643428	0.000312
 423	4.1989e+01	16.8027	-0.870003	0.000861	8.612724	2.918070	0.000345
 424	4.2089e+01	16.8444	-0.579329	0.000730	7.295484	2.471777	0.000292
 425	4.2188e+01	16.8765	-0.284618	0.000740	7.396810	2.506107	0.000296
 426	4.2288e+01	16.9198	0.046427	0.000831	8.308745	2.815079	0.000333
 427	4.2387e+01	16.9632	0.349212	0.000760	7.599462	2.574767	0.000304
 428	4.2486e+01	17.0049	0.660072	0.000780	7.802115	2.643428	0.000312
 429	4.2586e+01	17.0402	0.958820	0.000750	7.498136	2.540437	0.000300
 430	4.2685e+01	17.0771	1.265642	0.000770	7.700788	2.609098	0.000308
 431	4.2785e+01	17.1188	1.628984	0.000912	9.119355	3.089721	0.000365
 432	4.2885e+01	17.1573	1.955992	0.000821	8.207419	2.780749	0.000329
 433	4.2984e+01	17.2038	2.291075	0.000841	8.410071	2.849409	0.000337
 434	4.3084e+01	17.2375	2.601934	0.000780	7.802115	2.643428	0.000312
 435	4.3183e+01	17.2792	2.961239	0.000902	9.018028	3.055391	0.000361
 436	4.3282e+01	17.3193	3.332656	0.000932	9.322007	3.158381	0.000373
 437	4.3382e+01	17.3498	3.671775	0.000851	8.511398	2.883740	0.000341
 438	4.3481e+01	17.4075	4.018969	0.000871	8.714050	2.952400	0.000349
 439	4.3581e+01	17.4460	4.333865	0.000790	7.903441	2.677758	0.000316
 440	4.3681e+01	17.4813	4.713356	0.000952	9.524659	3.227042	0.000381
 441	4.3780e+01	17.5182	5.068624	0.000892	8.916702	3.021061	0.000357
 442	4.3880e+01	17.5615	5.452152	0.000963	9.625985	3.261372	0.000385
 443	4.3979e+01	17.5968	5.795308	0.000861	8.612724	2.918070	0.000345
 444	4.4078e+01	17.6353	6.166725	0.000932	9.322007	3.158381	0.000373
 445	4.4178e+01	17.6770	6.562364	0.000993	9.929964	3.364363	0.000398
 446	4.4278e+01	17.7139	6.937818	0.000942	9.423333	3.192712	0.000377
 447	4.4377e+01	17.7524	7.325383	0.000973	9.727312	3.295702	0.000390
 448	4.4477e+01	17.7958	7.672576	0.000871	8.714050	2.952400	0.000349
 449	4.4576e+01	17.8455	8.116661	0.001115	11.145878	3.776326	0.000446
 450	4.4675e+01	17.8728	8.492115	0.000942	9.423333	3.192712	0.000377
 451	4.4775e+01	17.9145	8.932163	0.001104	11.044552	3.741995	0.000442
 452	4.4874e+01	17.9530	9.343951	0.001034	10.335269	3.501684	0.000414
 453	4.4974e+01	17.9915	9.783998	0.001104	11.044552	3.741995	0.000442
 454	4.5074e+01	18.0412	10.215972	0.001084	10.841899	3.673335	0.000434
 455	4.5173e+01	18.0749	10.607574	0.000983	9.828638	3.330033	0.000394
 456	4.5273e+01	18.1038	11.051659	0.001115	11.145878	3.776326	0.000446
 457	4.5372e+01	18.1551	11.503818	0.001135	11.348530	3.844986	0.000454
 458	4.5471e+01	18.1920	11.947903	0.001115	11.145878	3.776326	0.000446
 459	4.5571e+01	18.2353	12.383914	0.001094	10.943226	3.707665	0.000438
 460	4.5670e+01	18.2674	12.823962	0.001104	11.044552	3.741995	0.000442
 461	4.5770e+01	18.3171	13.268047	0.001115	11.145878	3.776326	0.000446
 462	4.5870e+01	18.3588	13.740391	0.001186	11.855161	4.016637	0.000475
 463	4.5969e+01	18.3989	14.164291	0.001064	10.639247	3.604674	0.000426
 464	4.6069e+01	18.4391	14.640673	0.001196	11.956487	4.050968	0.000479
 465	4.6168e+01	18.4663	15.072646	0.001084	10.841899	3.673335	0.000434
 466	4.6267e+01	18.5193	15.577288	0.001267	12.665770	4.291279	0.000507
 467	4.6367e+01	18.5513	16.001187	0.001064	10.639247	3.604674	0.000426
 468	4.6467e+01	18.5963	16.473532	0.001186	11.855161	4.016637	0.000475
 469	4.6566e+01	18.6284	16.913580	0.001104	11.044552	3.741995	0.000442
 470	4.6666e+01	18.6652	17.406111	0.001236	12.361792	4.188288	0.000495
 471	4.6765e+01	18.7198	17.846159	0.001104	11.044552	3.741995	0.000442
 472	4.6864e+01	18.7551	18.370986	0.001317	13.172401	4.462930	0.000527
 473	4.6964e+01	18.7872	18.851405	0.001206	12.057813	4.085298	0.000483
 474	4.7063e+01	18.8193	19.347973	0.001246	12.463118	4.222619	0.000499
 475	4.7163e+01	18.8706	19.852615	0.001267	12.665770	4.291279	0.000507
 476	4.7263e+01	18.9091	20.349183	0.001246	12.463118	4.222619	0.000499
 477	4.7362e+01	18.9492	20.845750	0.001246	12.463118	4.222619	0.000499
 478	4.7462e+01	18.9893	21.346355	0.001256	12.564444	4.256949	0.000503
 479	4.7561e+01	19.0294	21.850997	0.001267	12.665770	4.291279	0.000507
 480	4.7660e+01	19.0759	22.367751	0.001297	12.969749	4.394270	0.000519
 481	4.7760e+01	19.1176	22.876430	0.001277	12.767096	4.325609	0.000511
 482	4.7859e+01	19.1401	23.425480	0.001378	13.780358	4.668912	0.000552
 483	4.7959e+01	19.1834	23.873602	0.001125	11.247204	3.810656	0.000450
 484	4.8059e+01	19.2331	24.418616	0.001368	13.679032	4.634581	0.000548
 485	4.8158e+01	19.2733	24.907109	0.001226	12.260466	4.153958	0.000491
 486	4.8258e+01	19.3150	25.431937	0.001317	13.172401	4.462930	0.000527
 487	4.8357e+01	19.3438	25.989061	0.001398	13.983010	4.737572	0.000560
 488	4.8456e+01	19.3839	26.534075	0.001368	13.679032	4.634581	0.000548
 489	4.8556e+01	19.4289	27.050828	0.001297	12.969749	4.394270	0.000519
 490	4.8656e+01	19.4658	27.595841	0.001368	13.679032	4.634581	0.000548
 491	4.8755e+01	19.5043	28.136818	0.001358	13.577706	4.600251	0.000544
 492	4.8855e+01	19.5524	28.706054	0.001429	14.286989	4.840563	0.000572
 493	4.8954e+01	19.5957	29.259141	0.001388	13.881684	4.703242	0.000556
 494	4.9053e+01	19.6230	29.775895	0.001297	12.969749	4.394270	0.000519
 495	4.9153e+01	19.6711	30.385502	0.001530	15.300251	5.183865	0.000613
 496	4.9252e+01	19.7016	30.942627	0.001398	13.983010	4.737572	0.000560
 497	4.9352e+01	19.7481	31.491677	0.001378	13.780358	4.668912	0.000552
 498	4.9452e+01	19.7850	32.129545	0.001601	16.009534	5.424177	0.000641
 499	4.9551e+01	19.8283	32.727041	0.001500	14.996272	5.080875	0.000600
 500	4.9651e+01	19.8668	33.268017	0.001358	13.577706	4.600251	0.000544
 501	4.9750e+01	19.9069	33.889736	0.001560	15.604229	5.286856	0.000625
 502	4.9849e+01	19.9534	34.430712	0.001358	13.577706	4.600251	0.000544
 503	4.9949e+01	19.9823	35.032245	0.001510	15.097598	5.115205	0.000605
 504	5.0048e+01	19.9534	35.431922	-0.001003	-10.031290	-3.398693	0.000402
 505	5.0148e+01	19.9085	35.835635	-0.001013	-10.132616	-3.433023	0.000406
 506	5.0248e+01	19.8636	36.247423	-0.001034	-10.335269	-3.501684	0.000414
 507	5.0347e+01	19.8267	36.630951	-0.000963	-9.625985	-3.261372	0.000385
 508	5.0447e+01	19.7898	37.038702	-0.001023	-10.233942	-3.467354	0.000410
 509	5.0546e+01	19.7529	37.381858	-0.000861	-8.612724	-2.918070	0.000345
 510	5.0645e+01	19.7064	37.745201	-0.000912	-9.119355	-3.089721	0.000365
 511	5.0745e+01	19.6679	38.177174	-0.001084	-10.841899	-3.673335	0.000434
 512	5.0844e+01	19.6214	38.540516	-0.000912	-9.119355	-3.089721	0.000365
 513	5.0944e+01	19.5893	38.915970	-0.000942	-9.423333	-3.192712	0.000377
 514	5.1044e+01	19.5428	39.295461	-0.000952	-9.524659	-3.227042	0.000381
 515	5.1143e+01	19.5139	39.699174	-0.001013	-10.132616	-3.433023	0.000406
 516	5.1242e+01	19.4658	40.070591	-0.000932	-9.322007	-3.158381	0.000373
 517	5.1342e+01	19.4305	40.450082	-0.000952	-9.524659	-3.227042	0.000381
 518	5.1441e+01	19.3855	40.813424	-0.000912	-9.119355	-3.089721	0.000365
 519	5.1541e+01	19.3454	41.136395	-0.000811	-8.106093	-2.746419	0.000325
 520	5.1641e+01	19.3102	41.527997	-0.000983	-9.828638	-3.330033	0.000394
 521	5.1740e+01	19.2604	41.891339	-0.000912	-9.119355	-3.089721	0.000365
 522	5.1840e+01	19.2203	42.270830	-0.000952	-9.524659	-3.227042	0.000381
 523	5.1939e+01	19.1930	42.642246	-0.000932	-9.322007	-3.158381	0.000373
 524	5.2038e+01	19.1513	43.017700	-0.000942	-9.423333	-3.192712	0.000377
 525	5.2138e+01	19.1144	43.433525	-0.001044	-10.436595	-3.536014	0.000418
 526	5.2237e+01	19.0727	43.792830	-0.000902	-9.018028	-3.055391	0.000361
 527	5.2337e+01	19.0262	44.220766	-0.001074	-10.740573	-3.639005	0.000430
 528	5.2437e+01	18.9925	44.576034	-0.000892	-8.916702	-3.021061	0.000357
 529	5.2536e+01	18.9460	44.975711	-0.001003	-10.031290	-3.398693	0.000402
 530	5.2636e+01	18.9171	45.335016	-0.000902	-9.018028	-3.055391	0.000361
 531	5.2735e+01	18.8770	45.702395	-0.000922	-9.220681	-3.124051	0.000369
 532	5.2834e+01	18.8385	46.077849	-0.000942	-9.423333	-3.192712	0.000377
 533	5.2934e+01	18.8032	46.437154	-0.000902	-9.018028	-3.055391	0.000361
 534	5.3033e+01	18.7583	46.788385	-0.000882	-8.815376	-2.986730	0.000353
 535	5.3133e+01	18.7150	47.175950	-0.000973	-9.727312	-3.295702	0.000390
 536	5.3233e+01	18.6669	47.527180	-0.000882	-8.815376	-2.986730	0.000353
 537	5.3332e+01	18.6219	47.890523	-0.000912	-9.119355	-3.089721	0.000365
 538	5.3431e+01	18.5866	48.249828	-0.000902	-9.018028	-3.055391	0.000361
 539	5.3531e+01	18.5546	48.649504	-0.001003	-10.031290	-3.398693	0.000402
 540	5.3630e+01	18.5096	48.992661	-0.000861	-8.612724	-2.918070	0.000345
 541	5.3730e+01	18.4776	49.339854	-0.000871	-8.714050	-2.952400	0.000349
 542	5.3830e+01	18.4342	49.723382	-0.000963	-9.625985	-3.261372	0.000385
 543	5.3929e+01	18.3909	50.054427	-0.000831	-8.308745	-2.815079	0.000333
 544	5.4029e+01	18.3476	50.425844	-0.000932	-9.322007	-3.158381	0.000373
 545	5.4128e+01	18.3043	50.773038	-0.000871	-8.714050	-2.952400	0.000349
 546	5.4227e+01	18.2642	51.140417	-0.000922	-9.220681	-3.124051	0.000369
 547	5.4327e+01	18.2337	51.495685	-0.000892	-8.916702	-3.021061	0.000357
 548	5.4426e+01	18.1808	51.818656	-0.000811	-8.106093	-2.746419	0.000325
 549	5.4526e+01	18.1487	52.161812	-0.000861	-8.612724	-2.918070	0.000345
 550	5.4626e+01	18.1150	52.456523	-0.000740	-7.396810	-2.506107	0.000296
 551	5.4725e+01	18.0733	52.803717	-0.000871	-8.714050	-2.952400	0.000349
 552	5.4825e+01	18.0316	53.118613	-0.000790	-7.903441	-2.677758	0.000316
 553	5.4924e+01	18.0011	53.401213	-0.000709	-7.092831	-2.403116	0.000284
 554	5.5023e+01	17.9466	53.736295	-0.000841	-8.410071	-2.849409	0.000337
 555	5.5123e+01	17.9225	54.022932	-0.000719	-7.194158	-2.437447	0.000288
 556	5.5222e+01	17.8776	54.337828	-0.000790	-7.903441	-2.677758	0.000316
 557	5.5322e+01	17.8327	54.664836	-0.000821	-8.207419	-2.780749	0.000329
 558	5.5422e+01	17.7974	54.971659	-0.000770	-7.700788	-2.609098	0.000308
 559	5.5521e+01	17.7556	55.266370	-0.000740	-7.396810	-2.506107	0.000296
 560	5.5620e+01	17.7236	55.577229	-0.000780	-7.802115	-2.643428	0.000312
 561	5.5720e+01	17.6786	55.875977	-0.000750	-7.498136	-2.540437	0.000300
 562	5.5819e+01	17.6385	56.174725	-0.000750	-7.498136	-2.540437	0.000300
 563	5.5919e+01	17.5984	56.489622	-0.000790	-7.903441	-2.677758	0.000316
 564	5.6019e+01	17.5535	56.739924	-0.000628	-6.282222	-2.128474	0.000252
 565	5.6118e+01	17.5214	57.066932	-0.000821	-8.207419	-2.780749	0.000329
 566	5.6218e+01	17.4637	57.353569	-0.000719	-7.194158	-2.437447	0.000288
 567	5.6317e+01	17.4396	57.656354	-0.000760	-7.599462	-2.574767	0.000304
 568	5.6416e+01	17.3947	57.902619	-0.000618	-6.180896	-2.094144	0.000248
 569	5.6516e+01	17.3514	58.213479	-0.000780	-7.802115	-2.643428	0.000312
 570	5.6615e+01	17.3145	58.500115	-0.000719	-7.194158	-2.437447	0.000288
 571	5.6715e+01	17.2712	58.819049	-0.000800	-8.004767	-2.712088	0.000321
 572	5.6815e+01	17.2423	59.085500	-0.000669	-6.687527	-2.265795	0.000268
 573	5.6914e+01	17.1958	59.396360	-0.000780	-7.802115	-2.643428	0.000312
 574	5.7014e+01	17.1541	59.666848	-0.000679	-6.788853	-2.300126	0.000272
 575	5.7113e+01	17.1124	59.953484	-0.000719	-7.194158	-2.437447	0.000288
 576	5.7212e+01	17.0755	60.240121	-0.000719	-7.194158	-2.437447	0.000288
 577	5.7312e+01	17.0386	60.502535	-0.000659	-6.586201	-2.231465	0.000264
 578	5.7411e+01	16.9968	60.801283	-0.000750	-7.498136	-2.540437	0.000300
 579	5.7511e+01	16.9567	61.132328	-0.000831	-8.308745	-2.815079	0.000333
 580	5.7611e+01	16.9214	61.418965	-0.000719	-7.194158	-2.437447	0.000288
 581	5.7710e+01	16.8685	61.697527	-0.000699	-6.991505	-2.368786	0.000280
 582	5.7809e+01	16.8412	61.980126	-0.000709	-7.092831	-2.403116	0.000284
 583	5.7909e+01	16.8043	62.234466	-0.000638	-6.383548	-2.162805	0.000256
 584	5.8008e+01	16.7626	62.472657	-0.000598	-5.978244	-2.025484	0.000239
 585	5.8108e+01	16.7225	62.747182	-0.000689	-6.890179	-2.334456	0.000276
 586	5.8208e+01	16.6840	62.977299	-0.000578	-5.775591	-1.956823	0.000231
 587	5.8307e+01	16.6455	63.280084	-0.000760	-7.599462	-2.574767	0.000304
 588	5.8407e+01	16.5990	63.550572	-0.000679	-6.788853	-2.300126	0.000272
 589	5.8506e+01	16.5541	63.788763	-0.000598	-5.978244	-2.025484	0.000239
 590	5.8605e+01	16.5236	64.067326	-0.000699	-6.991505	-2.368786	0.000280
 591	5.8705e+01	16.4803	64.297442	-0.000578	-5.775591	-1.956823	0.000231
 592	5.8804e+01	16.4322	64.592153	-0.000740	-7.396810	-2.506107	0.000296
 593	5.8904e+01	16.3985	64.810159	-0.000547	-5.471613	-1.853833	0.000219
 594	5.9004e+01	16.3552	65.092758	-0.000709	-7.092831	-2.403116	0.000284
 595	5.9103e+01	16.3150	65.339023	-0.000618	-6.180896	-2.094144	0.000248
 596	5.9203e+01	16.2733	65.573177	-0.000588	-5.876917	-1.991154	0.000235
 597	5.9302e+01	16.2316	65.803294	-0.000578	-5.775591	-1.956823	0.000231
 598	5.9401e+01	16.2092	66.089931	-0.000719	-7.194158	-2.437447	0.000288
 599	5.9501e+01	16.1578	66.344270	-0.000638	-6.383548	-2.162805	0.000256
 600	5.9600e+01	16.1225	66.590535	-0.000618	-6.180896	-2.094144	0.000248
 601	5.9700e+01	16.0872	66.824689	-0.000588	-5.876917	-1.991154	0.000235
 602	5.9800e+01	16.0487	67.127474	-0.000760	-7.599462	-2.574767	0.000304
 603	5.9899e+01	16.0038	67.418148	-0.000730	-7.295484	-2.471777	0.000292
 604	5.9998e+01	15.9621	67.672488	-0.000638	-6.383548	-2.162805	0.000256
 605	6.0098e+01	15.9140	67.914716	-0.000608	-6.079570	-2.059814	0.000243
 606	6.0197e+01	15.8819	68.185204	-0.000679	-6.788853	-2.300126	0.000272
 607	6.0297e+01	15.8450	68.391098	-0.000517	-5.167634	-1.750842	0.000207
 608	6.0397e+01	15.8081	68.665623	-0.000689	-6.890179	-2.334456	0.000276
 609	6.0496e+01	15.7616	68.911888	-0.000618	-6.180896	-2.094144	0.000248
 610	6.0596e+01	15.7183	69.170265	-0.000648	-6.484874	-2.197135	0.000260
 611	6.0695e+01	15.6766	69.412493	-0.000608	-6.079570	-2.059814	0.000243
 612	6.0794e+01	15.6413	69.666833	-0.000638	-6.383548	-2.162805	0.000256
 613	6.0894e+01	15.6028	69.921172	-0.000638	-6.383548	-2.162805	0.000256
 614	6.0993e+01	15.5627	70.147252	-0.000567	-5.674265	-1.922493	0.000227
 615	6.1093e+01	15.5210	70.389480	-0.000608	-6.079570	-2.059814	0.000243
 616	6.1193e+01	15.4873	70.623634	-0.000588	-5.876917	-1.991154	0.000235
 617	6.1292e+01	15.4504	70.877974	-0.000638	-6.383548	-2.162805	0.000256
 618	6.1392e+01	15.4054	71.087905	-0.000527	-5.268960	-1.785172	0.000211
 619	6.1491e+01	15.3686	71.346281	-0.000648	-6.484874	-2.197135	0.000260
 620	6.1590e+01	15.3188	71.544101	-0.000496	-4.964982	-1.682181	0.000199
 621	6.1690e+01	15.2835	71.754032	-0.000527	-5.268960	-1.785172	0.000211
 622	6.1789e+01	15.2530	71.984149	-0.000578	-5.775591	-1.956823	0.000231
 623	6.1889e+01	15.2049	72.190043	-0.000517	-5.167634	-1.750842	0.000207
 624	6.1989e+01	15.1680	72.448419	-0.000648	-6.484874	-2.197135	0.000260
 625	6.2088e+01	15.1247	72.622016	-0.000436	-4.357025	-1.476200	0.000174
 626	6.2188e+01	15.0830	72.844059	-0.000557	-5.572939	-1.888163	0.000223
 627	6.2287e+01	15.0493	73.062064	-0.000547	-5.471613	-1.853833	0.000219
 628	6.2386e+01	15.0108	73.235661	-0.000436	-4.357025	-1.476200	0.000174
 629	6.2486e+01	14.9579	73.453666	-0.000547	-5.471613	-1.853833	0.000219
 630	6.2586e+01	14.9178	73.671672	-0.000547	-5.471613	-1.853833	0.000219
 631	6.2685e+01	14.8841	73.861417	-0.000476	-4.762330	-1.613521	0.000191
 632	6.2785e+01	14.8424	74.051162	-0.000476	-4.762330	-1.613521	0.000191
 633	6.2884e+01	14.8023	74.236871	-0.000466	-4.661003	-1.579191	0.000187
 634	6.2983e+01	14.7622	74.434690	-0.000496	-4.964982	-1.682181	0.000199
 635	6.3083e+01	14.7220	74.620398	-0.000466	-4.661003	-1.579191	0.000187
 636	6.3182e+01	14.6868	74.842441	-0.000557	-5.572939	-1.888163	0.000223
 637	6.3282e+01	14.6482	74.979703	-0.000345	-3.445090	-1.167228	0.000138
 638	6.3382e+01	14.6017	75.205783	-0.000567	-5.674265	-1.922493	0.000227
 639	6.3481e+01	14.5696	75.387454	-0.000456	-4.559677	-1.544860	0.000183
 640	6.3581e+01	14.5279	75.496457	-0.000274	-2.735806	-0.926916	0.000110
 641	6.3680e+01	14.4910	75.738685	-0.000608	-6.079570	-2.059814	0.000243
 642	6.3779e+01	14.4541	75.896133	-0.000395	-3.951720	-1.338879	0.000158
 643	6.3879e+01	14.4124	76.041470	-0.000365	-3.647742	-1.235888	0.000146
 644	6.3978e+01	14.3755	76.211030	-0.000426	-4.255699	-1.441870	0.000170
 645	6.4078e+01	14.3322	76.352330	-0.000355	-3.546416	-1.201558	0.000142
 646	6.4177e+01	14.2857	76.542075	-0.000476	-4.762330	-1.613521	0.000191
 647	6.4277e+01	14.2536	76.699523	-0.000395	-3.951720	-1.338879	0.000158
 648	6.4376e+01	14.2071	76.820637	-0.000304	-3.039785	-1.029907	0.000122
 649	6.4476e+01	14.1750	77.018457	-0.000496	-4.964982	-1.682181	0.000199
 650	6.4576e+01	14.1253	77.155720	-0.000345	-3.445090	-1.167228	0.000138
 651	6.4675e+01	14.0996	77.276834	-0.000304	-3.039785	-1.029907	0.000122
 652	6.4775e+01	14.0611	77.438319	-0.000405	-4.053047	-1.373209	0.000162
 653	6.4874e+01	14.0066	77.595767	-0.000395	-3.951720	-1.338879	0.000158
 654	6.4974e+01	13.9681	77.712844	-0.000294	-2.938459	-0.995577	0.000118
 655	6.5073e+01	13.9263	77.858181	-0.000365	-3.647742	-1.235888	0.000146
 656	6.5172e+01	13.8927	78.031778	-0.000436	-4.357025	-1.476200	0.000174
 657	6.5272e+01	13.8509	78.160966	-0.000324	-3.242437	-1.098567	0.000130
 658	6.5371e+01	13.8076	78.269969	-0.000274	-2.735806	-0.926916	0.000110
 659	6.5471e+01	13.7675	78.415306	-0.000365	-3.647742	-1.235888	0.000146
 660	6.5570e+01	13.7290	78.568717	-0.000385	-3.850394	-1.304549	0.000154
 661	6.5670e+01	13.6953	78.685794	-0.000294	-2.938459	-0.995577	0.000118
 662	6.5769e+01	13.6488	78.766537	-0.000203	-2.026523	-0.686605	0.000081
 663	6.5869e+01	13.6087	78.911874	-0.000365	-3.647742	-1.235888	0.000146
 664	6.5969e+01	13.5686	79.045099	-0.000334	-3.343763	-1.132898	0.000134
 665	6.6068e+01	13.5301	79.186399	-0.000355	-3.546416	-1.201558	0.000142
 666	6.6168e+01	13.4980	79.291364	-0.000263	-2.634480	-0.892586	0.000105
 667	6.6267e+01	13.4499	79.404404	-0.000284	-2.837133	-0.961247	0.000114
 668	6.6367e+01	13.4050	79.521481	-0.000294	-2.938459	-0.995577	0.000118
 669	6.6466e+01	13.3697	79.678929	-0.000395	-3.951720	-1.338879	0.000158
 670	6.6566e+01	13.3264	79.800044	-0.000304	-3.039785	-1.029907	0.000122
 671	6.6665e+01	13.3023	79.909046	-0.000274	-2.735806	-0.926916	0.000110
 672	6.6764e+01	13.2478	80.014012	-0.000263	-2.634480	-0.892586	0.000105
 673	6.6864e+01	13.2109	80.106866	-0.000233	-2.330502	-0.789595	0.000093
 674	6.6963e+01	13.1643	80.256240	-0.000375	-3.749068	-1.270219	0.000150
 675	6.7063e+01	13.1355	80.381391	-0.000314	-3.141111	-1.064237	0.000126
 676	6.7162e+01	13.0954	80.478282	-0.000243	-2.431828	-0.823926	0.000097
 677	6.7262e+01	13.0520	80.587285	-0.000274	-2.735806	-0.926916	0.000110
 678	6.7362e+01	13.0119	80.704362	-0.000294	-2.938459	-0.995577	0.000118
 679	6.7461e+01	12.9734	80.797216	-0.000233	-2.330502	-0.789595	0.000093
 680	6.7561e+01	12.9494	80.898144	-0.000253	-2.533154	-0.858256	0.000101
 681	6.7660e+01	12.8884	80.999073	-0.000253	-2.533154	-0.858256	0.000101
 682	6.7760e+01	12.8515	81.156521	-0.000395	-3.951720	-1.338879	0.000158
 683	6.7859e+01	12.8210	81.229190	-0.000182	-1.823871	-0.617944	0.000073
 684	6.7959e+01	12.7825	81.354341	-0.000314	-3.141111	-1.064237	0.000126
 685	6.8058e+01	12.7312	81.455269	-0.000253	-2.533154	-0.858256	0.000101
 686	6.8157e+01	12.6895	81.576383	-0.000304	-3.039785	-1.029907	0.000122
 687	6.8257e+01	12.6510	81.620792	-0.000111	-1.114588	-0.377633	0.000045
 688	6.8356e+01	12.6173	81.729794	-0.000274	-2.735806	-0.926916	0.000110
 689	6.8456e+01	12.5724	81.850909	-0.000304	-3.039785	-1.029907	0.000122
 690	6.8555e+01	12.5451	81.927614	-0.000193	-1.925197	-0.652274	0.000077
 691	6.8655e+01	12.4970	82.032580	-0.000263	-2.634480	-0.892586	0.000105
 692	6.8754e+01	12.4601	82.153694	-0.000304	-3.039785	-1.029907	0.000122
 693	6.8854e+01	12.4248	82.226362	-0.000182	-1.823871	-0.617944	0.000073
 694	6.8954e+01	12.3815	82.347476	-0.000304	-3.039785	-1.029907	0.000122
 695	6.9053e+01	12.3366	82.444367	-0.000243	-2.431828	-0.823926	0.000097
 696	6.9153e+01	12.2884	82.521073	-0.000193	-1.925197	-0.652274	0.000077
 697	6.9252e+01	12.2612	82.622001	-0.000253	-2.533154	-0.858256	0.000101
 698	6.9352e+01	12.2210	82.775413	-0.000385	-3.850394	-1.304549	0.000154
 699	6.9451e+01	12.1729	82.860192	-0.000213	-2.127849	-0.720935	0.000085
 700	6.9550e+01	12.1344	82.989381	-0.000324	-3.242437	-1.098567	0.000130
 701	6.9650e+01	12.1023	83.094346	-0.000263	-2.634480	-0.892586	0.000105
 702	6.9749e+01	12.0638	83.179126	-0.000213	-2.127849	-0.720935	0.000085
 703	6.9849e+01	12.0141	83.284092	-0.000263	-2.634480	-0.892586	0.000105
 704	6.9948e+01	11.9740	83.409243	-0.000314	-3.141111	-1.064237	0.000126
 705	7.0048e+01	11.9339	83.494023	-0.000213	-2.127849	-0.720935	0.000085
 706	7.0147e+01	11.8986	83.598988	-0.000263	-2.634480	-0.892586	0.000105
 707	7.0247e+01	11.8633	83.671657	-0.000182	-1.823871	-0.617944	0.000073
 708	7.0347e+01	11.8232	83.772585	-0.000253	-2.533154	-0.858256	0.000101
 709	7.0446e+01	11.7783	83.869476	-0.000243	-2.431828	-0.823926	0.000097
 710	7.0546e+01	11.7398	83.962331	-0.000233	-2.330502	-0.789595	0.000093
 711	7.0645e+01	11.7029	84.014813	-0.000132	-1.317240	-0.446293	0.000053
 712	7.0745e+01	11.6580	84.176299	-0.000405	-4.053047	-1.373209	0.000162
 713	7.0844e+01	11.6179	84.220707	-0.000111	-1.114588	-0.377633	0.000045
 714	7.0944e+01	11.5858	84.305487	-0.000213	-2.127849	-0.720935	0.000085
 715	7.1043e+01	11.5376	84.394304	-0.000223	-2.229176	-0.755265	0.000089
 716	7.1142e+01	11.5007	84.483121	-0.000223	-2.229176	-0.755265	0.000089
 717	7.1242e+01	11.4558	84.584049	-0.000253	-2.533154	-0.858256	0.000101
 718	7.1341e+01	11.4189	84.640569	-0.000142	-1.418566	-0.480623	0.000057
 719	7.1441e+01	11.3836	84.721312	-0.000203	-2.026523	-0.686605	0.000081
 720	7.1540e+01	11.3355	84.818203	-0.000243	-2.431828	-0.823926	0.000097
 721	7.1640e+01	11.3066	84.882797	-0.000162	-1.621219	-0.549284	0.000065
 722	7.1740e+01	11.2601	84.967577	-0.000213	-2.127849	-0.720935	0.000085
 723	7.1839e+01	11.2184	85.040246	-0.000182	-1.823871	-0.617944	0.000073
 724	7.1939e+01	11.1863	85.096766	-0.000142	-1.418566	-0.480623	0.000057
 725	7.2038e+01	11.1478	85.185583	-0.000223	-2.229176	-0.755265	0.000089
 726	7.2138e+01	11.1077	85.250177	-0.000162	-1.621219	-0.549284	0.000065
 727	7.2237e+01	11.0548	85.347068	-0.000243	-2.431828	-0.823926	0.000097
 728	7.2337e+01	11.0243	85.375328	-0.000071	-0.709283	-0.240312	0.000028
 729	7.2436e+01	10.9794	85.443959	-0.000172	-1.722545	-0.583614	0.000069
 730	7.2535e+01	10.9345	85.532776	-0.000223	-2.229176	-0.755265	0.000089
 731	7.2635e+01	10.9040	85.552962	-0.000051	-0.506631	-0.171651	0.000020
 732	7.2734e+01	10.8623	85.649853	-0.000243	-2.431828	-0.823926	0.000097
 733	7.2834e+01	10.8222	85.690225	-0.000101	-1.013262	-0.343302	0.000041
 734	7.2933e+01	10.7837	85.770967	-0.000203	-2.026523	-0.686605	0.000081
 735	7.3033e+01	10.7419	85.827487	-0.000142	-1.418566	-0.480623	0.000057
 736	7.3132e+01	10.7131	85.847673	-0.000051	-0.506631	-0.171651	0.000020
 737	7.3232e+01	10.6617	85.936490	-0.000223	-2.229176	-0.755265	0.000089
 738	7.3332e+01	10.6184	85.964750	-0.000071	-0.709283	-0.240312	0.000028
 739	7.3431e+01	10.5847	86.005121	-0.000101	-1.013262	-0.343302	0.000041
 740	7.3531e+01	10.5430	86.045493	-0.000101	-1.013262	-0.343302	0.000041
 741	7.3630e+01	10.5029	86.081827	-0.000091	-0.911935	-0.308972	0.000037
 742	7.3730e+01	10.4692	86.174681	-0.000233	-2.330502	-0.789595	0.000093
 743	7.3829e+01	10.4275	86.206978	-0.000081	-0.810609	-0.274642	0.000032
 744	7.3928e+01	10.3858	86.251386	-0.000111	-1.114588	-0.377633	0.000045
 745	7.4028e+01	10.3441	86.263498	-0.000030	-0.303978	-0.102991	0.000012
 746	7.4127e+01	10.3104	86.307906	-0.000111	-1.114588	-0.377633	0.000045
 747	7.4227e+01	10.2639	86.348278	-0.000101	-1.013262	-0.343302	0.000041
 748	7.4326e+01	10.2286	86.388649	-0.000101	-1.013262	-0.343302	0.000041
 749	7.4426e+01	10.1789	86.433058	-0.000111	-1.114588	-0.377633	0.000045
 750	7.4525e+01	10.1404	86.469392	-0.000091	-0.911935	-0.308972	0.000037
 751	7.4625e+01	10.1002	86.473429	-0.000010	-0.101326	-0.034330	0.000004
 752	7.4725e+01	10.0634	86.493615	-0.000051	-0.506631	-0.171651	0.000020
 753	7.4824e+01	10.0152	86.574357	-0.000203	-2.026523	-0.686605	0.000081
 754	7.4924e+01	9.9831	86.566283	0.000020	0.202652	0.068660	-0.000008
 755	7.5023e+01	9.9382	86.598580	-0.000081	-0.810609	-0.274642	0.000032
 756	7.5123e+01	9.9045	86.614729	-0.000041	-0.405305	-0.137321	0.000016
 757	7.5222e+01	9.8708	86.663174	-0.000122	-1.215914	-0.411963	0.000049
 758	7.5322e+01	9.8259	86.634914	0.000071	0.709283	0.240312	-0.000028
 759	7.5421e+01	9.7938	86.647026	-0.000030	-0.303978	-0.102991	0.000012
 760	7.5520e+01	9.7441	86.655100	-0.000020	-0.202652	-0.068660	0.000008
 761	7.5620e+01	9.7152	86.699509	-0.000111	-1.114588	-0.377633	0.000045
 762	7.5719e+01	9.6607	86.747954	-0.000122	-1.215914	-0.411963	0.000049
 763	7.5819e+01	9.6286	86.723731	0.000061	0.607957	0.205981	-0.000024
 764	7.5918e+01	9.5821	86.719694	0.000010	0.101326	0.034330	-0.000004
 765	7.6018e+01	9.5516	86.751991	-0.000081	-0.810609	-0.274642	0.000032
 766	7.6118e+01	9.5083	86.743917	0.000020	0.202652	0.068660	-0.000008
 767	7.6217e+01	9.4698	86.784288	-0.000101	-1.013262	-0.343302	0.000041
 768	7.6317e+01	9.4313	86.727768	0.000142	1.418566	0.480623	-0.000057
 769	7.6416e+01	9.3896	86.776214	-0.000122	-1.215914	-0.411963	0.000049
 770	7.6516e+01	9.3543	86.747954	0.000071	0.709283	0.240312	-0.000028
 771	7.6615e+01	9.3094	86.719694	0.000071	0.709283	0.240312	-0.000028
 772	7.6715e+01	9.2628	86.711620	0.000020	0.202652	0.068660	-0.000008
 773	7.6814e+01	9.2308	86.735843	-0.000061	-0.607957	-0.205981	0.000024
 774	7.6913e+01	9.1874	86.751991	-0.000041	-0.405305	-0.137321	0.000016
 775	7.7013e+01	9.1489	86.739880	0.000030	0.303978	0.102991	-0.000012
 776	7.7112e+01	9.1072	86.683360	0.000142	1.418566	0.480623	-0.000057
 777	7.7212e+01	9.0784	86.719694	-0.000091	-0.911935	-0.308972	0.000037
 778	7.7311e+01	9.0254	86.695471	0.000061	0.607957	0.205981	-0.000024
 779	7.7411e+01	8.9965	86.691434	0.000010	0.101326	0.034330	-0.000004
 780	7.7510e+01	8.9420	86.711620	-0.000051	-0.506631	-0.171651	0.000020
 781	7.7610e+01	8.9067	86.679323	0.000081	0.810609	0.274642	-0.000032
 782	7.7710e+01	8.8698	86.659137	0.000051	0.506631	0.171651	-0.000020
 783	7.7809e+01	8.8249	86.671249	-0.000030	-0.303978	-0.102991	0.000012
 784	7.7909e+01	8.7928	86.586469	0.000213	2.127849	0.720935	-0.000085
 785	7.8008e+01	8.7479	86.622803	-0.000091	-0.911935	-0.308972	0.000037
 786	7.8108e+01	8.7158	86.610692	0.000030	0.303978	0.102991	-0.000012
 787	7.8207e+01	8.6725	86.586469	0.000061	0.607957	0.205981	-0.000024
 788	7.8306e+01	8.6308	86.550135	0.000091	0.911935	0.308972	-0.000037
 789	7.8406e+01	8.5907	86.542060	0.000020	0.202652	0.068660	-0.000008
 790	7.8505e+01	8.5570	86.509763	0.000081	0.810609	0.274642	-0.000032
 791	7.8605e+01	8.5089	86.473429	0.000091	0.911935	0.308972	-0.000037
 792	7.8704e+01	8.4671	86.445169	0.000071	0.709283	0.240312	-0.000028
 793	7.8804e+01	8.4351	86.408835	0.000091	0.911935	0.308972	-0.000037
 794	7.8903e+01	8.3966	86.388649	0.000051	0.506631	0.171651	-0.000020
 795	7.9003e+01	8.3500	86.376538	0.000030	0.303978	0.102991	-0.000012
 796	7.9103e+01	8.3131	86.344241	0.000081	0.810609	0.274642	-0.000032
 797	7.9202e+01	8.2634	86.315981	0.000071	0.709283	0.240312	-0.000028
 798	7.9302e+01	8.2281	86.235238	0.000203	2.026523	0.686605	-0.000081
 799	7.9401e+01	8.1832	86.215052	0.000051	0.506631	0.171651	-0.000020
 800	7.9501e+01	8.1511	86.206978	0.000020	0.202652	0.068660	-0.000008
 801	7.9600e+01	8.1094	86.162569	0.000111	1.114588	0.377633	-0.000045
 802	7.9700e+01	8.0709	86.126235	0.000091	0.911935	0.308972	-0.000037
 803	7.9799e+01	8.0340	86.085864	0.000101	1.013262	0.343302	-0.000041
 804	7.9898e+01	7.9971	86.025307	0.000152	1.519892	0.514953	-0.000061
 805	7.9998e+01	7.9538	85.997047	0.000071	0.709283	0.240312	-0.000028
 806	8.0097e+01	7.9057	85.940527	0.000142	1.418566	0.480623	-0.000057
 807	8.0197e+01	7.8784	85.900156	0.000101	1.013262	0.343302	-0.000041
 808	8.0296e+01	7.8415	85.863821	0.000091	0.911935	0.308972	-0.000037
 809	8.0396e+01	7.7966	85.795190	0.000172	1.722545	0.583614	-0.000069
 810	8.0496e+01	7.7500	85.734633	0.000152	1.519892	0.514953	-0.000061
 811	8.0595e+01	7.7196	85.710410	0.000061	0.607957	0.205981	-0.000024
 812	8.0695e+01	7.6698	85.633705	0.000193	1.925197	0.652274	-0.000077
 813	8.0794e+01	7.6297	85.605445	0.000071	0.709283	0.240312	-0.000028
 814	8.0894e+01	7.6073	85.548925	0.000142	1.418566	0.480623	-0.000057
 815	8.0993e+01	7.5607	85.484331	0.000162	1.621219	0.549284	-0.000065
 816	8.1093e+01	7.5094	85.447996	0.000091	0.911935	0.308972	-0.000037
 817	8.1192e+01	7.4677	85.363217	0.000213	2.127849	0.720935	-0.000085
 818	8.1291e+01	7.4388	85.347068	0.000041	0.405305	0.137321	-0.000016
 819	8.1391e+01	7.3971	85.262288	0.000213	2.127849	0.720935	-0.000085
 820	8.1490e+01	7.3554	85.193657	0.000172	1.722545	0.583614	-0.000069
 821	8.1590e+01	7.3105	85.153286	0.000101	1.013262	0.343302	-0.000041
 822	8.1689e+01	7.2784	85.076580	0.000193	1.925197	0.652274	-0.000077
 823	8.1789e+01	7.2447	85.024097	0.000132	1.317240	0.446293	-0.000053
 824	8.1888e+01	7.1902	84.955466	0.000172	1.722545	0.583614	-0.000069
 825	8.1988e+01	7.1453	84.874723	0.000203	2.026523	0.686605	-0.000081
 826	8.2088e+01	7.1003	84.810129	0.000162	1.621219	0.549284	-0.000065
 827	8.2187e+01	7.0747	84.721312	0.000223	2.229176	0.755265	-0.000089
 828	8.2287e+01	7.0378	84.652681	0.000172	1.722545	0.583614	-0.000069
 829	8.2386e+01	7.0041	84.584049	0.000172	1.722545	0.583614	-0.000069
 830	8.2486e+01	6.9576	84.519455	0.000162	1.621219	0.549284	-0.000065
 831	8.2585e+01	6.9175	84.438713	0.000203	2.026523	0.686605	-0.000081
 832	8.2684e+01	6.8757	84.362007	0.000193	1.925197	0.652274	-0.000077
 833	8.2784e+01	6.8437	84.293376	0.000172	1.722545	0.583614	-0.000069
 834	8.2883e+01	6.7939	84.228781	0.000162	1.621219	0.549284	-0.000065
 835	8.2983e+01	6.7538	84.099593	0.000324	3.242437	1.098567	-0.000130
 836	8.3082e+01	6.7089	84.063259	0.000091	0.911935	0.308972	-0.000037
 837	8.3182e+01	6.6768	83.970405	0.000233	2.330502	0.789595	-0.000093
 838	8.3281e+01	6.6431	83.913885	0.000142	1.418566	0.480623	-0.000057
 839	8.3381e+01	6.5982	83.829105	0.000213	2.127849	0.720935	-0.000085
 840	8.3481e+01	6.5485	83.740288	0.000223	2.229176	0.755265	-0.000089
 841	8.3580e+01	6.5212	83.675694	0.000162	1.621219	0.549284	-0.000065
 842	8.3680e+01	6.4827	83.586877	0.000223	2.229176	0.755265	-0.000089
 843	8.3779e+01	6.4490	83.485948	0.000253	2.533154	0.858256	-0.000101
 844	8.3879e+01	6.4025	83.417317	0.000172	1.722545	0.583614	-0.000069
 845	8.3978e+01	6.3624	83.344649	0.000182	1.823871	0.617944	-0.000073
 846	8.4078e+01	6.3239	83.211423	0.000334	3.343763	1.132898	-0.000134
 847	8.4177e+01	6.2758	83.134718	0.000193	1.925197	0.652274	-0.000077
 848	8.4276e+01	6.2405	83.074161	0.000152	1.519892	0.514953	-0.000061
 849	8.4376e+01	6.1955	82.965158	0.000274	2.735806	0.926916	-0.000110
 850	8.4475e+01	6.1603	82.864230	0.000253	2.533154	0.858256	-0.000101
 851	8.4575e+01	6.1153	82.775413	0.000223	2.229176	0.755265	-0.000089
 852	8.4674e+01	6.0833	82.690633	0.000213	2.127849	0.720935	-0.000085
 853	8.4774e+01	6.0431	82.581630	0.000274	2.735806	0.926916	-0.000110
 854	8.4874e+01	6.0062	82.456479	0.000314	3.141111	1.064237	-0.000126
 855	8.4973e+01	5.9742	82.363625	0.000233	2.330502	0.789595	-0.000093
 856	8.5073e+01	5.9148	82.254622	0.000274	2.735806	0.926916	-0.000110
 857	8.5172e+01	5.8779	82.177917	0.000193	1.925197	0.652274	-0.000077
 858	8.5272e+01	5.8410	82.060840	0.000294	2.938459	0.995577	-0.000118
 859	8.5371e+01	5.8009	81.931651	0.000324	3.242437	1.098567	-0.000130
 860	8.5471e+01	5.7608	81.838797	0.000233	2.330502	0.789595	-0.000093
 861	8.5570e+01	5.7191	81.754017	0.000213	2.127849	0.720935	-0.000085
 862	8.5669e+01	5.6758	81.580420	0.000436	4.357025	1.476200	-0.000174
 863	8.5769e+01	5.6389	81.515826	0.000162	1.621219	0.549284	-0.000065
 864	8.5868e+01	5.5988	81.398749	0.000294	2.938459	0.995577	-0.000118
 865	8.5968e+01	5.5603	81.257450	0.000355	3.546416	1.201558	-0.000142
 866	8.6067e+01	5.5202	81.152484	0.000263	2.634480	0.892586	-0.000105
 867	8.6167e+01	5.4865	81.039444	0.000284	2.837133	0.961247	-0.000114
 868	8.6266e+01	5.4400	80.930442	0.000274	2.735806	0.926916	-0.000110
 869	8.6366e+01	5.4015	80.801253	0.000324	3.242437	1.098567	-0.000130
 870	8.6466e+01	5.3613	80.659953	0.000355	3.546416	1.201558	-0.000142
 871	8.6565e+01	5.3277	80.534802	0.000314	3.141111	1.064237	-0.000126
 872	8.6665e+01	5.2843	80.425800	0.000274	2.735806	0.926916	-0.000110
 873	8.6764e+01	5.2442	80.300648	0.000314	3.141111	1.064237	-0.000126
 874	8.6864e+01	5.2025	80.199720	0.000253	2.533154	0.858256	-0.000101
 875	8.6963e+01	5.1672	80.082643	0.000294	2.938459	0.995577	-0.000118
 876	8.7063e+01	5.1351	79.941343	0.000355	3.546416	1.201558	-0.000142
 877	8.7162e+01	5.0838	79.804081	0.000345	3.445090	1.167228	-0.000138
 878	8.7261e+01	5.0469	79.678929	0.000314	3.141111	1.064237	-0.000126
 879	8.7361e+01	4.9956	79.553778	0.000314	3.141111	1.064237	-0.000126
 880	8.7460e+01	4.9587	79.444776	0.000274	2.735806	0.926916	-0.000110
 881	8.7560e+01	4.9138	79.279253	0.000415	4.154373	1.407540	-0.000166
 882	8.7659e+01	4.8865	79.178325	0.000253	2.533154	0.858256	-0.000101
 883	8.7759e+01	4.8448	79.041062	0.000345	3.445090	1.167228	-0.000138
 884	8.7859e+01	4.8079	78.915911	0.000314	3.141111	1.064237	-0.000126
 885	8.7958e+01	4.7678	78.782685	0.000334	3.343763	1.132898	-0.000134
 886	8.8058e+01	4.7341	78.625237	0.000395	3.951720	1.338879	-0.000158
 887	8.8157e+01	4.6828	78.504123	0.000304	3.039785	1.029907	-0.000122
 888	8.8257e+01	4.6426	78.378972	0.000314	3.141111	1.064237	-0.000126
 889	8.8356e+01	4.6041	78.229598	0.000375	3.749068	1.270219	-0.000150
 890	8.8456e+01	4.5737	78.047927	0.000456	4.559677	1.544860	-0.000183
 891	8.8555e+01	4.5223	77.951035	0.000243	2.431828	0.823926	-0.000097
 892	8.8654e+01	4.4886	77.805699	0.000365	3.647742	1.235888	-0.000146
 893	8.8754e+01	4.4421	77.652287	0.000385	3.850394	1.304549	-0.000154
 894	8.8853e+01	4.4052	77.482728	0.000426	4.255699	1.441870	-0.000170
 895	8.8953e+01	4.3699	77.329316	0.000385	3.850394	1.304549	-0.000154
 896	8.9052e+01	4.3282	77.236462	0.000233	2.330502	0.789595	-0.000093
 897	8.9152e+01	4.2881	77.062866	0.000436	4.357025	1.476200	-0.000174
 898	8.9251e+01	4.2512	76.905417	0.000395	3.951720	1.338879	-0.000158
 899	8.9351e+01	4.2143	76.776229	0.000324	3.242437	1.098567	-0.000130
 900	8.9451e+01	4.1678	76.602632	0.000436	4.357025	1.476200	-0.000174
 901	8.9550e+01	4.1229	76.469407	0.000334	3.343763	1.132898	-0.000134
 902	8.9650e+01	4.0876	76.299847	0.000426	4.255699	1.441870	-0.000170
 903	8.9749e+01	4.0475	76.138361	0.000405	4.053047	1.373209	-0.000162
 904	8.9849e+01	4.0106	76.005136	0.000334	3.343763	1.132898	-0.000134
 905	8.9948e+01	3.9592	75.819428	0.000466	4.661003	1.579191	-0.000187
 906	9.0047e+01	3.9288	75.686202	0.000334	3.343763	1.132898	-0.000134
 907	9.0147e+01	3.8919	75.512605	0.000436	4.357025	1.476200	-0.000174
 908	9.0246e+01	3.8373	75.367269	0.000365	3.647742	1.235888	-0.000146
 909	9.0346e+01	3.8020	75.209820	0.000395	3.951720	1.338879	-0.000158
 910	9.0445e+01	3.7716	75.048335	0.000405	4.053047	1.373209	-0.000162
 911	9.0545e+01	3.7330	74.874738	0.000436	4.357025	1.476200	-0.000174
 912	9.0644e+01	3.6849	74.725364	0.000375	3.749068	1.270219	-0.000150
 913	9.0744e+01	3.6496	74.592138	0.000334	3.343763	1.132898	-0.000134
 914	9.0844e+01	3.6127	74.382207	0.000527	5.268960	1.785172	-0.000211
 915	9.0943e+01	3.5598	74.216685	0.000415	4.154373	1.407540	-0.000166
 916	9.1043e+01	3.5325	74.030977	0.000466	4.661003	1.579191	-0.000187
 917	9.1142e+01	3.4876	73.865454	0.000415	4.154373	1.407540	-0.000166
 918	9.1242e+01	3.4459	73.720117	0.000365	3.647742	1.235888	-0.000146
 919	9.1341e+01	3.4138	73.550557	0.000426	4.255699	1.441870	-0.000170
 920	9.1441e+01	3.3705	73.356775	0.000486	4.863656	1.647851	-0.000195
 921	9.1540e+01	3.3288	73.199327	0.000395	3.951720	1.338879	-0.000158
 922	9.1639e+01	3.2919	73.037841	0.000405	4.053047	1.373209	-0.000162
 923	9.1739e+01	3.2566	72.864244	0.000436	4.357025	1.476200	-0.000174
 924	9.1838e+01	3.2149	72.710833	0.000385	3.850394	1.304549	-0.000154
 925	9.1938e+01	3.1668	72.500902	0.000527	5.268960	1.785172	-0.000211
 926	9.2037e+01	3.1234	72.343454	0.000395	3.951720	1.338879	-0.000158
 927	9.2137e+01	3.0898	72.157746	0.000466	4.661003	1.579191	-0.000187
 928	9.2237e+01	3.0448	71.976075	0.000456	4.559677	1.544860	-0.000183
 929	9.2336e+01	3.0079	71.806515	0.000426	4.255699	1.441870	-0.000170
 930	9.2436e+01	2.9710	71.628881	0.000446	4.458351	1.510530	-0.000179
 931	9.2535e+01	2.9309	71.439135	0.000476	4.762330	1.613521	-0.000191
 932	9.2635e+01	2.8924	71.245353	0.000486	4.863656	1.647851	-0.000195
 933	9.2734e+01	2.8555	71.087905	0.000395	3.951720	1.338879	-0.000158
 934	9.2834e+01	2.8090	70.906234	0.000456	4.559677	1.544860	-0.000183
 935	9.2933e+01	2.7705	70.696302	0.000527	5.268960	1.785172	-0.000211
 936	9.3032e+01	2.7272	70.563077	0.000334	3.343763	1.132898	-0.000134
 937	9.3132e+01	2.6935	70.369294	0.000486	4.863656	1.647851	-0.000195
 938	9.3231e+01	2.6582	70.123029	0.000618	6.180896	2.094144	-0.000248
 939	9.3331e+01	2.6213	69.989804	0.000334	3.343763	1.132898	-0.000134
 940	9.3430e+01	2.5716	69.779873	0.000527	5.268960	1.785172	-0.000211
 941	9.3530e+01	2.5267	69.573979	0.000517	5.167634	1.750842	-0.000207
 942	9.3629e+01	2.4962	69.384233	0.000476	4.762330	1.613521	-0.000191
 943	9.3729e+01	2.4513	69.194488	0.000476	4.762330	1.613521	-0.000191
 944	9.3829e+01	2.4192	69.012817	0.000456	4.559677	1.544860	-0.000183
 945	9.3928e+01	2.3839	68.855369	0.000395	3.951720	1.338879	-0.000158
 946	9.4028e+01	2.3422	68.633326	0.000557	5.572939	1.888163	-0.000223
 947	9.4127e+01	2.2973	68.427432	0.000517	5.167634	1.750842	-0.000207
 948	9.4227e+01	2.2572	68.241724	0.000466	4.661003	1.579191	-0.000187
 949	9.4326e+01	2.2106	68.060053	0.000456	4.559677	1.544860	-0.000183
 950	9.4425e+01	2.1802	67.833973	0.000567	5.674265	1.922493	-0.000227
 951	9.4525e+01	2.1272	67.656339	0.000446	4.458351	1.510530	-0.000179
 952	9.4624e+01	2.0935	67.486780	0.000426	4.255699	1.441870	-0.000170
 953	9.4724e+01	2.0582	67.288960	0.000496	4.964982	1.682181	-0.000199
 954	9.4823e+01	2.0165	67.087103	0.000507	5.066308	1.716512	-0.000203
 955	9.4923e+01	1.9828	66.889283	0.000496	4.964982	1.682181	-0.000199
 956	9.5022e+01	1.9427	66.667241	0.000557	5.572939	1.888163	-0.000223
 957	9.5122e+01	1.8946	66.489607	0.000446	4.458351	1.510530	-0.000179
 958	9.5222e+01	1.8561	66.255453	0.000588	5.876917	1.991154	-0.000235
 959	9.5321e+01	1.8192	66.073782	0.000456	4.559677	1.544860	-0.000183
 960	9.5421e+01	1.7791	65.867888	0.000517	5.167634	1.750842	-0.000207
 961	9.5520e+01	1.7374	65.670068	0.000496	4.964982	1.682181	-0.000199
 962	9.5620e+01	1.6989	65.460137	0.000527	5.268960	1.785172	-0.000211
 963	9.5719e+01	1.6620	65.282503	0.000446	4.458351	1.510530	-0.000179
 964	9.5819e+01	1.6155	65.048350	0.000588	5.876917	1.991154	-0.000235
 965	9.5918e+01	1.5738	64.846493	0.000507	5.066308	1.716512	-0.000203
 966	9.6017e+01	1.5320	64.612339	0.000588	5.876917	1.991154	-0.000235
 967	9.6117e+01	1.4871	64.402408	0.000527	5.268960	1.785172	-0.000211
 968	9.6216e+01	1.4582	64.244960	0.000395	3.951720	1.338879	-0.000158
 969	9.6316e+01	1.4197	64.006769	0.000598	5.978244	2.025484	-0.000239
 970	9.6415e+01	1.3684	63.825097	0.000456	4.559677	1.544860	-0.000183
 971	9.6515e+01	1.3395	63.566721	0.000648	6.484874	2.197135	-0.000260
 972	9.6615e+01	1.3010	63.368901	0.000496	4.964982	1.682181	-0.000199
 973	9.6714e+01	1.2529	63.163007	0.000517	5.167634	1.750842	-0.000207
 974	9.6814e+01	1.2256	62.928853	0.000588	5.876917	1.991154	-0.000235
 975	9.6913e+01	1.1823	62.743145	0.000466	4.661003	1.579191	-0.000187
 976	9.7013e+01	1.1438	62.541288	0.000507	5.066308	1.716512	-0.000203
 977	9.7112e+01	1.1037	62.335394	0.000517	5.167634	1.750842	-0.000207
 978	9.7212e+01	1.0604	62.117389	0.000547	5.471613	1.853833	-0.000219
 979	9.7311e+01	1.0123	61.891309	0.000567	5.674265	1.922493	-0.000227
 980	9.7410e+01	0.9834	61.697527	0.000486	4.863656	1.647851	-0.000195
 981	9.7510e+01	0.9385	61.459336	0.000598	5.978244	2.025484	-0.000239
 982	9.7609e+01	0.8968	61.261516	0.000496	4.964982	1.682181	-0.000199
 983	9.7709e+01	0.8535	61.023325	0.000598	5.978244	2.025484	-0.000239
 984	9.7808e+01	0.8117	60.813394	0.000527	5.268960	1.785172	-0.000211
 985	9.7908e+01	0.7781	60.591352	0.000557	5.572939	1.888163	-0.000223
 986	9.8007e+01	0.7283	60.385458	0.000517	5.167634	1.750842	-0.000207
 987	9.8107e+01	0.6930	60.175527	0.000527	5.268960	1.785172	-0.000211
 988	9.8207e+01	0.6529	59.949447	0.000567	5.674265	1.922493	-0.000227
 989	9.8306e+01	0.6208	59.723368	0.000567	5.674265	1.922493	-0.000227
 990	9.8406e+01	0.5839	59.533622	0.000476	4.762330	1.613521	-0.000191
 991	9.8505e+01	0.5438	59.323691	0.000527	5.268960	1.785172	-0.000211
 992	9.8605e+01	0.4941	59.089537	0.000588	5.876917	1.991154	-0.000235
 993	9.8704e+01	0.4588	58.883643	0.000517	5.167634	1.750842	-0.000207
 994	9.8803e+01	0.4171	58.649489	0.000588	5.876917	1.991154	-0.000235
 995	9.8903e+01	0.3802	58.447633	0.000507	5.066308	1.716512	-0.000203
 996	9.9002e+01	0.3449	58.213479	0.000588	5.876917	1.991154	-0.000235
 997	9.9102e+01	0.2968	57.967213	0.000618	6.180896	2.094144	-0.000248
 998	9.9201e+01	0.2599	57.749208	0.000547	5.471613	1.853833	-0.000219
 999	9.9301e+01	0.2294	57.563500	0.000466	4.661003	1.579191	-0.000187
1000	9.9400e+01	0.1797	57.333383	0.000578	5.775591	1.956823	-0.000231
1001	9.9500e+01	0.1396	57.131526	0.000507	5.066308	1.716512	-0.000203
1002	9.9600e+01	0.0963	56.893335	0.000598	5.978244	2.025484	-0.000239
1003	9.9699e+01	0.0578	56.655144	0.000598	5.978244	2.025484	-0.000239
1004	9.9799e+01	0.0193	56.445213	0.000527	5.268960	1.785172	-0.000211
1005	9.9898e+01	-0.0064	56.239319	0.000517	5.167634	1.750842	-0.000207
1006	9.9998e+01	-0.0610	55.989017	0.000628	6.282222	2.128474	-0.000252
1007	1.0010e+02	-0.0882	55.811383	0.000446	4.458351	1.510530	-0.000179
1008	1.0020e+02	-0.1283	55.605489	0.000517	5.167634	1.750842	-0.000207
1009	1.0030e+02	-0.1765	55.379409	0.000567	5.674265	1.922493	-0.000227
1010	1.0040e+02	-0.2037	55.116996	0.000659	6.586201	2.231465	-0.000264
1011	1.0050e+02	-0.2454	54.919176	0.000496	4.964982	1.682181	-0.000199
1012	1.0059e+02	-0.2920	54.689059	0.000578	5.775591	1.956823	-0.000231
1013	1.0069e+02	-0.3337	54.487202	0.000507	5.066308	1.716512	-0.000203
1014	1.0079e+02	-0.3674	54.261123	0.000567	5.674265	1.922493	-0.000227
1015	1.0089e+02	-0.4155	54.026969	0.000588	5.876917	1.991154	-0.000235
1016	1.0099e+02	-0.4524	53.784741	0.000608	6.079570	2.059814	-0.000243
1017	1.0109e+02	-0.4845	53.570773	0.000537	5.370287	1.819502	-0.000215
1018	1.0119e+02	-0.5198	53.344693	0.000567	5.674265	1.922493	-0.000227
1019	1.0129e+02	-0.5615	53.122651	0.000557	5.572939	1.888163	-0.000223
1020	1.0139e+02	-0.6096	52.908682	0.000537	5.370287	1.819502	-0.000215
1021	1.0149e+02	-0.6513	52.694714	0.000537	5.370287	1.819502	-0.000215
1022	1.0159e+02	-0.6882	52.408078	0.000719	7.194158	2.437447	-0.000288
1023	1.0169e+02	-0.7235	52.250629	0.000395	3.951720	1.338879	-0.000158
1024	1.0179e+02	-0.7668	51.984178	0.000669	6.687527	2.265795	-0.000268
1025	1.0189e+02	-0.7957	51.758099	0.000567	5.674265	1.922493	-0.000227
1026	1.0199e+02	-0.8535	51.515871	0.000608	6.079570	2.059814	-0.000243
1027	1.0209e+02	-0.8839	51.322088	0.000486	4.863656	1.647851	-0.000195
1028	1.0219e+02	-0.9337	51.071786	0.000628	6.282222	2.128474	-0.000252
1029	1.0229e+02	-0.9609	50.837632	0.000588	5.876917	1.991154	-0.000235
1030	1.0239e+02	-1.0091	50.607515	0.000578	5.775591	1.956823	-0.000231
1031	1.0248e+02	-1.0508	50.381435	0.000567	5.674265	1.922493	-0.000227
1032	1.0258e+02	-1.0893	50.171504	0.000527	5.268960	1.785172	-0.000211
1033	1.0268e+02	-1.1214	49.941388	0.000578	5.775591	1.956823	-0.000231
1034	1.0278e+02	-1.1759	49.699160	0.000608	6.079570	2.059814	-0.000243
1035	1.0288e+02	-1.2144	49.452894	0.000618	6.180896	2.094144	-0.000248
1036	1.0298e+02	-1.2481	49.267186	0.000466	4.661003	1.579191	-0.000187
1037	1.0308e+02	-1.2802	49.041106	0.000567	5.674265	1.922493	-0.000227
1038	1.0318e+02	-1.3267	48.802915	0.000598	5.978244	2.025484	-0.000239
1039	1.0328e+02	-1.3556	48.568761	0.000588	5.876917	1.991154	-0.000235
1040	1.0338e+02	-1.4053	48.330570	0.000598	5.978244	2.025484	-0.000239
1041	1.0348e+02	-1.4422	48.080268	0.000628	6.282222	2.128474	-0.000252
1042	1.0358e+02	-1.4823	47.858226	0.000557	5.572939	1.888163	-0.000223
1043	1.0368e+02	-1.5240	47.607923	0.000628	6.282222	2.128474	-0.000252
1044	1.0378e+02	-1.5609	47.414141	0.000486	4.863656	1.647851	-0.000195
1045	1.0388e+02	-1.6058	47.192098	0.000557	5.572939	1.888163	-0.000223
1046	1.0398e+02	-1.6459	46.982167	0.000527	5.268960	1.785172	-0.000211
1047	1.0408e+02	-1.6877	46.768199	0.000537	5.370287	1.819502	-0.000215
1048	1.0418e+02	-1.7181	46.562305	0.000517	5.167634	1.750842	-0.000207
1049	1.0428e+02	-1.7614	46.303928	0.000648	6.484874	2.197135	-0.000260
1050	1.0438e+02	-1.8016	46.089960	0.000537	5.370287	1.819502	-0.000215
1051	1.0447e+02	-1.8385	45.880029	0.000527	5.268960	1.785172	-0.000211
1052	1.0457e+02	-1.8850	45.625690	0.000638	6.383548	2.162805	-0.000256
1053	1.0467e+02	-1.9267	45.399610	0.000567	5.674265	1.922493	-0.000227
1054	1.0477e+02	-1.9652	45.177567	0.000557	5.572939	1.888163	-0.000223
1055	1.0487e+02	-2.0005	44.975711	0.000507	5.066308	1.716512	-0.000203
1056	1.0497e+02	-2.0358	44.721371	0.000638	6.383548	2.162805	-0.000256
1057	1.0507e+02	-2.0871	44.467032	0.000638	6.383548	2.162805	-0.000256
1058	1.0517e+02	-2.1176	44.313620	0.000385	3.850394	1.304549	-0.000154
1059	1.0527e+02	-2.1625	44.047169	0.000669	6.687527	2.265795	-0.000268
1060	1.0537e+02	-2.1994	43.800904	0.000618	6.180896	2.094144	-0.000248
1061	1.0547e+02	-2.2331	43.603085	0.000496	4.964982	1.682181	-0.000199
1062	1.0557e+02	-2.2828	43.381042	0.000557	5.572939	1.888163	-0.000223
1063	1.0567e+02	-2.3229	43.183222	0.000496	4.964982	1.682181	-0.000199
1064	1.0577e+02	-2.3614	42.949069	0.000588	5.876917	1.991154	-0.000235
1065	1.0587e+02	-2.4063	42.727026	0.000557	5.572939	1.888163	-0.000223
1066	1.0597e+02	-2.4368	42.492872	0.000588	5.876917	1.991154	-0.000235
1067	1.0607e+02	-2.4785	42.295053	0.000496	4.964982	1.682181	-0.000199
1068	1.0617e+02	-2.5331	42.068973	0.000567	5.674265	1.922493	-0.000227
1069	1.0627e+02	-2.5507	41.830782	0.000598	5.978244	2.025484	-0.000239
1070	1.0637e+02	-2.5956	41.624888	0.000517	5.167634	1.750842	-0.000207
1071	1.0647e+02	-2.6406	41.402846	0.000557	5.572939	1.888163	-0.000223
1072	1.0656e+02	-2.6807	41.176766	0.000567	5.674265	1.922493	-0.000227
1073	1.0666e+02	-2.7176	40.954723	0.000557	5.572939	1.888163	-0.000223
1074	1.0676e+02	-2.7641	40.736718	0.000547	5.471613	1.853833	-0.000219
1075	1.0686e+02	-2.7946	40.514676	0.000557	5.572939	1.888163	-0.000223
1076	1.0696e+02	-2.8427	40.296670	0.000547	5.471613	1.853833	-0.000219
1077	1.0706e+02	-2.8860	40.066554	0.000578	5.775591	1.956823	-0.000231
1078	1.0716e+02	-2.9309	39.872771	0.000486	4.863656	1.647851	-0.000195
1079	1.0726e+02	-2.9566	39.610357	0.000659	6.586201	2.231465	-0.000264
1080	1.0736e+02	-2.9967	39.436760	0.000436	4.357025	1.476200	-0.000174
1081	1.0746e+02	-3.0416	39.186458	0.000628	6.282222	2.128474	-0.000252
1082	1.0756e+02	-3.0833	39.016898	0.000426	4.255699	1.441870	-0.000170
1083	1.0766e+02	-3.1202	38.766596	0.000628	6.282222	2.128474	-0.000252
1084	1.0776e+02	-3.1571	38.548591	0.000547	5.471613	1.853833	-0.000219
1085	1.0786e+02	-3.2053	38.342697	0.000517	5.167634	1.750842	-0.000207
1086	1.0796e+02	-3.2373	38.136803	0.000517	5.167634	1.750842	-0.000207
1087	1.0806e+02	-3.2807	37.918797	0.000547	5.471613	1.853833	-0.000219
1088	1.0816e+02	-3.3143	37.708866	0.000527	5.268960	1.785172	-0.000211
1089	1.0826e+02	-3.3577	37.490861	0.000547	5.471613	1.853833	-0.000219
1090	1.0836e+02	-3.4010	37.260744	0.000578	5.775591	1.956823	-0.000231
1091	1.0845e+02	-3.4347	37.058888	0.000507	5.066308	1.716512	-0.000203
1092	1.0855e+02	-3.4780	36.840882	0.000547	5.471613	1.853833	-0.000219
1093	1.0865e+02	-3.5229	36.639025	0.000507	5.066308	1.716512	-0.000203
1094	1.0875e+02	-3.5566	36.392760	0.000618	6.180896	2.094144	-0.000248
1095	1.0885e+02	-3.5999	36.203015	0.000476	4.762330	1.613521	-0.000191
1096	1.0895e+02	-3.6384	36.001158	0.000507	5.066308	1.716512	-0.000203
1097	1.0905e+02	-3.6737	35.783153	0.000547	5.471613	1.853833	-0.000219
1098	1.0915e+02	-3.7122	35.573222	0.000527	5.268960	1.785172	-0.000211
1099	1.0925e+02	-3.7571	35.347142	0.000567	5.674265	1.922493	-0.000227
1100	1.0935e+02	-3.7940	35.189694	0.000395	3.951720	1.338879	-0.000158
1101	1.0945e+02	-3.8389	34.947466	0.000608	6.079570	2.059814	-0.000243
1102	1.0955e+02	-3.8726	34.745609	0.000507	5.066308	1.716512	-0.000203
1103	1.0965e+02	-3.9175	34.519529	0.000567	5.674265	1.922493	-0.000227
1104	1.0975e+02	-3.9528	34.305561	0.000537	5.370287	1.819502	-0.000215
1105	1.0985e+02	-3.9865	34.099667	0.000517	5.167634	1.750842	-0.000207
1106	1.0995e+02	-4.0282	33.885699	0.000537	5.370287	1.819502	-0.000215
1107	1.1005e+02	-4.0748	33.691916	0.000486	4.863656	1.647851	-0.000195
1108	1.1015e+02	-4.1229	33.498134	0.000486	4.863656	1.647851	-0.000195
1109	1.1025e+02	-4.1550	33.284166	0.000537	5.370287	1.819502	-0.000215
1110	1.1035e+02	-4.2031	33.058086	0.000567	5.674265	1.922493	-0.000227
1111	1.1044e+02	-4.2416	32.876415	0.000456	4.559677	1.544860	-0.000183
1112	1.1054e+02	-4.2833	32.662447	0.000537	5.370287	1.819502	-0.000215
1113	1.1064e+02	-4.3170	32.488850	0.000436	4.357025	1.476200	-0.000174
1114	1.1074e+02	-4.3555	32.295067	0.000486	4.863656	1.647851	-0.000195
1115	1.1084e+02	-4.3940	32.052839	0.000608	6.079570	2.059814	-0.000243
1116	1.1094e+02	-4.4373	31.846945	0.000517	5.167634	1.750842	-0.000207
1117	1.1104e+02	-4.4742	31.681423	0.000415	4.154373	1.407540	-0.000166
1118	1.1114e+02	-4.5127	31.455343	0.000567	5.674265	1.922493	-0.000227
1119	1.1124e+02	-4.5448	31.245412	0.000527	5.268960	1.785172	-0.000211
1120	1.1134e+02	-4.5945	31.063741	0.000456	4.559677	1.544860	-0.000183
1121	1.1144e+02	-4.6346	30.869958	0.000486	4.863656	1.647851	-0.000195
1122	1.1154e+02	-4.6795	30.696362	0.000436	4.357025	1.476200	-0.000174
1123	1.1164e+02	-4.7277	30.490468	0.000517	5.167634	1.750842	-0.000207
1124	1.1174e+02	-4.7646	30.268425	0.000557	5.572939	1.888163	-0.000223
1125	1.1184e+02	-4.7886	30.062531	0.000517	5.167634	1.750842	-0.000207
1126	1.1194e+02	-4.8336	29.884897	0.000446	4.458351	1.510530	-0.000179
1127	1.1204e+02	-4.8640	29.670929	0.000537	5.370287	1.819502	-0.000215
1128	1.1214e+02	-4.9170	29.456961	0.000537	5.370287	1.819502	-0.000215
1129	1.1224e+02	-4.9603	29.271253	0.000466	4.661003	1.579191	-0.000187
1130	1.1234e+02	-4.9924	29.041136	0.000578	5.775591	1.956823	-0.000231
1131	1.1244e+02	-5.0373	28.879651	0.000405	4.053047	1.373209	-0.000162
1132	1.1253e+02	-5.0678	28.677794	0.000507	5.066308	1.716512	-0.000203
1133	1.1263e+02	-5.1063	28.467863	0.000527	5.268960	1.785172	-0.000211
1134	1.1273e+02	-5.1560	28.278117	0.000476	4.762330	1.613521	-0.000191
1135	1.1283e+02	-5.1881	28.088372	0.000476	4.762330	1.613521	-0.000191
1136	1.1293e+02	-5.2266	27.918812	0.000426	4.255699	1.441870	-0.000170
1137	1.1303e+02	-5.2667	27.700807	0.000547	5.471613	1.853833	-0.000219
1138	1.1313e+02	-5.3052	27.527210	0.000436	4.357025	1.476200	-0.000174
1139	1.1323e+02	-5.3501	27.305168	0.000557	5.572939	1.888163	-0.000223
1140	1.1333e+02	-5.3902	27.095237	0.000527	5.268960	1.785172	-0.000211
1141	1.1343e+02	-5.4303	26.901454	0.000486	4.863656	1.647851	-0.000195
1142	1.1353e+02	-5.4672	26.756117	0.000365	3.647742	1.235888	-0.000146
1143	1.1363e+02	-5.5105	26.554260	0.000507	5.066308	1.716512	-0.000203
1144	1.1373e+02	-5.5490	26.320106	0.000588	5.876917	1.991154	-0.000235
1145	1.1383e+02	-5.5924	26.154584	0.000415	4.154373	1.407540	-0.000166
1146	1.1393e+02	-5.6196	25.985024	0.000426	4.255699	1.441870	-0.000170
1147	1.1403e+02	-5.6629	25.742796	0.000608	6.079570	2.059814	-0.000243
1148	1.1413e+02	-5.6998	25.553051	0.000476	4.762330	1.613521	-0.000191
1149	1.1423e+02	-5.7464	25.387528	0.000415	4.154373	1.407540	-0.000166
1150	1.1433e+02	-5.7817	25.213931	0.000436	4.357025	1.476200	-0.000174
1151	1.1442e+02	-5.8218	25.004000	0.000527	5.268960	1.785172	-0.000211
1152	1.1452e+02	-5.8683	24.842515	0.000405	4.053047	1.373209	-0.000162
1153	1.1462e+02	-5.9084	24.656807	0.000466	4.661003	1.579191	-0.000187
1154	1.1472e+02	-5.9485	24.458987	0.000496	4.964982	1.682181	-0.000199
1155	1.1482e+02	-5.9998	24.249056	0.000527	5.268960	1.785172	-0.000211
1156	1.1492e+02	-6.0383	24.071422	0.000446	4.458351	1.510530	-0.000179
1157	1.1502e+02	-6.0672	23.885714	0.000466	4.661003	1.579191	-0.000187
1158	1.1512e+02	-6.1153	23.695968	0.000476	4.762330	1.613521	-0.000191
1159	1.1522e+02	-6.1538	23.546594	0.000375	3.749068	1.270219	-0.000150
1160	1.1532e+02	-6.1827	23.336663	0.000527	5.268960	1.785172	-0.000211
1161	1.1542e+02	-6.2212	23.150955	0.000466	4.661003	1.579191	-0.000187
1162	1.1552e+02	-6.2726	22.961210	0.000476	4.762330	1.613521	-0.000191
1163	1.1562e+02	-6.3111	22.779538	0.000456	4.559677	1.544860	-0.000183
1164	1.1572e+02	-6.3463	22.618053	0.000405	4.053047	1.373209	-0.000162
1165	1.1582e+02	-6.3865	22.412159	0.000517	5.167634	1.750842	-0.000207
1166	1.1592e+02	-6.4314	22.226451	0.000466	4.661003	1.579191	-0.000187
1167	1.1602e+02	-6.4618	22.069003	0.000395	3.951720	1.338879	-0.000158
1168	1.1612e+02	-6.5052	21.879257	0.000476	4.762330	1.613521	-0.000191
1169	1.1622e+02	-6.5453	21.697586	0.000456	4.559677	1.544860	-0.000183
1170	1.1632e+02	-6.5790	21.523989	0.000436	4.357025	1.476200	-0.000174
1171	1.1642e+02	-6.6207	21.358467	0.000415	4.154373	1.407540	-0.000166
1172	1.1651e+02	-6.6688	21.140461	0.000547	5.471613	1.853833	-0.000219
1173	1.1661e+02	-6.7137	20.991087	0.000375	3.749068	1.270219	-0.000150
1174	1.1671e+02	-6.7394	20.809416	0.000456	4.559677	1.544860	-0.000183
1175	1.1681e+02	-6.7795	20.639856	0.000426	4.255699	1.441870	-0.000170
1176	1.1691e+02	-6.8196	20.442037	0.000496	4.964982	1.682181	-0.000199
1177	1.1701e+02	-6.8613	20.264403	0.000446	4.458351	1.510530	-0.000179
1178	1.1711e+02	-6.8966	20.082732	0.000456	4.559677	1.544860	-0.000183
1179	1.1721e+02	-6.9367	19.897023	0.000466	4.661003	1.579191	-0.000187
1180	1.1731e+02	-6.9896	19.719390	0.000446	4.458351	1.510530	-0.000179
1181	1.1741e+02	-7.0217	19.525607	0.000486	4.863656	1.647851	-0.000195
1182	1.1751e+02	-7.0570	19.356047	0.000426	4.255699	1.441870	-0.000170
1183	1.1761e+02	-7.1003	19.178413	0.000446	4.458351	1.510530	-0.000179
1184	1.1771e+02	-7.1356	19.045188	0.000334	3.343763	1.132898	-0.000134
1185	1.1781e+02	-7.1773	18.831220	0.000537	5.370287	1.819502	-0.000215
1186	1.1791e+02	-7.2174	18.685883	0.000365	3.647742	1.235888	-0.000146
1187	1.1801e+02	-7.2543	18.496137	0.000476	4.762330	1.613521	-0.000191
1188	1.1811e+02	-7.3009	18.290243	0.000517	5.167634	1.750842	-0.000207
1189	1.1821e+02	-7.3426	18.157018	0.000334	3.343763	1.132898	-0.000134
1190	1.1831e+02	-7.3763	17.967273	0.000476	4.762330	1.613521	-0.000191
1191	1.1841e+02	-7.4164	17.789639	0.000446	4.458351	1.510530	-0.000179
1192	1.1850e+02	-7.4645	17.628153	0.000405	4.053047	1.373209	-0.000162
1193	1.1860e+02	-7.4998	17.462631	0.000415	4.154373	1.407540	-0.000166
1194	1.1870e+02	-7.5479	17.272885	0.000476	4.762330	1.613521	-0.000191
1195	1.1880e+02	-7.5720	17.103326	0.000426	4.255699	1.441870	-0.000170
1196	1.1890e+02	-7.6169	16.925692	0.000446	4.458351	1.510530	-0.000179
1197	1.1900e+02	-7.6602	16.756132	0.000426	4.255699	1.441870	-0.000170
1198	1.1910e+02	-7.7019	16.554275	0.000507	5.066308	1.716512	-0.000203
1199	1.1920e+02	-7.7404	16.421050	0.000334	3.343763	1.132898	-0.000134
1200	1.1930e+02	-7.7789	16.247453	0.000436	4.357025	1.476200	-0.000174
1201	1.1940e+02	-7.8271	16.053670	0.000486	4.863656	1.647851	-0.000195
1202	1.1950e+02	-7.8591	15.884111	0.000426	4.255699	1.441870	-0.000170
1203	1.1960e+02	-7.8992	15.714551	0.000426	4.255699	1.441870	-0.000170
1204	1.1970e+02	-7.9361	15.557103	0.000395	3.951720	1.338879	-0.000158
1205	1.1980e+02	-7.9730	15.391580	0.000415	4.154373	1.407540	-0.000166
1206	1.1990e+02	-8.0164	15.217983	0.000436	4.357025	1.476200	-0.000174
1207	1.2000e+02	-8.0532	15.028238	0.000476	4.762330	1.613521	-0.000191
1208	1.2010e+02	-8.1094	14.878864	0.000375	3.749068	1.270219	-0.000150
1209	1.2020e+02	-8.1415	14.709304	0.000426	4.255699	1.441870	-0.000170
1210	1.2030e+02	-8.1752	14.535707	0.000436	4.357025	1.476200	-0.000174
1211	1.2039e+02	-8.2185	14.370185	0.000415	4.154373	1.407540	-0.000166
1212	1.2049e+02	-8.2538	14.208699	0.000405	4.053047	1.373209	-0.000162
1213	1.2059e+02	-8.2987	14.027028	0.000456	4.559677	1.544860	-0.000183
1214	1.2069e+02	-8.3436	13.873617	0.000385	3.850394	1.304549	-0.000154
1215	1.2079e+02	-8.3741	13.700020	0.000436	4.357025	1.476200	-0.000174
1216	1.2089e+02	-8.4126	13.510275	0.000476	4.762330	1.613521	-0.000191
1217	1.2099e+02	-8.4623	13.356864	0.000385	3.850394	1.304549	-0.000154
1218	1.2109e+02	-8.4960	13.207490	0.000375	3.749068	1.270219	-0.000150
1219	1.2119e+02	-8.5361	13.066190	0.000355	3.546416	1.201558	-0.000142
1220	1.2129e+02	-8.5778	12.884519	0.000456	4.559677	1.544860	-0.000183
1221	1.2139e+02	-8.6260	12.718996	0.000415	4.154373	1.407540	-0.000166
1222	1.2149e+02	-8.6596	12.573659	0.000365	3.647742	1.235888	-0.000146
1223	1.2159e+02	-8.6933	12.383914	0.000476	4.762330	1.613521	-0.000191
1224	1.2169e+02	-8.7415	12.202243	0.000456	4.559677	1.544860	-0.000183
1225	1.2179e+02	-8.7768	12.077092	0.000314	3.141111	1.064237	-0.000126
1226	1.2189e+02	-8.8185	11.935792	0.000355	3.546416	1.201558	-0.000142
1227	1.2199e+02	-8.8554	11.758158	0.000446	4.458351	1.510530	-0.000179
1228	1.2209e+02	-8.8955	11.584561	0.000436	4.357025	1.476200	-0.000174
1229	1.2219e+02	-8.9420	11.419038	0.000415	4.154373	1.407540	-0.000166
1230	1.2229e+02	-8.9773	11.285813	0.000334	3.343763	1.132898	-0.000134
1231	1.2239e+02	-9.0174	11.063770	0.000557	5.572939	1.888163	-0.000223
1232	1.2248e+02	-9.0543	10.930545	0.000334	3.343763	1.132898	-0.000134
1233	1.2258e+02	-9.0976	10.777134	0.000385	3.850394	1.304549	-0.000154
1234	1.2268e+02	-9.1313	10.627760	0.000375	3.749068	1.270219	-0.000150
1235	1.2278e+02	-9.1698	10.450126	0.000446	4.458351	1.510530	-0.000179
1236	1.2288e+02	-9.2115	10.304789	0.000365	3.647742	1.235888	-0.000146
1237	1.2298e+02	-9.2516	10.123118	0.000456	4.559677	1.544860	-0.000183
1238	1.2308e+02	-9.2901	9.953558	0.000426	4.255699	1.441870	-0.000170
1239	1.2318e+02	-9.3398	9.828407	0.000314	3.141111	1.064237	-0.000126
1240	1.2328e+02	-9.3767	9.662884	0.000415	4.154373	1.407540	-0.000166
1241	1.2338e+02	-9.4072	9.481213	0.000456	4.559677	1.544860	-0.000183
1242	1.2348e+02	-9.4473	9.323765	0.000395	3.951720	1.338879	-0.000158
1243	1.2358e+02	-9.4987	9.146131	0.000446	4.458351	1.510530	-0.000179
1244	1.2368e+02	-9.5291	9.012906	0.000334	3.343763	1.132898	-0.000134
1245	1.2378e+02	-9.5853	8.879680	0.000334	3.343763	1.132898	-0.000134
1246	1.2388e+02	-9.6222	8.702046	0.000446	4.458351	1.510530	-0.000179
1247	1.2398e+02	-9.6414	8.556709	0.000365	3.647742	1.235888	-0.000146
1248	1.2408e+02	-9.6976	8.391187	0.000415	4.154373	1.407540	-0.000166
1249	1.2418e+02	-9.7265	8.233738	0.000395	3.951720	1.338879	-0.000158
1250	1.2428e+02	-9.7778	8.056104	0.000446	4.458351	1.510530	-0.000179
1251	1.2438e+02	-9.8195	7.930953	0.000314	3.141111	1.064237	-0.000126
1252	1.2447e+02	-9.8516	7.733134	0.000496	4.964982	1.682181	-0.000199
1253	1.2457e+02	-9.8869	7.612019	0.000304	3.039785	1.029907	-0.000122
1254	1.2467e+02	-9.9286	7.450534	0.000405	4.053047	1.373209	-0.000162
1255	1.2477e+02	-9.9703	7.285011	0.000415	4.154373	1.407540	-0.000166
1256	1.2487e+02	-10.0088	7.163897	0.000304	3.039785	1.029907	-0.000122
1257	1.2497e+02	-10.0457	6.966078	0.000496	4.964982	1.682181	-0.000199
1258	1.2507e+02	-10.0890	6.836889	0.000324	3.242437	1.098567	-0.000130
1259	1.2517e+02	-10.1323	6.655218	0.000456	4.559677	1.544860	-0.000183
1260	1.2527e+02	-10.1740	6.489696	0.000415	4.154373	1.407540	-0.000166
1261	1.2537e+02	-10.2045	6.356470	0.000334	3.343763	1.132898	-0.000134
1262	1.2547e+02	-10.2494	6.182873	0.000436	4.357025	1.476200	-0.000174
1263	1.2557e+02	-10.2799	6.041574	0.000355	3.546416	1.201558	-0.000142
1264	1.2567e+02	-10.3425	5.888162	0.000385	3.850394	1.304549	-0.000154
1265	1.2577e+02	-10.3633	5.763011	0.000314	3.141111	1.064237	-0.000126
1266	1.2587e+02	-10.4099	5.601526	0.000405	4.053047	1.373209	-0.000162
1267	1.2597e+02	-10.4436	5.427929	0.000436	4.357025	1.476200	-0.000174
1268	1.2607e+02	-10.4869	5.314889	0.000284	2.837133	0.961247	-0.000114
1269	1.2617e+02	-10.5302	5.125144	0.000476	4.762330	1.613521	-0.000191
1270	1.2627e+02	-10.5671	4.955584	0.000426	4.255699	1.441870	-0.000170
1271	1.2636e+02	-10.6056	4.810247	0.000365	3.647742	1.235888	-0.000146
1272	1.2646e+02	-10.6489	4.685096	0.000314	3.141111	1.064237	-0.000126
1273	1.2656e+02	-10.6858	4.531685	0.000385	3.850394	1.304549	-0.000154
1274	1.2666e+02	-10.7259	4.378274	0.000385	3.850394	1.304549	-0.000154
1275	1.2676e+02	-10.7756	4.212751	0.000415	4.154373	1.407540	-0.000166
1276	1.2686e+02	-10.8093	4.010894	0.000507	5.066308	1.716512	-0.000203
1277	1.2696e+02	-10.8478	3.901892	0.000274	2.735806	0.926916	-0.000110
1278	1.2706e+02	-10.8911	3.748481	0.000385	3.850394	1.304549	-0.000154
1279	1.2716e+02	-10.9248	3.607181	0.000355	3.546416	1.201558	-0.000142
1280	1.2726e+02	-10.9762	3.473955	0.000334	3.343763	1.132898	-0.000134
1281	1.2736e+02	-11.0082	3.312470	0.000405	4.053047	1.373209	-0.000162
1282	1.2746e+02	-11.0548	3.142910	0.000426	4.255699	1.441870	-0.000170
1283	1.2756e+02	-11.0869	3.013722	0.000324	3.242437	1.098567	-0.000130
1284	1.2766e+02	-11.1254	2.860311	0.000385	3.850394	1.304549	-0.000154
1285	1.2776e+02	-11.1719	2.698825	0.000405	4.053047	1.373209	-0.000162
1286	1.2786e+02	-11.2104	2.573674	0.000314	3.141111	1.064237	-0.000126
1287	1.2796e+02	-11.2425	2.412189	0.000405	4.053047	1.373209	-0.000162
1288	1.2806e+02	-11.2874	2.278963	0.000334	3.343763	1.132898	-0.000134
1289	1.2816e+02	-11.3291	2.105366	0.000436	4.357025	1.476200	-0.000174
1290	1.2826e+02	-11.3708	1.960029	0.000365	3.647742	1.235888	-0.000146
1291	1.2835e+02	-11.4013	1.826804	0.000334	3.343763	1.132898	-0.000134
1292	1.2845e+02	-11.4462	1.697616	0.000324	3.242437	1.098567	-0.000130
1293	1.2855e+02	-11.4927	1.528056	0.000426	4.255699	1.441870	-0.000170
1294	1.2865e+02	-11.5232	1.366570	0.000405	4.053047	1.373209	-0.000162
1295	1.2875e+02	-11.5745	1.237382	0.000324	3.242437	1.098567	-0.000130
1296	1.2885e+02	-11.5986	1.088008	0.000375	3.749068	1.270219	-0.000150
1297	1.2895e+02	-11.6419	0.938634	0.000375	3.749068	1.270219	-0.000150
1298	1.2905e+02	-11.6852	0.789260	0.000375	3.749068	1.270219	-0.000150
1299	1.2915e+02	-11.7253	0.623737	0.000415	4.154373	1.407540	-0.000166
1300	1.2925e+02	-11.7687	0.490512	0.000334	3.343763	1.132898	-0.000134
1301	1.2935e+02	-11.8007	0.320952	0.000426	4.255699	1.441870	-0.000170
1302	1.2945e+02	-11.8424	0.195801	0.000314	3.141111	1.064237	-0.000126
1303	1.2955e+02	-11.8890	0.014130	0.000456	4.559677	1.544860	-0.000183
1304	1.2965e+02	-11.9307	-0.131207	0.000365	3.647742	1.235888	-0.000146
1305	1.2975e+02	-11.9708	-0.252321	0.000304	3.039785	1.029907	-0.000122
1306	1.2985e+02	-11.9997	-0.401695	0.000375	3.749068	1.270219	-0.000150
1307	1.2995e+02	-12.0462	-0.555106	0.000385	3.850394	1.304549	-0.000154
1308	1.3005e+02	-12.0879	-0.664109	0.000274	2.735806	0.926916	-0.000110
1309	1.3015e+02	-12.1248	-0.857891	0.000486	4.863656	1.647851	-0.000195
1310	1.3025e+02	-12.1617	-1.007265	0.000375	3.749068	1.270219	-0.000150
1311	1.3034e+02	-12.2082	-1.164714	0.000395	3.951720	1.338879	-0.000158
1312	1.3044e+02	-12.2467	-1.277753	0.000284	2.837133	0.961247	-0.000114
1313	1.3054e+02	-12.2852	-1.443276	0.000415	4.154373	1.407540	-0.000166
1314	1.3064e+02	-12.3173	-1.588613	0.000365	3.647742	1.235888	-0.000146
1315	1.3074e+02	-12.3558	-1.754135	0.000415	4.154373	1.407540	-0.000166
1316	1.3084e+02	-12.4136	-1.842952	0.000223	2.229176	0.755265	-0.000089
1317	1.3094e+02	-12.4440	-2.040772	0.000496	4.964982	1.682181	-0.000199
1318	1.3104e+02	-12.4841	-2.202258	0.000405	4.053047	1.373209	-0.000162
1319	1.3114e+02	-12.5082	-2.327409	0.000314	3.141111	1.064237	-0.000126
1320	1.3124e+02	-12.5676	-2.484857	0.000395	3.951720	1.338879	-0.000158
1321	1.3134e+02	-12.6045	-2.614045	0.000324	3.242437	1.098567	-0.000130
1322	1.3144e+02	-12.6365	-2.775531	0.000405	4.053047	1.373209	-0.000162
1323	1.3154e+02	-12.6831	-2.916831	0.000355	3.546416	1.201558	-0.000142
1324	1.3164e+02	-12.7280	-3.041982	0.000314	3.141111	1.064237	-0.000126
1325	1.3174e+02	-12.7649	-3.223653	0.000456	4.559677	1.544860	-0.000183
1326	1.3184e+02	-12.8098	-3.393213	0.000426	4.255699	1.441870	-0.000170
1327	1.3194e+02	-12.8403	-3.522401	0.000324	3.242437	1.098567	-0.000130
1328	1.3204e+02	-12.8852	-3.675812	0.000385	3.850394	1.304549	-0.000154
1329	1.3214e+02	-12.9189	-3.805000	0.000324	3.242437	1.098567	-0.000130
1330	1.3224e+02	-12.9606	-3.954374	0.000375	3.749068	1.270219	-0.000150
1331	1.3234e+02	-13.0023	-4.140083	0.000466	4.661003	1.579191	-0.000187
1332	1.3243e+02	-13.0488	-4.269271	0.000324	3.242437	1.098567	-0.000130
1333	1.3253e+02	-13.0745	-4.446905	0.000446	4.458351	1.510530	-0.000179
1334	1.3263e+02	-13.1194	-4.600316	0.000385	3.850394	1.304549	-0.000154
1335	1.3273e+02	-13.1611	-4.802173	0.000507	5.066308	1.716512	-0.000203
1336	1.3283e+02	-13.2044	-4.907138	0.000263	2.634480	0.892586	-0.000105
1337	1.3293e+02	-13.2478	-5.084772	0.000446	4.458351	1.510530	-0.000179
1338	1.3303e+02	-13.2766	-5.201849	0.000294	2.938459	0.995577	-0.000118
1339	1.3313e+02	-13.3215	-5.419855	0.000547	5.471613	1.853833	-0.000219
1340	1.3323e+02	-13.3504	-5.593452	0.000436	4.357025	1.476200	-0.000174
1341	1.3333e+02	-13.3969	-5.706491	0.000284	2.837133	0.961247	-0.000114
1342	1.3343e+02	-13.4419	-5.884125	0.000446	4.458351	1.510530	-0.000179
1343	1.3353e+02	-13.4804	-6.085982	0.000507	5.066308	1.716512	-0.000203
1344	1.3363e+02	-13.5092	-6.243430	0.000395	3.951720	1.338879	-0.000158
1345	1.3373e+02	-13.5542	-6.437213	0.000486	4.863656	1.647851	-0.000195
1346	1.3383e+02	-13.5975	-6.574476	0.000345	3.445090	1.167228	-0.000138
1347	1.3393e+02	-13.6392	-6.780369	0.000517	5.167634	1.750842	-0.000207
1348	1.3403e+02	-13.6745	-6.962041	0.000456	4.559677	1.544860	-0.000183
1349	1.3413e+02	-13.7178	-7.127563	0.000415	4.154373	1.407540	-0.000166
1350	1.3423e+02	-13.7579	-7.321346	0.000486	4.863656	1.647851	-0.000195
1351	1.3432e+02	-13.7996	-7.466683	0.000365	3.647742	1.235888	-0.000146
1352	1.3442e+02	-13.8317	-7.660465	0.000486	4.863656	1.647851	-0.000195
1353	1.3452e+02	-13.8798	-7.850210	0.000476	4.762330	1.613521	-0.000191
1354	1.3462e+02	-13.9167	-8.039956	0.000476	4.762330	1.613521	-0.000191
1355	1.3472e+02	-13.9520	-8.221627	0.000456	4.559677	1.544860	-0.000183
1356	1.3482e+02	-14.0033	-8.399261	0.000446	4.458351	1.510530	-0.000179
1357	1.3492e+02	-14.0306	-8.601118	0.000507	5.066308	1.716512	-0.000203
1358	1.3502e+02	-14.0836	-8.766640	0.000415	4.154373	1.407540	-0.000166
1359	1.3512e+02	-14.1124	-8.960423	0.000486	4.863656	1.647851	-0.000195
1360	1.3522e+02	-14.1558	-9.162280	0.000507	5.066308	1.716512	-0.000203
1361	1.3532e+02	-14.2055	-9.368173	0.000517	5.167634	1.750842	-0.000207
1362	1.3542e+02	-14.2279	-9.549845	0.000456	4.559677	1.544860	-0.000183
1363	1.3552e+02	-14.2729	-9.763813	0.000537	5.370287	1.819502	-0.000215
1364	1.3562e+02	-14.3082	-9.949521	0.000466	4.661003	1.579191	-0.000187
1365	1.3572e+02	-14.3563	-10.175601	0.000567	5.674265	1.922493	-0.000227
1366	1.3582e+02	-14.3852	-10.345160	0.000426	4.255699	1.441870	-0.000170
1367	1.3592e+02	-14.4285	-10.514720	0.000426	4.255699	1.441870	-0.000170
1368	1.3602e+02	-14.4798	-10.752911	0.000598	5.978244	2.025484	-0.000239
1369	1.3612e+02	-14.5231	-11.007251	0.000638	6.383548	2.162805	-0.000256
1370	1.3622e+02	-14.5552	-11.180847	0.000436	4.357025	1.476200	-0.000174
1371	1.3631e+02	-14.5921	-11.382704	0.000507	5.066308	1.716512	-0.000203
1372	1.3641e+02	-14.6306	-11.633007	0.000628	6.282222	2.128474	-0.000252
1373	1.3651e+02	-14.6787	-11.834863	0.000507	5.066308	1.716512	-0.000203
1374	1.3661e+02	-14.7124	-12.040757	0.000517	5.167634	1.750842	-0.000207
1375	1.3671e+02	-14.7445	-12.242614	0.000507	5.066308	1.716512	-0.000203
1376	1.3681e+02	-14.7846	-12.500991	0.000648	6.484874	2.197135	-0.000260
1377	1.3691e+02	-14.8359	-12.718996	0.000547	5.471613	1.853833	-0.000219
1378	1.3701e+02	-14.8761	-12.904704	0.000466	4.661003	1.579191	-0.000187
1379	1.3711e+02	-14.9129	-13.167118	0.000659	6.586201	2.231465	-0.000264
1380	1.3721e+02	-14.9482	-13.368975	0.000507	5.066308	1.716512	-0.000203
1381	1.3731e+02	-14.9980	-13.595055	0.000567	5.674265	1.922493	-0.000227
1382	1.3741e+02	-15.0285	-13.825171	0.000578	5.775591	1.956823	-0.000231
1383	1.3751e+02	-15.0718	-14.071437	0.000618	6.180896	2.094144	-0.000248
1384	1.3761e+02	-15.1087	-14.293479	0.000557	5.572939	1.888163	-0.000223
1385	1.3771e+02	-15.1584	-14.535707	0.000608	6.079570	2.059814	-0.000243
1386	1.3781e+02	-15.1776	-14.745638	0.000527	5.268960	1.785172	-0.000211
1387	1.3791e+02	-15.2242	-15.032275	0.000719	7.194158	2.437447	-0.000288
1388	1.3801e+02	-15.2659	-15.230095	0.000496	4.964982	1.682181	-0.000199
1389	1.3811e+02	-15.3156	-15.472323	0.000608	6.079570	2.059814	-0.000243
1390	1.3821e+02	-15.3509	-15.746848	0.000689	6.890179	2.334456	-0.000276
1391	1.3831e+02	-15.3926	-15.968890	0.000557	5.572939	1.888163	-0.000223
1392	1.3840e+02	-15.4343	-16.283787	0.000790	7.903441	2.677758	-0.000316
1393	1.3850e+02	-15.4648	-16.489681	0.000517	5.167634	1.750842	-0.000207
1394	1.3860e+02	-15.5161	-16.723835	0.000588	5.876917	1.991154	-0.000235
1395	1.3870e+02	-15.5466	-17.018546	0.000740	7.396810	2.506107	-0.000296
1396	1.3880e+02	-15.5867	-17.256737	0.000598	5.978244	2.025484	-0.000239
1397	1.3890e+02	-15.6252	-17.555485	0.000750	7.498136	2.540437	-0.000300
1398	1.3900e+02	-15.6734	-17.781564	0.000567	5.674265	1.922493	-0.000227
1399	1.3910e+02	-15.7183	-18.039941	0.000648	6.484874	2.197135	-0.000260
1400	1.3920e+02	-15.7584	-18.350800	0.000780	7.802115	2.643428	-0.000312
1401	1.3930e+02	-15.7889	-18.649549	0.000750	7.498136	2.540437	-0.000300
1402	1.3940e+02	-15.8322	-18.895814	0.000618	6.180896	2.094144	-0.000248
1403	1.3950e+02	-15.8659	-19.170339	0.000689	6.890179	2.334456	-0.000276
1404	1.3960e+02	-15.9028	-19.448901	0.000699	6.991505	2.368786	-0.000280
1405	1.3970e+02	-15.9461	-19.727464	0.000699	6.991505	2.368786	-0.000280
1406	1.3980e+02	-15.9878	-20.026212	0.000750	7.498136	2.540437	-0.000300
1407	1.3990e+02	-16.0375	-20.292663	0.000669	6.687527	2.265795	-0.000268
1408	1.4000e+02	-16.0584	-20.623708	0.000831	8.308745	2.815079	-0.000333
1409	1.4010e+02	-16.1081	-20.910345	0.000719	7.194158	2.437447	-0.000288
1410	1.4020e+02	-16.1450	-21.229278	0.000800	8.004767	2.712088	-0.000321
1411	1.4029e+02	-16.1883	-21.532063	0.000760	7.599462	2.574767	-0.000304
1412	1.4039e+02	-16.2268	-21.806589	0.000689	6.890179	2.334456	-0.000276
1413	1.4049e+02	-16.2669	-22.133597	0.000821	8.207419	2.780749	-0.000329
1414	1.4059e+02	-16.3054	-22.420233	0.000719	7.194158	2.437447	-0.000288
1415	1.4069e+02	-16.3455	-22.763390	0.000861	8.612724	2.918070	-0.000345
1416	1.4079e+02	-16.3840	-23.066175	0.000760	7.599462	2.574767	-0.000304
1417	1.4089e+02	-16.4306	-23.409332	0.000861	8.612724	2.918070	-0.000345
1418	1.4099e+02	-16.4626	-23.708080	0.000750	7.498136	2.540437	-0.000300
1419	1.4109e+02	-16.5092	-24.022976	0.000790	7.903441	2.677758	-0.000316
1420	1.4119e+02	-16.5412	-24.374207	0.000882	8.815376	2.986730	-0.000353
1421	1.4129e+02	-16.5862	-24.721401	0.000871	8.714050	2.952400	-0.000349
1422	1.4139e+02	-16.6295	-25.040334	0.000800	8.004767	2.712088	-0.000321
1423	1.4149e+02	-16.6584	-25.383491	0.000861	8.612724	2.918070	-0.000345
1424	1.4159e+02	-16.7113	-25.734722	0.000882	8.815376	2.986730	-0.000353
1425	1.4169e+02	-16.7498	-26.098064	0.000912	9.119355	3.089721	-0.000365
1426	1.4179e+02	-16.7803	-26.461406	0.000912	9.119355	3.089721	-0.000365
1427	1.4189e+02	-16.8220	-26.804563	0.000861	8.612724	2.918070	-0.000345
1428	1.4199e+02	-16.8573	-27.184053	0.000952	9.524659	3.227042	-0.000381
1429	1.4209e+02	-16.9086	-27.535284	0.000882	8.815376	2.986730	-0.000353
1430	1.4219e+02	-16.9439	-27.934961	0.001003	10.031290	3.398693	-0.000402
1431	1.4228e+02	-16.9824	-28.298303	0.000912	9.119355	3.089721	-0.000365
1432	1.4238e+02	-17.0257	-28.681831	0.000963	9.625985	3.261372	-0.000385
1433	1.4248e+02	-17.0738	-29.069396	0.000973	9.727312	3.295702	-0.000390
1434	1.4258e+02	-17.1043	-29.456961	0.000973	9.727312	3.295702	-0.000390
1435	1.4268e+02	-17.1444	-29.828377	0.000932	9.322007	3.158381	-0.000373
1436	1.4278e+02	-17.1845	-30.248240	0.001054	10.537921	3.570344	-0.000422
1437	1.4288e+02	-17.2279	-30.655990	0.001023	10.233942	3.467354	-0.000410
1438	1.4298e+02	-17.2567	-31.023370	0.000922	9.220681	3.124051	-0.000369
1439	1.4308e+02	-17.3097	-31.463417	0.001104	11.044552	3.741995	-0.000442
1440	1.4318e+02	-17.3402	-31.879242	0.001044	10.436595	3.536014	-0.000418
1441	1.4328e+02	-17.3867	-32.319290	0.001104	11.044552	3.741995	-0.000442
1442	1.4338e+02	-17.4188	-32.706855	0.000973	9.727312	3.295702	-0.000390
1443	1.4348e+02	-17.4765	-33.146903	0.001104	11.044552	3.741995	-0.000442
1444	1.4358e+02	-17.5006	-33.603099	0.001145	11.449856	3.879316	-0.000458
1445	1.4368e+02	-17.5423	-34.010850	0.001023	10.233942	3.467354	-0.000410
1446	1.4378e+02	-17.5888	-34.463009	0.001135	11.348530	3.844986	-0.000454
1447	1.4388e+02	-17.6177	-34.911131	0.001125	11.247204	3.810656	-0.000450
1448	1.4398e+02	-17.6594	-35.383476	0.001186	11.855161	4.016637	-0.000475
1449	1.4408e+02	-17.7027	-35.827561	0.001115	11.145878	3.776326	-0.000446
1450	1.4418e+02	-17.7396	-36.275683	0.001125	11.247204	3.810656	-0.000450
1451	1.4428e+02	-17.7845	-36.748028	0.001186	11.855161	4.016637	-0.000475
1452	1.4437e+02	-17.8198	-37.248633	0.001256	12.564444	4.256949	-0.000503
1453	1.4447e+02	-17.8631	-37.733089	0.001216	12.159140	4.119628	-0.000487
1454	1.4457e+02	-17.8984	-38.197360	0.001165	11.652509	3.947977	-0.000467
1455	1.4467e+02	-17.9353	-38.714113	0.001297	12.969749	4.394270	-0.000519
1456	1.4477e+02	-17.9818	-39.206644	0.001236	12.361792	4.188288	-0.000495
1457	1.4487e+02	-18.0139	-39.703211	0.001246	12.463118	4.222619	-0.000499
1458	1.4497e+02	-18.0605	-40.203816	0.001256	12.564444	4.256949	-0.000503
1459	1.4507e+02	-18.1006	-40.736718	0.001338	13.375053	4.531591	-0.000536
1460	1.4517e+02	-18.1423	-41.213100	0.001196	11.956487	4.050968	-0.000479
1461	1.4527e+02	-18.1808	-41.766188	0.001388	13.881684	4.703242	-0.000556
1462	1.4537e+02	-18.2193	-42.339461	0.001439	14.388315	4.874893	-0.000576
1463	1.4547e+02	-18.2594	-42.827954	0.001226	12.260466	4.153958	-0.000491
1464	1.4557e+02	-18.3059	-43.381042	0.001388	13.881684	4.703242	-0.000556
1465	1.4567e+02	-18.3396	-43.942204	0.001408	14.084337	4.771902	-0.000564
1466	1.4577e+02	-18.3813	-44.491254	0.001378	13.780358	4.668912	-0.000552
1467	1.4587e+02	-18.4166	-45.117010	0.001571	15.705555	5.321186	-0.000629
1468	1.4597e+02	-18.4615	-45.678172	0.001408	14.084337	4.771902	-0.000564
1469	1.4607e+02	-18.4968	-46.251446	0.001439	14.388315	4.874893	-0.000576
1470	1.4617e+02	-18.5353	-46.832793	0.001459	14.590967	4.943554	-0.000584
1471	1.4626e+02	-18.5818	-47.402029	0.001429	14.286989	4.840563	-0.000572
1472	1.4636e+02	-18.6251	-48.007600	0.001520	15.198924	5.149535	-0.000609
1473	1.4646e+02	-18.6572	-48.661616	0.001641	16.414838	5.561498	-0.000657
1474	1.4656e+02	-18.7054	-49.238926	0.001449	14.489641	4.909223	-0.000580
1475	1.4666e+02	-18.7390	-49.901016	0.001662	16.617491	5.630158	-0.000665
1476	1.4676e+02	-18.7856	-50.514661	0.001540	15.401577	5.218195	-0.000617
1477	1.4686e+02	-18.8241	-51.116194	0.001510	15.097598	5.115205	-0.000605
1478	1.4696e+02	-18.8642	-51.754062	0.001601	16.009534	5.424177	-0.000641
1479	1.4706e+02	-18.8963	-52.395966	0.001611	16.110860	5.458507	-0.000645
1480	1.4716e+02	-18.9412	-53.062094	0.001672	16.718817	5.664488	-0.000669
1481	1.4726e+02	-18.9749	-53.687850	0.001571	15.705555	5.321186	-0.000629
1482	1.4736e+02	-19.0198	-54.406460	0.001804	18.036057	6.110782	-0.000722
1483	1.4746e+02	-19.0599	-55.076624	0.001682	16.820143	5.698819	-0.000674
1484	1.4756e+02	-19.1032	-55.754863	0.001702	17.022795	5.767479	-0.000682
1485	1.4766e+02	-19.1369	-56.429065	0.001692	16.921469	5.733149	-0.000678
1486	1.4776e+02	-19.1690	-57.151712	0.001814	18.137383	6.145112	-0.000726
1487	1.4786e+02	-19.2139	-57.862248	0.001783	17.833405	6.042121	-0.000714
1488	1.4796e+02	-19.2588	-58.572784	0.001783	17.833405	6.042121	-0.000714
1489	1.4806e+02	-19.2925	-59.279283	0.001773	17.732078	6.007791	-0.000710
1490	1.4816e+02	-19.3406	-60.026153	0.001875	18.745340	6.351093	-0.000751
1491	1.4825e+02	-19.3791	-60.748800	0.001814	18.137383	6.145112	-0.000726
1492	1.4835e+02	-19.4128	-61.487596	0.001854	18.542688	6.282433	-0.000743
1493	1.4845e+02	-19.4577	-62.258689	0.001935	19.353297	6.557075	-0.000775
1494	1.4855e+02	-19.4866	-63.021707	0.001915	19.150645	6.488414	-0.000767
1495	1.4865e+02	-19.5380	-63.776652	0.001895	18.947992	6.419754	-0.000759
1496	1.4875e+02	-19.5765	-64.588116	0.002037	20.366559	6.900377	-0.000816
1497	1.4885e+02	-19.6214	-65.351135	0.001915	19.150645	6.488414	-0.000767
1498	1.4895e+02	-19.6535	-66.142413	0.001986	19.859928	6.728726	-0.000795
1499	1.4905e+02	-19.6920	-66.949841	0.002027	20.265233	6.866047	-0.000811
1500	1.4915e+02	-19.7321	-67.777453	0.002077	20.771863	7.037698	-0.000832
1501	1.4925e+02	-19.7738	-68.641400	0.002168	21.683799	7.346670	-0.000868
1502	1.4935e+02	-19.8187	-69.448828	0.002027	20.265233	6.866047	-0.000811
1503	1.4945e+02	-19.8508	-70.272403	0.002067	20.670537	7.003368	-0.000828
1504	1.4955e+02	-19.8909	-71.120202	0.002128	21.278494	7.209349	-0.000852
1505	1.4965e+02	-19.9390	-71.996260	0.002199	21.987777	7.449661	-0.000880
1506	1.4975e+02	-19.9679	-72.868282	0.002189	21.886451	7.415330	-0.000876
1507	1.4985e+02	-20.0160	-73.772600	0.002270	22.697060	7.689972	-0.000909
1508	1.4995e+02	-19.9679	-74.357985	-0.001469	-14.692294	-4.977884	-0.000588
1509	1.5005e+02	-19.9326	-74.911072	-0.001388	-13.881684	-4.703242	-0.000556
1510	1.5015e+02	-19.8973	-75.363231	-0.001135	-11.348530	-3.844986	-0.000454
1511	1.5025e+02	-19.8444	-75.855762	-0.001236	-12.361792	-4.188288	-0.000495
1512	1.5034e+02	-19.8026	-76.243327	-0.000973	-9.727312	-3.295702	-0.000390
1513	1.5044e+02	-19.7722	-76.638966	-0.000993	-9.929964	-3.364363	-0.000398
1514	1.5054e+02	-19.7305	-77.002308	-0.000912	-9.119355	-3.089721	-0.000365
1515	1.5064e+02	-19.6968	-77.309131	-0.000770	-7.700788	-2.609098	-0.000308
1516	1.5074e+02	-19.6486	-77.615953	-0.000770	-7.700788	-2.609098	-0.000308
1517	1.5084e+02	-19.6182	-77.882404	-0.000669	-6.687527	-2.265795	-0.000268
1518	1.5094e+02	-19.5732	-78.140781	-0.000648	-6.484874	-2.197135	-0.000260
1519	1.5104e+02	-19.5380	-78.358786	-0.000547	-5.471613	-1.853833	-0.000219
1520	1.5114e+02	-19.4866	-78.540457	-0.000456	-4.559677	-1.544860	-0.000183
1521	1.5124e+02	-19.4626	-78.790760	-0.000628	-6.282222	-2.128474	-0.000252
1522	1.5134e+02	-19.4160	-78.940134	-0.000375	-3.749068	-1.270219	-0.000150
1523	1.5144e+02	-19.3695	-79.101619	-0.000405	-4.053047	-1.373209	-0.000162
1524	1.5154e+02	-19.3374	-79.246956	-0.000365	-3.647742	-1.235888	-0.000146
1525	1.5164e+02	-19.2957	-79.440738	-0.000486	-4.863656	-1.647851	-0.000195
1526	1.5174e+02	-19.2540	-79.521481	-0.000203	-2.026523	-0.686605	-0.000081
1527	1.5184e+02	-19.2107	-79.638558	-0.000294	-2.938459	-0.995577	-0.000118
1528	1.5194e+02	-19.1818	-79.763709	-0.000314	-3.141111	-1.064237	-0.000126
1529	1.5204e+02	-19.1305	-79.804081	-0.000101	-1.013262	-0.343302	-0.000041
1530	1.5214e+02	-19.1016	-79.929232	-0.000314	-3.141111	-1.064237	-0.000126
1531	1.5224e+02	-19.0599	-80.001900	-0.000182	-1.823871	-0.617944	-0.000073
1532	1.5233e+02	-19.0198	-80.014012	-0.000030	-0.303978	-0.102991	-0.000012
1533	1.5243e+02	-18.9717	-80.102829	-0.000223	-2.229176	-0.755265	-0.000089
1534	1.5253e+02	-18.9348	-80.155312	-0.000132	-1.317240	-0.446293	-0.000053
1535	1.5263e+02	-18.9011	-80.187609	-0.000081	-0.810609	-0.274642	-0.000032
1536	1.5273e+02	-18.8481	-80.252203	-0.000162	-1.621219	-0.549284	-0.000065
1537	1.5283e+02	-18.8177	-80.219906	0.000081	0.810609	0.274642	0.000032
1538	1.5293e+02	-18.7775	-80.272388	-0.000132	-1.317240	-0.446293	-0.000053
1539	1.5303e+02	-18.7374	-80.248166	0.000061	0.607957	0.205981	0.000024
1540	1.5313e+02	-18.6957	-80.304686	-0.000142	-1.418566	-0.480623	-0.000057
1541	1.5323e+02	-18.6669	-80.276426	0.000071	0.709283	0.240312	0.000028
1542	1.5333e+02	-18.6187	-80.284500	-0.000020	-0.202652	-0.068660	-0.000008
1543	1.5343e+02	-18.5866	-80.328908	-0.000111	-1.114588	-0.377633	-0.000045
1544	1.5353e+02	-18.5385	-80.252203	0.000193	1.925197	0.652274	0.000077
1545	1.5363e+02	-18.4968	-80.256240	-0.000010	-0.101326	-0.034330	-0.000004
1546	1.5373e+02	-18.4567	-80.240091	0.000041	0.405305	0.137321	0.000016
1547	1.5383e+02	-18.4198	-80.199720	0.000101	1.013262	0.343302	0.000041
1548	1.5393e+02	-18.3829	-80.187609	0.000030	0.303978	0.102991	0.000012
1549	1.5403e+02	-18.3444	-80.179534	0.000020	0.202652	0.068660	0.000008
1550	1.5413e+02	-18.3091	-80.114940	0.000162	1.621219	0.549284	0.000065
1551	1.5422e+02	-18.2594	-80.038235	0.000193	1.925197	0.652274	0.000077
1552	1.5432e+02	-18.2161	-80.030160	0.000020	0.202652	0.068660	0.000008
1553	1.5442e+02	-18.1872	-79.957492	0.000182	1.823871	0.617944	0.000073
1554	1.5452e+02	-18.1391	-79.909046	0.000122	1.215914	0.411963	0.000049
1555	1.5462e+02	-18.0990	-79.848489	0.000152	1.519892	0.514953	0.000061
1556	1.5472e+02	-18.0669	-79.787932	0.000152	1.519892	0.514953	0.000061
1557	1.5482e+02	-18.0236	-79.767746	0.000051	0.506631	0.171651	0.000020
1558	1.5492e+02	-17.9754	-79.658744	0.000274	2.735806	0.926916	0.000110
1559	1.5502e+02	-17.9401	-79.626447	0.000081	0.810609	0.274642	0.000032
1560	1.5512e+02	-17.9064	-79.578001	0.000122	1.215914	0.411963	0.000049
1561	1.5522e+02	-17.8647	-79.525518	0.000132	1.317240	0.446293	0.000053
1562	1.5532e+02	-17.8214	-79.420553	0.000263	2.634480	0.892586	0.000105
1563	1.5542e+02	-17.7893	-79.335773	0.000213	2.127849	0.720935	0.000085
1564	1.5552e+02	-17.7508	-79.283290	0.000132	1.317240	0.446293	0.000053
1565	1.5562e+02	-17.7107	-79.230807	0.000132	1.317240	0.446293	0.000053
1566	1.5572e+02	-17.6562	-79.178325	0.000132	1.317240	0.446293	0.000053
1567	1.5582e+02	-17.6241	-79.113730	0.000162	1.621219	0.549284	0.000065
1568	1.5592e+02	-17.5872	-79.032988	0.000203	2.026523	0.686605	0.000081
1569	1.5602e+02	-17.5439	-78.984542	0.000122	1.215914	0.411963	0.000049
1570	1.5612e+02	-17.5022	-78.879577	0.000263	2.634480	0.892586	0.000105
1571	1.5622e+02	-17.4621	-78.802871	0.000193	1.925197	0.652274	0.000077
1572	1.5631e+02	-17.4172	-78.681757	0.000304	3.039785	1.029907	0.000122
1573	1.5641e+02	-17.3883	-78.629274	0.000132	1.317240	0.446293	0.000053
1574	1.5651e+02	-17.3418	-78.564680	0.000162	1.621219	0.549284	0.000065
1575	1.5661e+02	-17.3145	-78.508160	0.000142	1.418566	0.480623	0.000057
1576	1.5671e+02	-17.2648	-78.387046	0.000304	3.039785	1.029907	0.000122
1577	1.5681e+02	-17.2295	-78.370898	0.000041	0.405305	0.137321	0.000016
1578	1.5691e+02	-17.1894	-78.245746	0.000314	3.141111	1.064237	0.000126
1579	1.5701e+02	-17.1509	-78.181152	0.000162	1.621219	0.549284	0.000065
1580	1.5711e+02	-17.1059	-78.084261	0.000243	2.431828	0.823926	0.000097
1581	1.5721e+02	-17.0690	-77.987370	0.000243	2.431828	0.823926	0.000097
1582	1.5731e+02	-17.0225	-77.902590	0.000213	2.127849	0.720935	0.000085
1583	1.5741e+02	-16.9808	-77.789550	0.000284	2.837133	0.961247	0.000114
1584	1.5751e+02	-16.9359	-77.737067	0.000132	1.317240	0.446293	0.000053
1585	1.5761e+02	-16.8958	-77.619990	0.000294	2.938459	0.995577	0.000118
1586	1.5771e+02	-16.8653	-77.547322	0.000182	1.823871	0.617944	0.000073
1587	1.5781e+02	-16.8220	-77.466579	0.000203	2.026523	0.686605	0.000081
1588	1.5791e+02	-16.7835	-77.365651	0.000253	2.533154	0.858256	0.000101
1589	1.5801e+02	-16.7450	-77.248574	0.000294	2.938459	0.995577	0.000118
1590	1.5811e+02	-16.7081	-77.175905	0.000182	1.823871	0.617944	0.000073
1591	1.5821e+02	-16.6680	-77.115348	0.000152	1.519892	0.514953	0.000061
1592	1.5830e+02	-16.6311	-77.034606	0.000203	2.026523	0.686605	0.000081
1593	1.5840e+02	-16.5797	-76.925603	0.000274	2.735806	0.926916	0.000110
1594	1.5850e+02	-16.5445	-76.856972	0.000172	1.722545	0.583614	0.000069
1595	1.5860e+02	-16.5060	-76.727783	0.000324	3.242437	1.098567	0.000130
1596	1.5870e+02	-16.4674	-76.651078	0.000193	1.925197	0.652274	0.000077
1597	1.5880e+02	-16.4338	-76.594558	0.000142	1.418566	0.480623	0.000057
1598	1.5890e+02	-16.3888	-76.461332	0.000334	3.343763	1.132898	0.000134
1599	1.5900e+02	-16.3519	-76.360404	0.000253	2.533154	0.858256	0.000101
1600	1.5910e+02	-16.3054	-76.263513	0.000243	2.431828	0.823926	0.000097
1601	1.5920e+02	-16.2701	-76.186807	0.000193	1.925197	0.652274	0.000077
1602	1.5930e+02	-16.2252	-76.093953	0.000233	2.330502	0.789595	0.000093
1603	1.5940e+02	-16.1883	-75.972839	0.000304	3.039785	1.029907	0.000122
1604	1.5950e+02	-16.1562	-75.928430	0.000111	1.114588	0.377633	0.000045
1605	1.5960e+02	-16.1193	-75.823465	0.000263	2.634480	0.892586	0.000105
1606	1.5970e+02	-16.0696	-75.730611	0.000233	2.330502	0.789595	0.000093
1607	1.5980e+02	-16.0295	-75.581237	0.000375	3.749068	1.270219	0.000150
1608	1.5990e+02	-15.9846	-75.532791	0.000122	1.215914	0.411963	0.000049
1609	1.6000e+02	-15.9461	-75.419751	0.000284	2.837133	0.961247	0.000114
1610	1.6010e+02	-15.9044	-75.306711	0.000284	2.837133	0.961247	0.000114
1611	1.6019e+02	-15.8787	-75.225969	0.000203	2.026523	0.686605	0.000081
1612	1.6029e+02	-15.8338	-75.137152	0.000223	2.229176	0.755265	0.000089
1613	1.6039e+02	-15.7937	-75.028149	0.000274	2.735806	0.926916	0.000110
1614	1.6049e+02	-15.7568	-74.923184	0.000263	2.634480	0.892586	0.000105
1615	1.6059e+02	-15.7103	-74.818218	0.000263	2.634480	0.892586	0.000105
1616	1.6069e+02	-15.6734	-74.745550	0.000182	1.823871	0.617944	0.000073
1617	1.6079e+02	-15.6252	-74.608287	0.000345	3.445090	1.167228	0.000138
1618	1.6089e+02	-15.5835	-74.515433	0.000233	2.330502	0.789595	0.000093
1619	1.6099e+02	-15.5498	-74.450839	0.000162	1.621219	0.549284	0.000065
1620	1.6109e+02	-15.5177	-74.289353	0.000405	4.053047	1.373209	0.000162
1621	1.6119e+02	-15.4712	-74.204573	0.000213	2.127849	0.720935	0.000085
1622	1.6129e+02	-15.4343	-74.139979	0.000162	1.621219	0.549284	0.000065
1623	1.6139e+02	-15.3926	-74.026939	0.000284	2.837133	0.961247	0.000114
1624	1.6149e+02	-15.3493	-73.942160	0.000213	2.127849	0.720935	0.000085
1625	1.6159e+02	-15.3140	-73.837194	0.000263	2.634480	0.892586	0.000105
1626	1.6169e+02	-15.2691	-73.756451	0.000203	2.026523	0.686605	0.000081
1627	1.6179e+02	-15.2386	-73.615152	0.000355	3.546416	1.201558	0.000142
1628	1.6189e+02	-15.1889	-73.514223	0.000253	2.533154	0.858256	0.000101
1629	1.6199e+02	-15.1520	-73.413295	0.000253	2.533154	0.858256	0.000101
1630	1.6209e+02	-15.1055	-73.320441	0.000233	2.330502	0.789595	0.000093
1631	1.6219e+02	-15.0798	-73.219512	0.000253	2.533154	0.858256	0.000101
1632	1.6228e+02	-15.0365	-73.138770	0.000203	2.026523	0.686605	0.000081
1633	1.6238e+02	-15.0044	-73.041878	0.000243	2.431828	0.823926	0.000097
1634	1.6248e+02	-14.9611	-72.876356	0.000415	4.154373	1.407540	0.000166
1635	1.6258e+02	-14.9081	-72.807724	0.000172	1.722545	0.583614	0.000069
1636	1.6268e+02	-14.8696	-72.731019	0.000193	1.925197	0.652274	0.000077
1637	1.6278e+02	-14.8295	-72.605868	0.000314	3.141111	1.064237	0.000126
1638	1.6288e+02	-14.7926	-72.553385	0.000132	1.317240	0.446293	0.000053
1639	1.6298e+02	-14.7605	-72.436308	0.000294	2.938459	0.995577	0.000118
1640	1.6308e+02	-14.7140	-72.335380	0.000253	2.533154	0.858256	0.000101
1641	1.6318e+02	-14.6739	-72.206191	0.000324	3.242437	1.098567	0.000130
1642	1.6328e+02	-14.6258	-72.089114	0.000294	2.938459	0.995577	0.000118
1643	1.6338e+02	-14.5889	-72.012409	0.000193	1.925197	0.652274	0.000077
1644	1.6348e+02	-14.5600	-71.895332	0.000294	2.938459	0.995577	0.000118
1645	1.6358e+02	-14.5055	-71.786329	0.000274	2.735806	0.926916	0.000110
1646	1.6368e+02	-14.4798	-71.685401	0.000253	2.533154	0.858256	0.000101
1647	1.6378e+02	-14.4333	-71.600621	0.000213	2.127849	0.720935	0.000085
1648	1.6388e+02	-14.3916	-71.483544	0.000294	2.938459	0.995577	0.000118
1649	1.6398e+02	-14.3563	-71.378578	0.000263	2.634480	0.892586	0.000105
1650	1.6408e+02	-14.3210	-71.285724	0.000233	2.330502	0.789595	0.000093
1651	1.6418e+02	-14.2761	-71.196907	0.000223	2.229176	0.755265	0.000089
1652	1.6427e+02	-14.2408	-71.071756	0.000314	3.141111	1.064237	0.000126
1653	1.6437e+02	-14.2039	-70.938531	0.000334	3.343763	1.132898	0.000134
1654	1.6447e+02	-14.1541	-70.845676	0.000233	2.330502	0.789595	0.000093
1655	1.6457e+02	-14.1124	-70.720525	0.000314	3.141111	1.064237	0.000126
1656	1.6467e+02	-14.0804	-70.599411	0.000304	3.039785	1.029907	0.000122
1657	1.6477e+02	-14.0338	-70.542891	0.000142	1.418566	0.480623	0.000057
1658	1.6487e+02	-13.9937	-70.437926	0.000263	2.634480	0.892586	0.000105
1659	1.6497e+02	-13.9536	-70.308737	0.000324	3.242437	1.098567	0.000130
1660	1.6507e+02	-13.9199	-70.199735	0.000274	2.735806	0.926916	0.000110
1661	1.6517e+02	-13.8798	-70.106881	0.000233	2.330502	0.789595	0.000093
1662	1.6527e+02	-13.8381	-70.005952	0.000253	2.533154	0.858256	0.000101
1663	1.6537e+02	-13.7996	-69.868690	0.000345	3.445090	1.167228	0.000138
1664	1.6547e+02	-13.7611	-69.755650	0.000284	2.837133	0.961247	0.000114
1665	1.6557e+02	-13.7226	-69.662796	0.000233	2.330502	0.789595	0.000093
1666	1.6567e+02	-13.6825	-69.541682	0.000304	3.039785	1.029907	0.000122
1667	1.6577e+02	-13.6392	-69.456902	0.000213	2.127849	0.720935	0.000085
1668	1.6587e+02	-13.6007	-69.331751	0.000314	3.141111	1.064237	0.000126
1669	1.6597e+02	-13.5574	-69.234859	0.000243	2.431828	0.823926	0.000097
1670	1.6607e+02	-13.5173	-69.101634	0.000334	3.343763	1.132898	0.000134
1671	1.6616e+02	-13.4740	-69.012817	0.000223	2.229176	0.755265	0.000089
1672	1.6626e+02	-13.4354	-68.911888	0.000253	2.533154	0.858256	0.000101
1673	1.6636e+02	-13.4066	-68.806923	0.000263	2.634480	0.892586	0.000105
1674	1.6646e+02	-13.3584	-68.657549	0.000375	3.749068	1.270219	0.000150
1675	1.6656e+02	-13.3199	-68.540472	0.000294	2.938459	0.995577	0.000118
1676	1.6666e+02	-13.2814	-68.496063	0.000111	1.114588	0.377633	0.000045
1677	1.6676e+02	-13.2429	-68.342652	0.000385	3.850394	1.304549	0.000154
1678	1.6686e+02	-13.1980	-68.282095	0.000152	1.519892	0.514953	0.000061
1679	1.6696e+02	-13.1611	-68.148870	0.000334	3.343763	1.132898	0.000134
1680	1.6706e+02	-13.1162	-68.035830	0.000284	2.837133	0.961247	0.000114
1681	1.6716e+02	-13.0777	-67.926827	0.000274	2.735806	0.926916	0.000110
1682	1.6726e+02	-13.0344	-67.773416	0.000385	3.850394	1.304549	0.000154
1683	1.6736e+02	-12.9975	-67.708822	0.000162	1.621219	0.549284	0.000065
1684	1.6746e+02	-12.9558	-67.603857	0.000263	2.634480	0.892586	0.000105
1685	1.6756e+02	-12.9189	-67.478705	0.000314	3.141111	1.064237	0.000126
1686	1.6766e+02	-12.8852	-67.369703	0.000274	2.735806	0.926916	0.000110
1687	1.6776e+02	-12.8451	-67.236477	0.000334	3.343763	1.132898	0.000134
1688	1.6786e+02	-12.8034	-67.151697	0.000213	2.127849	0.720935	0.000085
1689	1.6796e+02	-12.7617	-66.994249	0.000395	3.951720	1.338879	0.000158
1690	1.6806e+02	-12.7200	-66.881209	0.000284	2.837133	0.961247	0.000114
1691	1.6816e+02	-12.6815	-66.788355	0.000233	2.330502	0.789595	0.000093
1692	1.6825e+02	-12.6478	-66.663204	0.000314	3.141111	1.064237	0.000126
1693	1.6835e+02	-12.6012	-66.566313	0.000243	2.431828	0.823926	0.000097
1694	1.6845e+02	-12.5644	-66.441161	0.000314	3.141111	1.064237	0.000126
1695	1.6855e+02	-12.5194	-66.287750	0.000385	3.850394	1.304549	0.000154
1696	1.6865e+02	-12.4745	-66.198933	0.000223	2.229176	0.755265	0.000089
1697	1.6875e+02	-12.4505	-66.089931	0.000274	2.735806	0.926916	0.000110
1698	1.6885e+02	-12.4007	-66.009188	0.000203	2.026523	0.686605	0.000081
1699	1.6895e+02	-12.3606	-65.880000	0.000324	3.242437	1.098567	0.000130
1700	1.6905e+02	-12.3253	-65.791183	0.000223	2.229176	0.755265	0.000089
1701	1.6915e+02	-12.2820	-65.649883	0.000355	3.546416	1.201558	0.000142
1702	1.6925e+02	-12.2467	-65.532806	0.000294	2.938459	0.995577	0.000118
1703	1.6935e+02	-12.2066	-65.427840	0.000263	2.634480	0.892586	0.000105
1704	1.6945e+02	-12.1697	-65.314801	0.000284	2.837133	0.961247	0.000114
1705	1.6955e+02	-12.1264	-65.189649	0.000314	3.141111	1.064237	0.000126
1706	1.6965e+02	-12.0799	-65.084684	0.000263	2.634480	0.892586	0.000105
1707	1.6975e+02	-12.0382	-64.947421	0.000345	3.445090	1.167228	0.000138
1708	1.6985e+02	-11.9997	-64.826307	0.000304	3.039785	1.029907	0.000122
1709	1.6995e+02	-11.9692	-64.725379	0.000253	2.533154	0.858256	0.000101
1710	1.7005e+02	-11.9194	-64.604265	0.000304	3.039785	1.029907	0.000122
1711	1.7015e+02	-11.8793	-64.491225	0.000284	2.837133	0.961247	0.000114
1712	1.7024e+02	-11.8408	-64.362037	0.000324	3.242437	1.098567	0.000130
1713	1.7034e+02	-11.7975	-64.236885	0.000314	3.141111	1.064237	0.000126
1714	1.7044e+02	-11.7558	-64.107697	0.000324	3.242437	1.098567	0.000130
1715	1.7054e+02	-11.7318	-64.035029	0.000182	1.823871	0.617944	0.000073
1716	1.7064e+02	-11.6852	-63.913914	0.000304	3.039785	1.029907	0.000122
1717	1.7074e+02	-11.6515	-63.788763	0.000314	3.141111	1.064237	0.000126
1718	1.7084e+02	-11.6066	-63.679761	0.000274	2.735806	0.926916	0.000110
1719	1.7094e+02	-11.5697	-63.546535	0.000334	3.343763	1.132898	0.000134
1720	1.7104e+02	-11.5344	-63.381013	0.000415	4.154373	1.407540	0.000166
1721	1.7114e+02	-11.4895	-63.267973	0.000284	2.837133	0.961247	0.000114
1722	1.7124e+02	-11.4494	-63.150896	0.000294	2.938459	0.995577	0.000118
1723	1.7134e+02	-11.4045	-63.054005	0.000243	2.431828	0.823926	0.000097
1724	1.7144e+02	-11.3596	-62.908668	0.000365	3.647742	1.235888	0.000146
1725	1.7154e+02	-11.3259	-62.835999	0.000182	1.823871	0.617944	0.000073
1726	1.7164e+02	-11.2874	-62.670477	0.000415	4.154373	1.407540	0.000166
1727	1.7174e+02	-11.2569	-62.561474	0.000274	2.735806	0.926916	0.000110
1728	1.7184e+02	-11.2008	-62.440360	0.000304	3.039785	1.029907	0.000122
1729	1.7194e+02	-11.1639	-62.323283	0.000294	2.938459	0.995577	0.000118
1730	1.7204e+02	-11.1254	-62.194095	0.000324	3.242437	1.098567	0.000130
1731	1.7213e+02	-11.0885	-62.101240	0.000233	2.330502	0.789595	0.000093
1732	1.7223e+02	-11.0516	-61.951866	0.000375	3.749068	1.270219	0.000150
1733	1.7233e+02	-11.0034	-61.818641	0.000334	3.343763	1.132898	0.000134
1734	1.7243e+02	-10.9649	-61.766158	0.000132	1.317240	0.446293	0.000053
1735	1.7253e+02	-10.9296	-61.608710	0.000395	3.951720	1.338879	0.000158
1736	1.7263e+02	-10.8831	-61.463373	0.000365	3.647742	1.235888	0.000146
1737	1.7273e+02	-10.8478	-61.334185	0.000324	3.242437	1.098567	0.000130
1738	1.7283e+02	-10.8029	-61.217108	0.000294	2.938459	0.995577	0.000118
1739	1.7293e+02	-10.7740	-61.075808	0.000355	3.546416	1.201558	0.000142
1740	1.7303e+02	-10.7259	-60.954694	0.000304	3.039785	1.029907	0.000122
1741	1.7313e+02	-10.6858	-60.849728	0.000263	2.634480	0.892586	0.000105
1742	1.7323e+02	-10.6489	-60.704392	0.000365	3.647742	1.235888	0.000146
1743	1.7333e+02	-10.6024	-60.563092	0.000355	3.546416	1.201558	0.000142
1744	1.7343e+02	-10.5703	-60.490423	0.000182	1.823871	0.617944	0.000073
1745	1.7353e+02	-10.5286	-60.357198	0.000334	3.343763	1.132898	0.000134
1746	1.7363e+02	-10.4837	-60.248195	0.000274	2.735806	0.926916	0.000110
1747	1.7373e+02	-10.4484	-60.066524	0.000456	4.559677	1.544860	0.000183
1748	1.7383e+02	-10.4147	-59.973670	0.000233	2.330502	0.789595	0.000093
1749	1.7393e+02	-10.3633	-59.844482	0.000324	3.242437	1.098567	0.000130
1750	1.7403e+02	-10.3281	-59.707219	0.000345	3.445090	1.167228	0.000138
1751	1.7413e+02	-10.2912	-59.598216	0.000274	2.735806	0.926916	0.000110
1752	1.7422e+02	-10.2510	-59.489214	0.000274	2.735806	0.926916	0.000110
1753	1.7432e+02	-10.2013	-59.323691	0.000415	4.154373	1.407540	0.000166
1754	1.7442e+02	-10.1676	-59.226800	0.000243	2.431828	0.823926	0.000097
1755	1.7452e+02	-10.1275	-59.073389	0.000385	3.850394	1.304549	0.000154
1756	1.7462e+02	-10.0970	-58.936126	0.000345	3.445090	1.167228	0.000138
1757	1.7472e+02	-10.0473	-58.855383	0.000203	2.026523	0.686605	0.000081
1758	1.7482e+02	-10.0104	-58.714084	0.000355	3.546416	1.201558	0.000142
1759	1.7492e+02	-9.9687	-58.597007	0.000294	2.938459	0.995577	0.000118
1760	1.7502e+02	-9.9254	-58.451670	0.000365	3.647742	1.235888	0.000146
1761	1.7512e+02	-9.8933	-58.326519	0.000314	3.141111	1.064237	0.000126
1762	1.7522e+02	-9.8500	-58.193293	0.000334	3.343763	1.132898	0.000134
1763	1.7532e+02	-9.8067	-58.076216	0.000294	2.938459	0.995577	0.000118
1764	1.7542e+02	-9.7762	-57.942991	0.000334	3.343763	1.132898	0.000134
1765	1.7552e+02	-9.7265	-57.829951	0.000284	2.837133	0.961247	0.000114
1766	1.7562e+02	-9.6912	-57.676540	0.000385	3.850394	1.304549	0.000154
1767	1.7572e+02	-9.6575	-57.551389	0.000314	3.141111	1.064237	0.000126
1768	1.7582e+02	-9.6158	-57.458534	0.000233	2.330502	0.789595	0.000093
1769	1.7592e+02	-9.5757	-57.317235	0.000355	3.546416	1.201558	0.000142
1770	1.7602e+02	-9.5468	-57.163823	0.000385	3.850394	1.304549	0.000154
1771	1.7612e+02	-9.4922	-57.058858	0.000263	2.634480	0.892586	0.000105
1772	1.7621e+02	-9.4537	-56.925632	0.000334	3.343763	1.132898	0.000134
1773	1.7631e+02	-9.4152	-56.816630	0.000274	2.735806	0.926916	0.000110
1774	1.7641e+02	-9.3719	-56.655144	0.000405	4.053047	1.373209	0.000162
1775	1.7651e+02	-9.3366	-56.538067	0.000294	2.938459	0.995577	0.000118
1776	1.7661e+02	-9.2981	-56.416953	0.000304	3.039785	1.029907	0.000122
1777	1.7671e+02	-9.2564	-56.251431	0.000415	4.154373	1.407540	0.000166
1778	1.7681e+02	-9.2131	-56.162614	0.000223	2.229176	0.755265	0.000089
1779	1.7691e+02	-9.1778	-55.976906	0.000466	4.661003	1.579191	0.000187
1780	1.7701e+02	-9.1393	-55.863866	0.000284	2.837133	0.961247	0.000114
1781	1.7711e+02	-9.0928	-55.710455	0.000385	3.850394	1.304549	0.000154
1782	1.7721e+02	-9.0527	-55.557043	0.000385	3.850394	1.304549	0.000154
1783	1.7731e+02	-9.0126	-55.476301	0.000203	2.026523	0.686605	0.000081
1784	1.7741e+02	-8.9773	-55.330964	0.000365	3.647742	1.235888	0.000146
1785	1.7751e+02	-8.9356	-55.221961	0.000274	2.735806	0.926916	0.000110
1786	1.7761e+02	-8.8971	-55.064513	0.000395	3.951720	1.338879	0.000158
1787	1.7771e+02	-8.8618	-54.911102	0.000385	3.850394	1.304549	0.000154
1788	1.7781e+02	-8.8169	-54.769802	0.000355	3.546416	1.201558	0.000142
1789	1.7791e+02	-8.7735	-54.689059	0.000203	2.026523	0.686605	0.000081
1790	1.7801e+02	-8.7350	-54.539685	0.000375	3.749068	1.270219	0.000150
1791	1.7810e+02	-8.7014	-54.362051	0.000446	4.458351	1.510530	0.000179
1792	1.7820e+02	-8.6580	-54.269197	0.000233	2.330502	0.789595	0.000093
1793	1.7830e+02	-8.6099	-54.103675	0.000415	4.154373	1.407540	0.000166
1794	1.7840e+02	-8.5698	-53.982561	0.000304	3.039785	1.029907	0.000122
1795	1.7850e+02	-8.5345	-53.853372	0.000324	3.242437	1.098567	0.000130
1796	1.7860e+02	-8.4960	-53.732258	0.000304	3.039785	1.029907	0.000122
1797	1.7870e+02	-8.4559	-53.550587	0.000456	4.559677	1.544860	0.000183
1798	1.7880e+02	-8.4190	-53.465807	0.000213	2.127849	0.720935	0.000085
1799	1.7890e+02	-8.3821	-53.288173	0.000446	4.458351	1.510530	0.000179
1800	1.7900e+02	-8.3372	-53.183208	0.000263	2.634480	0.892586	0.000105
1801	1.7910e+02	-8.3035	-53.033834	0.000375	3.749068	1.270219	0.000150
1802	1.7920e+02	-8.2618	-52.896571	0.000345	3.445090	1.167228	0.000138
1803	1.7930e+02	-8.2185	-52.791605	0.000263	2.634480	0.892586	0.000105
1804	1.7940e+02	-8.1816	-52.630120	0.000405	4.053047	1.373209	0.000162
1805	1.7950e+02	-8.1383	-52.504969	0.000314	3.141111	1.064237	0.000126
1806	1.7960e+02	-8.0998	-52.367706	0.000345	3.445090	1.167228	0.000138
1807	1.7970e+02	-8.0693	-52.250629	0.000294	2.938459	0.995577	0.000118
1808	1.7980e+02	-8.0196	-52.109330	0.000355	3.546416	1.201558	0.000142
1809	1.7990e+02	-7.9762	-52.000327	0.000274	2.735806	0.926916	0.000110
1810	1.8000e+02	-7.9393	-51.826730	0.000436	4.357025	1.476200	0.000174
1811	1.8009e+02	-7.8944	-51.701579	0.000314	3.141111	1.064237	0.000126
1812	1.8019e+02	-7.8623	-51.527982	0.000436	4.357025	1.476200	0.000174
1813	1.8029e+02	-7.8238	-51.406868	0.000304	3.039785	1.029907	0.000122
1814	1.8039e+02	-7.7661	-51.265568	0.000355	3.546416	1.201558	0.000142
1815	1.8049e+02	-7.7372	-51.136380	0.000324	3.242437	1.098567	0.000130
1816	1.8059e+02	-7.7003	-51.007191	0.000324	3.242437	1.098567	0.000130
1817	1.8069e+02	-7.6634	-50.849743	0.000395	3.951720	1.338879	0.000158
1818	1.8079e+02	-7.6169	-50.668072	0.000456	4.559677	1.544860	0.000183
1819	1.8089e+02	-7.5752	-50.567144	0.000253	2.533154	0.858256	0.000101
1820	1.8099e+02	-7.5351	-50.450067	0.000294	2.938459	0.995577	0.000118
1821	1.8109e+02	-7.5062	-50.304730	0.000365	3.647742	1.235888	0.000146
1822	1.8119e+02	-7.4597	-50.151319	0.000385	3.850394	1.304549	0.000154
1823	1.8129e+02	-7.4196	-50.026167	0.000314	3.141111	1.064237	0.000126
1824	1.8139e+02	-7.3731	-49.832385	0.000486	4.863656	1.647851	0.000195
1825	1.8149e+02	-7.3378	-49.727419	0.000263	2.634480	0.892586	0.000105
1826	1.8159e+02	-7.3025	-49.565934	0.000405	4.053047	1.373209	0.000162
1827	1.8169e+02	-7.2608	-49.420597	0.000365	3.647742	1.235888	0.000146
1828	1.8179e+02	-7.2158	-49.275260	0.000365	3.647742	1.235888	0.000146
1829	1.8189e+02	-7.1902	-49.137998	0.000345	3.445090	1.167228	0.000138
1830	1.8199e+02	-7.1372	-49.012846	0.000314	3.141111	1.064237	0.000126
1831	1.8209e+02	-7.1019	-48.875584	0.000345	3.445090	1.167228	0.000138
1832	1.8218e+02	-7.0570	-48.718136	0.000395	3.951720	1.338879	0.000158
1833	1.8228e+02	-7.0201	-48.588947	0.000324	3.242437	1.098567	0.000130
1834	1.8238e+02	-6.9832	-48.395165	0.000486	4.863656	1.647851	0.000195
1835	1.8248e+02	-6.9383	-48.261939	0.000334	3.343763	1.132898	0.000134
1836	1.8258e+02	-6.9014	-48.140825	0.000304	3.039785	1.029907	0.000122
1837	1.8268e+02	-6.8613	-47.938968	0.000507	5.066308	1.716512	0.000203
1838	1.8278e+02	-6.8292	-47.834003	0.000263	2.634480	0.892586	0.000105
1839	1.8288e+02	-6.7859	-47.664443	0.000426	4.255699	1.441870	0.000170
1840	1.8298e+02	-6.7394	-47.531218	0.000334	3.343763	1.132898	0.000134
1841	1.8308e+02	-6.7041	-47.393955	0.000345	3.445090	1.167228	0.000138
1842	1.8318e+02	-6.6656	-47.276878	0.000294	2.938459	0.995577	0.000118
1843	1.8328e+02	-6.6287	-47.091170	0.000466	4.661003	1.579191	0.000187
1844	1.8338e+02	-6.5854	-46.937759	0.000385	3.850394	1.304549	0.000154
1845	1.8348e+02	-6.5533	-46.772236	0.000415	4.154373	1.407540	0.000166
1846	1.8358e+02	-6.5084	-46.618825	0.000385	3.850394	1.304549	0.000154
1847	1.8368e+02	-6.4651	-46.505785	0.000284	2.837133	0.961247	0.000114
1848	1.8378e+02	-6.4266	-46.372560	0.000334	3.343763	1.132898	0.000134
1849	1.8388e+02	-6.3848	-46.219148	0.000385	3.850394	1.304549	0.000154
1850	1.8398e+02	-6.3479	-46.073812	0.000365	3.647742	1.235888	0.000146
1851	1.8407e+02	-6.3094	-45.908289	0.000415	4.154373	1.407540	0.000166
1852	1.8417e+02	-6.2533	-45.787175	0.000304	3.039785	1.029907	0.000122
1853	1.8427e+02	-6.2340	-45.585318	0.000507	5.066308	1.716512	0.000203
1854	1.8437e+02	-6.1923	-45.476316	0.000274	2.735806	0.926916	0.000110
1855	1.8447e+02	-6.1506	-45.294644	0.000456	4.559677	1.544860	0.000183
1856	1.8457e+02	-6.1105	-45.193716	0.000253	2.533154	0.858256	0.000101
1857	1.8467e+02	-6.0672	-44.995896	0.000496	4.964982	1.682181	0.000199
1858	1.8477e+02	-6.0319	-44.858634	0.000345	3.445090	1.167228	0.000138
1859	1.8487e+02	-5.9854	-44.693111	0.000415	4.154373	1.407540	0.000166
1860	1.8497e+02	-5.9485	-44.588146	0.000263	2.634480	0.892586	0.000105
1861	1.8507e+02	-5.9148	-44.442809	0.000365	3.647742	1.235888	0.000146
1862	1.8517e+02	-5.8795	-44.257101	0.000466	4.661003	1.579191	0.000187
1863	1.8527e+02	-5.8330	-44.051207	0.000517	5.167634	1.750842	0.000207
1864	1.8537e+02	-5.7913	-43.974501	0.000193	1.925197	0.652274	0.000077
1865	1.8547e+02	-5.7544	-43.776681	0.000496	4.964982	1.682181	0.000199
1866	1.8557e+02	-5.7095	-43.623270	0.000385	3.850394	1.304549	0.000154
1867	1.8567e+02	-5.6678	-43.481970	0.000355	3.546416	1.201558	0.000142
1868	1.8577e+02	-5.6276	-43.304336	0.000446	4.458351	1.510530	0.000179
1869	1.8587e+02	-5.6020	-43.159000	0.000365	3.647742	1.235888	0.000146
1870	1.8597e+02	-5.5490	-42.961180	0.000496	4.964982	1.682181	0.000199
1871	1.8606e+02	-5.5057	-42.860252	0.000253	2.533154	0.858256	0.000101
1872	1.8616e+02	-5.4640	-42.678580	0.000456	4.559677	1.544860	0.000183
1873	1.8626e+02	-5.4383	-42.549392	0.000324	3.242437	1.098567	0.000130
1874	1.8636e+02	-5.3934	-42.375795	0.000436	4.357025	1.476200	0.000174
1875	1.8646e+02	-5.3517	-42.210273	0.000415	4.154373	1.407540	0.000166
1876	1.8656e+02	-5.3164	-42.036676	0.000436	4.357025	1.476200	0.000174
1877	1.8666e+02	-5.2667	-41.887302	0.000375	3.749068	1.270219	0.000150
1878	1.8676e+02	-5.2346	-41.725816	0.000405	4.053047	1.373209	0.000162
1879	1.8686e+02	-5.1881	-41.568368	0.000395	3.951720	1.338879	0.000158
1880	1.8696e+02	-5.1432	-41.406883	0.000405	4.053047	1.373209	0.000162
1881	1.8706e+02	-5.1079	-41.273657	0.000334	3.343763	1.132898	0.000134
1882	1.8716e+02	-5.0774	-41.096023	0.000446	4.458351	1.510530	0.000179
1883	1.8726e+02	-5.0293	-40.946649	0.000375	3.749068	1.270219	0.000150
1884	1.8736e+02	-4.9972	-40.797275	0.000375	3.749068	1.270219	0.000150
1885	1.8746e+02	-4.9555	-40.619641	0.000446	4.458351	1.510530	0.000179
1886	1.8756e+02	-4.9138	-40.474304	0.000365	3.647742	1.235888	0.000146
1887	1.8766e+02	-4.8737	-40.244188	0.000578	5.775591	1.956823	0.000231
1888	1.8776e+02	-4.8352	-40.102888	0.000355	3.546416	1.201558	0.000142
1889	1.8786e+02	-4.7951	-39.933328	0.000426	4.255699	1.441870	0.000170
1890	1.8796e+02	-4.7533	-39.800103	0.000334	3.343763	1.132898	0.000134
1891	1.8806e+02	-4.7116	-39.626506	0.000436	4.357025	1.476200	0.000174
1892	1.8815e+02	-4.6779	-39.452909	0.000436	4.357025	1.476200	0.000174
1893	1.8825e+02	-4.6362	-39.279312	0.000436	4.357025	1.476200	0.000174
1894	1.8835e+02	-4.6058	-39.101678	0.000446	4.458351	1.510530	0.000179
1895	1.8845e+02	-4.5512	-38.980564	0.000304	3.039785	1.029907	0.000122
1896	1.8855e+02	-4.5127	-38.790819	0.000476	4.762330	1.613521	0.000191
1897	1.8865e+02	-4.4806	-38.605110	0.000466	4.661003	1.579191	0.000187
1898	1.8875e+02	-4.4357	-38.451699	0.000385	3.850394	1.304549	0.000154
1899	1.8885e+02	-4.3876	-38.249843	0.000507	5.066308	1.716512	0.000203
1900	1.8895e+02	-4.3523	-38.080283	0.000426	4.255699	1.441870	0.000170
1901	1.8905e+02	-4.3122	-37.934946	0.000365	3.647742	1.235888	0.000146
1902	1.8915e+02	-4.2689	-37.785572	0.000375	3.749068	1.270219	0.000150
1903	1.8925e+02	-4.2432	-37.571604	0.000537	5.370287	1.819502	0.000215
1904	1.8935e+02	-4.1967	-37.446453	0.000314	3.141111	1.064237	0.000126
1905	1.8945e+02	-4.1598	-37.260744	0.000466	4.661003	1.579191	0.000187
1906	1.8955e+02	-4.1133	-37.103296	0.000395	3.951720	1.338879	0.000158
1907	1.8965e+02	-4.0683	-36.917588	0.000466	4.661003	1.579191	0.000187
1908	1.8975e+02	-4.0330	-36.748028	0.000426	4.255699	1.441870	0.000170
1909	1.8985e+02	-3.9913	-36.566357	0.000456	4.559677	1.544860	0.000183
1910	1.8995e+02	-3.9576	-36.421020	0.000365	3.647742	1.235888	0.000146
1911	1.9004e+02	-3.9143	-36.194940	0.000567	5.674265	1.922493	0.000227
1912	1.9014e+02	-3.8806	-36.041529	0.000385	3.850394	1.304549	0.000154
1913	1.9024e+02	-3.8373	-35.831598	0.000527	5.268960	1.785172	0.000211
1914	1.9034e+02	-3.7972	-35.706447	0.000314	3.141111	1.064237	0.000126
1915	1.9044e+02	-3.7507	-35.516702	0.000476	4.762330	1.613521	0.000191
1916	1.9054e+02	-3.7250	-35.330993	0.000466	4.661003	1.579191	0.000187
1917	1.9064e+02	-3.6817	-35.149322	0.000456	4.559677	1.544860	0.000183
1918	1.9074e+02	-3.6352	-34.963614	0.000466	4.661003	1.579191	0.000187
1919	1.9084e+02	-3.6031	-34.842500	0.000304	3.039785	1.029907	0.000122
1920	1.9094e+02	-3.5566	-34.640643	0.000507	5.066308	1.716512	0.000203
1921	1.9104e+02	-3.5181	-34.450898	0.000476	4.762330	1.613521	0.000191
1922	1.9114e+02	-3.4700	-34.277301	0.000436	4.357025	1.476200	0.000174
1923	1.9124e+02	-3.4315	-34.111778	0.000415	4.154373	1.407540	0.000166
1924	1.9134e+02	-3.3962	-33.926070	0.000466	4.661003	1.579191	0.000187
1925	1.9144e+02	-3.3512	-33.736325	0.000476	4.762330	1.613521	0.000191
1926	1.9154e+02	-3.3208	-33.578877	0.000395	3.951720	1.338879	0.000158
1927	1.9164e+02	-3.2839	-33.385094	0.000486	4.863656	1.647851	0.000195
1928	1.9174e+02	-3.2389	-33.215534	0.000426	4.255699	1.441870	0.000170
1929	1.9184e+02	-3.1988	-33.045975	0.000426	4.255699	1.441870	0.000170
1930	1.9194e+02	-3.1603	-32.840081	0.000517	5.167634	1.750842	0.000207
1931	1.9203e+02	-3.1234	-32.642261	0.000496	4.964982	1.682181	0.000199
1932	1.9213e+02	-3.0817	-32.464627	0.000446	4.458351	1.510530	0.000179
1933	1.9223e+02	-3.0432	-32.291030	0.000436	4.357025	1.476200	0.000174
1934	1.9233e+02	-2.9919	-32.077062	0.000537	5.370287	1.819502	0.000215
1935	1.9243e+02	-2.9614	-31.923651	0.000385	3.850394	1.304549	0.000154
1936	1.9253e+02	-2.9213	-31.741980	0.000456	4.559677	1.544860	0.000183
1937	1.9263e+02	-2.8732	-31.552234	0.000476	4.762330	1.613521	0.000191
1938	1.9273e+02	-2.8427	-31.362489	0.000476	4.762330	1.613521	0.000191
1939	1.9283e+02	-2.8026	-31.156595	0.000517	5.167634	1.750842	0.000207
1940	1.9293e+02	-2.7545	-30.958775	0.000496	4.964982	1.682181	0.000199
1941	1.9303e+02	-2.7224	-30.809401	0.000375	3.749068	1.270219	0.000150
1942	1.9313e+02	-2.6775	-30.571210	0.000598	5.978244	2.025484	0.000239
1943	1.9323e+02	-2.6358	-30.385502	0.000466	4.661003	1.579191	0.000187
1944	1.9333e+02	-2.6053	-30.232091	0.000385	3.850394	1.304549	0.000154
1945	1.9343e+02	-2.5684	-30.010049	0.000557	5.572939	1.888163	0.000223
1946	1.9353e+02	-2.5235	-29.820303	0.000476	4.762330	1.613521	0.000191
1947	1.9363e+02	-2.4689	-29.658818	0.000405	4.053047	1.373209	0.000162
1948	1.9373e+02	-2.4368	-29.448887	0.000527	5.268960	1.785172	0.000211
1949	1.9383e+02	-2.3983	-29.247030	0.000507	5.066308	1.716512	0.000203
1950	1.9393e+02	-2.3550	-29.024987	0.000557	5.572939	1.888163	0.000223
1951	1.9403e+02	-2.3165	-28.875613	0.000375	3.749068	1.270219	0.000150
1952	1.9412e+02	-2.2828	-28.629348	0.000618	6.180896	2.094144	0.000248
1953	1.9422e+02	-2.2411	-28.471900	0.000395	3.951720	1.338879	0.000158
1954	1.9432e+02	-2.1946	-28.274080	0.000496	4.964982	1.682181	0.000199
1955	1.9442e+02	-2.1609	-28.084335	0.000476	4.762330	1.613521	0.000191
1956	1.9452e+02	-2.1272	-27.809810	0.000689	6.890179	2.334456	0.000276
1957	1.9462e+02	-2.0855	-27.704844	0.000263	2.634480	0.892586	0.000105
1958	1.9472e+02	-2.0438	-27.482802	0.000557	5.572939	1.888163	0.000223
1959	1.9482e+02	-2.0021	-27.272870	0.000527	5.268960	1.785172	0.000211
1960	1.9492e+02	-1.9572	-27.095237	0.000446	4.458351	1.510530	0.000179
1961	1.9502e+02	-1.9299	-26.881268	0.000537	5.370287	1.819502	0.000215
1962	1.9512e+02	-1.8866	-26.667300	0.000537	5.370287	1.819502	0.000215
1963	1.9522e+02	-1.8368	-26.485629	0.000456	4.559677	1.544860	0.000183
1964	1.9532e+02	-1.8080	-26.259549	0.000567	5.674265	1.922493	0.000227
1965	1.9542e+02	-1.7663	-26.057693	0.000507	5.066308	1.716512	0.000203
1966	1.9552e+02	-1.7229	-25.863910	0.000486	4.863656	1.647851	0.000195
1967	1.9562e+02	-1.6877	-25.637831	0.000567	5.674265	1.922493	0.000227
1968	1.9572e+02	-1.6508	-25.464234	0.000436	4.357025	1.476200	0.000174
1969	1.9582e+02	-1.6026	-25.286600	0.000446	4.458351	1.510530	0.000179
1970	1.9592e+02	-1.5577	-25.076669	0.000527	5.268960	1.785172	0.000211
1971	1.9601e+02	-1.5336	-24.862700	0.000537	5.370287	1.819502	0.000215
1972	1.9611e+02	-1.4807	-24.676992	0.000466	4.661003	1.579191	0.000187
1973	1.9621e+02	-1.4454	-24.454950	0.000557	5.572939	1.888163	0.000223
1974	1.9631e+02	-1.4021	-24.257130	0.000496	4.964982	1.682181	0.000199
1975	1.9641e+02	-1.3684	-24.047199	0.000527	5.268960	1.785172	0.000211
1976	1.9651e+02	-1.3283	-23.817082	0.000578	5.775591	1.956823	0.000231
1977	1.9661e+02	-1.2882	-23.627337	0.000476	4.762330	1.613521	0.000191
1978	1.9671e+02	-1.2449	-23.409332	0.000547	5.471613	1.853833	0.000219
1979	1.9681e+02	-1.2096	-23.199401	0.000527	5.268960	1.785172	0.000211
1980	1.9691e+02	-1.1679	-23.001581	0.000496	4.964982	1.682181	0.000199
1981	1.9701e+02	-1.1326	-22.767427	0.000588	5.876917	1.991154	0.000235
1982	1.9711e+02	-1.0796	-22.557496	0.000527	5.268960	1.785172	0.000211
1983	1.9721e+02	-1.0460	-22.383899	0.000436	4.357025	1.476200	0.000174
1984	1.9731e+02	-1.0059	-22.169931	0.000537	5.370287	1.819502	0.000215
1985	1.9741e+02	-0.9674	-21.955963	0.000537	5.370287	1.819502	0.000215
1986	1.9751e+02	-0.9192	-21.717772	0.000598	5.978244	2.025484	0.000239
1987	1.9761e+02	-0.8903	-21.503804	0.000537	5.370287	1.819502	0.000215
1988	1.9771e+02	-0.8406	-21.285798	0.000547	5.471613	1.853833	0.000219
1989	1.9781e+02	-0.8133	-21.059719	0.000567	5.674265	1.922493	0.000227
1990	1.9791e+02	-0.7572	-20.845750	0.000537	5.370287	1.819502	0.000215
1991	1.9800e+02	-0.7267	-20.660042	0.000466	4.661003	1.579191	0.000187
1992	1.9810e+02	-0.6850	-20.425888	0.000588	5.876917	1.991154	0.000235
1993	1.9820e+02	-0.6385	-20.191734	0.000588	5.876917	1.991154	0.000235
1994	1.9830e+02	-0.6128	-19.973729	0.000547	5.471613	1.853833	0.000219
1995	1.9840e+02	-0.5567	-19.771872	0.000507	5.066308	1.716512	0.000203
1996	1.9850e+02	-0.5182	-19.574053	0.000496	4.964982	1.682181	0.000199
1997	1.9860e+02	-0.4781	-19.307602	0.000669	6.687527	2.265795	0.000268
1998	1.9870e+02	-0.4508	-19.105745	0.000507	5.066308	1.716512	0.000203
1999	1.9880e+02	-0.4091	-18.883702	0.000557	5.572939	1.888163	0.000223
2000	1.9890e+02	-0.3642	-18.661660	0.000557	5.572939	1.888163	0.000223
2001	1.9900e+02	-0.3353	-18.451729	0.000527	5.268960	1.785172	0.000211
2002	1.9910e+02	-0.2856	-18.189315	0.000659	6.586201	2.231465	0.000264
2003	1.9920e+02	-0.2406	-17.963235	0.000567	5.674265	1.922493	0.000227
2004	1.9930e+02	-0.2102	-17.757342	0.000517	5.167634	1.750842	0.000207
2005	1.9940e+02	-0.1652	-17.539336	0.000547	5.471613	1.853833	0.000219
2006	1.9950e+02	-0.1299	-17.341517	0.000496	4.964982	1.682181	0.000199
2007	1.9960e+02	-0.0866	-17.099288	0.000608	6.079570	2.059814	0.000243
2008	1.9970e+02	-0.0465	-16.865135	0.000588	5.876917	1.991154	0.000235
2009	1.9980e+02	-0.0064	-16.598684	0.000588	5.876917	1.991154	0.000268

Center data before PMax,+/-Pr and +/-Vc Calc.

PMax (uC/cm2):	3.50e+01
Pr (uC/cm2):	5.63e+01
-Pr (uC/cm2):	-1.66e+01
PLoss (uC/cm2):	7.02e+01
Vc:	1.69e+01
-Vc:	-1.19e+01
C (Max-Eff) (nF):	1.75e-01
K (Eff):	5.94e+02
Vert. (+/-Pr) Shift (uC/cm2):	1.98e+01
Horiz. Shift (+/-Vc):	2.51e+00
Offset (uC/cm2):	8.67e+01

A (Loop Area - uC/cm2·Volts):	-4.11e-01



Hysteresis Version: 5.48.1 - Radiant Technologies, Inc., 1999 - 9/12/24

