»»»»»»»»»»»»»»»»»»»»»»»»»»»»»»»»»»»» Hysteresis ««««««««««««««««««««««««««««««««««««
»»»  Executed Version:	5.48.1
»»»  Vision Version:	5.48.4 (R)
»»»  Vision Compiled:	9/18/24
»»»  Driver Version:	5.47.0
»»»  Windows Version:	Windows 8 or 8.1
»»»  Processor Information:	x86 (AMD or Intel) - 32 Processors
»»»  Tester Name:	PMF21124-494 (100V)
»»»  Tester S/N:	PMF21124-494
»»»  Internal Amp Type:	100V RevK 270k
»»»  Internal Amp S/N:	iAB2-596/K     
»»»  Execution Count:	1
»»»»»»»»»»»»»»»»»»»»»»»»»»»»»»»»»»»»»»»»»»««««««««««««««««««««««««««««««««««««««««««

Stored:	6/12/2025 - 16:23:9
Configured:	06/12/25 03:03:03 PM
Executed:	06/12/25 04:22:24 PM

»»»»»»»»»»»»»»»»»»»»»»»»»»»»»»»»»»» Sample Info ««««««««««««««««««««««««««««««««««««
Sample Name:	
Lot Name:	
Wafer Name:	
Die Row/Column:	0/0
Capacitor Number:	0
Sample Area (cm2):	1.00e-04
Sample Thickness (microns):	3.00e-01

Amplifier:	Internal

»»»»»»»»»»»»»»»»»»»»»»»»»»»»»»»»»»» Tester Info «««««««««««««««««««««««««««««««««««
Tester Name:	PMF21124-494 (100V)
Tester Serial Number:	PMF21124-494
Return Signal Amp. Level:	0.19 [Index: 3]

»»»»»»»»»»»»»»»»»»»»»»»»»»»»»»»» Hysteresis Info ««««««««««««««««««««««««««««««««««
Task Name:	Hyst-1570
Volts:	20.00
Field:	666.67 (kV/cm)
DCBias:	0.00
DCField:	0.00 (kV/cm)
Hysteresis Period (ms):	2.00e+02
Preset:	Enabled
Preset Delay (ms):	1.00e+03
Profile:	Standard Bipolar

»»»»»»»»»»»»»»»»»»»»»»»»»»»»»»»»»»»»»» Data «««««««««««««««««««««««««««««««««««««««
Points:	2009

Valid Data

Point	Time (ms)	Drive Voltage	Measured Polarization (uC/cm2)	Capacitance (uF)	Normalized Capacitance (uF/cm2)	Dielectric Constant	Instantaneous Current (mA)
   1	0.0000e+00	0.0016	1.721838	0.000324	3.243868	1.099052	0.000130
   2	9.9500e-02	0.0305	1.851027	0.000324	3.243868	1.099052	0.000130
   3	1.9900e-01	0.0706	2.028661	0.000446	4.460319	1.511197	0.000179
   4	2.9850e-01	0.1091	2.133626	0.000264	2.635643	0.892980	0.000105
   5	3.9800e-01	0.1524	2.339520	0.000517	5.169915	1.751615	0.000207
   6	4.9750e-01	0.1909	2.525228	0.000466	4.663061	1.579888	0.000187
   7	5.9700e-01	0.2262	2.723048	0.000497	4.967173	1.682924	0.000199
   8	6.9650e-01	0.2647	2.856274	0.000335	3.345239	1.133398	0.000134
   9	7.9600e-01	0.3064	3.029870	0.000436	4.358948	1.476852	0.000174
  10	8.9550e-01	0.3417	3.138873	0.000274	2.737014	0.927325	0.000110
  11	9.9500e-01	0.3946	3.324581	0.000466	4.663061	1.579888	0.000187
  12	1.0945e+00	0.4347	3.477992	0.000385	3.852093	1.305125	0.000154
  13	1.1940e+00	0.4813	3.574884	0.000243	2.432901	0.824289	0.000097
  14	1.2935e+00	0.5150	3.776740	0.000507	5.068544	1.717269	0.000203
  15	1.3930e+00	0.5438	3.905929	0.000324	3.243868	1.099052	0.000130
  16	1.4925e+00	0.5904	4.047229	0.000355	3.547981	1.202088	0.000142
  17	1.5920e+00	0.6337	4.220825	0.000436	4.358948	1.476852	0.000174
  18	1.6915e+00	0.6722	4.378274	0.000395	3.953464	1.339470	0.000158
  19	1.7910e+00	0.7091	4.551871	0.000436	4.358948	1.476852	0.000174
  20	1.8905e+00	0.7444	4.681059	0.000324	3.243868	1.099052	0.000130
  21	1.9900e+00	0.7845	4.870804	0.000476	4.764431	1.614233	0.000191
  22	2.0895e+00	0.8310	5.028253	0.000395	3.953464	1.339470	0.000158
  23	2.1890e+00	0.8695	5.197812	0.000426	4.257577	1.442506	0.000170
  24	2.2885e+00	0.8936	5.367372	0.000426	4.257577	1.442506	0.000170
  25	2.3880e+00	0.9529	5.561154	0.000487	4.865802	1.648578	0.000195
  26	2.4875e+00	0.9898	5.746863	0.000466	4.663061	1.579888	0.000187
  27	2.5870e+00	1.0299	5.888162	0.000355	3.547981	1.202088	0.000142
  28	2.6865e+00	1.0652	6.081945	0.000487	4.865802	1.648578	0.000195
  29	2.7860e+00	1.1021	6.231319	0.000375	3.750723	1.270779	0.000150
  30	2.8855e+00	1.1679	6.372619	0.000355	3.547981	1.202088	0.000142
  31	2.9850e+00	1.1903	6.505844	0.000335	3.345239	1.133398	0.000134
  32	3.0845e+00	1.2256	6.703664	0.000497	4.967173	1.682924	0.000199
  33	3.1840e+00	1.2722	6.828815	0.000314	3.142497	1.064707	0.000126
  34	3.2835e+00	1.3123	7.026635	0.000497	4.967173	1.682924	0.000199
  35	3.3830e+00	1.3460	7.139675	0.000284	2.838385	0.961671	0.000114
  36	3.4825e+00	1.3909	7.337494	0.000497	4.967173	1.682924	0.000199
  37	3.5820e+00	1.4230	7.515128	0.000446	4.460319	1.511197	0.000179
  38	3.6815e+00	1.4679	7.652391	0.000345	3.446610	1.167743	0.000138
  39	3.7810e+00	1.5096	7.817913	0.000416	4.156206	1.408161	0.000166
  40	3.8805e+00	1.5417	8.011696	0.000487	4.865802	1.648578	0.000195
  41	3.9800e+00	1.5882	8.161070	0.000375	3.750723	1.270779	0.000150
  42	4.0795e+00	1.6235	8.302370	0.000355	3.547981	1.202088	0.000142
  43	4.1790e+00	1.6700	8.508264	0.000517	5.169915	1.751615	0.000207
  44	4.2785e+00	1.7005	8.702046	0.000487	4.865802	1.648578	0.000195
  45	4.3780e+00	1.7534	8.899866	0.000497	4.967173	1.682924	0.000199
  46	4.4775e+00	1.7823	9.061351	0.000405	4.054835	1.373815	0.000162
  47	4.5770e+00	1.8304	9.182465	0.000304	3.041126	1.030362	0.000122
  48	4.6765e+00	1.8641	9.364136	0.000456	4.561690	1.545542	0.000183
  49	4.7760e+00	1.8994	9.481213	0.000294	2.939756	0.996016	0.000118
  50	4.8755e+00	1.9572	9.679033	0.000497	4.967173	1.682924	0.000199
  51	4.9750e+00	1.9876	9.836481	0.000395	3.953464	1.339470	0.000158
  52	5.0745e+00	2.0181	10.010078	0.000436	4.358948	1.476852	0.000174
  53	5.1740e+00	2.0743	10.163489	0.000385	3.852093	1.305125	0.000154
  54	5.2735e+00	2.1031	10.365346	0.000507	5.068544	1.717269	0.000203
  55	5.3730e+00	2.1384	10.498571	0.000335	3.345239	1.133398	0.000134
  56	5.4725e+00	2.1866	10.720614	0.000558	5.575398	1.888996	0.000223
  57	5.5720e+00	2.2219	10.878062	0.000395	3.953464	1.339470	0.000158
  58	5.6715e+00	2.2652	11.039548	0.000405	4.054835	1.373815	0.000162
  59	5.7710e+00	2.3005	11.201033	0.000405	4.054835	1.373815	0.000162
  60	5.8705e+00	2.3390	11.378667	0.000446	4.460319	1.511197	0.000179
  61	5.9700e+00	2.3887	11.556301	0.000446	4.460319	1.511197	0.000179
  62	6.0695e+00	2.4256	11.758158	0.000507	5.068544	1.717269	0.000203
  63	6.1690e+00	2.4689	11.943866	0.000466	4.663061	1.579888	0.000187
  64	6.2685e+00	2.5058	12.101314	0.000395	3.953464	1.339470	0.000158
  65	6.3680e+00	2.5555	12.254726	0.000385	3.852093	1.305125	0.000154
  66	6.4675e+00	2.5716	12.396025	0.000355	3.547981	1.202088	0.000142
  67	6.5670e+00	2.6245	12.569622	0.000436	4.358948	1.476852	0.000174
  68	6.6665e+00	2.6662	12.694773	0.000314	3.142497	1.064707	0.000126
  69	6.7660e+00	2.7047	12.888556	0.000487	4.865802	1.648578	0.000195
  70	6.8655e+00	2.7464	13.033893	0.000365	3.649352	1.236434	0.000146
  71	6.9650e+00	2.7849	13.239787	0.000517	5.169915	1.751615	0.000207
  72	7.0645e+00	2.8299	13.385124	0.000365	3.649352	1.236434	0.000146
  73	7.1640e+00	2.8668	13.562758	0.000446	4.460319	1.511197	0.000179
  74	7.2635e+00	2.8940	13.724243	0.000405	4.054835	1.373815	0.000162
  75	7.3630e+00	2.9454	13.881691	0.000395	3.953464	1.339470	0.000158
  76	7.4625e+00	2.9759	14.083548	0.000507	5.068544	1.717269	0.000203
  77	7.5620e+00	3.0144	14.208699	0.000314	3.142497	1.064707	0.000126
  78	7.6615e+00	3.0593	14.394407	0.000466	4.663061	1.579888	0.000187
  79	7.7610e+00	3.0930	14.640673	0.000618	6.183624	2.095068	0.000248
  80	7.8605e+00	3.1379	14.777935	0.000345	3.446610	1.167743	0.000138
  81	7.9600e+00	3.1764	14.919235	0.000355	3.547981	1.202088	0.000142
  82	8.0595e+00	3.2181	15.044386	0.000314	3.142497	1.064707	0.000126
  83	8.1590e+00	3.2646	15.242206	0.000497	4.967173	1.682924	0.000199
  84	8.2585e+00	3.2983	15.383506	0.000355	3.547981	1.202088	0.000142
  85	8.3580e+00	3.3352	15.597474	0.000537	5.372657	1.820305	0.000215
  86	8.4575e+00	3.3769	15.706477	0.000274	2.737014	0.927325	0.000110
  87	8.5570e+00	3.4154	15.904296	0.000497	4.967173	1.682924	0.000199
  88	8.6565e+00	3.4619	16.053670	0.000375	3.750723	1.270779	0.000150
  89	8.7560e+00	3.4972	16.215156	0.000405	4.054835	1.373815	0.000162
  90	8.8555e+00	3.5373	16.368567	0.000385	3.852093	1.305125	0.000154
  91	8.9550e+00	3.5839	16.554275	0.000466	4.663061	1.579888	0.000187
  92	9.0545e+00	3.6159	16.723835	0.000426	4.257577	1.442506	0.000170
  93	9.1540e+00	3.6593	16.873209	0.000375	3.750723	1.270779	0.000150
  94	9.2535e+00	3.6994	17.050843	0.000446	4.460319	1.511197	0.000179
  95	9.3530e+00	3.7363	17.224440	0.000436	4.358948	1.476852	0.000174
  96	9.4525e+00	3.7812	17.389962	0.000416	4.156206	1.408161	0.000166
  97	9.5520e+00	3.8165	17.583745	0.000487	4.865802	1.648578	0.000195
  98	9.6515e+00	3.8550	17.716970	0.000335	3.345239	1.133398	0.000134
  99	9.7510e+00	3.8935	17.910753	0.000487	4.865802	1.648578	0.000195
 100	9.8505e+00	3.9368	18.060127	0.000375	3.750723	1.270779	0.000150
 101	9.9500e+00	3.9753	18.213538	0.000385	3.852093	1.305125	0.000154
 102	1.0050e+01	4.0170	18.379060	0.000416	4.156206	1.408161	0.000166
 103	1.0149e+01	4.0555	18.528434	0.000375	3.750723	1.270779	0.000150
 104	1.0248e+01	4.0940	18.730291	0.000507	5.068544	1.717269	0.000203
 105	1.0348e+01	4.1437	18.871591	0.000355	3.547981	1.202088	0.000142
 106	1.0447e+01	4.1774	19.012891	0.000355	3.547981	1.202088	0.000142
 107	1.0547e+01	4.2223	19.178413	0.000416	4.156206	1.408161	0.000166
 108	1.0646e+01	4.2528	19.352010	0.000436	4.358948	1.476852	0.000174
 109	1.0746e+01	4.3009	19.525607	0.000436	4.358948	1.476852	0.000174
 110	1.0845e+01	4.3443	19.703241	0.000446	4.460319	1.511197	0.000179
 111	1.0945e+01	4.3780	19.860689	0.000395	3.953464	1.339470	0.000158
 112	1.1044e+01	4.4116	19.993915	0.000335	3.345239	1.133398	0.000134
 113	1.1144e+01	4.4598	20.159437	0.000416	4.156206	1.408161	0.000166
 114	1.1243e+01	4.4838	20.341108	0.000456	4.561690	1.545542	0.000183
 115	1.1343e+01	4.5368	20.530854	0.000476	4.764431	1.614233	0.000191
 116	1.1443e+01	4.5785	20.684265	0.000385	3.852093	1.305125	0.000154
 117	1.1542e+01	4.6250	20.825565	0.000355	3.547981	1.202088	0.000142
 118	1.1642e+01	4.6619	21.003199	0.000446	4.460319	1.511197	0.000179
 119	1.1741e+01	4.6940	21.164684	0.000405	4.054835	1.373815	0.000162
 120	1.1841e+01	4.7325	21.261575	0.000243	2.432901	0.824289	0.000097
 121	1.1940e+01	4.7742	21.439209	0.000446	4.460319	1.511197	0.000179
 122	1.2040e+01	4.8191	21.612806	0.000436	4.358948	1.476852	0.000174
 123	1.2139e+01	4.8608	21.750069	0.000345	3.446610	1.167743	0.000138
 124	1.2239e+01	4.8961	21.931740	0.000456	4.561690	1.545542	0.000183
 125	1.2338e+01	4.9314	22.089188	0.000395	3.953464	1.339470	0.000158
 126	1.2438e+01	4.9715	22.254711	0.000416	4.156206	1.408161	0.000166
 127	1.2537e+01	5.0084	22.412159	0.000395	3.953464	1.339470	0.000158
 128	1.2636e+01	5.0565	22.565570	0.000385	3.852093	1.305125	0.000154
 129	1.2736e+01	5.0934	22.731093	0.000416	4.156206	1.408161	0.000166
 130	1.2835e+01	5.1271	22.848170	0.000294	2.939756	0.996016	0.000118
 131	1.2935e+01	5.1769	23.037915	0.000476	4.764431	1.614233	0.000191
 132	1.3034e+01	5.2122	23.255920	0.000547	5.474028	1.854651	0.000219
 133	1.3134e+01	5.2474	23.405294	0.000375	3.750723	1.270779	0.000150
 134	1.3233e+01	5.2988	23.502186	0.000243	2.432901	0.824289	0.000097
 135	1.3333e+01	5.3293	23.667708	0.000416	4.156206	1.408161	0.000166
 136	1.3432e+01	5.3694	23.833231	0.000416	4.156206	1.408161	0.000166
 137	1.3532e+01	5.4111	23.978568	0.000365	3.649352	1.236434	0.000146
 138	1.3632e+01	5.4480	24.127942	0.000375	3.750723	1.270779	0.000150
 139	1.3731e+01	5.4977	24.281353	0.000385	3.852093	1.305125	0.000154
 140	1.3831e+01	5.5394	24.438801	0.000395	3.953464	1.339470	0.000158
 141	1.3930e+01	5.5699	24.559915	0.000304	3.041126	1.030362	0.000122
 142	1.4030e+01	5.6100	24.753698	0.000487	4.865802	1.648578	0.000195
 143	1.4129e+01	5.6565	24.890960	0.000345	3.446610	1.167743	0.000138
 144	1.4229e+01	5.6806	25.064557	0.000436	4.358948	1.476852	0.000174
 145	1.4328e+01	5.7287	25.213931	0.000375	3.750723	1.270779	0.000150
 146	1.4428e+01	5.7704	25.379454	0.000416	4.156206	1.408161	0.000166
 147	1.4527e+01	5.8169	25.516716	0.000345	3.446610	1.167743	0.000138
 148	1.4627e+01	5.8571	25.658016	0.000355	3.547981	1.202088	0.000142
 149	1.4726e+01	5.8779	25.843724	0.000466	4.663061	1.579888	0.000187
 150	1.4825e+01	5.9341	26.061730	0.000547	5.474028	1.854651	0.000219
 151	1.4925e+01	5.9645	26.142472	0.000203	2.027418	0.686908	0.000081
 152	1.5024e+01	6.0143	26.312032	0.000426	4.257577	1.442506	0.000170
 153	1.5124e+01	6.0480	26.453332	0.000355	3.547981	1.202088	0.000142
 154	1.5223e+01	6.0929	26.598669	0.000365	3.649352	1.236434	0.000146
 155	1.5323e+01	6.1266	26.760154	0.000405	4.054835	1.373815	0.000162
 156	1.5422e+01	6.1731	26.889343	0.000324	3.243868	1.099052	0.000130
 157	1.5522e+01	6.2036	27.091199	0.000507	5.068544	1.717269	0.000203
 158	1.5621e+01	6.2453	27.200202	0.000274	2.737014	0.927325	0.000110
 159	1.5721e+01	6.2918	27.373799	0.000436	4.358948	1.476852	0.000174
 160	1.5820e+01	6.3319	27.507024	0.000335	3.345239	1.133398	0.000134
 161	1.5920e+01	6.3688	27.648324	0.000355	3.547981	1.202088	0.000142
 162	1.6020e+01	6.4121	27.834032	0.000466	4.663061	1.579888	0.000187
 163	1.6119e+01	6.4458	27.943035	0.000274	2.737014	0.927325	0.000110
 164	1.6218e+01	6.4891	28.120669	0.000446	4.460319	1.511197	0.000179
 165	1.6318e+01	6.5276	28.237746	0.000294	2.939756	0.996016	0.000118
 166	1.6418e+01	6.5629	28.439603	0.000507	5.068544	1.717269	0.000203
 167	1.6517e+01	6.5998	28.588977	0.000375	3.750723	1.270779	0.000150
 168	1.6616e+01	6.6495	28.762574	0.000436	4.358948	1.476852	0.000174
 169	1.6716e+01	6.6880	28.895799	0.000335	3.345239	1.133398	0.000134
 170	1.6816e+01	6.7314	29.033062	0.000345	3.446610	1.167743	0.000138
 171	1.6915e+01	6.7715	29.125916	0.000233	2.331530	0.789944	0.000093
 172	1.7015e+01	6.8196	29.315661	0.000476	4.764431	1.614233	0.000191
 173	1.7114e+01	6.8581	29.469072	0.000385	3.852093	1.305125	0.000154
 174	1.7213e+01	6.8870	29.582112	0.000284	2.838385	0.961671	0.000114
 175	1.7313e+01	6.9207	29.715338	0.000335	3.345239	1.133398	0.000134
 176	1.7413e+01	6.9624	29.884897	0.000426	4.257577	1.442506	0.000170
 177	1.7512e+01	7.0073	30.030234	0.000365	3.649352	1.236434	0.000146
 178	1.7611e+01	7.0394	30.187682	0.000395	3.953464	1.339470	0.000158
 179	1.7711e+01	7.0827	30.353205	0.000416	4.156206	1.408161	0.000166
 180	1.7811e+01	7.1244	30.498542	0.000365	3.649352	1.236434	0.000146
 181	1.7910e+01	7.1581	30.623693	0.000314	3.142497	1.064707	0.000126
 182	1.8009e+01	7.2126	30.724622	0.000253	2.534272	0.858635	0.000101
 183	1.8109e+01	7.2511	30.914367	0.000476	4.764431	1.614233	0.000191
 184	1.8209e+01	7.2864	31.087964	0.000436	4.358948	1.476852	0.000174
 185	1.8308e+01	7.3265	31.229264	0.000355	3.547981	1.202088	0.000142
 186	1.8407e+01	7.3650	31.398823	0.000426	4.257577	1.442506	0.000170
 187	1.8507e+01	7.4051	31.519937	0.000304	3.041126	1.030362	0.000122
 188	1.8607e+01	7.4404	31.673348	0.000385	3.852093	1.305125	0.000154
 189	1.8706e+01	7.4854	31.814648	0.000355	3.547981	1.202088	0.000142
 190	1.8805e+01	7.5174	31.939799	0.000314	3.142497	1.064707	0.000126
 191	1.8905e+01	7.5704	32.073025	0.000335	3.345239	1.133398	0.000134
 192	1.9005e+01	7.5976	32.226436	0.000385	3.852093	1.305125	0.000154
 193	1.9104e+01	7.6442	32.379847	0.000385	3.852093	1.305125	0.000154
 194	1.9203e+01	7.6763	32.509036	0.000324	3.243868	1.099052	0.000130
 195	1.9303e+01	7.7324	32.666484	0.000395	3.953464	1.339470	0.000158
 196	1.9402e+01	7.7661	32.836044	0.000426	4.257577	1.442506	0.000170
 197	1.9502e+01	7.7998	32.936972	0.000253	2.534272	0.858635	0.000101
 198	1.9602e+01	7.8447	33.098457	0.000405	4.054835	1.373815	0.000162
 199	1.9701e+01	7.8720	33.251869	0.000385	3.852093	1.305125	0.000154
 200	1.9800e+01	7.9121	33.401243	0.000375	3.750723	1.270779	0.000150
 201	1.9900e+01	7.9570	33.534468	0.000335	3.345239	1.133398	0.000134
 202	2.0000e+01	8.0003	33.659619	0.000314	3.142497	1.064707	0.000126
 203	2.0099e+01	8.0388	33.861476	0.000507	5.068544	1.717269	0.000203
 204	2.0198e+01	8.0869	33.962404	0.000253	2.534272	0.858635	0.000101
 205	2.0298e+01	8.1238	34.063333	0.000253	2.534272	0.858635	0.000101
 206	2.0398e+01	8.1688	34.281338	0.000547	5.474028	1.854651	0.000219
 207	2.0497e+01	8.1944	34.402452	0.000304	3.041126	1.030362	0.000122
 208	2.0596e+01	8.2345	34.519529	0.000294	2.939756	0.996016	0.000118
 209	2.0696e+01	8.2891	34.697163	0.000446	4.460319	1.511197	0.000179
 210	2.0796e+01	8.3163	34.826351	0.000324	3.243868	1.099052	0.000130
 211	2.0895e+01	8.3613	34.955540	0.000324	3.243868	1.099052	0.000130
 212	2.0994e+01	8.3998	35.088765	0.000335	3.345239	1.133398	0.000134
 213	2.1094e+01	8.4351	35.230065	0.000355	3.547981	1.202088	0.000142
 214	2.1194e+01	8.4864	35.359253	0.000324	3.243868	1.099052	0.000130
 215	2.1293e+01	8.5217	35.516702	0.000395	3.953464	1.339470	0.000158
 216	2.1392e+01	8.5602	35.670113	0.000385	3.852093	1.305125	0.000154
 217	2.1492e+01	8.5939	35.779115	0.000274	2.737014	0.927325	0.000110
 218	2.1591e+01	8.6388	35.928490	0.000375	3.750723	1.270779	0.000150
 219	2.1691e+01	8.6821	36.045566	0.000294	2.939756	0.996016	0.000118
 220	2.1791e+01	8.7190	36.231275	0.000466	4.663061	1.579888	0.000187
 221	2.1890e+01	8.7591	36.372574	0.000355	3.547981	1.202088	0.000142
 222	2.1989e+01	8.8024	36.525986	0.000385	3.852093	1.305125	0.000154
 223	2.2089e+01	8.8377	36.643063	0.000294	2.939756	0.996016	0.000118
 224	2.2189e+01	8.8746	36.812622	0.000426	4.257577	1.442506	0.000170
 225	2.2288e+01	8.9227	36.893365	0.000203	2.027418	0.686908	0.000081
 226	2.2387e+01	8.9628	37.038702	0.000365	3.649352	1.236434	0.000146
 227	2.2487e+01	8.9949	37.192113	0.000385	3.852093	1.305125	0.000154
 228	2.2587e+01	9.0399	37.297079	0.000264	2.635643	0.892980	0.000105
 229	2.2686e+01	9.0735	37.446453	0.000375	3.750723	1.270779	0.000150
 230	2.2785e+01	9.1201	37.599864	0.000385	3.852093	1.305125	0.000154
 231	2.2885e+01	9.1554	37.745201	0.000365	3.649352	1.236434	0.000146
 232	2.2985e+01	9.1971	37.894575	0.000375	3.750723	1.270779	0.000150
 233	2.3084e+01	9.2420	38.027800	0.000335	3.345239	1.133398	0.000134
 234	2.3183e+01	9.2677	38.116617	0.000223	2.230159	0.755598	0.000089
 235	2.3283e+01	9.3206	38.270028	0.000385	3.852093	1.305125	0.000154
 236	2.3383e+01	9.3479	38.415365	0.000365	3.649352	1.236434	0.000146
 237	2.3482e+01	9.3976	38.560702	0.000365	3.649352	1.236434	0.000146
 238	2.3581e+01	9.4425	38.689890	0.000324	3.243868	1.099052	0.000130
 239	2.3681e+01	9.4682	38.831190	0.000355	3.547981	1.202088	0.000142
 240	2.3780e+01	9.5147	38.948267	0.000294	2.939756	0.996016	0.000118
 241	2.3880e+01	9.5516	39.105715	0.000395	3.953464	1.339470	0.000158
 242	2.3980e+01	9.6029	39.247015	0.000355	3.547981	1.202088	0.000142
 243	2.4079e+01	9.6446	39.376203	0.000324	3.243868	1.099052	0.000130
 244	2.4178e+01	9.6735	39.513466	0.000345	3.446610	1.167743	0.000138
 245	2.4278e+01	9.7088	39.646692	0.000335	3.345239	1.133398	0.000134
 246	2.4378e+01	9.7521	39.759731	0.000284	2.838385	0.961671	0.000114
 247	2.4477e+01	9.7987	39.909105	0.000375	3.750723	1.270779	0.000150
 248	2.4576e+01	9.8372	40.042331	0.000335	3.345239	1.133398	0.000134
 249	2.4676e+01	9.8757	40.187668	0.000365	3.649352	1.236434	0.000146
 250	2.4776e+01	9.9126	40.296670	0.000274	2.737014	0.927325	0.000110
 251	2.4875e+01	9.9478	40.450082	0.000385	3.852093	1.305125	0.000154
 252	2.4974e+01	9.9863	40.571196	0.000304	3.041126	1.030362	0.000122
 253	2.5074e+01	10.0297	40.716532	0.000365	3.649352	1.236434	0.000146
 254	2.5174e+01	10.0730	40.825535	0.000274	2.737014	0.927325	0.000110
 255	2.5273e+01	10.1163	40.970872	0.000365	3.649352	1.236434	0.000146
 256	2.5372e+01	10.1500	41.116209	0.000365	3.649352	1.236434	0.000146
 257	2.5472e+01	10.1965	41.245397	0.000324	3.243868	1.099052	0.000130
 258	2.5572e+01	10.2414	41.382660	0.000345	3.446610	1.167743	0.000138
 259	2.5671e+01	10.2783	41.487625	0.000264	2.635643	0.892980	0.000105
 260	2.5770e+01	10.3088	41.653148	0.000416	4.156206	1.408161	0.000166
 261	2.5870e+01	10.3505	41.774262	0.000304	3.041126	1.030362	0.000122
 262	2.5970e+01	10.3842	41.891339	0.000294	2.939756	0.996016	0.000118
 263	2.6069e+01	10.4339	42.052824	0.000405	4.054835	1.373815	0.000162
 264	2.6169e+01	10.4692	42.182013	0.000324	3.243868	1.099052	0.000130
 265	2.6268e+01	10.5190	42.303127	0.000304	3.041126	1.030362	0.000122
 266	2.6367e+01	10.5462	42.436352	0.000335	3.345239	1.133398	0.000134
 267	2.6467e+01	10.5960	42.569578	0.000335	3.345239	1.133398	0.000134
 268	2.6567e+01	10.6329	42.698766	0.000324	3.243868	1.099052	0.000130
 269	2.6666e+01	10.6762	42.840066	0.000355	3.547981	1.202088	0.000142
 270	2.6765e+01	10.7147	42.912734	0.000182	1.824676	0.618217	0.000073
 271	2.6865e+01	10.7516	43.110554	0.000497	4.967173	1.682924	0.000199
 272	2.6965e+01	10.7853	43.199371	0.000223	2.230159	0.755598	0.000089
 273	2.7064e+01	10.8334	43.368931	0.000426	4.257577	1.442506	0.000170
 274	2.7163e+01	10.8655	43.477933	0.000274	2.737014	0.927325	0.000110
 275	2.7263e+01	10.9168	43.639419	0.000405	4.054835	1.373815	0.000162
 276	2.7363e+01	10.9521	43.732273	0.000233	2.331530	0.789944	0.000093
 277	2.7462e+01	10.9906	43.869535	0.000345	3.446610	1.167743	0.000138
 278	2.7561e+01	11.0275	43.998724	0.000324	3.243868	1.099052	0.000130
 279	2.7661e+01	11.0804	44.131949	0.000335	3.345239	1.133398	0.000134
 280	2.7761e+01	11.1029	44.220766	0.000223	2.230159	0.755598	0.000089
 281	2.7860e+01	11.1494	44.402437	0.000456	4.561690	1.545542	0.000183
 282	2.7959e+01	11.1975	44.479143	0.000193	1.926047	0.652562	0.000077
 283	2.8059e+01	11.2264	44.616406	0.000345	3.446610	1.167743	0.000138
 284	2.8159e+01	11.2697	44.749631	0.000335	3.345239	1.133398	0.000134
 285	2.8258e+01	11.3082	44.866708	0.000294	2.939756	0.996016	0.000118
 286	2.8358e+01	11.3499	44.995896	0.000324	3.243868	1.099052	0.000130
 287	2.8457e+01	11.3917	45.117010	0.000304	3.041126	1.030362	0.000122
 288	2.8556e+01	11.4302	45.262347	0.000365	3.649352	1.236434	0.000146
 289	2.8656e+01	11.4622	45.423833	0.000405	4.054835	1.373815	0.000162
 290	2.8756e+01	11.5040	45.536873	0.000284	2.838385	0.961671	0.000114
 291	2.8855e+01	11.5489	45.698358	0.000405	4.054835	1.373815	0.000162
 292	2.8954e+01	11.5810	45.783138	0.000213	2.128789	0.721253	0.000085
 293	2.9054e+01	11.6339	45.912326	0.000324	3.243868	1.099052	0.000130
 294	2.9154e+01	11.6676	46.029403	0.000294	2.939756	0.996016	0.000118
 295	2.9253e+01	11.7157	46.142443	0.000284	2.838385	0.961671	0.000114
 296	2.9352e+01	11.7526	46.263557	0.000304	3.041126	1.030362	0.000122
 297	2.9452e+01	11.7847	46.376597	0.000284	2.838385	0.961671	0.000114
 298	2.9552e+01	11.8376	46.509822	0.000335	3.345239	1.133398	0.000134
 299	2.9651e+01	11.8601	46.659196	0.000375	3.750723	1.270779	0.000150
 300	2.9750e+01	11.9050	46.764162	0.000264	2.635643	0.892980	0.000105
 301	2.9850e+01	11.9499	46.893350	0.000324	3.243868	1.099052	0.000130
 302	2.9950e+01	11.9884	47.014464	0.000304	3.041126	1.030362	0.000122
 303	3.0049e+01	12.0317	47.139615	0.000314	3.142497	1.064707	0.000126
 304	3.0148e+01	12.0622	47.240544	0.000253	2.534272	0.858635	0.000101
 305	3.0248e+01	12.1039	47.397992	0.000395	3.953464	1.339470	0.000158
 306	3.0348e+01	12.1328	47.535255	0.000345	3.446610	1.167743	0.000138
 307	3.0447e+01	12.1825	47.632146	0.000243	2.432901	0.824289	0.000097
 308	3.0547e+01	12.2243	47.785557	0.000385	3.852093	1.305125	0.000154
 309	3.0646e+01	12.2644	47.878411	0.000233	2.331530	0.789944	0.000093
 310	3.0745e+01	12.3029	47.999525	0.000304	3.041126	1.030362	0.000122
 311	3.0845e+01	12.3510	48.156974	0.000395	3.953464	1.339470	0.000158
 312	3.0945e+01	12.3799	48.249828	0.000233	2.331530	0.789944	0.000093
 313	3.1044e+01	12.4248	48.387090	0.000345	3.446610	1.167743	0.000138
 314	3.1143e+01	12.4585	48.524353	0.000345	3.446610	1.167743	0.000138
 315	3.1243e+01	12.5082	48.629319	0.000264	2.635643	0.892980	0.000105
 316	3.1343e+01	12.5371	48.758507	0.000324	3.243868	1.099052	0.000130
 317	3.1442e+01	12.5916	48.887695	0.000324	3.243868	1.099052	0.000130
 318	3.1541e+01	12.6237	49.000735	0.000284	2.838385	0.961671	0.000114
 319	3.1641e+01	12.6558	49.121849	0.000304	3.041126	1.030362	0.000122
 320	3.1741e+01	12.7055	49.271223	0.000375	3.750723	1.270779	0.000150
 321	3.1840e+01	12.7408	49.376189	0.000264	2.635643	0.892980	0.000105
 322	3.1939e+01	12.7922	49.501340	0.000314	3.142497	1.064707	0.000126
 323	3.2039e+01	12.8178	49.642640	0.000355	3.547981	1.202088	0.000142
 324	3.2139e+01	12.8643	49.739531	0.000243	2.432901	0.824289	0.000097
 325	3.2238e+01	12.8932	49.868719	0.000324	3.243868	1.099052	0.000130
 326	3.2337e+01	12.9462	50.010019	0.000355	3.547981	1.202088	0.000142
 327	3.2437e+01	12.9750	50.094799	0.000213	2.128789	0.721253	0.000085
 328	3.2536e+01	13.0200	50.191690	0.000243	2.432901	0.824289	0.000097
 329	3.2636e+01	13.0601	50.357213	0.000416	4.156206	1.408161	0.000166
 330	3.2736e+01	13.0986	50.482364	0.000314	3.142497	1.064707	0.000126
 331	3.2835e+01	13.1419	50.555032	0.000182	1.824676	0.618217	0.000073
 332	3.2934e+01	13.1836	50.692295	0.000345	3.446610	1.167743	0.000138
 333	3.3034e+01	13.2189	50.813409	0.000304	3.041126	1.030362	0.000122
 334	3.3133e+01	13.2622	50.954709	0.000355	3.547981	1.202088	0.000142
 335	3.3233e+01	13.3007	51.063711	0.000274	2.737014	0.927325	0.000110
 336	3.3333e+01	13.3344	51.172714	0.000274	2.737014	0.927325	0.000110
 337	3.3432e+01	13.3841	51.289791	0.000294	2.939756	0.996016	0.000118
 338	3.3532e+01	13.4226	51.390719	0.000253	2.534272	0.858635	0.000101
 339	3.3631e+01	13.4643	51.544131	0.000385	3.852093	1.305125	0.000154
 340	3.3730e+01	13.4916	51.641022	0.000243	2.432901	0.824289	0.000097
 341	3.3830e+01	13.5445	51.842879	0.000507	5.068544	1.717269	0.000203
 342	3.3929e+01	13.5766	51.935733	0.000233	2.331530	0.789944	0.000093
 343	3.4029e+01	13.6247	52.081070	0.000365	3.649352	1.236434	0.000146
 344	3.4129e+01	13.6552	52.194109	0.000284	2.838385	0.961671	0.000114
 345	3.4228e+01	13.7050	52.295038	0.000253	2.534272	0.858635	0.000101
 346	3.4328e+01	13.7386	52.383855	0.000223	2.230159	0.755598	0.000089
 347	3.4427e+01	13.7755	52.488820	0.000264	2.635643	0.892980	0.000105
 348	3.4526e+01	13.8205	52.593786	0.000264	2.635643	0.892980	0.000105
 349	3.4626e+01	13.8542	52.731048	0.000345	3.446610	1.167743	0.000138
 350	3.4725e+01	13.8943	52.823903	0.000233	2.331530	0.789944	0.000093
 351	3.4825e+01	13.9392	52.932905	0.000274	2.737014	0.927325	0.000110
 352	3.4925e+01	13.9713	53.049982	0.000294	2.939756	0.996016	0.000118
 353	3.5024e+01	14.0178	53.154948	0.000264	2.635643	0.892980	0.000105
 354	3.5123e+01	14.0547	53.276062	0.000304	3.041126	1.030362	0.000122
 355	3.5223e+01	14.1076	53.441584	0.000416	4.156206	1.408161	0.000166
 356	3.5322e+01	14.1413	53.538476	0.000243	2.432901	0.824289	0.000097
 357	3.5422e+01	14.1782	53.659590	0.000304	3.041126	1.030362	0.000122
 358	3.5522e+01	14.2151	53.804927	0.000365	3.649352	1.236434	0.000146
 359	3.5621e+01	14.2568	53.938152	0.000335	3.345239	1.133398	0.000134
 360	3.5721e+01	14.2985	54.083489	0.000365	3.649352	1.236434	0.000146
 361	3.5820e+01	14.3386	54.216714	0.000335	3.345239	1.133398	0.000134
 362	3.5919e+01	14.3868	54.309569	0.000233	2.331530	0.789944	0.000093
 363	3.6019e+01	14.4204	54.410497	0.000253	2.534272	0.858635	0.000101
 364	3.6118e+01	14.4541	54.519500	0.000274	2.737014	0.927325	0.000110
 365	3.6218e+01	14.4958	54.588131	0.000172	1.723305	0.583872	0.000069
 366	3.6318e+01	14.5327	54.693096	0.000264	2.635643	0.892980	0.000105
 367	3.6417e+01	14.5664	54.838433	0.000365	3.649352	1.236434	0.000146
 368	3.6517e+01	14.6146	54.927250	0.000223	2.230159	0.755598	0.000089
 369	3.6616e+01	14.6595	55.100847	0.000436	4.358948	1.476852	0.000174
 370	3.6715e+01	14.6948	55.213887	0.000284	2.838385	0.961671	0.000114
 371	3.6815e+01	14.7397	55.310778	0.000243	2.432901	0.824289	0.000097
 372	3.6914e+01	14.7686	55.395558	0.000213	2.128789	0.721253	0.000085
 373	3.7014e+01	14.8135	55.593378	0.000497	4.967173	1.682924	0.000199
 374	3.7114e+01	14.8568	55.686232	0.000233	2.331530	0.789944	0.000093
 375	3.7213e+01	14.8937	55.758900	0.000182	1.824676	0.618217	0.000073
 376	3.7313e+01	14.9418	55.924423	0.000416	4.156206	1.408161	0.000166
 377	3.7412e+01	14.9723	56.045537	0.000304	3.041126	1.030362	0.000122
 378	3.7511e+01	15.0076	56.190874	0.000365	3.649352	1.236434	0.000146
 379	3.7611e+01	15.0589	56.307951	0.000294	2.939756	0.996016	0.000118
 380	3.7711e+01	15.0958	56.380619	0.000182	1.824676	0.618217	0.000073
 381	3.7810e+01	15.1311	56.485585	0.000264	2.635643	0.892980	0.000105
 382	3.7910e+01	15.1680	56.582476	0.000243	2.432901	0.824289	0.000097
 383	3.8009e+01	15.2161	56.707627	0.000314	3.142497	1.064707	0.000126
 384	3.8108e+01	15.2546	56.840853	0.000335	3.345239	1.133398	0.000134
 385	3.8208e+01	15.2915	56.998301	0.000395	3.953464	1.339470	0.000158
 386	3.8307e+01	15.3284	57.042709	0.000112	1.115080	0.377799	0.000045
 387	3.8407e+01	15.3669	57.212269	0.000426	4.257577	1.442506	0.000170
 388	3.8507e+01	15.4119	57.321272	0.000274	2.737014	0.927325	0.000110
 389	3.8606e+01	15.4504	57.393940	0.000182	1.824676	0.618217	0.000073
 390	3.8706e+01	15.4905	57.511017	0.000294	2.939756	0.996016	0.000118
 391	3.8805e+01	15.5322	57.672503	0.000405	4.054835	1.373815	0.000162
 392	3.8904e+01	15.5771	57.773431	0.000253	2.534272	0.858635	0.000101
 393	3.9004e+01	15.6124	57.862248	0.000223	2.230159	0.755598	0.000089
 394	3.9103e+01	15.6509	58.023733	0.000405	4.054835	1.373815	0.000162
 395	3.9203e+01	15.6990	58.152922	0.000324	3.243868	1.099052	0.000130
 396	3.9303e+01	15.7343	58.249813	0.000243	2.432901	0.824289	0.000097
 397	3.9402e+01	15.7744	58.354779	0.000264	2.635643	0.892980	0.000105
 398	3.9502e+01	15.8209	58.443596	0.000223	2.230159	0.755598	0.000089
 399	3.9601e+01	15.8514	58.564710	0.000304	3.041126	1.030362	0.000122
 400	3.9700e+01	15.8899	58.689861	0.000314	3.142497	1.064707	0.000126
 401	3.9800e+01	15.9316	58.847309	0.000395	3.953464	1.339470	0.000158
 402	3.9900e+01	15.9733	58.919978	0.000182	1.824676	0.618217	0.000073
 403	3.9999e+01	16.0135	59.061277	0.000355	3.547981	1.202088	0.000142
 404	4.0099e+01	16.0487	59.142020	0.000203	2.027418	0.686908	0.000081
 405	4.0198e+01	16.0792	59.275245	0.000335	3.345239	1.133398	0.000134
 406	4.0297e+01	16.1274	59.364062	0.000223	2.230159	0.755598	0.000089
 407	4.0397e+01	16.1723	59.452879	0.000223	2.230159	0.755598	0.000089
 408	4.0496e+01	16.2140	59.578031	0.000314	3.142497	1.064707	0.000126
 409	4.0596e+01	16.2461	59.711256	0.000335	3.345239	1.133398	0.000134
 410	4.0696e+01	16.2974	59.824296	0.000284	2.838385	0.961671	0.000114
 411	4.0795e+01	16.3359	59.929261	0.000264	2.635643	0.892980	0.000105
 412	4.0895e+01	16.3712	60.062487	0.000335	3.345239	1.133398	0.000134
 413	4.0994e+01	16.4033	60.167452	0.000264	2.635643	0.892980	0.000105
 414	4.1093e+01	16.4546	60.316826	0.000375	3.750723	1.270779	0.000150
 415	4.1193e+01	16.4947	60.373346	0.000142	1.419192	0.480835	0.000057
 416	4.1292e+01	16.5332	60.538869	0.000416	4.156206	1.408161	0.000166
 417	4.1392e+01	16.5701	60.639797	0.000253	2.534272	0.858635	0.000101
 418	4.1492e+01	16.6070	60.700354	0.000152	1.520563	0.515181	0.000061
 419	4.1591e+01	16.6391	60.857803	0.000395	3.953464	1.339470	0.000158
 420	4.1691e+01	16.6920	60.966805	0.000274	2.737014	0.927325	0.000110
 421	4.1790e+01	16.7225	61.071771	0.000264	2.635643	0.892980	0.000105
 422	4.1889e+01	16.7723	61.204996	0.000335	3.345239	1.133398	0.000134
 423	4.1989e+01	16.8011	61.301888	0.000243	2.432901	0.824289	0.000097
 424	4.2089e+01	16.8493	61.410890	0.000274	2.737014	0.927325	0.000110
 425	4.2188e+01	16.8829	61.515856	0.000264	2.635643	0.892980	0.000105
 426	4.2288e+01	16.9279	61.653118	0.000345	3.446610	1.167743	0.000138
 427	4.2387e+01	16.9680	61.762121	0.000274	2.737014	0.927325	0.000110
 428	4.2486e+01	17.0001	61.875161	0.000284	2.838385	0.961671	0.000114
 429	4.2586e+01	17.0434	61.988201	0.000284	2.838385	0.961671	0.000114
 430	4.2685e+01	17.0867	62.125463	0.000345	3.446610	1.167743	0.000138
 431	4.2785e+01	17.1284	62.234466	0.000274	2.737014	0.927325	0.000110
 432	4.2885e+01	17.1637	62.347506	0.000284	2.838385	0.961671	0.000114
 433	4.2984e+01	17.2022	62.460546	0.000284	2.838385	0.961671	0.000114
 434	4.3084e+01	17.2439	62.557437	0.000243	2.432901	0.824289	0.000097
 435	4.3183e+01	17.2952	62.638180	0.000203	2.027418	0.686908	0.000081
 436	4.3282e+01	17.3193	62.791591	0.000385	3.852093	1.305125	0.000154
 437	4.3382e+01	17.3674	62.904631	0.000284	2.838385	0.961671	0.000114
 438	4.3481e+01	17.4043	62.965188	0.000152	1.520563	0.515181	0.000061
 439	4.3581e+01	17.4412	63.114562	0.000375	3.750723	1.270779	0.000150
 440	4.3681e+01	17.4813	63.211453	0.000243	2.432901	0.824289	0.000097
 441	4.3780e+01	17.5311	63.360827	0.000375	3.750723	1.270779	0.000150
 442	4.3880e+01	17.5599	63.453681	0.000233	2.331530	0.789944	0.000093
 443	4.3979e+01	17.5904	63.611129	0.000395	3.953464	1.339470	0.000158
 444	4.4078e+01	17.6450	63.699946	0.000223	2.230159	0.755598	0.000089
 445	4.4178e+01	17.6851	63.817023	0.000294	2.939756	0.996016	0.000118
 446	4.4278e+01	17.7220	63.909877	0.000233	2.331530	0.789944	0.000093
 447	4.4377e+01	17.7653	64.035029	0.000314	3.142497	1.064707	0.000126
 448	4.4477e+01	17.8038	64.176328	0.000355	3.547981	1.202088	0.000142
 449	4.4576e+01	17.8487	64.269182	0.000233	2.331530	0.789944	0.000093
 450	4.4675e+01	17.8856	64.370111	0.000253	2.534272	0.858635	0.000101
 451	4.4775e+01	17.9209	64.454891	0.000213	2.128789	0.721253	0.000085
 452	4.4874e+01	17.9594	64.567930	0.000284	2.838385	0.961671	0.000114
 453	4.4974e+01	18.0139	64.697119	0.000324	3.243868	1.099052	0.000130
 454	4.5074e+01	18.0476	64.765750	0.000172	1.723305	0.583872	0.000069
 455	4.5173e+01	18.0845	64.935310	0.000426	4.257577	1.442506	0.000170
 456	4.5273e+01	18.1214	65.036238	0.000253	2.534272	0.858635	0.000101
 457	4.5372e+01	18.1615	65.125055	0.000223	2.230159	0.755598	0.000089
 458	4.5471e+01	18.1856	65.209835	0.000213	2.128789	0.721253	0.000085
 459	4.5571e+01	18.2433	65.371320	0.000405	4.054835	1.373815	0.000162
 460	4.5670e+01	18.2915	65.464175	0.000233	2.331530	0.789944	0.000093
 461	4.5770e+01	18.3155	65.565103	0.000253	2.534272	0.858635	0.000101
 462	4.5870e+01	18.3604	65.682180	0.000294	2.939756	0.996016	0.000118
 463	4.5969e+01	18.4022	65.843665	0.000405	4.054835	1.373815	0.000162
 464	4.6069e+01	18.4358	65.940557	0.000243	2.432901	0.824289	0.000097
 465	4.6168e+01	18.4776	66.037448	0.000243	2.432901	0.824289	0.000097
 466	4.6267e+01	18.5161	66.186822	0.000375	3.750723	1.270779	0.000150
 467	4.6367e+01	18.5610	66.320047	0.000335	3.345239	1.133398	0.000134
 468	4.6467e+01	18.6011	66.376567	0.000142	1.419192	0.480835	0.000057
 469	4.6566e+01	18.6380	66.465384	0.000223	2.230159	0.755598	0.000089
 470	4.6666e+01	18.6749	66.582461	0.000294	2.939756	0.996016	0.000118
 471	4.6765e+01	18.7166	66.695501	0.000284	2.838385	0.961671	0.000114
 472	4.6864e+01	18.7551	66.816615	0.000304	3.041126	1.030362	0.000122
 473	4.6964e+01	18.8000	66.929655	0.000284	2.838385	0.961671	0.000114
 474	4.7063e+01	18.8337	67.026546	0.000243	2.432901	0.824289	0.000097
 475	4.7163e+01	18.8738	67.163809	0.000345	3.446610	1.167743	0.000138
 476	4.7263e+01	18.9235	67.268774	0.000264	2.635643	0.892980	0.000105
 477	4.7362e+01	18.9460	67.369703	0.000253	2.534272	0.858635	0.000101
 478	4.7462e+01	18.9941	67.474668	0.000264	2.635643	0.892980	0.000105
 479	4.7561e+01	19.0390	67.583671	0.000274	2.737014	0.927325	0.000110
 480	4.7660e+01	19.0663	67.708822	0.000314	3.142497	1.064707	0.000126
 481	4.7760e+01	19.1112	67.809750	0.000253	2.534272	0.858635	0.000101
 482	4.7859e+01	19.1594	68.003533	0.000487	4.865802	1.648578	0.000195
 483	4.7959e+01	19.1979	68.120610	0.000294	2.939756	0.996016	0.000118
 484	4.8059e+01	19.2396	68.217501	0.000243	2.432901	0.824289	0.000097
 485	4.8158e+01	19.2716	68.330541	0.000284	2.838385	0.961671	0.000114
 486	4.8258e+01	19.3214	68.403209	0.000182	1.824676	0.618217	0.000073
 487	4.8357e+01	19.3615	68.487989	0.000213	2.128789	0.721253	0.000085
 488	4.8456e+01	19.4000	68.609103	0.000304	3.041126	1.030362	0.000122
 489	4.8556e+01	19.4353	68.701957	0.000233	2.331530	0.789944	0.000093
 490	4.8656e+01	19.4706	68.819034	0.000294	2.939756	0.996016	0.000118
 491	4.8755e+01	19.5107	68.936111	0.000294	2.939756	0.996016	0.000118
 492	4.8855e+01	19.5524	69.028965	0.000233	2.331530	0.789944	0.000093
 493	4.8954e+01	19.5845	69.154117	0.000314	3.142497	1.064707	0.000126
 494	4.9053e+01	19.6422	69.263119	0.000274	2.737014	0.927325	0.000110
 495	4.9153e+01	19.6679	69.364048	0.000253	2.534272	0.858635	0.000101
 496	4.9252e+01	19.7096	69.517459	0.000385	3.852093	1.305125	0.000154
 497	4.9352e+01	19.7561	69.634536	0.000294	2.939756	0.996016	0.000118
 498	4.9452e+01	19.7946	69.775836	0.000355	3.547981	1.202088	0.000142
 499	4.9551e+01	19.8363	69.872727	0.000243	2.432901	0.824289	0.000097
 500	4.9651e+01	19.8748	70.014027	0.000355	3.547981	1.202088	0.000142
 501	4.9750e+01	19.9069	70.151289	0.000345	3.446610	1.167743	0.000138
 502	4.9849e+01	19.9534	70.248180	0.000243	2.432901	0.824289	0.000097
 503	4.9949e+01	19.9855	70.349109	0.000253	2.534272	0.858635	0.000101
 504	5.0048e+01	19.9534	70.272403	0.000193	1.926047	0.652562	-0.000077
 505	5.0148e+01	19.9133	70.159363	0.000284	2.838385	0.961671	-0.000114
 506	5.0248e+01	19.8716	70.123029	0.000091	0.912338	0.309108	-0.000037
 507	5.0347e+01	19.8412	70.062472	0.000152	1.520563	0.515181	-0.000061
 508	5.0447e+01	19.7930	69.973655	0.000223	2.230159	0.755598	-0.000089
 509	5.0546e+01	19.7497	69.909061	0.000162	1.621934	0.549526	-0.000065
 510	5.0645e+01	19.7240	69.864653	0.000112	1.115080	0.377799	-0.000045
 511	5.0745e+01	19.6823	69.771798	0.000233	2.331530	0.789944	-0.000093
 512	5.0844e+01	19.6374	69.703167	0.000172	1.723305	0.583872	-0.000069
 513	5.0944e+01	19.6037	69.618387	0.000213	2.128789	0.721253	-0.000085
 514	5.1044e+01	19.5588	69.561867	0.000142	1.419192	0.480835	-0.000057
 515	5.1143e+01	19.5219	69.493236	0.000172	1.723305	0.583872	-0.000069
 516	5.1242e+01	19.4786	69.424605	0.000172	1.723305	0.583872	-0.000069
 517	5.1342e+01	19.4353	69.380196	0.000112	1.115080	0.377799	-0.000045
 518	5.1441e+01	19.3984	69.299454	0.000203	2.027418	0.686908	-0.000081
 519	5.1541e+01	19.3631	69.255045	0.000112	1.115080	0.377799	-0.000045
 520	5.1641e+01	19.3198	69.178339	0.000193	1.926047	0.652562	-0.000077
 521	5.1740e+01	19.2813	69.117782	0.000152	1.520563	0.515181	-0.000061
 522	5.1840e+01	19.2412	68.968408	0.000375	3.750723	1.270779	-0.000150
 523	5.1939e+01	19.2027	68.871517	0.000243	2.432901	0.824289	-0.000097
 524	5.2038e+01	19.1529	68.790774	0.000203	2.027418	0.686908	-0.000081
 525	5.2138e+01	19.1176	68.689846	0.000253	2.534272	0.858635	-0.000101
 526	5.2237e+01	19.0791	68.637363	0.000132	1.317821	0.446490	-0.000053
 527	5.2337e+01	19.0374	68.564695	0.000182	1.824676	0.618217	-0.000073
 528	5.2437e+01	18.9989	68.443581	0.000304	3.041126	1.030362	-0.000122
 529	5.2536e+01	18.9556	68.374949	0.000172	1.723305	0.583872	-0.000069
 530	5.2636e+01	18.9107	68.318430	0.000142	1.419192	0.480835	-0.000057
 531	5.2735e+01	18.8786	68.245761	0.000182	1.824676	0.618217	-0.000073
 532	5.2834e+01	18.8497	68.173093	0.000182	1.824676	0.618217	-0.000073
 533	5.2934e+01	18.7984	68.072164	0.000253	2.534272	0.858635	-0.000101
 534	5.3033e+01	18.7663	68.003533	0.000172	1.723305	0.583872	-0.000069
 535	5.3133e+01	18.7182	67.963162	0.000101	1.013709	0.343454	-0.000041
 536	5.3233e+01	18.6861	67.910679	0.000132	1.317821	0.446490	-0.000053
 537	5.3332e+01	18.6444	67.813788	0.000243	2.432901	0.824289	-0.000097
 538	5.3431e+01	18.6091	67.720933	0.000233	2.331530	0.789944	-0.000093
 539	5.3531e+01	18.5674	67.688636	0.000081	0.810967	0.274763	-0.000032
 540	5.3630e+01	18.5257	67.535225	0.000385	3.852093	1.305125	-0.000154
 541	5.3730e+01	18.4840	67.406037	0.000324	3.243868	1.099052	-0.000130
 542	5.3830e+01	18.4310	67.305108	0.000253	2.534272	0.858635	-0.000101
 543	5.3929e+01	18.4006	67.252626	0.000132	1.317821	0.446490	-0.000053
 544	5.4029e+01	18.3653	67.163809	0.000223	2.230159	0.755598	-0.000089
 545	5.4128e+01	18.3219	67.046732	0.000294	2.939756	0.996016	-0.000118
 546	5.4227e+01	18.2786	66.986175	0.000152	1.520563	0.515181	-0.000061
 547	5.4327e+01	18.2433	66.889283	0.000243	2.432901	0.824289	-0.000097
 548	5.4426e+01	18.2032	66.784318	0.000264	2.635643	0.892980	-0.000105
 549	5.4526e+01	18.1551	66.727798	0.000142	1.419192	0.480835	-0.000057
 550	5.4626e+01	18.1246	66.638981	0.000223	2.230159	0.755598	-0.000089
 551	5.4725e+01	18.0861	66.594573	0.000112	1.115080	0.377799	-0.000045
 552	5.4825e+01	18.0460	66.558238	0.000091	0.912338	0.309108	-0.000037
 553	5.4924e+01	17.9995	66.441161	0.000294	2.939756	0.996016	-0.000118
 554	5.5023e+01	17.9610	66.348307	0.000233	2.331530	0.789944	-0.000093
 555	5.5123e+01	17.9177	66.303899	0.000112	1.115080	0.377799	-0.000045
 556	5.5222e+01	17.8888	66.174710	0.000324	3.243868	1.099052	-0.000130
 557	5.5322e+01	17.8471	66.061671	0.000284	2.838385	0.961671	-0.000114
 558	5.5422e+01	17.7925	65.956705	0.000264	2.635643	0.892980	-0.000105
 559	5.5521e+01	17.7733	65.888074	0.000172	1.723305	0.583872	-0.000069
 560	5.5620e+01	17.7268	65.783108	0.000264	2.635643	0.892980	-0.000105
 561	5.5720e+01	17.6802	65.649883	0.000335	3.345239	1.133398	-0.000134
 562	5.5819e+01	17.6353	65.577214	0.000182	1.824676	0.618217	-0.000073
 563	5.5919e+01	17.6081	65.480323	0.000243	2.432901	0.824289	-0.000097
 564	5.6019e+01	17.5696	65.399580	0.000203	2.027418	0.686908	-0.000081
 565	5.6118e+01	17.5214	65.375358	0.000061	0.608225	0.206072	-0.000024
 566	5.6218e+01	17.4829	65.246169	0.000324	3.243868	1.099052	-0.000130
 567	5.6317e+01	17.4541	65.153315	0.000233	2.331530	0.789944	-0.000093
 568	5.6416e+01	17.4011	65.056424	0.000243	2.432901	0.824289	-0.000097
 569	5.6516e+01	17.3626	64.967607	0.000223	2.230159	0.755598	-0.000089
 570	5.6615e+01	17.3209	64.939347	0.000071	0.709596	0.240418	-0.000028
 571	5.6715e+01	17.2808	64.822270	0.000294	2.939756	0.996016	-0.000118
 572	5.6815e+01	17.2551	64.794010	0.000071	0.709596	0.240418	-0.000028
 573	5.6914e+01	17.2054	64.636562	0.000395	3.953464	1.339470	-0.000158
 574	5.7014e+01	17.1765	64.543708	0.000233	2.331530	0.789944	-0.000093
 575	5.7113e+01	17.1220	64.442779	0.000253	2.534272	0.858635	-0.000101
 576	5.7212e+01	17.0867	64.321665	0.000304	3.041126	1.030362	-0.000122
 577	5.7312e+01	17.0450	64.236885	0.000213	2.128789	0.721253	-0.000085
 578	5.7411e+01	17.0081	64.152105	0.000213	2.128789	0.721253	-0.000085
 579	5.7511e+01	16.9583	64.047140	0.000264	2.635643	0.892980	-0.000105
 580	5.7611e+01	16.9198	64.006769	0.000101	1.013709	0.343454	-0.000041
 581	5.7710e+01	16.8813	63.897766	0.000274	2.737014	0.927325	-0.000110
 582	5.7809e+01	16.8428	63.808949	0.000223	2.230159	0.755598	-0.000089
 583	5.7909e+01	16.8011	63.679761	0.000324	3.243868	1.099052	-0.000130
 584	5.8008e+01	16.7690	63.639389	0.000101	1.013709	0.343454	-0.000041
 585	5.8108e+01	16.7289	63.530387	0.000274	2.737014	0.927325	-0.000110
 586	5.8208e+01	16.6824	63.401198	0.000324	3.243868	1.099052	-0.000130
 587	5.8307e+01	16.6535	63.336604	0.000162	1.621934	0.549526	-0.000065
 588	5.8407e+01	16.6070	63.308344	0.000071	0.709596	0.240418	-0.000028
 589	5.8506e+01	16.5765	63.183193	0.000314	3.142497	1.064707	-0.000126
 590	5.8605e+01	16.5300	63.086302	0.000243	2.432901	0.824289	-0.000097
 591	5.8705e+01	16.4979	62.945002	0.000355	3.547981	1.202088	-0.000142
 592	5.8804e+01	16.4418	62.888482	0.000142	1.419192	0.480835	-0.000057
 593	5.8904e+01	16.4097	62.775442	0.000284	2.838385	0.961671	-0.000114
 594	5.9004e+01	16.3664	62.662402	0.000284	2.838385	0.961671	-0.000114
 595	5.9103e+01	16.3183	62.569548	0.000233	2.331530	0.789944	-0.000093
 596	5.9203e+01	16.2846	62.456508	0.000284	2.838385	0.961671	-0.000114
 597	5.9302e+01	16.2445	62.383840	0.000182	1.824676	0.618217	-0.000073
 598	5.9401e+01	16.2124	62.282912	0.000253	2.534272	0.858635	-0.000101
 599	5.9501e+01	16.1723	62.153723	0.000324	3.243868	1.099052	-0.000130
 600	5.9600e+01	16.1274	62.117389	0.000091	0.912338	0.309108	-0.000037
 601	5.9700e+01	16.0872	62.020498	0.000243	2.432901	0.824289	-0.000097
 602	5.9800e+01	16.0407	61.919569	0.000253	2.534272	0.858635	-0.000101
 603	5.9899e+01	16.0102	61.842864	0.000193	1.926047	0.652562	-0.000077
 604	5.9998e+01	15.9653	61.750010	0.000233	2.331530	0.789944	-0.000093
 605	6.0098e+01	15.9220	61.681378	0.000172	1.723305	0.583872	-0.000069
 606	6.0197e+01	15.8883	61.600636	0.000203	2.027418	0.686908	-0.000081
 607	6.0297e+01	15.8466	61.511819	0.000223	2.230159	0.755598	-0.000089
 608	6.0397e+01	15.8113	61.374556	0.000345	3.446610	1.167743	-0.000138
 609	6.0496e+01	15.7760	61.237293	0.000345	3.446610	1.167743	-0.000138
 610	6.0596e+01	15.7263	61.144439	0.000233	2.331530	0.789944	-0.000093
 611	6.0695e+01	15.6862	61.063697	0.000203	2.027418	0.686908	-0.000081
 612	6.0794e+01	15.6493	60.918360	0.000365	3.649352	1.236434	-0.000146
 613	6.0894e+01	15.6076	60.861840	0.000142	1.419192	0.480835	-0.000057
 614	6.0993e+01	15.5803	60.777060	0.000213	2.128789	0.721253	-0.000085
 615	6.1093e+01	15.5306	60.635760	0.000355	3.547981	1.202088	-0.000142
 616	6.1193e+01	15.4969	60.563092	0.000182	1.824676	0.618217	-0.000073
 617	6.1292e+01	15.4504	60.437941	0.000314	3.142497	1.064707	-0.000126
 618	6.1392e+01	15.4167	60.349124	0.000223	2.230159	0.755598	-0.000089
 619	6.1491e+01	15.3798	60.264344	0.000213	2.128789	0.721253	-0.000085
 620	6.1590e+01	15.3349	60.207824	0.000142	1.419192	0.480835	-0.000057
 621	6.1690e+01	15.2915	60.110933	0.000243	2.432901	0.824289	-0.000097
 622	6.1789e+01	15.2450	60.010004	0.000253	2.534272	0.858635	-0.000101
 623	6.1889e+01	15.2129	59.937336	0.000182	1.824676	0.618217	-0.000073
 624	6.1989e+01	15.1680	59.812185	0.000314	3.142497	1.064707	-0.000126
 625	6.2088e+01	15.1343	59.719330	0.000233	2.331530	0.789944	-0.000093
 626	6.2188e+01	15.0894	59.578031	0.000355	3.547981	1.202088	-0.000142
 627	6.2287e+01	15.0461	59.436731	0.000355	3.547981	1.202088	-0.000142
 628	6.2386e+01	15.0172	59.343877	0.000233	2.331530	0.789944	-0.000093
 629	6.2486e+01	14.9739	59.246986	0.000243	2.432901	0.824289	-0.000097
 630	6.2586e+01	14.9306	59.146057	0.000253	2.534272	0.858635	-0.000101
 631	6.2685e+01	14.9001	59.037054	0.000274	2.737014	0.927325	-0.000110
 632	6.2785e+01	14.8616	58.948237	0.000223	2.230159	0.755598	-0.000089
 633	6.2884e+01	14.8311	58.855383	0.000233	2.331530	0.789944	-0.000093
 634	6.2983e+01	14.7814	58.762529	0.000233	2.331530	0.789944	-0.000093
 635	6.3083e+01	14.7333	58.633341	0.000324	3.243868	1.099052	-0.000130
 636	6.3182e+01	14.6964	58.580858	0.000132	1.317821	0.446490	-0.000053
 637	6.3282e+01	14.6563	58.459744	0.000304	3.041126	1.030362	-0.000122
 638	6.3382e+01	14.6178	58.403224	0.000142	1.419192	0.480835	-0.000057
 639	6.3481e+01	14.5712	58.302296	0.000253	2.534272	0.858635	-0.000101
 640	6.3581e+01	14.5392	58.213479	0.000223	2.230159	0.755598	-0.000089
 641	6.3680e+01	14.5023	58.108513	0.000264	2.635643	0.892980	-0.000105
 642	6.3779e+01	14.4509	57.979325	0.000324	3.243868	1.099052	-0.000130
 643	6.3879e+01	14.4108	57.890508	0.000223	2.230159	0.755598	-0.000089
 644	6.3978e+01	14.3836	57.777468	0.000284	2.838385	0.961671	-0.000114
 645	6.4078e+01	14.3322	57.652317	0.000314	3.142497	1.064707	-0.000126
 646	6.4177e+01	14.2969	57.519091	0.000335	3.345239	1.133398	-0.000134
 647	6.4277e+01	14.2520	57.422200	0.000243	2.432901	0.824289	-0.000097
 648	6.4376e+01	14.2167	57.353569	0.000172	1.723305	0.583872	-0.000069
 649	6.4476e+01	14.1670	57.252640	0.000253	2.534272	0.858635	-0.000101
 650	6.4576e+01	14.1397	57.111341	0.000355	3.547981	1.202088	-0.000142
 651	6.4675e+01	14.0996	57.058858	0.000132	1.317821	0.446490	-0.000053
 652	6.4775e+01	14.0483	56.909484	0.000375	3.750723	1.270779	-0.000150
 653	6.4874e+01	14.0178	56.865075	0.000112	1.115080	0.377799	-0.000045
 654	6.4974e+01	13.9857	56.743961	0.000304	3.041126	1.030362	-0.000122
 655	6.5073e+01	13.9440	56.655144	0.000223	2.230159	0.755598	-0.000089
 656	6.5172e+01	13.9055	56.558253	0.000243	2.432901	0.824289	-0.000097
 657	6.5272e+01	13.8542	56.457325	0.000253	2.534272	0.858635	-0.000101
 658	6.5371e+01	13.8044	56.380619	0.000193	1.926047	0.652562	-0.000077
 659	6.5471e+01	13.7788	56.235282	0.000365	3.649352	1.236434	-0.000146
 660	6.5570e+01	13.7451	56.142428	0.000233	2.331530	0.789944	-0.000093
 661	6.5670e+01	13.7018	56.057648	0.000213	2.128789	0.721253	-0.000085
 662	6.5769e+01	13.6616	55.940571	0.000294	2.939756	0.996016	-0.000118
 663	6.5869e+01	13.6264	55.783123	0.000395	3.953464	1.339470	-0.000158
 664	6.5969e+01	13.5718	55.678158	0.000264	2.635643	0.892980	-0.000105
 665	6.6068e+01	13.5445	55.548969	0.000324	3.243868	1.099052	-0.000130
 666	6.6168e+01	13.4980	55.419781	0.000324	3.243868	1.099052	-0.000130
 667	6.6267e+01	13.4547	55.351150	0.000172	1.723305	0.583872	-0.000069
 668	6.6367e+01	13.4178	55.274444	0.000193	1.926047	0.652562	-0.000077
 669	6.6466e+01	13.3825	55.149293	0.000314	3.142497	1.064707	-0.000126
 670	6.6566e+01	13.3536	55.088736	0.000152	1.520563	0.515181	-0.000061
 671	6.6665e+01	13.3039	54.959547	0.000324	3.243868	1.099052	-0.000130
 672	6.6764e+01	13.2542	54.882842	0.000193	1.926047	0.652562	-0.000077
 673	6.6864e+01	13.2269	54.794025	0.000223	2.230159	0.755598	-0.000089
 674	6.6963e+01	13.1804	54.713282	0.000203	2.027418	0.686908	-0.000081
 675	6.7063e+01	13.1403	54.588131	0.000314	3.142497	1.064707	-0.000126
 676	6.7162e+01	13.1018	54.487202	0.000253	2.534272	0.858635	-0.000101
 677	6.7262e+01	13.0536	54.353977	0.000335	3.345239	1.133398	-0.000134
 678	6.7362e+01	13.0232	54.253049	0.000253	2.534272	0.858635	-0.000101
 679	6.7461e+01	12.9798	54.140009	0.000284	2.838385	0.961671	-0.000114
 680	6.7561e+01	12.9365	54.018895	0.000304	3.041126	1.030362	-0.000122
 681	6.7660e+01	12.9044	53.922003	0.000243	2.432901	0.824289	-0.000097
 682	6.7760e+01	12.8627	53.776667	0.000365	3.649352	1.236434	-0.000146
 683	6.7859e+01	12.8290	53.667664	0.000274	2.737014	0.927325	-0.000110
 684	6.7959e+01	12.7793	53.546550	0.000304	3.041126	1.030362	-0.000122
 685	6.8058e+01	12.7520	53.445621	0.000253	2.534272	0.858635	-0.000101
 686	6.8157e+01	12.7023	53.336619	0.000274	2.737014	0.927325	-0.000110
 687	6.8257e+01	12.6638	53.231653	0.000264	2.635643	0.892980	-0.000105
 688	6.8356e+01	12.6301	53.138799	0.000233	2.331530	0.789944	-0.000093
 689	6.8456e+01	12.5852	53.029796	0.000274	2.737014	0.927325	-0.000110
 690	6.8555e+01	12.5467	52.985388	0.000112	1.115080	0.377799	-0.000045
 691	6.8655e+01	12.5082	52.888497	0.000243	2.432901	0.824289	-0.000097
 692	6.8754e+01	12.4633	52.747197	0.000355	3.547981	1.202088	-0.000142
 693	6.8854e+01	12.4248	52.662417	0.000213	2.128789	0.721253	-0.000085
 694	6.8954e+01	12.3879	52.545340	0.000294	2.939756	0.996016	-0.000118
 695	6.9053e+01	12.3462	52.400003	0.000365	3.649352	1.236434	-0.000146
 696	6.9153e+01	12.2980	52.347521	0.000132	1.317821	0.446490	-0.000053
 697	6.9252e+01	12.2724	52.218332	0.000324	3.243868	1.099052	-0.000130
 698	6.9352e+01	12.2339	52.064921	0.000385	3.852093	1.305125	-0.000154
 699	6.9451e+01	12.1970	51.955918	0.000274	2.737014	0.927325	-0.000110
 700	6.9550e+01	12.1440	51.822693	0.000335	3.345239	1.133398	-0.000134
 701	6.9650e+01	12.1120	51.701579	0.000304	3.041126	1.030362	-0.000122
 702	6.9749e+01	12.0606	51.600650	0.000253	2.534272	0.858635	-0.000101
 703	6.9849e+01	12.0205	51.491648	0.000274	2.737014	0.927325	-0.000110
 704	6.9948e+01	11.9868	51.398794	0.000233	2.331530	0.789944	-0.000093
 705	7.0048e+01	11.9387	51.257494	0.000355	3.547981	1.202088	-0.000142
 706	7.0147e+01	11.9018	51.184825	0.000182	1.824676	0.618217	-0.000073
 707	7.0247e+01	11.8713	51.116194	0.000172	1.723305	0.583872	-0.000069
 708	7.0347e+01	11.8312	51.007191	0.000274	2.737014	0.927325	-0.000110
 709	7.0446e+01	11.7927	50.918374	0.000223	2.230159	0.755598	-0.000089
 710	7.0546e+01	11.7494	50.756889	0.000405	4.054835	1.373815	-0.000162
 711	7.0645e+01	11.7109	50.676146	0.000203	2.027418	0.686908	-0.000081
 712	7.0745e+01	11.6676	50.595404	0.000203	2.027418	0.686908	-0.000081
 713	7.0844e+01	11.6179	50.446030	0.000375	3.750723	1.270779	-0.000150
 714	7.0944e+01	11.5874	50.324916	0.000304	3.041126	1.030362	-0.000122
 715	7.1043e+01	11.5553	50.223987	0.000253	2.534272	0.858635	-0.000101
 716	7.1142e+01	11.5152	50.110947	0.000284	2.838385	0.961671	-0.000114
 717	7.1242e+01	11.4719	49.989833	0.000304	3.041126	1.030362	-0.000122
 718	7.1341e+01	11.4270	49.836422	0.000385	3.852093	1.305125	-0.000154
 719	7.1441e+01	11.3836	49.695122	0.000355	3.547981	1.202088	-0.000142
 720	7.1540e+01	11.3596	49.598231	0.000243	2.432901	0.824289	-0.000097
 721	7.1640e+01	11.3114	49.509414	0.000223	2.230159	0.755598	-0.000089
 722	7.1740e+01	11.2617	49.396374	0.000284	2.838385	0.961671	-0.000114
 723	7.1839e+01	11.2328	49.283335	0.000284	2.838385	0.961671	-0.000114
 724	7.1939e+01	11.1959	49.178369	0.000264	2.635643	0.892980	-0.000105
 725	7.2038e+01	11.1462	49.093589	0.000213	2.128789	0.721253	-0.000085
 726	7.2138e+01	11.1077	48.980549	0.000284	2.838385	0.961671	-0.000114
 727	7.2237e+01	11.0628	48.835212	0.000365	3.649352	1.236434	-0.000146
 728	7.2337e+01	11.0387	48.762544	0.000182	1.824676	0.618217	-0.000073
 729	7.2436e+01	10.9842	48.609133	0.000385	3.852093	1.305125	-0.000154
 730	7.2535e+01	10.9617	48.504167	0.000264	2.635643	0.892980	-0.000105
 731	7.2635e+01	10.9104	48.435536	0.000172	1.723305	0.583872	-0.000069
 732	7.2734e+01	10.8751	48.306348	0.000324	3.243868	1.099052	-0.000130
 733	7.2834e+01	10.8382	48.181196	0.000314	3.142497	1.064707	-0.000126
 734	7.2933e+01	10.7933	48.043934	0.000345	3.446610	1.167743	-0.000138
 735	7.3033e+01	10.7516	47.918783	0.000314	3.142497	1.064707	-0.000126
 736	7.3132e+01	10.7115	47.769409	0.000375	3.750723	1.270779	-0.000150
 737	7.3232e+01	10.6794	47.688666	0.000203	2.027418	0.686908	-0.000081
 738	7.3332e+01	10.6296	47.535255	0.000385	3.852093	1.305125	-0.000154
 739	7.3431e+01	10.5895	47.438363	0.000243	2.432901	0.824289	-0.000097
 740	7.3531e+01	10.5623	47.317249	0.000304	3.041126	1.030362	-0.000122
 741	7.3630e+01	10.5206	47.248618	0.000172	1.723305	0.583872	-0.000069
 742	7.3730e+01	10.4821	47.131541	0.000294	2.939756	0.996016	-0.000118
 743	7.3829e+01	10.4291	47.002353	0.000324	3.243868	1.099052	-0.000130
 744	7.3928e+01	10.3874	46.949870	0.000132	1.317821	0.446490	-0.000053
 745	7.4028e+01	10.3521	46.792422	0.000395	3.953464	1.339470	-0.000158
 746	7.4127e+01	10.3152	46.675345	0.000294	2.939756	0.996016	-0.000118
 747	7.4227e+01	10.2783	46.538082	0.000345	3.446610	1.167743	-0.000138
 748	7.4326e+01	10.2318	46.449265	0.000223	2.230159	0.755598	-0.000089
 749	7.4426e+01	10.1949	46.324114	0.000314	3.142497	1.064707	-0.000126
 750	7.4525e+01	10.1516	46.178777	0.000365	3.649352	1.236434	-0.000146
 751	7.4625e+01	10.1179	46.073812	0.000264	2.635643	0.892980	-0.000105
 752	7.4725e+01	10.0730	45.896178	0.000446	4.460319	1.511197	-0.000179
 753	7.4824e+01	10.0361	45.766989	0.000324	3.243868	1.099052	-0.000130
 754	7.4924e+01	9.9912	45.682209	0.000213	2.128789	0.721253	-0.000085
 755	7.5023e+01	9.9607	45.553021	0.000324	3.243868	1.099052	-0.000130
 756	7.5123e+01	9.9174	45.431907	0.000304	3.041126	1.030362	-0.000122
 757	7.5222e+01	9.8773	45.290607	0.000355	3.547981	1.202088	-0.000142
 758	7.5322e+01	9.8307	45.226013	0.000162	1.621934	0.549526	-0.000065
 759	7.5421e+01	9.7987	45.137196	0.000223	2.230159	0.755598	-0.000089
 760	7.5520e+01	9.7602	45.028193	0.000274	2.737014	0.927325	-0.000110
 761	7.5620e+01	9.7152	44.899005	0.000324	3.243868	1.099052	-0.000130
 762	7.5719e+01	9.6751	44.781928	0.000294	2.939756	0.996016	-0.000118
 763	7.5819e+01	9.6382	44.660814	0.000304	3.041126	1.030362	-0.000122
 764	7.5918e+01	9.5997	44.523551	0.000345	3.446610	1.167743	-0.000138
 765	7.6018e+01	9.5548	44.390326	0.000335	3.345239	1.133398	-0.000134
 766	7.6118e+01	9.5243	44.281323	0.000274	2.737014	0.927325	-0.000110
 767	7.6217e+01	9.4778	44.164246	0.000294	2.939756	0.996016	-0.000118
 768	7.6317e+01	9.4377	44.047169	0.000294	2.939756	0.996016	-0.000118
 769	7.6416e+01	9.4120	43.869535	0.000446	4.460319	1.511197	-0.000179
 770	7.6516e+01	9.3575	43.756496	0.000284	2.838385	0.961671	-0.000114
 771	7.6615e+01	9.3190	43.623270	0.000335	3.345239	1.133398	-0.000134
 772	7.6715e+01	9.2757	43.518305	0.000264	2.635643	0.892980	-0.000105
 773	7.6814e+01	9.2324	43.372968	0.000365	3.649352	1.236434	-0.000146
 774	7.6913e+01	9.1923	43.296262	0.000193	1.926047	0.652562	-0.000077
 775	7.7013e+01	9.1602	43.175148	0.000304	3.041126	1.030362	-0.000122
 776	7.7112e+01	9.1104	43.062108	0.000284	2.838385	0.961671	-0.000114
 777	7.7212e+01	9.0784	42.981366	0.000203	2.027418	0.686908	-0.000081
 778	7.7311e+01	9.0318	42.848140	0.000335	3.345239	1.133398	-0.000134
 779	7.7411e+01	8.9965	42.722989	0.000314	3.142497	1.064707	-0.000126
 780	7.7510e+01	8.9564	42.597838	0.000314	3.142497	1.064707	-0.000126
 781	7.7610e+01	8.9227	42.476724	0.000304	3.041126	1.030362	-0.000122
 782	7.7710e+01	8.8746	42.363684	0.000284	2.838385	0.961671	-0.000114
 783	7.7809e+01	8.8441	42.210273	0.000385	3.852093	1.305125	-0.000154
 784	7.7909e+01	8.7976	42.073010	0.000345	3.446610	1.167743	-0.000138
 785	7.8008e+01	8.7655	41.980156	0.000233	2.331530	0.789944	-0.000093
 786	7.8108e+01	8.7206	41.814633	0.000416	4.156206	1.408161	-0.000166
 787	7.8207e+01	8.6789	41.681408	0.000335	3.345239	1.133398	-0.000134
 788	7.8306e+01	8.6468	41.560294	0.000304	3.041126	1.030362	-0.000122
 789	7.8406e+01	8.6019	41.406883	0.000385	3.852093	1.305125	-0.000154
 790	7.8505e+01	8.5730	41.285769	0.000304	3.041126	1.030362	-0.000122
 791	7.8605e+01	8.5137	41.156580	0.000324	3.243868	1.099052	-0.000130
 792	7.8704e+01	8.4816	41.039503	0.000294	2.939756	0.996016	-0.000118
 793	7.8804e+01	8.4431	40.886092	0.000385	3.852093	1.305125	-0.000154
 794	7.8903e+01	8.3982	40.789201	0.000243	2.432901	0.824289	-0.000097
 795	7.9003e+01	8.3629	40.748830	0.000101	1.013709	0.343454	-0.000041
 796	7.9103e+01	8.3179	40.571196	0.000446	4.460319	1.511197	-0.000179
 797	7.9202e+01	8.2875	40.466230	0.000264	2.635643	0.892980	-0.000105
 798	7.9302e+01	8.2393	40.292633	0.000436	4.358948	1.476852	-0.000174
 799	7.9401e+01	8.1976	40.183631	0.000274	2.737014	0.927325	-0.000110
 800	7.9501e+01	8.1543	40.114999	0.000172	1.723305	0.583872	-0.000069
 801	7.9600e+01	8.1319	39.969662	0.000365	3.649352	1.236434	-0.000146
 802	7.9700e+01	8.0741	39.808177	0.000405	4.054835	1.373815	-0.000162
 803	7.9799e+01	8.0420	39.695137	0.000284	2.838385	0.961671	-0.000114
 804	7.9898e+01	7.9939	39.565949	0.000324	3.243868	1.099052	-0.000130
 805	7.9998e+01	7.9538	39.384278	0.000456	4.561690	1.545542	-0.000183
 806	8.0097e+01	7.9233	39.271238	0.000284	2.838385	0.961671	-0.000114
 807	8.0197e+01	7.8768	39.113790	0.000395	3.953464	1.339470	-0.000158
 808	8.0296e+01	7.8431	38.988638	0.000314	3.142497	1.064707	-0.000126
 809	8.0396e+01	7.8062	38.851376	0.000345	3.446610	1.167743	-0.000138
 810	8.0496e+01	7.7549	38.762559	0.000223	2.230159	0.755598	-0.000089
 811	8.0595e+01	7.7260	38.625296	0.000345	3.446610	1.167743	-0.000138
 812	8.0695e+01	7.6763	38.520331	0.000264	2.635643	0.892980	-0.000105
 813	8.0794e+01	7.6394	38.415365	0.000264	2.635643	0.892980	-0.000105
 814	8.0894e+01	7.6041	38.261954	0.000385	3.852093	1.305125	-0.000154
 815	8.0993e+01	7.5688	38.136803	0.000314	3.142497	1.064707	-0.000126
 816	8.1093e+01	7.5239	38.035874	0.000253	2.534272	0.858635	-0.000101
 817	8.1192e+01	7.4805	37.878426	0.000395	3.953464	1.339470	-0.000158
 818	8.1291e+01	7.4292	37.733089	0.000365	3.649352	1.236434	-0.000146
 819	8.1391e+01	7.4003	37.636198	0.000243	2.432901	0.824289	-0.000097
 820	8.1490e+01	7.3602	37.470675	0.000416	4.156206	1.408161	-0.000166
 821	8.1590e+01	7.3297	37.341487	0.000324	3.243868	1.099052	-0.000130
 822	8.1689e+01	7.2912	37.155779	0.000466	4.663061	1.579888	-0.000187
 823	8.1789e+01	7.2463	37.054850	0.000253	2.534272	0.858635	-0.000101
 824	8.1888e+01	7.2030	36.885291	0.000426	4.257577	1.442506	-0.000170
 825	8.1988e+01	7.1661	36.760139	0.000314	3.142497	1.064707	-0.000126
 826	8.2088e+01	7.1276	36.647100	0.000284	2.838385	0.961671	-0.000114
 827	8.2187e+01	7.0939	36.521948	0.000314	3.142497	1.064707	-0.000126
 828	8.2287e+01	7.0506	36.388723	0.000335	3.345239	1.133398	-0.000134
 829	8.2386e+01	7.0089	36.283757	0.000264	2.635643	0.892980	-0.000105
 830	8.2486e+01	6.9592	36.203015	0.000203	2.027418	0.686908	-0.000081
 831	8.2585e+01	6.9207	36.029418	0.000436	4.358948	1.476852	-0.000174
 832	8.2684e+01	6.8806	35.876007	0.000385	3.852093	1.305125	-0.000154
 833	8.2784e+01	6.8437	35.758930	0.000294	2.939756	0.996016	-0.000118
 834	8.2883e+01	6.8116	35.613593	0.000365	3.649352	1.236434	-0.000146
 835	8.2983e+01	6.7683	35.516702	0.000243	2.432901	0.824289	-0.000097
 836	8.3082e+01	6.7265	35.379439	0.000345	3.446610	1.167743	-0.000138
 837	8.3182e+01	6.6784	35.209879	0.000426	4.257577	1.442506	-0.000170
 838	8.3281e+01	6.6463	35.108951	0.000253	2.534272	0.858635	-0.000101
 839	8.3381e+01	6.6062	34.931317	0.000446	4.460319	1.511197	-0.000179
 840	8.3481e+01	6.5725	34.753683	0.000446	4.460319	1.511197	-0.000179
 841	8.3580e+01	6.5340	34.604309	0.000375	3.750723	1.270779	-0.000150
 842	8.3680e+01	6.4907	34.487232	0.000294	2.939756	0.996016	-0.000118
 843	8.3779e+01	6.4522	34.345932	0.000355	3.547981	1.202088	-0.000142
 844	8.3879e+01	6.4153	34.240967	0.000264	2.635643	0.892980	-0.000105
 845	8.3978e+01	6.3736	34.144076	0.000243	2.432901	0.824289	-0.000097
 846	8.4078e+01	6.3319	33.994701	0.000375	3.750723	1.270779	-0.000150
 847	8.4177e+01	6.2918	33.857439	0.000345	3.446610	1.167743	-0.000138
 848	8.4276e+01	6.2533	33.740362	0.000294	2.939756	0.996016	-0.000118
 849	8.4376e+01	6.2116	33.586951	0.000385	3.852093	1.305125	-0.000154
 850	8.4475e+01	6.1635	33.449688	0.000345	3.446610	1.167743	-0.000138
 851	8.4575e+01	6.1282	33.332611	0.000294	2.939756	0.996016	-0.000118
 852	8.4674e+01	6.0961	33.154977	0.000446	4.460319	1.511197	-0.000179
 853	8.4774e+01	6.0415	33.013677	0.000355	3.547981	1.202088	-0.000142
 854	8.4874e+01	6.0127	32.860266	0.000385	3.852093	1.305125	-0.000154
 855	8.4973e+01	5.9742	32.743189	0.000294	2.939756	0.996016	-0.000118
 856	8.5073e+01	5.9389	32.642261	0.000253	2.534272	0.858635	-0.000101
 857	8.5172e+01	5.9004	32.444441	0.000497	4.967173	1.682924	-0.000199
 858	8.5272e+01	5.8522	32.291030	0.000385	3.852093	1.305125	-0.000154
 859	8.5371e+01	5.8234	32.157805	0.000335	3.345239	1.133398	-0.000134
 860	8.5471e+01	5.7752	32.024579	0.000335	3.345239	1.133398	-0.000134
 861	8.5570e+01	5.7335	31.883279	0.000355	3.547981	1.202088	-0.000142
 862	8.5669e+01	5.6854	31.746017	0.000345	3.446610	1.167743	-0.000138
 863	8.5769e+01	5.6501	31.588569	0.000395	3.953464	1.339470	-0.000158
 864	8.5868e+01	5.6148	31.507826	0.000203	2.027418	0.686908	-0.000081
 865	8.5968e+01	5.5715	31.366526	0.000355	3.547981	1.202088	-0.000142
 866	8.6067e+01	5.5266	31.221189	0.000365	3.649352	1.236434	-0.000146
 867	8.6167e+01	5.4913	31.075852	0.000365	3.649352	1.236434	-0.000146
 868	8.6266e+01	5.4496	30.946664	0.000324	3.243868	1.099052	-0.000130
 869	8.6366e+01	5.4095	30.777104	0.000426	4.257577	1.442506	-0.000170
 870	8.6466e+01	5.3742	30.672139	0.000264	2.635643	0.892980	-0.000105
 871	8.6565e+01	5.3277	30.538913	0.000335	3.345239	1.133398	-0.000134
 872	8.6665e+01	5.2908	30.341094	0.000497	4.967173	1.682924	-0.000199
 873	8.6764e+01	5.2651	30.224017	0.000294	2.939756	0.996016	-0.000118
 874	8.6864e+01	5.2057	30.074643	0.000375	3.750723	1.270779	-0.000150
 875	8.6963e+01	5.1753	29.945454	0.000324	3.243868	1.099052	-0.000130
 876	8.7063e+01	5.1271	29.771858	0.000436	4.358948	1.476852	-0.000174
 877	8.7162e+01	5.0950	29.582112	0.000476	4.764431	1.614233	-0.000191
 878	8.7261e+01	5.0517	29.448887	0.000335	3.345239	1.133398	-0.000134
 879	8.7361e+01	5.0132	29.291438	0.000395	3.953464	1.339470	-0.000158
 880	8.7460e+01	4.9747	29.190510	0.000253	2.534272	0.858635	-0.000101
 881	8.7560e+01	4.9330	29.033062	0.000395	3.953464	1.339470	-0.000158
 882	8.7659e+01	4.8897	28.952319	0.000203	2.027418	0.686908	-0.000081
 883	8.7759e+01	4.8560	28.819093	0.000335	3.345239	1.133398	-0.000134
 884	8.7859e+01	4.8143	28.637422	0.000456	4.561690	1.545542	-0.000183
 885	8.7958e+01	4.7662	28.536494	0.000253	2.534272	0.858635	-0.000101
 886	8.8058e+01	4.7373	28.346749	0.000476	4.764431	1.614233	-0.000191
 887	8.8157e+01	4.6844	28.209486	0.000345	3.446610	1.167743	-0.000138
 888	8.8257e+01	4.6587	28.068186	0.000355	3.547981	1.202088	-0.000142
 889	8.8356e+01	4.6154	27.930924	0.000345	3.446610	1.167743	-0.000138
 890	8.8456e+01	4.5705	27.769438	0.000405	4.054835	1.373815	-0.000162
 891	8.8555e+01	4.5400	27.652361	0.000294	2.939756	0.996016	-0.000118
 892	8.8654e+01	4.4999	27.450504	0.000507	5.068544	1.717269	-0.000203
 893	8.8754e+01	4.4646	27.272870	0.000446	4.460319	1.511197	-0.000179
 894	8.8853e+01	4.4165	27.135608	0.000345	3.446610	1.167743	-0.000138
 895	8.8953e+01	4.3731	26.994308	0.000355	3.547981	1.202088	-0.000142
 896	8.9052e+01	4.3427	26.820711	0.000436	4.358948	1.476852	-0.000174
 897	8.9152e+01	4.3009	26.715746	0.000264	2.635643	0.892980	-0.000105
 898	8.9251e+01	4.2624	26.582520	0.000335	3.345239	1.133398	-0.000134
 899	8.9351e+01	4.2175	26.445258	0.000345	3.446610	1.167743	-0.000138
 900	8.9451e+01	4.1758	26.328181	0.000294	2.939756	0.996016	-0.000118
 901	8.9550e+01	4.1325	26.170732	0.000395	3.953464	1.339470	-0.000158
 902	8.9650e+01	4.0972	25.997136	0.000436	4.358948	1.476852	-0.000174
 903	8.9749e+01	4.0443	25.863910	0.000335	3.345239	1.133398	-0.000134
 904	8.9849e+01	4.0106	25.702425	0.000405	4.054835	1.373815	-0.000162
 905	8.9948e+01	3.9737	25.540939	0.000405	4.054835	1.373815	-0.000162
 906	9.0047e+01	3.9336	25.415788	0.000314	3.142497	1.064707	-0.000126
 907	9.0147e+01	3.8967	25.278525	0.000345	3.446610	1.167743	-0.000138
 908	9.0246e+01	3.8470	25.092817	0.000466	4.663061	1.579888	-0.000187
 909	9.0346e+01	3.8213	24.903072	0.000476	4.764431	1.614233	-0.000191
 910	9.0445e+01	3.7780	24.777921	0.000314	3.142497	1.064707	-0.000126
 911	9.0545e+01	3.7379	24.588175	0.000476	4.764431	1.614233	-0.000191
 912	9.0644e+01	3.7026	24.406504	0.000456	4.561690	1.545542	-0.000183
 913	9.0744e+01	3.6625	24.281353	0.000314	3.142497	1.064707	-0.000126
 914	9.0844e+01	3.6127	24.111793	0.000426	4.257577	1.442506	-0.000170
 915	9.0943e+01	3.5823	24.014902	0.000243	2.432901	0.824289	-0.000097
 916	9.1043e+01	3.5373	23.837268	0.000446	4.460319	1.511197	-0.000179
 917	9.1142e+01	3.4972	23.744414	0.000233	2.331530	0.789944	-0.000093
 918	9.1242e+01	3.4571	23.554668	0.000476	4.764431	1.614233	-0.000191
 919	9.1341e+01	3.4154	23.409332	0.000365	3.649352	1.236434	-0.000146
 920	9.1441e+01	3.3737	23.280143	0.000324	3.243868	1.099052	-0.000130
 921	9.1540e+01	3.3432	23.110584	0.000426	4.257577	1.442506	-0.000170
 922	9.1639e+01	3.3031	22.969284	0.000355	3.547981	1.202088	-0.000142
 923	9.1739e+01	3.2598	22.783576	0.000466	4.663061	1.579888	-0.000187
 924	9.1838e+01	3.2261	22.654387	0.000324	3.243868	1.099052	-0.000130
 925	9.1938e+01	3.1844	22.468679	0.000466	4.663061	1.579888	-0.000187
 926	9.2037e+01	3.1475	22.335453	0.000335	3.345239	1.133398	-0.000134
 927	9.2137e+01	3.1042	22.129560	0.000517	5.169915	1.751615	-0.000207
 928	9.2237e+01	3.0609	21.992297	0.000345	3.446610	1.167743	-0.000138
 929	9.2336e+01	3.0192	21.818700	0.000436	4.358948	1.476852	-0.000174
 930	9.2436e+01	2.9807	21.661252	0.000395	3.953464	1.339470	-0.000158
 931	9.2535e+01	2.9422	21.515915	0.000365	3.649352	1.236434	-0.000146
 932	9.2635e+01	2.9101	21.374615	0.000355	3.547981	1.202088	-0.000142
 933	9.2734e+01	2.8571	21.196981	0.000446	4.460319	1.511197	-0.000179
 934	9.2834e+01	2.8154	21.071830	0.000314	3.142497	1.064707	-0.000126
 935	9.2933e+01	2.7882	20.934567	0.000345	3.446610	1.167743	-0.000138
 936	9.3032e+01	2.7432	20.801342	0.000335	3.345239	1.133398	-0.000134
 937	9.3132e+01	2.6983	20.623708	0.000446	4.460319	1.511197	-0.000179
 938	9.3231e+01	2.6630	20.462222	0.000405	4.054835	1.373815	-0.000162
 939	9.3331e+01	2.6197	20.304774	0.000395	3.953464	1.339470	-0.000158
 940	9.3430e+01	2.5780	20.171549	0.000335	3.345239	1.133398	-0.000134
 941	9.3530e+01	2.5411	19.981803	0.000476	4.764431	1.614233	-0.000191
 942	9.3629e+01	2.5106	19.852615	0.000324	3.243868	1.099052	-0.000130
 943	9.3729e+01	2.4657	19.695167	0.000395	3.953464	1.339470	-0.000158
 944	9.3829e+01	2.4272	19.497347	0.000497	4.967173	1.682924	-0.000199
 945	9.3928e+01	2.3823	19.352010	0.000365	3.649352	1.236434	-0.000146
 946	9.4028e+01	2.3486	19.129968	0.000558	5.575398	1.888996	-0.000223
 947	9.4127e+01	2.3037	19.000779	0.000324	3.243868	1.099052	-0.000130
 948	9.4227e+01	2.2604	18.827183	0.000436	4.358948	1.476852	-0.000174
 949	9.4326e+01	2.2299	18.677808	0.000375	3.750723	1.270779	-0.000150
 950	9.4425e+01	2.1818	18.475952	0.000507	5.068544	1.717269	-0.000203
 951	9.4525e+01	2.1561	18.370986	0.000264	2.635643	0.892980	-0.000105
 952	9.4624e+01	2.1096	18.201426	0.000426	4.257577	1.442506	-0.000170
 953	9.4724e+01	2.0614	18.068201	0.000335	3.345239	1.133398	-0.000134
 954	9.4823e+01	2.0229	17.894604	0.000436	4.358948	1.476852	-0.000174
 955	9.4923e+01	1.9732	17.716970	0.000446	4.460319	1.511197	-0.000179
 956	9.5022e+01	1.9459	17.559522	0.000395	3.953464	1.339470	-0.000158
 957	9.5122e+01	1.9074	17.398036	0.000405	4.054835	1.373815	-0.000162
 958	9.5222e+01	1.8625	17.260774	0.000345	3.446610	1.167743	-0.000138
 959	9.5321e+01	1.8192	17.071028	0.000476	4.764431	1.614233	-0.000191
 960	9.5421e+01	1.7855	16.893394	0.000446	4.460319	1.511197	-0.000179
 961	9.5520e+01	1.7566	16.703649	0.000476	4.764431	1.614233	-0.000191
 962	9.5620e+01	1.7069	16.497755	0.000517	5.169915	1.751615	-0.000207
 963	9.5719e+01	1.6748	16.368567	0.000324	3.243868	1.099052	-0.000130
 964	9.5819e+01	1.6299	16.166710	0.000507	5.068544	1.717269	-0.000203
 965	9.5918e+01	1.5914	16.005225	0.000405	4.054835	1.373815	-0.000162
 966	9.6017e+01	1.5497	15.851813	0.000385	3.852093	1.305125	-0.000154
 967	9.6117e+01	1.5048	15.702439	0.000375	3.750723	1.270779	-0.000150
 968	9.6216e+01	1.4679	15.549028	0.000385	3.852093	1.305125	-0.000154
 969	9.6316e+01	1.4326	15.419840	0.000324	3.243868	1.099052	-0.000130
 970	9.6415e+01	1.3861	15.262392	0.000395	3.953464	1.339470	-0.000158
 971	9.6515e+01	1.3492	15.108980	0.000385	3.852093	1.305125	-0.000154
 972	9.6615e+01	1.3010	14.923272	0.000466	4.663061	1.579888	-0.000187
 973	9.6714e+01	1.2706	14.757750	0.000416	4.156206	1.408161	-0.000166
 974	9.6814e+01	1.2272	14.612413	0.000365	3.649352	1.236434	-0.000146
 975	9.6913e+01	1.1839	14.422667	0.000476	4.764431	1.614233	-0.000191
 976	9.7013e+01	1.1486	14.273293	0.000375	3.750723	1.270779	-0.000150
 977	9.7112e+01	1.1085	14.083548	0.000476	4.764431	1.614233	-0.000191
 978	9.7212e+01	1.0652	13.881691	0.000507	5.068544	1.717269	-0.000203
 979	9.7311e+01	1.0379	13.748466	0.000335	3.345239	1.133398	-0.000134
 980	9.7410e+01	0.9866	13.498163	0.000628	6.284995	2.129414	-0.000252
 981	9.7510e+01	0.9545	13.373012	0.000314	3.142497	1.064707	-0.000126
 982	9.7609e+01	0.9112	13.167118	0.000517	5.169915	1.751615	-0.000207
 983	9.7709e+01	0.8647	13.017744	0.000375	3.750723	1.270779	-0.000150
 984	9.7808e+01	0.8262	12.864333	0.000385	3.852093	1.305125	-0.000154
 985	9.7908e+01	0.7797	12.658439	0.000517	5.169915	1.751615	-0.000207
 986	9.8007e+01	0.7476	12.553474	0.000264	2.635643	0.892980	-0.000105
 987	9.8107e+01	0.7107	12.375840	0.000446	4.460319	1.511197	-0.000179
 988	9.8207e+01	0.6706	12.210317	0.000416	4.156206	1.408161	-0.000166
 989	9.8306e+01	0.6353	12.048832	0.000405	4.054835	1.373815	-0.000162
 990	9.8406e+01	0.5984	11.851012	0.000497	4.967173	1.682924	-0.000199
 991	9.8505e+01	0.5551	11.705675	0.000365	3.649352	1.236434	-0.000146
 992	9.8605e+01	0.5101	11.528041	0.000446	4.460319	1.511197	-0.000179
 993	9.8704e+01	0.4749	11.378667	0.000375	3.750723	1.270779	-0.000150
 994	9.8803e+01	0.4412	11.144513	0.000588	5.879511	1.992032	-0.000235
 995	9.8903e+01	0.3930	11.051659	0.000233	2.331530	0.789944	-0.000093
 996	9.9002e+01	0.3545	10.849802	0.000507	5.068544	1.717269	-0.000203
 997	9.9102e+01	0.3096	10.676205	0.000436	4.358948	1.476852	-0.000174
 998	9.9201e+01	0.2647	10.486460	0.000476	4.764431	1.614233	-0.000191
 999	9.9301e+01	0.2342	10.308826	0.000446	4.460319	1.511197	-0.000179
1000	9.9400e+01	0.1893	10.135229	0.000436	4.358948	1.476852	-0.000174
1001	9.9500e+01	0.1524	9.929335	0.000517	5.169915	1.751615	-0.000207
1002	9.9600e+01	0.1251	9.792073	0.000345	3.446610	1.167743	-0.000138
1003	9.9699e+01	0.0802	9.618476	0.000436	4.358948	1.476852	-0.000174
1004	9.9799e+01	0.0337	9.485250	0.000335	3.345239	1.133398	-0.000134
1005	9.9898e+01	0.0016	9.331839	0.000385	3.852093	1.305125	-0.000154
1006	9.9998e+01	-0.0385	9.170354	0.000405	4.054835	1.373815	-0.000162
1007	1.0010e+02	-0.0834	8.976571	0.000487	4.865802	1.648578	-0.000195
1008	1.0020e+02	-0.1251	8.843346	0.000335	3.345239	1.133398	-0.000134
1009	1.0030e+02	-0.1620	8.657638	0.000466	4.663061	1.579888	-0.000187
1010	1.0040e+02	-0.1957	8.455781	0.000507	5.068544	1.717269	-0.000203
1011	1.0050e+02	-0.2503	8.306407	0.000375	3.750723	1.270779	-0.000150
1012	1.0059e+02	-0.2823	8.144921	0.000405	4.054835	1.373815	-0.000162
1013	1.0069e+02	-0.3273	7.983436	0.000405	4.054835	1.373815	-0.000162
1014	1.0079e+02	-0.3497	7.773505	0.000527	5.271286	1.785960	-0.000211
1015	1.0089e+02	-0.3995	7.587797	0.000466	4.663061	1.579888	-0.000187
1016	1.0099e+02	-0.4460	7.394014	0.000487	4.865802	1.648578	-0.000195
1017	1.0109e+02	-0.4684	7.192157	0.000507	5.068544	1.717269	-0.000203
1018	1.0119e+02	-0.5198	7.026635	0.000416	4.156206	1.408161	-0.000166
1019	1.0129e+02	-0.5583	6.849001	0.000446	4.460319	1.511197	-0.000179
1020	1.0139e+02	-0.5952	6.679441	0.000426	4.257577	1.442506	-0.000170
1021	1.0149e+02	-0.6449	6.513919	0.000416	4.156206	1.408161	-0.000166
1022	1.0159e+02	-0.6770	6.396842	0.000294	2.939756	0.996016	-0.000118
1023	1.0169e+02	-0.7139	6.194985	0.000507	5.068544	1.717269	-0.000203
1024	1.0179e+02	-0.7652	6.013314	0.000456	4.561690	1.545542	-0.000183
1025	1.0189e+02	-0.7973	5.859903	0.000385	3.852093	1.305125	-0.000154
1026	1.0199e+02	-0.8358	5.694380	0.000416	4.156206	1.408161	-0.000166
1027	1.0209e+02	-0.8727	5.488486	0.000517	5.169915	1.751615	-0.000207
1028	1.0219e+02	-0.9240	5.375446	0.000284	2.838385	0.961671	-0.000114
1029	1.0229e+02	-0.9625	5.145329	0.000578	5.778140	1.957687	-0.000231
1030	1.0239e+02	-0.9978	4.975770	0.000426	4.257577	1.442506	-0.000170
1031	1.0248e+02	-1.0395	4.810247	0.000416	4.156206	1.408161	-0.000166
1032	1.0258e+02	-1.0716	4.616465	0.000487	4.865802	1.648578	-0.000195
1033	1.0268e+02	-1.1117	4.463054	0.000385	3.852093	1.305125	-0.000154
1034	1.0278e+02	-1.1599	4.253123	0.000527	5.271286	1.785960	-0.000211
1035	1.0288e+02	-1.2000	4.063377	0.000476	4.764431	1.614233	-0.000191
1036	1.0298e+02	-1.2256	3.901892	0.000405	4.054835	1.373815	-0.000162
1037	1.0308e+02	-1.2770	3.712146	0.000476	4.764431	1.614233	-0.000191
1038	1.0318e+02	-1.3155	3.562772	0.000375	3.750723	1.270779	-0.000150
1039	1.0328e+02	-1.3620	3.417435	0.000365	3.649352	1.236434	-0.000146
1040	1.0338e+02	-1.3877	3.251913	0.000416	4.156206	1.408161	-0.000166
1041	1.0348e+02	-1.4310	3.050056	0.000507	5.068544	1.717269	-0.000203
1042	1.0358e+02	-1.4807	2.912793	0.000345	3.446610	1.167743	-0.000138
1043	1.0368e+02	-1.5112	2.759382	0.000385	3.852093	1.305125	-0.000154
1044	1.0378e+02	-1.5529	2.605971	0.000385	3.852093	1.305125	-0.000154
1045	1.0388e+02	-1.5882	2.432374	0.000436	4.358948	1.476852	-0.000174
1046	1.0398e+02	-1.6363	2.250703	0.000456	4.561690	1.545542	-0.000183
1047	1.0408e+02	-1.6716	2.069032	0.000456	4.561690	1.545542	-0.000183
1048	1.0418e+02	-1.7165	1.895435	0.000436	4.358948	1.476852	-0.000174
1049	1.0428e+02	-1.7566	1.729913	0.000416	4.156206	1.408161	-0.000166
1050	1.0438e+02	-1.7887	1.511907	0.000547	5.474028	1.854651	-0.000219
1051	1.0447e+02	-1.8224	1.342348	0.000426	4.257577	1.442506	-0.000170
1052	1.0457e+02	-1.8673	1.160677	0.000456	4.561690	1.545542	-0.000183
1053	1.0467e+02	-1.9219	0.958820	0.000507	5.068544	1.717269	-0.000203
1054	1.0477e+02	-1.9540	0.813483	0.000365	3.649352	1.236434	-0.000146
1055	1.0487e+02	-1.9909	0.627775	0.000466	4.663061	1.579888	-0.000187
1056	1.0497e+02	-2.0358	0.522809	0.000264	2.635643	0.892980	-0.000105
1057	1.0507e+02	-2.0679	0.361324	0.000405	4.054835	1.373815	-0.000162
1058	1.0517e+02	-2.1064	0.171578	0.000476	4.764431	1.614233	-0.000191
1059	1.0527e+02	-2.1545	-0.058538	0.000578	5.778140	1.957687	-0.000231
1060	1.0537e+02	-2.1994	-0.159467	0.000253	2.534272	0.858635	-0.000101
1061	1.0547e+02	-2.2283	-0.365361	0.000517	5.169915	1.751615	-0.000207
1062	1.0557e+02	-2.2732	-0.530883	0.000416	4.156206	1.408161	-0.000166
1063	1.0567e+02	-2.3165	-0.668146	0.000345	3.446610	1.167743	-0.000138
1064	1.0577e+02	-2.3598	-0.849817	0.000456	4.561690	1.545542	-0.000183
1065	1.0587e+02	-2.3855	-1.003228	0.000385	3.852093	1.305125	-0.000154
1066	1.0597e+02	-2.4400	-1.237382	0.000588	5.879511	1.992032	-0.000235
1067	1.0607e+02	-2.4753	-1.350422	0.000284	2.838385	0.961671	-0.000114
1068	1.0617e+02	-2.5154	-1.556316	0.000517	5.169915	1.751615	-0.000207
1069	1.0627e+02	-2.5539	-1.737987	0.000456	4.561690	1.545542	-0.000183
1070	1.0637e+02	-2.5940	-1.903510	0.000416	4.156206	1.408161	-0.000166
1071	1.0647e+02	-2.6213	-2.056921	0.000385	3.852093	1.305125	-0.000154
1072	1.0656e+02	-2.6743	-2.266852	0.000527	5.271286	1.785960	-0.000211
1073	1.0666e+02	-2.7079	-2.383929	0.000294	2.939756	0.996016	-0.000118
1074	1.0676e+02	-2.7497	-2.593860	0.000527	5.271286	1.785960	-0.000211
1075	1.0686e+02	-2.8010	-2.719011	0.000314	3.142497	1.064707	-0.000126
1076	1.0696e+02	-2.8299	-2.864348	0.000365	3.649352	1.236434	-0.000146
1077	1.0706e+02	-2.8764	-3.037945	0.000436	4.358948	1.476852	-0.000174
1078	1.0716e+02	-2.9117	-3.159059	0.000304	3.041126	1.030362	-0.000122
1079	1.0726e+02	-2.9598	-3.373027	0.000537	5.372657	1.820305	-0.000215
1080	1.0736e+02	-2.9935	-3.530475	0.000395	3.953464	1.339470	-0.000158
1081	1.0746e+02	-3.0304	-3.704072	0.000436	4.358948	1.476852	-0.000174
1082	1.0756e+02	-3.0641	-3.857483	0.000385	3.852093	1.305125	-0.000154
1083	1.0766e+02	-3.1058	-4.027043	0.000426	4.257577	1.442506	-0.000170
1084	1.0776e+02	-3.1395	-4.200640	0.000436	4.358948	1.476852	-0.000174
1085	1.0786e+02	-3.1908	-4.398459	0.000497	4.967173	1.682924	-0.000199
1086	1.0796e+02	-3.2245	-4.592242	0.000487	4.865802	1.648578	-0.000195
1087	1.0806e+02	-3.2678	-4.713356	0.000304	3.041126	1.030362	-0.000122
1088	1.0816e+02	-3.3111	-4.878879	0.000416	4.156206	1.408161	-0.000166
1089	1.0826e+02	-3.3464	-5.048438	0.000426	4.257577	1.442506	-0.000170
1090	1.0836e+02	-3.3913	-5.226072	0.000446	4.460319	1.511197	-0.000179
1091	1.0845e+02	-3.4347	-5.367372	0.000355	3.547981	1.202088	-0.000142
1092	1.0855e+02	-3.4716	-5.520783	0.000385	3.852093	1.305125	-0.000154
1093	1.0865e+02	-3.5117	-5.637860	0.000294	2.939756	0.996016	-0.000118
1094	1.0875e+02	-3.5486	-5.819531	0.000456	4.561690	1.545542	-0.000183
1095	1.0885e+02	-3.5951	-5.952757	0.000335	3.345239	1.133398	-0.000134
1096	1.0895e+02	-3.6288	-6.138465	0.000466	4.663061	1.579888	-0.000187
1097	1.0905e+02	-3.6657	-6.336285	0.000497	4.967173	1.682924	-0.000199
1098	1.0915e+02	-3.7074	-6.497770	0.000405	4.054835	1.373815	-0.000162
1099	1.0925e+02	-3.7475	-6.651181	0.000385	3.852093	1.305125	-0.000154
1100	1.0935e+02	-3.7860	-6.780369	0.000324	3.243868	1.099052	-0.000130
1101	1.0945e+02	-3.8197	-7.006449	0.000568	5.676769	1.923342	-0.000227
1102	1.0955e+02	-3.8630	-7.123526	0.000294	2.939756	0.996016	-0.000118
1103	1.0965e+02	-3.9015	-7.321346	0.000497	4.967173	1.682924	-0.000199
1104	1.0975e+02	-3.9368	-7.535314	0.000537	5.372657	1.820305	-0.000215
1105	1.0985e+02	-3.9801	-7.644317	0.000274	2.737014	0.927325	-0.000110
1106	1.0995e+02	-4.0250	-7.821950	0.000446	4.460319	1.511197	-0.000179
1107	1.1005e+02	-4.0683	-7.951139	0.000324	3.243868	1.099052	-0.000130
1108	1.1015e+02	-4.1004	-8.104550	0.000385	3.852093	1.305125	-0.000154
1109	1.1025e+02	-4.1437	-8.241813	0.000345	3.446610	1.167743	-0.000138
1110	1.1035e+02	-4.1919	-8.366964	0.000314	3.142497	1.064707	-0.000126
1111	1.1044e+02	-4.2336	-8.556709	0.000476	4.764431	1.614233	-0.000191
1112	1.1054e+02	-4.2641	-8.722232	0.000416	4.156206	1.408161	-0.000166
1113	1.1064e+02	-4.3090	-8.875643	0.000385	3.852093	1.305125	-0.000154
1114	1.1074e+02	-4.3523	-9.033091	0.000395	3.953464	1.339470	-0.000158
1115	1.1084e+02	-4.3844	-9.154205	0.000304	3.041126	1.030362	-0.000122
1116	1.1094e+02	-4.4213	-9.335876	0.000456	4.561690	1.545542	-0.000183
1117	1.1104e+02	-4.4582	-9.485250	0.000375	3.750723	1.270779	-0.000150
1118	1.1114e+02	-4.4999	-9.683070	0.000497	4.967173	1.682924	-0.000199
1119	1.1124e+02	-4.5448	-9.836481	0.000385	3.852093	1.305125	-0.000154
1120	1.1134e+02	-4.5769	-10.014115	0.000446	4.460319	1.511197	-0.000179
1121	1.1144e+02	-4.6282	-10.127155	0.000284	2.838385	0.961671	-0.000114
1122	1.1154e+02	-4.6619	-10.329012	0.000507	5.068544	1.717269	-0.000203
1123	1.1164e+02	-4.6940	-10.474349	0.000365	3.649352	1.236434	-0.000146
1124	1.1174e+02	-4.7373	-10.607574	0.000335	3.345239	1.133398	-0.000134
1125	1.1184e+02	-4.7902	-10.760985	0.000385	3.852093	1.305125	-0.000154
1126	1.1194e+02	-4.8175	-10.902285	0.000355	3.547981	1.202088	-0.000142
1127	1.1204e+02	-4.8656	-11.039548	0.000345	3.446610	1.167743	-0.000138
1128	1.1214e+02	-4.9106	-11.205070	0.000416	4.156206	1.408161	-0.000166
1129	1.1224e+02	-4.9394	-11.346370	0.000355	3.547981	1.202088	-0.000142
1130	1.1234e+02	-4.9876	-11.524004	0.000446	4.460319	1.511197	-0.000179
1131	1.1244e+02	-5.0261	-11.628969	0.000264	2.635643	0.892980	-0.000105
1132	1.1253e+02	-5.0630	-11.806603	0.000446	4.460319	1.511197	-0.000179
1133	1.1263e+02	-5.0983	-11.972126	0.000416	4.156206	1.408161	-0.000166
1134	1.1273e+02	-5.1448	-12.097277	0.000314	3.142497	1.064707	-0.000126
1135	1.1283e+02	-5.1801	-12.291060	0.000487	4.865802	1.648578	-0.000195
1136	1.1293e+02	-5.2138	-12.460619	0.000426	4.257577	1.442506	-0.000170
1137	1.1303e+02	-5.2619	-12.642291	0.000456	4.561690	1.545542	-0.000183
1138	1.1313e+02	-5.2924	-12.783590	0.000355	3.547981	1.202088	-0.000142
1139	1.1323e+02	-5.3405	-12.932964	0.000375	3.750723	1.270779	-0.000150
1140	1.1333e+02	-5.3774	-13.070227	0.000345	3.446610	1.167743	-0.000138
1141	1.1343e+02	-5.4191	-13.211527	0.000355	3.547981	1.202088	-0.000142
1142	1.1353e+02	-5.4640	-13.385124	0.000436	4.358948	1.476852	-0.000174
1143	1.1363e+02	-5.4993	-13.530460	0.000365	3.649352	1.236434	-0.000146
1144	1.1373e+02	-5.5426	-13.639463	0.000274	2.737014	0.927325	-0.000110
1145	1.1383e+02	-5.5811	-13.784800	0.000365	3.649352	1.236434	-0.000146
1146	1.1393e+02	-5.6148	-13.926100	0.000355	3.547981	1.202088	-0.000142
1147	1.1403e+02	-5.6645	-14.079511	0.000385	3.852093	1.305125	-0.000154
1148	1.1413e+02	-5.6918	-14.228885	0.000375	3.750723	1.270779	-0.000150
1149	1.1423e+02	-5.7383	-14.386333	0.000395	3.953464	1.339470	-0.000158
1150	1.1433e+02	-5.7801	-14.551856	0.000416	4.156206	1.408161	-0.000166
1151	1.1442e+02	-5.8186	-14.640673	0.000223	2.230159	0.755598	-0.000089
1152	1.1452e+02	-5.8603	-14.826381	0.000466	4.663061	1.579888	-0.000187
1153	1.1462e+02	-5.9020	-14.963644	0.000345	3.446610	1.167743	-0.000138
1154	1.1472e+02	-5.9228	-15.137240	0.000436	4.358948	1.476852	-0.000174
1155	1.1482e+02	-5.9726	-15.379469	0.000608	6.082253	2.060723	-0.000243
1156	1.1492e+02	-6.0111	-15.464248	0.000213	2.128789	0.721253	-0.000085
1157	1.1502e+02	-6.0544	-15.625734	0.000405	4.054835	1.373815	-0.000162
1158	1.1512e+02	-6.0881	-15.771071	0.000365	3.649352	1.236434	-0.000146
1159	1.1522e+02	-6.1330	-15.888148	0.000294	2.939756	0.996016	-0.000118
1160	1.1532e+02	-6.1843	-16.017336	0.000324	3.243868	1.099052	-0.000130
1161	1.1542e+02	-6.2164	-16.154599	0.000345	3.446610	1.167743	-0.000138
1162	1.1552e+02	-6.2597	-16.303973	0.000375	3.750723	1.270779	-0.000150
1163	1.1562e+02	-6.2982	-16.465458	0.000405	4.054835	1.373815	-0.000162
1164	1.1572e+02	-6.3399	-16.586572	0.000304	3.041126	1.030362	-0.000122
1165	1.1582e+02	-6.3768	-16.699612	0.000284	2.838385	0.961671	-0.000114
1166	1.1592e+02	-6.4185	-16.877246	0.000446	4.460319	1.511197	-0.000179
1167	1.1602e+02	-6.4570	-17.018546	0.000355	3.547981	1.202088	-0.000142
1168	1.1612e+02	-6.4987	-17.115437	0.000243	2.432901	0.824289	-0.000097
1169	1.1622e+02	-6.5276	-17.313257	0.000497	4.967173	1.682924	-0.000199
1170	1.1632e+02	-6.5806	-17.430334	0.000294	2.939756	0.996016	-0.000118
1171	1.1642e+02	-6.6046	-17.624116	0.000487	4.865802	1.648578	-0.000195
1172	1.1651e+02	-6.6447	-17.765416	0.000355	3.547981	1.202088	-0.000142
1173	1.1661e+02	-6.6864	-17.878456	0.000284	2.838385	0.961671	-0.000114
1174	1.1671e+02	-6.7346	-18.068201	0.000476	4.764431	1.614233	-0.000191
1175	1.1681e+02	-6.7650	-18.233724	0.000416	4.156206	1.408161	-0.000166
1176	1.1691e+02	-6.8164	-18.334652	0.000253	2.534272	0.858635	-0.000101
1177	1.1701e+02	-6.8549	-18.471915	0.000345	3.446610	1.167743	-0.000138
1178	1.1711e+02	-6.8934	-18.593029	0.000304	3.041126	1.030362	-0.000122
1179	1.1721e+02	-6.9319	-18.693957	0.000253	2.534272	0.858635	-0.000101
1180	1.1731e+02	-6.9736	-18.839294	0.000365	3.649352	1.236434	-0.000146
1181	1.1741e+02	-7.0153	-19.041151	0.000507	5.068544	1.717269	-0.000203
1182	1.1751e+02	-7.0538	-19.142079	0.000253	2.534272	0.858635	-0.000101
1183	1.1761e+02	-7.1003	-19.291453	0.000375	3.750723	1.270779	-0.000150
1184	1.1771e+02	-7.1292	-19.461013	0.000426	4.257577	1.442506	-0.000170
1185	1.1781e+02	-7.1757	-19.586164	0.000314	3.142497	1.064707	-0.000126
1186	1.1791e+02	-7.2078	-19.703241	0.000294	2.939756	0.996016	-0.000118
1187	1.1801e+02	-7.2463	-19.892986	0.000476	4.764431	1.614233	-0.000191
1188	1.1811e+02	-7.2961	-20.006026	0.000284	2.838385	0.961671	-0.000114
1189	1.1821e+02	-7.3265	-20.179623	0.000436	4.358948	1.476852	-0.000174
1190	1.1831e+02	-7.3666	-20.333034	0.000385	3.852093	1.305125	-0.000154
1191	1.1841e+02	-7.4196	-20.510668	0.000446	4.460319	1.511197	-0.000179
1192	1.1850e+02	-7.4501	-20.635819	0.000314	3.142497	1.064707	-0.000126
1193	1.1860e+02	-7.4950	-20.748859	0.000284	2.838385	0.961671	-0.000114
1194	1.1870e+02	-7.5303	-20.886122	0.000345	3.446610	1.167743	-0.000138
1195	1.1880e+02	-7.5720	-21.019347	0.000335	3.345239	1.133398	-0.000134
1196	1.1890e+02	-7.6057	-21.124313	0.000264	2.635643	0.892980	-0.000105
1197	1.1900e+02	-7.6506	-21.257538	0.000335	3.345239	1.133398	-0.000134
1198	1.1910e+02	-7.6923	-21.382689	0.000314	3.142497	1.064707	-0.000126
1199	1.1920e+02	-7.7308	-21.536101	0.000385	3.852093	1.305125	-0.000154
1200	1.1930e+02	-7.7661	-21.677400	0.000355	3.547981	1.202088	-0.000142
1201	1.1940e+02	-7.8110	-21.786403	0.000274	2.737014	0.927325	-0.000110
1202	1.1950e+02	-7.8415	-21.923666	0.000345	3.446610	1.167743	-0.000138
1203	1.1960e+02	-7.8848	-22.101300	0.000446	4.460319	1.511197	-0.000179
1204	1.1970e+02	-7.9233	-22.190117	0.000223	2.230159	0.755598	-0.000089
1205	1.1980e+02	-7.9682	-22.331416	0.000355	3.547981	1.202088	-0.000142
1206	1.1990e+02	-8.0083	-22.533273	0.000507	5.068544	1.717269	-0.000203
1207	1.2000e+02	-8.0388	-22.638239	0.000264	2.635643	0.892980	-0.000105
1208	1.2010e+02	-8.0821	-22.791650	0.000385	3.852093	1.305125	-0.000154
1209	1.2020e+02	-8.1206	-22.920838	0.000324	3.243868	1.099052	-0.000130
1210	1.2030e+02	-8.1591	-23.050026	0.000324	3.243868	1.099052	-0.000130
1211	1.2039e+02	-8.2089	-23.227660	0.000446	4.460319	1.511197	-0.000179
1212	1.2049e+02	-8.2538	-23.304366	0.000193	1.926047	0.652562	-0.000077
1213	1.2059e+02	-8.2810	-23.437592	0.000335	3.345239	1.133398	-0.000134
1214	1.2069e+02	-8.3276	-23.574854	0.000345	3.446610	1.167743	-0.000138
1215	1.2079e+02	-8.3741	-23.691931	0.000294	2.939756	0.996016	-0.000118
1216	1.2089e+02	-8.4110	-23.853417	0.000405	4.054835	1.373815	-0.000162
1217	1.2099e+02	-8.4479	-23.942233	0.000223	2.230159	0.755598	-0.000089
1218	1.2109e+02	-8.4800	-24.095645	0.000385	3.852093	1.305125	-0.000154
1219	1.2119e+02	-8.5297	-24.220796	0.000314	3.142497	1.064707	-0.000126
1220	1.2129e+02	-8.5650	-24.329799	0.000274	2.737014	0.927325	-0.000110
1221	1.2139e+02	-8.6147	-24.454950	0.000314	3.142497	1.064707	-0.000126
1222	1.2149e+02	-8.6468	-24.620472	0.000416	4.156206	1.408161	-0.000166
1223	1.2159e+02	-8.6837	-24.765809	0.000365	3.649352	1.236434	-0.000146
1224	1.2169e+02	-8.7238	-24.927295	0.000405	4.054835	1.373815	-0.000162
1225	1.2179e+02	-8.7719	-25.052446	0.000314	3.142497	1.064707	-0.000126
1226	1.2189e+02	-8.8104	-25.205857	0.000385	3.852093	1.305125	-0.000154
1227	1.2199e+02	-8.8361	-25.355231	0.000375	3.750723	1.270779	-0.000150
1228	1.2209e+02	-8.8923	-25.460197	0.000264	2.635643	0.892980	-0.000105
1229	1.2219e+02	-8.9227	-25.577273	0.000294	2.939756	0.996016	-0.000118
1230	1.2229e+02	-8.9661	-25.690313	0.000284	2.838385	0.961671	-0.000114
1231	1.2239e+02	-9.0078	-25.803353	0.000284	2.838385	0.961671	-0.000114
1232	1.2248e+02	-9.0447	-25.916393	0.000284	2.838385	0.961671	-0.000114
1233	1.2258e+02	-9.0928	-26.077878	0.000405	4.054835	1.373815	-0.000162
1234	1.2268e+02	-9.1233	-26.194955	0.000294	2.939756	0.996016	-0.000118
1235	1.2278e+02	-9.1618	-26.324144	0.000324	3.243868	1.099052	-0.000130
1236	1.2288e+02	-9.1987	-26.477555	0.000385	3.852093	1.305125	-0.000154
1237	1.2298e+02	-9.2548	-26.566372	0.000223	2.230159	0.755598	-0.000089
1238	1.2308e+02	-9.2885	-26.723820	0.000395	3.953464	1.339470	-0.000158
1239	1.2318e+02	-9.3270	-26.800526	0.000193	1.926047	0.652562	-0.000077
1240	1.2328e+02	-9.3559	-27.018531	0.000547	5.474028	1.854651	-0.000219
1241	1.2338e+02	-9.3960	-27.143682	0.000314	3.142497	1.064707	-0.000126
1242	1.2348e+02	-9.4393	-27.268833	0.000314	3.142497	1.064707	-0.000126
1243	1.2358e+02	-9.4778	-27.422245	0.000385	3.852093	1.305125	-0.000154
1244	1.2368e+02	-9.5179	-27.583730	0.000405	4.054835	1.373815	-0.000162
1245	1.2378e+02	-9.5564	-27.664473	0.000203	2.027418	0.686908	-0.000081
1246	1.2388e+02	-9.5933	-27.805772	0.000355	3.547981	1.202088	-0.000142
1247	1.2398e+02	-9.6382	-27.898627	0.000233	2.331530	0.789944	-0.000093
1248	1.2408e+02	-9.6751	-27.995518	0.000243	2.432901	0.824289	-0.000097
1249	1.2418e+02	-9.7168	-28.165077	0.000426	4.257577	1.442506	-0.000170
1250	1.2428e+02	-9.7650	-28.278117	0.000284	2.838385	0.961671	-0.000114
1251	1.2438e+02	-9.7954	-28.391157	0.000284	2.838385	0.961671	-0.000114
1252	1.2447e+02	-9.8436	-28.504197	0.000284	2.838385	0.961671	-0.000114
1253	1.2457e+02	-9.8773	-28.653571	0.000375	3.750723	1.270779	-0.000150
1254	1.2467e+02	-9.9254	-28.778722	0.000314	3.142497	1.064707	-0.000126
1255	1.2477e+02	-9.9703	-28.895799	0.000294	2.939756	0.996016	-0.000118
1256	1.2487e+02	-9.9976	-29.041136	0.000365	3.649352	1.236434	-0.000146
1257	1.2497e+02	-10.0345	-29.129953	0.000223	2.230159	0.755598	-0.000089
1258	1.2507e+02	-10.0794	-29.295475	0.000416	4.156206	1.408161	-0.000166
1259	1.2517e+02	-10.1211	-29.420627	0.000314	3.142497	1.064707	-0.000126
1260	1.2527e+02	-10.1660	-29.614409	0.000487	4.865802	1.648578	-0.000195
1261	1.2537e+02	-10.1869	-29.703226	0.000223	2.230159	0.755598	-0.000089
1262	1.2547e+02	-10.2414	-29.864712	0.000405	4.054835	1.373815	-0.000162
1263	1.2557e+02	-10.2815	-29.941417	0.000193	1.926047	0.652562	-0.000077
1264	1.2567e+02	-10.3248	-30.086754	0.000365	3.649352	1.236434	-0.000146
1265	1.2577e+02	-10.3649	-30.175571	0.000223	2.230159	0.755598	-0.000089
1266	1.2587e+02	-10.3970	-30.296685	0.000304	3.041126	1.030362	-0.000122
1267	1.2597e+02	-10.4403	-30.470282	0.000436	4.358948	1.476852	-0.000174
1268	1.2607e+02	-10.4869	-30.546988	0.000193	1.926047	0.652562	-0.000077
1269	1.2617e+02	-10.5061	-30.676176	0.000324	3.243868	1.099052	-0.000130
1270	1.2627e+02	-10.5607	-30.809401	0.000335	3.345239	1.133398	-0.000134
1271	1.2636e+02	-10.6040	-30.930515	0.000304	3.041126	1.030362	-0.000122
1272	1.2646e+02	-10.6393	-31.023370	0.000233	2.331530	0.789944	-0.000093
1273	1.2656e+02	-10.6746	-31.172744	0.000375	3.750723	1.270779	-0.000150
1274	1.2666e+02	-10.7034	-31.301932	0.000324	3.243868	1.099052	-0.000130
1275	1.2676e+02	-10.7628	-31.410935	0.000274	2.737014	0.927325	-0.000110
1276	1.2686e+02	-10.7965	-31.600680	0.000476	4.764431	1.614233	-0.000191
1277	1.2696e+02	-10.8382	-31.705646	0.000264	2.635643	0.892980	-0.000105
1278	1.2706e+02	-10.8783	-31.834834	0.000324	3.243868	1.099052	-0.000130
1279	1.2716e+02	-10.9168	-31.931725	0.000243	2.432901	0.824289	-0.000097
1280	1.2726e+02	-10.9569	-32.020542	0.000223	2.230159	0.755598	-0.000089
1281	1.2736e+02	-10.9922	-32.157805	0.000345	3.446610	1.167743	-0.000138
1282	1.2746e+02	-11.0403	-32.299104	0.000355	3.547981	1.202088	-0.000142
1283	1.2756e+02	-11.0772	-32.412144	0.000284	2.838385	0.961671	-0.000114
1284	1.2766e+02	-11.1157	-32.513073	0.000253	2.534272	0.858635	-0.000101
1285	1.2776e+02	-11.1526	-32.614001	0.000253	2.534272	0.858635	-0.000101
1286	1.2786e+02	-11.1959	-32.763375	0.000375	3.750723	1.270779	-0.000150
1287	1.2796e+02	-11.2441	-32.900638	0.000345	3.446610	1.167743	-0.000138
1288	1.2806e+02	-11.2665	-33.021752	0.000304	3.041126	1.030362	-0.000122
1289	1.2816e+02	-11.3114	-33.146903	0.000314	3.142497	1.064707	-0.000126
1290	1.2826e+02	-11.3676	-33.276091	0.000324	3.243868	1.099052	-0.000130
1291	1.2835e+02	-11.3901	-33.393168	0.000294	2.939756	0.996016	-0.000118
1292	1.2845e+02	-11.4350	-33.518319	0.000314	3.142497	1.064707	-0.000126
1293	1.2855e+02	-11.4687	-33.671731	0.000385	3.852093	1.305125	-0.000154
1294	1.2865e+02	-11.5056	-33.813030	0.000355	3.547981	1.202088	-0.000142
1295	1.2875e+02	-11.5569	-33.889736	0.000193	1.926047	0.652562	-0.000077
1296	1.2885e+02	-11.5954	-34.022961	0.000335	3.345239	1.133398	-0.000134
1297	1.2895e+02	-11.6403	-34.136001	0.000284	2.838385	0.961671	-0.000114
1298	1.2905e+02	-11.6804	-34.232892	0.000243	2.432901	0.824289	-0.000097
1299	1.2915e+02	-11.7157	-34.317672	0.000213	2.128789	0.721253	-0.000085
1300	1.2925e+02	-11.7494	-34.454935	0.000345	3.446610	1.167743	-0.000138
1301	1.2935e+02	-11.7927	-34.596235	0.000355	3.547981	1.202088	-0.000142
1302	1.2945e+02	-11.8473	-34.729460	0.000335	3.345239	1.133398	-0.000134
1303	1.2955e+02	-11.8745	-34.834426	0.000264	2.635643	0.892980	-0.000105
1304	1.2965e+02	-11.9227	-34.955540	0.000304	3.041126	1.030362	-0.000122
1305	1.2975e+02	-11.9467	-35.072617	0.000294	2.939756	0.996016	-0.000118
1306	1.2985e+02	-11.9868	-35.226028	0.000385	3.852093	1.305125	-0.000154
1307	1.2995e+02	-12.0285	-35.314845	0.000223	2.230159	0.755598	-0.000089
1308	1.3005e+02	-12.0702	-35.472293	0.000395	3.953464	1.339470	-0.000158
1309	1.3015e+02	-12.0991	-35.569184	0.000243	2.432901	0.824289	-0.000097
1310	1.3025e+02	-12.1489	-35.714521	0.000365	3.649352	1.236434	-0.000146
1311	1.3034e+02	-12.1890	-35.831598	0.000294	2.939756	0.996016	-0.000118
1312	1.3044e+02	-12.2339	-35.924452	0.000233	2.331530	0.789944	-0.000093
1313	1.3054e+02	-12.2676	-36.057678	0.000335	3.345239	1.133398	-0.000134
1314	1.3064e+02	-12.3077	-36.146495	0.000223	2.230159	0.755598	-0.000089
1315	1.3074e+02	-12.3510	-36.271646	0.000314	3.142497	1.064707	-0.000126
1316	1.3084e+02	-12.3911	-36.364500	0.000233	2.331530	0.789944	-0.000093
1317	1.3094e+02	-12.4344	-36.485614	0.000304	3.041126	1.030362	-0.000122
1318	1.3104e+02	-12.4665	-36.622877	0.000345	3.446610	1.167743	-0.000138
1319	1.3114e+02	-12.5130	-36.739954	0.000294	2.939756	0.996016	-0.000118
1320	1.3124e+02	-12.5499	-36.857031	0.000294	2.939756	0.996016	-0.000118
1321	1.3134e+02	-12.5948	-36.961996	0.000264	2.635643	0.892980	-0.000105
1322	1.3144e+02	-12.6317	-37.095222	0.000335	3.345239	1.133398	-0.000134
1323	1.3154e+02	-12.6750	-37.232484	0.000345	3.446610	1.167743	-0.000138
1324	1.3164e+02	-12.7119	-37.373784	0.000355	3.547981	1.202088	-0.000142
1325	1.3174e+02	-12.7344	-37.454527	0.000203	2.027418	0.686908	-0.000081
1326	1.3184e+02	-12.7841	-37.628124	0.000436	4.358948	1.476852	-0.000174
1327	1.3194e+02	-12.8258	-37.745201	0.000294	2.939756	0.996016	-0.000118
1328	1.3204e+02	-12.8627	-37.862278	0.000294	2.939756	0.996016	-0.000118
1329	1.3214e+02	-12.9109	-37.926872	0.000162	1.621934	0.549526	-0.000065
1330	1.3224e+02	-12.9542	-38.031837	0.000264	2.635643	0.892980	-0.000105
1331	1.3234e+02	-12.9895	-38.152951	0.000304	3.041126	1.030362	-0.000122
1332	1.3243e+02	-13.0183	-38.265991	0.000284	2.838385	0.961671	-0.000114
1333	1.3253e+02	-13.0681	-38.383068	0.000294	2.939756	0.996016	-0.000118
1334	1.3263e+02	-13.1018	-38.516294	0.000335	3.345239	1.133398	-0.000134
1335	1.3273e+02	-13.1451	-38.621259	0.000264	2.635643	0.892980	-0.000105
1336	1.3283e+02	-13.1900	-38.706039	0.000213	2.128789	0.721253	-0.000085
1337	1.3293e+02	-13.2333	-38.859450	0.000385	3.852093	1.305125	-0.000154
1338	1.3303e+02	-13.2622	-38.972490	0.000284	2.838385	0.961671	-0.000114
1339	1.3313e+02	-13.3071	-39.101678	0.000324	3.243868	1.099052	-0.000130
1340	1.3323e+02	-13.3408	-39.178384	0.000193	1.926047	0.652562	-0.000077
1341	1.3333e+02	-13.3857	-39.311609	0.000335	3.345239	1.133398	-0.000134
1342	1.3343e+02	-13.4082	-39.473095	0.000405	4.054835	1.373815	-0.000162
1343	1.3353e+02	-13.4740	-39.618432	0.000365	3.649352	1.236434	-0.000146
1344	1.3363e+02	-13.5028	-39.727434	0.000274	2.737014	0.927325	-0.000110
1345	1.3373e+02	-13.5413	-39.796066	0.000172	1.723305	0.583872	-0.000069
1346	1.3383e+02	-13.5862	-39.848548	0.000132	1.317821	0.446490	-0.000053
1347	1.3393e+02	-13.6231	-40.022145	0.000436	4.358948	1.476852	-0.000174
1348	1.3403e+02	-13.6697	-40.127111	0.000264	2.635643	0.892980	-0.000105
1349	1.3413e+02	-13.7050	-40.256299	0.000324	3.243868	1.099052	-0.000130
1350	1.3423e+02	-13.7370	-40.381450	0.000314	3.142497	1.064707	-0.000126
1351	1.3432e+02	-13.7948	-40.498527	0.000294	2.939756	0.996016	-0.000118
1352	1.3442e+02	-13.8173	-40.587344	0.000223	2.230159	0.755598	-0.000089
1353	1.3452e+02	-13.8654	-40.720570	0.000335	3.345239	1.133398	-0.000134
1354	1.3462e+02	-13.9087	-40.845721	0.000314	3.142497	1.064707	-0.000126
1355	1.3472e+02	-13.9472	-40.942612	0.000243	2.432901	0.824289	-0.000097
1356	1.3482e+02	-13.9777	-41.071800	0.000324	3.243868	1.099052	-0.000130
1357	1.3492e+02	-14.0226	-41.205026	0.000335	3.345239	1.133398	-0.000134
1358	1.3502e+02	-14.0595	-41.305954	0.000253	2.534272	0.858635	-0.000101
1359	1.3512e+02	-14.1044	-41.471477	0.000416	4.156206	1.408161	-0.000166
1360	1.3522e+02	-14.1365	-41.608739	0.000345	3.446610	1.167743	-0.000138
1361	1.3532e+02	-14.1830	-41.758114	0.000375	3.750723	1.270779	-0.000150
1362	1.3542e+02	-14.2167	-41.842893	0.000213	2.128789	0.721253	-0.000085
1363	1.3552e+02	-14.2664	-41.939785	0.000243	2.432901	0.824289	-0.000097
1364	1.3562e+02	-14.2969	-42.032639	0.000233	2.331530	0.789944	-0.000093
1365	1.3572e+02	-14.3402	-42.173938	0.000355	3.547981	1.202088	-0.000142
1366	1.3582e+02	-14.3803	-42.242570	0.000172	1.723305	0.583872	-0.000069
1367	1.3592e+02	-14.4269	-42.379832	0.000345	3.446610	1.167743	-0.000138
1368	1.3602e+02	-14.4734	-42.525169	0.000365	3.649352	1.236434	-0.000146
1369	1.3612e+02	-14.4991	-42.634172	0.000274	2.737014	0.927325	-0.000110
1370	1.3622e+02	-14.5376	-42.791620	0.000395	3.953464	1.339470	-0.000158
1371	1.3631e+02	-14.5825	-42.860252	0.000172	1.723305	0.583872	-0.000069
1372	1.3641e+02	-14.6162	-42.981366	0.000304	3.041126	1.030362	-0.000122
1373	1.3651e+02	-14.6611	-43.102480	0.000304	3.041126	1.030362	-0.000122
1374	1.3661e+02	-14.6980	-43.239742	0.000345	3.446610	1.167743	-0.000138
1375	1.3671e+02	-14.7461	-43.393153	0.000385	3.852093	1.305125	-0.000154
1376	1.3681e+02	-14.7782	-43.562713	0.000426	4.257577	1.442506	-0.000170
1377	1.3691e+02	-14.8151	-43.635382	0.000182	1.824676	0.618217	-0.000073
1378	1.3701e+02	-14.8712	-43.796867	0.000405	4.054835	1.373815	-0.000162
1379	1.3711e+02	-14.9001	-43.873573	0.000193	1.926047	0.652562	-0.000077
1380	1.3721e+02	-14.9306	-44.002761	0.000324	3.243868	1.099052	-0.000130
1381	1.3731e+02	-14.9803	-44.091578	0.000223	2.230159	0.755598	-0.000089
1382	1.3741e+02	-15.0188	-44.228841	0.000345	3.446610	1.167743	-0.000138
1383	1.3751e+02	-15.0621	-44.370140	0.000355	3.547981	1.202088	-0.000142
1384	1.3761e+02	-15.1022	-44.471069	0.000253	2.534272	0.858635	-0.000101
1385	1.3771e+02	-15.1343	-44.620443	0.000375	3.750723	1.270779	-0.000150
1386	1.3781e+02	-15.1744	-44.741557	0.000304	3.041126	1.030362	-0.000122
1387	1.3791e+02	-15.2226	-44.858634	0.000294	2.939756	0.996016	-0.000118
1388	1.3801e+02	-15.2546	-44.991859	0.000335	3.345239	1.133398	-0.000134
1389	1.3811e+02	-15.3028	-45.117010	0.000314	3.142497	1.064707	-0.000126
1390	1.3821e+02	-15.3445	-45.274459	0.000395	3.953464	1.339470	-0.000158
1391	1.3831e+02	-15.3782	-45.407684	0.000335	3.345239	1.133398	-0.000134
1392	1.3840e+02	-15.4151	-45.548984	0.000355	3.547981	1.202088	-0.000142
1393	1.3850e+02	-15.4632	-45.690284	0.000355	3.547981	1.202088	-0.000142
1394	1.3860e+02	-15.4905	-45.847732	0.000395	3.953464	1.339470	-0.000158
1395	1.3870e+02	-15.5258	-45.984995	0.000345	3.446610	1.167743	-0.000138
1396	1.3880e+02	-15.5723	-46.073812	0.000223	2.230159	0.755598	-0.000089
1397	1.3890e+02	-15.6124	-46.207037	0.000335	3.345239	1.133398	-0.000134
1398	1.3900e+02	-15.6621	-46.320077	0.000284	2.838385	0.961671	-0.000114
1399	1.3910e+02	-15.7086	-46.497711	0.000446	4.460319	1.511197	-0.000179
1400	1.3920e+02	-15.7375	-46.630936	0.000335	3.345239	1.133398	-0.000134
1401	1.3930e+02	-15.7873	-46.731865	0.000253	2.534272	0.858635	-0.000101
1402	1.3940e+02	-15.8209	-46.905462	0.000436	4.358948	1.476852	-0.000174
1403	1.3950e+02	-15.8610	-47.030613	0.000314	3.142497	1.064707	-0.000126
1404	1.3960e+02	-15.8883	-47.188061	0.000395	3.953464	1.339470	-0.000158
1405	1.3970e+02	-15.9348	-47.345509	0.000395	3.953464	1.339470	-0.000158
1406	1.3980e+02	-15.9750	-47.482772	0.000345	3.446610	1.167743	-0.000138
1407	1.3990e+02	-16.0167	-47.660406	0.000446	4.460319	1.511197	-0.000179
1408	1.4000e+02	-16.0520	-47.817854	0.000395	3.953464	1.339470	-0.000158
1409	1.4010e+02	-16.0856	-47.951080	0.000335	3.345239	1.133398	-0.000134
1410	1.4020e+02	-16.1354	-48.096417	0.000365	3.649352	1.236434	-0.000146
1411	1.4029e+02	-16.1755	-48.298273	0.000507	5.068544	1.717269	-0.000203
1412	1.4039e+02	-16.2060	-48.427462	0.000324	3.243868	1.099052	-0.000130
1413	1.4049e+02	-16.2557	-48.548576	0.000304	3.041126	1.030362	-0.000122
1414	1.4059e+02	-16.2958	-48.673727	0.000314	3.142497	1.064707	-0.000126
1415	1.4069e+02	-16.3343	-48.823101	0.000375	3.750723	1.270779	-0.000150
1416	1.4079e+02	-16.3776	-49.008809	0.000466	4.663061	1.579888	-0.000187
1417	1.4089e+02	-16.4161	-49.133960	0.000314	3.142497	1.064707	-0.000126
1418	1.4099e+02	-16.4498	-49.283335	0.000375	3.750723	1.270779	-0.000150
1419	1.4109e+02	-16.5011	-49.477117	0.000487	4.865802	1.648578	-0.000195
1420	1.4119e+02	-16.5412	-49.582083	0.000264	2.635643	0.892980	-0.000105
1421	1.4129e+02	-16.5814	-49.759717	0.000446	4.460319	1.511197	-0.000179
1422	1.4139e+02	-16.6182	-49.929276	0.000426	4.257577	1.442506	-0.000170
1423	1.4149e+02	-16.6535	-50.110947	0.000456	4.561690	1.545542	-0.000183
1424	1.4159e+02	-16.7017	-50.236099	0.000314	3.142497	1.064707	-0.000126
1425	1.4169e+02	-16.7305	-50.413733	0.000446	4.460319	1.511197	-0.000179
1426	1.4179e+02	-16.7755	-50.587329	0.000436	4.358948	1.476852	-0.000174
1427	1.4189e+02	-16.8043	-50.773038	0.000466	4.663061	1.579888	-0.000187
1428	1.4199e+02	-16.8589	-50.950672	0.000446	4.460319	1.511197	-0.000179
1429	1.4209e+02	-16.8813	-51.124268	0.000436	4.358948	1.476852	-0.000174
1430	1.4219e+02	-16.9391	-51.293828	0.000426	4.257577	1.442506	-0.000170
1431	1.4228e+02	-16.9728	-51.455314	0.000405	4.054835	1.373815	-0.000162
1432	1.4238e+02	-17.0097	-51.608725	0.000385	3.852093	1.305125	-0.000154
1433	1.4248e+02	-17.0466	-51.790396	0.000456	4.561690	1.545542	-0.000183
1434	1.4258e+02	-17.0899	-51.907473	0.000294	2.939756	0.996016	-0.000118
1435	1.4268e+02	-17.1316	-52.109330	0.000507	5.068544	1.717269	-0.000203
1436	1.4278e+02	-17.1701	-52.299075	0.000476	4.764431	1.614233	-0.000191
1437	1.4288e+02	-17.2118	-52.488820	0.000476	4.764431	1.614233	-0.000191
1438	1.4298e+02	-17.2519	-52.626083	0.000345	3.446610	1.167743	-0.000138
1439	1.4308e+02	-17.2920	-52.856200	0.000578	5.778140	1.957687	-0.000231
1440	1.4318e+02	-17.3289	-53.001537	0.000365	3.649352	1.236434	-0.000146
1441	1.4328e+02	-17.3722	-53.167059	0.000416	4.156206	1.408161	-0.000166
1442	1.4338e+02	-17.4027	-53.413324	0.000618	6.183624	2.095068	-0.000248
1443	1.4348e+02	-17.4492	-53.570773	0.000395	3.953464	1.339470	-0.000158
1444	1.4358e+02	-17.4910	-53.796852	0.000568	5.676769	1.923342	-0.000227
1445	1.4368e+02	-17.5311	-53.938152	0.000355	3.547981	1.202088	-0.000142
1446	1.4378e+02	-17.5599	-54.196529	0.000649	6.487736	2.198105	-0.000260
1447	1.4388e+02	-17.6065	-54.353977	0.000395	3.953464	1.339470	-0.000158
1448	1.4398e+02	-17.6482	-54.527574	0.000436	4.358948	1.476852	-0.000174
1449	1.4408e+02	-17.6931	-54.753653	0.000568	5.676769	1.923342	-0.000227
1450	1.4418e+02	-17.7236	-54.911102	0.000395	3.953464	1.339470	-0.000158
1451	1.4428e+02	-17.7653	-55.112959	0.000507	5.068544	1.717269	-0.000203
1452	1.4437e+02	-17.8086	-55.298667	0.000466	4.663061	1.579888	-0.000187
1453	1.4447e+02	-17.8551	-55.508598	0.000527	5.271286	1.785960	-0.000211
1454	1.4457e+02	-17.8840	-55.682195	0.000436	4.358948	1.476852	-0.000174
1455	1.4467e+02	-17.9225	-55.912311	0.000578	5.778140	1.957687	-0.000231
1456	1.4477e+02	-17.9706	-56.130317	0.000547	5.474028	1.854651	-0.000219
1457	1.4487e+02	-17.9995	-56.372545	0.000608	6.082253	2.060723	-0.000243
1458	1.4497e+02	-18.0524	-56.602662	0.000578	5.778140	1.957687	-0.000231
1459	1.4507e+02	-18.0957	-56.776258	0.000436	4.358948	1.476852	-0.000174
1460	1.4517e+02	-18.1310	-57.034635	0.000649	6.487736	2.198105	-0.000260
1461	1.4527e+02	-18.1647	-57.236492	0.000507	5.068544	1.717269	-0.000203
1462	1.4537e+02	-18.2064	-57.478720	0.000608	6.082253	2.060723	-0.000243
1463	1.4547e+02	-18.2417	-57.716911	0.000598	5.980882	2.026378	-0.000239
1464	1.4557e+02	-18.2786	-57.922805	0.000517	5.169915	1.751615	-0.000207
1465	1.4567e+02	-18.3332	-58.181182	0.000649	6.487736	2.198105	-0.000260
1466	1.4577e+02	-18.3653	-58.370927	0.000476	4.764431	1.614233	-0.000191
1467	1.4587e+02	-18.4054	-58.572784	0.000507	5.068544	1.717269	-0.000203
1468	1.4597e+02	-18.4519	-58.782715	0.000527	5.271286	1.785960	-0.000211
1469	1.4607e+02	-18.4840	-58.972460	0.000476	4.764431	1.614233	-0.000191
1470	1.4617e+02	-18.5289	-59.222763	0.000628	6.284995	2.129414	-0.000252
1471	1.4626e+02	-18.5642	-59.501325	0.000699	6.994591	2.369832	-0.000280
1472	1.4636e+02	-18.6139	-59.727405	0.000568	5.676769	1.923342	-0.000227
1473	1.4646e+02	-18.6428	-59.989818	0.000659	6.589107	2.232450	-0.000264
1474	1.4656e+02	-18.6765	-60.191675	0.000507	5.068544	1.717269	-0.000203
1475	1.4666e+02	-18.7294	-60.454089	0.000659	6.589107	2.232450	-0.000264
1476	1.4676e+02	-18.7663	-60.720540	0.000669	6.690478	2.266795	-0.000268
1477	1.4686e+02	-18.8048	-60.954694	0.000588	5.879511	1.992032	-0.000235
1478	1.4696e+02	-18.8401	-61.213071	0.000649	6.487736	2.198105	-0.000260
1479	1.4706e+02	-18.8818	-61.515856	0.000760	7.602816	2.575904	-0.000304
1480	1.4716e+02	-18.9316	-61.733861	0.000547	5.474028	1.854651	-0.000219
1481	1.4726e+02	-18.9588	-61.996275	0.000659	6.589107	2.232450	-0.000264
1482	1.4736e+02	-19.0053	-62.307134	0.000781	7.805558	2.644595	-0.000312
1483	1.4746e+02	-19.0455	-62.533214	0.000568	5.676769	1.923342	-0.000227
1484	1.4756e+02	-19.0888	-62.779479	0.000618	6.183624	2.095068	-0.000248
1485	1.4766e+02	-19.1305	-63.021707	0.000608	6.082253	2.060723	-0.000243
1486	1.4776e+02	-19.1658	-63.199341	0.000446	4.460319	1.511197	-0.000179
1487	1.4786e+02	-19.2043	-63.522312	0.000811	8.109670	2.747631	-0.000325
1488	1.4796e+02	-19.2428	-63.784726	0.000659	6.589107	2.232450	-0.000264
1489	1.4806e+02	-19.2861	-64.063288	0.000699	6.994591	2.369832	-0.000280
1490	1.4816e+02	-19.3294	-64.349925	0.000720	7.197333	2.438522	-0.000288
1491	1.4825e+02	-19.3679	-64.620413	0.000679	6.791849	2.301141	-0.000272
1492	1.4835e+02	-19.3952	-64.935310	0.000791	7.906929	2.678940	-0.000316
1493	1.4845e+02	-19.4449	-65.250206	0.000791	7.906929	2.678940	-0.000316
1494	1.4855e+02	-19.4754	-65.544917	0.000740	7.400074	2.507213	-0.000296
1495	1.4865e+02	-19.5235	-65.823480	0.000699	6.994591	2.369832	-0.000280
1496	1.4875e+02	-19.5572	-66.134339	0.000781	7.805558	2.644595	-0.000312
1497	1.4885e+02	-19.6037	-66.392716	0.000649	6.487736	2.198105	-0.000260
1498	1.4895e+02	-19.6406	-66.703575	0.000781	7.805558	2.644595	-0.000312
1499	1.4905e+02	-19.6823	-66.994249	0.000730	7.298703	2.472868	-0.000292
1500	1.4915e+02	-19.7192	-67.264737	0.000679	6.791849	2.301141	-0.000272
1501	1.4925e+02	-19.7658	-67.603857	0.000852	8.515154	2.885012	-0.000341
1502	1.4935e+02	-19.8010	-67.870307	0.000669	6.690478	2.266795	-0.000268
1503	1.4945e+02	-19.8428	-68.173093	0.000760	7.602816	2.575904	-0.000304
1504	1.4955e+02	-19.8732	-68.483952	0.000781	7.805558	2.644595	-0.000312
1505	1.4965e+02	-19.9214	-68.814997	0.000831	8.312412	2.816322	-0.000333
1506	1.4975e+02	-19.9711	-69.142005	0.000821	8.211041	2.781976	-0.000329
1507	1.4985e+02	-20.0000	-69.412493	0.000679	6.791849	2.301141	-0.000272
1508	1.4995e+02	-19.9502	-69.634536	-0.000558	-5.575398	-1.888996	-0.000223
1509	1.5005e+02	-19.9166	-69.751613	-0.000294	-2.939756	-0.996016	-0.000118
1510	1.5015e+02	-19.8716	-69.876764	-0.000314	-3.142497	-1.064707	-0.000126
1511	1.5025e+02	-19.8412	-69.933284	-0.000142	-1.419192	-0.480835	-0.000057
1512	1.5034e+02	-19.7994	-70.034212	-0.000253	-2.534272	-0.858635	-0.000101
1513	1.5044e+02	-19.7593	-70.114955	-0.000203	-2.027418	-0.686908	-0.000081
1514	1.5054e+02	-19.7160	-70.199735	-0.000213	-2.128789	-0.721253	-0.000085
1515	1.5064e+02	-19.6679	-70.215883	-0.000041	-0.405484	-0.137382	-0.000016
1516	1.5074e+02	-19.6374	-70.252218	-0.000091	-0.912338	-0.309108	-0.000037
1517	1.5084e+02	-19.6037	-70.280477	-0.000071	-0.709596	-0.240418	-0.000028
1518	1.5094e+02	-19.5620	-70.292589	-0.000030	-0.304113	-0.103036	-0.000012
1519	1.5104e+02	-19.5203	-70.292589	0.000000	0.000000	0.000000	0.000000
1520	1.5114e+02	-19.4850	-70.296626	-0.000010	-0.101371	-0.034345	-0.000004
1521	1.5124e+02	-19.4513	-70.345072	-0.000122	-1.216451	-0.412145	-0.000049
1522	1.5134e+02	-19.4032	-70.292589	0.000132	1.317821	0.446490	0.000053
1523	1.5144e+02	-19.3535	-70.304700	-0.000030	-0.304113	-0.103036	-0.000012
1524	1.5154e+02	-19.3214	-70.316812	-0.000030	-0.304113	-0.103036	-0.000012
1525	1.5164e+02	-19.2909	-70.349109	-0.000081	-0.810967	-0.274763	-0.000032
1526	1.5174e+02	-19.2412	-70.332960	0.000041	0.405484	0.137382	0.000016
1527	1.5184e+02	-19.1995	-70.332960	0.000000	0.000000	0.000000	0.000000
1528	1.5194e+02	-19.1642	-70.345072	-0.000030	-0.304113	-0.103036	-0.000012
1529	1.5204e+02	-19.1160	-70.345072	0.000000	0.000000	0.000000	0.000000
1530	1.5214e+02	-19.0888	-70.236069	0.000274	2.737014	0.927325	0.000110
1531	1.5224e+02	-19.0438	-70.260292	-0.000061	-0.608225	-0.206072	-0.000024
1532	1.5233e+02	-19.0086	-70.207809	0.000132	1.317821	0.446490	0.000053
1533	1.5243e+02	-18.9572	-70.171475	0.000091	0.912338	0.309108	0.000037
1534	1.5253e+02	-18.9235	-70.179549	-0.000020	-0.202742	-0.068691	-0.000008
1535	1.5263e+02	-18.8866	-70.118992	0.000152	1.520563	0.515181	0.000061
1536	1.5273e+02	-18.8529	-70.070546	0.000122	1.216451	0.412145	0.000049
1537	1.5283e+02	-18.8000	-69.997878	0.000182	1.824676	0.618217	0.000073
1538	1.5293e+02	-18.7759	-69.965581	0.000081	0.810967	0.274763	0.000032
1539	1.5303e+02	-18.7246	-69.888875	0.000193	1.926047	0.652562	0.000077
1540	1.5313e+02	-18.6813	-69.892912	-0.000010	-0.101371	-0.034345	-0.000004
1541	1.5323e+02	-18.6492	-69.812170	0.000203	2.027418	0.686908	0.000081
1542	1.5333e+02	-18.6043	-69.771798	0.000101	1.013709	0.343454	0.000041
1543	1.5343e+02	-18.5610	-69.747576	0.000061	0.608225	0.206072	0.000024
1544	1.5353e+02	-18.5305	-69.703167	0.000112	1.115080	0.377799	0.000045
1545	1.5363e+02	-18.4888	-69.634536	0.000172	1.723305	0.583872	0.000069
1546	1.5373e+02	-18.4374	-69.573979	0.000152	1.520563	0.515181	0.000061
1547	1.5383e+02	-18.4054	-69.525533	0.000122	1.216451	0.412145	0.000049
1548	1.5393e+02	-18.3701	-69.456902	0.000172	1.723305	0.583872	0.000069
1549	1.5403e+02	-18.3412	-69.380196	0.000193	1.926047	0.652562	0.000077
1550	1.5413e+02	-18.2834	-69.388270	-0.000020	-0.202742	-0.068691	-0.000008
1551	1.5422e+02	-18.2481	-69.303491	0.000213	2.128789	0.721253	0.000085
1552	1.5432e+02	-18.2064	-69.242934	0.000152	1.520563	0.515181	0.000061
1553	1.5442e+02	-18.1792	-69.166228	0.000193	1.926047	0.652562	0.000077
1554	1.5452e+02	-18.1262	-69.109708	0.000142	1.419192	0.480835	0.000057
1555	1.5462e+02	-18.0829	-69.037040	0.000182	1.824676	0.618217	0.000073
1556	1.5472e+02	-18.0508	-68.960334	0.000193	1.926047	0.652562	0.000077
1557	1.5482e+02	-18.0107	-68.871517	0.000223	2.230159	0.755598	0.000089
1558	1.5492e+02	-17.9626	-68.867480	0.000010	0.101371	0.034345	0.000004
1559	1.5502e+02	-17.9289	-68.750403	0.000294	2.939756	0.996016	0.000118
1560	1.5512e+02	-17.8920	-68.714069	0.000091	0.912338	0.309108	0.000037
1561	1.5522e+02	-17.8487	-68.641400	0.000182	1.824676	0.618217	0.000073
1562	1.5532e+02	-17.8118	-68.576806	0.000162	1.621934	0.549526	0.000065
1563	1.5542e+02	-17.7573	-68.467804	0.000274	2.737014	0.927325	0.000110
1564	1.5552e+02	-17.7332	-68.439544	0.000071	0.709596	0.240418	0.000028
1565	1.5562e+02	-17.6851	-68.338615	0.000253	2.534272	0.858635	0.000101
1566	1.5572e+02	-17.6546	-68.294207	0.000112	1.115080	0.377799	0.000045
1567	1.5582e+02	-17.6177	-68.201353	0.000233	2.331530	0.789944	0.000093
1568	1.5592e+02	-17.5808	-68.128684	0.000182	1.824676	0.618217	0.000073
1569	1.5602e+02	-17.5343	-68.056016	0.000182	1.824676	0.618217	0.000073
1570	1.5612e+02	-17.4958	-67.995459	0.000152	1.520563	0.515181	0.000061
1571	1.5622e+02	-17.4476	-67.955087	0.000101	1.013709	0.343454	0.000041
1572	1.5631e+02	-17.4123	-67.894530	0.000152	1.520563	0.515181	0.000061
1573	1.5641e+02	-17.3626	-67.781490	0.000284	2.838385	0.961671	0.000114
1574	1.5651e+02	-17.3337	-67.688636	0.000233	2.331530	0.789944	0.000093
1575	1.5661e+02	-17.2872	-67.632116	0.000142	1.419192	0.480835	0.000057
1576	1.5671e+02	-17.2471	-67.547337	0.000213	2.128789	0.721253	0.000085
1577	1.5681e+02	-17.2134	-67.454482	0.000233	2.331530	0.789944	0.000093
1578	1.5691e+02	-17.1589	-67.393925	0.000152	1.520563	0.515181	0.000061
1579	1.5701e+02	-17.1412	-67.313183	0.000203	2.027418	0.686908	0.000081
1580	1.5711e+02	-17.0899	-67.236477	0.000193	1.926047	0.652562	0.000077
1581	1.5721e+02	-17.0418	-67.135549	0.000253	2.534272	0.858635	0.000101
1582	1.5731e+02	-17.0097	-67.079029	0.000142	1.419192	0.480835	0.000057
1583	1.5741e+02	-16.9760	-66.994249	0.000213	2.128789	0.721253	0.000085
1584	1.5751e+02	-16.9359	-66.913506	0.000203	2.027418	0.686908	0.000081
1585	1.5761e+02	-16.8910	-66.840838	0.000182	1.824676	0.618217	0.000073
1586	1.5771e+02	-16.8589	-66.756058	0.000213	2.128789	0.721253	0.000085
1587	1.5781e+02	-16.8108	-66.699538	0.000142	1.419192	0.480835	0.000057
1588	1.5791e+02	-16.7706	-66.667241	0.000081	0.810967	0.274763	0.000032
1589	1.5801e+02	-16.7273	-66.550164	0.000294	2.939756	0.996016	0.000118
1590	1.5811e+02	-16.6936	-66.493644	0.000142	1.419192	0.480835	0.000057
1591	1.5821e+02	-16.6471	-66.356382	0.000345	3.446610	1.167743	0.000138
1592	1.5830e+02	-16.6150	-66.247379	0.000274	2.737014	0.927325	0.000110
1593	1.5840e+02	-16.5701	-66.170673	0.000193	1.926047	0.652562	0.000077
1594	1.5850e+02	-16.5300	-66.114153	0.000142	1.419192	0.480835	0.000057
1595	1.5860e+02	-16.5011	-66.053596	0.000152	1.520563	0.515181	0.000061
1596	1.5870e+02	-16.4610	-65.968817	0.000213	2.128789	0.721253	0.000085
1597	1.5880e+02	-16.4161	-65.871925	0.000243	2.432901	0.824289	0.000097
1598	1.5890e+02	-16.3792	-65.787145	0.000213	2.128789	0.721253	0.000085
1599	1.5900e+02	-16.3263	-65.730626	0.000142	1.419192	0.480835	0.000057
1600	1.5910e+02	-16.2894	-65.641809	0.000223	2.230159	0.755598	0.000089
1601	1.5920e+02	-16.2653	-65.552992	0.000223	2.230159	0.755598	0.000089
1602	1.5930e+02	-16.2236	-65.476286	0.000193	1.926047	0.652562	0.000077
1603	1.5940e+02	-16.1739	-65.395543	0.000203	2.027418	0.686908	0.000081
1604	1.5950e+02	-16.1290	-65.286541	0.000274	2.737014	0.927325	0.000110
1605	1.5960e+02	-16.0889	-65.225984	0.000152	1.520563	0.515181	0.000061
1606	1.5970e+02	-16.0648	-65.177538	0.000122	1.216451	0.412145	0.000049
1607	1.5980e+02	-16.0118	-65.028164	0.000375	3.750723	1.270779	0.000150
1608	1.5990e+02	-15.9846	-64.959533	0.000172	1.723305	0.583872	0.000069
1609	1.6000e+02	-15.9284	-64.866678	0.000233	2.331530	0.789944	0.000093
1610	1.6010e+02	-15.8979	-64.798047	0.000172	1.723305	0.583872	0.000069
1611	1.6019e+02	-15.8546	-64.717304	0.000203	2.027418	0.686908	0.000081
1612	1.6029e+02	-15.8145	-64.620413	0.000243	2.432901	0.824289	0.000097
1613	1.6039e+02	-15.7792	-64.559856	0.000152	1.520563	0.515181	0.000061
1614	1.6049e+02	-15.7375	-64.458928	0.000253	2.534272	0.858635	0.000101
1615	1.6059e+02	-15.6942	-64.398371	0.000152	1.520563	0.515181	0.000061
1616	1.6069e+02	-15.6637	-64.248997	0.000375	3.750723	1.270779	0.000150
1617	1.6079e+02	-15.6268	-64.240922	0.000020	0.202742	0.068691	0.000008
1618	1.6089e+02	-15.5707	-64.115771	0.000314	3.142497	1.064707	0.000126
1619	1.6099e+02	-15.5482	-64.010806	0.000264	2.635643	0.892980	0.000105
1620	1.6109e+02	-15.5001	-63.958323	0.000132	1.317821	0.446490	0.000053
1621	1.6119e+02	-15.4520	-63.869506	0.000223	2.230159	0.755598	0.000089
1622	1.6129e+02	-15.4071	-63.792800	0.000193	1.926047	0.652562	0.000077
1623	1.6139e+02	-15.3782	-63.691872	0.000253	2.534272	0.858635	0.000101
1624	1.6149e+02	-15.3413	-63.611129	0.000203	2.027418	0.686908	0.000081
1625	1.6159e+02	-15.2964	-63.530387	0.000203	2.027418	0.686908	0.000081
1626	1.6169e+02	-15.2482	-63.429458	0.000253	2.534272	0.858635	0.000101
1627	1.6179e+02	-15.2145	-63.356790	0.000182	1.824676	0.618217	0.000073
1628	1.6189e+02	-15.1760	-63.243750	0.000284	2.838385	0.961671	0.000114
1629	1.6199e+02	-15.1375	-63.171081	0.000182	1.824676	0.618217	0.000073
1630	1.6209e+02	-15.1103	-63.049967	0.000304	3.041126	1.030362	0.000122
1631	1.6219e+02	-15.0702	-62.993447	0.000142	1.419192	0.480835	0.000057
1632	1.6228e+02	-15.0172	-62.916742	0.000193	1.926047	0.652562	0.000077
1633	1.6238e+02	-14.9883	-62.807739	0.000274	2.737014	0.927325	0.000110
1634	1.6248e+02	-14.9466	-62.751219	0.000142	1.419192	0.480835	0.000057
1635	1.6258e+02	-14.9033	-62.605882	0.000365	3.649352	1.236434	0.000146
1636	1.6268e+02	-14.8456	-62.488806	0.000294	2.939756	0.996016	0.000118
1637	1.6278e+02	-14.8247	-62.456508	0.000081	0.810967	0.274763	0.000032
1638	1.6288e+02	-14.7782	-62.395951	0.000152	1.520563	0.515181	0.000061
1639	1.6298e+02	-14.7365	-62.307134	0.000223	2.230159	0.755598	0.000089
1640	1.6308e+02	-14.6964	-62.222355	0.000213	2.128789	0.721253	0.000085
1641	1.6318e+02	-14.6579	-62.089129	0.000335	3.345239	1.133398	0.000134
1642	1.6328e+02	-14.6194	-61.996275	0.000233	2.331530	0.789944	0.000093
1643	1.6338e+02	-14.5809	-61.923607	0.000182	1.824676	0.618217	0.000073
1644	1.6348e+02	-14.5440	-61.802492	0.000304	3.041126	1.030362	0.000122
1645	1.6358e+02	-14.5039	-61.766158	0.000091	0.912338	0.309108	0.000037
1646	1.6368e+02	-14.4734	-61.653118	0.000284	2.838385	0.961671	0.000114
1647	1.6378e+02	-14.4237	-61.556227	0.000243	2.432901	0.824289	0.000097
1648	1.6388e+02	-14.3900	-61.447225	0.000274	2.737014	0.927325	0.000110
1649	1.6398e+02	-14.3386	-61.394742	0.000132	1.317821	0.446490	0.000053
1650	1.6408e+02	-14.2937	-61.285739	0.000274	2.737014	0.927325	0.000110
1651	1.6418e+02	-14.2600	-61.172699	0.000284	2.838385	0.961671	0.000114
1652	1.6427e+02	-14.2263	-61.104068	0.000172	1.723305	0.583872	0.000069
1653	1.6437e+02	-14.1766	-61.035437	0.000172	1.723305	0.583872	0.000069
1654	1.6447e+02	-14.1365	-60.962768	0.000182	1.824676	0.618217	0.000073
1655	1.6457e+02	-14.0932	-60.865877	0.000243	2.432901	0.824289	0.000097
1656	1.6467e+02	-14.0611	-60.732651	0.000335	3.345239	1.133398	0.000134
1657	1.6477e+02	-14.0226	-60.635760	0.000243	2.432901	0.824289	0.000097
1658	1.6487e+02	-13.9793	-60.567129	0.000172	1.723305	0.583872	0.000069
1659	1.6497e+02	-13.9376	-60.433903	0.000335	3.345239	1.133398	0.000134
1660	1.6507e+02	-13.9023	-60.389495	0.000112	1.115080	0.377799	0.000045
1661	1.6517e+02	-13.8590	-60.244158	0.000365	3.649352	1.236434	0.000146
1662	1.6527e+02	-13.8285	-60.171490	0.000182	1.824676	0.618217	0.000073
1663	1.6537e+02	-13.7836	-60.106895	0.000162	1.621934	0.549526	0.000065
1664	1.6547e+02	-13.7467	-59.945410	0.000405	4.054835	1.373815	0.000162
1665	1.6557e+02	-13.7050	-59.844482	0.000253	2.534272	0.858635	0.000101
1666	1.6567e+02	-13.6665	-59.775850	0.000172	1.723305	0.583872	0.000069
1667	1.6577e+02	-13.6296	-59.731442	0.000112	1.115080	0.377799	0.000045
1668	1.6587e+02	-13.5895	-59.634551	0.000243	2.432901	0.824289	0.000097
1669	1.6597e+02	-13.5574	-59.537659	0.000243	2.432901	0.824289	0.000097
1670	1.6607e+02	-13.5044	-59.464991	0.000182	1.824676	0.618217	0.000073
1671	1.6616e+02	-13.4627	-59.355988	0.000274	2.737014	0.927325	0.000110
1672	1.6626e+02	-13.4354	-59.291394	0.000162	1.621934	0.549526	0.000065
1673	1.6636e+02	-13.3905	-59.206614	0.000213	2.128789	0.721253	0.000085
1674	1.6646e+02	-13.3360	-59.053203	0.000385	3.852093	1.305125	0.000154
1675	1.6656e+02	-13.2927	-58.940163	0.000284	2.838385	0.961671	0.000114
1676	1.6666e+02	-13.2670	-58.855383	0.000213	2.128789	0.721253	0.000085
1677	1.6676e+02	-13.2317	-58.774641	0.000203	2.027418	0.686908	0.000081
1678	1.6686e+02	-13.1868	-58.661601	0.000284	2.838385	0.961671	0.000114
1679	1.6696e+02	-13.1563	-58.560672	0.000253	2.534272	0.858635	0.000101
1680	1.6706e+02	-13.1002	-58.508190	0.000132	1.317821	0.446490	0.000053
1681	1.6716e+02	-13.0729	-58.383038	0.000314	3.142497	1.064707	0.000126
1682	1.6726e+02	-13.0328	-58.241739	0.000355	3.547981	1.202088	0.000142
1683	1.6736e+02	-12.9975	-58.152922	0.000223	2.230159	0.755598	0.000089
1684	1.6746e+02	-12.9446	-58.080253	0.000182	1.824676	0.618217	0.000073
1685	1.6756e+02	-12.8996	-58.003548	0.000193	1.926047	0.652562	0.000077
1686	1.6766e+02	-12.8659	-57.890508	0.000284	2.838385	0.961671	0.000114
1687	1.6776e+02	-12.8226	-57.838025	0.000132	1.317821	0.446490	0.000053
1688	1.6786e+02	-12.7922	-57.745171	0.000233	2.331530	0.789944	0.000093
1689	1.6796e+02	-12.7440	-57.603871	0.000355	3.547981	1.202088	0.000142
1690	1.6806e+02	-12.7103	-57.498906	0.000264	2.635643	0.892980	0.000105
1691	1.6816e+02	-12.6734	-57.414126	0.000213	2.128789	0.721253	0.000085
1692	1.6825e+02	-12.6301	-57.297049	0.000294	2.939756	0.996016	0.000118
1693	1.6835e+02	-12.5900	-57.260715	0.000091	0.912338	0.309108	0.000037
1694	1.6845e+02	-12.5563	-57.103266	0.000395	3.953464	1.339470	0.000158
1695	1.6855e+02	-12.5082	-57.050784	0.000132	1.317821	0.446490	0.000053
1696	1.6865e+02	-12.4681	-56.917558	0.000335	3.345239	1.133398	0.000134
1697	1.6875e+02	-12.4328	-56.844890	0.000182	1.824676	0.618217	0.000073
1698	1.6885e+02	-12.3895	-56.756073	0.000223	2.230159	0.755598	0.000089
1699	1.6895e+02	-12.3590	-56.618810	0.000345	3.446610	1.167743	0.000138
1700	1.6905e+02	-12.3237	-56.550179	0.000172	1.723305	0.583872	0.000069
1701	1.6915e+02	-12.2772	-56.441176	0.000274	2.737014	0.927325	0.000110
1702	1.6925e+02	-12.2387	-56.332174	0.000274	2.737014	0.927325	0.000110
1703	1.6935e+02	-12.1938	-56.287765	0.000112	1.115080	0.377799	0.000045
1704	1.6945e+02	-12.1585	-56.122242	0.000416	4.156206	1.408161	0.000166
1705	1.6955e+02	-12.1087	-56.033425	0.000223	2.230159	0.755598	0.000089
1706	1.6965e+02	-12.0654	-55.940571	0.000233	2.331530	0.789944	0.000093
1707	1.6975e+02	-12.0334	-55.847717	0.000233	2.331530	0.789944	0.000093
1708	1.6985e+02	-11.9900	-55.746789	0.000253	2.534272	0.858635	0.000101
1709	1.6995e+02	-11.9531	-55.629712	0.000294	2.939756	0.996016	0.000118
1710	1.7005e+02	-11.9066	-55.528784	0.000253	2.534272	0.858635	0.000101
1711	1.7015e+02	-11.8649	-55.427855	0.000253	2.534272	0.858635	0.000101
1712	1.7024e+02	-11.8360	-55.326927	0.000253	2.534272	0.858635	0.000101
1713	1.7034e+02	-11.7927	-55.221961	0.000264	2.635643	0.892980	0.000105
1714	1.7044e+02	-11.7558	-55.149293	0.000182	1.824676	0.618217	0.000073
1715	1.7054e+02	-11.7109	-55.040290	0.000274	2.737014	0.927325	0.000110
1716	1.7064e+02	-11.6788	-54.898990	0.000355	3.547981	1.202088	0.000142
1717	1.7074e+02	-11.6403	-54.810173	0.000223	2.230159	0.755598	0.000089
1718	1.7084e+02	-11.6018	-54.701171	0.000274	2.737014	0.927325	0.000110
1719	1.7094e+02	-11.5553	-54.600242	0.000253	2.534272	0.858635	0.000101
1720	1.7104e+02	-11.5168	-54.523537	0.000193	1.926047	0.652562	0.000077
1721	1.7114e+02	-11.4783	-54.414534	0.000274	2.737014	0.927325	0.000110
1722	1.7124e+02	-11.4398	-54.341866	0.000182	1.824676	0.618217	0.000073
1723	1.7134e+02	-11.3852	-54.224789	0.000294	2.939756	0.996016	0.000118
1724	1.7144e+02	-11.3483	-54.075415	0.000375	3.750723	1.270779	0.000150
1725	1.7154e+02	-11.3211	-53.950263	0.000314	3.142497	1.064707	0.000126
1726	1.7164e+02	-11.2665	-53.893744	0.000142	1.419192	0.480835	0.000057
1727	1.7174e+02	-11.2457	-53.780704	0.000284	2.838385	0.961671	0.000114
1728	1.7184e+02	-11.1975	-53.659590	0.000304	3.041126	1.030362	0.000122
1729	1.7194e+02	-11.1590	-53.590958	0.000172	1.723305	0.583872	0.000069
1730	1.7204e+02	-11.1077	-53.469844	0.000304	3.041126	1.030362	0.000122
1731	1.7213e+02	-11.0820	-53.368916	0.000253	2.534272	0.858635	0.000101
1732	1.7223e+02	-11.0387	-53.243765	0.000314	3.142497	1.064707	0.000126
1733	1.7233e+02	-10.9986	-53.142836	0.000253	2.534272	0.858635	0.000101
1734	1.7243e+02	-10.9457	-53.037871	0.000264	2.635643	0.892980	0.000105
1735	1.7253e+02	-10.9296	-52.969239	0.000172	1.723305	0.583872	0.000069
1736	1.7263e+02	-10.8703	-52.880422	0.000223	2.230159	0.755598	0.000089
1737	1.7273e+02	-10.8382	-52.783531	0.000243	2.432901	0.824289	0.000097
1738	1.7283e+02	-10.7965	-52.650306	0.000335	3.345239	1.133398	0.000134
1739	1.7293e+02	-10.7468	-52.533229	0.000294	2.939756	0.996016	0.000118
1740	1.7303e+02	-10.7195	-52.428263	0.000264	2.635643	0.892980	0.000105
1741	1.7313e+02	-10.6794	-52.295038	0.000335	3.345239	1.133398	0.000134
1742	1.7323e+02	-10.6345	-52.194109	0.000253	2.534272	0.858635	0.000101
1743	1.7333e+02	-10.6024	-52.109330	0.000213	2.128789	0.721253	0.000085
1744	1.7343e+02	-10.5623	-51.959956	0.000375	3.750723	1.270779	0.000150
1745	1.7353e+02	-10.5190	-51.863064	0.000243	2.432901	0.824289	0.000097
1746	1.7363e+02	-10.4869	-51.798470	0.000162	1.621934	0.549526	0.000065
1747	1.7373e+02	-10.4355	-51.669282	0.000324	3.243868	1.099052	0.000130
1748	1.7383e+02	-10.4034	-51.548168	0.000304	3.041126	1.030362	0.000122
1749	1.7393e+02	-10.3569	-51.483573	0.000162	1.621934	0.549526	0.000065
1750	1.7403e+02	-10.3232	-51.322088	0.000405	4.054835	1.373815	0.000162
1751	1.7413e+02	-10.2735	-51.269605	0.000132	1.317821	0.446490	0.000053
1752	1.7422e+02	-10.2366	-51.168677	0.000253	2.534272	0.858635	0.000101
1753	1.7432e+02	-10.2013	-51.031414	0.000345	3.446610	1.167743	0.000138
1754	1.7442e+02	-10.1532	-50.934523	0.000243	2.432901	0.824289	0.000097
1755	1.7452e+02	-10.1211	-50.829558	0.000264	2.635643	0.892980	0.000105
1756	1.7462e+02	-10.0794	-50.716518	0.000284	2.838385	0.961671	0.000114
1757	1.7472e+02	-10.0361	-50.571181	0.000365	3.649352	1.236434	0.000146
1758	1.7482e+02	-10.0040	-50.498512	0.000182	1.824676	0.618217	0.000073
1759	1.7492e+02	-9.9607	-50.373361	0.000314	3.142497	1.064707	0.000126
1760	1.7502e+02	-9.9126	-50.215913	0.000395	3.953464	1.339470	0.000158
1761	1.7512e+02	-9.8837	-50.102873	0.000284	2.838385	0.961671	0.000114
1762	1.7522e+02	-9.8388	-50.030205	0.000182	1.824676	0.618217	0.000073
1763	1.7532e+02	-9.7987	-49.949462	0.000203	2.027418	0.686908	0.000081
1764	1.7542e+02	-9.7650	-49.804125	0.000365	3.649352	1.236434	0.000146
1765	1.7552e+02	-9.7217	-49.670900	0.000335	3.345239	1.133398	0.000134
1766	1.7562e+02	-9.6848	-49.638602	0.000081	0.810967	0.274763	0.000032
1767	1.7572e+02	-9.6398	-49.497303	0.000355	3.547981	1.202088	0.000142
1768	1.7582e+02	-9.6094	-49.380226	0.000294	2.939756	0.996016	0.000118
1769	1.7592e+02	-9.5660	-49.263149	0.000294	2.939756	0.996016	0.000118
1770	1.7602e+02	-9.5179	-49.226815	0.000091	0.912338	0.309108	0.000037
1771	1.7612e+02	-9.4778	-49.129923	0.000243	2.432901	0.824289	0.000097
1772	1.7621e+02	-9.4473	-48.972475	0.000395	3.953464	1.339470	0.000158
1773	1.7631e+02	-9.4008	-48.827138	0.000365	3.649352	1.236434	0.000146
1774	1.7641e+02	-9.3575	-48.722173	0.000264	2.635643	0.892980	0.000105
1775	1.7651e+02	-9.3222	-48.625281	0.000243	2.432901	0.824289	0.000097
1776	1.7661e+02	-9.2869	-48.496093	0.000324	3.243868	1.099052	0.000130
1777	1.7671e+02	-9.2484	-48.358830	0.000345	3.446610	1.167743	0.000138
1778	1.7681e+02	-9.1971	-48.257902	0.000253	2.534272	0.858635	0.000101
1779	1.7691e+02	-9.1698	-48.173122	0.000213	2.128789	0.721253	0.000085
1780	1.7701e+02	-9.1265	-48.052008	0.000304	3.041126	1.030362	0.000122
1781	1.7711e+02	-9.0832	-47.959154	0.000233	2.331530	0.789944	0.000093
1782	1.7721e+02	-9.0382	-47.801706	0.000395	3.953464	1.339470	0.000158
1783	1.7731e+02	-8.9997	-47.704814	0.000243	2.432901	0.824289	0.000097
1784	1.7741e+02	-8.9661	-47.571589	0.000335	3.345239	1.133398	0.000134
1785	1.7751e+02	-8.9324	-47.430289	0.000355	3.547981	1.202088	0.000142
1786	1.7761e+02	-8.8842	-47.345509	0.000213	2.128789	0.721253	0.000085
1787	1.7771e+02	-8.8361	-47.264767	0.000203	2.027418	0.686908	0.000081
1788	1.7781e+02	-8.8040	-47.188061	0.000193	1.926047	0.652562	0.000077
1789	1.7791e+02	-8.7591	-47.050798	0.000345	3.446610	1.167743	0.000138
1790	1.7801e+02	-8.7174	-46.925647	0.000314	3.142497	1.064707	0.000126
1791	1.7810e+02	-8.6837	-46.804533	0.000304	3.041126	1.030362	0.000122
1792	1.7820e+02	-8.6404	-46.715716	0.000223	2.230159	0.755598	0.000089
1793	1.7830e+02	-8.6003	-46.542119	0.000436	4.358948	1.476852	0.000174
1794	1.7840e+02	-8.5778	-46.445228	0.000243	2.432901	0.824289	0.000097
1795	1.7850e+02	-8.5249	-46.295854	0.000375	3.750723	1.270779	0.000150
1796	1.7860e+02	-8.4832	-46.203000	0.000233	2.331530	0.789944	0.000093
1797	1.7870e+02	-8.4415	-46.077849	0.000314	3.142497	1.064707	0.000126
1798	1.7880e+02	-8.4062	-45.980957	0.000243	2.432901	0.824289	0.000097
1799	1.7890e+02	-8.3645	-45.863881	0.000294	2.939756	0.996016	0.000118
1800	1.7900e+02	-8.3340	-45.742766	0.000304	3.041126	1.030362	0.000122
1801	1.7910e+02	-8.2955	-45.613578	0.000324	3.243868	1.099052	0.000130
1802	1.7920e+02	-8.2458	-45.496501	0.000294	2.939756	0.996016	0.000118
1803	1.7930e+02	-8.2089	-45.379424	0.000294	2.939756	0.996016	0.000118
1804	1.7940e+02	-8.1655	-45.294644	0.000213	2.128789	0.721253	0.000085
1805	1.7950e+02	-8.1303	-45.157382	0.000345	3.446610	1.167743	0.000138
1806	1.7960e+02	-8.0837	-45.104899	0.000132	1.317821	0.446490	0.000053
1807	1.7970e+02	-8.0549	-44.963599	0.000355	3.547981	1.202088	0.000142
1808	1.7980e+02	-8.0067	-44.834411	0.000324	3.243868	1.099052	0.000130
1809	1.7990e+02	-7.9634	-44.733483	0.000253	2.534272	0.858635	0.000101
1810	1.8000e+02	-7.9297	-44.503366	0.000578	5.778140	1.957687	0.000231
1811	1.8009e+02	-7.8928	-44.438772	0.000162	1.621934	0.549526	0.000065
1812	1.8019e+02	-7.8431	-44.321695	0.000294	2.939756	0.996016	0.000118
1813	1.8029e+02	-7.8094	-44.192506	0.000324	3.243868	1.099052	0.000130
1814	1.8039e+02	-7.7645	-44.075429	0.000294	2.939756	0.996016	0.000118
1815	1.8049e+02	-7.7404	-43.970464	0.000264	2.635643	0.892980	0.000105
1816	1.8059e+02	-7.6891	-43.813016	0.000395	3.953464	1.339470	0.000158
1817	1.8069e+02	-7.6522	-43.760533	0.000132	1.317821	0.446490	0.000053
1818	1.8079e+02	-7.6009	-43.635382	0.000314	3.142497	1.064707	0.000126
1819	1.8089e+02	-7.5672	-43.481970	0.000385	3.852093	1.305125	0.000154
1820	1.8099e+02	-7.5190	-43.401228	0.000203	2.027418	0.686908	0.000081
1821	1.8109e+02	-7.4870	-43.300299	0.000253	2.534272	0.858635	0.000101
1822	1.8119e+02	-7.4517	-43.175148	0.000314	3.142497	1.064707	0.000126
1823	1.8129e+02	-7.4100	-43.082294	0.000233	2.331530	0.789944	0.000093
1824	1.8139e+02	-7.3618	-42.949069	0.000335	3.345239	1.133398	0.000134
1825	1.8149e+02	-7.3346	-42.791620	0.000395	3.953464	1.339470	0.000158
1826	1.8159e+02	-7.2977	-42.694729	0.000243	2.432901	0.824289	0.000097
1827	1.8169e+02	-7.2543	-42.537281	0.000395	3.953464	1.339470	0.000158
1828	1.8179e+02	-7.2174	-42.416167	0.000304	3.041126	1.030362	0.000122
1829	1.8189e+02	-7.1693	-42.274867	0.000355	3.547981	1.202088	0.000142
1830	1.8199e+02	-7.1292	-42.141641	0.000335	3.345239	1.133398	0.000134
1831	1.8209e+02	-7.0923	-42.020527	0.000304	3.041126	1.030362	0.000122
1832	1.8218e+02	-7.0506	-41.867116	0.000385	3.852093	1.305125	0.000154
1833	1.8228e+02	-7.0073	-41.790411	0.000193	1.926047	0.652562	0.000077
1834	1.8238e+02	-6.9656	-41.632962	0.000395	3.953464	1.339470	0.000158
1835	1.8248e+02	-6.9271	-41.532034	0.000253	2.534272	0.858635	0.000101
1836	1.8258e+02	-6.8966	-41.427068	0.000264	2.635643	0.892980	0.000105
1837	1.8268e+02	-6.8597	-41.273657	0.000385	3.852093	1.305125	0.000154
1838	1.8278e+02	-6.8084	-41.160617	0.000284	2.838385	0.961671	0.000114
1839	1.8288e+02	-6.7554	-41.059689	0.000253	2.534272	0.858635	0.000101
1840	1.8298e+02	-6.7282	-40.970872	0.000223	2.230159	0.755598	0.000089
1841	1.8308e+02	-6.6880	-40.817461	0.000385	3.852093	1.305125	0.000154
1842	1.8318e+02	-6.6560	-40.700384	0.000294	2.939756	0.996016	0.000118
1843	1.8328e+02	-6.6078	-40.555047	0.000365	3.649352	1.236434	0.000146
1844	1.8338e+02	-6.5709	-40.385487	0.000426	4.257577	1.442506	0.000170
1845	1.8348e+02	-6.5372	-40.312819	0.000182	1.824676	0.618217	0.000073
1846	1.8358e+02	-6.4955	-40.159408	0.000385	3.852093	1.305125	0.000154
1847	1.8368e+02	-6.4602	-40.014071	0.000365	3.649352	1.236434	0.000146
1848	1.8378e+02	-6.4185	-39.937365	0.000193	1.926047	0.652562	0.000077
1849	1.8388e+02	-6.3752	-39.779917	0.000395	3.953464	1.339470	0.000158
1850	1.8398e+02	-6.3383	-39.662840	0.000294	2.939756	0.996016	0.000118
1851	1.8407e+02	-6.2998	-39.533652	0.000324	3.243868	1.099052	0.000130
1852	1.8417e+02	-6.2693	-39.384278	0.000375	3.750723	1.270779	0.000150
1853	1.8427e+02	-6.2132	-39.291424	0.000233	2.331530	0.789944	0.000093
1854	1.8437e+02	-6.1795	-39.170309	0.000304	3.041126	1.030362	0.000122
1855	1.8447e+02	-6.1426	-39.029010	0.000355	3.547981	1.202088	0.000142
1856	1.8457e+02	-6.0945	-38.968453	0.000152	1.520563	0.515181	0.000061
1857	1.8467e+02	-6.0512	-38.819079	0.000375	3.750723	1.270779	0.000150
1858	1.8477e+02	-6.0127	-38.710076	0.000274	2.737014	0.927325	0.000110
1859	1.8487e+02	-5.9758	-38.544553	0.000416	4.156206	1.408161	0.000166
1860	1.8497e+02	-5.9421	-38.407291	0.000345	3.446610	1.167743	0.000138
1861	1.8507e+02	-5.8988	-38.249843	0.000395	3.953464	1.339470	0.000158
1862	1.8517e+02	-5.8490	-38.096431	0.000385	3.852093	1.305125	0.000154
1863	1.8527e+02	-5.8186	-37.971280	0.000314	3.142497	1.064707	0.000126
1864	1.8537e+02	-5.7768	-37.862278	0.000274	2.737014	0.927325	0.000110
1865	1.8547e+02	-5.7415	-37.716941	0.000365	3.649352	1.236434	0.000146
1866	1.8557e+02	-5.6966	-37.603901	0.000284	2.838385	0.961671	0.000114
1867	1.8567e+02	-5.6565	-37.450490	0.000385	3.852093	1.305125	0.000154
1868	1.8577e+02	-5.6212	-37.317264	0.000335	3.345239	1.133398	0.000134
1869	1.8587e+02	-5.5875	-37.212299	0.000264	2.635643	0.892980	0.000105
1870	1.8597e+02	-5.5426	-37.070999	0.000355	3.547981	1.202088	0.000142
1871	1.8606e+02	-5.4881	-36.945848	0.000314	3.142497	1.064707	0.000126
1872	1.8616e+02	-5.4496	-36.836845	0.000274	2.737014	0.927325	0.000110
1873	1.8626e+02	-5.4175	-36.735917	0.000253	2.534272	0.858635	0.000101
1874	1.8636e+02	-5.3838	-36.586543	0.000375	3.750723	1.270779	0.000150
1875	1.8646e+02	-5.3373	-36.449280	0.000345	3.446610	1.167743	0.000138
1876	1.8656e+02	-5.2972	-36.324129	0.000314	3.142497	1.064707	0.000126
1877	1.8666e+02	-5.2667	-36.138421	0.000466	4.663061	1.579888	0.000187
1878	1.8676e+02	-5.2282	-35.980972	0.000395	3.953464	1.339470	0.000158
1879	1.8686e+02	-5.1769	-35.855821	0.000314	3.142497	1.064707	0.000126
1880	1.8696e+02	-5.1480	-35.726633	0.000324	3.243868	1.099052	0.000130
1881	1.8706e+02	-5.0918	-35.569184	0.000395	3.953464	1.339470	0.000158
1882	1.8716e+02	-5.0614	-35.431922	0.000345	3.446610	1.167743	0.000138
1883	1.8726e+02	-5.0148	-35.302733	0.000324	3.243868	1.099052	0.000130
1884	1.8736e+02	-4.9811	-35.177582	0.000314	3.142497	1.064707	0.000126
1885	1.8746e+02	-4.9491	-35.024171	0.000385	3.852093	1.305125	0.000154
1886	1.8756e+02	-4.8961	-34.894983	0.000324	3.243868	1.099052	0.000130
1887	1.8766e+02	-4.8544	-34.790017	0.000264	2.635643	0.892980	0.000105
1888	1.8776e+02	-4.8191	-34.632569	0.000395	3.953464	1.339470	0.000158
1889	1.8786e+02	-4.7886	-34.483195	0.000375	3.750723	1.270779	0.000150
1890	1.8796e+02	-4.7373	-34.406489	0.000193	1.926047	0.652562	0.000077
1891	1.8806e+02	-4.6972	-34.245004	0.000405	4.054835	1.373815	0.000162
1892	1.8815e+02	-4.6635	-34.123890	0.000304	3.041126	1.030362	0.000122
1893	1.8825e+02	-4.6218	-33.946256	0.000446	4.460319	1.511197	0.000179
1894	1.8835e+02	-4.5833	-33.841290	0.000264	2.635643	0.892980	0.000105
1895	1.8845e+02	-4.5464	-33.655582	0.000466	4.663061	1.579888	0.000187
1896	1.8855e+02	-4.5063	-33.518319	0.000345	3.446610	1.167743	0.000138
1897	1.8865e+02	-4.4582	-33.344723	0.000436	4.358948	1.476852	0.000174
1898	1.8875e+02	-4.4261	-33.268017	0.000193	1.926047	0.652562	0.000077
1899	1.8885e+02	-4.3747	-33.082309	0.000466	4.663061	1.579888	0.000187
1900	1.8895e+02	-4.3475	-32.949083	0.000335	3.345239	1.133398	0.000134
1901	1.8905e+02	-4.3122	-32.807784	0.000355	3.547981	1.202088	0.000142
1902	1.8915e+02	-4.2624	-32.658410	0.000375	3.750723	1.270779	0.000150
1903	1.8925e+02	-4.2255	-32.521147	0.000345	3.446610	1.167743	0.000138
1904	1.8935e+02	-4.1774	-32.400033	0.000304	3.041126	1.030362	0.000122
1905	1.8945e+02	-4.1566	-32.238547	0.000405	4.054835	1.373815	0.000162
1906	1.8955e+02	-4.1068	-32.133582	0.000264	2.635643	0.892980	0.000105
1907	1.8965e+02	-4.0587	-32.052839	0.000203	2.027418	0.686908	0.000081
1908	1.8975e+02	-4.0234	-31.863094	0.000476	4.764431	1.614233	0.000191
1909	1.8985e+02	-3.9849	-31.697571	0.000416	4.156206	1.408161	0.000166
1910	1.8995e+02	-3.9400	-31.548197	0.000375	3.750723	1.270779	0.000150
1911	1.9004e+02	-3.9079	-31.402860	0.000365	3.649352	1.236434	0.000146
1912	1.9014e+02	-3.8566	-31.245412	0.000395	3.953464	1.339470	0.000158
1913	1.9024e+02	-3.8261	-31.124298	0.000304	3.041126	1.030362	0.000122
1914	1.9034e+02	-3.7892	-30.918404	0.000517	5.169915	1.751615	0.000207
1915	1.9044e+02	-3.7427	-30.805364	0.000284	2.838385	0.961671	0.000114
1916	1.9054e+02	-3.7058	-30.660027	0.000365	3.649352	1.236434	0.000146
1917	1.9064e+02	-3.6753	-30.510653	0.000375	3.750723	1.270779	0.000150
1918	1.9074e+02	-3.6256	-30.385502	0.000314	3.142497	1.064707	0.000126
1919	1.9084e+02	-3.5935	-30.228054	0.000395	3.953464	1.339470	0.000158
1920	1.9094e+02	-3.5438	-30.086754	0.000355	3.547981	1.202088	0.000142
1921	1.9104e+02	-3.5165	-29.925269	0.000405	4.054835	1.373815	0.000162
1922	1.9114e+02	-3.4796	-29.755709	0.000426	4.257577	1.442506	0.000170
1923	1.9124e+02	-3.4234	-29.683041	0.000182	1.824676	0.618217	0.000073
1924	1.9134e+02	-3.3833	-29.477147	0.000517	5.169915	1.751615	0.000207
1925	1.9144e+02	-3.3609	-29.416590	0.000152	1.520563	0.515181	0.000061
1926	1.9154e+02	-3.3095	-29.230881	0.000466	4.663061	1.579888	0.000187
1927	1.9164e+02	-3.2678	-29.109767	0.000304	3.041126	1.030362	0.000122
1928	1.9174e+02	-3.2309	-28.972505	0.000345	3.446610	1.167743	0.000138
1929	1.9184e+02	-3.1908	-28.823131	0.000375	3.750723	1.270779	0.000150
1930	1.9194e+02	-3.1539	-28.605125	0.000547	5.474028	1.854651	0.000219
1931	1.9203e+02	-3.1154	-28.455751	0.000375	3.750723	1.270779	0.000150
1932	1.9213e+02	-3.0641	-28.306377	0.000375	3.750723	1.270779	0.000150
1933	1.9223e+02	-3.0368	-28.157003	0.000375	3.750723	1.270779	0.000150
1934	1.9233e+02	-2.9871	-27.971295	0.000466	4.663061	1.579888	0.000187
1935	1.9243e+02	-2.9470	-27.874404	0.000243	2.432901	0.824289	0.000097
1936	1.9253e+02	-2.9117	-27.688695	0.000466	4.663061	1.579888	0.000187
1937	1.9263e+02	-2.8748	-27.511061	0.000446	4.460319	1.511197	0.000179
1938	1.9273e+02	-2.8331	-27.373799	0.000345	3.446610	1.167743	0.000138
1939	1.9283e+02	-2.7882	-27.244611	0.000324	3.243868	1.099052	0.000130
1940	1.9293e+02	-2.7577	-27.075051	0.000426	4.257577	1.442506	0.000170
1941	1.9303e+02	-2.7128	-26.885305	0.000476	4.764431	1.614233	0.000191
1942	1.9313e+02	-2.6694	-26.812637	0.000182	1.824676	0.618217	0.000073
1943	1.9323e+02	-2.6358	-26.659226	0.000385	3.852093	1.305125	0.000154
1944	1.9333e+02	-2.5989	-26.485629	0.000436	4.358948	1.476852	0.000174
1945	1.9343e+02	-2.5539	-26.364515	0.000304	3.041126	1.030362	0.000122
1946	1.9353e+02	-2.4994	-26.219178	0.000365	3.649352	1.236434	0.000146
1947	1.9363e+02	-2.4689	-26.021358	0.000497	4.967173	1.682924	0.000199
1948	1.9373e+02	-2.4288	-25.851799	0.000426	4.257577	1.442506	0.000170
1949	1.9383e+02	-2.3967	-25.726647	0.000314	3.142497	1.064707	0.000126
1950	1.9393e+02	-2.3454	-25.536902	0.000476	4.764431	1.614233	0.000191
1951	1.9403e+02	-2.3117	-25.371380	0.000416	4.156206	1.408161	0.000166
1952	1.9412e+02	-2.2764	-25.226043	0.000365	3.649352	1.236434	0.000146
1953	1.9422e+02	-2.2315	-25.064557	0.000405	4.054835	1.373815	0.000162
1954	1.9432e+02	-2.1978	-24.919220	0.000365	3.649352	1.236434	0.000146
1955	1.9442e+02	-2.1481	-24.701215	0.000547	5.474028	1.854651	0.000219
1956	1.9452e+02	-2.1160	-24.612398	0.000223	2.230159	0.755598	0.000089
1957	1.9462e+02	-2.0727	-24.479173	0.000335	3.345239	1.133398	0.000134
1958	1.9472e+02	-2.0358	-24.293464	0.000466	4.663061	1.579888	0.000187
1959	1.9482e+02	-1.9941	-24.192536	0.000253	2.534272	0.858635	0.000101
1960	1.9492e+02	-1.9620	-23.998753	0.000487	4.865802	1.648578	0.000195
1961	1.9502e+02	-1.9171	-23.877639	0.000304	3.041126	1.030362	0.000122
1962	1.9512e+02	-1.8818	-23.732302	0.000365	3.649352	1.236434	0.000146
1963	1.9522e+02	-1.8304	-23.550631	0.000456	4.561690	1.545542	0.000183
1964	1.9532e+02	-1.7871	-23.377034	0.000436	4.358948	1.476852	0.000174
1965	1.9542e+02	-1.7598	-23.235735	0.000355	3.547981	1.202088	0.000142
1966	1.9552e+02	-1.7133	-22.993507	0.000608	6.082253	2.060723	0.000243
1967	1.9562e+02	-1.6796	-22.823947	0.000426	4.257577	1.442506	0.000170
1968	1.9572e+02	-1.6299	-22.702833	0.000304	3.041126	1.030362	0.000122
1969	1.9582e+02	-1.5914	-22.541347	0.000405	4.054835	1.373815	0.000162
1970	1.9592e+02	-1.5625	-22.355639	0.000466	4.663061	1.579888	0.000187
1971	1.9601e+02	-1.5144	-22.218377	0.000345	3.446610	1.167743	0.000138
1972	1.9611e+02	-1.4727	-22.008445	0.000527	5.271286	1.785960	0.000211
1973	1.9621e+02	-1.4406	-21.899443	0.000274	2.737014	0.927325	0.000110
1974	1.9631e+02	-1.3812	-21.762180	0.000345	3.446610	1.167743	0.000138
1975	1.9641e+02	-1.3524	-21.600695	0.000405	4.054835	1.373815	0.000162
1976	1.9651e+02	-1.3058	-21.410949	0.000476	4.764431	1.614233	0.000191
1977	1.9661e+02	-1.2722	-21.281761	0.000324	3.243868	1.099052	0.000130
1978	1.9671e+02	-1.2288	-21.140461	0.000355	3.547981	1.202088	0.000142
1979	1.9681e+02	-1.1984	-20.938605	0.000507	5.068544	1.717269	0.000203
1980	1.9691e+02	-1.1454	-20.777119	0.000405	4.054835	1.373815	0.000162
1981	1.9701e+02	-1.1230	-20.603522	0.000436	4.358948	1.476852	0.000174
1982	1.9711e+02	-1.0796	-20.425888	0.000446	4.460319	1.511197	0.000179
1983	1.9721e+02	-1.0379	-20.276514	0.000375	3.750723	1.270779	0.000150
1984	1.9731e+02	-0.9946	-20.074657	0.000507	5.068544	1.717269	0.000203
1985	1.9741e+02	-0.9593	-19.901061	0.000436	4.358948	1.476852	0.000174
1986	1.9751e+02	-0.9240	-19.723427	0.000446	4.460319	1.511197	0.000179
1987	1.9761e+02	-0.8743	-19.557904	0.000416	4.156206	1.408161	0.000166
1988	1.9771e+02	-0.8374	-19.376233	0.000456	4.561690	1.545542	0.000183
1989	1.9781e+02	-0.7989	-19.243007	0.000335	3.345239	1.133398	0.000134
1990	1.9791e+02	-0.7492	-19.085559	0.000395	3.953464	1.339470	0.000158
1991	1.9800e+02	-0.7059	-18.920037	0.000416	4.156206	1.408161	0.000166
1992	1.9810e+02	-0.6754	-18.746440	0.000436	4.358948	1.476852	0.000174
1993	1.9820e+02	-0.6417	-18.584954	0.000405	4.054835	1.373815	0.000162
1994	1.9830e+02	-0.6064	-18.407320	0.000446	4.460319	1.511197	0.000179
1995	1.9840e+02	-0.5535	-18.266021	0.000355	3.547981	1.202088	0.000142
1996	1.9850e+02	-0.5214	-18.100498	0.000416	4.156206	1.408161	0.000166
1997	1.9860e+02	-0.4797	-17.914790	0.000466	4.663061	1.579888	0.000187
1998	1.9870e+02	-0.4412	-17.745230	0.000426	4.257577	1.442506	0.000170
1999	1.9880e+02	-0.3930	-17.567596	0.000446	4.460319	1.511197	0.000179
2000	1.9890e+02	-0.3610	-17.357665	0.000527	5.271286	1.785960	0.000211
2001	1.9900e+02	-0.3176	-17.184068	0.000436	4.358948	1.476852	0.000174
2002	1.9910e+02	-0.2791	-17.054880	0.000324	3.243868	1.099052	0.000130
2003	1.9920e+02	-0.2374	-16.812652	0.000608	6.082253	2.060723	0.000243
2004	1.9930e+02	-0.1941	-16.695575	0.000294	2.939756	0.996016	0.000118
2005	1.9940e+02	-0.1508	-16.501792	0.000487	4.865802	1.648578	0.000195
2006	1.9950e+02	-0.1235	-16.283787	0.000547	5.474028	1.854651	0.000219
2007	1.9960e+02	-0.0786	-16.162673	0.000304	3.041126	1.030362	0.000122
2008	1.9970e+02	-0.0289	-16.009262	0.000385	3.852093	1.305125	0.000154
2009	1.9980e+02	0.0000	-15.863925	0.000385	3.852093	1.305125	0.000146

Center data before PMax,+/-Pr and +/-Vc Calc.

PMax (uC/cm2):	7.03e+01
Pr (uC/cm2):	9.33e+00
-Pr (uC/cm2):	-1.59e+01
PLoss (uC/cm2):	-1.76e+01
-Vc:	-2.14e+00
C (Max-Eff) (nF):	3.52e-01
K (Eff):	1.19e+03
Vert. (+/-Pr) Shift (uC/cm2):	-3.27e+00
Offset (uC/cm2):	-1.81e+00

A (Loop Area - uC/cm2·Volts):	8.50e-02



Hysteresis Version: 5.48.1 - Radiant Technologies, Inc., 1999 - 9/12/24

