»»»»»»»»»»»»»»»»»»»»»»»»»»»»»»»»»»»» Hysteresis ««««««««««««««««««««««««««««««««««««
»»»  Executed Version:	5.48.1
»»»  Vision Version:	5.48.4 (R)
»»»  Vision Compiled:	9/18/24
»»»  Driver Version:	5.47.0
»»»  Windows Version:	Windows 8 or 8.1
»»»  Processor Information:	x86 (AMD or Intel) - 32 Processors
»»»  Tester Name:	PMF21124-494 (100V)
»»»  Tester S/N:	PMF21124-494
»»»  Internal Amp Type:	100V RevK 270k
»»»  Internal Amp S/N:	iAB2-596/K     
»»»  Execution Count:	1
»»»»»»»»»»»»»»»»»»»»»»»»»»»»»»»»»»»»»»»»»»««««««««««««««««««««««««««««««««««««««««««

Stored:	6/10/2025 - 16:5:6
Configured:	06/10/25 03:08:08 PM
Executed:	06/10/25 04:04:25 PM

»»»»»»»»»»»»»»»»»»»»»»»»»»»»»»»»»»» Sample Info ««««««««««««««««««««««««««««««««««««
Sample Name:	
Lot Name:	
Wafer Name:	
Die Row/Column:	0/0
Capacitor Number:	0
Sample Area (cm2):	1.00e-04
Sample Thickness (microns):	3.00e-01

Amplifier:	Internal

»»»»»»»»»»»»»»»»»»»»»»»»»»»»»»»»»»» Tester Info «««««««««««««««««««««««««««««««««««
Tester Name:	PMF21124-494 (100V)
Tester Serial Number:	PMF21124-494
Return Signal Amp. Level:	0.19 [Index: 3]

»»»»»»»»»»»»»»»»»»»»»»»»»»»»»»»» Hysteresis Info ««««««««««««««««««««««««««««««««««
Task Name:	Hyst-1091
Volts:	20.00
Field:	666.67 (kV/cm)
DCBias:	0.00
DCField:	0.00 (kV/cm)
Hysteresis Period (ms):	2.00e+02
Preset:	Enabled
Preset Delay (ms):	1.00e+03
Profile:	Standard Bipolar

»»»»»»»»»»»»»»»»»»»»»»»»»»»»»»»»»»»»»» Data «««««««««««««««««««««««««««««««««««««««
Points:	2009

Valid Data

Point	Time (ms)	Drive Voltage	Measured Polarization (uC/cm2)	Capacitance (uF)	Normalized Capacitance (uF/cm2)	Dielectric Constant	Instantaneous Current (mA)
   1	0.0000e+00	-0.0048	27.412152	0.000537	5.369856	1.819356	0.000215
   2	9.9500e-02	0.0369	27.626120	0.000537	5.369856	1.819356	0.000215
   3	1.9900e-01	0.0706	27.896608	0.000679	6.788308	2.299941	0.000272
   4	2.9850e-01	0.1139	28.187282	0.000729	7.294899	2.471579	0.000292
   5	3.9800e-01	0.1540	28.502178	0.000790	7.902807	2.677543	0.000316
   6	4.9750e-01	0.1893	28.784778	0.000709	7.092263	2.402924	0.000284
   7	5.9700e-01	0.2246	29.103712	0.000800	8.004125	2.711871	0.000321
   8	6.9650e-01	0.2615	29.410534	0.000770	7.700171	2.608888	0.000308
   9	7.9600e-01	0.3064	29.701208	0.000729	7.294899	2.471579	0.000292
  10	8.9550e-01	0.3513	30.003993	0.000760	7.598853	2.574561	0.000304
  11	9.9500e-01	0.3978	30.282555	0.000699	6.990944	2.368596	0.000280
  12	1.0945e+00	0.4235	30.621675	0.000851	8.510715	2.883508	0.000341
  13	1.1940e+00	0.4700	30.936571	0.000790	7.902807	2.677543	0.000316
  14	1.2935e+00	0.5134	31.223208	0.000719	7.193581	2.437251	0.000288
  15	1.3930e+00	0.5567	31.521956	0.000750	7.497535	2.540234	0.000300
  16	1.4925e+00	0.5839	31.840890	0.000800	8.004125	2.711871	0.000321
  17	1.5920e+00	0.6224	32.155786	0.000790	7.902807	2.677543	0.000316
  18	1.6915e+00	0.6674	32.482794	0.000821	8.206761	2.780526	0.000329
  19	1.7910e+00	0.7155	32.761357	0.000699	6.990944	2.368596	0.000280
  20	1.8905e+00	0.7428	33.072216	0.000780	7.801489	2.643216	0.000312
  21	1.9900e+00	0.7893	33.391150	0.000800	8.004125	2.711871	0.000321
  22	2.0895e+00	0.8326	33.702009	0.000780	7.801489	2.643216	0.000312
  23	2.1890e+00	0.8647	33.992683	0.000729	7.294899	2.471579	0.000292
  24	2.2885e+00	0.9032	34.311617	0.000800	8.004125	2.711871	0.000321
  25	2.3880e+00	0.9417	34.642662	0.000831	8.308079	2.814853	0.000333
  26	2.4875e+00	0.9914	34.957558	0.000790	7.902807	2.677543	0.000316
  27	2.5870e+00	1.0267	35.232084	0.000689	6.889626	2.334269	0.000276
  28	2.6865e+00	1.0588	35.591389	0.000902	9.017305	3.055146	0.000361
  29	2.7860e+00	1.1053	35.853802	0.000659	6.585672	2.231286	0.000264
  30	2.8855e+00	1.1502	36.164662	0.000780	7.801489	2.643216	0.000312
  31	2.9850e+00	1.1823	36.419001	0.000638	6.383036	2.162631	0.000256
  32	3.0845e+00	1.2176	36.701601	0.000709	7.092263	2.402924	0.000284
  33	3.1840e+00	1.2706	37.032646	0.000831	8.308079	2.814853	0.000333
  34	3.2835e+00	1.3155	37.379840	0.000871	8.713351	2.952163	0.000349
  35	3.3830e+00	1.3524	37.682625	0.000760	7.598853	2.574561	0.000304
  36	3.4825e+00	1.3845	38.017707	0.000841	8.409397	2.849181	0.000337
  37	3.5820e+00	1.4310	38.324530	0.000770	7.700171	2.608888	0.000308
  38	3.6815e+00	1.4679	38.607129	0.000709	7.092263	2.402924	0.000284
  39	3.7810e+00	1.5016	38.954323	0.000871	8.713351	2.952163	0.000349
  40	3.8805e+00	1.5369	39.313628	0.000902	9.017305	3.055146	0.000361
  41	3.9800e+00	1.5721	39.604302	0.000729	7.294899	2.471579	0.000292
  42	4.0795e+00	1.6187	39.903050	0.000750	7.497535	2.540234	0.000300
  43	4.1790e+00	1.6636	40.250243	0.000871	8.713351	2.952163	0.000349
  44	4.2785e+00	1.7021	40.536880	0.000719	7.193581	2.437251	0.000288
  45	4.3780e+00	1.7422	40.888111	0.000881	8.814669	2.986491	0.000353
  46	4.4775e+00	1.7823	41.198970	0.000780	7.801489	2.643216	0.000312
  47	4.5770e+00	1.8352	41.481570	0.000709	7.092263	2.402924	0.000284
  48	4.6765e+00	1.8577	41.832801	0.000881	8.814669	2.986491	0.000353
  49	4.7760e+00	1.9090	42.163846	0.000831	8.308079	2.814853	0.000333
  50	4.8755e+00	1.9363	42.410111	0.000618	6.180400	2.093976	0.000248
  51	4.9750e+00	1.9957	42.749230	0.000851	8.510715	2.883508	0.000341
  52	5.0745e+00	2.0245	43.120647	0.000932	9.321259	3.158128	0.000373
  53	5.1740e+00	2.0646	43.403246	0.000709	7.092263	2.402924	0.000284
  54	5.2735e+00	2.0999	43.681809	0.000699	6.990944	2.368596	0.000280
  55	5.3730e+00	2.1400	44.029002	0.000871	8.713351	2.952163	0.000349
  56	5.4725e+00	2.1850	44.343899	0.000790	7.902807	2.677543	0.000316
  57	5.5720e+00	2.2251	44.683018	0.000851	8.510715	2.883508	0.000341
  58	5.6715e+00	2.2604	44.997915	0.000790	7.902807	2.677543	0.000316
  59	5.7710e+00	2.3021	45.288589	0.000729	7.294899	2.471579	0.000292
  60	5.8705e+00	2.3454	45.583300	0.000740	7.396217	2.505906	0.000296
  61	5.9700e+00	2.3807	45.950679	0.000922	9.219941	3.123801	0.000369
  62	6.0695e+00	2.4176	46.245390	0.000740	7.396217	2.505906	0.000296
  63	6.1690e+00	2.4577	46.540101	0.000740	7.396217	2.505906	0.000296
  64	6.2685e+00	2.5074	46.895369	0.000892	8.915987	3.020818	0.000357
  65	6.3680e+00	2.5475	47.141634	0.000618	6.180400	2.093976	0.000248
  66	6.4675e+00	2.5780	47.480753	0.000851	8.510715	2.883508	0.000341
  67	6.5670e+00	2.6277	47.803724	0.000811	8.105443	2.746198	0.000325
  68	6.6665e+00	2.6662	48.062101	0.000648	6.484354	2.196959	0.000260
  69	6.7660e+00	2.6983	48.368923	0.000770	7.700171	2.608888	0.000308
  70	6.8655e+00	2.7368	48.683820	0.000790	7.902807	2.677543	0.000316
  71	6.9650e+00	2.7833	49.039088	0.000892	8.915987	3.020818	0.000357
  72	7.0645e+00	2.8138	49.333799	0.000740	7.396217	2.505906	0.000296
  73	7.1640e+00	2.8587	49.636584	0.000760	7.598853	2.574561	0.000304
  74	7.2635e+00	2.9021	49.967629	0.000831	8.308079	2.814853	0.000333
  75	7.3630e+00	2.9502	50.246191	0.000699	6.990944	2.368596	0.000280
  76	7.4625e+00	2.9855	50.557051	0.000780	7.801489	2.643216	0.000312
  77	7.5620e+00	3.0256	50.851762	0.000740	7.396217	2.505906	0.000296
  78	7.6615e+00	3.0641	51.170695	0.000800	8.004125	2.711871	0.000321
  79	7.7610e+00	3.0994	51.477518	0.000770	7.700171	2.608888	0.000308
  80	7.8605e+00	3.1315	51.764154	0.000719	7.193581	2.437251	0.000288
  81	7.9600e+00	3.1716	52.139608	0.000942	9.422577	3.192456	0.000377
  82	8.0595e+00	3.2117	52.414133	0.000689	6.889626	2.334269	0.000276
  83	8.1590e+00	3.2518	52.716918	0.000760	7.598853	2.574561	0.000304
  84	8.2585e+00	3.2951	53.007592	0.000729	7.294899	2.471579	0.000292
  85	8.3580e+00	3.3368	53.318452	0.000780	7.801489	2.643216	0.000312
  86	8.4575e+00	3.3801	53.613163	0.000740	7.396217	2.505906	0.000296
  87	8.5570e+00	3.4122	53.932096	0.000800	8.004125	2.711871	0.000321
  88	8.6565e+00	3.4507	54.206622	0.000689	6.889626	2.334269	0.000276
  89	8.7560e+00	3.4940	54.549778	0.000861	8.612033	2.917836	0.000345
  90	8.8555e+00	3.5405	54.824303	0.000689	6.889626	2.334269	0.000276
  91	8.9550e+00	3.5790	55.102866	0.000699	6.990944	2.368596	0.000280
  92	9.0545e+00	3.6063	55.405651	0.000760	7.598853	2.574561	0.000304
  93	9.1540e+00	3.6560	55.752845	0.000871	8.713351	2.952163	0.000349
  94	9.2535e+00	3.6962	56.027370	0.000689	6.889626	2.334269	0.000276
  95	9.3530e+00	3.7330	56.334192	0.000770	7.700171	2.608888	0.000308
  96	9.4525e+00	3.7764	56.608717	0.000689	6.889626	2.334269	0.000276
  97	9.5520e+00	3.8117	56.947837	0.000851	8.510715	2.883508	0.000341
  98	9.6515e+00	3.8502	57.238510	0.000729	7.294899	2.471579	0.000292
  99	9.7510e+00	3.8935	57.525147	0.000719	7.193581	2.437251	0.000288
 100	9.8505e+00	3.9384	57.803709	0.000699	6.990944	2.368596	0.000280
 101	9.9500e+00	3.9753	58.114569	0.000780	7.801489	2.643216	0.000312
 102	1.0050e+01	4.0266	58.405243	0.000729	7.294899	2.471579	0.000292
 103	1.0149e+01	4.0555	58.728214	0.000811	8.105443	2.746198	0.000325
 104	1.0248e+01	4.0940	59.022924	0.000740	7.396217	2.505906	0.000296
 105	1.0348e+01	4.1341	59.309561	0.000719	7.193581	2.437251	0.000288
 106	1.0447e+01	4.1774	59.576012	0.000669	6.686990	2.265614	0.000268
 107	1.0547e+01	4.2127	59.886872	0.000780	7.801489	2.643216	0.000312
 108	1.0646e+01	4.2608	60.185620	0.000750	7.497535	2.540234	0.000300
 109	1.0746e+01	4.2913	60.480330	0.000740	7.396217	2.505906	0.000296
 110	1.0845e+01	4.3362	60.807338	0.000821	8.206761	2.780526	0.000329
 111	1.0945e+01	4.3731	61.077827	0.000679	6.788308	2.299941	0.000272
 112	1.1044e+01	4.4116	61.344278	0.000669	6.686990	2.265614	0.000268
 113	1.1144e+01	4.4582	61.659174	0.000790	7.902807	2.677543	0.000316
 114	1.1243e+01	4.5031	61.917551	0.000648	6.484354	2.196959	0.000260
 115	1.1343e+01	4.5416	62.196113	0.000699	6.990944	2.368596	0.000280
 116	1.1443e+01	4.5689	62.506973	0.000780	7.801489	2.643216	0.000312
 117	1.1542e+01	4.6009	62.825906	0.000800	8.004125	2.711871	0.000321
 118	1.1642e+01	4.6587	63.080246	0.000638	6.383036	2.162631	0.000256
 119	1.1741e+01	4.7004	63.362845	0.000709	7.092263	2.402924	0.000284
 120	1.1841e+01	4.7357	63.661593	0.000750	7.497535	2.540234	0.000300
 121	1.1940e+01	4.7662	63.944193	0.000709	7.092263	2.402924	0.000284
 122	1.2040e+01	4.8127	64.226792	0.000709	7.092263	2.402924	0.000284
 123	1.2139e+01	4.8496	64.513429	0.000719	7.193581	2.437251	0.000288
 124	1.2239e+01	4.8881	64.775843	0.000659	6.585672	2.231286	0.000264
 125	1.2338e+01	4.9362	65.022108	0.000618	6.180400	2.093976	0.000248
 126	1.2438e+01	4.9715	65.324893	0.000760	7.598853	2.574561	0.000304
 127	1.2537e+01	5.0068	65.623641	0.000750	7.497535	2.540234	0.000300
 128	1.2636e+01	5.0453	65.914315	0.000729	7.294899	2.471579	0.000292
 129	1.2736e+01	5.0918	66.144432	0.000578	5.775128	1.956666	0.000231
 130	1.2835e+01	5.1319	66.463366	0.000800	8.004125	2.711871	0.000321
 131	1.2935e+01	5.1769	66.721742	0.000648	6.484354	2.196959	0.000260
 132	1.3034e+01	5.1961	67.000305	0.000699	6.990944	2.368596	0.000280
 133	1.3134e+01	5.2571	67.286941	0.000719	7.193581	2.437251	0.000288
 134	1.3233e+01	5.2876	67.569541	0.000709	7.092263	2.402924	0.000284
 135	1.3333e+01	5.3357	67.840029	0.000679	6.788308	2.299941	0.000272
 136	1.3432e+01	5.3694	68.122628	0.000709	7.092263	2.402924	0.000284
 137	1.3532e+01	5.4127	68.372931	0.000628	6.281718	2.128304	0.000252
 138	1.3632e+01	5.4480	68.623233	0.000628	6.281718	2.128304	0.000252
 139	1.3731e+01	5.4929	68.926018	0.000760	7.598853	2.574561	0.000304
 140	1.3831e+01	5.5314	69.200544	0.000689	6.889626	2.334269	0.000276
 141	1.3930e+01	5.5651	69.458920	0.000648	6.484354	2.196959	0.000260
 142	1.4030e+01	5.6036	69.729408	0.000679	6.788308	2.299941	0.000272
 143	1.4129e+01	5.6485	70.036231	0.000770	7.700171	2.608888	0.000308
 144	1.4229e+01	5.6934	70.266348	0.000578	5.775128	1.956666	0.000231
 145	1.4328e+01	5.7335	70.577207	0.000780	7.801489	2.643216	0.000312
 146	1.4428e+01	5.7720	70.815398	0.000598	5.977764	2.025321	0.000239
 147	1.4527e+01	5.8105	71.110109	0.000740	7.396217	2.505906	0.000296
 148	1.4627e+01	5.8394	71.356374	0.000618	6.180400	2.093976	0.000248
 149	1.4726e+01	5.8972	71.647048	0.000729	7.294899	2.471579	0.000292
 150	1.4825e+01	5.9325	71.877165	0.000578	5.775128	1.956666	0.000231
 151	1.4925e+01	5.9710	72.155727	0.000699	6.990944	2.368596	0.000280
 152	1.5024e+01	6.0127	72.397955	0.000608	6.079082	2.059649	0.000243
 153	1.5124e+01	6.0447	72.680555	0.000709	7.092263	2.402924	0.000284
 154	1.5223e+01	6.0913	72.926820	0.000618	6.180400	2.093976	0.000248
 155	1.5323e+01	6.1201	73.229605	0.000760	7.598853	2.574561	0.000304
 156	1.5422e+01	6.1731	73.447610	0.000547	5.471174	1.853684	0.000219
 157	1.5522e+01	6.2036	73.742321	0.000740	7.396217	2.505906	0.000296
 158	1.5621e+01	6.2453	74.028958	0.000719	7.193581	2.437251	0.000288
 159	1.5721e+01	6.2886	74.263112	0.000588	5.876446	1.990994	0.000235
 160	1.5820e+01	6.3351	74.521489	0.000648	6.484354	2.196959	0.000260
 161	1.5920e+01	6.3672	74.779865	0.000648	6.484354	2.196959	0.000260
 162	1.6020e+01	6.4105	75.066502	0.000719	7.193581	2.437251	0.000288
 163	1.6119e+01	6.4474	75.324879	0.000648	6.484354	2.196959	0.000260
 164	1.6218e+01	6.4827	75.575181	0.000628	6.281718	2.128304	0.000252
 165	1.6318e+01	6.5244	75.829521	0.000638	6.383036	2.162631	0.000256
 166	1.6418e+01	6.5629	76.067712	0.000598	5.977764	2.025321	0.000239
 167	1.6517e+01	6.6110	76.318014	0.000628	6.281718	2.128304	0.000252
 168	1.6616e+01	6.6367	76.596576	0.000699	6.990944	2.368596	0.000280
 169	1.6716e+01	6.6816	76.810545	0.000537	5.369856	1.819356	0.000215
 170	1.6816e+01	6.7249	77.097181	0.000719	7.193581	2.437251	0.000288
 171	1.6915e+01	6.7618	77.307112	0.000527	5.268538	1.785029	0.000211
 172	1.7015e+01	6.8100	77.589712	0.000709	7.092263	2.402924	0.000284
 173	1.7114e+01	6.8372	77.823866	0.000588	5.876446	1.990994	0.000235
 174	1.7213e+01	6.8870	78.078205	0.000638	6.383036	2.162631	0.000256
 175	1.7313e+01	6.9271	78.316396	0.000598	5.977764	2.025321	0.000239
 176	1.7413e+01	6.9672	78.598996	0.000709	7.092263	2.402924	0.000284
 177	1.7512e+01	7.0073	78.849298	0.000628	6.281718	2.128304	0.000252
 178	1.7611e+01	7.0378	79.095563	0.000618	6.180400	2.093976	0.000248
 179	1.7711e+01	7.0811	79.337792	0.000608	6.079082	2.059649	0.000243
 180	1.7811e+01	7.1196	79.559834	0.000557	5.572492	1.888011	0.000223
 181	1.7910e+01	7.1661	79.793988	0.000588	5.876446	1.990994	0.000235
 182	1.8009e+01	7.2030	80.076587	0.000709	7.092263	2.402924	0.000284
 183	1.8109e+01	7.2367	80.310741	0.000588	5.876446	1.990994	0.000235
 184	1.8209e+01	7.2720	80.548932	0.000598	5.977764	2.025321	0.000239
 185	1.8308e+01	7.3217	80.783086	0.000588	5.876446	1.990994	0.000235
 186	1.8407e+01	7.3586	81.045500	0.000659	6.585672	2.231286	0.000264
 187	1.8507e+01	7.3987	81.307914	0.000659	6.585672	2.231286	0.000264
 188	1.8607e+01	7.4372	81.517845	0.000527	5.268538	1.785029	0.000211
 189	1.8706e+01	7.4805	81.788333	0.000679	6.788308	2.299941	0.000272
 190	1.8805e+01	7.5319	82.026524	0.000598	5.977764	2.025321	0.000239
 191	1.8905e+01	7.5672	82.252604	0.000567	5.673810	1.922339	0.000227
 192	1.9005e+01	7.5944	82.486757	0.000588	5.876446	1.990994	0.000235
 193	1.9104e+01	7.6490	82.753208	0.000669	6.686990	2.265614	0.000268
 194	1.9203e+01	7.6875	82.987362	0.000588	5.876446	1.990994	0.000235
 195	1.9303e+01	7.7260	83.173070	0.000466	4.660630	1.579064	0.000187
 196	1.9402e+01	7.7581	83.459707	0.000719	7.193581	2.437251	0.000288
 197	1.9502e+01	7.7950	83.710010	0.000628	6.281718	2.128304	0.000252
 198	1.9602e+01	7.8431	83.968386	0.000648	6.484354	2.196959	0.000260
 199	1.9701e+01	7.8880	84.186392	0.000547	5.471174	1.853684	0.000219
 200	1.9800e+01	7.9217	84.424583	0.000598	5.977764	2.025321	0.000239
 201	1.9900e+01	7.9586	84.695071	0.000679	6.788308	2.299941	0.000272
 202	2.0000e+01	8.0051	84.876742	0.000456	4.559312	1.544737	0.000183
 203	2.0099e+01	8.0388	85.143193	0.000669	6.686990	2.265614	0.000268
 204	2.0198e+01	8.0805	85.385421	0.000608	6.079082	2.059649	0.000243
 205	2.0298e+01	8.1238	85.571129	0.000466	4.660630	1.579064	0.000187
 206	2.0398e+01	8.1591	85.837580	0.000669	6.686990	2.265614	0.000268
 207	2.0497e+01	8.2057	86.120180	0.000709	7.092263	2.402924	0.000284
 208	2.0596e+01	8.2329	86.326073	0.000517	5.167220	1.750701	0.000207
 209	2.0696e+01	8.2794	86.495633	0.000426	4.255358	1.441754	0.000170
 210	2.0796e+01	8.3308	86.798418	0.000760	7.598853	2.574561	0.000304
 211	2.0895e+01	8.3677	87.024498	0.000567	5.673810	1.922339	0.000227
 212	2.0994e+01	8.4014	87.278838	0.000638	6.383036	2.162631	0.000256
 213	2.1094e+01	8.4383	87.484731	0.000517	5.167220	1.750701	0.000207
 214	2.1194e+01	8.4720	87.706774	0.000557	5.572492	1.888011	0.000223
 215	2.1293e+01	8.5233	87.977262	0.000679	6.788308	2.299941	0.000272
 216	2.1392e+01	8.5602	88.167007	0.000476	4.761948	1.613392	0.000191
 217	2.1492e+01	8.5939	88.389050	0.000557	5.572492	1.888011	0.000223
 218	2.1591e+01	8.6404	88.623204	0.000588	5.876446	1.990994	0.000235
 219	2.1691e+01	8.6837	88.893692	0.000679	6.788308	2.299941	0.000272
 220	2.1791e+01	8.7142	89.111697	0.000547	5.471174	1.853684	0.000219
 221	2.1890e+01	8.7543	89.341814	0.000578	5.775128	1.956666	0.000231
 222	2.1989e+01	8.7928	89.563856	0.000557	5.572492	1.888011	0.000223
 223	2.2089e+01	8.8457	89.761676	0.000496	4.964584	1.682047	0.000199
 224	2.2189e+01	8.8746	90.016016	0.000638	6.383036	2.162631	0.000256
 225	2.2288e+01	8.9227	90.254207	0.000598	5.977764	2.025321	0.000239
 226	2.2387e+01	8.9612	90.484323	0.000578	5.775128	1.956666	0.000231
 227	2.2487e+01	8.9869	90.726551	0.000608	6.079082	2.059649	0.000243
 228	2.2587e+01	9.0318	90.952631	0.000567	5.673810	1.922339	0.000227
 229	2.2686e+01	9.0735	91.178711	0.000567	5.673810	1.922339	0.000227
 230	2.2785e+01	9.1217	91.368456	0.000476	4.761948	1.613392	0.000191
 231	2.2885e+01	9.1634	91.590498	0.000557	5.572492	1.888011	0.000223
 232	2.2985e+01	9.1971	91.820615	0.000578	5.775128	1.956666	0.000231
 233	2.3084e+01	9.2420	92.070918	0.000628	6.281718	2.128304	0.000252
 234	2.3183e+01	9.2805	92.284886	0.000537	5.369856	1.819356	0.000215
 235	2.3283e+01	9.3158	92.506928	0.000557	5.572492	1.888011	0.000223
 236	2.3383e+01	9.3527	92.753194	0.000618	6.180400	2.093976	0.000248
 237	2.3482e+01	9.3944	92.951013	0.000496	4.964584	1.682047	0.000199
 238	2.3581e+01	9.4425	93.209390	0.000648	6.484354	2.196959	0.000260
 239	2.3681e+01	9.4762	93.423358	0.000537	5.369856	1.819356	0.000215
 240	2.3780e+01	9.5259	93.629252	0.000517	5.167220	1.750701	0.000207
 241	2.3880e+01	9.5564	93.843220	0.000537	5.369856	1.819356	0.000215
 242	2.3980e+01	9.5885	94.097560	0.000638	6.383036	2.162631	0.000256
 243	2.4079e+01	9.6366	94.319602	0.000557	5.572492	1.888011	0.000223
 244	2.4178e+01	9.6751	94.537608	0.000547	5.471174	1.853684	0.000219
 245	2.4278e+01	9.7217	94.739464	0.000507	5.065902	1.716374	0.000203
 246	2.4378e+01	9.7441	94.977655	0.000598	5.977764	2.025321	0.000239
 247	2.4477e+01	9.7954	95.183549	0.000517	5.167220	1.750701	0.000207
 248	2.4576e+01	9.8372	95.373295	0.000476	4.761948	1.613392	0.000191
 249	2.4676e+01	9.8805	95.651857	0.000699	6.990944	2.368596	0.000280
 250	2.4776e+01	9.9206	95.813342	0.000405	4.052721	1.373099	0.000162
 251	2.4875e+01	9.9511	96.059608	0.000618	6.180400	2.093976	0.000248
 252	2.4974e+01	9.9896	96.265502	0.000517	5.167220	1.750701	0.000207
 253	2.5074e+01	10.0281	96.491581	0.000567	5.673810	1.922339	0.000227
 254	2.5174e+01	10.0714	96.705549	0.000537	5.369856	1.819356	0.000215
 255	2.5273e+01	10.1131	96.935666	0.000578	5.775128	1.956666	0.000231
 256	2.5372e+01	10.1532	97.173857	0.000598	5.977764	2.025321	0.000239
 257	2.5472e+01	10.1997	97.391863	0.000547	5.471174	1.853684	0.000219
 258	2.5572e+01	10.2318	97.561422	0.000426	4.255358	1.441754	0.000170
 259	2.5671e+01	10.2719	97.807688	0.000618	6.180400	2.093976	0.000248
 260	2.5770e+01	10.3136	98.049916	0.000608	6.079082	2.059649	0.000243
 261	2.5870e+01	10.3505	98.235624	0.000466	4.660630	1.579064	0.000187
 262	2.5970e+01	10.3906	98.494001	0.000648	6.484354	2.196959	0.000260
 263	2.6069e+01	10.4275	98.667597	0.000436	4.356676	1.476082	0.000174
 264	2.6169e+01	10.4676	98.925974	0.000648	6.484354	2.196959	0.000260
 265	2.6268e+01	10.5141	99.123794	0.000496	4.964584	1.682047	0.000199
 266	2.6367e+01	10.5510	99.337762	0.000537	5.369856	1.819356	0.000215
 267	2.6467e+01	10.5895	99.551730	0.000537	5.369856	1.819356	0.000215
 268	2.6567e+01	10.6329	99.773773	0.000557	5.572492	1.888011	0.000223
 269	2.6666e+01	10.6585	99.999852	0.000567	5.673810	1.922339	0.000227
 270	2.6765e+01	10.7099	100.209783	0.000527	5.268538	1.785029	0.000211
 271	2.6865e+01	10.7403	100.427789	0.000547	5.471174	1.853684	0.000219
 272	2.6965e+01	10.7901	100.661942	0.000588	5.876446	1.990994	0.000235
 273	2.7064e+01	10.8254	100.855725	0.000486	4.863266	1.647719	0.000195
 274	2.7163e+01	10.8751	101.081805	0.000567	5.673810	1.922339	0.000227
 275	2.7263e+01	10.9136	101.287699	0.000517	5.167220	1.750701	0.000207
 276	2.7363e+01	10.9601	101.493592	0.000517	5.167220	1.750701	0.000207
 277	2.7462e+01	10.9922	101.727746	0.000588	5.876446	1.990994	0.000235
 278	2.7561e+01	11.0323	101.937677	0.000527	5.268538	1.785029	0.000211
 279	2.7661e+01	11.0692	102.135497	0.000496	4.964584	1.682047	0.000199
 280	2.7761e+01	11.1077	102.333317	0.000496	4.964584	1.682047	0.000199
 281	2.7860e+01	11.1430	102.583619	0.000628	6.281718	2.128304	0.000252
 282	2.7959e+01	11.1863	102.805662	0.000557	5.572492	1.888011	0.000223
 283	2.8059e+01	11.2200	102.991370	0.000466	4.660630	1.579064	0.000187
 284	2.8159e+01	11.2713	103.205338	0.000537	5.369856	1.819356	0.000215
 285	2.8258e+01	11.3130	103.387009	0.000456	4.559312	1.544737	0.000183
 286	2.8358e+01	11.3499	103.685757	0.000750	7.497535	2.540234	0.000300
 287	2.8457e+01	11.3868	103.831094	0.000365	3.647449	1.235789	0.000146
 288	2.8556e+01	11.4270	104.069285	0.000598	5.977764	2.025321	0.000239
 289	2.8656e+01	11.4735	104.267105	0.000496	4.964584	1.682047	0.000199
 290	2.8756e+01	11.5136	104.432627	0.000415	4.154039	1.407427	0.000166
 291	2.8855e+01	11.5457	104.682930	0.000628	6.281718	2.128304	0.000252
 292	2.8954e+01	11.5842	104.884786	0.000507	5.065902	1.716374	0.000203
 293	2.9054e+01	11.6162	105.078569	0.000486	4.863266	1.647719	0.000195
 294	2.9154e+01	11.6708	105.288500	0.000527	5.268538	1.785029	0.000211
 295	2.9253e+01	11.7013	105.498431	0.000527	5.268538	1.785029	0.000211
 296	2.9352e+01	11.7430	105.736622	0.000598	5.977764	2.025321	0.000239
 297	2.9452e+01	11.7847	105.910219	0.000436	4.356676	1.476082	0.000174
 298	2.9552e+01	11.8248	106.116113	0.000517	5.167220	1.750701	0.000207
 299	2.9651e+01	11.8649	106.330081	0.000537	5.369856	1.819356	0.000215
 300	2.9750e+01	11.9146	106.544049	0.000537	5.369856	1.819356	0.000215
 301	2.9850e+01	11.9467	106.770129	0.000567	5.673810	1.922339	0.000227
 302	2.9950e+01	11.9724	106.943726	0.000436	4.356676	1.476082	0.000174
 303	3.0049e+01	12.0269	107.121360	0.000446	4.457994	1.510409	0.000179
 304	3.0148e+01	12.0638	107.339365	0.000547	5.471174	1.853684	0.000219
 305	3.0248e+01	12.1023	107.545259	0.000517	5.167220	1.750701	0.000207
 306	3.0348e+01	12.1489	107.747116	0.000507	5.065902	1.716374	0.000203
 307	3.0447e+01	12.1713	107.957047	0.000527	5.268538	1.785029	0.000211
 308	3.0547e+01	12.2259	108.191201	0.000588	5.876446	1.990994	0.000235
 309	3.0646e+01	12.2628	108.376909	0.000466	4.660630	1.579064	0.000187
 310	3.0745e+01	12.3029	108.570691	0.000486	4.863266	1.647719	0.000195
 311	3.0845e+01	12.3462	108.776585	0.000517	5.167220	1.750701	0.000207
 312	3.0945e+01	12.3847	108.978442	0.000507	5.065902	1.716374	0.000203
 313	3.1044e+01	12.4360	109.164150	0.000466	4.660630	1.579064	0.000187
 314	3.1143e+01	12.4649	109.366007	0.000507	5.065902	1.716374	0.000203
 315	3.1243e+01	12.5034	109.571901	0.000517	5.167220	1.750701	0.000207
 316	3.1343e+01	12.5483	109.802018	0.000578	5.775128	1.956666	0.000231
 317	3.1442e+01	12.5948	109.991763	0.000476	4.761948	1.613392	0.000191
 318	3.1541e+01	12.6285	110.185546	0.000486	4.863266	1.647719	0.000195
 319	3.1641e+01	12.6558	110.383365	0.000496	4.964584	1.682047	0.000199
 320	3.1741e+01	12.7039	110.609445	0.000567	5.673810	1.922339	0.000227
 321	3.1840e+01	12.7408	110.787079	0.000446	4.457994	1.510409	0.000179
 322	3.1939e+01	12.7777	110.997010	0.000527	5.268538	1.785029	0.000211
 323	3.2039e+01	12.8210	111.182718	0.000466	4.660630	1.579064	0.000187
 324	3.2139e+01	12.8659	111.449169	0.000669	6.686990	2.265614	0.000268
 325	3.2238e+01	12.9061	111.586432	0.000344	3.444813	1.167134	0.000138
 326	3.2337e+01	12.9365	111.800400	0.000537	5.369856	1.819356	0.000215
 327	3.2437e+01	12.9766	111.986108	0.000466	4.660630	1.579064	0.000187
 328	3.2536e+01	13.0248	112.196039	0.000527	5.268538	1.785029	0.000211
 329	3.2636e+01	13.0585	112.369636	0.000436	4.356676	1.476082	0.000174
 330	3.2736e+01	13.0986	112.539196	0.000426	4.255358	1.441754	0.000170
 331	3.2835e+01	13.1419	112.793535	0.000638	6.383036	2.162631	0.000256
 332	3.2934e+01	13.1740	112.967132	0.000436	4.356676	1.476082	0.000174
 333	3.3034e+01	13.2157	113.156878	0.000476	4.761948	1.613392	0.000191
 334	3.3133e+01	13.2478	113.407180	0.000628	6.281718	2.128304	0.000252
 335	3.3233e+01	13.2927	113.564628	0.000395	3.951403	1.338772	0.000158
 336	3.3333e+01	13.3328	113.782634	0.000547	5.471174	1.853684	0.000219
 337	3.3432e+01	13.3761	113.932008	0.000375	3.748767	1.270117	0.000150
 338	3.3532e+01	13.4146	114.150013	0.000547	5.471174	1.853684	0.000219
 339	3.3631e+01	13.4611	114.343796	0.000486	4.863266	1.647719	0.000195
 340	3.3730e+01	13.4964	114.541615	0.000496	4.964584	1.682047	0.000199
 341	3.3830e+01	13.5461	114.711175	0.000426	4.255358	1.441754	0.000170
 342	3.3929e+01	13.5814	114.904957	0.000486	4.863266	1.647719	0.000195
 343	3.4029e+01	13.6231	115.114888	0.000527	5.268538	1.785029	0.000211
 344	3.4129e+01	13.6552	115.304634	0.000476	4.761948	1.613392	0.000191
 345	3.4228e+01	13.6937	115.498416	0.000486	4.863266	1.647719	0.000195
 346	3.4328e+01	13.7370	115.704310	0.000517	5.167220	1.750701	0.000207
 347	3.4427e+01	13.7707	115.890018	0.000466	4.660630	1.579064	0.000187
 348	3.4526e+01	13.8140	116.087838	0.000496	4.964584	1.682047	0.000199
 349	3.4626e+01	13.8542	116.285658	0.000496	4.964584	1.682047	0.000199
 350	3.4725e+01	13.8927	116.471366	0.000466	4.660630	1.579064	0.000187
 351	3.4825e+01	13.9296	116.624777	0.000385	3.850085	1.304444	0.000154
 352	3.4925e+01	13.9681	116.822597	0.000496	4.964584	1.682047	0.000199
 353	3.5024e+01	14.0210	117.044639	0.000557	5.572492	1.888011	0.000223
 354	3.5123e+01	14.0563	117.242459	0.000496	4.964584	1.682047	0.000199
 355	3.5223e+01	14.0964	117.387796	0.000365	3.647449	1.235789	0.000146
 356	3.5322e+01	14.1349	117.609838	0.000557	5.572492	1.888011	0.000223
 357	3.5422e+01	14.1782	117.803621	0.000486	4.863266	1.647719	0.000195
 358	3.5522e+01	14.2167	117.989329	0.000466	4.660630	1.579064	0.000187
 359	3.5621e+01	14.2584	118.179074	0.000476	4.761948	1.613392	0.000191
 360	3.5721e+01	14.2969	118.344597	0.000415	4.154039	1.407427	0.000166
 361	3.5820e+01	14.3418	118.558565	0.000537	5.369856	1.819356	0.000215
 362	3.5919e+01	14.3723	118.728125	0.000426	4.255358	1.441754	0.000170
 363	3.6019e+01	14.4237	118.909796	0.000456	4.559312	1.544737	0.000183
 364	3.6118e+01	14.4477	119.103579	0.000486	4.863266	1.647719	0.000195
 365	3.6218e+01	14.4910	119.297361	0.000486	4.863266	1.647719	0.000195
 366	3.6318e+01	14.5327	119.511329	0.000537	5.369856	1.819356	0.000215
 367	3.6417e+01	14.5712	119.656666	0.000365	3.647449	1.235789	0.000146
 368	3.6517e+01	14.6097	119.866597	0.000527	5.268538	1.785029	0.000211
 369	3.6616e+01	14.6531	120.064417	0.000496	4.964584	1.682047	0.000199
 370	3.6715e+01	14.6900	120.221865	0.000395	3.951403	1.338772	0.000158
 371	3.6815e+01	14.7188	120.411611	0.000476	4.761948	1.613392	0.000191
 372	3.6914e+01	14.7814	120.609430	0.000496	4.964584	1.682047	0.000199
 373	3.7014e+01	14.8103	120.807250	0.000496	4.964584	1.682047	0.000199
 374	3.7114e+01	14.8504	120.996995	0.000476	4.761948	1.613392	0.000191
 375	3.7213e+01	14.8873	121.198852	0.000507	5.065902	1.716374	0.000203
 376	3.7313e+01	14.9402	121.344189	0.000365	3.647449	1.235789	0.000146
 377	3.7412e+01	14.9723	121.558157	0.000537	5.369856	1.819356	0.000215
 378	3.7511e+01	15.0124	121.735791	0.000446	4.457994	1.510409	0.000179
 379	3.7611e+01	15.0477	121.949759	0.000537	5.369856	1.819356	0.000215
 380	3.7711e+01	15.0958	122.107208	0.000395	3.951403	1.338772	0.000158
 381	3.7810e+01	15.1295	122.305027	0.000496	4.964584	1.682047	0.000199
 382	3.7910e+01	15.1552	122.502847	0.000496	4.964584	1.682047	0.000199
 383	3.8009e+01	15.2194	122.712778	0.000527	5.268538	1.785029	0.000211
 384	3.8108e+01	15.2546	122.862152	0.000375	3.748767	1.270117	0.000150
 385	3.8208e+01	15.2915	123.068046	0.000517	5.167220	1.750701	0.000207
 386	3.8307e+01	15.3284	123.241643	0.000436	4.356676	1.476082	0.000174
 387	3.8407e+01	15.3798	123.411202	0.000426	4.255358	1.441754	0.000170
 388	3.8507e+01	15.4103	123.592873	0.000456	4.559312	1.544737	0.000183
 389	3.8606e+01	15.4456	123.778582	0.000466	4.660630	1.579064	0.000187
 390	3.8706e+01	15.4889	123.996587	0.000547	5.471174	1.853684	0.000219
 391	3.8805e+01	15.5354	124.190370	0.000486	4.863266	1.647719	0.000195
 392	3.8904e+01	15.5707	124.335706	0.000365	3.647449	1.235789	0.000146
 393	3.9004e+01	15.6076	124.537563	0.000507	5.065902	1.716374	0.000203
 394	3.9103e+01	15.6509	124.763643	0.000567	5.673810	1.922339	0.000227
 395	3.9203e+01	15.6862	124.904943	0.000355	3.546131	1.201462	0.000142
 396	3.9303e+01	15.7343	125.106799	0.000507	5.065902	1.716374	0.000203
 397	3.9402e+01	15.7712	125.268285	0.000405	4.052721	1.373099	0.000162
 398	3.9502e+01	15.8065	125.445919	0.000446	4.457994	1.510409	0.000179
 399	3.9601e+01	15.8466	125.663924	0.000547	5.471174	1.853684	0.000219
 400	3.9700e+01	15.8835	125.845595	0.000456	4.559312	1.544737	0.000183
 401	3.9800e+01	15.9300	126.055526	0.000527	5.268538	1.785029	0.000211
 402	3.9900e+01	15.9685	126.229123	0.000436	4.356676	1.476082	0.000174
 403	3.9999e+01	16.0086	126.366386	0.000344	3.444813	1.167134	0.000138
 404	4.0099e+01	16.0423	126.580354	0.000537	5.369856	1.819356	0.000215
 405	4.0198e+01	16.0792	126.729728	0.000375	3.748767	1.270117	0.000150
 406	4.0297e+01	16.1257	126.931585	0.000507	5.065902	1.716374	0.000203
 407	4.0397e+01	16.1755	127.129404	0.000496	4.964584	1.682047	0.000199
 408	4.0496e+01	16.2124	127.311075	0.000456	4.559312	1.544737	0.000183
 409	4.0596e+01	16.2509	127.504858	0.000486	4.863266	1.647719	0.000195
 410	4.0696e+01	16.2910	127.670381	0.000415	4.154039	1.407427	0.000166
 411	4.0795e+01	16.3327	127.839940	0.000426	4.255358	1.441754	0.000170
 412	4.0895e+01	16.3696	128.025649	0.000466	4.660630	1.579064	0.000187
 413	4.0994e+01	16.4017	128.251728	0.000567	5.673810	1.922339	0.000227
 414	4.1093e+01	16.4338	128.421288	0.000426	4.255358	1.441754	0.000170
 415	4.1193e+01	16.4835	128.570662	0.000375	3.748767	1.270117	0.000150
 416	4.1292e+01	16.5284	128.780593	0.000527	5.268538	1.785029	0.000211
 417	4.1392e+01	16.5669	128.942078	0.000405	4.052721	1.373099	0.000162
 418	4.1492e+01	16.6070	129.164121	0.000557	5.572492	1.888011	0.000223
 419	4.1591e+01	16.6503	129.341755	0.000446	4.457994	1.510409	0.000179
 420	4.1691e+01	16.6840	129.507277	0.000415	4.154039	1.407427	0.000166
 421	4.1790e+01	16.7241	129.729320	0.000557	5.572492	1.888011	0.000223
 422	4.1889e+01	16.7690	129.882731	0.000385	3.850085	1.304444	0.000154
 423	4.1989e+01	16.8075	130.088625	0.000517	5.167220	1.750701	0.000207
 424	4.2089e+01	16.8493	130.278370	0.000476	4.761948	1.613392	0.000191
 425	4.2188e+01	16.8894	130.431781	0.000385	3.850085	1.304444	0.000154
 426	4.2288e+01	16.9263	130.621527	0.000476	4.761948	1.613392	0.000191
 427	4.2387e+01	16.9664	130.807235	0.000466	4.660630	1.579064	0.000187
 428	4.2486e+01	17.0081	130.996980	0.000476	4.761948	1.613392	0.000191
 429	4.2586e+01	17.0418	131.194800	0.000496	4.964584	1.682047	0.000199
 430	4.2685e+01	17.0771	131.364360	0.000426	4.255358	1.441754	0.000170
 431	4.2785e+01	17.1204	131.546031	0.000456	4.559312	1.544737	0.000183
 432	4.2885e+01	17.1717	131.759999	0.000537	5.369856	1.819356	0.000215
 433	4.2984e+01	17.2022	131.929559	0.000426	4.255358	1.441754	0.000170
 434	4.3084e+01	17.2487	132.111230	0.000456	4.559312	1.544737	0.000183
 435	4.3183e+01	17.2792	132.329235	0.000547	5.471174	1.853684	0.000219
 436	4.3282e+01	17.3177	132.506869	0.000446	4.457994	1.510409	0.000179
 437	4.3382e+01	17.3626	132.644132	0.000344	3.444813	1.167134	0.000138
 438	4.3481e+01	17.4091	132.862137	0.000547	5.471174	1.853684	0.000219
 439	4.3581e+01	17.4332	133.063994	0.000507	5.065902	1.716374	0.000203
 440	4.3681e+01	17.4861	133.261814	0.000496	4.964584	1.682047	0.000199
 441	4.3780e+01	17.5295	133.451559	0.000476	4.761948	1.613392	0.000191
 442	4.3880e+01	17.5663	133.629193	0.000446	4.457994	1.510409	0.000179
 443	4.3979e+01	17.6097	133.798753	0.000426	4.255358	1.441754	0.000170
 444	4.4078e+01	17.6401	134.012721	0.000537	5.369856	1.819356	0.000215
 445	4.4178e+01	17.6802	134.166132	0.000385	3.850085	1.304444	0.000154
 446	4.4278e+01	17.7155	134.372026	0.000517	5.167220	1.750701	0.000207
 447	4.4377e+01	17.7605	134.561771	0.000476	4.761948	1.613392	0.000191
 448	4.4477e+01	17.8006	134.759591	0.000496	4.964584	1.682047	0.000199
 449	4.4576e+01	17.8407	134.917039	0.000395	3.951403	1.338772	0.000158
 450	4.4675e+01	17.8776	135.114859	0.000496	4.964584	1.682047	0.000199
 451	4.4775e+01	17.9113	135.312679	0.000496	4.964584	1.682047	0.000199
 452	4.4874e+01	17.9626	135.514535	0.000507	5.065902	1.716374	0.000203
 453	4.4974e+01	18.0043	135.708318	0.000486	4.863266	1.647719	0.000195
 454	4.5074e+01	18.0412	135.869803	0.000405	4.052721	1.373099	0.000162
 455	4.5173e+01	18.0829	136.047437	0.000446	4.457994	1.510409	0.000179
 456	4.5273e+01	18.1182	136.249294	0.000507	5.065902	1.716374	0.000203
 457	4.5372e+01	18.1583	136.406742	0.000395	3.951403	1.338772	0.000158
 458	4.5471e+01	18.2032	136.596488	0.000476	4.761948	1.613392	0.000191
 459	4.5571e+01	18.2417	136.814493	0.000547	5.471174	1.853684	0.000219
 460	4.5670e+01	18.2802	136.980016	0.000415	4.154039	1.407427	0.000166
 461	4.5770e+01	18.3252	137.202058	0.000557	5.572492	1.888011	0.000223
 462	4.5870e+01	18.3556	137.379692	0.000446	4.457994	1.510409	0.000179
 463	4.5969e+01	18.3989	137.573475	0.000486	4.863266	1.647719	0.000195
 464	4.6069e+01	18.4342	137.730923	0.000395	3.951403	1.338772	0.000158
 465	4.6168e+01	18.4727	137.948928	0.000547	5.471174	1.853684	0.000219
 466	4.6267e+01	18.5289	138.126562	0.000446	4.457994	1.510409	0.000179
 467	4.6367e+01	18.5578	138.328419	0.000507	5.065902	1.716374	0.000203
 468	4.6467e+01	18.6011	138.522201	0.000486	4.863266	1.647719	0.000195
 469	4.6566e+01	18.6412	138.679650	0.000395	3.951403	1.338772	0.000158
 470	4.6666e+01	18.6765	138.897655	0.000547	5.471174	1.853684	0.000219
 471	4.6765e+01	18.7214	139.030881	0.000334	3.343495	1.132807	0.000134
 472	4.6864e+01	18.7535	139.240812	0.000527	5.268538	1.785029	0.000211
 473	4.6964e+01	18.8032	139.450743	0.000527	5.268538	1.785029	0.000211
 474	4.7063e+01	18.8321	139.636451	0.000466	4.660630	1.579064	0.000187
 475	4.7163e+01	18.8738	139.822159	0.000466	4.660630	1.579064	0.000187
 476	4.7263e+01	18.9091	140.007867	0.000466	4.660630	1.579064	0.000187
 477	4.7362e+01	18.9588	140.213761	0.000517	5.167220	1.750701	0.000207
 478	4.7462e+01	19.0037	140.419655	0.000517	5.167220	1.750701	0.000207
 479	4.7561e+01	19.0246	140.573066	0.000385	3.850085	1.304444	0.000154
 480	4.7660e+01	19.0823	140.778960	0.000517	5.167220	1.750701	0.000207
 481	4.7760e+01	19.1160	140.956594	0.000446	4.457994	1.510409	0.000179
 482	4.7859e+01	19.1626	141.142303	0.000466	4.660630	1.579064	0.000187
 483	4.7959e+01	19.2059	141.356271	0.000537	5.369856	1.819356	0.000215
 484	4.8059e+01	19.2380	141.525830	0.000426	4.255358	1.441754	0.000170
 485	4.8158e+01	19.2797	141.707502	0.000456	4.559312	1.544737	0.000183
 486	4.8258e+01	19.3246	141.893210	0.000466	4.660630	1.579064	0.000187
 487	4.8357e+01	19.3551	142.115252	0.000557	5.572492	1.888011	0.000223
 488	4.8456e+01	19.4048	142.280775	0.000415	4.154039	1.407427	0.000166
 489	4.8556e+01	19.4321	142.506854	0.000567	5.673810	1.922339	0.000227
 490	4.8656e+01	19.4850	142.684488	0.000446	4.457994	1.510409	0.000179
 491	4.8755e+01	19.5123	142.858085	0.000436	4.356676	1.476082	0.000174
 492	4.8855e+01	19.5508	143.088202	0.000578	5.775128	1.956666	0.000231
 493	4.8954e+01	19.5893	143.273910	0.000466	4.660630	1.579064	0.000187
 494	4.9053e+01	19.6310	143.443470	0.000426	4.255358	1.441754	0.000170
 495	4.9153e+01	19.6791	143.657438	0.000537	5.369856	1.819356	0.000215
 496	4.9252e+01	19.7192	143.863332	0.000517	5.167220	1.750701	0.000207
 497	4.9352e+01	19.7609	144.045003	0.000456	4.559312	1.544737	0.000183
 498	4.9452e+01	19.7994	144.202451	0.000395	3.951403	1.338772	0.000158
 499	4.9551e+01	19.8379	144.448717	0.000618	6.180400	2.093976	0.000248
 500	4.9651e+01	19.8748	144.618276	0.000426	4.255358	1.441754	0.000170
 501	4.9750e+01	19.9101	144.824170	0.000517	5.167220	1.750701	0.000207
 502	4.9849e+01	19.9438	145.001804	0.000446	4.457994	1.510409	0.000179
 503	4.9949e+01	19.9952	145.207698	0.000517	5.167220	1.750701	0.000207
 504	5.0048e+01	19.9567	145.106770	0.000253	2.532951	0.858187	-0.000101
 505	5.0148e+01	19.9133	145.074473	0.000081	0.810544	0.274620	-0.000032
 506	5.0248e+01	19.8700	144.933173	0.000355	3.546131	1.201462	-0.000142
 507	5.0347e+01	19.8315	144.856467	0.000193	1.925043	0.652222	-0.000077
 508	5.0447e+01	19.7898	144.747465	0.000274	2.735587	0.926842	-0.000110
 509	5.0546e+01	19.7481	144.699019	0.000122	1.215816	0.411930	-0.000049
 510	5.0645e+01	19.7112	144.565794	0.000334	3.343495	1.132807	-0.000134
 511	5.0745e+01	19.6759	144.481014	0.000213	2.127679	0.720877	-0.000085
 512	5.0844e+01	19.6390	144.372011	0.000274	2.735587	0.926842	-0.000110
 513	5.0944e+01	19.6021	144.307417	0.000162	1.621089	0.549240	-0.000065
 514	5.1044e+01	19.5540	144.129783	0.000446	4.457994	1.510409	-0.000179
 515	5.1143e+01	19.5219	144.069226	0.000152	1.519771	0.514912	-0.000061
 516	5.1242e+01	19.4738	143.956186	0.000284	2.836905	0.961169	-0.000114
 517	5.1342e+01	19.4401	143.859295	0.000243	2.431633	0.823860	-0.000097
 518	5.1441e+01	19.3968	143.717995	0.000355	3.546131	1.201462	-0.000142
 519	5.1541e+01	19.3567	143.625141	0.000233	2.330315	0.789532	-0.000093
 520	5.1641e+01	19.3166	143.483841	0.000355	3.546131	1.201462	-0.000142
 521	5.1740e+01	19.2749	143.374839	0.000274	2.735587	0.926842	-0.000110
 522	5.1840e+01	19.2396	143.281984	0.000233	2.330315	0.789532	-0.000093
 523	5.1939e+01	19.1930	143.128573	0.000385	3.850085	1.304444	-0.000154
 524	5.2038e+01	19.1626	143.015534	0.000284	2.836905	0.961169	-0.000114
 525	5.2138e+01	19.1128	142.914605	0.000253	2.532951	0.858187	-0.000101
 526	5.2237e+01	19.0856	142.813677	0.000253	2.532951	0.858187	-0.000101
 527	5.2337e+01	19.0310	142.716785	0.000243	2.431633	0.823860	-0.000097
 528	5.2437e+01	18.9941	142.563374	0.000385	3.850085	1.304444	-0.000154
 529	5.2536e+01	18.9492	142.450335	0.000284	2.836905	0.961169	-0.000114
 530	5.2636e+01	18.9219	142.337295	0.000284	2.836905	0.961169	-0.000114
 531	5.2735e+01	18.8786	142.200032	0.000344	3.444813	1.167134	-0.000138
 532	5.2834e+01	18.8337	142.103141	0.000243	2.431633	0.823860	-0.000097
 533	5.2934e+01	18.7904	141.965878	0.000344	3.444813	1.167134	-0.000138
 534	5.3033e+01	18.7599	141.856876	0.000274	2.735587	0.926842	-0.000110
 535	5.3133e+01	18.7198	141.719613	0.000344	3.444813	1.167134	-0.000138
 536	5.3233e+01	18.6845	141.606573	0.000284	2.836905	0.961169	-0.000114
 537	5.3332e+01	18.6380	141.489496	0.000294	2.938223	0.995497	-0.000118
 538	5.3431e+01	18.6011	141.356271	0.000334	3.343495	1.132807	-0.000134
 539	5.3531e+01	18.5546	141.210934	0.000365	3.647449	1.235789	-0.000146
 540	5.3630e+01	18.5241	141.077708	0.000334	3.343495	1.132807	-0.000134
 541	5.3730e+01	18.4647	140.964669	0.000284	2.836905	0.961169	-0.000114
 542	5.3830e+01	18.4391	140.791072	0.000436	4.356676	1.476082	-0.000174
 543	5.3929e+01	18.3989	140.678032	0.000284	2.836905	0.961169	-0.000114
 544	5.4029e+01	18.3637	140.597289	0.000203	2.026361	0.686550	-0.000081
 545	5.4128e+01	18.3155	140.435804	0.000405	4.052721	1.373099	-0.000162
 546	5.4227e+01	18.2802	140.342950	0.000233	2.330315	0.789532	-0.000093
 547	5.4327e+01	18.2417	140.165316	0.000446	4.457994	1.510409	-0.000179
 548	5.4426e+01	18.2000	140.048239	0.000294	2.938223	0.995497	-0.000118
 549	5.4526e+01	18.1615	139.902902	0.000365	3.647449	1.235789	-0.000146
 550	5.4626e+01	18.1246	139.789862	0.000284	2.836905	0.961169	-0.000114
 551	5.4725e+01	18.0797	139.660674	0.000324	3.242177	1.098479	-0.000130
 552	5.4825e+01	18.0380	139.503225	0.000395	3.951403	1.338772	-0.000158
 553	5.4924e+01	18.0075	139.430557	0.000182	1.823725	0.617895	-0.000073
 554	5.5023e+01	17.9562	139.240812	0.000476	4.761948	1.613392	-0.000191
 555	5.5123e+01	17.9209	139.119698	0.000304	3.039541	1.029824	-0.000122
 556	5.5222e+01	17.8792	138.982435	0.000344	3.444813	1.167134	-0.000138
 557	5.5322e+01	17.8391	138.873432	0.000274	2.735587	0.926842	-0.000110
 558	5.5422e+01	17.7942	138.707910	0.000415	4.154039	1.407427	-0.000166
 559	5.5521e+01	17.7540	138.639278	0.000172	1.722407	0.583567	-0.000069
 560	5.5620e+01	17.7220	138.449533	0.000476	4.761948	1.613392	-0.000191
 561	5.5720e+01	17.6786	138.344567	0.000263	2.634269	0.892514	-0.000105
 562	5.5819e+01	17.6289	138.154822	0.000476	4.761948	1.613392	-0.000191
 563	5.5919e+01	17.6000	138.033708	0.000304	3.039541	1.029824	-0.000122
 564	5.6019e+01	17.5647	137.896445	0.000344	3.444813	1.167134	-0.000138
 565	5.6118e+01	17.5262	137.755146	0.000355	3.546131	1.201462	-0.000142
 566	5.6218e+01	17.4797	137.650180	0.000263	2.634269	0.892514	-0.000105
 567	5.6317e+01	17.4396	137.525029	0.000314	3.140859	1.064152	-0.000126
 568	5.6416e+01	17.4043	137.379692	0.000365	3.647449	1.235789	-0.000146
 569	5.6516e+01	17.3562	137.230318	0.000375	3.748767	1.270117	-0.000150
 570	5.6615e+01	17.3241	137.117278	0.000284	2.836905	0.961169	-0.000114
 571	5.6715e+01	17.2728	136.927533	0.000476	4.761948	1.613392	-0.000191
 572	5.6815e+01	17.2487	136.762010	0.000415	4.154039	1.407427	-0.000166
 573	5.6914e+01	17.2086	136.624748	0.000344	3.444813	1.167134	-0.000138
 574	5.7014e+01	17.1605	136.515745	0.000274	2.735587	0.926842	-0.000110
 575	5.7113e+01	17.1348	136.354260	0.000405	4.052721	1.373099	-0.000162
 576	5.7212e+01	17.0803	136.221034	0.000334	3.343495	1.132807	-0.000134
 577	5.7312e+01	17.0386	136.071660	0.000375	3.748767	1.270117	-0.000150
 578	5.7411e+01	16.9968	135.942472	0.000324	3.242177	1.098479	-0.000130
 579	5.7511e+01	16.9648	135.785023	0.000395	3.951403	1.338772	-0.000158
 580	5.7611e+01	16.9166	135.663909	0.000304	3.039541	1.029824	-0.000122
 581	5.7710e+01	16.8846	135.518572	0.000365	3.647449	1.235789	-0.000146
 582	5.7809e+01	16.8477	135.357087	0.000405	4.052721	1.373099	-0.000162
 583	5.7909e+01	16.7995	135.203676	0.000385	3.850085	1.304444	-0.000154
 584	5.8008e+01	16.7562	135.078525	0.000314	3.140859	1.064152	-0.000126
 585	5.8108e+01	16.7289	134.957411	0.000304	3.039541	1.029824	-0.000122
 586	5.8208e+01	16.6904	134.791888	0.000415	4.154039	1.407427	-0.000166
 587	5.8307e+01	16.6584	134.658663	0.000334	3.343495	1.132807	-0.000134
 588	5.8407e+01	16.6150	134.513326	0.000365	3.647449	1.235789	-0.000146
 589	5.8506e+01	16.5653	134.323580	0.000476	4.761948	1.613392	-0.000191
 590	5.8605e+01	16.5220	134.230726	0.000233	2.330315	0.789532	-0.000093
 591	5.8705e+01	16.4851	134.085389	0.000365	3.647449	1.235789	-0.000146
 592	5.8804e+01	16.4450	133.923904	0.000405	4.052721	1.373099	-0.000162
 593	5.8904e+01	16.4033	133.814901	0.000274	2.735587	0.926842	-0.000110
 594	5.9004e+01	16.3728	133.625156	0.000476	4.761948	1.613392	-0.000191
 595	5.9103e+01	16.3231	133.483856	0.000355	3.546131	1.201462	-0.000142
 596	5.9203e+01	16.2830	133.342556	0.000355	3.546131	1.201462	-0.000142
 597	5.9302e+01	16.2413	133.221442	0.000304	3.039541	1.029824	-0.000122
 598	5.9401e+01	16.2044	133.051883	0.000426	4.255358	1.441754	-0.000170
 599	5.9501e+01	16.1723	132.918657	0.000334	3.343495	1.132807	-0.000134
 600	5.9600e+01	16.1354	132.769283	0.000375	3.748767	1.270117	-0.000150
 601	5.9700e+01	16.0905	132.619909	0.000375	3.748767	1.270117	-0.000150
 602	5.9800e+01	16.0487	132.470535	0.000375	3.748767	1.270117	-0.000150
 603	5.9899e+01	16.0038	132.341347	0.000324	3.242177	1.098479	-0.000130
 604	5.9998e+01	15.9733	132.204084	0.000344	3.444813	1.167134	-0.000138
 605	6.0098e+01	15.9284	132.038561	0.000415	4.154039	1.407427	-0.000166
 606	6.0197e+01	15.8867	131.917447	0.000304	3.039541	1.029824	-0.000122
 607	6.0297e+01	15.8482	131.743851	0.000436	4.356676	1.476082	-0.000174
 608	6.0397e+01	15.7985	131.606588	0.000344	3.444813	1.167134	-0.000138
 609	6.0496e+01	15.7680	131.461251	0.000365	3.647449	1.235789	-0.000146
 610	6.0596e+01	15.7263	131.291691	0.000426	4.255358	1.441754	-0.000170
 611	6.0695e+01	15.6862	131.126169	0.000415	4.154039	1.407427	-0.000166
 612	6.0794e+01	15.6381	130.988906	0.000344	3.444813	1.167134	-0.000138
 613	6.0894e+01	15.6140	130.863755	0.000314	3.140859	1.064152	-0.000126
 614	6.0993e+01	15.5691	130.722455	0.000355	3.546131	1.201462	-0.000142
 615	6.1093e+01	15.5274	130.536747	0.000466	4.660630	1.579064	-0.000187
 616	6.1193e+01	15.4953	130.383336	0.000385	3.850085	1.304444	-0.000154
 617	6.1292e+01	15.4616	130.278370	0.000263	2.634269	0.892514	-0.000105
 618	6.1392e+01	15.4119	130.116885	0.000405	4.052721	1.373099	-0.000162
 619	6.1491e+01	15.3814	129.947325	0.000426	4.255358	1.441754	-0.000170
 620	6.1590e+01	15.3268	129.757580	0.000476	4.761948	1.613392	-0.000191
 621	6.1690e+01	15.2883	129.636466	0.000304	3.039541	1.029824	-0.000122
 622	6.1789e+01	15.2498	129.495166	0.000355	3.546131	1.201462	-0.000142
 623	6.1889e+01	15.2081	129.325606	0.000426	4.255358	1.441754	-0.000170
 624	6.1989e+01	15.1728	129.200455	0.000314	3.140859	1.064152	-0.000126
 625	6.2088e+01	15.1279	129.038970	0.000405	4.052721	1.373099	-0.000162
 626	6.2188e+01	15.0990	128.869410	0.000426	4.255358	1.441754	-0.000170
 627	6.2287e+01	15.0509	128.720036	0.000375	3.748767	1.270117	-0.000150
 628	6.2386e+01	15.0060	128.562588	0.000395	3.951403	1.338772	-0.000158
 629	6.2486e+01	14.9723	128.397065	0.000415	4.154039	1.407427	-0.000166
 630	6.2586e+01	14.9258	128.263840	0.000334	3.343495	1.132807	-0.000134
 631	6.2685e+01	14.8921	128.114466	0.000375	3.748767	1.270117	-0.000150
 632	6.2785e+01	14.8504	127.920683	0.000486	4.863266	1.647719	-0.000195
 633	6.2884e+01	14.8071	127.767272	0.000385	3.850085	1.304444	-0.000154
 634	6.2983e+01	14.7734	127.634046	0.000334	3.343495	1.132807	-0.000134
 635	6.3083e+01	14.7333	127.456412	0.000446	4.457994	1.510409	-0.000179
 636	6.3182e+01	14.6819	127.307038	0.000375	3.748767	1.270117	-0.000150
 637	6.3282e+01	14.6563	127.161701	0.000365	3.647449	1.235789	-0.000146
 638	6.3382e+01	14.6097	126.975993	0.000466	4.660630	1.579064	-0.000187
 639	6.3481e+01	14.5712	126.830656	0.000365	3.647449	1.235789	-0.000146
 640	6.3581e+01	14.5279	126.689357	0.000355	3.546131	1.201462	-0.000142
 641	6.3680e+01	14.5023	126.527871	0.000405	4.052721	1.373099	-0.000162
 642	6.3779e+01	14.4493	126.378497	0.000375	3.748767	1.270117	-0.000150
 643	6.3879e+01	14.4172	126.221049	0.000395	3.951403	1.338772	-0.000158
 644	6.3978e+01	14.3803	126.055526	0.000415	4.154039	1.407427	-0.000166
 645	6.4078e+01	14.3274	125.881929	0.000436	4.356676	1.476082	-0.000174
 646	6.4177e+01	14.3033	125.732555	0.000375	3.748767	1.270117	-0.000150
 647	6.4277e+01	14.2520	125.546847	0.000466	4.660630	1.579064	-0.000187
 648	6.4376e+01	14.2263	125.433807	0.000284	2.836905	0.961169	-0.000114
 649	6.4476e+01	14.1798	125.244062	0.000476	4.761948	1.613392	-0.000191
 650	6.4576e+01	14.1413	125.070465	0.000436	4.356676	1.476082	-0.000174
 651	6.4675e+01	14.0996	124.949351	0.000304	3.039541	1.029824	-0.000122
 652	6.4775e+01	14.0547	124.783829	0.000415	4.154039	1.407427	-0.000166
 653	6.4874e+01	14.0114	124.618306	0.000415	4.154039	1.407427	-0.000166
 654	6.4974e+01	13.9825	124.432598	0.000466	4.660630	1.579064	-0.000187
 655	6.5073e+01	13.9360	124.263038	0.000426	4.255358	1.441754	-0.000170
 656	6.5172e+01	13.8975	124.113664	0.000375	3.748767	1.270117	-0.000150
 657	6.5272e+01	13.8670	123.931993	0.000456	4.559312	1.544737	-0.000183
 658	6.5371e+01	13.8012	123.786656	0.000365	3.647449	1.235789	-0.000146
 659	6.5471e+01	13.7739	123.661505	0.000314	3.140859	1.064152	-0.000126
 660	6.5570e+01	13.7386	123.467722	0.000486	4.863266	1.647719	-0.000195
 661	6.5670e+01	13.7001	123.286051	0.000456	4.559312	1.544737	-0.000183
 662	6.5769e+01	13.6552	123.132640	0.000385	3.850085	1.304444	-0.000154
 663	6.5869e+01	13.6167	122.971155	0.000405	4.052721	1.373099	-0.000162
 664	6.5969e+01	13.5702	122.785446	0.000466	4.660630	1.579064	-0.000187
 665	6.6068e+01	13.5397	122.640109	0.000365	3.647449	1.235789	-0.000146
 666	6.6168e+01	13.5012	122.458438	0.000456	4.559312	1.544737	-0.000183
 667	6.6267e+01	13.4627	122.288879	0.000426	4.255358	1.441754	-0.000170
 668	6.6367e+01	13.4098	122.139505	0.000375	3.748767	1.270117	-0.000150
 669	6.6466e+01	13.3793	121.969945	0.000426	4.255358	1.441754	-0.000170
 670	6.6566e+01	13.3440	121.804422	0.000415	4.154039	1.407427	-0.000166
 671	6.6665e+01	13.3023	121.630826	0.000436	4.356676	1.476082	-0.000174
 672	6.6764e+01	13.2654	121.485489	0.000365	3.647449	1.235789	-0.000146
 673	6.6864e+01	13.2125	121.283632	0.000507	5.065902	1.716374	-0.000203
 674	6.6963e+01	13.1788	121.142332	0.000355	3.546131	1.201462	-0.000142
 675	6.7063e+01	13.1419	120.996995	0.000365	3.647449	1.235789	-0.000146
 676	6.7162e+01	13.1002	120.770916	0.000567	5.673810	1.922339	-0.000227
 677	6.7262e+01	13.0585	120.613467	0.000395	3.951403	1.338772	-0.000158
 678	6.7362e+01	13.0183	120.460056	0.000385	3.850085	1.304444	-0.000154
 679	6.7461e+01	12.9766	120.306645	0.000385	3.850085	1.304444	-0.000154
 680	6.7561e+01	12.9430	120.137085	0.000426	4.255358	1.441754	-0.000170
 681	6.7660e+01	12.9077	119.959451	0.000446	4.457994	1.510409	-0.000179
 682	6.7760e+01	12.8643	119.797966	0.000405	4.052721	1.373099	-0.000162
 683	6.7859e+01	12.8258	119.596109	0.000507	5.065902	1.716374	-0.000203
 684	6.7959e+01	12.7857	119.418475	0.000446	4.457994	1.510409	-0.000179
 685	6.8058e+01	12.7488	119.261027	0.000395	3.951403	1.338772	-0.000158
 686	6.8157e+01	12.7103	119.063207	0.000496	4.964584	1.682047	-0.000199
 687	6.8257e+01	12.6606	118.913833	0.000375	3.748767	1.270117	-0.000150
 688	6.8356e+01	12.6285	118.744273	0.000426	4.255358	1.441754	-0.000170
 689	6.8456e+01	12.5868	118.566639	0.000446	4.457994	1.510409	-0.000179
 690	6.8555e+01	12.5419	118.340560	0.000567	5.673810	1.922339	-0.000227
 691	6.8655e+01	12.5002	118.211372	0.000324	3.242177	1.098479	-0.000130
 692	6.8754e+01	12.4617	118.057960	0.000385	3.850085	1.304444	-0.000154
 693	6.8854e+01	12.4264	117.872252	0.000466	4.660630	1.579064	-0.000187
 694	6.8954e+01	12.3911	117.706730	0.000415	4.154039	1.407427	-0.000166
 695	6.9053e+01	12.3430	117.504873	0.000507	5.065902	1.716374	-0.000203
 696	6.9153e+01	12.3061	117.319165	0.000466	4.660630	1.579064	-0.000187
 697	6.9252e+01	12.2563	117.165753	0.000385	3.850085	1.304444	-0.000154
 698	6.9352e+01	12.2243	116.984082	0.000456	4.559312	1.544737	-0.000183
 699	6.9451e+01	12.1809	116.782225	0.000507	5.065902	1.716374	-0.000203
 700	6.9550e+01	12.1392	116.608629	0.000436	4.356676	1.476082	-0.000174
 701	6.9650e+01	12.1055	116.447143	0.000405	4.052721	1.373099	-0.000162
 702	6.9749e+01	12.0735	116.249324	0.000496	4.964584	1.682047	-0.000199
 703	6.9849e+01	12.0301	116.108024	0.000355	3.546131	1.201462	-0.000142
 704	6.9948e+01	11.9900	115.894056	0.000537	5.369856	1.819356	-0.000215
 705	7.0048e+01	11.9515	115.712385	0.000456	4.559312	1.544737	-0.000183
 706	7.0147e+01	11.9066	115.558973	0.000385	3.850085	1.304444	-0.000154
 707	7.0247e+01	11.8745	115.409599	0.000375	3.748767	1.270117	-0.000150
 708	7.0347e+01	11.8248	115.203705	0.000517	5.167220	1.750701	-0.000207
 709	7.0446e+01	11.7943	114.993774	0.000527	5.268538	1.785029	-0.000211
 710	7.0546e+01	11.7398	114.820178	0.000436	4.356676	1.476082	-0.000174
 711	7.0645e+01	11.7029	114.662729	0.000395	3.951403	1.338772	-0.000158
 712	7.0745e+01	11.6660	114.468947	0.000486	4.863266	1.647719	-0.000195
 713	7.0844e+01	11.6243	114.311498	0.000395	3.951403	1.338772	-0.000158
 714	7.0944e+01	11.5842	114.077345	0.000588	5.876446	1.990994	-0.000235
 715	7.1043e+01	11.5441	113.944119	0.000334	3.343495	1.132807	-0.000134
 716	7.1142e+01	11.5136	113.754374	0.000476	4.761948	1.613392	-0.000191
 717	7.1242e+01	11.4687	113.576740	0.000446	4.457994	1.510409	-0.000179
 718	7.1341e+01	11.4302	113.382957	0.000486	4.863266	1.647719	-0.000195
 719	7.1441e+01	11.3917	113.233583	0.000375	3.748767	1.270117	-0.000150
 720	7.1540e+01	11.3467	113.035764	0.000496	4.964584	1.682047	-0.000199
 721	7.1640e+01	11.3114	112.870241	0.000415	4.154039	1.407427	-0.000166
 722	7.1740e+01	11.2697	112.656273	0.000537	5.369856	1.819356	-0.000215
 723	7.1839e+01	11.2216	112.494787	0.000405	4.052721	1.373099	-0.000162
 724	7.1939e+01	11.1959	112.296968	0.000496	4.964584	1.682047	-0.000199
 725	7.2038e+01	11.1414	112.151631	0.000365	3.647449	1.235789	-0.000146
 726	7.2138e+01	11.1093	111.953811	0.000496	4.964584	1.682047	-0.000199
 727	7.2237e+01	11.0676	111.751954	0.000507	5.065902	1.716374	-0.000203
 728	7.2337e+01	11.0307	111.574320	0.000446	4.457994	1.510409	-0.000179
 729	7.2436e+01	10.9858	111.376501	0.000496	4.964584	1.682047	-0.000199
 730	7.2535e+01	10.9473	111.206941	0.000426	4.255358	1.441754	-0.000170
 731	7.2635e+01	10.9072	111.021233	0.000466	4.660630	1.579064	-0.000187
 732	7.2734e+01	10.8671	110.799190	0.000557	5.572492	1.888011	-0.000223
 733	7.2834e+01	10.8318	110.625593	0.000436	4.356676	1.476082	-0.000174
 734	7.2933e+01	10.7820	110.468145	0.000395	3.951403	1.338772	-0.000158
 735	7.3033e+01	10.7500	110.290511	0.000446	4.457994	1.510409	-0.000179
 736	7.3132e+01	10.7083	110.056357	0.000588	5.876446	1.990994	-0.000235
 737	7.3232e+01	10.6665	109.894872	0.000405	4.052721	1.373099	-0.000162
 738	7.3332e+01	10.6345	109.688978	0.000517	5.167220	1.750701	-0.000207
 739	7.3431e+01	10.5944	109.539604	0.000375	3.748767	1.270117	-0.000150
 740	7.3531e+01	10.5510	109.321599	0.000547	5.471174	1.853684	-0.000219
 741	7.3630e+01	10.5077	109.148002	0.000436	4.356676	1.476082	-0.000174
 742	7.3730e+01	10.4692	108.966331	0.000456	4.559312	1.544737	-0.000183
 743	7.3829e+01	10.4307	108.740251	0.000567	5.673810	1.922339	-0.000227
 744	7.3928e+01	10.3810	108.558580	0.000456	4.559312	1.544737	-0.000183
 745	7.4028e+01	10.3537	108.340575	0.000547	5.471174	1.853684	-0.000219
 746	7.4127e+01	10.3136	108.203312	0.000344	3.444813	1.167134	-0.000138
 747	7.4227e+01	10.2783	107.973195	0.000578	5.775128	1.956666	-0.000231
 748	7.4326e+01	10.2302	107.779413	0.000486	4.863266	1.647719	-0.000195
 749	7.4426e+01	10.1885	107.609853	0.000426	4.255358	1.441754	-0.000170
 750	7.4525e+01	10.1564	107.403959	0.000517	5.167220	1.750701	-0.000207
 751	7.4625e+01	10.1179	107.218251	0.000466	4.660630	1.579064	-0.000187
 752	7.4725e+01	10.0601	107.028506	0.000476	4.761948	1.613392	-0.000191
 753	7.4824e+01	10.0393	106.834723	0.000486	4.863266	1.647719	-0.000195
 754	7.4924e+01	9.9928	106.644978	0.000476	4.761948	1.613392	-0.000191
 755	7.5023e+01	9.9559	106.495604	0.000375	3.748767	1.270117	-0.000150
 756	7.5123e+01	9.9126	106.265487	0.000578	5.775128	1.956666	-0.000231
 757	7.5222e+01	9.8708	106.079779	0.000466	4.660630	1.579064	-0.000187
 758	7.5322e+01	9.8275	105.873885	0.000517	5.167220	1.750701	-0.000207
 759	7.5421e+01	9.7938	105.708362	0.000415	4.154039	1.407427	-0.000166
 760	7.5520e+01	9.7505	105.530728	0.000446	4.457994	1.510409	-0.000179
 761	7.5620e+01	9.7104	105.284463	0.000618	6.180400	2.093976	-0.000248
 762	7.5719e+01	9.6639	105.082606	0.000507	5.065902	1.716374	-0.000203
 763	7.5819e+01	9.6366	104.925158	0.000395	3.951403	1.338772	-0.000158
 764	7.5918e+01	9.5869	104.715227	0.000527	5.268538	1.785029	-0.000211
 765	7.6018e+01	9.5516	104.521444	0.000486	4.863266	1.647719	-0.000195
 766	7.6118e+01	9.5163	104.347847	0.000436	4.356676	1.476082	-0.000174
 767	7.6217e+01	9.4714	104.125805	0.000557	5.572492	1.888011	-0.000223
 768	7.6317e+01	9.4329	103.948171	0.000446	4.457994	1.510409	-0.000179
 769	7.6416e+01	9.4024	103.798797	0.000375	3.748767	1.270117	-0.000150
 770	7.6516e+01	9.3527	103.596940	0.000507	5.065902	1.716374	-0.000203
 771	7.6615e+01	9.3142	103.378935	0.000547	5.471174	1.853684	-0.000219
 772	7.6715e+01	9.2789	103.181115	0.000496	4.964584	1.682047	-0.000199
 773	7.6814e+01	9.2500	103.007518	0.000436	4.356676	1.476082	-0.000174
 774	7.6913e+01	9.1955	102.793550	0.000537	5.369856	1.819356	-0.000215
 775	7.7013e+01	9.1666	102.595731	0.000496	4.964584	1.682047	-0.000199
 776	7.7112e+01	9.1088	102.414059	0.000456	4.559312	1.544737	-0.000183
 777	7.7212e+01	9.0719	102.200091	0.000537	5.369856	1.819356	-0.000215
 778	7.7311e+01	9.0463	101.994197	0.000517	5.167220	1.750701	-0.000207
 779	7.7411e+01	8.9885	101.804452	0.000476	4.761948	1.613392	-0.000191
 780	7.7510e+01	8.9516	101.651041	0.000385	3.850085	1.304444	-0.000154
 781	7.7610e+01	8.9147	101.404775	0.000618	6.180400	2.093976	-0.000248
 782	7.7710e+01	8.8730	101.206956	0.000496	4.964584	1.682047	-0.000199
 783	7.7809e+01	8.8345	100.997025	0.000527	5.268538	1.785029	-0.000211
 784	7.7909e+01	8.8072	100.811317	0.000466	4.660630	1.579064	-0.000187
 785	7.8008e+01	8.7623	100.609460	0.000507	5.065902	1.716374	-0.000203
 786	7.8108e+01	8.7158	100.439900	0.000426	4.255358	1.441754	-0.000170
 787	7.8207e+01	8.6789	100.221895	0.000547	5.471174	1.853684	-0.000219
 788	7.8306e+01	8.6324	99.975629	0.000618	6.180400	2.093976	-0.000248
 789	7.8406e+01	8.5987	99.789921	0.000466	4.660630	1.579064	-0.000187
 790	7.8505e+01	8.5554	99.624399	0.000415	4.154039	1.407427	-0.000166
 791	7.8605e+01	8.5185	99.402356	0.000557	5.572492	1.888011	-0.000223
 792	7.8704e+01	8.4800	99.220685	0.000456	4.559312	1.544737	-0.000183
 793	7.8804e+01	8.4415	99.039014	0.000456	4.559312	1.544737	-0.000183
 794	7.8903e+01	8.3966	98.788712	0.000628	6.281718	2.128304	-0.000252
 795	7.9003e+01	8.3564	98.582818	0.000517	5.167220	1.750701	-0.000207
 796	7.9103e+01	8.3115	98.393072	0.000476	4.761948	1.613392	-0.000191
 797	7.9202e+01	8.2827	98.175067	0.000547	5.471174	1.853684	-0.000219
 798	7.9302e+01	8.2377	97.965136	0.000527	5.268538	1.785029	-0.000211
 799	7.9401e+01	8.1992	97.751168	0.000537	5.369856	1.819356	-0.000215
 800	7.9501e+01	8.1671	97.541237	0.000527	5.268538	1.785029	-0.000211
 801	7.9600e+01	8.1190	97.327268	0.000537	5.369856	1.819356	-0.000215
 802	7.9700e+01	8.0757	97.149634	0.000446	4.457994	1.510409	-0.000179
 803	7.9799e+01	8.0500	96.935666	0.000537	5.369856	1.819356	-0.000215
 804	7.9898e+01	7.9971	96.721698	0.000537	5.369856	1.819356	-0.000215
 805	7.9998e+01	7.9490	96.531953	0.000476	4.761948	1.613392	-0.000191
 806	8.0097e+01	7.9281	96.289724	0.000608	6.079082	2.059649	-0.000243
 807	8.0197e+01	7.8864	96.112091	0.000446	4.457994	1.510409	-0.000179
 808	8.0296e+01	7.8319	95.877937	0.000588	5.876446	1.990994	-0.000235
 809	8.0396e+01	7.8078	95.688191	0.000476	4.761948	1.613392	-0.000191
 810	8.0496e+01	7.7613	95.478260	0.000527	5.268538	1.785029	-0.000211
 811	8.0595e+01	7.7164	95.292552	0.000466	4.660630	1.579064	-0.000187
 812	8.0695e+01	7.6779	95.013990	0.000699	6.990944	2.368596	-0.000280
 813	8.0794e+01	7.6490	94.872690	0.000355	3.546131	1.201462	-0.000142
 814	8.0894e+01	7.6073	94.630462	0.000608	6.079082	2.059649	-0.000243
 815	8.0993e+01	7.5511	94.412456	0.000547	5.471174	1.853684	-0.000219
 816	8.1093e+01	7.5271	94.218674	0.000486	4.863266	1.647719	-0.000195
 817	8.1192e+01	7.4789	93.980483	0.000598	5.977764	2.025321	-0.000239
 818	8.1291e+01	7.4436	93.790737	0.000476	4.761948	1.613392	-0.000191
 819	8.1391e+01	7.3971	93.556584	0.000588	5.876446	1.990994	-0.000235
 820	8.1490e+01	7.3618	93.338578	0.000547	5.471174	1.853684	-0.000219
 821	8.1590e+01	7.3233	93.104424	0.000588	5.876446	1.990994	-0.000235
 822	8.1689e+01	7.2752	92.914679	0.000476	4.761948	1.613392	-0.000191
 823	8.1789e+01	7.2447	92.692637	0.000557	5.572492	1.888011	-0.000223
 824	8.1888e+01	7.1982	92.490780	0.000507	5.065902	1.716374	-0.000203
 825	8.1988e+01	7.1581	92.280849	0.000527	5.268538	1.785029	-0.000211
 826	8.2088e+01	7.1324	92.054769	0.000567	5.673810	1.922339	-0.000227
 827	8.2187e+01	7.0795	91.804467	0.000628	6.281718	2.128304	-0.000252
 828	8.2287e+01	7.0394	91.638944	0.000415	4.154039	1.407427	-0.000166
 829	8.2386e+01	7.0025	91.408827	0.000578	5.775128	1.956666	-0.000231
 830	8.2486e+01	6.9624	91.158525	0.000628	6.281718	2.128304	-0.000252
 831	8.2585e+01	6.9158	90.980891	0.000446	4.457994	1.510409	-0.000179
 832	8.2684e+01	6.8822	90.746737	0.000588	5.876446	1.990994	-0.000235
 833	8.2784e+01	6.8356	90.536806	0.000527	5.268538	1.785029	-0.000211
 834	8.2883e+01	6.8036	90.278429	0.000648	6.484354	2.196959	-0.000260
 835	8.2983e+01	6.7650	90.080610	0.000496	4.964584	1.682047	-0.000199
 836	8.3082e+01	6.7217	89.886827	0.000486	4.863266	1.647719	-0.000195
 837	8.3182e+01	6.6752	89.608265	0.000699	6.990944	2.368596	-0.000280
 838	8.3281e+01	6.6463	89.454854	0.000385	3.850085	1.304444	-0.000154
 839	8.3381e+01	6.6030	89.220700	0.000588	5.876446	1.990994	-0.000235
 840	8.3481e+01	6.5613	88.978472	0.000608	6.079082	2.059649	-0.000243
 841	8.3580e+01	6.5228	88.752392	0.000567	5.673810	1.922339	-0.000227
 842	8.3680e+01	6.4843	88.542461	0.000527	5.268538	1.785029	-0.000211
 843	8.3779e+01	6.4410	88.316381	0.000567	5.673810	1.922339	-0.000227
 844	8.3879e+01	6.4169	88.098376	0.000547	5.471174	1.853684	-0.000219
 845	8.3978e+01	6.3704	87.860185	0.000598	5.977764	2.025321	-0.000239
 846	8.4078e+01	6.3271	87.650254	0.000527	5.268538	1.785029	-0.000211
 847	8.4177e+01	6.2950	87.391877	0.000648	6.484354	2.196959	-0.000260
 848	8.4276e+01	6.2517	87.198095	0.000486	4.863266	1.647719	-0.000195
 849	8.4376e+01	6.2100	86.939718	0.000648	6.484354	2.196959	-0.000260
 850	8.4475e+01	6.1731	86.733824	0.000517	5.167220	1.750701	-0.000207
 851	8.4575e+01	6.1314	86.507745	0.000567	5.673810	1.922339	-0.000227
 852	8.4674e+01	6.0897	86.289739	0.000547	5.471174	1.853684	-0.000219
 853	8.4774e+01	6.0528	86.047511	0.000608	6.079082	2.059649	-0.000243
 854	8.4874e+01	6.0095	85.785097	0.000659	6.585672	2.231286	-0.000264
 855	8.4973e+01	5.9677	85.559018	0.000567	5.673810	1.922339	-0.000227
 856	8.5073e+01	5.9244	85.320827	0.000598	5.977764	2.025321	-0.000239
 857	8.5172e+01	5.8891	85.094747	0.000567	5.673810	1.922339	-0.000227
 858	8.5272e+01	5.8522	84.856556	0.000598	5.977764	2.025321	-0.000239
 859	8.5371e+01	5.8089	84.590105	0.000669	6.686990	2.265614	-0.000268
 860	8.5471e+01	5.7768	84.396323	0.000486	4.863266	1.647719	-0.000195
 861	8.5570e+01	5.7319	84.133909	0.000659	6.585672	2.231286	-0.000264
 862	8.5669e+01	5.6870	83.948201	0.000466	4.660630	1.579064	-0.000187
 863	8.5769e+01	5.6485	83.697898	0.000628	6.281718	2.128304	-0.000252
 864	8.5868e+01	5.6100	83.383002	0.000790	7.902807	2.677543	-0.000316
 865	8.5968e+01	5.5763	83.181145	0.000507	5.065902	1.716374	-0.000203
 866	8.6067e+01	5.5250	82.963139	0.000547	5.471174	1.853684	-0.000219
 867	8.6167e+01	5.4961	82.724948	0.000598	5.977764	2.025321	-0.000239
 868	8.6266e+01	5.4480	82.462535	0.000659	6.585672	2.231286	-0.000264
 869	8.6366e+01	5.4159	82.264715	0.000496	4.964584	1.682047	-0.000199
 870	8.6466e+01	5.3822	81.982115	0.000709	7.092263	2.402924	-0.000284
 871	8.6565e+01	5.3261	81.772184	0.000527	5.268538	1.785029	-0.000211
 872	8.6665e+01	5.2876	81.542068	0.000578	5.775128	1.956666	-0.000231
 873	8.6764e+01	5.2490	81.295802	0.000618	6.180400	2.093976	-0.000248
 874	8.6864e+01	5.2122	81.033389	0.000659	6.585672	2.231286	-0.000264
 875	8.6963e+01	5.1656	80.795198	0.000598	5.977764	2.025321	-0.000239
 876	8.7063e+01	5.1351	80.561044	0.000588	5.876446	1.990994	-0.000235
 877	8.7162e+01	5.0838	80.302667	0.000648	6.484354	2.196959	-0.000260
 878	8.7261e+01	5.0598	80.096773	0.000517	5.167220	1.750701	-0.000207
 879	8.7361e+01	5.0180	79.850508	0.000618	6.180400	2.093976	-0.000248
 880	8.7460e+01	4.9731	79.596168	0.000638	6.383036	2.162631	-0.000256
 881	8.7560e+01	4.9330	79.341829	0.000638	6.383036	2.162631	-0.000256
 882	8.7659e+01	4.8881	79.115749	0.000567	5.673810	1.922339	-0.000227
 883	8.7759e+01	4.8480	78.873521	0.000608	6.079082	2.059649	-0.000243
 884	8.7859e+01	4.8191	78.619181	0.000638	6.383036	2.162631	-0.000256
 885	8.7958e+01	4.7710	78.380990	0.000598	5.977764	2.025321	-0.000239
 886	8.8058e+01	4.7389	78.110502	0.000679	6.788308	2.299941	-0.000272
 887	8.8157e+01	4.6876	77.876348	0.000588	5.876446	1.990994	-0.000235
 888	8.8257e+01	4.6539	77.622009	0.000638	6.383036	2.162631	-0.000256
 889	8.8356e+01	4.6154	77.351521	0.000679	6.788308	2.299941	-0.000272
 890	8.8456e+01	4.5753	77.173887	0.000446	4.457994	1.510409	-0.000179
 891	8.8555e+01	4.5336	76.895324	0.000699	6.990944	2.368596	-0.000280
 892	8.8654e+01	4.4919	76.628873	0.000669	6.686990	2.265614	-0.000268
 893	8.8754e+01	4.4534	76.394720	0.000588	5.876446	1.990994	-0.000235
 894	8.8853e+01	4.4181	76.168640	0.000567	5.673810	1.922339	-0.000227
 895	8.8953e+01	4.3763	75.910263	0.000648	6.484354	2.196959	-0.000260
 896	8.9052e+01	4.3378	75.587292	0.000811	8.105443	2.746198	-0.000325
 897	8.9152e+01	4.2945	75.381399	0.000517	5.167220	1.750701	-0.000207
 898	8.9251e+01	4.2608	75.143207	0.000598	5.977764	2.025321	-0.000239
 899	8.9351e+01	4.2095	74.860608	0.000709	7.092263	2.402924	-0.000284
 900	8.9451e+01	4.1694	74.594157	0.000669	6.686990	2.265614	-0.000268
 901	8.9550e+01	4.1357	74.376152	0.000547	5.471174	1.853684	-0.000219
 902	8.9650e+01	4.0988	74.069329	0.000770	7.700171	2.608888	-0.000308
 903	8.9749e+01	4.0635	73.871510	0.000496	4.964584	1.682047	-0.000199
 904	8.9849e+01	4.0202	73.601022	0.000679	6.788308	2.299941	-0.000272
 905	8.9948e+01	3.9721	73.338608	0.000659	6.585672	2.231286	-0.000264
 906	9.0047e+01	3.9368	73.068120	0.000679	6.788308	2.299941	-0.000272
 907	9.0147e+01	3.8935	72.817817	0.000628	6.281718	2.128304	-0.000252
 908	9.0246e+01	3.8534	72.527144	0.000729	7.294899	2.471579	-0.000292
 909	9.0346e+01	3.8229	72.345472	0.000456	4.559312	1.544737	-0.000183
 910	9.0445e+01	3.7796	72.066910	0.000699	6.990944	2.368596	-0.000280
 911	9.0545e+01	3.7427	71.816608	0.000628	6.281718	2.128304	-0.000252
 912	9.0644e+01	3.6994	71.505748	0.000780	7.801489	2.643216	-0.000312
 913	9.0744e+01	3.6593	71.227186	0.000699	6.990944	2.368596	-0.000280
 914	9.0844e+01	3.6111	71.013218	0.000537	5.369856	1.819356	-0.000215
 915	9.0943e+01	3.5855	70.722544	0.000729	7.294899	2.471579	-0.000292
 916	9.1043e+01	3.5357	70.488390	0.000588	5.876446	1.990994	-0.000235
 917	9.1142e+01	3.5085	70.242125	0.000618	6.180400	2.093976	-0.000248
 918	9.1242e+01	3.4635	69.907042	0.000841	8.409397	2.849181	-0.000337
 919	9.1341e+01	3.4218	69.664814	0.000608	6.079082	2.059649	-0.000243
 920	9.1441e+01	3.3689	69.398363	0.000669	6.686990	2.265614	-0.000268
 921	9.1540e+01	3.3400	69.123838	0.000689	6.889626	2.334269	-0.000276
 922	9.1639e+01	3.3063	68.877573	0.000618	6.180400	2.093976	-0.000248
 923	9.1739e+01	3.2534	68.611122	0.000669	6.686990	2.265614	-0.000268
 924	9.1838e+01	3.2053	68.348708	0.000659	6.585672	2.231286	-0.000264
 925	9.1938e+01	3.1796	68.058034	0.000729	7.294899	2.471579	-0.000292
 926	9.2037e+01	3.1459	67.779472	0.000699	6.990944	2.368596	-0.000280
 927	9.2137e+01	3.1010	67.525132	0.000638	6.383036	2.162631	-0.000256
 928	9.2237e+01	3.0657	67.270793	0.000638	6.383036	2.162631	-0.000256
 929	9.2336e+01	3.0208	67.004342	0.000669	6.686990	2.265614	-0.000268
 930	9.2436e+01	2.9775	66.737891	0.000669	6.686990	2.265614	-0.000268
 931	9.2535e+01	2.9277	66.475477	0.000659	6.585672	2.231286	-0.000264
 932	9.2635e+01	2.9181	66.132321	0.000861	8.612033	2.917836	-0.000345
 933	9.2734e+01	2.8668	65.910278	0.000557	5.572492	1.888011	-0.000223
 934	9.2834e+01	2.8283	65.664013	0.000618	6.180400	2.093976	-0.000248
 935	9.2933e+01	2.7833	65.341042	0.000811	8.105443	2.746198	-0.000325
 936	9.3032e+01	2.7448	65.066517	0.000689	6.889626	2.334269	-0.000276
 937	9.3132e+01	2.7031	64.816214	0.000628	6.281718	2.128304	-0.000252
 938	9.3231e+01	2.6598	64.541689	0.000689	6.889626	2.334269	-0.000276
 939	9.3331e+01	2.6309	64.287349	0.000638	6.383036	2.162631	-0.000256
 940	9.3430e+01	2.5860	64.016861	0.000679	6.788308	2.299941	-0.000272
 941	9.3530e+01	2.5427	63.730225	0.000719	7.193581	2.437251	-0.000288
 942	9.3629e+01	2.4946	63.435514	0.000740	7.396217	2.505906	-0.000296
 943	9.3729e+01	2.4641	63.144840	0.000729	7.294899	2.471579	-0.000292
 944	9.3829e+01	2.4288	62.898575	0.000618	6.180400	2.093976	-0.000248
 945	9.3928e+01	2.3839	62.603864	0.000740	7.396217	2.505906	-0.000296
 946	9.4028e+01	2.3390	62.341450	0.000659	6.585672	2.231286	-0.000264
 947	9.4127e+01	2.2957	62.046739	0.000740	7.396217	2.505906	-0.000296
 948	9.4227e+01	2.2636	61.772214	0.000689	6.889626	2.334269	-0.000276
 949	9.4326e+01	2.2251	61.513837	0.000648	6.484354	2.196959	-0.000260
 950	9.4425e+01	2.1753	61.202978	0.000780	7.801489	2.643216	-0.000312
 951	9.4525e+01	2.1497	60.940564	0.000659	6.585672	2.231286	-0.000264
 952	9.4624e+01	2.0999	60.605482	0.000841	8.409397	2.849181	-0.000337
 953	9.4724e+01	2.0695	60.379402	0.000567	5.673810	1.922339	-0.000227
 954	9.4823e+01	2.0213	60.068543	0.000780	7.801489	2.643216	-0.000312
 955	9.4923e+01	1.9780	59.794017	0.000689	6.889626	2.334269	-0.000276
 956	9.5022e+01	1.9427	59.479121	0.000790	7.902807	2.677543	-0.000316
 957	9.5122e+01	1.8898	59.228818	0.000628	6.281718	2.128304	-0.000252
 958	9.5222e+01	1.8657	58.930070	0.000750	7.497535	2.540234	-0.000300
 959	9.5321e+01	1.8160	58.619211	0.000780	7.801489	2.643216	-0.000312
 960	9.5421e+01	1.7823	58.340649	0.000699	6.990944	2.368596	-0.000280
 961	9.5520e+01	1.7438	58.078235	0.000659	6.585672	2.231286	-0.000264
 962	9.5620e+01	1.7053	57.751227	0.000821	8.206761	2.780526	-0.000329
 963	9.5719e+01	1.6652	57.464590	0.000719	7.193581	2.437251	-0.000288
 964	9.5819e+01	1.6171	57.161805	0.000760	7.598853	2.574561	-0.000304
 965	9.5918e+01	1.5850	56.875168	0.000719	7.193581	2.437251	-0.000288
 966	9.6017e+01	1.5465	56.596606	0.000699	6.990944	2.368596	-0.000280
 967	9.6117e+01	1.5032	56.281709	0.000790	7.902807	2.677543	-0.000316
 968	9.6216e+01	1.4711	55.986998	0.000740	7.396217	2.505906	-0.000296
 969	9.6316e+01	1.4069	55.696325	0.000729	7.294899	2.471579	-0.000292
 970	9.6415e+01	1.3748	55.389502	0.000770	7.700171	2.608888	-0.000308
 971	9.6515e+01	1.3460	55.147274	0.000608	6.079082	2.059649	-0.000243
 972	9.6615e+01	1.3123	54.816229	0.000831	8.308079	2.814853	-0.000333
 973	9.6714e+01	1.2657	54.501332	0.000790	7.902807	2.677543	-0.000316
 974	9.6814e+01	1.2208	54.206622	0.000740	7.396217	2.505906	-0.000296
 975	9.6913e+01	1.1935	53.899799	0.000770	7.700171	2.608888	-0.000308
 976	9.7013e+01	1.1454	53.613163	0.000719	7.193581	2.437251	-0.000288
 977	9.7112e+01	1.0989	53.306340	0.000770	7.700171	2.608888	-0.000308
 978	9.7212e+01	1.0652	53.019704	0.000719	7.193581	2.437251	-0.000288
 979	9.7311e+01	1.0267	52.720956	0.000750	7.497535	2.540234	-0.000300
 980	9.7410e+01	0.9930	52.426245	0.000740	7.396217	2.505906	-0.000296
 981	9.7510e+01	0.9449	52.115385	0.000780	7.801489	2.643216	-0.000312
 982	9.7609e+01	0.9048	51.808563	0.000770	7.700171	2.608888	-0.000308
 983	9.7709e+01	0.8647	51.509815	0.000750	7.497535	2.540234	-0.000300
 984	9.7808e+01	0.8214	51.202993	0.000770	7.700171	2.608888	-0.000308
 985	9.7908e+01	0.7957	50.884059	0.000800	8.004125	2.711871	-0.000321
 986	9.8007e+01	0.7524	50.553014	0.000831	8.308079	2.814853	-0.000333
 987	9.8107e+01	0.7091	50.270414	0.000709	7.092263	2.402924	-0.000284
 988	9.8207e+01	0.6706	49.959555	0.000780	7.801489	2.643216	-0.000312
 989	9.8306e+01	0.6305	49.632547	0.000821	8.206761	2.780526	-0.000329
 990	9.8406e+01	0.5936	49.345910	0.000719	7.193581	2.437251	-0.000288
 991	9.8505e+01	0.5454	49.051199	0.000740	7.396217	2.505906	-0.000296
 992	9.8605e+01	0.5101	48.752451	0.000750	7.497535	2.540234	-0.000300
 993	9.8704e+01	0.4636	48.445629	0.000770	7.700171	2.608888	-0.000308
 994	9.8803e+01	0.4283	48.102472	0.000861	8.612033	2.917836	-0.000345
 995	9.8903e+01	0.3882	47.811799	0.000729	7.294899	2.471579	-0.000292
 996	9.9002e+01	0.3545	47.513051	0.000750	7.497535	2.540234	-0.000300
 997	9.9102e+01	0.3080	47.157783	0.000892	8.915987	3.020818	-0.000357
 998	9.9201e+01	0.2727	46.903443	0.000638	6.383036	2.162631	-0.000256
 999	9.9301e+01	0.2310	46.588546	0.000790	7.902807	2.677543	-0.000316
1000	9.9400e+01	0.1909	46.221167	0.000922	9.219941	3.123801	-0.000369
1001	9.9500e+01	0.1556	45.926456	0.000740	7.396217	2.505906	-0.000296
1002	9.9600e+01	0.1011	45.607522	0.000800	8.004125	2.711871	-0.000321
1003	9.9699e+01	0.0658	45.284552	0.000811	8.105443	2.746198	-0.000325
1004	9.9799e+01	0.0385	44.985804	0.000750	7.497535	2.540234	-0.000300
1005	9.9898e+01	-0.0016	44.699167	0.000719	7.193581	2.437251	-0.000288
1006	9.9998e+01	-0.0433	44.372159	0.000821	8.206761	2.780526	-0.000329
1007	1.0010e+02	-0.0754	44.065337	0.000770	7.700171	2.608888	-0.000308
1008	1.0020e+02	-0.1171	43.706031	0.000902	9.017305	3.055146	-0.000361
1009	1.0030e+02	-0.1556	43.403246	0.000760	7.598853	2.574561	-0.000304
1010	1.0040e+02	-0.2037	43.132758	0.000679	6.788308	2.299941	-0.000272
1011	1.0050e+02	-0.2471	42.797676	0.000841	8.409397	2.849181	-0.000337
1012	1.0059e+02	-0.2775	42.474705	0.000811	8.105443	2.746198	-0.000325
1013	1.0069e+02	-0.3208	42.175957	0.000750	7.497535	2.540234	-0.000300
1014	1.0079e+02	-0.3561	41.796466	0.000952	9.523895	3.226783	-0.000381
1015	1.0089e+02	-0.4027	41.489644	0.000770	7.700171	2.608888	-0.000308
1016	1.0099e+02	-0.4380	41.166673	0.000811	8.105443	2.746198	-0.000325
1017	1.0109e+02	-0.4765	40.851777	0.000790	7.902807	2.677543	-0.000316
1018	1.0119e+02	-0.5230	40.520731	0.000831	8.308079	2.814853	-0.000333
1019	1.0129e+02	-0.5519	40.205835	0.000790	7.902807	2.677543	-0.000316
1020	1.0139e+02	-0.5984	39.842493	0.000912	9.118623	3.089473	-0.000365
1021	1.0149e+02	-0.6385	39.543745	0.000750	7.497535	2.540234	-0.000300
1022	1.0159e+02	-0.6802	39.196551	0.000871	8.713351	2.952163	-0.000349
1023	1.0169e+02	-0.7235	38.873580	0.000811	8.105443	2.746198	-0.000325
1024	1.0179e+02	-0.7604	38.530423	0.000861	8.612033	2.917836	-0.000345
1025	1.0189e+02	-0.7973	38.219564	0.000780	7.801489	2.643216	-0.000312
1026	1.0199e+02	-0.8406	37.884482	0.000841	8.409397	2.849181	-0.000337
1027	1.0209e+02	-0.8791	37.561511	0.000811	8.105443	2.746198	-0.000325
1028	1.0219e+02	-0.9176	37.186057	0.000942	9.422577	3.192456	-0.000377
1029	1.0229e+02	-0.9625	36.871161	0.000790	7.902807	2.677543	-0.000316
1030	1.0239e+02	-0.9930	36.576450	0.000740	7.396217	2.505906	-0.000296
1031	1.0248e+02	-1.0411	36.229256	0.000871	8.713351	2.952163	-0.000349
1032	1.0258e+02	-1.0796	35.898211	0.000831	8.308079	2.814853	-0.000333
1033	1.0268e+02	-1.1165	35.575240	0.000811	8.105443	2.746198	-0.000325
1034	1.0278e+02	-1.1550	35.252269	0.000811	8.105443	2.746198	-0.000325
1035	1.0288e+02	-1.2016	34.905076	0.000871	8.713351	2.952163	-0.000349
1036	1.0298e+02	-1.2337	34.569993	0.000841	8.409397	2.849181	-0.000337
1037	1.0308e+02	-1.2802	34.251060	0.000800	8.004125	2.711871	-0.000321
1038	1.0318e+02	-1.3155	33.920014	0.000831	8.308079	2.814853	-0.000333
1039	1.0328e+02	-1.3636	33.597044	0.000811	8.105443	2.746198	-0.000325
1040	1.0338e+02	-1.3925	33.241776	0.000892	8.915987	3.020818	-0.000357
1041	1.0348e+02	-1.4342	32.890545	0.000881	8.814669	2.986491	-0.000353
1042	1.0358e+02	-1.4839	32.599871	0.000729	7.294899	2.471579	-0.000292
1043	1.0368e+02	-1.5176	32.260752	0.000851	8.510715	2.883508	-0.000341
1044	1.0378e+02	-1.5545	31.949892	0.000780	7.801489	2.643216	-0.000312
1045	1.0388e+02	-1.5930	31.610773	0.000851	8.510715	2.883508	-0.000341
1046	1.0398e+02	-1.6347	31.255505	0.000892	8.915987	3.020818	-0.000357
1047	1.0408e+02	-1.6780	30.940608	0.000790	7.902807	2.677543	-0.000316
1048	1.0418e+02	-1.7246	30.601489	0.000851	8.510715	2.883508	-0.000341
1049	1.0428e+02	-1.7534	30.274481	0.000821	8.206761	2.780526	-0.000329
1050	1.0438e+02	-1.7967	29.967659	0.000770	7.700171	2.608888	-0.000308
1051	1.0447e+02	-1.8368	29.616428	0.000881	8.814669	2.986491	-0.000353
1052	1.0457e+02	-1.8689	29.289420	0.000821	8.206761	2.780526	-0.000329
1053	1.0467e+02	-1.9203	28.950300	0.000851	8.510715	2.883508	-0.000341
1054	1.0477e+02	-1.9540	28.599070	0.000881	8.814669	2.986491	-0.000353
1055	1.0487e+02	-1.9989	28.300322	0.000750	7.497535	2.540234	-0.000300
1056	1.0497e+02	-2.0294	27.928905	0.000932	9.321259	3.158128	-0.000373
1057	1.0507e+02	-2.0791	27.630157	0.000750	7.497535	2.540234	-0.000300
1058	1.0517e+02	-2.1031	27.270852	0.000902	9.017305	3.055146	-0.000361
1059	1.0527e+02	-2.1545	26.964030	0.000770	7.700171	2.608888	-0.000308
1060	1.0537e+02	-2.1914	26.620873	0.000861	8.612033	2.917836	-0.000345
1061	1.0547e+02	-2.2443	26.305976	0.000790	7.902807	2.677543	-0.000316
1062	1.0557e+02	-2.2668	25.995117	0.000780	7.801489	2.643216	-0.000312
1063	1.0567e+02	-2.3165	25.660035	0.000841	8.409397	2.849181	-0.000337
1064	1.0577e+02	-2.3390	25.337064	0.000811	8.105443	2.746198	-0.000325
1065	1.0587e+02	-2.3983	25.014093	0.000811	8.105443	2.746198	-0.000325
1066	1.0597e+02	-2.4336	24.687085	0.000821	8.206761	2.780526	-0.000329
1067	1.0607e+02	-2.4657	24.356040	0.000831	8.308079	2.814853	-0.000333
1068	1.0617e+02	-2.5235	24.016921	0.000851	8.510715	2.883508	-0.000341
1069	1.0627e+02	-2.5588	23.702024	0.000790	7.902807	2.677543	-0.000316
1070	1.0637e+02	-2.5989	23.326570	0.000942	9.422577	3.192456	-0.000377
1071	1.0647e+02	-2.6261	23.076268	0.000628	6.281718	2.128304	-0.000252
1072	1.0656e+02	-2.6662	22.721000	0.000892	8.915987	3.020818	-0.000357
1073	1.0666e+02	-2.7112	22.410140	0.000780	7.801489	2.643216	-0.000312
1074	1.0676e+02	-2.7497	22.042761	0.000922	9.219941	3.123801	-0.000369
1075	1.0686e+02	-2.7946	21.748050	0.000740	7.396217	2.505906	-0.000296
1076	1.0696e+02	-2.8283	21.412968	0.000841	8.409397	2.849181	-0.000337
1077	1.0706e+02	-2.8748	21.114220	0.000750	7.497535	2.540234	-0.000300
1078	1.0716e+02	-2.9133	20.775101	0.000851	8.510715	2.883508	-0.000341
1079	1.0726e+02	-2.9598	20.427907	0.000871	8.713351	2.952163	-0.000349
1080	1.0736e+02	-2.9919	20.141270	0.000719	7.193581	2.437251	-0.000288
1081	1.0746e+02	-3.0272	19.834448	0.000770	7.700171	2.608888	-0.000308
1082	1.0756e+02	-3.0785	19.495328	0.000851	8.510715	2.883508	-0.000341
1083	1.0766e+02	-3.1202	19.164283	0.000831	8.308079	2.814853	-0.000333
1084	1.0776e+02	-3.1555	18.873610	0.000729	7.294899	2.471579	-0.000292
1085	1.0786e+02	-3.1828	18.550639	0.000811	8.105443	2.746198	-0.000325
1086	1.0796e+02	-3.2341	18.231705	0.000800	8.004125	2.711871	-0.000321
1087	1.0806e+02	-3.2807	17.912771	0.000800	8.004125	2.711871	-0.000321
1088	1.0816e+02	-3.3159	17.581726	0.000831	8.308079	2.814853	-0.000333
1089	1.0826e+02	-3.3464	17.291052	0.000729	7.294899	2.471579	-0.000292
1090	1.0836e+02	-3.3946	16.976156	0.000790	7.902807	2.677543	-0.000316
1091	1.0845e+02	-3.4315	16.681445	0.000740	7.396217	2.505906	-0.000296
1092	1.0855e+02	-3.4716	16.354437	0.000821	8.206761	2.780526	-0.000329
1093	1.0865e+02	-3.5133	16.059726	0.000740	7.396217	2.505906	-0.000296
1094	1.0875e+02	-3.5502	15.756941	0.000760	7.598853	2.574561	-0.000304
1095	1.0885e+02	-3.5999	15.450118	0.000770	7.700171	2.608888	-0.000308
1096	1.0895e+02	-3.6288	15.131185	0.000800	8.004125	2.711871	-0.000321
1097	1.0905e+02	-3.6673	14.816288	0.000790	7.902807	2.677543	-0.000316
1098	1.0915e+02	-3.7106	14.505429	0.000780	7.801489	2.643216	-0.000312
1099	1.0925e+02	-3.7475	14.234941	0.000679	6.788308	2.299941	-0.000272
1100	1.0935e+02	-3.7860	13.907933	0.000821	8.206761	2.780526	-0.000329
1101	1.0945e+02	-3.8341	13.584962	0.000811	8.105443	2.746198	-0.000325
1102	1.0955e+02	-3.8614	13.334659	0.000628	6.281718	2.128304	-0.000252
1103	1.0965e+02	-3.9015	12.999577	0.000841	8.409397	2.849181	-0.000337
1104	1.0975e+02	-3.9512	12.708903	0.000729	7.294899	2.471579	-0.000292
1105	1.0985e+02	-3.9865	12.450527	0.000648	6.484354	2.196959	-0.000260
1106	1.0995e+02	-4.0298	12.115444	0.000841	8.409397	2.849181	-0.000337
1107	1.1005e+02	-4.0699	11.804585	0.000780	7.801489	2.643216	-0.000312
1108	1.1015e+02	-4.1165	11.505837	0.000750	7.497535	2.540234	-0.000300
1109	1.1025e+02	-4.1469	11.211126	0.000740	7.396217	2.505906	-0.000296
1110	1.1035e+02	-4.1919	10.884118	0.000821	8.206761	2.780526	-0.000329
1111	1.1044e+02	-4.2191	10.649964	0.000588	5.876446	1.990994	-0.000235
1112	1.1054e+02	-4.2673	10.355253	0.000740	7.396217	2.505906	-0.000296
1113	1.1064e+02	-4.3074	10.036319	0.000800	8.004125	2.711871	-0.000321
1114	1.1074e+02	-4.3443	9.697200	0.000851	8.510715	2.883508	-0.000341
1115	1.1084e+02	-4.3940	9.438823	0.000648	6.484354	2.196959	-0.000260
1116	1.1094e+02	-4.4277	9.160261	0.000699	6.990944	2.368596	-0.000280
1117	1.1104e+02	-4.4678	8.833253	0.000821	8.206761	2.780526	-0.000329
1118	1.1114e+02	-4.5079	8.574876	0.000648	6.484354	2.196959	-0.000260
1119	1.1124e+02	-4.5320	8.259980	0.000790	7.902807	2.677543	-0.000316
1120	1.1134e+02	-4.5817	7.973343	0.000719	7.193581	2.437251	-0.000288
1121	1.1144e+02	-4.6410	7.714966	0.000648	6.484354	2.196959	-0.000260
1122	1.1154e+02	-4.6651	7.412181	0.000760	7.598853	2.574561	-0.000304
1123	1.1164e+02	-4.7068	7.097285	0.000790	7.902807	2.677543	-0.000316
1124	1.1174e+02	-4.7453	6.846982	0.000628	6.281718	2.128304	-0.000252
1125	1.1184e+02	-4.7854	6.540160	0.000770	7.700171	2.608888	-0.000308
1126	1.1194e+02	-4.8287	6.249486	0.000729	7.294899	2.471579	-0.000292
1127	1.1204e+02	-4.8672	5.974961	0.000689	6.889626	2.334269	-0.000276
1128	1.1214e+02	-4.8993	5.708510	0.000669	6.686990	2.265614	-0.000268
1129	1.1224e+02	-4.9426	5.397650	0.000780	7.801489	2.643216	-0.000312
1130	1.1234e+02	-4.9876	5.147348	0.000628	6.281718	2.128304	-0.000252
1131	1.1244e+02	-5.0325	4.788043	0.000902	9.017305	3.055146	-0.000361
1132	1.1253e+02	-5.0614	4.521592	0.000669	6.686990	2.265614	-0.000268
1133	1.1263e+02	-5.1143	4.255141	0.000669	6.686990	2.265614	-0.000268
1134	1.1273e+02	-5.1560	4.020987	0.000588	5.876446	1.990994	-0.000235
1135	1.1283e+02	-5.1961	3.698016	0.000811	8.105443	2.746198	-0.000325
1136	1.1293e+02	-5.2266	3.399268	0.000750	7.497535	2.540234	-0.000300
1137	1.1303e+02	-5.2715	3.116669	0.000709	7.092263	2.402924	-0.000284
1138	1.1313e+02	-5.2908	2.834069	0.000709	7.092263	2.402924	-0.000284
1139	1.1323e+02	-5.3405	2.539358	0.000740	7.396217	2.505906	-0.000296
1140	1.1333e+02	-5.3758	2.313279	0.000567	5.673810	1.922339	-0.000227
1141	1.1343e+02	-5.4175	2.006456	0.000770	7.700171	2.608888	-0.000308
1142	1.1353e+02	-5.4672	1.727894	0.000699	6.990944	2.368596	-0.000280
1143	1.1363e+02	-5.5025	1.477592	0.000628	6.281718	2.128304	-0.000252
1144	1.1373e+02	-5.5458	1.203066	0.000689	6.889626	2.334269	-0.000276
1145	1.1383e+02	-5.5795	0.896244	0.000770	7.700171	2.608888	-0.000308
1146	1.1393e+02	-5.6164	0.637867	0.000648	6.484354	2.196959	-0.000260
1147	1.1403e+02	-5.6565	0.347194	0.000729	7.294899	2.471579	-0.000292
1148	1.1413e+02	-5.7063	0.121114	0.000567	5.673810	1.922339	-0.000227
1149	1.1423e+02	-5.7464	-0.177634	0.000750	7.497535	2.540234	-0.000300
1150	1.1433e+02	-5.7881	-0.460233	0.000709	7.092263	2.402924	-0.000284
1151	1.1442e+02	-5.8186	-0.714573	0.000638	6.383036	2.162631	-0.000256
1152	1.1452e+02	-5.8619	-1.005247	0.000729	7.294899	2.471579	-0.000292
1153	1.1462e+02	-5.9004	-1.239401	0.000588	5.876446	1.990994	-0.000235
1154	1.1472e+02	-5.9405	-1.538149	0.000750	7.497535	2.540234	-0.000300
1155	1.1482e+02	-5.9854	-1.768265	0.000578	5.775128	1.956666	-0.000231
1156	1.1492e+02	-6.0271	-2.046828	0.000699	6.990944	2.368596	-0.000280
1157	1.1502e+02	-6.0592	-2.305205	0.000648	6.484354	2.196959	-0.000260
1158	1.1512e+02	-6.1009	-2.628175	0.000811	8.105443	2.746198	-0.000325
1159	1.1522e+02	-6.1378	-2.838106	0.000527	5.268538	1.785029	-0.000211
1160	1.1532e+02	-6.1827	-3.116669	0.000699	6.990944	2.368596	-0.000280
1161	1.1542e+02	-6.2196	-3.379083	0.000659	6.585672	2.231286	-0.000264
1162	1.1552e+02	-6.2742	-3.641496	0.000659	6.585672	2.231286	-0.000264
1163	1.1562e+02	-6.2998	-3.916022	0.000689	6.889626	2.334269	-0.000276
1164	1.1572e+02	-6.3415	-4.194584	0.000699	6.990944	2.368596	-0.000280
1165	1.1582e+02	-6.3832	-4.436812	0.000608	6.079082	2.059649	-0.000243
1166	1.1592e+02	-6.4266	-4.670966	0.000588	5.876446	1.990994	-0.000235
1167	1.1602e+02	-6.4554	-4.937417	0.000669	6.686990	2.265614	-0.000268
1168	1.1612e+02	-6.4971	-5.175608	0.000598	5.977764	2.025321	-0.000239
1169	1.1622e+02	-6.5260	-5.425910	0.000628	6.281718	2.128304	-0.000252
1170	1.1632e+02	-6.5725	-5.752918	0.000821	8.206761	2.780526	-0.000329
1171	1.1642e+02	-6.6094	-5.946701	0.000486	4.863266	1.647719	-0.000195
1172	1.1651e+02	-6.6511	-6.213152	0.000669	6.686990	2.265614	-0.000268
1173	1.1661e+02	-6.6945	-6.455380	0.000608	6.079082	2.059649	-0.000243
1174	1.1671e+02	-6.7346	-6.742017	0.000719	7.193581	2.437251	-0.000288
1175	1.1681e+02	-6.7747	-6.976171	0.000588	5.876446	1.990994	-0.000235
1176	1.1691e+02	-6.8100	-7.266844	0.000729	7.294899	2.471579	-0.000292
1177	1.1701e+02	-6.8549	-7.525221	0.000648	6.484354	2.196959	-0.000260
1178	1.1711e+02	-6.8950	-7.779561	0.000638	6.383036	2.162631	-0.000256
1179	1.1721e+02	-6.9271	-8.021789	0.000608	6.079082	2.059649	-0.000243
1180	1.1731e+02	-6.9720	-8.247868	0.000567	5.673810	1.922339	-0.000227
1181	1.1741e+02	-7.0121	-8.534505	0.000719	7.193581	2.437251	-0.000288
1182	1.1751e+02	-7.0474	-8.784807	0.000628	6.281718	2.128304	-0.000252
1183	1.1761e+02	-7.0939	-9.047221	0.000659	6.585672	2.231286	-0.000264
1184	1.1771e+02	-7.1324	-9.289449	0.000608	6.079082	2.059649	-0.000243
1185	1.1781e+02	-7.1757	-9.547826	0.000648	6.484354	2.196959	-0.000260
1186	1.1791e+02	-7.2142	-9.802166	0.000638	6.383036	2.162631	-0.000256
1187	1.1801e+02	-7.2527	-10.048431	0.000618	6.180400	2.093976	-0.000248
1188	1.1811e+02	-7.2928	-10.302770	0.000638	6.383036	2.162631	-0.000256
1189	1.1821e+02	-7.3362	-10.593444	0.000729	7.294899	2.471579	-0.000292
1190	1.1831e+02	-7.3666	-10.779152	0.000466	4.660630	1.579064	-0.000187
1191	1.1841e+02	-7.4067	-11.037529	0.000648	6.484354	2.196959	-0.000260
1192	1.1850e+02	-7.4517	-11.303980	0.000669	6.686990	2.265614	-0.000268
1193	1.1860e+02	-7.4902	-11.546208	0.000608	6.079082	2.059649	-0.000243
1194	1.1870e+02	-7.5303	-11.792473	0.000618	6.180400	2.093976	-0.000248
1195	1.1880e+02	-7.5688	-12.062962	0.000679	6.788308	2.299941	-0.000272
1196	1.1890e+02	-7.6073	-12.297115	0.000588	5.876446	1.990994	-0.000235
1197	1.1900e+02	-7.6554	-12.555492	0.000648	6.484354	2.196959	-0.000260
1198	1.1910e+02	-7.6795	-12.809832	0.000638	6.383036	2.162631	-0.000256
1199	1.1920e+02	-7.7260	-13.015726	0.000517	5.167220	1.750701	-0.000207
1200	1.1930e+02	-7.7661	-13.282177	0.000669	6.686990	2.265614	-0.000268
1201	1.1940e+02	-7.7982	-13.568813	0.000719	7.193581	2.437251	-0.000288
1202	1.1950e+02	-7.8479	-13.766633	0.000496	4.964584	1.682047	-0.000199
1203	1.1960e+02	-7.8944	-14.085567	0.000800	8.004125	2.711871	-0.000321
1204	1.1970e+02	-7.9297	-14.243015	0.000395	3.951403	1.338772	-0.000158
1205	1.1980e+02	-7.9778	-14.529652	0.000719	7.193581	2.437251	-0.000288
1206	1.1990e+02	-8.0051	-14.739583	0.000527	5.268538	1.785029	-0.000211
1207	1.2000e+02	-8.0532	-15.034293	0.000740	7.396217	2.505906	-0.000296
1208	1.2010e+02	-8.0901	-15.236150	0.000507	5.065902	1.716374	-0.000203
1209	1.2020e+02	-8.1303	-15.470304	0.000588	5.876446	1.990994	-0.000235
1210	1.2030e+02	-8.1688	-15.736755	0.000669	6.686990	2.265614	-0.000268
1211	1.2039e+02	-8.2105	-15.946686	0.000527	5.268538	1.785029	-0.000211
1212	1.2049e+02	-8.2425	-16.196989	0.000628	6.281718	2.128304	-0.000252
1213	1.2059e+02	-8.2859	-16.402883	0.000517	5.167220	1.750701	-0.000207
1214	1.2069e+02	-8.3340	-16.649148	0.000618	6.180400	2.093976	-0.000248
1215	1.2079e+02	-8.3741	-16.887339	0.000598	5.977764	2.025321	-0.000239
1216	1.2089e+02	-8.4062	-17.161864	0.000689	6.889626	2.334269	-0.000276
1217	1.2099e+02	-8.4527	-17.319312	0.000395	3.951403	1.338772	-0.000158
1218	1.2109e+02	-8.4912	-17.593838	0.000689	6.889626	2.334269	-0.000276
1219	1.2119e+02	-8.5233	-17.844140	0.000628	6.281718	2.128304	-0.000252
1220	1.2129e+02	-8.5762	-18.045997	0.000507	5.065902	1.716374	-0.000203
1221	1.2139e+02	-8.6051	-18.296299	0.000628	6.281718	2.128304	-0.000252
1222	1.2149e+02	-8.6452	-18.554676	0.000648	6.484354	2.196959	-0.000260
1223	1.2159e+02	-8.6885	-18.772681	0.000547	5.471174	1.853684	-0.000219
1224	1.2169e+02	-8.7318	-18.978575	0.000517	5.167220	1.750701	-0.000207
1225	1.2179e+02	-8.7671	-19.257137	0.000699	6.990944	2.368596	-0.000280
1226	1.2189e+02	-8.8137	-19.442846	0.000466	4.660630	1.579064	-0.000187
1227	1.2199e+02	-8.8473	-19.672962	0.000578	5.775128	1.956666	-0.000231
1228	1.2209e+02	-8.8923	-19.955562	0.000709	7.092263	2.402924	-0.000284
1229	1.2219e+02	-8.9388	-20.153382	0.000496	4.964584	1.682047	-0.000199
1230	1.2229e+02	-8.9661	-20.343127	0.000476	4.761948	1.613392	-0.000191
1231	1.2239e+02	-9.0046	-20.629764	0.000719	7.193581	2.437251	-0.000288
1232	1.2248e+02	-9.0399	-20.835658	0.000517	5.167220	1.750701	-0.000207
1233	1.2258e+02	-9.0832	-21.081923	0.000618	6.180400	2.093976	-0.000248
1234	1.2268e+02	-9.1249	-21.283780	0.000507	5.065902	1.716374	-0.000203
1235	1.2278e+02	-9.1634	-21.517933	0.000588	5.876446	1.990994	-0.000235
1236	1.2288e+02	-9.2083	-21.768236	0.000628	6.281718	2.128304	-0.000252
1237	1.2298e+02	-9.2548	-21.998353	0.000578	5.775128	1.956666	-0.000231
1238	1.2308e+02	-9.2805	-22.236544	0.000598	5.977764	2.025321	-0.000239
1239	1.2318e+02	-9.3238	-22.450512	0.000537	5.369856	1.819356	-0.000215
1240	1.2328e+02	-9.3687	-22.668517	0.000547	5.471174	1.853684	-0.000219
1241	1.2338e+02	-9.4104	-22.918820	0.000628	6.281718	2.128304	-0.000252
1242	1.2348e+02	-9.4377	-23.100491	0.000456	4.559312	1.544737	-0.000183
1243	1.2358e+02	-9.4810	-23.387127	0.000719	7.193581	2.437251	-0.000288
1244	1.2368e+02	-9.5324	-23.605133	0.000547	5.471174	1.853684	-0.000219
1245	1.2378e+02	-9.5676	-23.811027	0.000517	5.167220	1.750701	-0.000207
1246	1.2388e+02	-9.6078	-24.065366	0.000638	6.383036	2.162631	-0.000256
1247	1.2398e+02	-9.6446	-24.247037	0.000456	4.559312	1.544737	-0.000183
1248	1.2408e+02	-9.6831	-24.497340	0.000628	6.281718	2.128304	-0.000252
1249	1.2418e+02	-9.7200	-24.707271	0.000527	5.268538	1.785029	-0.000211
1250	1.2428e+02	-9.7602	-24.933350	0.000567	5.673810	1.922339	-0.000227
1251	1.2438e+02	-9.8051	-25.203838	0.000679	6.788308	2.299941	-0.000272
1252	1.2447e+02	-9.8372	-25.369361	0.000415	4.154039	1.407427	-0.000166
1253	1.2457e+02	-9.8853	-25.603515	0.000588	5.876446	1.990994	-0.000235
1254	1.2467e+02	-9.9222	-25.821520	0.000547	5.471174	1.853684	-0.000219
1255	1.2477e+02	-9.9591	-26.120268	0.000750	7.497535	2.540234	-0.000300
1256	1.2487e+02	-10.0072	-26.277717	0.000395	3.951403	1.338772	-0.000158
1257	1.2497e+02	-10.0473	-26.536093	0.000648	6.484354	2.196959	-0.000260
1258	1.2507e+02	-10.0746	-26.746024	0.000527	5.268538	1.785029	-0.000211
1259	1.2517e+02	-10.1163	-26.959992	0.000537	5.369856	1.819356	-0.000215
1260	1.2527e+02	-10.1580	-27.177998	0.000547	5.471174	1.853684	-0.000219
1261	1.2537e+02	-10.1997	-27.400040	0.000557	5.572492	1.888011	-0.000223
1262	1.2547e+02	-10.2366	-27.626120	0.000567	5.673810	1.922339	-0.000227
1263	1.2557e+02	-10.2815	-27.823940	0.000496	4.964584	1.682047	-0.000199
1264	1.2567e+02	-10.3248	-28.126725	0.000760	7.598853	2.574561	-0.000304
1265	1.2577e+02	-10.3617	-28.263987	0.000344	3.444813	1.167134	-0.000138
1266	1.2587e+02	-10.4002	-28.554661	0.000729	7.294899	2.471579	-0.000292
1267	1.2597e+02	-10.4468	-28.744406	0.000476	4.761948	1.613392	-0.000191
1268	1.2607e+02	-10.4869	-28.946263	0.000507	5.065902	1.716374	-0.000203
1269	1.2617e+02	-10.5238	-29.200603	0.000638	6.383036	2.162631	-0.000256
1270	1.2627e+02	-10.5591	-29.430720	0.000578	5.775128	1.956666	-0.000231
1271	1.2636e+02	-10.6040	-29.592205	0.000405	4.052721	1.373099	-0.000162
1272	1.2646e+02	-10.6393	-29.846545	0.000638	6.383036	2.162631	-0.000256
1273	1.2656e+02	-10.6890	-30.068587	0.000557	5.572492	1.888011	-0.000223
1274	1.2666e+02	-10.7275	-30.278518	0.000527	5.268538	1.785029	-0.000211
1275	1.2676e+02	-10.7580	-30.484412	0.000517	5.167220	1.750701	-0.000207
1276	1.2686e+02	-10.7949	-30.754900	0.000679	6.788308	2.299941	-0.000272
1277	1.2696e+02	-10.8446	-30.952720	0.000496	4.964584	1.682047	-0.000199
1278	1.2706e+02	-10.8863	-31.186874	0.000588	5.876446	1.990994	-0.000235
1279	1.2716e+02	-10.9200	-31.392767	0.000517	5.167220	1.750701	-0.000207
1280	1.2726e+02	-10.9553	-31.574439	0.000456	4.559312	1.544737	-0.000183
1281	1.2736e+02	-11.0018	-31.861075	0.000719	7.193581	2.437251	-0.000288
1282	1.2746e+02	-11.0387	-32.099266	0.000598	5.977764	2.025321	-0.000239
1283	1.2756e+02	-11.0724	-32.297086	0.000496	4.964584	1.682047	-0.000199
1284	1.2766e+02	-11.1077	-32.527203	0.000578	5.775128	1.956666	-0.000231
1285	1.2776e+02	-11.1623	-32.753282	0.000567	5.673810	1.922339	-0.000227
1286	1.2786e+02	-11.2024	-33.011659	0.000648	6.484354	2.196959	-0.000260
1287	1.2796e+02	-11.2441	-33.201404	0.000476	4.761948	1.613392	-0.000191
1288	1.2806e+02	-11.2826	-33.395187	0.000486	4.863266	1.647719	-0.000195
1289	1.2816e+02	-11.3323	-33.657601	0.000659	6.585672	2.231286	-0.000264
1290	1.2826e+02	-11.3532	-33.839272	0.000456	4.559312	1.544737	-0.000183
1291	1.2835e+02	-11.4013	-34.133983	0.000740	7.396217	2.505906	-0.000296
1292	1.2845e+02	-11.4334	-34.343914	0.000527	5.268538	1.785029	-0.000211
1293	1.2855e+02	-11.4767	-34.561919	0.000547	5.471174	1.853684	-0.000219
1294	1.2865e+02	-11.5200	-34.800110	0.000598	5.977764	2.025321	-0.000239
1295	1.2875e+02	-11.5569	-35.010041	0.000527	5.268538	1.785029	-0.000211
1296	1.2885e+02	-11.6050	-35.219972	0.000527	5.268538	1.785029	-0.000211
1297	1.2895e+02	-11.6371	-35.490460	0.000679	6.788308	2.299941	-0.000272
1298	1.2905e+02	-11.6756	-35.720577	0.000578	5.775128	1.956666	-0.000231
1299	1.2915e+02	-11.7141	-35.930508	0.000527	5.268538	1.785029	-0.000211
1300	1.2925e+02	-11.7494	-36.192922	0.000659	6.585672	2.231286	-0.000264
1301	1.2935e+02	-11.7943	-36.390742	0.000496	4.964584	1.682047	-0.000199
1302	1.2945e+02	-11.8408	-36.669304	0.000699	6.990944	2.368596	-0.000280
1303	1.2955e+02	-11.8713	-36.846938	0.000446	4.457994	1.510409	-0.000179
1304	1.2965e+02	-11.9275	-37.101277	0.000638	6.383036	2.162631	-0.000256
1305	1.2975e+02	-11.9580	-37.343506	0.000608	6.079082	2.059649	-0.000243
1306	1.2985e+02	-12.0013	-37.593808	0.000628	6.281718	2.128304	-0.000252
1307	1.2995e+02	-12.0430	-37.803739	0.000527	5.268538	1.785029	-0.000211
1308	1.3005e+02	-12.0735	-38.041930	0.000598	5.977764	2.025321	-0.000239
1309	1.3015e+02	-12.1232	-38.288195	0.000618	6.180400	2.093976	-0.000248
1310	1.3025e+02	-12.1424	-38.518312	0.000578	5.775128	1.956666	-0.000231
1311	1.3034e+02	-12.2082	-38.796874	0.000699	6.990944	2.368596	-0.000280
1312	1.3044e+02	-12.2339	-38.998731	0.000507	5.065902	1.716374	-0.000203
1313	1.3054e+02	-12.2692	-39.257108	0.000648	6.484354	2.196959	-0.000260
1314	1.3064e+02	-12.3173	-39.487225	0.000578	5.775128	1.956666	-0.000231
1315	1.3074e+02	-12.3478	-39.761750	0.000689	6.889626	2.334269	-0.000276
1316	1.3084e+02	-12.3911	-40.020127	0.000648	6.484354	2.196959	-0.000260
1317	1.3094e+02	-12.4360	-40.246206	0.000567	5.673810	1.922339	-0.000227
1318	1.3104e+02	-12.4681	-40.472286	0.000567	5.673810	1.922339	-0.000227
1319	1.3114e+02	-12.5098	-40.746811	0.000689	6.889626	2.334269	-0.000276
1320	1.3124e+02	-12.5515	-40.952705	0.000517	5.167220	1.750701	-0.000207
1321	1.3134e+02	-12.5932	-41.198970	0.000618	6.180400	2.093976	-0.000248
1322	1.3144e+02	-12.6285	-41.469458	0.000679	6.788308	2.299941	-0.000272
1323	1.3154e+02	-12.6766	-41.748021	0.000699	6.990944	2.368596	-0.000280
1324	1.3164e+02	-12.7119	-41.961989	0.000537	5.369856	1.819356	-0.000215
1325	1.3174e+02	-12.7488	-42.224403	0.000659	6.585672	2.231286	-0.000264
1326	1.3184e+02	-12.7970	-42.458557	0.000588	5.876446	1.990994	-0.000235
1327	1.3194e+02	-12.8290	-42.688673	0.000578	5.775128	1.956666	-0.000231
1328	1.3204e+02	-12.8676	-42.991458	0.000760	7.598853	2.574561	-0.000304
1329	1.3214e+02	-12.9077	-43.270021	0.000699	6.990944	2.368596	-0.000280
1330	1.3224e+02	-12.9462	-43.479952	0.000527	5.268538	1.785029	-0.000211
1331	1.3234e+02	-12.9943	-43.742366	0.000659	6.585672	2.231286	-0.000264
1332	1.3243e+02	-13.0312	-44.000742	0.000648	6.484354	2.196959	-0.000260
1333	1.3253e+02	-13.0729	-44.263156	0.000659	6.585672	2.231286	-0.000264
1334	1.3263e+02	-13.1066	-44.497310	0.000588	5.876446	1.990994	-0.000235
1335	1.3273e+02	-13.1451	-44.804132	0.000770	7.700171	2.608888	-0.000308
1336	1.3283e+02	-13.1884	-45.010026	0.000517	5.167220	1.750701	-0.000207
1337	1.3293e+02	-13.2333	-45.312812	0.000760	7.598853	2.574561	-0.000304
1338	1.3303e+02	-13.2734	-45.603485	0.000729	7.294899	2.471579	-0.000292
1339	1.3313e+02	-13.3135	-45.857825	0.000638	6.383036	2.162631	-0.000256
1340	1.3323e+02	-13.3488	-46.124276	0.000669	6.686990	2.265614	-0.000268
1341	1.3333e+02	-13.3969	-46.414950	0.000729	7.294899	2.471579	-0.000292
1342	1.3343e+02	-13.4210	-46.693512	0.000699	6.990944	2.368596	-0.000280
1343	1.3353e+02	-13.4707	-46.972074	0.000699	6.990944	2.368596	-0.000280
1344	1.3363e+02	-13.5076	-47.169894	0.000496	4.964584	1.682047	-0.000199
1345	1.3373e+02	-13.5542	-47.513051	0.000861	8.612033	2.917836	-0.000345
1346	1.3383e+02	-13.5862	-47.791613	0.000699	6.990944	2.368596	-0.000280
1347	1.3393e+02	-13.6312	-48.049990	0.000648	6.484354	2.196959	-0.000260
1348	1.3403e+02	-13.6681	-48.356812	0.000770	7.700171	2.608888	-0.000308
1349	1.3413e+02	-13.7034	-48.647486	0.000729	7.294899	2.471579	-0.000292
1350	1.3423e+02	-13.7419	-48.901825	0.000638	6.383036	2.162631	-0.000256
1351	1.3432e+02	-13.7900	-49.192499	0.000729	7.294899	2.471579	-0.000292
1352	1.3442e+02	-13.8269	-49.503358	0.000780	7.801489	2.643216	-0.000312
1353	1.3452e+02	-13.8718	-49.789995	0.000719	7.193581	2.437251	-0.000288
1354	1.3462e+02	-13.8991	-50.052409	0.000659	6.585672	2.231286	-0.000264
1355	1.3472e+02	-13.9536	-50.359231	0.000770	7.700171	2.608888	-0.000308
1356	1.3482e+02	-13.9841	-50.674128	0.000790	7.902807	2.677543	-0.000316
1357	1.3492e+02	-14.0354	-50.956727	0.000709	7.092263	2.402924	-0.000284
1358	1.3502e+02	-14.0595	-51.275661	0.000800	8.004125	2.711871	-0.000321
1359	1.3512e+02	-14.0996	-51.578446	0.000760	7.598853	2.574561	-0.000304
1360	1.3522e+02	-14.1493	-51.885269	0.000770	7.700171	2.608888	-0.000308
1361	1.3532e+02	-14.1878	-52.216314	0.000831	8.308079	2.814853	-0.000333
1362	1.3542e+02	-14.2279	-52.502950	0.000719	7.193581	2.437251	-0.000288
1363	1.3552e+02	-14.2680	-52.842070	0.000851	8.510715	2.883508	-0.000341
1364	1.3562e+02	-14.3033	-53.116595	0.000689	6.889626	2.334269	-0.000276
1365	1.3572e+02	-14.3434	-53.447640	0.000831	8.308079	2.814853	-0.000333
1366	1.3582e+02	-14.3868	-53.750425	0.000760	7.598853	2.574561	-0.000304
1367	1.3592e+02	-14.4188	-54.097619	0.000871	8.713351	2.952163	-0.000349
1368	1.3602e+02	-14.4590	-54.404441	0.000770	7.700171	2.608888	-0.000308
1369	1.3612e+02	-14.5103	-54.715301	0.000780	7.801489	2.643216	-0.000312
1370	1.3622e+02	-14.5408	-55.034234	0.000800	8.004125	2.711871	-0.000321
1371	1.3631e+02	-14.5873	-55.324908	0.000729	7.294899	2.471579	-0.000292
1372	1.3641e+02	-14.6242	-55.688250	0.000912	9.118623	3.089473	-0.000365
1373	1.3651e+02	-14.6563	-56.019296	0.000831	8.308079	2.814853	-0.000333
1374	1.3661e+02	-14.7092	-56.354378	0.000841	8.409397	2.849181	-0.000337
1375	1.3671e+02	-14.7477	-56.693497	0.000851	8.510715	2.883508	-0.000341
1376	1.3681e+02	-14.7862	-57.016468	0.000811	8.105443	2.746198	-0.000325
1377	1.3691e+02	-14.8183	-57.343476	0.000821	8.206761	2.780526	-0.000329
1378	1.3701e+02	-14.8632	-57.670484	0.000821	8.206761	2.780526	-0.000329
1379	1.3711e+02	-14.9065	-58.054012	0.000963	9.625213	3.261111	-0.000385
1380	1.3721e+02	-14.9434	-58.413317	0.000902	9.017305	3.055146	-0.000361
1381	1.3731e+02	-14.9835	-58.728214	0.000790	7.902807	2.677543	-0.000316
1382	1.3741e+02	-15.0188	-59.107704	0.000952	9.523895	3.226783	-0.000381
1383	1.3751e+02	-15.0782	-59.422601	0.000790	7.902807	2.677543	-0.000316
1384	1.3761e+02	-15.0990	-59.785943	0.000912	9.118623	3.089473	-0.000365
1385	1.3771e+02	-15.1424	-60.169471	0.000963	9.625213	3.261111	-0.000385
1386	1.3781e+02	-15.1841	-60.516665	0.000871	8.713351	2.952163	-0.000349
1387	1.3791e+02	-15.2178	-60.888081	0.000932	9.321259	3.158128	-0.000373
1388	1.3801e+02	-15.2530	-61.243349	0.000892	8.915987	3.020818	-0.000357
1389	1.3811e+02	-15.3076	-61.614766	0.000932	9.321259	3.158128	-0.000373
1390	1.3821e+02	-15.3397	-61.998294	0.000963	9.625213	3.261111	-0.000385
1391	1.3831e+02	-15.3750	-62.349524	0.000881	8.814669	2.986491	-0.000353
1392	1.3840e+02	-15.4231	-62.757275	0.001023	10.233122	3.467075	-0.000410
1393	1.3850e+02	-15.4616	-63.148877	0.000983	9.827850	3.329766	-0.000394
1394	1.3860e+02	-15.5033	-63.467811	0.000800	8.004125	2.711871	-0.000321
1395	1.3870e+02	-15.5418	-63.924007	0.001145	11.448938	3.879005	-0.000458
1396	1.3880e+02	-15.5803	-64.299461	0.000942	9.422577	3.192456	-0.000377
1397	1.3890e+02	-15.6300	-64.711249	0.001033	10.334440	3.501403	-0.000414
1398	1.3900e+02	-15.6605	-65.074591	0.000912	9.118623	3.089473	-0.000365
1399	1.3910e+02	-15.6958	-65.502527	0.001074	10.739712	3.638713	-0.000430
1400	1.3920e+02	-15.7391	-65.890092	0.000973	9.726531	3.295438	-0.000390
1401	1.3930e+02	-15.7792	-66.289769	0.001003	10.030486	3.398421	-0.000402
1402	1.3940e+02	-15.8161	-66.721742	0.001084	10.841030	3.673040	-0.000434
1403	1.3950e+02	-15.8546	-67.129493	0.001023	10.233122	3.467075	-0.000410
1404	1.3960e+02	-15.9012	-67.521095	0.000983	9.827850	3.329766	-0.000394
1405	1.3970e+02	-15.9397	-67.965180	0.001114	11.144984	3.776023	-0.000446
1406	1.3980e+02	-15.9846	-68.376968	0.001033	10.334440	3.501403	-0.000414
1407	1.3990e+02	-16.0167	-68.821053	0.001114	11.144984	3.776023	-0.000446
1408	1.4000e+02	-16.0648	-69.212655	0.000983	9.827850	3.329766	-0.000394
1409	1.4010e+02	-16.0937	-69.680963	0.001175	11.752892	3.981988	-0.000471
1410	1.4020e+02	-16.1290	-70.072565	0.000983	9.827850	3.329766	-0.000394
1411	1.4029e+02	-16.1803	-70.492427	0.001054	10.537076	3.570058	-0.000422
1412	1.4039e+02	-16.2124	-70.972846	0.001206	12.056846	4.084970	-0.000483
1413	1.4049e+02	-16.2589	-71.412894	0.001104	11.043666	3.741695	-0.000442
1414	1.4059e+02	-16.2974	-71.873128	0.001155	11.550256	3.913333	-0.000463
1415	1.4069e+02	-16.3423	-72.309138	0.001094	10.942348	3.707368	-0.000438
1416	1.4079e+02	-16.3728	-72.749186	0.001104	11.043666	3.741695	-0.000442
1417	1.4089e+02	-16.4161	-73.257865	0.001277	12.766073	4.325262	-0.000511
1418	1.4099e+02	-16.4610	-73.657542	0.001003	10.030486	3.398421	-0.000402
1419	1.4109e+02	-16.4995	-74.129886	0.001185	11.854210	4.016315	-0.000475
1420	1.4119e+02	-16.5364	-74.618380	0.001226	12.259482	4.153625	-0.000491
1421	1.4129e+02	-16.5797	-75.074576	0.001145	11.448938	3.879005	-0.000458
1422	1.4139e+02	-16.6199	-75.563070	0.001226	12.259482	4.153625	-0.000491
1423	1.4149e+02	-16.6584	-76.051563	0.001226	12.259482	4.153625	-0.000491
1424	1.4159e+02	-16.6985	-76.576391	0.001317	13.171345	4.462572	-0.000527
1425	1.4169e+02	-16.7402	-77.036624	0.001155	11.550256	3.913333	-0.000463
1426	1.4179e+02	-16.7723	-77.504932	0.001175	11.752892	3.981988	-0.000471
1427	1.4189e+02	-16.8156	-78.033797	0.001327	13.272663	4.496900	-0.000532
1428	1.4199e+02	-16.8493	-78.494030	0.001155	11.550256	3.913333	-0.000463
1429	1.4209e+02	-16.8910	-79.026932	0.001337	13.373981	4.531227	-0.000536
1430	1.4219e+02	-16.9391	-79.559834	0.001337	13.373981	4.531227	-0.000536
1431	1.4228e+02	-16.9712	-80.080624	0.001307	13.070027	4.428245	-0.000523
1432	1.4238e+02	-17.0113	-80.557007	0.001196	11.955528	4.050643	-0.000479
1433	1.4248e+02	-17.0578	-81.057611	0.001256	12.563436	4.256608	-0.000503
1434	1.4258e+02	-17.0963	-81.642996	0.001469	14.691115	4.977485	-0.000588
1435	1.4268e+02	-17.1300	-82.183972	0.001358	13.576617	4.599882	-0.000544
1436	1.4278e+02	-17.1765	-82.692651	0.001277	12.766073	4.325262	-0.000511
1437	1.4288e+02	-17.2166	-83.233628	0.001358	13.576617	4.599882	-0.000544
1438	1.4298e+02	-17.2519	-83.762492	0.001327	13.272663	4.496900	-0.000532
1439	1.4308e+02	-17.3033	-84.368063	0.001520	15.197705	5.149122	-0.000609
1440	1.4318e+02	-17.3402	-84.900965	0.001337	13.373981	4.531227	-0.000536
1441	1.4328e+02	-17.3610	-85.437904	0.001348	13.475299	4.565555	-0.000540
1442	1.4338e+02	-17.4107	-86.035400	0.001500	14.995069	5.080467	-0.000600
1443	1.4348e+02	-17.4557	-86.560227	0.001317	13.171345	4.462572	-0.000527
1444	1.4358e+02	-17.4926	-87.161761	0.001510	15.096387	5.114795	-0.000605
1445	1.4368e+02	-17.5311	-87.718885	0.001398	13.981889	4.737192	-0.000560
1446	1.4378e+02	-17.5744	-88.280047	0.001408	14.083207	4.771520	-0.000564
1447	1.4388e+02	-17.6129	-88.921952	0.001611	16.109568	5.458069	-0.000645
1448	1.4398e+02	-17.6514	-89.495225	0.001439	14.387161	4.874502	-0.000576
1449	1.4408e+02	-17.6931	-90.076573	0.001459	14.589797	4.943157	-0.000584
1450	1.4418e+02	-17.7252	-90.694254	0.001550	15.501660	5.252104	-0.000621
1451	1.4428e+02	-17.7733	-91.328085	0.001591	15.906932	5.389414	-0.000637
1452	1.4437e+02	-17.8070	-91.901358	0.001439	14.387161	4.874502	-0.000576
1453	1.4447e+02	-17.8567	-92.523077	0.001560	15.602978	5.286432	-0.000625
1454	1.4457e+02	-17.8856	-93.156907	0.001591	15.906932	5.389414	-0.000637
1455	1.4467e+02	-17.9209	-93.794775	0.001601	16.008250	5.423742	-0.000641
1456	1.4477e+02	-17.9754	-94.444753	0.001631	16.312204	5.526724	-0.000653
1457	1.4487e+02	-18.0139	-95.098769	0.001641	16.413522	5.561052	-0.000657
1458	1.4497e+02	-18.0476	-95.752785	0.001641	16.413522	5.561052	-0.000657
1459	1.4507e+02	-18.0845	-96.394690	0.001611	16.109568	5.458069	-0.000645
1460	1.4517e+02	-18.1310	-97.064855	0.001682	16.818794	5.698362	-0.000674
1461	1.4527e+02	-18.1679	-97.739056	0.001692	16.920112	5.732689	-0.000678
1462	1.4537e+02	-18.2145	-98.393072	0.001641	16.413522	5.561052	-0.000657
1463	1.4547e+02	-18.2594	-99.059200	0.001672	16.717476	5.664034	-0.000669
1464	1.4557e+02	-18.2818	-99.757624	0.001753	17.528020	5.938654	-0.000702
1465	1.4567e+02	-18.3235	-100.439900	0.001712	17.122748	5.801344	-0.000686
1466	1.4577e+02	-18.3733	-101.134287	0.001743	17.426702	5.904327	-0.000698
1467	1.4587e+02	-18.4102	-101.840786	0.001773	17.730656	6.007309	-0.000710
1468	1.4597e+02	-18.4439	-102.551322	0.001783	17.831974	6.041636	-0.000714
1469	1.4607e+02	-18.4952	-103.261858	0.001783	17.831974	6.041636	-0.000714
1470	1.4617e+02	-18.5273	-104.000654	0.001854	18.541201	6.281929	-0.000743
1471	1.4626e+02	-18.5674	-104.739450	0.001854	18.541201	6.281929	-0.000743
1472	1.4636e+02	-18.6219	-105.510543	0.001935	19.351745	6.556549	-0.000775
1473	1.4646e+02	-18.6492	-106.213004	0.001763	17.629338	5.972982	-0.000706
1474	1.4656e+02	-18.6941	-106.963911	0.001885	18.845155	6.384911	-0.000755
1475	1.4666e+02	-18.7310	-107.702707	0.001854	18.541201	6.281929	-0.000743
1476	1.4676e+02	-18.7647	-108.449577	0.001874	18.743837	6.350584	-0.000751
1477	1.4686e+02	-18.8080	-109.261042	0.002036	20.364925	6.899823	-0.000816
1478	1.4696e+02	-18.8401	-110.052320	0.001986	19.858335	6.728186	-0.000795
1479	1.4706e+02	-18.8882	-110.823413	0.001935	19.351745	6.556549	-0.000775
1480	1.4716e+02	-18.9364	-111.594506	0.001935	19.351745	6.556549	-0.000775
1481	1.4726e+02	-18.9652	-112.393859	0.002006	20.060971	6.796841	-0.000803
1482	1.4736e+02	-19.0070	-113.164952	0.001935	19.351745	6.556549	-0.000775
1483	1.4746e+02	-19.0438	-114.004676	0.002107	21.074152	7.140116	-0.000844
1484	1.4756e+02	-19.0872	-114.787880	0.001966	19.655699	6.659531	-0.000787
1485	1.4766e+02	-19.1241	-115.655865	0.002178	21.783378	7.380408	-0.000872
1486	1.4776e+02	-19.1722	-116.467329	0.002036	20.364925	6.899823	-0.000816
1487	1.4786e+02	-19.2075	-117.347424	0.002209	22.087332	7.483391	-0.000885
1488	1.4796e+02	-19.2556	-118.187149	0.002107	21.074152	7.140116	-0.000844
1489	1.4806e+02	-19.2909	-119.038984	0.002138	21.378106	7.243098	-0.000856
1490	1.4816e+02	-19.3134	-119.931191	0.002239	22.391286	7.586373	-0.000897
1491	1.4825e+02	-19.3711	-120.734581	0.002016	20.162289	6.831168	-0.000807
1492	1.4835e+02	-19.4000	-121.622751	0.002229	22.289968	7.552046	-0.000893
1493	1.4845e+02	-19.4465	-122.518995	0.002249	22.492604	7.620701	-0.000901
1494	1.4855e+02	-19.4802	-123.439462	0.002310	23.100512	7.826665	-0.000925
1495	1.4865e+02	-19.5155	-124.319558	0.002209	22.087332	7.483391	-0.000885
1496	1.4875e+02	-19.5668	-125.240025	0.002310	23.100512	7.826665	-0.000925
1497	1.4885e+02	-19.6085	-126.140306	0.002259	22.593922	7.655028	-0.000905
1498	1.4895e+02	-19.6470	-127.089033	0.002381	23.809738	8.066958	-0.000953
1499	1.4905e+02	-19.6871	-127.989314	0.002259	22.593922	7.655028	-0.000905
1500	1.4915e+02	-19.7192	-128.946115	0.002401	24.012375	8.135613	-0.000962
1501	1.4925e+02	-19.7561	-129.894842	0.002381	23.809738	8.066958	-0.000953
1502	1.4935e+02	-19.8059	-130.892015	0.002503	25.025555	8.478888	-0.001002
1503	1.4945e+02	-19.8412	-131.824593	0.002340	23.404466	7.929648	-0.000937
1504	1.4955e+02	-19.8893	-132.797543	0.002442	24.417647	8.272923	-0.000978
1505	1.4965e+02	-19.9278	-133.806827	0.002533	25.329509	8.581870	-0.001014
1506	1.4975e+02	-19.9679	-134.787851	0.002462	24.620283	8.341578	-0.000986
1507	1.4985e+02	-20.0032	-135.809246	0.002563	25.633463	8.684852	-0.001027
1508	1.4995e+02	-19.9615	-136.499596	-0.001733	-17.325384	-5.869999	-0.000694
1509	1.5005e+02	-19.9230	-137.117278	-0.001550	-15.501660	-5.252104	-0.000621
1510	1.5015e+02	-19.8861	-137.686514	-0.001429	-14.285843	-4.840175	-0.000572
1511	1.5025e+02	-19.8556	-138.267862	-0.001459	-14.589797	-4.943157	-0.000584
1512	1.5034e+02	-19.7978	-138.748281	-0.001206	-12.056846	-4.084970	-0.000483
1513	1.5044e+02	-19.7593	-139.200440	-0.001135	-11.347620	-3.844678	-0.000454
1514	1.5054e+02	-19.7224	-139.684897	-0.001216	-12.158164	-4.119298	-0.000487
1515	1.5064e+02	-19.6791	-140.056313	-0.000932	-9.321259	-3.158128	-0.000373
1516	1.5074e+02	-19.6438	-140.447915	-0.000983	-9.827850	-3.329766	-0.000394
1517	1.5084e+02	-19.5989	-140.811257	-0.000912	-9.118623	-3.089473	-0.000365
1518	1.5094e+02	-19.5652	-141.182674	-0.000932	-9.321259	-3.158128	-0.000373
1519	1.5104e+02	-19.5171	-141.509682	-0.000821	-8.206761	-2.780526	-0.000329
1520	1.5114e+02	-19.4850	-141.764021	-0.000638	-6.383036	-2.162631	-0.000256
1521	1.5124e+02	-19.4497	-142.095067	-0.000831	-8.308079	-2.814853	-0.000333
1522	1.5134e+02	-19.4096	-142.333258	-0.000598	-5.977764	-2.025321	-0.000239
1523	1.5144e+02	-19.3743	-142.615857	-0.000709	-7.092263	-2.402924	-0.000284
1524	1.5154e+02	-19.3182	-142.829825	-0.000537	-5.369856	-1.819356	-0.000215
1525	1.5164e+02	-19.2893	-142.999385	-0.000426	-4.255358	-1.441754	-0.000170
1526	1.5174e+02	-19.2396	-143.261799	-0.000659	-6.585672	-2.231286	-0.000264
1527	1.5184e+02	-19.2075	-143.459618	-0.000496	-4.964584	-1.682047	-0.000199
1528	1.5194e+02	-19.1690	-143.608992	-0.000375	-3.748767	-1.270117	-0.000150
1529	1.5204e+02	-19.1241	-143.794701	-0.000466	-4.660630	-1.579064	-0.000187
1530	1.5214e+02	-19.0888	-143.875443	-0.000203	-2.026361	-0.686550	-0.000081
1531	1.5224e+02	-19.0487	-144.073263	-0.000496	-4.964584	-1.682047	-0.000199
1532	1.5233e+02	-19.0021	-144.206489	-0.000334	-3.343495	-1.132807	-0.000134
1533	1.5243e+02	-18.9701	-144.331640	-0.000314	-3.140859	-1.064152	-0.000126
1534	1.5253e+02	-18.9412	-144.424494	-0.000233	-2.330315	-0.789532	-0.000093
1535	1.5263e+02	-18.8914	-144.525422	-0.000253	-2.532951	-0.858187	-0.000101
1536	1.5273e+02	-18.8529	-144.654611	-0.000324	-3.242177	-1.098479	-0.000130
1537	1.5283e+02	-18.8048	-144.707093	-0.000132	-1.317134	-0.446257	-0.000053
1538	1.5293e+02	-18.7695	-144.799948	-0.000233	-2.330315	-0.789532	-0.000093
1539	1.5303e+02	-18.7406	-144.888765	-0.000223	-2.228997	-0.755205	-0.000089
1540	1.5313e+02	-18.6925	-144.904913	-0.000041	-0.405272	-0.137310	-0.000016
1541	1.5323e+02	-18.6524	-145.017953	-0.000284	-2.836905	-0.961169	-0.000114
1542	1.5333e+02	-18.6171	-144.977581	0.000101	1.013180	0.343275	0.000041
1543	1.5343e+02	-18.5754	-145.070436	-0.000233	-2.330315	-0.789532	-0.000093
1544	1.5353e+02	-18.5337	-145.086584	-0.000041	-0.405272	-0.137310	-0.000016
1545	1.5363e+02	-18.4904	-145.126956	-0.000101	-1.013180	-0.343275	-0.000041
1546	1.5373e+02	-18.4455	-145.167327	-0.000101	-1.013180	-0.343275	-0.000041
1547	1.5383e+02	-18.4086	-145.171364	-0.000010	-0.101318	-0.034327	-0.000004
1548	1.5393e+02	-18.3797	-145.207698	-0.000091	-0.911862	-0.308947	-0.000037
1549	1.5403e+02	-18.3316	-145.183475	0.000061	0.607908	0.205965	0.000024
1550	1.5413e+02	-18.2883	-145.179438	0.000010	0.101318	0.034327	0.000004
1551	1.5422e+02	-18.2449	-145.191550	-0.000030	-0.303954	-0.102982	-0.000012
1552	1.5432e+02	-18.2080	-145.175401	0.000041	0.405272	0.137310	0.000016
1553	1.5442e+02	-18.1695	-145.143104	0.000081	0.810544	0.274620	0.000032
1554	1.5452e+02	-18.1262	-145.167327	-0.000061	-0.607908	-0.205965	-0.000024
1555	1.5462e+02	-18.0829	-145.155215	0.000030	0.303954	0.102982	0.000012
1556	1.5472e+02	-18.0605	-145.090621	0.000162	1.621089	0.549240	0.000065
1557	1.5482e+02	-18.0139	-145.078510	0.000030	0.303954	0.102982	0.000012
1558	1.5492e+02	-17.9690	-145.038139	0.000101	1.013180	0.343275	0.000041
1559	1.5502e+02	-17.9353	-144.985656	0.000132	1.317134	0.446257	0.000053
1560	1.5512e+02	-17.8952	-144.961433	0.000061	0.607908	0.205965	0.000024
1561	1.5522e+02	-17.8503	-144.921062	0.000101	1.013180	0.343275	0.000041
1562	1.5532e+02	-17.8070	-144.836282	0.000213	2.127679	0.720877	0.000085
1563	1.5542e+02	-17.7701	-144.832245	0.000010	0.101318	0.034327	0.000004
1564	1.5552e+02	-17.7348	-144.755539	0.000193	1.925043	0.652222	0.000077
1565	1.5562e+02	-17.6899	-144.699019	0.000142	1.418453	0.480585	0.000057
1566	1.5572e+02	-17.6514	-144.634425	0.000162	1.621089	0.549240	0.000065
1567	1.5582e+02	-17.6225	-144.590016	0.000111	1.114498	0.377602	0.000045
1568	1.5592e+02	-17.5728	-144.485051	0.000263	2.634269	0.892514	0.000105
1569	1.5602e+02	-17.5391	-144.420457	0.000162	1.621089	0.549240	0.000065
1570	1.5612e+02	-17.4942	-144.392197	0.000071	0.709226	0.240292	0.000028
1571	1.5622e+02	-17.4541	-144.343751	0.000122	1.215816	0.411930	0.000049
1572	1.5631e+02	-17.4172	-144.250897	0.000233	2.330315	0.789532	0.000093
1573	1.5641e+02	-17.3658	-144.101523	0.000375	3.748767	1.270117	0.000150
1574	1.5651e+02	-17.3402	-144.081337	0.000051	0.506590	0.171637	0.000020
1575	1.5661e+02	-17.2952	-144.012706	0.000172	1.722407	0.583567	0.000069
1576	1.5671e+02	-17.2519	-143.927926	0.000213	2.127679	0.720877	0.000085
1577	1.5681e+02	-17.2182	-143.826998	0.000253	2.532951	0.858187	0.000101
1578	1.5691e+02	-17.1733	-143.722032	0.000263	2.634269	0.892514	0.000105
1579	1.5701e+02	-17.1348	-143.653401	0.000172	1.722407	0.583567	0.000069
1580	1.5711e+02	-17.0947	-143.584770	0.000172	1.722407	0.583567	0.000069
1581	1.5721e+02	-17.0562	-143.451544	0.000334	3.343495	1.132807	0.000134
1582	1.5731e+02	-17.0145	-143.386950	0.000162	1.621089	0.549240	0.000065
1583	1.5741e+02	-16.9680	-143.261799	0.000314	3.140859	1.064152	0.000126
1584	1.5751e+02	-16.9263	-143.217390	0.000111	1.114498	0.377602	0.000045
1585	1.5761e+02	-16.8926	-143.128573	0.000223	2.228997	0.755205	0.000089
1586	1.5771e+02	-16.8557	-143.031682	0.000243	2.431633	0.823860	0.000097
1587	1.5781e+02	-16.8124	-142.918642	0.000284	2.836905	0.961169	0.000114
1588	1.5791e+02	-16.7835	-142.797528	0.000304	3.039541	1.029824	0.000122
1589	1.5801e+02	-16.7402	-142.696600	0.000253	2.532951	0.858187	0.000101
1590	1.5811e+02	-16.6936	-142.583560	0.000284	2.836905	0.961169	0.000114
1591	1.5821e+02	-16.6535	-142.523003	0.000152	1.519771	0.514912	0.000061
1592	1.5830e+02	-16.6199	-142.422075	0.000253	2.532951	0.858187	0.000101
1593	1.5840e+02	-16.5781	-142.252515	0.000426	4.255358	1.441754	0.000170
1594	1.5850e+02	-16.5428	-142.171772	0.000203	2.026361	0.686550	0.000081
1595	1.5860e+02	-16.4947	-142.062769	0.000274	2.735587	0.926842	0.000110
1596	1.5870e+02	-16.4562	-141.917433	0.000365	3.647449	1.235789	0.000146
1597	1.5880e+02	-16.4129	-141.852838	0.000162	1.621089	0.549240	0.000065
1598	1.5890e+02	-16.3792	-141.719613	0.000334	3.343495	1.132807	0.000134
1599	1.5900e+02	-16.3455	-141.634833	0.000213	2.127679	0.720877	0.000085
1600	1.5910e+02	-16.2974	-141.521793	0.000284	2.836905	0.961169	0.000114
1601	1.5920e+02	-16.2541	-141.412791	0.000274	2.735587	0.926842	0.000110
1602	1.5930e+02	-16.2236	-141.223045	0.000476	4.761948	1.613392	0.000191
1603	1.5940e+02	-16.1867	-141.105968	0.000294	2.938223	0.995497	0.000118
1604	1.5950e+02	-16.1338	-141.033300	0.000182	1.823725	0.617895	0.000073
1605	1.5960e+02	-16.0953	-140.896037	0.000344	3.444813	1.167134	0.000138
1606	1.5970e+02	-16.0632	-140.787035	0.000274	2.735587	0.926842	0.000110
1607	1.5980e+02	-16.0151	-140.678032	0.000274	2.735587	0.926842	0.000110
1608	1.5990e+02	-15.9814	-140.504435	0.000436	4.356676	1.476082	0.000174
1609	1.6000e+02	-15.9332	-140.391395	0.000284	2.836905	0.961169	0.000114
1610	1.6010e+02	-15.8996	-140.274318	0.000294	2.938223	0.995497	0.000118
1611	1.6019e+02	-15.8610	-140.133019	0.000355	3.546131	1.201462	0.000142
1612	1.6029e+02	-15.8145	-139.991719	0.000355	3.546131	1.201462	0.000142
1613	1.6039e+02	-15.7857	-139.862531	0.000324	3.242177	1.098479	0.000130
1614	1.6049e+02	-15.7504	-139.797936	0.000162	1.621089	0.549240	0.000065
1615	1.6059e+02	-15.7054	-139.656637	0.000355	3.546131	1.201462	0.000142
1616	1.6069e+02	-15.6605	-139.507263	0.000375	3.748767	1.270117	0.000150
1617	1.6079e+02	-15.6172	-139.394223	0.000284	2.836905	0.961169	0.000114
1618	1.6089e+02	-15.5835	-139.248886	0.000365	3.647449	1.235789	0.000146
1619	1.6099e+02	-15.5402	-139.156032	0.000233	2.330315	0.789532	0.000093
1620	1.6109e+02	-15.4985	-138.958212	0.000496	4.964584	1.682047	0.000199
1621	1.6119e+02	-15.4584	-138.845172	0.000284	2.836905	0.961169	0.000114
1622	1.6129e+02	-15.4199	-138.728095	0.000294	2.938223	0.995497	0.000118
1623	1.6139e+02	-15.3814	-138.558536	0.000426	4.255358	1.441754	0.000170
1624	1.6149e+02	-15.3477	-138.449533	0.000274	2.735587	0.926842	0.000110
1625	1.6159e+02	-15.3076	-138.328419	0.000304	3.039541	1.029824	0.000122
1626	1.6169e+02	-15.2691	-138.158859	0.000426	4.255358	1.441754	0.000170
1627	1.6179e+02	-15.2242	-138.074079	0.000213	2.127679	0.720877	0.000085
1628	1.6189e+02	-15.1921	-137.952965	0.000304	3.039541	1.029824	0.000122
1629	1.6199e+02	-15.1424	-137.791480	0.000405	4.052721	1.373099	0.000162
1630	1.6209e+02	-15.1039	-137.658254	0.000334	3.343495	1.132807	0.000134
1631	1.6219e+02	-15.0605	-137.537140	0.000304	3.039541	1.029824	0.000122
1632	1.6228e+02	-15.0268	-137.363543	0.000436	4.356676	1.476082	0.000174
1633	1.6238e+02	-14.9835	-137.202058	0.000405	4.052721	1.373099	0.000162
1634	1.6248e+02	-14.9482	-137.072870	0.000324	3.242177	1.098479	0.000130
1635	1.6258e+02	-14.8953	-136.980016	0.000233	2.330315	0.789532	0.000093
1636	1.6268e+02	-14.8680	-136.866976	0.000284	2.836905	0.961169	0.000114
1637	1.6278e+02	-14.8311	-136.693379	0.000436	4.356676	1.476082	0.000174
1638	1.6288e+02	-14.7846	-136.580339	0.000284	2.836905	0.961169	0.000114
1639	1.6298e+02	-14.7413	-136.422891	0.000395	3.951403	1.338772	0.000158
1640	1.6308e+02	-14.7092	-136.249294	0.000436	4.356676	1.476082	0.000174
1641	1.6318e+02	-14.6643	-136.144328	0.000263	2.634269	0.892514	0.000105
1642	1.6328e+02	-14.6290	-136.027252	0.000294	2.938223	0.995497	0.000118
1643	1.6338e+02	-14.5841	-135.853655	0.000436	4.356676	1.476082	0.000174
1644	1.6348e+02	-14.5472	-135.716392	0.000344	3.444813	1.167134	0.000138
1645	1.6358e+02	-14.5023	-135.554907	0.000405	4.052721	1.373099	0.000162
1646	1.6368e+02	-14.4686	-135.417644	0.000344	3.444813	1.167134	0.000138
1647	1.6378e+02	-14.4253	-135.332864	0.000213	2.127679	0.720877	0.000085
1648	1.6388e+02	-14.3884	-135.199639	0.000334	3.343495	1.132807	0.000134
1649	1.6398e+02	-14.3483	-135.013930	0.000466	4.660630	1.579064	0.000187
1650	1.6408e+02	-14.3001	-134.925114	0.000223	2.228997	0.755205	0.000089
1651	1.6418e+02	-14.2713	-134.707108	0.000547	5.471174	1.853684	0.000219
1652	1.6427e+02	-14.2231	-134.585994	0.000304	3.039541	1.029824	0.000122
1653	1.6437e+02	-14.1862	-134.440657	0.000365	3.647449	1.235789	0.000146
1654	1.6447e+02	-14.1525	-134.291283	0.000375	3.748767	1.270117	0.000150
1655	1.6457e+02	-14.1012	-134.137872	0.000385	3.850085	1.304444	0.000154
1656	1.6467e+02	-14.0755	-134.032907	0.000263	2.634269	0.892514	0.000105
1657	1.6477e+02	-14.0242	-133.839124	0.000486	4.863266	1.647719	0.000195
1658	1.6487e+02	-13.9921	-133.701861	0.000344	3.444813	1.167134	0.000138
1659	1.6497e+02	-13.9488	-133.564599	0.000344	3.444813	1.167134	0.000138
1660	1.6507e+02	-13.9151	-133.411188	0.000385	3.850085	1.304444	0.000154
1661	1.6517e+02	-13.8670	-133.273925	0.000344	3.444813	1.167134	0.000138
1662	1.6527e+02	-13.8301	-133.148774	0.000314	3.140859	1.064152	0.000126
1663	1.6537e+02	-13.7852	-132.983251	0.000415	4.154039	1.407427	0.000166
1664	1.6547e+02	-13.7515	-132.833877	0.000375	3.748767	1.270117	0.000150
1665	1.6557e+02	-13.7162	-132.696615	0.000344	3.444813	1.167134	0.000138
1666	1.6567e+02	-13.6761	-132.535129	0.000405	4.052721	1.373099	0.000162
1667	1.6577e+02	-13.6231	-132.381718	0.000385	3.850085	1.304444	0.000154
1668	1.6587e+02	-13.5862	-132.216195	0.000415	4.154039	1.407427	0.000166
1669	1.6597e+02	-13.5510	-132.107193	0.000274	2.735587	0.926842	0.000110
1670	1.6607e+02	-13.5125	-131.921485	0.000466	4.660630	1.579064	0.000187
1671	1.6616e+02	-13.4707	-131.796333	0.000314	3.140859	1.064152	0.000126
1672	1.6626e+02	-13.4274	-131.650996	0.000365	3.647449	1.235789	0.000146
1673	1.6636e+02	-13.3937	-131.481437	0.000426	4.255358	1.441754	0.000170
1674	1.6646e+02	-13.3488	-131.340137	0.000355	3.546131	1.201462	0.000142
1675	1.6656e+02	-13.3055	-131.194800	0.000365	3.647449	1.235789	0.000146
1676	1.6666e+02	-13.2718	-131.021203	0.000436	4.356676	1.476082	0.000174
1677	1.6676e+02	-13.2365	-130.887978	0.000334	3.343495	1.132807	0.000134
1678	1.6686e+02	-13.1900	-130.762827	0.000314	3.140859	1.064152	0.000126
1679	1.6696e+02	-13.1483	-130.560970	0.000507	5.065902	1.716374	0.000203
1680	1.6706e+02	-13.1082	-130.431781	0.000324	3.242177	1.098479	0.000130
1681	1.6716e+02	-13.0745	-130.258185	0.000436	4.356676	1.476082	0.000174
1682	1.6726e+02	-13.0264	-130.120922	0.000344	3.444813	1.167134	0.000138
1683	1.6736e+02	-12.9927	-129.955399	0.000415	4.154039	1.407427	0.000166
1684	1.6746e+02	-12.9478	-129.797951	0.000395	3.951403	1.338772	0.000158
1685	1.6756e+02	-12.9125	-129.672800	0.000314	3.140859	1.064152	0.000126
1686	1.6766e+02	-12.8724	-129.527463	0.000365	3.647449	1.235789	0.000146
1687	1.6776e+02	-12.8274	-129.370015	0.000395	3.951403	1.338772	0.000158
1688	1.6786e+02	-12.7857	-129.208529	0.000405	4.052721	1.373099	0.000162
1689	1.6796e+02	-12.7537	-129.047044	0.000405	4.052721	1.373099	0.000162
1690	1.6806e+02	-12.7055	-128.909781	0.000344	3.444813	1.167134	0.000138
1691	1.6816e+02	-12.6702	-128.768482	0.000355	3.546131	1.201462	0.000142
1692	1.6825e+02	-12.6381	-128.631219	0.000344	3.444813	1.167134	0.000138
1693	1.6835e+02	-12.5916	-128.473771	0.000395	3.951403	1.338772	0.000158
1694	1.6845e+02	-12.5563	-128.312285	0.000405	4.052721	1.373099	0.000162
1695	1.6855e+02	-12.5146	-128.126577	0.000466	4.660630	1.579064	0.000187
1696	1.6865e+02	-12.4729	-128.013537	0.000284	2.836905	0.961169	0.000114
1697	1.6875e+02	-12.4344	-127.839940	0.000436	4.356676	1.476082	0.000174
1698	1.6885e+02	-12.3943	-127.706715	0.000334	3.343495	1.132807	0.000134
1699	1.6895e+02	-12.3478	-127.541192	0.000415	4.154039	1.407427	0.000166
1700	1.6905e+02	-12.3077	-127.363558	0.000446	4.457994	1.510409	0.000179
1701	1.6915e+02	-12.2724	-127.218221	0.000365	3.647449	1.235789	0.000146
1702	1.6925e+02	-12.2451	-127.121330	0.000243	2.431633	0.823860	0.000097
1703	1.6935e+02	-12.1922	-126.931585	0.000476	4.761948	1.613392	0.000191
1704	1.6945e+02	-12.1537	-126.757988	0.000436	4.356676	1.476082	0.000174
1705	1.6955e+02	-12.1216	-126.552094	0.000517	5.167220	1.750701	0.000207
1706	1.6965e+02	-12.0719	-126.443091	0.000274	2.735587	0.926842	0.000110
1707	1.6975e+02	-12.0366	-126.285643	0.000395	3.951403	1.338772	0.000158
1708	1.6985e+02	-11.9965	-126.091861	0.000486	4.863266	1.647719	0.000195
1709	1.6995e+02	-11.9515	-125.934412	0.000395	3.951403	1.338772	0.000158
1710	1.7005e+02	-11.9162	-125.797150	0.000344	3.444813	1.167134	0.000138
1711	1.7015e+02	-11.8729	-125.659887	0.000344	3.444813	1.167134	0.000138
1712	1.7024e+02	-11.8312	-125.486290	0.000436	4.356676	1.476082	0.000174
1713	1.7034e+02	-11.7991	-125.308656	0.000446	4.457994	1.510409	0.000179
1714	1.7044e+02	-11.7494	-125.131022	0.000446	4.457994	1.510409	0.000179
1715	1.7054e+02	-11.7189	-125.005871	0.000314	3.140859	1.064152	0.000126
1716	1.7064e+02	-11.6836	-124.795940	0.000527	5.268538	1.785029	0.000211
1717	1.7074e+02	-11.6451	-124.650603	0.000365	3.647449	1.235789	0.000146
1718	1.7084e+02	-11.5938	-124.472969	0.000446	4.457994	1.510409	0.000179
1719	1.7094e+02	-11.5569	-124.327632	0.000365	3.647449	1.235789	0.000146
1720	1.7104e+02	-11.5104	-124.170184	0.000395	3.951403	1.338772	0.000158
1721	1.7114e+02	-11.4847	-123.984476	0.000466	4.660630	1.579064	0.000187
1722	1.7124e+02	-11.4302	-123.859324	0.000314	3.140859	1.064152	0.000126
1723	1.7134e+02	-11.3933	-123.669579	0.000476	4.761948	1.613392	0.000191
1724	1.7144e+02	-11.3548	-123.504056	0.000415	4.154039	1.407427	0.000166
1725	1.7154e+02	-11.3243	-123.338534	0.000415	4.154039	1.407427	0.000166
1726	1.7164e+02	-11.2729	-123.185123	0.000385	3.850085	1.304444	0.000154
1727	1.7174e+02	-11.2360	-122.987303	0.000496	4.964584	1.682047	0.000199
1728	1.7184e+02	-11.1991	-122.850041	0.000344	3.444813	1.167134	0.000138
1729	1.7194e+02	-11.1767	-122.708741	0.000355	3.546131	1.201462	0.000142
1730	1.7204e+02	-11.1109	-122.535144	0.000436	4.356676	1.476082	0.000174
1731	1.7213e+02	-11.0804	-122.357510	0.000446	4.457994	1.510409	0.000179
1732	1.7223e+02	-11.0387	-122.179876	0.000446	4.457994	1.510409	0.000179
1733	1.7233e+02	-10.9986	-121.998205	0.000456	4.559312	1.544737	0.000183
1734	1.7243e+02	-10.9649	-121.873054	0.000314	3.140859	1.064152	0.000126
1735	1.7253e+02	-10.9104	-121.671197	0.000507	5.065902	1.716374	0.000203
1736	1.7263e+02	-10.8751	-121.509711	0.000405	4.052721	1.373099	0.000162
1737	1.7273e+02	-10.8478	-121.396672	0.000284	2.836905	0.961169	0.000114
1738	1.7283e+02	-10.8045	-121.186741	0.000527	5.268538	1.785029	0.000211
1739	1.7293e+02	-10.7628	-121.013144	0.000436	4.356676	1.476082	0.000174
1740	1.7303e+02	-10.7195	-120.831473	0.000456	4.559312	1.544737	0.000183
1741	1.7313e+02	-10.6778	-120.669987	0.000405	4.052721	1.373099	0.000162
1742	1.7323e+02	-10.6521	-120.528687	0.000355	3.546131	1.201462	0.000142
1743	1.7333e+02	-10.5992	-120.367202	0.000405	4.052721	1.373099	0.000162
1744	1.7343e+02	-10.5623	-120.149197	0.000547	5.471174	1.853684	0.000219
1745	1.7353e+02	-10.5254	-119.975600	0.000436	4.356676	1.476082	0.000174
1746	1.7363e+02	-10.4756	-119.814114	0.000405	4.052721	1.373099	0.000162
1747	1.7373e+02	-10.4371	-119.664740	0.000375	3.748767	1.270117	0.000150
1748	1.7383e+02	-10.4034	-119.519404	0.000365	3.647449	1.235789	0.000146
1749	1.7393e+02	-10.3617	-119.345807	0.000436	4.356676	1.476082	0.000174
1750	1.7403e+02	-10.3120	-119.135876	0.000527	5.268538	1.785029	0.000211
1751	1.7413e+02	-10.2735	-118.946130	0.000476	4.761948	1.613392	0.000191
1752	1.7422e+02	-10.2462	-118.788682	0.000395	3.951403	1.338772	0.000158
1753	1.7432e+02	-10.1997	-118.566639	0.000557	5.572492	1.888011	0.000223
1754	1.7442e+02	-10.1676	-118.445525	0.000304	3.039541	1.029824	0.000122
1755	1.7452e+02	-10.1179	-118.251743	0.000486	4.863266	1.647719	0.000195
1756	1.7462e+02	-10.0810	-118.122555	0.000324	3.242177	1.098479	0.000130
1757	1.7472e+02	-10.0441	-117.860141	0.000659	6.585672	2.231286	0.000264
1758	1.7482e+02	-10.0104	-117.690581	0.000426	4.255358	1.441754	0.000170
1759	1.7492e+02	-9.9639	-117.557356	0.000334	3.343495	1.132807	0.000134
1760	1.7502e+02	-9.9286	-117.343387	0.000537	5.369856	1.819356	0.000215
1761	1.7512e+02	-9.8933	-117.214199	0.000324	3.242177	1.098479	0.000130
1762	1.7522e+02	-9.8420	-116.967934	0.000618	6.180400	2.093976	0.000248
1763	1.7532e+02	-9.7954	-116.838745	0.000324	3.242177	1.098479	0.000130
1764	1.7542e+02	-9.7746	-116.644963	0.000486	4.863266	1.647719	0.000195
1765	1.7552e+02	-9.7233	-116.443106	0.000507	5.065902	1.716374	0.000203
1766	1.7562e+02	-9.6815	-116.269509	0.000436	4.356676	1.476082	0.000174
1767	1.7572e+02	-9.6382	-116.099950	0.000426	4.255358	1.441754	0.000170
1768	1.7582e+02	-9.6061	-115.894056	0.000517	5.167220	1.750701	0.000207
1769	1.7592e+02	-9.5676	-115.744682	0.000375	3.748767	1.270117	0.000150
1770	1.7602e+02	-9.5275	-115.542825	0.000507	5.065902	1.716374	0.000203
1771	1.7612e+02	-9.4842	-115.373265	0.000426	4.255358	1.441754	0.000170
1772	1.7621e+02	-9.4409	-115.195631	0.000446	4.457994	1.510409	0.000179
1773	1.7631e+02	-9.4040	-114.977626	0.000547	5.471174	1.853684	0.000219
1774	1.7641e+02	-9.3687	-114.783843	0.000486	4.863266	1.647719	0.000195
1775	1.7651e+02	-9.3254	-114.642544	0.000355	3.546131	1.201462	0.000142
1776	1.7661e+02	-9.2805	-114.440687	0.000507	5.065902	1.716374	0.000203
1777	1.7671e+02	-9.2420	-114.319573	0.000304	3.039541	1.029824	0.000122
1778	1.7681e+02	-9.2035	-114.105604	0.000537	5.369856	1.819356	0.000215
1779	1.7691e+02	-9.1650	-113.915859	0.000476	4.761948	1.613392	0.000191
1780	1.7701e+02	-9.1281	-113.746299	0.000426	4.255358	1.441754	0.000170
1781	1.7711e+02	-9.0864	-113.552517	0.000486	4.863266	1.647719	0.000195
1782	1.7721e+02	-9.0415	-113.290103	0.000659	6.585672	2.231286	0.000264
1783	1.7731e+02	-9.0094	-113.108432	0.000456	4.559312	1.544737	0.000183
1784	1.7741e+02	-8.9677	-112.914649	0.000486	4.863266	1.647719	0.000195
1785	1.7751e+02	-8.9276	-112.765275	0.000375	3.748767	1.270117	0.000150
1786	1.7761e+02	-8.8874	-112.575530	0.000476	4.761948	1.613392	0.000191
1787	1.7771e+02	-8.8409	-112.341376	0.000588	5.876446	1.990994	0.000235
1788	1.7781e+02	-8.8121	-112.175854	0.000415	4.154039	1.407427	0.000166
1789	1.7791e+02	-8.7639	-111.969960	0.000517	5.167220	1.750701	0.000207
1790	1.7801e+02	-8.7206	-111.788289	0.000456	4.559312	1.544737	0.000183
1791	1.7810e+02	-8.6837	-111.610655	0.000446	4.457994	1.510409	0.000179
1792	1.7820e+02	-8.6404	-111.408798	0.000507	5.065902	1.716374	0.000203
1793	1.7830e+02	-8.6163	-111.243275	0.000415	4.154039	1.407427	0.000166
1794	1.7840e+02	-8.5714	-111.033344	0.000527	5.268538	1.785029	0.000211
1795	1.7850e+02	-8.5329	-110.823413	0.000527	5.268538	1.785029	0.000211
1796	1.7860e+02	-8.4896	-110.613482	0.000527	5.268538	1.785029	0.000211
1797	1.7870e+02	-8.4399	-110.431811	0.000456	4.559312	1.544737	0.000183
1798	1.7880e+02	-8.4030	-110.294548	0.000344	3.444813	1.167134	0.000138
1799	1.7890e+02	-8.3693	-110.052320	0.000608	6.079082	2.059649	0.000243
1800	1.7900e+02	-8.3292	-109.911020	0.000355	3.546131	1.201462	0.000142
1801	1.7910e+02	-8.2923	-109.680904	0.000578	5.775128	1.956666	0.000231
1802	1.7920e+02	-8.2474	-109.499233	0.000456	4.559312	1.544737	0.000183
1803	1.7930e+02	-8.2089	-109.277190	0.000557	5.572492	1.888011	0.000223
1804	1.7940e+02	-8.1704	-109.119742	0.000395	3.951403	1.338772	0.000158
1805	1.7950e+02	-8.1270	-108.853291	0.000669	6.686990	2.265614	0.000268
1806	1.7960e+02	-8.0853	-108.663546	0.000476	4.761948	1.613392	0.000191
1807	1.7970e+02	-8.0500	-108.514172	0.000375	3.748767	1.270117	0.000150
1808	1.7980e+02	-8.0147	-108.292129	0.000557	5.572492	1.888011	0.000223
1809	1.7990e+02	-7.9714	-108.106421	0.000466	4.660630	1.579064	0.000187
1810	1.8000e+02	-7.9281	-107.888415	0.000547	5.471174	1.853684	0.000219
1811	1.8009e+02	-7.8944	-107.686559	0.000507	5.065902	1.716374	0.000203
1812	1.8019e+02	-7.8527	-107.508925	0.000446	4.457994	1.510409	0.000179
1813	1.8029e+02	-7.8126	-107.323216	0.000466	4.660630	1.579064	0.000187
1814	1.8039e+02	-7.7773	-107.080988	0.000608	6.079082	2.059649	0.000243
1815	1.8049e+02	-7.7340	-106.895280	0.000466	4.660630	1.579064	0.000187
1816	1.8059e+02	-7.6923	-106.713609	0.000456	4.559312	1.544737	0.000183
1817	1.8069e+02	-7.6506	-106.491566	0.000557	5.572492	1.888011	0.000223
1818	1.8079e+02	-7.6073	-106.297784	0.000486	4.863266	1.647719	0.000195
1819	1.8089e+02	-7.5736	-106.083816	0.000537	5.369856	1.819356	0.000215
1820	1.8099e+02	-7.5319	-105.865810	0.000547	5.471174	1.853684	0.000219
1821	1.8109e+02	-7.4950	-105.639731	0.000567	5.673810	1.922339	0.000227
1822	1.8119e+02	-7.4597	-105.433837	0.000517	5.167220	1.750701	0.000207
1823	1.8129e+02	-7.4180	-105.244092	0.000476	4.761948	1.613392	0.000191
1824	1.8139e+02	-7.3682	-105.058383	0.000466	4.660630	1.579064	0.000187
1825	1.8149e+02	-7.3265	-104.856527	0.000507	5.065902	1.716374	0.000203
1826	1.8159e+02	-7.2912	-104.646595	0.000527	5.268538	1.785029	0.000211
1827	1.8169e+02	-7.2511	-104.424553	0.000557	5.572492	1.888011	0.000223
1828	1.8179e+02	-7.2046	-104.234808	0.000476	4.761948	1.613392	0.000191
1829	1.8189e+02	-7.1693	-103.996617	0.000598	5.977764	2.025321	0.000239
1830	1.8199e+02	-7.1388	-103.806871	0.000476	4.761948	1.613392	0.000191
1831	1.8209e+02	-7.0987	-103.592903	0.000537	5.369856	1.819356	0.000215
1832	1.8218e+02	-7.0538	-103.382972	0.000527	5.268538	1.785029	0.000211
1833	1.8228e+02	-7.0025	-103.164967	0.000547	5.471174	1.853684	0.000219
1834	1.8238e+02	-6.9704	-102.975221	0.000476	4.761948	1.613392	0.000191
1835	1.8248e+02	-6.9415	-102.696659	0.000699	6.990944	2.368596	0.000280
1836	1.8258e+02	-6.8998	-102.510951	0.000466	4.660630	1.579064	0.000187
1837	1.8268e+02	-6.8501	-102.296982	0.000537	5.369856	1.819356	0.000215
1838	1.8278e+02	-6.8116	-102.119348	0.000446	4.457994	1.510409	0.000179
1839	1.8288e+02	-6.7763	-101.933640	0.000466	4.660630	1.579064	0.000187
1840	1.8298e+02	-6.7298	-101.663152	0.000679	6.788308	2.299941	0.000272
1841	1.8308e+02	-6.6945	-101.469370	0.000486	4.863266	1.647719	0.000195
1842	1.8318e+02	-6.6511	-101.263476	0.000517	5.167220	1.750701	0.000207
1843	1.8328e+02	-6.6175	-101.061619	0.000507	5.065902	1.716374	0.000203
1844	1.8338e+02	-6.5758	-100.827465	0.000588	5.876446	1.990994	0.000235
1845	1.8348e+02	-6.5469	-100.613497	0.000537	5.369856	1.819356	0.000215
1846	1.8358e+02	-6.4955	-100.367232	0.000618	6.180400	2.093976	0.000248
1847	1.8368e+02	-6.4554	-100.181523	0.000466	4.660630	1.579064	0.000187
1848	1.8378e+02	-6.4153	-99.995815	0.000466	4.660630	1.579064	0.000187
1849	1.8388e+02	-6.3816	-99.741476	0.000638	6.383036	2.162631	0.000256
1850	1.8398e+02	-6.3367	-99.555767	0.000466	4.660630	1.579064	0.000187
1851	1.8407e+02	-6.2966	-99.325651	0.000578	5.775128	1.956666	0.000231
1852	1.8417e+02	-6.2469	-99.103608	0.000557	5.572492	1.888011	0.000223
1853	1.8427e+02	-6.2132	-98.958271	0.000365	3.647449	1.235789	0.000146
1854	1.8437e+02	-6.1731	-98.667597	0.000729	7.294899	2.471579	0.000292
1855	1.8447e+02	-6.1490	-98.433444	0.000588	5.876446	1.990994	0.000235
1856	1.8457e+02	-6.0961	-98.227550	0.000517	5.167220	1.750701	0.000207
1857	1.8467e+02	-6.0576	-97.973210	0.000638	6.383036	2.162631	0.000256
1858	1.8477e+02	-6.0303	-97.799613	0.000436	4.356676	1.476082	0.000174
1859	1.8487e+02	-5.9790	-97.557385	0.000608	6.079082	2.059649	0.000243
1860	1.8497e+02	-5.9389	-97.331306	0.000567	5.673810	1.922339	0.000227
1861	1.8507e+02	-5.9052	-97.101189	0.000578	5.775128	1.956666	0.000231
1862	1.8517e+02	-5.8635	-96.899332	0.000507	5.065902	1.716374	0.000203
1863	1.8527e+02	-5.8202	-96.685364	0.000537	5.369856	1.819356	0.000215
1864	1.8537e+02	-5.7720	-96.459284	0.000567	5.673810	1.922339	0.000227
1865	1.8547e+02	-5.7415	-96.253390	0.000517	5.167220	1.750701	0.000207
1866	1.8557e+02	-5.7063	-95.986939	0.000669	6.686990	2.265614	0.000268
1867	1.8567e+02	-5.6629	-95.756823	0.000578	5.775128	1.956666	0.000231
1868	1.8577e+02	-5.6180	-95.522669	0.000588	5.876446	1.990994	0.000235
1869	1.8587e+02	-5.5908	-95.320812	0.000507	5.065902	1.716374	0.000203
1870	1.8597e+02	-5.5362	-95.086658	0.000588	5.876446	1.990994	0.000235
1871	1.8606e+02	-5.5057	-94.872690	0.000537	5.369856	1.819356	0.000215
1872	1.8616e+02	-5.4752	-94.618350	0.000638	6.383036	2.162631	0.000256
1873	1.8626e+02	-5.4239	-94.432642	0.000466	4.660630	1.579064	0.000187
1874	1.8636e+02	-5.3790	-94.198488	0.000588	5.876446	1.990994	0.000235
1875	1.8646e+02	-5.3325	-93.940111	0.000648	6.484354	2.196959	0.000260
1876	1.8656e+02	-5.3020	-93.701920	0.000598	5.977764	2.025321	0.000239
1877	1.8666e+02	-5.2699	-93.491989	0.000527	5.268538	1.785029	0.000211
1878	1.8676e+02	-5.2266	-93.253798	0.000598	5.977764	2.025321	0.000239
1879	1.8686e+02	-5.1833	-93.039830	0.000537	5.369856	1.819356	0.000215
1880	1.8696e+02	-5.1384	-92.781454	0.000648	6.484354	2.196959	0.000260
1881	1.8706e+02	-5.1127	-92.535188	0.000618	6.180400	2.093976	0.000248
1882	1.8716e+02	-5.0630	-92.276812	0.000648	6.484354	2.196959	0.000260
1883	1.8726e+02	-5.0277	-92.066881	0.000527	5.268538	1.785029	0.000211
1884	1.8736e+02	-4.9747	-91.832727	0.000588	5.876446	1.990994	0.000235
1885	1.8746e+02	-4.9346	-91.566276	0.000669	6.686990	2.265614	0.000268
1886	1.8756e+02	-4.9073	-91.368456	0.000496	4.964584	1.682047	0.000199
1887	1.8766e+02	-4.8656	-91.057597	0.000780	7.801489	2.643216	0.000312
1888	1.8776e+02	-4.8159	-90.871888	0.000466	4.660630	1.579064	0.000187
1889	1.8786e+02	-4.7838	-90.613512	0.000648	6.484354	2.196959	0.000260
1890	1.8796e+02	-4.7469	-90.363209	0.000628	6.281718	2.128304	0.000252
1891	1.8806e+02	-4.7036	-90.149241	0.000537	5.369856	1.819356	0.000215
1892	1.8815e+02	-4.6667	-89.898939	0.000628	6.281718	2.128304	0.000252
1893	1.8825e+02	-4.6234	-89.620376	0.000699	6.990944	2.368596	0.000280
1894	1.8835e+02	-4.5785	-89.394297	0.000567	5.673810	1.922339	0.000227
1895	1.8845e+02	-4.5448	-89.164180	0.000578	5.775128	1.956666	0.000231
1896	1.8855e+02	-4.4999	-88.857358	0.000770	7.700171	2.608888	0.000308
1897	1.8865e+02	-4.4694	-88.639352	0.000547	5.471174	1.853684	0.000219
1898	1.8875e+02	-4.4213	-88.417310	0.000557	5.572492	1.888011	0.000223
1899	1.8885e+02	-4.3860	-88.158933	0.000648	6.484354	2.196959	0.000260
1900	1.8895e+02	-4.3523	-87.888445	0.000679	6.788308	2.299941	0.000272
1901	1.8905e+02	-4.3074	-87.630068	0.000648	6.484354	2.196959	0.000260
1902	1.8915e+02	-4.2705	-87.403989	0.000567	5.673810	1.922339	0.000227
1903	1.8925e+02	-4.2255	-87.149649	0.000638	6.383036	2.162631	0.000256
1904	1.8935e+02	-4.1854	-86.899347	0.000628	6.281718	2.128304	0.000252
1905	1.8945e+02	-4.1518	-86.673267	0.000567	5.673810	1.922339	0.000227
1906	1.8955e+02	-4.1052	-86.390668	0.000709	7.092263	2.402924	0.000284
1907	1.8965e+02	-4.0699	-86.099994	0.000729	7.294899	2.471579	0.000292
1908	1.8975e+02	-4.0362	-85.849691	0.000628	6.281718	2.128304	0.000252
1909	1.8985e+02	-3.9833	-85.599389	0.000628	6.281718	2.128304	0.000252
1910	1.8995e+02	-3.9448	-85.369272	0.000578	5.775128	1.956666	0.000231
1911	1.9004e+02	-3.9031	-85.127044	0.000608	6.079082	2.059649	0.000243
1912	1.9014e+02	-3.8694	-84.824259	0.000760	7.598853	2.574561	0.000304
1913	1.9024e+02	-3.8341	-84.569919	0.000638	6.383036	2.162631	0.000256
1914	1.9034e+02	-3.7828	-84.327691	0.000608	6.079082	2.059649	0.000243
1915	1.9044e+02	-3.7379	-84.053166	0.000689	6.889626	2.334269	0.000276
1916	1.9054e+02	-3.7042	-83.794789	0.000648	6.484354	2.196959	0.000260
1917	1.9064e+02	-3.6689	-83.564673	0.000578	5.775128	1.956666	0.000231
1918	1.9074e+02	-3.6240	-83.314370	0.000628	6.281718	2.128304	0.000252
1919	1.9084e+02	-3.5903	-83.007548	0.000770	7.700171	2.608888	0.000308
1920	1.9094e+02	-3.5534	-82.741097	0.000669	6.686990	2.265614	0.000268
1921	1.9104e+02	-3.5101	-82.470609	0.000679	6.788308	2.299941	0.000272
1922	1.9114e+02	-3.4684	-82.236455	0.000588	5.876446	1.990994	0.000235
1923	1.9124e+02	-3.4298	-81.933670	0.000760	7.598853	2.574561	0.000304
1924	1.9134e+02	-3.3930	-81.675293	0.000648	6.484354	2.196959	0.000260
1925	1.9144e+02	-3.3416	-81.388656	0.000719	7.193581	2.437251	0.000288
1926	1.9154e+02	-3.3111	-81.162577	0.000567	5.673810	1.922339	0.000227
1927	1.9164e+02	-3.2791	-80.851717	0.000780	7.801489	2.643216	0.000312
1928	1.9174e+02	-3.2261	-80.585266	0.000669	6.686990	2.265614	0.000268
1929	1.9184e+02	-3.1908	-80.298630	0.000719	7.193581	2.437251	0.000288
1930	1.9194e+02	-3.1587	-80.024105	0.000689	6.889626	2.334269	0.000276
1931	1.9203e+02	-3.1106	-79.741505	0.000709	7.092263	2.402924	0.000284
1932	1.9213e+02	-3.0769	-79.499277	0.000608	6.079082	2.059649	0.000243
1933	1.9223e+02	-3.0432	-79.220715	0.000699	6.990944	2.368596	0.000280
1934	1.9233e+02	-2.9871	-78.954264	0.000669	6.686990	2.265614	0.000268
1935	1.9243e+02	-2.9518	-78.659553	0.000740	7.396217	2.505906	0.000296
1936	1.9253e+02	-2.9053	-78.385027	0.000689	6.889626	2.334269	0.000276
1937	1.9263e+02	-2.8620	-78.110502	0.000689	6.889626	2.334269	0.000276
1938	1.9273e+02	-2.8267	-77.819828	0.000729	7.294899	2.471579	0.000292
1939	1.9283e+02	-2.7946	-77.533192	0.000719	7.193581	2.437251	0.000288
1940	1.9293e+02	-2.7529	-77.254629	0.000699	6.990944	2.368596	0.000280
1941	1.9303e+02	-2.7079	-76.988179	0.000669	6.686990	2.265614	0.000268
1942	1.9313e+02	-2.6727	-76.620799	0.000922	9.219941	3.123801	0.000369
1943	1.9323e+02	-2.6245	-76.386645	0.000588	5.876446	1.990994	0.000235
1944	1.9333e+02	-2.5860	-76.100009	0.000719	7.193581	2.437251	0.000288
1945	1.9343e+02	-2.5507	-75.801261	0.000750	7.497535	2.540234	0.000300
1946	1.9353e+02	-2.5090	-75.506550	0.000740	7.396217	2.505906	0.000296
1947	1.9363e+02	-2.4769	-75.244136	0.000659	6.585672	2.231286	0.000264
1948	1.9373e+02	-2.4336	-74.933276	0.000780	7.801489	2.643216	0.000312
1949	1.9383e+02	-2.4031	-74.674900	0.000648	6.484354	2.196959	0.000260
1950	1.9393e+02	-2.3486	-74.360003	0.000790	7.902807	2.677543	0.000316
1951	1.9403e+02	-2.3101	-74.032995	0.000821	8.206761	2.780526	0.000329
1952	1.9412e+02	-2.2716	-73.750396	0.000709	7.092263	2.402924	0.000284
1953	1.9422e+02	-2.2411	-73.451648	0.000750	7.497535	2.540234	0.000300
1954	1.9432e+02	-2.1930	-73.128677	0.000811	8.105443	2.746198	0.000325
1955	1.9442e+02	-2.1577	-72.866263	0.000659	6.585672	2.231286	0.000264
1956	1.9452e+02	-2.1208	-72.519069	0.000871	8.713351	2.952163	0.000349
1957	1.9462e+02	-2.0791	-72.260693	0.000648	6.484354	2.196959	0.000260
1958	1.9472e+02	-2.0358	-71.978093	0.000709	7.092263	2.402924	0.000284
1959	1.9482e+02	-1.9973	-71.679345	0.000750	7.497535	2.540234	0.000300
1960	1.9492e+02	-1.9459	-71.364448	0.000790	7.902807	2.677543	0.000316
1961	1.9502e+02	-1.9187	-71.065700	0.000750	7.497535	2.540234	0.000300
1962	1.9512e+02	-1.8721	-70.738692	0.000821	8.206761	2.780526	0.000329
1963	1.9522e+02	-1.8352	-70.464167	0.000689	6.889626	2.334269	0.000276
1964	1.9532e+02	-1.7903	-70.153308	0.000780	7.801489	2.643216	0.000312
1965	1.9542e+02	-1.7582	-69.858597	0.000740	7.396217	2.505906	0.000296
1966	1.9552e+02	-1.7181	-69.539663	0.000800	8.004125	2.711871	0.000321
1967	1.9562e+02	-1.6684	-69.265138	0.000689	6.889626	2.334269	0.000276
1968	1.9572e+02	-1.6363	-68.897759	0.000922	9.219941	3.123801	0.000369
1969	1.9582e+02	-1.5898	-68.599010	0.000750	7.497535	2.540234	0.000300
1970	1.9592e+02	-1.5609	-68.300262	0.000750	7.497535	2.540234	0.000300
1971	1.9601e+02	-1.5224	-68.009589	0.000729	7.294899	2.471579	0.000292
1972	1.9611e+02	-1.4823	-67.662395	0.000871	8.713351	2.952163	0.000349
1973	1.9621e+02	-1.4422	-67.387870	0.000689	6.889626	2.334269	0.000276
1974	1.9631e+02	-1.3973	-67.085085	0.000760	7.598853	2.574561	0.000304
1975	1.9641e+02	-1.3636	-66.697520	0.000973	9.726531	3.295438	0.000390
1976	1.9651e+02	-1.3187	-66.382623	0.000790	7.902807	2.677543	0.000316
1977	1.9661e+02	-1.2754	-66.144432	0.000598	5.977764	2.025321	0.000239
1978	1.9671e+02	-1.2321	-65.777053	0.000922	9.219941	3.123801	0.000369
1979	1.9681e+02	-1.2000	-65.494453	0.000709	7.092263	2.402924	0.000284
1980	1.9691e+02	-1.1550	-65.143222	0.000881	8.814669	2.986491	0.000353
1981	1.9701e+02	-1.1133	-64.828326	0.000790	7.902807	2.677543	0.000316
1982	1.9711e+02	-1.0780	-64.545726	0.000709	7.092263	2.402924	0.000284
1983	1.9721e+02	-1.0476	-64.222755	0.000811	8.105443	2.746198	0.000325
1984	1.9731e+02	-0.9898	-63.903822	0.000800	8.004125	2.711871	0.000321
1985	1.9741e+02	-0.9545	-63.580851	0.000811	8.105443	2.746198	0.000325
1986	1.9751e+02	-0.9128	-63.245768	0.000841	8.409397	2.849181	0.000337
1987	1.9761e+02	-0.8759	-62.906649	0.000851	8.510715	2.883508	0.000341
1988	1.9771e+02	-0.8342	-62.583678	0.000811	8.105443	2.746198	0.000325
1989	1.9781e+02	-0.7989	-62.248596	0.000841	8.409397	2.849181	0.000337
1990	1.9791e+02	-0.7556	-61.905439	0.000861	8.612033	2.917836	0.000345
1991	1.9800e+02	-0.7267	-61.586506	0.000800	8.004125	2.711871	0.000321
1992	1.9810e+02	-0.6722	-61.267572	0.000800	8.004125	2.711871	0.000321
1993	1.9820e+02	-0.6401	-60.928453	0.000851	8.510715	2.883508	0.000341
1994	1.9830e+02	-0.5952	-60.625667	0.000760	7.598853	2.574561	0.000304
1995	1.9840e+02	-0.5583	-60.278474	0.000871	8.713351	2.952163	0.000349
1996	1.9850e+02	-0.5294	-59.999911	0.000699	6.990944	2.368596	0.000280
1997	1.9860e+02	-0.4813	-59.616383	0.000963	9.625213	3.261111	0.000385
1998	1.9870e+02	-0.4347	-59.289375	0.000821	8.206761	2.780526	0.000329
1999	1.9880e+02	-0.4059	-58.938145	0.000881	8.814669	2.986491	0.000353
2000	1.9890e+02	-0.3593	-58.627285	0.000780	7.801489	2.643216	0.000312
2001	1.9900e+02	-0.3176	-58.292203	0.000841	8.409397	2.849181	0.000337
2002	1.9910e+02	-0.2791	-57.961158	0.000831	8.308079	2.814853	0.000333
2003	1.9920e+02	-0.2454	-57.609927	0.000881	8.814669	2.986491	0.000353
2004	1.9930e+02	-0.2037	-57.299068	0.000780	7.801489	2.643216	0.000312
2005	1.9940e+02	-0.1604	-56.959948	0.000851	8.510715	2.883508	0.000341
2006	1.9950e+02	-0.1219	-56.636977	0.000811	8.105443	2.746198	0.000325
2007	1.9960e+02	-0.0786	-56.257487	0.000952	9.523895	3.226783	0.000381
2008	1.9970e+02	-0.0513	-55.930479	0.000821	8.206761	2.780526	0.000329
2009	1.9980e+02	0.0096	-55.579248	0.000821	8.206761	2.780526	0.000353

Center data before PMax,+/-Pr and +/-Vc Calc.

PMax (uC/cm2):	1.45e+02
Pr (uC/cm2):	4.47e+01
-Pr (uC/cm2):	-5.56e+01
PLoss (uC/cm2):	-8.30e+01
-Vc:	-5.72e+00
C (Max-Eff) (nF):	7.26e-01
K (Eff):	2.46e+03
Vert. (+/-Pr) Shift (uC/cm2):	-5.43e+00
Offset (uC/cm2):	-2.74e+01

A (Loop Area - uC/cm2·Volts):	2.96e-01



Hysteresis Version: 5.48.1 - Radiant Technologies, Inc., 1999 - 9/12/24

