»»»»»»»»»»»»»»»»»»»»»»»»»»»»»»»»»»»» Hysteresis ««««««««««««««««««««««««««««««««««««
»»»  Executed Version:	5.48.1
»»»  Vision Version:	5.48.4 (R)
»»»  Vision Compiled:	9/18/24
»»»  Driver Version:	5.47.0
»»»  Windows Version:	Windows 8 or 8.1
»»»  Processor Information:	x86 (AMD or Intel) - 32 Processors
»»»  Tester Name:	PMF21124-494 (100V)
»»»  Tester S/N:	PMF21124-494
»»»  Internal Amp Type:	100V RevK 270k
»»»  Internal Amp S/N:	iAB2-596/K     
»»»  Execution Count:	1
»»»»»»»»»»»»»»»»»»»»»»»»»»»»»»»»»»»»»»»»»»««««««««««««««««««««««««««««««««««««««««««

Stored:	6/10/2025 - 15:51:31
Configured:	06/10/25 03:08:08 PM
Executed:	06/10/25 03:50:58 PM

»»»»»»»»»»»»»»»»»»»»»»»»»»»»»»»»»»» Sample Info ««««««««««««««««««««««««««««««««««««
Sample Name:	
Lot Name:	
Wafer Name:	
Die Row/Column:	0/0
Capacitor Number:	0
Sample Area (cm2):	1.00e-04
Sample Thickness (microns):	3.00e-01

Amplifier:	Internal

»»»»»»»»»»»»»»»»»»»»»»»»»»»»»»»»»»» Tester Info «««««««««««««««««««««««««««««««««««
Tester Name:	PMF21124-494 (100V)
Tester Serial Number:	PMF21124-494
Return Signal Amp. Level:	0.19 [Index: 3]

»»»»»»»»»»»»»»»»»»»»»»»»»»»»»»»» Hysteresis Info ««««««««««««««««««««««««««««««««««
Task Name:	Hyst-1091
Volts:	20.00
Field:	666.67 (kV/cm)
DCBias:	0.00
DCField:	0.00 (kV/cm)
Hysteresis Period (ms):	2.00e+02
Preset:	Enabled
Preset Delay (ms):	1.00e+03
Profile:	Standard Bipolar

»»»»»»»»»»»»»»»»»»»»»»»»»»»»»»»»»»»»»» Data «««««««««««««««««««««««««««««««««««««««
Points:	2009

Valid Data

Point	Time (ms)	Drive Voltage	Measured Polarization (uC/cm2)	Capacitance (uF)	Normalized Capacitance (uF/cm2)	Dielectric Constant	Instantaneous Current (mA)
   1	0.0000e+00	-0.0064	0.327008	0.000416	4.155539	1.407935	0.000166
   2	9.9500e-02	0.0289	0.492531	0.000416	4.155539	1.407935	0.000166
   3	1.9900e-01	0.0642	0.714573	0.000557	5.574504	1.888693	0.000223
   4	2.9850e-01	0.1059	0.916430	0.000507	5.067731	1.716994	0.000203
   5	3.9800e-01	0.1508	1.142509	0.000568	5.675858	1.923033	0.000227
   6	4.9750e-01	0.1861	1.332255	0.000476	4.763667	1.613974	0.000191
   7	5.9700e-01	0.2294	1.602743	0.000679	6.790759	2.300772	0.000272
   8	6.9650e-01	0.2695	1.832860	0.000578	5.777213	1.957373	0.000231
   9	7.9600e-01	0.3096	2.022605	0.000476	4.763667	1.613974	0.000191
  10	8.9550e-01	0.3481	2.252722	0.000578	5.777213	1.957373	0.000231
  11	9.9500e-01	0.3914	2.446504	0.000487	4.865022	1.648314	0.000195
  12	1.0945e+00	0.4412	2.676621	0.000578	5.777213	1.957373	0.000231
  13	1.1940e+00	0.4588	2.914812	0.000598	5.979922	2.026053	0.000239
  14	1.2935e+00	0.5134	3.161077	0.000618	6.182632	2.094732	0.000248
  15	1.3930e+00	0.5503	3.366971	0.000517	5.169085	1.751334	0.000207
  16	1.4925e+00	0.5920	3.617274	0.000628	6.283986	2.129072	0.000252
  17	1.5920e+00	0.6257	3.867576	0.000628	6.283986	2.129072	0.000252
  18	1.6915e+00	0.6674	4.077507	0.000527	5.270440	1.785673	0.000211
  19	1.7910e+00	0.7043	4.279364	0.000507	5.067731	1.716994	0.000203
  20	1.8905e+00	0.7396	4.533703	0.000639	6.385341	2.163412	0.000256
  21	1.9900e+00	0.7893	4.751709	0.000547	5.473149	1.854353	0.000219
  22	2.0895e+00	0.8198	5.002011	0.000628	6.283986	2.129072	0.000252
  23	2.1890e+00	0.8727	5.199831	0.000497	4.966376	1.682654	0.000199
  24	2.2885e+00	0.9064	5.494542	0.000740	7.398887	2.506811	0.000296
  25	2.3880e+00	0.9401	5.700436	0.000517	5.169085	1.751334	0.000207
  26	2.4875e+00	0.9802	5.906330	0.000517	5.169085	1.751334	0.000207
  27	2.5870e+00	1.0203	6.144521	0.000598	5.979922	2.026053	0.000239
  28	2.6865e+00	1.0732	6.358489	0.000537	5.371795	1.820013	0.000215
  29	2.7860e+00	1.1053	6.616865	0.000649	6.486695	2.197752	0.000260
  30	2.8855e+00	1.1454	6.826797	0.000527	5.270440	1.785673	0.000211
  31	2.9850e+00	1.1887	7.081136	0.000639	6.385341	2.163412	0.000256
  32	3.0845e+00	1.2240	7.307216	0.000568	5.675858	1.923033	0.000227
  33	3.1840e+00	1.2770	7.561555	0.000639	6.385341	2.163412	0.000256
  34	3.2835e+00	1.3058	7.771486	0.000527	5.270440	1.785673	0.000211
  35	3.3830e+00	1.3443	8.029863	0.000649	6.486695	2.197752	0.000260
  36	3.4825e+00	1.3861	8.259980	0.000578	5.777213	1.957373	0.000231
  37	3.5820e+00	1.4326	8.469911	0.000527	5.270440	1.785673	0.000211
  38	3.6815e+00	1.4550	8.760585	0.000730	7.297532	2.472471	0.000292
  39	3.7810e+00	1.5192	8.966478	0.000517	5.169085	1.751334	0.000207
  40	3.8805e+00	1.5465	9.224855	0.000649	6.486695	2.197752	0.000260
  41	3.9800e+00	1.5914	9.414601	0.000476	4.763667	1.613974	0.000191
  42	4.0795e+00	1.6283	9.677014	0.000659	6.588050	2.232092	0.000264
  43	4.1790e+00	1.6684	9.907131	0.000578	5.777213	1.957373	0.000231
  44	4.2785e+00	1.7037	10.169545	0.000659	6.588050	2.232092	0.000264
  45	4.3780e+00	1.7486	10.363327	0.000487	4.865022	1.648314	0.000195
  46	4.4775e+00	1.7743	10.601518	0.000598	5.979922	2.026053	0.000239
  47	4.5770e+00	1.8176	10.827598	0.000568	5.675858	1.923033	0.000227
  48	4.6765e+00	1.8673	11.090012	0.000659	6.588050	2.232092	0.000264
  49	4.7760e+00	1.9058	11.340314	0.000628	6.283986	2.129072	0.000252
  50	4.8755e+00	1.9507	11.530060	0.000476	4.763667	1.613974	0.000191
  51	4.9750e+00	1.9780	11.792473	0.000659	6.588050	2.232092	0.000264
  52	5.0745e+00	2.0181	12.002405	0.000527	5.270440	1.785673	0.000211
  53	5.1740e+00	2.0630	12.264818	0.000659	6.588050	2.232092	0.000264
  54	5.2735e+00	2.0999	12.454564	0.000476	4.763667	1.613974	0.000191
  55	5.3730e+00	2.1417	12.712940	0.000649	6.486695	2.197752	0.000260
  56	5.4725e+00	2.1818	12.951131	0.000598	5.979922	2.026053	0.000239
  57	5.5720e+00	2.2251	13.189322	0.000598	5.979922	2.026053	0.000239
  58	5.6715e+00	2.2716	13.443662	0.000639	6.385341	2.163412	0.000256
  59	5.7710e+00	2.2973	13.641482	0.000497	4.966376	1.682654	0.000199
  60	5.8705e+00	2.3454	13.887747	0.000618	6.182632	2.094732	0.000248
  61	5.9700e+00	2.3823	14.101715	0.000537	5.371795	1.820013	0.000215
  62	6.0695e+00	2.4320	14.396426	0.000740	7.398887	2.506811	0.000296
  63	6.1690e+00	2.4593	14.574060	0.000446	4.459603	1.510954	0.000179
  64	6.2685e+00	2.5026	14.800140	0.000568	5.675858	1.923033	0.000227
  65	6.3680e+00	2.5475	15.070628	0.000679	6.790759	2.300772	0.000272
  66	6.4675e+00	2.5780	15.260373	0.000476	4.763667	1.613974	0.000191
  67	6.5670e+00	2.6181	15.526824	0.000669	6.689405	2.266432	0.000268
  68	6.6665e+00	2.6630	15.732718	0.000517	5.169085	1.751334	0.000207
  69	6.7660e+00	2.6903	15.970909	0.000598	5.979922	2.026053	0.000239
  70	6.8655e+00	2.7416	16.196989	0.000568	5.675858	1.923033	0.000227
  71	6.9650e+00	2.7801	16.414994	0.000547	5.473149	1.854353	0.000219
  72	7.0645e+00	2.8154	16.669333	0.000639	6.385341	2.163412	0.000256
  73	7.1640e+00	2.8587	16.875227	0.000517	5.169085	1.751334	0.000207
  74	7.2635e+00	2.8972	17.113418	0.000598	5.979922	2.026053	0.000239
  75	7.3630e+00	2.9245	17.343535	0.000578	5.777213	1.957373	0.000231
  76	7.4625e+00	2.9855	17.561540	0.000547	5.473149	1.854353	0.000219
  77	7.5620e+00	3.0192	17.795694	0.000588	5.878568	1.991713	0.000235
  78	7.6615e+00	3.0625	18.021774	0.000568	5.675858	1.923033	0.000227
  79	7.7610e+00	3.1042	18.227668	0.000517	5.169085	1.751334	0.000207
  80	7.8605e+00	3.1395	18.441636	0.000537	5.371795	1.820013	0.000215
  81	7.9600e+00	3.1700	18.695976	0.000639	6.385341	2.163412	0.000256
  82	8.0595e+00	3.2213	18.926092	0.000578	5.777213	1.957373	0.000231
  83	8.1590e+00	3.2582	19.127949	0.000507	5.067731	1.716994	0.000203
  84	8.2585e+00	3.2983	19.345954	0.000547	5.473149	1.854353	0.000219
  85	8.3580e+00	3.3432	19.608368	0.000659	6.588050	2.232092	0.000264
  86	8.4575e+00	3.3753	19.810225	0.000507	5.067731	1.716994	0.000203
  87	8.5570e+00	3.4202	20.080713	0.000679	6.790759	2.300772	0.000272
  88	8.6565e+00	3.4523	20.274496	0.000487	4.865022	1.648314	0.000195
  89	8.7560e+00	3.5020	20.500575	0.000568	5.675858	1.923033	0.000227
  90	8.8555e+00	3.5454	20.730692	0.000578	5.777213	1.957373	0.000231
  91	8.9550e+00	3.5742	20.932549	0.000507	5.067731	1.716994	0.000203
  92	9.0545e+00	3.6063	21.146517	0.000537	5.371795	1.820013	0.000215
  93	9.1540e+00	3.6593	21.400857	0.000639	6.385341	2.163412	0.000256
  94	9.2535e+00	3.6913	21.606750	0.000517	5.169085	1.751334	0.000207
  95	9.3530e+00	3.7330	21.836867	0.000578	5.777213	1.957373	0.000231
  96	9.4525e+00	3.7716	22.058910	0.000557	5.574504	1.888693	0.000223
  97	9.5520e+00	3.8117	22.276915	0.000547	5.473149	1.854353	0.000219
  98	9.6515e+00	3.8582	22.462623	0.000466	4.662312	1.579634	0.000187
  99	9.7510e+00	3.8935	22.668517	0.000517	5.169085	1.751334	0.000207
 100	9.8505e+00	3.9336	22.922857	0.000639	6.385341	2.163412	0.000256
 101	9.9500e+00	3.9721	23.165085	0.000608	6.081277	2.060392	0.000243
 102	1.0050e+01	4.0170	23.346756	0.000456	4.560958	1.545294	0.000183
 103	1.0149e+01	4.0603	23.556687	0.000527	5.270440	1.785673	0.000211
 104	1.0248e+01	4.0924	23.819101	0.000659	6.588050	2.232092	0.000264
 105	1.0348e+01	4.1341	24.033069	0.000537	5.371795	1.820013	0.000215
 106	1.0447e+01	4.1790	24.243000	0.000527	5.270440	1.785673	0.000211
 107	1.0547e+01	4.2079	24.465043	0.000557	5.574504	1.888693	0.000223
 108	1.0646e+01	4.2544	24.691122	0.000568	5.675858	1.923033	0.000227
 109	1.0746e+01	4.2929	24.917202	0.000568	5.675858	1.923033	0.000227
 110	1.0845e+01	4.3314	25.115021	0.000497	4.966376	1.682654	0.000199
 111	1.0945e+01	4.3747	25.320915	0.000517	5.169085	1.751334	0.000207
 112	1.1044e+01	4.4148	25.563143	0.000608	6.081277	2.060392	0.000243
 113	1.1144e+01	4.4598	25.760963	0.000497	4.966376	1.682654	0.000199
 114	1.1243e+01	4.4951	25.970894	0.000527	5.270440	1.785673	0.000211
 115	1.1343e+01	4.5352	26.217159	0.000618	6.182632	2.094732	0.000248
 116	1.1443e+01	4.5737	26.386719	0.000426	4.256894	1.442275	0.000170
 117	1.1542e+01	4.6122	26.604725	0.000547	5.473149	1.854353	0.000219
 118	1.1642e+01	4.6507	26.822730	0.000547	5.473149	1.854353	0.000219
 119	1.1741e+01	4.6892	27.016512	0.000487	4.865022	1.648314	0.000195
 120	1.1841e+01	4.7293	27.202221	0.000466	4.662312	1.579634	0.000187
 121	1.1940e+01	4.7758	27.456560	0.000639	6.385341	2.163412	0.000256
 122	1.2040e+01	4.8143	27.646306	0.000476	4.763667	1.613974	0.000191
 123	1.2139e+01	4.8528	27.872385	0.000568	5.675858	1.923033	0.000227
 124	1.2239e+01	4.8961	28.090390	0.000547	5.473149	1.854353	0.000219
 125	1.2338e+01	4.9330	28.292247	0.000507	5.067731	1.716994	0.000203
 126	1.2438e+01	4.9683	28.502178	0.000527	5.270440	1.785673	0.000211
 127	1.2537e+01	5.0116	28.695961	0.000487	4.865022	1.648314	0.000195
 128	1.2636e+01	5.0485	28.918003	0.000557	5.574504	1.888693	0.000223
 129	1.2736e+01	5.0870	29.107749	0.000476	4.763667	1.613974	0.000191
 130	1.2835e+01	5.1319	29.317680	0.000527	5.270440	1.785673	0.000211
 131	1.2935e+01	5.1688	29.515499	0.000497	4.966376	1.682654	0.000199
 132	1.3034e+01	5.2089	29.725430	0.000527	5.270440	1.785673	0.000211
 133	1.3134e+01	5.2507	29.923250	0.000497	4.966376	1.682654	0.000199
 134	1.3233e+01	5.2940	30.137218	0.000537	5.371795	1.820013	0.000215
 135	1.3333e+01	5.3277	30.343112	0.000517	5.169085	1.751334	0.000207
 136	1.3432e+01	5.3742	30.536895	0.000487	4.865022	1.648314	0.000195
 137	1.3532e+01	5.4063	30.742789	0.000517	5.169085	1.751334	0.000207
 138	1.3632e+01	5.4480	30.964831	0.000557	5.574504	1.888693	0.000223
 139	1.3731e+01	5.4881	31.186874	0.000557	5.574504	1.888693	0.000223
 140	1.3831e+01	5.5314	31.384693	0.000497	4.966376	1.682654	0.000199
 141	1.3930e+01	5.5683	31.606736	0.000557	5.574504	1.888693	0.000223
 142	1.4030e+01	5.6148	31.764184	0.000395	3.952830	1.339255	0.000158
 143	1.4129e+01	5.6533	32.002375	0.000598	5.979922	2.026053	0.000239
 144	1.4229e+01	5.6790	32.151749	0.000375	3.750121	1.270575	0.000150
 145	1.4328e+01	5.7319	32.389940	0.000598	5.979922	2.026053	0.000239
 146	1.4428e+01	5.7688	32.591797	0.000507	5.067731	1.716994	0.000203
 147	1.4527e+01	5.8025	32.805765	0.000537	5.371795	1.820013	0.000215
 148	1.4627e+01	5.8442	32.983399	0.000446	4.459603	1.510954	0.000179
 149	1.4726e+01	5.8907	33.181219	0.000497	4.966376	1.682654	0.000199
 150	1.4825e+01	5.9308	33.427484	0.000618	6.182632	2.094732	0.000248
 151	1.4925e+01	5.9661	33.572821	0.000365	3.648766	1.236235	0.000146
 152	1.5024e+01	6.0062	33.798900	0.000568	5.675858	1.923033	0.000227
 153	1.5124e+01	6.0383	34.033054	0.000588	5.878568	1.991713	0.000235
 154	1.5223e+01	6.0929	34.198577	0.000416	4.155539	1.407935	0.000166
 155	1.5323e+01	6.1234	34.388322	0.000476	4.763667	1.613974	0.000191
 156	1.5422e+01	6.1586	34.569993	0.000456	4.560958	1.545294	0.000183
 157	1.5522e+01	6.2084	34.836444	0.000669	6.689405	2.266432	0.000268
 158	1.5621e+01	6.2517	34.997930	0.000405	4.054185	1.373595	0.000162
 159	1.5721e+01	6.2886	35.199786	0.000507	5.067731	1.716994	0.000203
 160	1.5820e+01	6.3255	35.433940	0.000588	5.878568	1.991713	0.000235
 161	1.5920e+01	6.3736	35.579277	0.000365	3.648766	1.236235	0.000146
 162	1.6020e+01	6.4089	35.813431	0.000588	5.878568	1.991713	0.000235
 163	1.6119e+01	6.4490	35.995102	0.000456	4.560958	1.545294	0.000183
 164	1.6218e+01	6.4923	36.184848	0.000476	4.763667	1.613974	0.000191
 165	1.6318e+01	6.5244	36.378630	0.000487	4.865022	1.648314	0.000195
 166	1.6418e+01	6.5677	36.564338	0.000466	4.662312	1.579634	0.000187
 167	1.6517e+01	6.6030	36.758121	0.000487	4.865022	1.648314	0.000195
 168	1.6616e+01	6.6383	36.964015	0.000517	5.169085	1.751334	0.000207
 169	1.6716e+01	6.6864	37.125500	0.000405	4.054185	1.373595	0.000162
 170	1.6816e+01	6.7153	37.404063	0.000699	6.993468	2.369451	0.000280
 171	1.6915e+01	6.7602	37.545362	0.000355	3.547412	1.201896	0.000142
 172	1.7015e+01	6.8116	37.739145	0.000487	4.865022	1.648314	0.000195
 173	1.7114e+01	6.8324	37.904667	0.000416	4.155539	1.407935	0.000166
 174	1.7213e+01	6.8838	38.082301	0.000446	4.459603	1.510954	0.000179
 175	1.7313e+01	6.9175	38.324530	0.000608	6.081277	2.060392	0.000243
 176	1.7413e+01	6.9624	38.498126	0.000436	4.358248	1.476615	0.000174
 177	1.7512e+01	7.0009	38.691909	0.000487	4.865022	1.648314	0.000195
 178	1.7611e+01	7.0410	38.885691	0.000487	4.865022	1.648314	0.000195
 179	1.7711e+01	7.0763	39.059288	0.000436	4.358248	1.476615	0.000174
 180	1.7811e+01	7.1244	39.244997	0.000466	4.662312	1.579634	0.000187
 181	1.7910e+01	7.1597	39.487225	0.000608	6.081277	2.060392	0.000243
 182	1.8009e+01	7.1982	39.616413	0.000324	3.243348	1.098876	0.000130
 183	1.8109e+01	7.2399	39.830381	0.000537	5.371795	1.820013	0.000215
 184	1.8209e+01	7.2816	40.020127	0.000476	4.763667	1.613974	0.000191
 185	1.8308e+01	7.3265	40.197761	0.000446	4.459603	1.510954	0.000179
 186	1.8407e+01	7.3682	40.407692	0.000527	5.270440	1.785673	0.000211
 187	1.8507e+01	7.4116	40.577251	0.000426	4.256894	1.442275	0.000170
 188	1.8607e+01	7.4485	40.766997	0.000476	4.763667	1.613974	0.000191
 189	1.8706e+01	7.4757	40.932519	0.000416	4.155539	1.407935	0.000166
 190	1.8805e+01	7.5158	41.081893	0.000375	3.750121	1.270575	0.000150
 191	1.8905e+01	7.5656	41.283750	0.000507	5.067731	1.716994	0.000203
 192	1.9005e+01	7.6009	41.477533	0.000487	4.865022	1.648314	0.000195
 193	1.9104e+01	7.6345	41.695538	0.000547	5.473149	1.854353	0.000219
 194	1.9203e+01	7.6795	41.885283	0.000476	4.763667	1.613974	0.000191
 195	1.9303e+01	7.7276	42.054843	0.000426	4.256894	1.442275	0.000170
 196	1.9402e+01	7.7565	42.196143	0.000355	3.547412	1.201896	0.000142
 197	1.9502e+01	7.8062	42.398000	0.000507	5.067731	1.716994	0.000203
 198	1.9602e+01	7.8303	42.575633	0.000446	4.459603	1.510954	0.000179
 199	1.9701e+01	7.8672	42.789602	0.000537	5.371795	1.820013	0.000215
 200	1.9800e+01	7.9185	42.967236	0.000446	4.459603	1.510954	0.000179
 201	1.9900e+01	7.9634	43.169092	0.000507	5.067731	1.716994	0.000203
 202	2.0000e+01	7.9987	43.322504	0.000385	3.851475	1.304915	0.000154
 203	2.0099e+01	8.0372	43.532435	0.000527	5.270440	1.785673	0.000211
 204	2.0198e+01	8.0709	43.657586	0.000314	3.141993	1.064536	0.000126
 205	2.0298e+01	8.1190	43.867517	0.000527	5.270440	1.785673	0.000211
 206	2.0398e+01	8.1591	44.037077	0.000426	4.256894	1.442275	0.000170
 207	2.0497e+01	8.1928	44.230859	0.000487	4.865022	1.648314	0.000195
 208	2.0596e+01	8.2458	44.436753	0.000517	5.169085	1.751334	0.000207
 209	2.0696e+01	8.2778	44.622461	0.000466	4.662312	1.579634	0.000187
 210	2.0796e+01	8.3228	44.779910	0.000395	3.952830	1.339255	0.000158
 211	2.0895e+01	8.3645	44.965618	0.000466	4.662312	1.579634	0.000187
 212	2.0994e+01	8.4030	45.135178	0.000426	4.256894	1.442275	0.000170
 213	2.1094e+01	8.4318	45.324923	0.000476	4.763667	1.613974	0.000191
 214	2.1194e+01	8.4784	45.474297	0.000375	3.750121	1.270575	0.000150
 215	2.1293e+01	8.5137	45.664042	0.000476	4.763667	1.613974	0.000191
 216	2.1392e+01	8.5602	45.861862	0.000497	4.966376	1.682654	0.000199
 217	2.1492e+01	8.5891	46.011236	0.000375	3.750121	1.270575	0.000150
 218	2.1591e+01	8.6356	46.209056	0.000497	4.966376	1.682654	0.000199
 219	2.1691e+01	8.6805	46.394764	0.000466	4.662312	1.579634	0.000187
 220	2.1791e+01	8.7174	46.564324	0.000426	4.256894	1.442275	0.000170
 221	2.1890e+01	8.7527	46.762143	0.000497	4.966376	1.682654	0.000199
 222	2.1989e+01	8.8008	46.883257	0.000304	3.040638	1.030196	0.000122
 223	2.2089e+01	8.8393	47.085114	0.000507	5.067731	1.716994	0.000203
 224	2.2189e+01	8.8842	47.250637	0.000416	4.155539	1.407935	0.000166
 225	2.2288e+01	8.9163	47.412122	0.000405	4.054185	1.373595	0.000162
 226	2.2387e+01	8.9548	47.561496	0.000375	3.750121	1.270575	0.000150
 227	2.2487e+01	8.9917	47.759316	0.000497	4.966376	1.682654	0.000199
 228	2.2587e+01	9.0302	47.936950	0.000446	4.459603	1.510954	0.000179
 229	2.2686e+01	9.0767	48.090361	0.000385	3.851475	1.304915	0.000154
 230	2.2785e+01	9.1072	48.300292	0.000527	5.270440	1.785673	0.000211
 231	2.2885e+01	9.1521	48.453703	0.000385	3.851475	1.304915	0.000154
 232	2.2985e+01	9.1987	48.627300	0.000436	4.358248	1.476615	0.000174
 233	2.3084e+01	9.2275	48.784748	0.000395	3.952830	1.339255	0.000158
 234	2.3183e+01	9.2821	48.966419	0.000456	4.560958	1.545294	0.000183
 235	2.3283e+01	9.3078	49.176350	0.000527	5.270440	1.785673	0.000211
 236	2.3383e+01	9.3511	49.301502	0.000314	3.141993	1.064536	0.000126
 237	2.3482e+01	9.3944	49.467024	0.000416	4.155539	1.407935	0.000166
 238	2.3581e+01	9.4361	49.616398	0.000375	3.750121	1.270575	0.000150
 239	2.3681e+01	9.4698	49.794032	0.000446	4.459603	1.510954	0.000179
 240	2.3780e+01	9.5163	49.995889	0.000507	5.067731	1.716994	0.000203
 241	2.3880e+01	9.5548	50.141226	0.000365	3.648766	1.236235	0.000146
 242	2.3980e+01	9.5981	50.266377	0.000314	3.141993	1.064536	0.000126
 243	2.4079e+01	9.6270	50.488420	0.000557	5.574504	1.888693	0.000223
 244	2.4178e+01	9.6767	50.682202	0.000487	4.865022	1.648314	0.000195
 245	2.4278e+01	9.7072	50.811390	0.000324	3.243348	1.098876	0.000130
 246	2.4378e+01	9.7569	50.980950	0.000426	4.256894	1.442275	0.000170
 247	2.4477e+01	9.8067	51.134361	0.000385	3.851475	1.304915	0.000154
 248	2.4576e+01	9.8372	51.307958	0.000436	4.358248	1.476615	0.000174
 249	2.4676e+01	9.8708	51.453295	0.000365	3.648766	1.236235	0.000146
 250	2.4776e+01	9.9061	51.598632	0.000365	3.648766	1.236235	0.000146
 251	2.4875e+01	9.9495	51.784340	0.000466	4.662312	1.579634	0.000187
 252	2.4974e+01	9.9847	51.937751	0.000385	3.851475	1.304915	0.000154
 253	2.5074e+01	10.0232	52.111348	0.000436	4.358248	1.476615	0.000174
 254	2.5174e+01	10.0714	52.264759	0.000385	3.851475	1.304915	0.000154
 255	2.5273e+01	10.1115	52.454505	0.000476	4.763667	1.613974	0.000191
 256	2.5372e+01	10.1484	52.624064	0.000426	4.256894	1.442275	0.000170
 257	2.5472e+01	10.1885	52.777476	0.000385	3.851475	1.304915	0.000154
 258	2.5572e+01	10.2238	52.902627	0.000314	3.141993	1.064536	0.000126
 259	2.5671e+01	10.2671	53.068149	0.000416	4.155539	1.407935	0.000166
 260	2.5770e+01	10.3184	53.229635	0.000405	4.054185	1.373595	0.000162
 261	2.5870e+01	10.3489	53.423417	0.000487	4.865022	1.648314	0.000195
 262	2.5970e+01	10.3890	53.560680	0.000345	3.446057	1.167556	0.000138
 263	2.6069e+01	10.4371	53.758499	0.000497	4.966376	1.682654	0.000199
 264	2.6169e+01	10.4644	53.907874	0.000375	3.750121	1.270575	0.000150
 265	2.6268e+01	10.5141	54.049173	0.000355	3.547412	1.201896	0.000142
 266	2.6367e+01	10.5559	54.222770	0.000436	4.358248	1.476615	0.000174
 267	2.6467e+01	10.5863	54.396367	0.000436	4.358248	1.476615	0.000174
 268	2.6567e+01	10.6280	54.553815	0.000395	3.952830	1.339255	0.000158
 269	2.6666e+01	10.6762	54.719338	0.000416	4.155539	1.407935	0.000166
 270	2.6765e+01	10.7179	54.864675	0.000365	3.648766	1.236235	0.000146
 271	2.6865e+01	10.7564	55.030197	0.000416	4.155539	1.407935	0.000166
 272	2.6965e+01	10.8013	55.211868	0.000456	4.560958	1.545294	0.000183
 273	2.7064e+01	10.8318	55.324908	0.000284	2.837929	0.961516	0.000114
 274	2.7163e+01	10.8639	55.506579	0.000456	4.560958	1.545294	0.000183
 275	2.7263e+01	10.9168	55.668065	0.000405	4.054185	1.373595	0.000162
 276	2.7363e+01	10.9425	55.829550	0.000405	4.054185	1.373595	0.000162
 277	2.7462e+01	10.9794	55.995073	0.000416	4.155539	1.407935	0.000166
 278	2.7561e+01	11.0291	56.172707	0.000446	4.459603	1.510954	0.000179
 279	2.7661e+01	11.0772	56.326118	0.000385	3.851475	1.304915	0.000154
 280	2.7761e+01	11.1077	56.503752	0.000446	4.459603	1.510954	0.000179
 281	2.7860e+01	11.1478	56.636977	0.000334	3.344702	1.133216	0.000134
 282	2.7959e+01	11.1911	56.766166	0.000324	3.243348	1.098876	0.000130
 283	2.8059e+01	11.2312	56.931688	0.000416	4.155539	1.407935	0.000166
 284	2.8159e+01	11.2713	57.141619	0.000527	5.270440	1.785673	0.000211
 285	2.8258e+01	11.3018	57.230436	0.000223	2.229802	0.755477	0.000089
 286	2.8358e+01	11.3435	57.432293	0.000507	5.067731	1.716994	0.000203
 287	2.8457e+01	11.3868	57.553407	0.000304	3.040638	1.030196	0.000122
 288	2.8556e+01	11.4253	57.739115	0.000466	4.662312	1.579634	0.000187
 289	2.8656e+01	11.4719	57.848118	0.000274	2.736575	0.927177	0.000110
 290	2.8756e+01	11.5088	58.021715	0.000436	4.358248	1.476615	0.000174
 291	2.8855e+01	11.5473	58.203386	0.000456	4.560958	1.545294	0.000183
 292	2.8954e+01	11.5922	58.393131	0.000476	4.763667	1.613974	0.000191
 293	2.9054e+01	11.6179	58.518283	0.000314	3.141993	1.064536	0.000126
 294	2.9154e+01	11.6676	58.599025	0.000203	2.027092	0.686797	0.000081
 295	2.9253e+01	11.7125	58.833179	0.000588	5.878568	1.991713	0.000235
 296	2.9352e+01	11.7542	58.970442	0.000345	3.446057	1.167556	0.000138
 297	2.9452e+01	11.7815	59.103667	0.000334	3.344702	1.133216	0.000134
 298	2.9552e+01	11.8248	59.232856	0.000324	3.243348	1.098876	0.000130
 299	2.9651e+01	11.8633	59.398378	0.000416	4.155539	1.407935	0.000166
 300	2.9750e+01	11.9098	59.612346	0.000537	5.371795	1.820013	0.000215
 301	2.9850e+01	11.9355	59.741535	0.000324	3.243348	1.098876	0.000130
 302	2.9950e+01	11.9820	59.898983	0.000395	3.952830	1.339255	0.000158
 303	3.0049e+01	12.0301	60.028171	0.000324	3.243348	1.098876	0.000130
 304	3.0148e+01	12.0606	60.189657	0.000405	4.054185	1.373595	0.000162
 305	3.0248e+01	12.1104	60.330956	0.000355	3.547412	1.201896	0.000142
 306	3.0348e+01	12.1537	60.520702	0.000476	4.763667	1.613974	0.000191
 307	3.0447e+01	12.1858	60.657964	0.000345	3.446057	1.167556	0.000138
 308	3.0547e+01	12.2146	60.843673	0.000466	4.662312	1.579634	0.000187
 309	3.0646e+01	12.2660	60.964787	0.000304	3.040638	1.030196	0.000122
 310	3.0745e+01	12.3029	61.130309	0.000416	4.155539	1.407935	0.000166
 311	3.0845e+01	12.3462	61.299869	0.000426	4.256894	1.442275	0.000170
 312	3.0945e+01	12.3815	61.441169	0.000355	3.547412	1.201896	0.000142
 313	3.1044e+01	12.4232	61.554209	0.000284	2.837929	0.961516	0.000114
 314	3.1143e+01	12.4617	61.760103	0.000517	5.169085	1.751334	0.000207
 315	3.1243e+01	12.5050	61.929662	0.000426	4.256894	1.442275	0.000170
 316	3.1343e+01	12.5467	62.014442	0.000213	2.128447	0.721137	0.000085
 317	3.1442e+01	12.5788	62.192076	0.000446	4.459603	1.510954	0.000179
 318	3.1541e+01	12.6125	62.345487	0.000385	3.851475	1.304915	0.000154
 319	3.1641e+01	12.6686	62.515047	0.000426	4.256894	1.442275	0.000170
 320	3.1741e+01	12.7039	62.684607	0.000426	4.256894	1.442275	0.000170
 321	3.1840e+01	12.7408	62.813795	0.000324	3.243348	1.098876	0.000130
 322	3.1939e+01	12.7809	62.955095	0.000355	3.547412	1.201896	0.000142
 323	3.2039e+01	12.8146	63.104469	0.000375	3.750121	1.270575	0.000150
 324	3.2139e+01	12.8643	63.286140	0.000456	4.560958	1.545294	0.000183
 325	3.2238e+01	12.9012	63.435514	0.000375	3.750121	1.270575	0.000150
 326	3.2337e+01	12.9413	63.572776	0.000345	3.446057	1.167556	0.000138
 327	3.2437e+01	12.9911	63.730225	0.000395	3.952830	1.339255	0.000158
 328	3.2536e+01	13.0119	63.883636	0.000385	3.851475	1.304915	0.000154
 329	3.2636e+01	13.0520	64.045121	0.000405	4.054185	1.373595	0.000162
 330	3.2736e+01	13.0954	64.170273	0.000314	3.141993	1.064536	0.000126
 331	3.2835e+01	13.1403	64.331758	0.000405	4.054185	1.373595	0.000162
 332	3.2934e+01	13.1820	64.513429	0.000456	4.560958	1.545294	0.000183
 333	3.3034e+01	13.2269	64.618395	0.000264	2.635220	0.892837	0.000105
 334	3.3133e+01	13.2606	64.812177	0.000487	4.865022	1.648314	0.000195
 335	3.3233e+01	13.2927	64.945403	0.000334	3.344702	1.133216	0.000134
 336	3.3333e+01	13.3376	65.082665	0.000345	3.446057	1.167556	0.000138
 337	3.3432e+01	13.3745	65.256262	0.000436	4.358248	1.476615	0.000174
 338	3.3532e+01	13.4178	65.385450	0.000324	3.243348	1.098876	0.000130
 339	3.3631e+01	13.4515	65.522713	0.000345	3.446057	1.167556	0.000138
 340	3.3730e+01	13.5012	65.680161	0.000395	3.952830	1.339255	0.000158
 341	3.3830e+01	13.5429	65.777053	0.000243	2.432511	0.824157	0.000097
 342	3.3929e+01	13.5798	66.007169	0.000578	5.777213	1.957373	0.000231
 343	3.4029e+01	13.6247	66.180766	0.000436	4.358248	1.476615	0.000174
 344	3.4129e+01	13.6504	66.285732	0.000264	2.635220	0.892837	0.000105
 345	3.4228e+01	13.7001	66.435106	0.000375	3.750121	1.270575	0.000150
 346	3.4328e+01	13.7370	66.604665	0.000426	4.256894	1.442275	0.000170
 347	3.4427e+01	13.7836	66.750002	0.000365	3.648766	1.236235	0.000146
 348	3.4526e+01	13.8140	66.871116	0.000304	3.040638	1.030196	0.000122
 349	3.4626e+01	13.8574	67.020490	0.000375	3.750121	1.270575	0.000150
 350	3.4725e+01	13.8991	67.177939	0.000395	3.952830	1.339255	0.000158
 351	3.4825e+01	13.9199	67.363647	0.000466	4.662312	1.579634	0.000187
 352	3.4925e+01	13.9745	67.472650	0.000274	2.736575	0.927177	0.000110
 353	3.5024e+01	14.0194	67.613949	0.000355	3.547412	1.201896	0.000142
 354	3.5123e+01	14.0563	67.759286	0.000365	3.648766	1.236235	0.000146
 355	3.5223e+01	14.0964	67.924809	0.000416	4.155539	1.407935	0.000166
 356	3.5322e+01	14.1349	68.053997	0.000324	3.243348	1.098876	0.000130
 357	3.5422e+01	14.1638	68.203371	0.000375	3.750121	1.270575	0.000150
 358	3.5522e+01	14.2087	68.324485	0.000304	3.040638	1.030196	0.000122
 359	3.5621e+01	14.2520	68.514231	0.000476	4.763667	1.613974	0.000191
 360	3.5721e+01	14.2921	68.631308	0.000294	2.939284	0.995856	0.000118
 361	3.5820e+01	14.3290	68.796830	0.000416	4.155539	1.407935	0.000166
 362	3.5919e+01	14.3755	68.926018	0.000324	3.243348	1.098876	0.000130
 363	3.6019e+01	14.4140	69.067318	0.000355	3.547412	1.201896	0.000142
 364	3.6118e+01	14.4477	69.196507	0.000324	3.243348	1.098876	0.000130
 365	3.6218e+01	14.4926	69.366066	0.000426	4.256894	1.442275	0.000170
 366	3.6318e+01	14.5327	69.547737	0.000456	4.560958	1.545294	0.000183
 367	3.6417e+01	14.5793	69.680963	0.000334	3.344702	1.133216	0.000134
 368	3.6517e+01	14.6033	69.838411	0.000395	3.952830	1.339255	0.000158
 369	3.6616e+01	14.6547	69.939340	0.000253	2.533865	0.858497	0.000101
 370	3.6715e+01	14.6900	70.096788	0.000395	3.952830	1.339255	0.000158
 371	3.6815e+01	14.7381	70.238088	0.000355	3.547412	1.201896	0.000142
 372	3.6914e+01	14.7654	70.359202	0.000304	3.040638	1.030196	0.000122
 373	3.7014e+01	14.8119	70.528761	0.000426	4.256894	1.442275	0.000170
 374	3.7114e+01	14.8536	70.670061	0.000355	3.547412	1.201896	0.000142
 375	3.7213e+01	14.8905	70.807324	0.000345	3.446057	1.167556	0.000138
 376	3.7313e+01	14.9418	70.993032	0.000466	4.662312	1.579634	0.000187
 377	3.7412e+01	14.9691	71.106072	0.000284	2.837929	0.961516	0.000114
 378	3.7511e+01	15.0092	71.275631	0.000426	4.256894	1.442275	0.000170
 379	3.7611e+01	15.0445	71.380597	0.000264	2.635220	0.892837	0.000105
 380	3.7711e+01	15.0958	71.517860	0.000345	3.446057	1.167556	0.000138
 381	3.7810e+01	15.1215	71.675308	0.000395	3.952830	1.339255	0.000158
 382	3.7910e+01	15.1744	71.824682	0.000375	3.750121	1.270575	0.000150
 383	3.8009e+01	15.2097	71.982130	0.000395	3.952830	1.339255	0.000158
 384	3.8108e+01	15.2450	72.143616	0.000405	4.054185	1.373595	0.000162
 385	3.8208e+01	15.2899	72.252618	0.000274	2.736575	0.927177	0.000110
 386	3.8307e+01	15.3268	72.381807	0.000324	3.243348	1.098876	0.000130
 387	3.8407e+01	15.3750	72.523106	0.000355	3.547412	1.201896	0.000142
 388	3.8507e+01	15.4199	72.676518	0.000385	3.851475	1.304915	0.000154
 389	3.8606e+01	15.4616	72.842040	0.000416	4.155539	1.407935	0.000166
 390	3.8706e+01	15.4841	72.975266	0.000334	3.344702	1.133216	0.000134
 391	3.8805e+01	15.5322	73.100417	0.000314	3.141993	1.064536	0.000126
 392	3.8904e+01	15.5675	73.229605	0.000324	3.243348	1.098876	0.000130
 393	3.9004e+01	15.6060	73.403202	0.000436	4.358248	1.476615	0.000174
 394	3.9103e+01	15.6429	73.536427	0.000334	3.344702	1.133216	0.000134
 395	3.9203e+01	15.6814	73.710024	0.000436	4.358248	1.476615	0.000174
 396	3.9303e+01	15.7311	73.810953	0.000253	2.533865	0.858497	0.000101
 397	3.9402e+01	15.7584	73.944178	0.000334	3.344702	1.133216	0.000134
 398	3.9502e+01	15.8049	74.129886	0.000466	4.662312	1.579634	0.000187
 399	3.9601e+01	15.8466	74.246963	0.000294	2.939284	0.995856	0.000118
 400	3.9700e+01	15.8915	74.376152	0.000324	3.243348	1.098876	0.000130
 401	3.9800e+01	15.9252	74.537637	0.000405	4.054185	1.373595	0.000162
 402	3.9900e+01	15.9621	74.630491	0.000233	2.331156	0.789817	0.000093
 403	3.9999e+01	16.0054	74.783902	0.000385	3.851475	1.304915	0.000154
 404	4.0099e+01	16.0455	74.933276	0.000375	3.750121	1.270575	0.000150
 405	4.0198e+01	16.0889	75.078613	0.000365	3.648766	1.236235	0.000146
 406	4.0297e+01	16.1274	75.236062	0.000395	3.952830	1.339255	0.000158
 407	4.0397e+01	16.1659	75.357176	0.000304	3.040638	1.030196	0.000122
 408	4.0496e+01	16.2108	75.490401	0.000334	3.344702	1.133216	0.000134
 409	4.0596e+01	16.2509	75.623627	0.000334	3.344702	1.133216	0.000134
 410	4.0696e+01	16.2862	75.768964	0.000365	3.648766	1.236235	0.000146
 411	4.0795e+01	16.3215	75.914300	0.000365	3.648766	1.236235	0.000146
 412	4.0895e+01	16.3632	76.047526	0.000334	3.344702	1.133216	0.000134
 413	4.0994e+01	16.4033	76.156529	0.000274	2.736575	0.927177	0.000110
 414	4.1093e+01	16.4482	76.354348	0.000497	4.966376	1.682654	0.000199
 415	4.1193e+01	16.4835	76.487574	0.000334	3.344702	1.133216	0.000134
 416	4.1292e+01	16.5300	76.560242	0.000182	1.824383	0.618118	0.000073
 417	4.1392e+01	16.5717	76.741913	0.000456	4.560958	1.545294	0.000183
 418	4.1492e+01	16.6022	76.903399	0.000405	4.054185	1.373595	0.000162
 419	4.1591e+01	16.6423	76.996253	0.000233	2.331156	0.789817	0.000093
 420	4.1691e+01	16.6872	77.173887	0.000446	4.459603	1.510954	0.000179
 421	4.1790e+01	16.7225	77.295001	0.000304	3.040638	1.030196	0.000122
 422	4.1889e+01	16.7674	77.416115	0.000304	3.040638	1.030196	0.000122
 423	4.1989e+01	16.8108	77.577600	0.000405	4.054185	1.373595	0.000162
 424	4.2089e+01	16.8428	77.743123	0.000416	4.155539	1.407935	0.000166
 425	4.2188e+01	16.8894	77.848088	0.000264	2.635220	0.892837	0.000105
 426	4.2288e+01	16.9231	77.997462	0.000375	3.750121	1.270575	0.000150
 427	4.2387e+01	16.9599	78.134725	0.000345	3.446057	1.167556	0.000138
 428	4.2486e+01	16.9985	78.255839	0.000304	3.040638	1.030196	0.000122
 429	4.2586e+01	17.0466	78.385027	0.000324	3.243348	1.098876	0.000130
 430	4.2685e+01	17.0835	78.526327	0.000355	3.547412	1.201896	0.000142
 431	4.2785e+01	17.1284	78.679738	0.000385	3.851475	1.304915	0.000154
 432	4.2885e+01	17.1653	78.776630	0.000243	2.432511	0.824157	0.000097
 433	4.2984e+01	17.2038	78.954264	0.000446	4.459603	1.510954	0.000179
 434	4.3084e+01	17.2439	79.083452	0.000324	3.243348	1.098876	0.000130
 435	4.3183e+01	17.2776	79.253012	0.000426	4.256894	1.442275	0.000170
 436	4.3282e+01	17.3241	79.366051	0.000284	2.837929	0.961516	0.000114
 437	4.3382e+01	17.3594	79.547723	0.000456	4.560958	1.545294	0.000183
 438	4.3481e+01	17.4075	79.672874	0.000314	3.141993	1.064536	0.000126
 439	4.3581e+01	17.4460	79.810136	0.000345	3.446057	1.167556	0.000138
 440	4.3681e+01	17.4829	79.951436	0.000355	3.547412	1.201896	0.000142
 441	4.3780e+01	17.5295	80.120996	0.000426	4.256894	1.442275	0.000170
 442	4.3880e+01	17.5615	80.217887	0.000243	2.432511	0.824157	0.000097
 443	4.3979e+01	17.5984	80.379373	0.000405	4.054185	1.373595	0.000162
 444	4.4078e+01	17.6434	80.488375	0.000274	2.736575	0.927177	0.000110
 445	4.4178e+01	17.6867	80.633712	0.000365	3.648766	1.236235	0.000146
 446	4.4278e+01	17.7188	80.762900	0.000324	3.243348	1.098876	0.000130
 447	4.4377e+01	17.7637	80.920349	0.000395	3.952830	1.339255	0.000158
 448	4.4477e+01	17.8038	81.025314	0.000264	2.635220	0.892837	0.000105
 449	4.4576e+01	17.8359	81.206985	0.000456	4.560958	1.545294	0.000183
 450	4.4675e+01	17.8824	81.295802	0.000223	2.229802	0.755477	0.000089
 451	4.4775e+01	17.9241	81.477473	0.000456	4.560958	1.545294	0.000183
 452	4.4874e+01	17.9642	81.594550	0.000294	2.939284	0.995856	0.000118
 453	4.4974e+01	17.9963	81.735850	0.000355	3.547412	1.201896	0.000142
 454	4.5074e+01	18.0396	81.881187	0.000365	3.648766	1.236235	0.000146
 455	4.5173e+01	18.0733	82.034598	0.000385	3.851475	1.304915	0.000154
 456	4.5273e+01	18.1134	82.179935	0.000365	3.648766	1.236235	0.000146
 457	4.5372e+01	18.1503	82.341421	0.000405	4.054185	1.373595	0.000162
 458	4.5471e+01	18.2000	82.474646	0.000334	3.344702	1.133216	0.000134
 459	4.5571e+01	18.2417	82.611909	0.000345	3.446057	1.167556	0.000138
 460	4.5670e+01	18.2802	82.737060	0.000314	3.141993	1.064536	0.000126
 461	4.5770e+01	18.3123	82.821840	0.000213	2.128447	0.721137	0.000085
 462	4.5870e+01	18.3540	82.991399	0.000426	4.256894	1.442275	0.000170
 463	4.5969e+01	18.3973	83.201330	0.000527	5.270440	1.785673	0.000211
 464	4.6069e+01	18.4407	83.278036	0.000193	1.925738	0.652458	0.000077
 465	4.6168e+01	18.4695	83.423373	0.000365	3.648766	1.236235	0.000146
 466	4.6267e+01	18.5145	83.552561	0.000324	3.243348	1.098876	0.000130
 467	4.6367e+01	18.5562	83.722121	0.000426	4.256894	1.442275	0.000170
 468	4.6467e+01	18.5963	83.851309	0.000324	3.243348	1.098876	0.000130
 469	4.6566e+01	18.6380	83.980498	0.000324	3.243348	1.098876	0.000130
 470	4.6666e+01	18.6781	84.129872	0.000375	3.750121	1.270575	0.000150
 471	4.6765e+01	18.7134	84.299431	0.000426	4.256894	1.442275	0.000170
 472	4.6864e+01	18.7535	84.416508	0.000294	2.939284	0.995856	0.000118
 473	4.6964e+01	18.8032	84.565882	0.000375	3.750121	1.270575	0.000150
 474	4.7063e+01	18.8369	84.686996	0.000304	3.040638	1.030196	0.000122
 475	4.7163e+01	18.8802	84.860593	0.000436	4.358248	1.476615	0.000174
 476	4.7263e+01	18.9187	85.030153	0.000426	4.256894	1.442275	0.000170
 477	4.7362e+01	18.9540	85.098784	0.000172	1.723028	0.583778	0.000069
 478	4.7462e+01	18.9957	85.268344	0.000426	4.256894	1.442275	0.000170
 479	4.7561e+01	19.0342	85.393495	0.000314	3.141993	1.064536	0.000126
 480	4.7660e+01	19.0856	85.530758	0.000345	3.446057	1.167556	0.000138
 481	4.7760e+01	19.1160	85.712429	0.000456	4.560958	1.545294	0.000183
 482	4.7859e+01	19.1610	85.865840	0.000385	3.851475	1.304915	0.000154
 483	4.7959e+01	19.1979	86.011177	0.000365	3.648766	1.236235	0.000146
 484	4.8059e+01	19.2444	86.104031	0.000233	2.331156	0.789817	0.000093
 485	4.8158e+01	19.2765	86.257442	0.000385	3.851475	1.304915	0.000154
 486	4.8258e+01	19.3166	86.418928	0.000405	4.054185	1.373595	0.000162
 487	4.8357e+01	19.3503	86.540042	0.000304	3.040638	1.030196	0.000122
 488	4.8456e+01	19.3888	86.717676	0.000446	4.459603	1.510954	0.000179
 489	4.8556e+01	19.4321	86.858975	0.000355	3.547412	1.201896	0.000142
 490	4.8656e+01	19.4754	86.972015	0.000284	2.837929	0.961516	0.000114
 491	4.8755e+01	19.5123	87.157723	0.000466	4.662312	1.579634	0.000187
 492	4.8855e+01	19.5492	87.299023	0.000355	3.547412	1.201896	0.000142
 493	4.8954e+01	19.5861	87.476657	0.000446	4.459603	1.510954	0.000179
 494	4.9053e+01	19.6342	87.577586	0.000253	2.533865	0.858497	0.000101
 495	4.9153e+01	19.6695	87.735034	0.000395	3.952830	1.339255	0.000158
 496	4.9252e+01	19.7192	87.872296	0.000345	3.446057	1.167556	0.000138
 497	4.9352e+01	19.7513	88.009559	0.000345	3.446057	1.167556	0.000138
 498	4.9452e+01	19.7946	88.158933	0.000375	3.750121	1.270575	0.000150
 499	4.9551e+01	19.8283	88.332530	0.000436	4.358248	1.476615	0.000174
 500	4.9651e+01	19.8684	88.473830	0.000355	3.547412	1.201896	0.000142
 501	4.9750e+01	19.9117	88.635315	0.000405	4.054185	1.373595	0.000162
 502	4.9849e+01	19.9502	88.764503	0.000324	3.243348	1.098876	0.000130
 503	4.9949e+01	19.9887	88.913877	0.000375	3.750121	1.270575	0.000150
 504	5.0048e+01	19.9518	88.837172	0.000193	1.925738	0.652458	-0.000077
 505	5.0148e+01	19.9053	88.768541	0.000172	1.723028	0.583778	-0.000069
 506	5.0248e+01	19.8684	88.699909	0.000172	1.723028	0.583778	-0.000069
 507	5.0347e+01	19.8267	88.655501	0.000111	1.114901	0.377739	-0.000045
 508	5.0447e+01	19.7978	88.554572	0.000253	2.533865	0.858497	-0.000101
 509	5.0546e+01	19.7561	88.485941	0.000172	1.723028	0.583778	-0.000069
 510	5.0645e+01	19.7112	88.393087	0.000233	2.331156	0.789817	-0.000093
 511	5.0745e+01	19.6743	88.308307	0.000213	2.128447	0.721137	-0.000085
 512	5.0844e+01	19.6342	88.211416	0.000243	2.432511	0.824157	-0.000097
 513	5.0944e+01	19.5893	88.167007	0.000111	1.114901	0.377739	-0.000045
 514	5.1044e+01	19.5476	88.078190	0.000223	2.229802	0.755477	-0.000089
 515	5.1143e+01	19.5267	87.993411	0.000213	2.128447	0.721137	-0.000085
 516	5.1242e+01	19.4690	87.896519	0.000243	2.432511	0.824157	-0.000097
 517	5.1342e+01	19.4353	87.831925	0.000162	1.621674	0.549438	-0.000065
 518	5.1441e+01	19.3920	87.718885	0.000284	2.837929	0.961516	-0.000114
 519	5.1541e+01	19.3567	87.646217	0.000182	1.824383	0.618118	-0.000073
 520	5.1641e+01	19.3198	87.561437	0.000213	2.128447	0.721137	-0.000085
 521	5.1740e+01	19.2797	87.496843	0.000162	1.621674	0.549438	-0.000065
 522	5.1840e+01	19.2380	87.379766	0.000294	2.939284	0.995856	-0.000118
 523	5.1939e+01	19.2027	87.274800	0.000264	2.635220	0.892837	-0.000105
 524	5.2038e+01	19.1545	87.177909	0.000243	2.432511	0.824157	-0.000097
 525	5.2138e+01	19.1192	87.093129	0.000213	2.128447	0.721137	-0.000085
 526	5.2237e+01	19.0759	86.996238	0.000243	2.432511	0.824157	-0.000097
 527	5.2337e+01	19.0310	86.879161	0.000294	2.939284	0.995856	-0.000118
 528	5.2437e+01	18.9909	86.774196	0.000264	2.635220	0.892837	-0.000105
 529	5.2536e+01	18.9508	86.689416	0.000213	2.128447	0.721137	-0.000085
 530	5.2636e+01	18.9171	86.604636	0.000213	2.128447	0.721137	-0.000085
 531	5.2735e+01	18.8818	86.507745	0.000243	2.432511	0.824157	-0.000097
 532	5.2834e+01	18.8305	86.422965	0.000213	2.128447	0.721137	-0.000085
 533	5.2934e+01	18.8048	86.285702	0.000345	3.446057	1.167556	-0.000138
 534	5.3033e+01	18.7567	86.229182	0.000142	1.418965	0.480758	-0.000057
 535	5.3133e+01	18.7166	86.132291	0.000243	2.432511	0.824157	-0.000097
 536	5.3233e+01	18.6765	86.031363	0.000253	2.533865	0.858497	-0.000101
 537	5.3332e+01	18.6364	85.934471	0.000243	2.432511	0.824157	-0.000097
 538	5.3431e+01	18.6027	85.825469	0.000274	2.736575	0.927177	-0.000110
 539	5.3531e+01	18.5674	85.752800	0.000182	1.824383	0.618118	-0.000073
 540	5.3630e+01	18.5289	85.623612	0.000324	3.243348	1.098876	-0.000130
 541	5.3730e+01	18.4824	85.510572	0.000284	2.837929	0.961516	-0.000114
 542	5.3830e+01	18.4326	85.401569	0.000274	2.736575	0.927177	-0.000110
 543	5.3929e+01	18.3989	85.361198	0.000101	1.013546	0.343399	-0.000041
 544	5.4029e+01	18.3540	85.223935	0.000345	3.446057	1.167556	-0.000138
 545	5.4128e+01	18.3155	85.143193	0.000203	2.027092	0.686797	-0.000081
 546	5.4227e+01	18.2818	84.993819	0.000375	3.750121	1.270575	-0.000150
 547	5.4327e+01	18.2401	84.917113	0.000193	1.925738	0.652458	-0.000077
 548	5.4426e+01	18.2048	84.816185	0.000253	2.533865	0.858497	-0.000101
 549	5.4526e+01	18.1551	84.695071	0.000304	3.040638	1.030196	-0.000122
 550	5.4626e+01	18.1246	84.565882	0.000324	3.243348	1.098876	-0.000130
 551	5.4725e+01	18.0813	84.529548	0.000091	0.912192	0.309059	-0.000037
 552	5.4825e+01	18.0332	84.400360	0.000324	3.243348	1.098876	-0.000130
 553	5.4924e+01	18.0059	84.279246	0.000304	3.040638	1.030196	-0.000122
 554	5.5023e+01	17.9514	84.194466	0.000213	2.128447	0.721137	-0.000085
 555	5.5123e+01	17.9273	84.081426	0.000284	2.837929	0.961516	-0.000114
 556	5.5222e+01	17.8840	83.940126	0.000355	3.547412	1.201896	-0.000142
 557	5.5322e+01	17.8423	83.851309	0.000223	2.229802	0.755477	-0.000089
 558	5.5422e+01	17.8022	83.726158	0.000314	3.141993	1.064536	-0.000126
 559	5.5521e+01	17.7540	83.645415	0.000203	2.027092	0.686797	-0.000081
 560	5.5620e+01	17.7204	83.544487	0.000253	2.533865	0.858497	-0.000101
 561	5.5720e+01	17.6867	83.423373	0.000304	3.040638	1.030196	-0.000122
 562	5.5819e+01	17.6434	83.290147	0.000334	3.344702	1.133216	-0.000134
 563	5.5919e+01	17.6081	83.233628	0.000142	1.418965	0.480758	-0.000057
 564	5.6019e+01	17.5631	83.100402	0.000334	3.344702	1.133216	-0.000134
 565	5.6118e+01	17.5262	82.999474	0.000253	2.533865	0.858497	-0.000101
 566	5.6218e+01	17.4813	82.886434	0.000284	2.837929	0.961516	-0.000114
 567	5.6317e+01	17.4380	82.785505	0.000253	2.533865	0.858497	-0.000101
 568	5.6416e+01	17.4091	82.644206	0.000355	3.547412	1.201896	-0.000142
 569	5.6516e+01	17.3578	82.523092	0.000304	3.040638	1.030196	-0.000122
 570	5.6615e+01	17.3321	82.430237	0.000233	2.331156	0.789817	-0.000093
 571	5.6715e+01	17.2808	82.333346	0.000243	2.432511	0.824157	-0.000097
 572	5.6815e+01	17.2439	82.212232	0.000304	3.040638	1.030196	-0.000122
 573	5.6914e+01	17.1926	82.070932	0.000355	3.547412	1.201896	-0.000142
 574	5.7014e+01	17.1717	81.982115	0.000223	2.229802	0.755477	-0.000089
 575	5.7113e+01	17.1188	81.881187	0.000253	2.533865	0.858497	-0.000101
 576	5.7212e+01	17.0787	81.743924	0.000345	3.446057	1.167556	-0.000138
 577	5.7312e+01	17.0482	81.614736	0.000324	3.243348	1.098876	-0.000130
 578	5.7411e+01	17.0113	81.513808	0.000253	2.533865	0.858497	-0.000101
 579	5.7511e+01	16.9728	81.396731	0.000294	2.939284	0.995856	-0.000118
 580	5.7611e+01	16.9214	81.263505	0.000334	3.344702	1.133216	-0.000134
 581	5.7710e+01	16.8862	81.158540	0.000264	2.635220	0.892837	-0.000105
 582	5.7809e+01	16.8460	81.061648	0.000243	2.432511	0.824157	-0.000097
 583	5.7909e+01	16.7995	80.960720	0.000253	2.533865	0.858497	-0.000101
 584	5.8008e+01	16.7578	80.835569	0.000314	3.141993	1.064536	-0.000126
 585	5.8108e+01	16.7193	80.682158	0.000385	3.851475	1.304915	-0.000154
 586	5.8208e+01	16.6776	80.589304	0.000233	2.331156	0.789817	-0.000093
 587	5.8307e+01	16.6487	80.472227	0.000294	2.939284	0.995856	-0.000118
 588	5.8407e+01	16.6054	80.371298	0.000253	2.533865	0.858497	-0.000101
 589	5.8506e+01	16.5653	80.221924	0.000375	3.750121	1.270575	-0.000150
 590	5.8605e+01	16.5236	80.112922	0.000274	2.736575	0.927177	-0.000110
 591	5.8705e+01	16.4851	80.011993	0.000253	2.533865	0.858497	-0.000101
 592	5.8804e+01	16.4482	79.890879	0.000304	3.040638	1.030196	-0.000122
 593	5.8904e+01	16.4001	79.785914	0.000264	2.635220	0.892837	-0.000105
 594	5.9004e+01	16.3696	79.636540	0.000375	3.750121	1.270575	-0.000150
 595	5.9103e+01	16.3231	79.539648	0.000243	2.432511	0.824157	-0.000097
 596	5.9203e+01	16.2862	79.386237	0.000385	3.851475	1.304915	-0.000154
 597	5.9302e+01	16.2525	79.269160	0.000294	2.939284	0.995856	-0.000118
 598	5.9401e+01	16.2044	79.180343	0.000223	2.229802	0.755477	-0.000089
 599	5.9501e+01	16.1691	79.083452	0.000243	2.432511	0.824157	-0.000097
 600	5.9600e+01	16.1306	78.958301	0.000314	3.141993	1.064536	-0.000126
 601	5.9700e+01	16.0921	78.829112	0.000324	3.243348	1.098876	-0.000130
 602	5.9800e+01	16.0552	78.695887	0.000334	3.344702	1.133216	-0.000134
 603	5.9899e+01	16.0054	78.554587	0.000355	3.547412	1.201896	-0.000142
 604	5.9998e+01	15.9589	78.465770	0.000223	2.229802	0.755477	-0.000089
 605	6.0098e+01	15.9364	78.372916	0.000233	2.331156	0.789817	-0.000093
 606	6.0197e+01	15.8915	78.267951	0.000264	2.635220	0.892837	-0.000105
 607	6.0297e+01	15.8482	78.126651	0.000355	3.547412	1.201896	-0.000142
 608	6.0397e+01	15.8049	78.017648	0.000274	2.736575	0.927177	-0.000110
 609	6.0496e+01	15.7824	77.892497	0.000314	3.141993	1.064536	-0.000126
 610	6.0596e+01	15.7279	77.759271	0.000334	3.344702	1.133216	-0.000134
 611	6.0695e+01	15.6926	77.642195	0.000294	2.939284	0.995856	-0.000118
 612	6.0794e+01	15.6573	77.525118	0.000294	2.939284	0.995856	-0.000118
 613	6.0894e+01	15.6028	77.428226	0.000243	2.432511	0.824157	-0.000097
 614	6.0993e+01	15.5611	77.274815	0.000385	3.851475	1.304915	-0.000154
 615	6.1093e+01	15.5386	77.153701	0.000304	3.040638	1.030196	-0.000122
 616	6.1193e+01	15.4969	77.060847	0.000233	2.331156	0.789817	-0.000093
 617	6.1292e+01	15.4552	76.927621	0.000334	3.344702	1.133216	-0.000134
 618	6.1392e+01	15.4022	76.814582	0.000284	2.837929	0.961516	-0.000114
 619	6.1491e+01	15.3814	76.661171	0.000385	3.851475	1.304915	-0.000154
 620	6.1590e+01	15.3461	76.568316	0.000233	2.331156	0.789817	-0.000093
 621	6.1690e+01	15.2899	76.431054	0.000345	3.446057	1.167556	-0.000138
 622	6.1789e+01	15.2482	76.318014	0.000284	2.837929	0.961516	-0.000114
 623	6.1889e+01	15.2178	76.200937	0.000294	2.939284	0.995856	-0.000118
 624	6.1989e+01	15.1712	76.071749	0.000324	3.243348	1.098876	-0.000130
 625	6.2088e+01	15.1327	75.938523	0.000334	3.344702	1.133216	-0.000134
 626	6.2188e+01	15.0814	75.837595	0.000253	2.533865	0.858497	-0.000101
 627	6.2287e+01	15.0541	75.712444	0.000314	3.141993	1.064536	-0.000126
 628	6.2386e+01	15.0156	75.563070	0.000375	3.750121	1.270575	-0.000150
 629	6.2486e+01	14.9675	75.458104	0.000264	2.635220	0.892837	-0.000105
 630	6.2586e+01	14.9258	75.341027	0.000294	2.939284	0.995856	-0.000118
 631	6.2685e+01	14.8841	75.195690	0.000365	3.648766	1.236235	-0.000146
 632	6.2785e+01	14.8568	75.086688	0.000274	2.736575	0.927177	-0.000110
 633	6.2884e+01	14.8039	74.933276	0.000385	3.851475	1.304915	-0.000154
 634	6.2983e+01	14.7670	74.832348	0.000253	2.533865	0.858497	-0.000101
 635	6.3083e+01	14.7285	74.703160	0.000324	3.243348	1.098876	-0.000130
 636	6.3182e+01	14.6980	74.626454	0.000193	1.925738	0.652458	-0.000077
 637	6.3282e+01	14.6547	74.448820	0.000446	4.459603	1.510954	-0.000179
 638	6.3382e+01	14.6114	74.299446	0.000375	3.750121	1.270575	-0.000150
 639	6.3481e+01	14.5696	74.218703	0.000203	2.027092	0.686797	-0.000081
 640	6.3581e+01	14.5343	74.077404	0.000355	3.547412	1.201896	-0.000142
 641	6.3680e+01	14.4942	73.952252	0.000314	3.141993	1.064536	-0.000126
 642	6.3779e+01	14.4541	73.814990	0.000345	3.446057	1.167556	-0.000138
 643	6.3879e+01	14.4188	73.750396	0.000162	1.621674	0.549438	-0.000065
 644	6.3978e+01	14.3739	73.580836	0.000426	4.256894	1.442275	-0.000170
 645	6.4078e+01	14.3370	73.451648	0.000324	3.243348	1.098876	-0.000130
 646	6.4177e+01	14.3001	73.403202	0.000122	1.216255	0.412078	-0.000049
 647	6.4277e+01	14.2568	73.221531	0.000456	4.560958	1.545294	-0.000183
 648	6.4376e+01	14.2183	73.104454	0.000294	2.939284	0.995856	-0.000118
 649	6.4476e+01	14.1798	72.955080	0.000375	3.750121	1.270575	-0.000150
 650	6.4576e+01	14.1269	72.862226	0.000233	2.331156	0.789817	-0.000093
 651	6.4675e+01	14.0948	72.720926	0.000355	3.547412	1.201896	-0.000142
 652	6.4775e+01	14.0499	72.595775	0.000314	3.141993	1.064536	-0.000126
 653	6.4874e+01	14.0114	72.482735	0.000284	2.837929	0.961516	-0.000114
 654	6.4974e+01	13.9777	72.361621	0.000304	3.040638	1.030196	-0.000122
 655	6.5073e+01	13.9360	72.224358	0.000345	3.446057	1.167556	-0.000138
 656	6.5172e+01	13.8911	72.079021	0.000365	3.648766	1.236235	-0.000146
 657	6.5272e+01	13.8542	71.986167	0.000233	2.331156	0.789817	-0.000093
 658	6.5371e+01	13.8189	71.869090	0.000294	2.939284	0.995856	-0.000118
 659	6.5471e+01	13.7707	71.723754	0.000365	3.648766	1.236235	-0.000146
 660	6.5570e+01	13.7386	71.610714	0.000284	2.837929	0.961516	-0.000114
 661	6.5670e+01	13.6905	71.505748	0.000264	2.635220	0.892837	-0.000105
 662	6.5769e+01	13.6504	71.372523	0.000334	3.344702	1.133216	-0.000134
 663	6.5869e+01	13.6167	71.251409	0.000304	3.040638	1.030196	-0.000122
 664	6.5969e+01	13.5862	71.089923	0.000405	4.054185	1.373595	-0.000162
 665	6.6068e+01	13.5397	71.001106	0.000223	2.229802	0.755477	-0.000089
 666	6.6168e+01	13.4868	70.835584	0.000416	4.155539	1.407935	-0.000166
 667	6.6267e+01	13.4499	70.714470	0.000304	3.040638	1.030196	-0.000122
 668	6.6367e+01	13.4162	70.597393	0.000294	2.939284	0.995856	-0.000118
 669	6.6466e+01	13.3713	70.464167	0.000334	3.344702	1.133216	-0.000134
 670	6.6566e+01	13.3376	70.326905	0.000345	3.446057	1.167556	-0.000138
 671	6.6665e+01	13.3007	70.242125	0.000213	2.128447	0.721137	-0.000085
 672	6.6764e+01	13.2606	70.104862	0.000345	3.446057	1.167556	-0.000138
 673	6.6864e+01	13.2109	69.967599	0.000345	3.446057	1.167556	-0.000138
 674	6.6963e+01	13.1788	69.850523	0.000294	2.939284	0.995856	-0.000118
 675	6.7063e+01	13.1419	69.753631	0.000243	2.432511	0.824157	-0.000097
 676	6.7162e+01	13.0937	69.628480	0.000314	3.141993	1.064536	-0.000126
 677	6.7262e+01	13.0536	69.487180	0.000355	3.547412	1.201896	-0.000142
 678	6.7362e+01	13.0200	69.349918	0.000345	3.446057	1.167556	-0.000138
 679	6.7461e+01	12.9815	69.196507	0.000385	3.851475	1.304915	-0.000154
 680	6.7561e+01	12.9413	69.083467	0.000284	2.837929	0.961516	-0.000114
 681	6.7660e+01	12.9012	68.913907	0.000426	4.256894	1.442275	-0.000170
 682	6.7760e+01	12.8595	68.825090	0.000223	2.229802	0.755477	-0.000089
 683	6.7859e+01	12.8210	68.675716	0.000375	3.750121	1.270575	-0.000150
 684	6.7959e+01	12.7745	68.570751	0.000264	2.635220	0.892837	-0.000105
 685	6.8058e+01	12.7376	68.445599	0.000314	3.141993	1.064536	-0.000126
 686	6.8157e+01	12.7071	68.308337	0.000345	3.446057	1.167556	-0.000138
 687	6.8257e+01	12.6638	68.150888	0.000395	3.952830	1.339255	-0.000158
 688	6.8356e+01	12.6333	68.025737	0.000314	3.141993	1.064536	-0.000126
 689	6.8456e+01	12.5804	67.876363	0.000375	3.750121	1.270575	-0.000150
 690	6.8555e+01	12.5371	67.767360	0.000274	2.736575	0.927177	-0.000110
 691	6.8655e+01	12.4954	67.658358	0.000274	2.736575	0.927177	-0.000110
 692	6.8754e+01	12.4553	67.476687	0.000456	4.560958	1.545294	-0.000183
 693	6.8854e+01	12.4216	67.379795	0.000243	2.432511	0.824157	-0.000097
 694	6.8954e+01	12.3783	67.250607	0.000324	3.243348	1.098876	-0.000130
 695	6.9053e+01	12.3526	67.097196	0.000385	3.851475	1.304915	-0.000154
 696	6.9153e+01	12.3077	66.955896	0.000355	3.547412	1.201896	-0.000142
 697	6.9252e+01	12.2644	66.863042	0.000233	2.331156	0.789817	-0.000093
 698	6.9352e+01	12.2146	66.713668	0.000375	3.750121	1.270575	-0.000150
 699	6.9451e+01	12.1825	66.604665	0.000274	2.736575	0.927177	-0.000110
 700	6.9550e+01	12.1473	66.459329	0.000365	3.648766	1.236235	-0.000146
 701	6.9650e+01	12.1039	66.293806	0.000416	4.155539	1.407935	-0.000166
 702	6.9749e+01	12.0654	66.184803	0.000274	2.736575	0.927177	-0.000110
 703	6.9849e+01	12.0334	66.031392	0.000385	3.851475	1.304915	-0.000154
 704	6.9948e+01	11.9836	65.962761	0.000172	1.723028	0.583778	-0.000069
 705	7.0048e+01	11.9403	65.813387	0.000375	3.750121	1.270575	-0.000150
 706	7.0147e+01	11.9098	65.655939	0.000395	3.952830	1.339255	-0.000158
 707	7.0247e+01	11.8665	65.510602	0.000365	3.648766	1.236235	-0.000146
 708	7.0347e+01	11.8264	65.373339	0.000345	3.446057	1.167556	-0.000138
 709	7.0446e+01	11.7863	65.260299	0.000284	2.837929	0.961516	-0.000114
 710	7.0546e+01	11.7414	65.094777	0.000416	4.155539	1.407935	-0.000166
 711	7.0645e+01	11.7093	64.957514	0.000345	3.446057	1.167556	-0.000138
 712	7.0745e+01	11.6660	64.812177	0.000365	3.648766	1.236235	-0.000146
 713	7.0844e+01	11.6179	64.678952	0.000334	3.344702	1.133216	-0.000134
 714	7.0944e+01	11.5890	64.578023	0.000253	2.533865	0.858497	-0.000101
 715	7.1043e+01	11.5457	64.448835	0.000324	3.243348	1.098876	-0.000130
 716	7.1142e+01	11.5023	64.299461	0.000375	3.750121	1.270575	-0.000150
 717	7.1242e+01	11.4687	64.158161	0.000355	3.547412	1.201896	-0.000142
 718	7.1341e+01	11.4237	64.037047	0.000304	3.040638	1.030196	-0.000122
 719	7.1441e+01	11.3933	63.883636	0.000385	3.851475	1.304915	-0.000154
 720	7.1540e+01	11.3548	63.734262	0.000375	3.750121	1.270575	-0.000150
 721	7.1640e+01	11.3195	63.584888	0.000375	3.750121	1.270575	-0.000150
 722	7.1740e+01	11.2713	63.455700	0.000324	3.243348	1.098876	-0.000130
 723	7.1839e+01	11.2296	63.306326	0.000375	3.750121	1.270575	-0.000150
 724	7.1939e+01	11.1895	63.193286	0.000284	2.837929	0.961516	-0.000114
 725	7.2038e+01	11.1446	63.015652	0.000446	4.459603	1.510954	-0.000179
 726	7.2138e+01	11.1029	62.894538	0.000304	3.040638	1.030196	-0.000122
 727	7.2237e+01	11.0644	62.809758	0.000213	2.128447	0.721137	-0.000085
 728	7.2337e+01	11.0371	62.636161	0.000436	4.358248	1.476615	-0.000174
 729	7.2436e+01	10.9874	62.466601	0.000426	4.256894	1.442275	-0.000170
 730	7.2535e+01	10.9425	62.373747	0.000233	2.331156	0.789817	-0.000093
 731	7.2635e+01	10.9008	62.200150	0.000436	4.358248	1.476615	-0.000174
 732	7.2734e+01	10.8703	62.050776	0.000375	3.750121	1.270575	-0.000150
 733	7.2834e+01	10.8334	61.913514	0.000345	3.446057	1.167556	-0.000138
 734	7.2933e+01	10.7949	61.772214	0.000355	3.547412	1.201896	-0.000142
 735	7.3033e+01	10.7500	61.643026	0.000324	3.243348	1.098876	-0.000130
 736	7.3132e+01	10.7050	61.489614	0.000385	3.851475	1.304915	-0.000154
 737	7.3232e+01	10.6649	61.348315	0.000355	3.547412	1.201896	-0.000142
 738	7.3332e+01	10.6280	61.202978	0.000365	3.648766	1.236235	-0.000146
 739	7.3431e+01	10.5927	61.029381	0.000436	4.358248	1.476615	-0.000174
 740	7.3531e+01	10.5591	60.908267	0.000304	3.040638	1.030196	-0.000122
 741	7.3630e+01	10.5157	60.762930	0.000365	3.648766	1.236235	-0.000146
 742	7.3730e+01	10.4708	60.633742	0.000324	3.243348	1.098876	-0.000130
 743	7.3829e+01	10.4275	60.484368	0.000375	3.750121	1.270575	-0.000150
 744	7.3928e+01	10.3906	60.326919	0.000395	3.952830	1.339255	-0.000158
 745	7.4028e+01	10.3489	60.145248	0.000456	4.560958	1.545294	-0.000183
 746	7.4127e+01	10.3152	60.016060	0.000324	3.243348	1.098876	-0.000130
 747	7.4227e+01	10.2687	59.903020	0.000284	2.837929	0.961516	-0.000114
 748	7.4326e+01	10.2318	59.733460	0.000426	4.256894	1.442275	-0.000170
 749	7.4426e+01	10.1933	59.567938	0.000416	4.155539	1.407935	-0.000166
 750	7.4525e+01	10.1532	59.454898	0.000284	2.837929	0.961516	-0.000114
 751	7.4625e+01	10.1163	59.309561	0.000365	3.648766	1.236235	-0.000146
 752	7.4725e+01	10.0714	59.135964	0.000436	4.358248	1.476615	-0.000174
 753	7.4824e+01	10.0281	59.002739	0.000334	3.344702	1.133216	-0.000134
 754	7.4924e+01	9.9815	58.833179	0.000426	4.256894	1.442275	-0.000170
 755	7.5023e+01	9.9495	58.703991	0.000324	3.243348	1.098876	-0.000130
 756	7.5123e+01	9.9093	58.542505	0.000405	4.054185	1.373595	-0.000162
 757	7.5222e+01	9.8708	58.405243	0.000345	3.446057	1.167556	-0.000138
 758	7.5322e+01	9.8227	58.263943	0.000355	3.547412	1.201896	-0.000142
 759	7.5421e+01	9.7954	58.062086	0.000507	5.067731	1.716994	-0.000203
 760	7.5520e+01	9.7457	57.973269	0.000223	2.229802	0.755477	-0.000089
 761	7.5620e+01	9.7152	57.799672	0.000436	4.358248	1.476615	-0.000174
 762	7.5719e+01	9.6687	57.658373	0.000355	3.547412	1.201896	-0.000142
 763	7.5819e+01	9.6446	57.484776	0.000436	4.358248	1.476615	-0.000174
 764	7.5918e+01	9.5965	57.367699	0.000294	2.939284	0.995856	-0.000118
 765	7.6018e+01	9.5548	57.226399	0.000355	3.547412	1.201896	-0.000142
 766	7.6118e+01	9.5163	57.056839	0.000426	4.256894	1.442275	-0.000170
 767	7.6217e+01	9.4762	56.903428	0.000385	3.851475	1.304915	-0.000154
 768	7.6317e+01	9.4473	56.721757	0.000456	4.560958	1.545294	-0.000183
 769	7.6416e+01	9.3976	56.600643	0.000304	3.040638	1.030196	-0.000122
 770	7.6516e+01	9.3527	56.431083	0.000426	4.256894	1.442275	-0.000170
 771	7.6615e+01	9.3158	56.330155	0.000253	2.533865	0.858497	-0.000101
 772	7.6715e+01	9.2789	56.156558	0.000436	4.358248	1.476615	-0.000174
 773	7.6814e+01	9.2340	55.986998	0.000426	4.256894	1.442275	-0.000170
 774	7.6913e+01	9.1923	55.833587	0.000385	3.851475	1.304915	-0.000154
 775	7.7013e+01	9.1505	55.696325	0.000345	3.446057	1.167556	-0.000138
 776	7.7112e+01	9.1056	55.550988	0.000365	3.648766	1.236235	-0.000146
 777	7.7212e+01	9.0784	55.405651	0.000365	3.648766	1.236235	-0.000146
 778	7.7311e+01	9.0382	55.223980	0.000456	4.560958	1.545294	-0.000183
 779	7.7411e+01	8.9965	55.078643	0.000365	3.648766	1.236235	-0.000146
 780	7.7510e+01	8.9532	54.933306	0.000365	3.648766	1.236235	-0.000146
 781	7.7610e+01	8.9243	54.747598	0.000466	4.662312	1.579634	-0.000187
 782	7.7710e+01	8.8842	54.654744	0.000233	2.331156	0.789817	-0.000093
 783	7.7809e+01	8.8377	54.469035	0.000466	4.662312	1.579634	-0.000187
 784	7.7909e+01	8.8040	54.299476	0.000426	4.256894	1.442275	-0.000170
 785	7.8008e+01	8.7511	54.137990	0.000405	4.054185	1.373595	-0.000162
 786	7.8108e+01	8.7174	53.976505	0.000405	4.054185	1.373595	-0.000162
 787	7.8207e+01	8.6709	53.798871	0.000446	4.459603	1.510954	-0.000179
 788	7.8306e+01	8.6324	53.689868	0.000274	2.736575	0.927177	-0.000110
 789	7.8406e+01	8.5971	53.528383	0.000405	4.054185	1.373595	-0.000162
 790	7.8505e+01	8.5650	53.366897	0.000405	4.054185	1.373595	-0.000162
 791	7.8605e+01	8.5249	53.245783	0.000304	3.040638	1.030196	-0.000122
 792	7.8704e+01	8.4736	53.076224	0.000426	4.256894	1.442275	-0.000170
 793	7.8804e+01	8.4447	52.886478	0.000476	4.763667	1.613974	-0.000191
 794	7.8903e+01	8.4062	52.769401	0.000294	2.939284	0.995856	-0.000118
 795	7.9003e+01	8.3645	52.599842	0.000426	4.256894	1.442275	-0.000170
 796	7.9103e+01	8.3196	52.418170	0.000456	4.560958	1.545294	-0.000183
 797	7.9202e+01	8.2746	52.264759	0.000385	3.851475	1.304915	-0.000154
 798	7.9302e+01	8.2409	52.083088	0.000456	4.560958	1.545294	-0.000183
 799	7.9401e+01	8.1976	51.957937	0.000314	3.141993	1.064536	-0.000126
 800	7.9501e+01	8.1543	51.784340	0.000436	4.358248	1.476615	-0.000174
 801	7.9600e+01	8.1206	51.614780	0.000426	4.256894	1.442275	-0.000170
 802	7.9700e+01	8.0805	51.465406	0.000375	3.750121	1.270575	-0.000150
 803	7.9799e+01	8.0404	51.283735	0.000456	4.560958	1.545294	-0.000183
 804	7.9898e+01	8.0003	51.170695	0.000284	2.837929	0.961516	-0.000114
 805	7.9998e+01	7.9666	50.972876	0.000497	4.966376	1.682654	-0.000199
 806	8.0097e+01	7.9153	50.835613	0.000345	3.446057	1.167556	-0.000138
 807	8.0197e+01	7.8704	50.682202	0.000385	3.851475	1.304915	-0.000154
 808	8.0296e+01	7.8367	50.512642	0.000426	4.256894	1.442275	-0.000170
 809	8.0396e+01	7.7998	50.383454	0.000324	3.243348	1.098876	-0.000130
 810	8.0496e+01	7.7597	50.177560	0.000517	5.169085	1.751334	-0.000207
 811	8.0595e+01	7.7164	50.052409	0.000314	3.141993	1.064536	-0.000126
 812	8.0695e+01	7.6795	49.862664	0.000476	4.763667	1.613974	-0.000191
 813	8.0794e+01	7.6474	49.717327	0.000365	3.648766	1.236235	-0.000146
 814	8.0894e+01	7.6025	49.535656	0.000456	4.560958	1.545294	-0.000183
 815	8.0993e+01	7.5559	49.390319	0.000365	3.648766	1.236235	-0.000146
 816	8.1093e+01	7.5142	49.240945	0.000375	3.750121	1.270575	-0.000150
 817	8.1192e+01	7.4805	49.043125	0.000497	4.966376	1.682654	-0.000199
 818	8.1291e+01	7.4372	48.901825	0.000355	3.547412	1.201896	-0.000142
 819	8.1391e+01	7.3955	48.756488	0.000365	3.648766	1.236235	-0.000146
 820	8.1490e+01	7.3618	48.603077	0.000385	3.851475	1.304915	-0.000154
 821	8.1590e+01	7.3201	48.421406	0.000456	4.560958	1.545294	-0.000183
 822	8.1689e+01	7.2752	48.259921	0.000405	4.054185	1.373595	-0.000162
 823	8.1789e+01	7.2415	48.102472	0.000395	3.952830	1.339255	-0.000158
 824	8.1888e+01	7.2126	47.936950	0.000416	4.155539	1.407935	-0.000166
 825	8.1988e+01	7.1597	47.763353	0.000436	4.358248	1.476615	-0.000174
 826	8.2088e+01	7.1324	47.630127	0.000334	3.344702	1.133216	-0.000134
 827	8.2187e+01	7.0875	47.428271	0.000507	5.067731	1.716994	-0.000203
 828	8.2287e+01	7.0442	47.282934	0.000365	3.648766	1.236235	-0.000146
 829	8.2386e+01	7.0041	47.125485	0.000395	3.952830	1.339255	-0.000158
 830	8.2486e+01	6.9688	46.972074	0.000385	3.851475	1.304915	-0.000154
 831	8.2585e+01	6.9191	46.810589	0.000405	4.054185	1.373595	-0.000162
 832	8.2684e+01	6.8773	46.608732	0.000507	5.067731	1.716994	-0.000203
 833	8.2784e+01	6.8404	46.447247	0.000405	4.054185	1.373595	-0.000162
 834	8.2883e+01	6.8148	46.257501	0.000476	4.763667	1.613974	-0.000191
 835	8.2983e+01	6.7667	46.172721	0.000213	2.128447	0.721137	-0.000085
 836	8.3082e+01	6.7201	45.958753	0.000537	5.371795	1.820013	-0.000215
 837	8.3182e+01	6.6913	45.793231	0.000416	4.155539	1.407935	-0.000166
 838	8.3281e+01	6.6479	45.639820	0.000385	3.851475	1.304915	-0.000154
 839	8.3381e+01	6.6046	45.478334	0.000405	4.054185	1.373595	-0.000162
 840	8.3481e+01	6.5725	45.324923	0.000385	3.851475	1.304915	-0.000154
 841	8.3580e+01	6.5196	45.155363	0.000426	4.256894	1.442275	-0.000170
 842	8.3680e+01	6.4827	44.957544	0.000497	4.966376	1.682654	-0.000199
 843	8.3779e+01	6.4442	44.771835	0.000466	4.662312	1.579634	-0.000187
 844	8.3879e+01	6.4009	44.646684	0.000314	3.141993	1.064536	-0.000126
 845	8.3978e+01	6.3688	44.460976	0.000466	4.662312	1.579634	-0.000187
 846	8.4078e+01	6.3175	44.275268	0.000466	4.662312	1.579634	-0.000187
 847	8.4177e+01	6.2934	44.150116	0.000314	3.141993	1.064536	-0.000126
 848	8.4276e+01	6.2453	43.960371	0.000476	4.763667	1.613974	-0.000191
 849	8.4376e+01	6.2004	43.790811	0.000426	4.256894	1.442275	-0.000170
 850	8.4475e+01	6.1619	43.605103	0.000466	4.662312	1.579634	-0.000187
 851	8.4575e+01	6.1250	43.427469	0.000446	4.459603	1.510954	-0.000179
 852	8.4674e+01	6.0881	43.257909	0.000426	4.256894	1.442275	-0.000170
 853	8.4774e+01	6.0480	43.100461	0.000395	3.952830	1.339255	-0.000158
 854	8.4874e+01	6.0111	42.951087	0.000375	3.750121	1.270575	-0.000150
 855	8.4973e+01	5.9597	42.749230	0.000507	5.067731	1.716994	-0.000203
 856	8.5073e+01	5.9292	42.555448	0.000487	4.865022	1.648314	-0.000195
 857	8.5172e+01	5.8891	42.422222	0.000334	3.344702	1.133216	-0.000134
 858	8.5272e+01	5.8410	42.216328	0.000517	5.169085	1.751334	-0.000207
 859	8.5371e+01	5.8089	42.022546	0.000487	4.865022	1.648314	-0.000195
 860	8.5471e+01	5.7833	41.861060	0.000405	4.054185	1.373595	-0.000162
 861	8.5570e+01	5.7303	41.719761	0.000355	3.547412	1.201896	-0.000142
 862	8.5669e+01	5.6934	41.521941	0.000497	4.966376	1.682654	-0.000199
 863	8.5769e+01	5.6549	41.348344	0.000436	4.358248	1.476615	-0.000174
 864	8.5868e+01	5.6148	41.138413	0.000527	5.270440	1.785673	-0.000211
 865	8.5968e+01	5.5715	40.932519	0.000517	5.169085	1.751334	-0.000207
 866	8.6067e+01	5.5330	40.803331	0.000324	3.243348	1.098876	-0.000130
 867	8.6167e+01	5.5041	40.633771	0.000426	4.256894	1.442275	-0.000170
 868	8.6266e+01	5.4496	40.452100	0.000456	4.560958	1.545294	-0.000183
 869	8.6366e+01	5.4063	40.270429	0.000456	4.560958	1.545294	-0.000183
 870	8.6466e+01	5.3726	40.100869	0.000426	4.256894	1.442275	-0.000170
 871	8.6565e+01	5.3357	39.915161	0.000466	4.662312	1.579634	-0.000187
 872	8.6665e+01	5.2892	39.741564	0.000436	4.358248	1.476615	-0.000174
 873	8.6764e+01	5.2523	39.559893	0.000456	4.560958	1.545294	-0.000183
 874	8.6864e+01	5.2154	39.382259	0.000446	4.459603	1.510954	-0.000179
 875	8.6963e+01	5.1753	39.192514	0.000476	4.763667	1.613974	-0.000191
 876	8.7063e+01	5.1400	38.998731	0.000487	4.865022	1.648314	-0.000195
 877	8.7162e+01	5.0950	38.792837	0.000517	5.169085	1.751334	-0.000207
 878	8.7261e+01	5.0469	38.663649	0.000324	3.243348	1.098876	-0.000130
 879	8.7361e+01	5.0100	38.433532	0.000578	5.777213	1.957373	-0.000231
 880	8.7460e+01	4.9699	38.280121	0.000385	3.851475	1.304915	-0.000154
 881	8.7560e+01	4.9282	38.114599	0.000416	4.155539	1.407935	-0.000166
 882	8.7659e+01	4.8993	37.957150	0.000395	3.952830	1.339255	-0.000158
 883	8.7759e+01	4.8448	37.739145	0.000547	5.473149	1.854353	-0.000219
 884	8.7859e+01	4.8255	37.525177	0.000537	5.371795	1.820013	-0.000215
 885	8.7958e+01	4.7678	37.343506	0.000456	4.560958	1.545294	-0.000183
 886	8.8058e+01	4.7293	37.173946	0.000426	4.256894	1.442275	-0.000170
 887	8.8157e+01	4.6972	37.028609	0.000365	3.648766	1.236235	-0.000146
 888	8.8257e+01	4.6491	36.798492	0.000578	5.777213	1.957373	-0.000231
 889	8.8356e+01	4.6218	36.661230	0.000345	3.446057	1.167556	-0.000138
 890	8.8456e+01	4.5801	36.467447	0.000487	4.865022	1.648314	-0.000195
 891	8.8555e+01	4.5304	36.225219	0.000608	6.081277	2.060392	-0.000243
 892	8.8654e+01	4.4886	36.055659	0.000426	4.256894	1.442275	-0.000170
 893	8.8754e+01	4.4437	35.878025	0.000446	4.459603	1.510954	-0.000179
 894	8.8853e+01	4.4116	35.676169	0.000507	5.067731	1.716994	-0.000203
 895	8.8953e+01	4.3715	35.498535	0.000446	4.459603	1.510954	-0.000179
 896	8.9052e+01	4.3394	35.260344	0.000598	5.979922	2.026053	-0.000239
 897	8.9152e+01	4.2913	35.106932	0.000385	3.851475	1.304915	-0.000154
 898	8.9251e+01	4.2544	34.925261	0.000456	4.560958	1.545294	-0.000183
 899	8.9351e+01	4.2095	34.703219	0.000557	5.574504	1.888693	-0.000223
 900	8.9451e+01	4.1694	34.541733	0.000405	4.054185	1.373595	-0.000162
 901	8.9550e+01	4.1389	34.327765	0.000537	5.371795	1.820013	-0.000215
 902	8.9650e+01	4.0908	34.133983	0.000487	4.865022	1.648314	-0.000195
 903	8.9749e+01	4.0587	33.932126	0.000507	5.067731	1.716994	-0.000203
 904	8.9849e+01	4.0090	33.714121	0.000547	5.473149	1.854353	-0.000219
 905	8.9948e+01	3.9801	33.576858	0.000345	3.446057	1.167556	-0.000138
 906	9.0047e+01	3.9272	33.370964	0.000517	5.169085	1.751334	-0.000207
 907	9.0147e+01	3.8903	33.132773	0.000598	5.979922	2.026053	-0.000239
 908	9.0246e+01	3.8534	32.963213	0.000426	4.256894	1.442275	-0.000170
 909	9.0346e+01	3.8197	32.801728	0.000405	4.054185	1.373595	-0.000162
 910	9.0445e+01	3.7748	32.567574	0.000588	5.878568	1.991713	-0.000235
 911	9.0545e+01	3.7459	32.385903	0.000456	4.560958	1.545294	-0.000183
 912	9.0644e+01	3.6978	32.151749	0.000588	5.878568	1.991713	-0.000235
 913	9.0744e+01	3.6673	31.941818	0.000527	5.270440	1.785673	-0.000211
 914	9.0844e+01	3.6256	31.800518	0.000355	3.547412	1.201896	-0.000142
 915	9.0943e+01	3.5823	31.574439	0.000568	5.675858	1.923033	-0.000227
 916	9.1043e+01	3.5373	31.356433	0.000547	5.473149	1.854353	-0.000219
 917	9.1142e+01	3.4972	31.166688	0.000476	4.763667	1.613974	-0.000191
 918	9.1242e+01	3.4571	30.960794	0.000517	5.169085	1.751334	-0.000207
 919	9.1341e+01	3.4218	30.787197	0.000436	4.358248	1.476615	-0.000174
 920	9.1441e+01	3.3817	30.549006	0.000598	5.979922	2.026053	-0.000239
 921	9.1540e+01	3.3432	30.371372	0.000446	4.459603	1.510954	-0.000179
 922	9.1639e+01	3.2935	30.141255	0.000578	5.777213	1.957373	-0.000231
 923	9.1739e+01	3.2582	29.947473	0.000487	4.865022	1.648314	-0.000195
 924	9.1838e+01	3.2181	29.749653	0.000497	4.966376	1.682654	-0.000199
 925	9.1938e+01	3.1780	29.527611	0.000557	5.574504	1.888693	-0.000223
 926	9.2037e+01	3.1443	29.341903	0.000466	4.662312	1.579634	-0.000187
 927	9.2137e+01	3.0914	29.144083	0.000497	4.966376	1.682654	-0.000199
 928	9.2237e+01	3.0609	28.946263	0.000497	4.966376	1.682654	-0.000199
 929	9.2336e+01	3.0192	28.687887	0.000649	6.486695	2.197752	-0.000260
 930	9.2436e+01	2.9823	28.481993	0.000517	5.169085	1.751334	-0.000207
 931	9.2535e+01	2.9390	28.312433	0.000426	4.256894	1.442275	-0.000170
 932	9.2635e+01	2.9021	28.066168	0.000618	6.182632	2.094732	-0.000248
 933	9.2734e+01	2.8555	27.872385	0.000487	4.865022	1.648314	-0.000195
 934	9.2834e+01	2.8267	27.658417	0.000537	5.371795	1.820013	-0.000215
 935	9.2933e+01	2.7833	27.484820	0.000436	4.358248	1.476615	-0.000174
 936	9.3032e+01	2.7320	27.254703	0.000578	5.777213	1.957373	-0.000231
 937	9.3132e+01	2.6951	27.064958	0.000476	4.763667	1.613974	-0.000191
 938	9.3231e+01	2.6614	26.842916	0.000557	5.574504	1.888693	-0.000223
 939	9.3331e+01	2.6165	26.620873	0.000557	5.574504	1.888693	-0.000223
 940	9.3430e+01	2.5780	26.455350	0.000416	4.155539	1.407935	-0.000166
 941	9.3530e+01	2.5379	26.241382	0.000537	5.371795	1.820013	-0.000215
 942	9.3629e+01	2.5010	25.987043	0.000639	6.385341	2.163412	-0.000256
 943	9.3729e+01	2.4609	25.793260	0.000487	4.865022	1.648314	-0.000195
 944	9.3829e+01	2.4304	25.583329	0.000527	5.270440	1.785673	-0.000211
 945	9.3928e+01	2.3791	25.373398	0.000527	5.270440	1.785673	-0.000211
 946	9.4028e+01	2.3390	25.127133	0.000618	6.182632	2.094732	-0.000248
 947	9.4127e+01	2.3101	24.937387	0.000476	4.763667	1.613974	-0.000191
 948	9.4227e+01	2.2636	24.763791	0.000436	4.358248	1.476615	-0.000174
 949	9.4326e+01	2.2170	24.509451	0.000639	6.385341	2.163412	-0.000256
 950	9.4425e+01	2.1753	24.283371	0.000568	5.675858	1.923033	-0.000227
 951	9.4525e+01	2.1417	24.101700	0.000456	4.560958	1.545294	-0.000183
 952	9.4624e+01	2.0967	23.843324	0.000649	6.486695	2.197752	-0.000260
 953	9.4724e+01	2.0663	23.649541	0.000487	4.865022	1.648314	-0.000195
 954	9.4823e+01	2.0165	23.399239	0.000628	6.283986	2.129072	-0.000252
 955	9.4923e+01	1.9796	23.209493	0.000476	4.763667	1.613974	-0.000191
 956	9.5022e+01	1.9395	22.967265	0.000608	6.081277	2.060392	-0.000243
 957	9.5122e+01	1.8978	22.781557	0.000466	4.662312	1.579634	-0.000187
 958	9.5222e+01	1.8641	22.511069	0.000679	6.790759	2.300772	-0.000272
 959	9.5321e+01	1.8272	22.329398	0.000456	4.560958	1.545294	-0.000183
 960	9.5421e+01	1.7791	22.107355	0.000557	5.574504	1.888693	-0.000223
 961	9.5520e+01	1.7438	21.921647	0.000466	4.662312	1.579634	-0.000187
 962	9.5620e+01	1.6957	21.683456	0.000598	5.979922	2.026053	-0.000239
 963	9.5719e+01	1.6700	21.453339	0.000578	5.777213	1.957373	-0.000231
 964	9.5819e+01	1.6203	21.231297	0.000557	5.574504	1.888693	-0.000223
 965	9.5918e+01	1.5850	20.993106	0.000598	5.979922	2.026053	-0.000239
 966	9.6017e+01	1.5417	20.795286	0.000497	4.966376	1.682654	-0.000199
 967	9.6117e+01	1.5112	20.589392	0.000517	5.169085	1.751334	-0.000207
 968	9.6216e+01	1.4582	20.347164	0.000608	6.081277	2.060392	-0.000243
 969	9.6316e+01	1.4214	20.100899	0.000618	6.182632	2.094732	-0.000248
 970	9.6415e+01	1.3877	19.939413	0.000405	4.054185	1.373595	-0.000162
 971	9.6515e+01	1.3363	19.689111	0.000628	6.283986	2.129072	-0.000252
 972	9.6615e+01	1.3074	19.422660	0.000669	6.689405	2.266432	-0.000268
 973	9.6714e+01	1.2673	19.228878	0.000487	4.865022	1.648314	-0.000195
 974	9.6814e+01	1.2240	18.994724	0.000588	5.878568	1.991713	-0.000235
 975	9.6913e+01	1.1855	18.760570	0.000588	5.878568	1.991713	-0.000235
 976	9.7013e+01	1.1486	18.562750	0.000497	4.966376	1.682654	-0.000199
 977	9.7112e+01	1.0973	18.340708	0.000557	5.574504	1.888693	-0.000223
 978	9.7212e+01	1.0620	18.098480	0.000608	6.081277	2.060392	-0.000243
 979	9.7311e+01	1.0267	17.892586	0.000517	5.169085	1.751334	-0.000207
 980	9.7410e+01	0.9818	17.670543	0.000557	5.574504	1.888693	-0.000223
 981	9.7510e+01	0.9433	17.436389	0.000588	5.878568	1.991713	-0.000235
 982	9.7609e+01	0.9064	17.214347	0.000557	5.574504	1.888693	-0.000223
 983	9.7709e+01	0.8663	16.976156	0.000598	5.979922	2.026053	-0.000239
 984	9.7808e+01	0.8326	16.729890	0.000618	6.182632	2.094732	-0.000248
 985	9.7908e+01	0.7797	16.511885	0.000547	5.473149	1.854353	-0.000219
 986	9.8007e+01	0.7428	16.233323	0.000699	6.993468	2.369451	-0.000280
 987	9.8107e+01	0.7091	16.027429	0.000517	5.169085	1.751334	-0.000207
 988	9.8207e+01	0.6722	15.793275	0.000588	5.878568	1.991713	-0.000235
 989	9.8306e+01	0.6208	15.579307	0.000537	5.371795	1.820013	-0.000215
 990	9.8406e+01	0.5839	15.320930	0.000649	6.486695	2.197752	-0.000260
 991	9.8505e+01	0.5454	15.131185	0.000476	4.763667	1.613974	-0.000191
 992	9.8605e+01	0.5101	14.913179	0.000547	5.473149	1.854353	-0.000219
 993	9.8704e+01	0.4572	14.691137	0.000557	5.574504	1.888693	-0.000223
 994	9.8803e+01	0.4299	14.448909	0.000608	6.081277	2.060392	-0.000243
 995	9.8903e+01	0.3834	14.214755	0.000588	5.878568	1.991713	-0.000235
 996	9.9002e+01	0.3497	13.932155	0.000709	7.094823	2.403791	-0.000284
 997	9.9102e+01	0.3112	13.770670	0.000405	4.054185	1.373595	-0.000162
 998	9.9201e+01	0.2647	13.512293	0.000649	6.486695	2.197752	-0.000260
 999	9.9301e+01	0.2262	13.306399	0.000517	5.169085	1.751334	-0.000207
1000	9.9400e+01	0.1861	13.092431	0.000537	5.371795	1.820013	-0.000215
1001	9.9500e+01	0.1540	12.838092	0.000639	6.385341	2.163412	-0.000256
1002	9.9600e+01	0.1155	12.595864	0.000608	6.081277	2.060392	-0.000243
1003	9.9699e+01	0.0626	12.381895	0.000537	5.371795	1.820013	-0.000215
1004	9.9799e+01	0.0273	12.111407	0.000679	6.790759	2.300772	-0.000272
1005	9.9898e+01	-0.0080	11.949922	0.000405	4.054185	1.373595	-0.000162
1006	9.9998e+01	-0.0369	11.687508	0.000659	6.588050	2.232092	-0.000264
1007	1.0010e+02	-0.0866	11.489688	0.000497	4.966376	1.682654	-0.000199
1008	1.0020e+02	-0.1235	11.243423	0.000618	6.182632	2.094732	-0.000248
1009	1.0030e+02	-0.1636	11.029455	0.000537	5.371795	1.820013	-0.000215
1010	1.0040e+02	-0.2053	10.779152	0.000628	6.283986	2.129072	-0.000252
1011	1.0050e+02	-0.2487	10.540961	0.000598	5.979922	2.026053	-0.000239
1012	1.0059e+02	-0.2807	10.294696	0.000618	6.182632	2.094732	-0.000248
1013	1.0069e+02	-0.3208	10.040357	0.000639	6.385341	2.163412	-0.000256
1014	1.0079e+02	-0.3577	9.810240	0.000578	5.777213	1.957373	-0.000231
1015	1.0089e+02	-0.3930	9.588197	0.000557	5.574504	1.888693	-0.000223
1016	1.0099e+02	-0.4460	9.354044	0.000588	5.878568	1.991713	-0.000235
1017	1.0109e+02	-0.4749	9.091630	0.000659	6.588050	2.232092	-0.000264
1018	1.0119e+02	-0.5182	8.869587	0.000557	5.574504	1.888693	-0.000223
1019	1.0129e+02	-0.5503	8.675805	0.000487	4.865022	1.648314	-0.000195
1020	1.0139e+02	-0.6032	8.405317	0.000679	6.790759	2.300772	-0.000272
1021	1.0149e+02	-0.6417	8.130791	0.000689	6.892114	2.335111	-0.000276
1022	1.0159e+02	-0.6866	7.920860	0.000527	5.270440	1.785673	-0.000211
1023	1.0169e+02	-0.7187	7.690744	0.000578	5.777213	1.957373	-0.000231
1024	1.0179e+02	-0.7524	7.452553	0.000598	5.979922	2.026053	-0.000239
1025	1.0189e+02	-0.7973	7.182064	0.000679	6.790759	2.300772	-0.000272
1026	1.0199e+02	-0.8342	6.947911	0.000588	5.878568	1.991713	-0.000235
1027	1.0209e+02	-0.8887	6.721831	0.000568	5.675858	1.923033	-0.000227
1028	1.0219e+02	-0.9256	6.463454	0.000649	6.486695	2.197752	-0.000260
1029	1.0229e+02	-0.9577	6.245449	0.000547	5.473149	1.854353	-0.000219
1030	1.0239e+02	-0.9914	6.019369	0.000568	5.675858	1.923033	-0.000227
1031	1.0248e+02	-1.0428	5.781178	0.000598	5.979922	2.026053	-0.000239
1032	1.0258e+02	-1.0716	5.551062	0.000578	5.777213	1.957373	-0.000231
1033	1.0268e+02	-1.1214	5.256351	0.000740	7.398887	2.506811	-0.000296
1034	1.0278e+02	-1.1663	5.026234	0.000578	5.777213	1.957373	-0.000231
1035	1.0288e+02	-1.1968	4.751709	0.000689	6.892114	2.335111	-0.000276
1036	1.0298e+02	-1.2385	4.553889	0.000497	4.966376	1.682654	-0.000199
1037	1.0308e+02	-1.2818	4.311661	0.000608	6.081277	2.060392	-0.000243
1038	1.0318e+02	-1.3219	4.117878	0.000487	4.865022	1.648314	-0.000195
1039	1.0328e+02	-1.3588	3.843353	0.000689	6.892114	2.335111	-0.000276
1040	1.0338e+02	-1.3973	3.605162	0.000598	5.979922	2.026053	-0.000239
1041	1.0348e+02	-1.4374	3.383120	0.000557	5.574504	1.888693	-0.000223
1042	1.0358e+02	-1.4823	3.132817	0.000628	6.283986	2.129072	-0.000252
1043	1.0368e+02	-1.5192	2.890589	0.000608	6.081277	2.060392	-0.000243
1044	1.0378e+02	-1.5497	2.652398	0.000598	5.979922	2.026053	-0.000239
1045	1.0388e+02	-1.5978	2.430356	0.000557	5.574504	1.888693	-0.000223
1046	1.0398e+02	-1.6443	2.176016	0.000639	6.385341	2.163412	-0.000256
1047	1.0408e+02	-1.6780	1.941862	0.000588	5.878568	1.991713	-0.000235
1048	1.0418e+02	-1.7197	1.756154	0.000466	4.662312	1.579634	-0.000187
1049	1.0428e+02	-1.7534	1.501814	0.000639	6.385341	2.163412	-0.000256
1050	1.0438e+02	-1.7999	1.251512	0.000628	6.283986	2.129072	-0.000252
1051	1.0447e+02	-1.8385	1.037544	0.000537	5.371795	1.820013	-0.000215
1052	1.0457e+02	-1.8786	0.771093	0.000669	6.689405	2.266432	-0.000268
1053	1.0467e+02	-1.9155	0.561162	0.000527	5.270440	1.785673	-0.000211
1054	1.0477e+02	-1.9572	0.290674	0.000679	6.790759	2.300772	-0.000272
1055	1.0487e+02	-1.9941	0.032297	0.000649	6.486695	2.197752	-0.000260
1056	1.0497e+02	-2.0358	-0.201857	0.000588	5.878568	1.991713	-0.000235
1057	1.0507e+02	-2.0839	-0.423899	0.000557	5.574504	1.888693	-0.000223
1058	1.0517e+02	-2.1144	-0.645942	0.000557	5.574504	1.888693	-0.000223
1059	1.0527e+02	-2.1561	-0.908356	0.000659	6.588050	2.232092	-0.000264
1060	1.0537e+02	-2.1962	-1.090027	0.000456	4.560958	1.545294	-0.000183
1061	1.0547e+02	-2.2267	-1.352440	0.000659	6.588050	2.232092	-0.000264
1062	1.0557e+02	-2.2716	-1.582557	0.000578	5.777213	1.957373	-0.000231
1063	1.0567e+02	-2.3197	-1.800563	0.000547	5.473149	1.854353	-0.000219
1064	1.0577e+02	-2.3502	-2.046828	0.000618	6.182632	2.094732	-0.000248
1065	1.0587e+02	-2.3919	-2.293093	0.000618	6.182632	2.094732	-0.000248
1066	1.0597e+02	-2.4368	-2.490913	0.000497	4.966376	1.682654	-0.000199
1067	1.0607e+02	-2.4737	-2.761401	0.000679	6.790759	2.300772	-0.000272
1068	1.0617e+02	-2.5154	-2.999592	0.000598	5.979922	2.026053	-0.000239
1069	1.0627e+02	-2.5475	-3.201449	0.000507	5.067731	1.716994	-0.000203
1070	1.0637e+02	-2.5940	-3.435603	0.000588	5.878568	1.991713	-0.000235
1071	1.0647e+02	-2.6309	-3.710128	0.000689	6.892114	2.335111	-0.000276
1072	1.0656e+02	-2.6630	-3.911985	0.000507	5.067731	1.716994	-0.000203
1073	1.0666e+02	-2.7160	-4.146138	0.000588	5.878568	1.991713	-0.000235
1074	1.0676e+02	-2.7609	-4.372218	0.000568	5.675858	1.923033	-0.000227
1075	1.0686e+02	-2.7914	-4.614446	0.000608	6.081277	2.060392	-0.000243
1076	1.0696e+02	-2.8379	-4.860711	0.000618	6.182632	2.094732	-0.000248
1077	1.0706e+02	-2.8748	-5.066605	0.000517	5.169085	1.751334	-0.000207
1078	1.0716e+02	-2.9181	-5.324982	0.000649	6.486695	2.197752	-0.000260
1079	1.0726e+02	-2.9550	-5.506653	0.000456	4.560958	1.545294	-0.000183
1080	1.0736e+02	-2.9903	-5.752918	0.000618	6.182632	2.094732	-0.000248
1081	1.0746e+02	-3.0304	-5.987072	0.000588	5.878568	1.991713	-0.000235
1082	1.0756e+02	-3.0721	-6.213152	0.000568	5.675858	1.923033	-0.000227
1083	1.0766e+02	-3.1154	-6.455380	0.000608	6.081277	2.060392	-0.000243
1084	1.0776e+02	-3.1603	-6.693571	0.000598	5.979922	2.026053	-0.000239
1085	1.0786e+02	-3.1892	-6.939836	0.000618	6.182632	2.094732	-0.000248
1086	1.0796e+02	-3.2197	-7.141693	0.000507	5.067731	1.716994	-0.000203
1087	1.0806e+02	-3.2726	-7.371810	0.000578	5.777213	1.957373	-0.000231
1088	1.0816e+02	-3.3127	-7.569630	0.000497	4.966376	1.682654	-0.000199
1089	1.0826e+02	-3.3416	-7.819932	0.000628	6.283986	2.129072	-0.000252
1090	1.0836e+02	-3.3897	-8.005640	0.000466	4.662312	1.579634	-0.000187
1091	1.0845e+02	-3.4202	-8.292277	0.000720	7.196178	2.438131	-0.000288
1092	1.0855e+02	-3.4732	-8.494134	0.000507	5.067731	1.716994	-0.000203
1093	1.0865e+02	-3.5085	-8.695990	0.000507	5.067731	1.716994	-0.000203
1094	1.0875e+02	-3.5486	-8.934181	0.000598	5.979922	2.026053	-0.000239
1095	1.0885e+02	-3.6015	-9.180447	0.000618	6.182632	2.094732	-0.000248
1096	1.0895e+02	-3.6368	-9.345969	0.000416	4.155539	1.407935	-0.000166
1097	1.0905e+02	-3.6673	-9.628569	0.000709	7.094823	2.403791	-0.000284
1098	1.0915e+02	-3.7074	-9.822351	0.000487	4.865022	1.648314	-0.000195
1099	1.0925e+02	-3.7523	-10.036319	0.000537	5.371795	1.820013	-0.000215
1100	1.0935e+02	-3.7908	-10.246251	0.000527	5.270440	1.785673	-0.000211
1101	1.0945e+02	-3.8261	-10.508664	0.000659	6.588050	2.232092	-0.000264
1102	1.0955e+02	-3.8646	-10.686298	0.000446	4.459603	1.510954	-0.000179
1103	1.0965e+02	-3.9079	-10.936601	0.000628	6.283986	2.129072	-0.000252
1104	1.0975e+02	-3.9464	-11.138458	0.000507	5.067731	1.716994	-0.000203
1105	1.0985e+02	-3.9881	-11.332240	0.000487	4.865022	1.648314	-0.000195
1106	1.0995e+02	-4.0314	-11.534097	0.000507	5.067731	1.716994	-0.000203
1107	1.1005e+02	-4.0715	-11.788436	0.000639	6.385341	2.163412	-0.000256
1108	1.1015e+02	-4.1052	-12.014516	0.000568	5.675858	1.923033	-0.000227
1109	1.1025e+02	-4.1405	-12.200224	0.000466	4.662312	1.579634	-0.000187
1110	1.1035e+02	-4.1870	-12.406118	0.000517	5.169085	1.751334	-0.000207
1111	1.1044e+02	-4.2368	-12.672569	0.000669	6.689405	2.266432	-0.000268
1112	1.1054e+02	-4.2624	-12.854240	0.000456	4.560958	1.545294	-0.000183
1113	1.1064e+02	-4.3026	-13.039948	0.000466	4.662312	1.579634	-0.000187
1114	1.1074e+02	-4.3523	-13.282177	0.000608	6.081277	2.060392	-0.000243
1115	1.1084e+02	-4.3860	-13.455773	0.000436	4.358248	1.476615	-0.000174
1116	1.1094e+02	-4.4357	-13.698002	0.000608	6.081277	2.060392	-0.000243
1117	1.1104e+02	-4.4630	-13.903895	0.000517	5.169085	1.751334	-0.000207
1118	1.1114e+02	-4.5079	-14.089604	0.000466	4.662312	1.579634	-0.000187
1119	1.1124e+02	-4.5512	-14.331832	0.000608	6.081277	2.060392	-0.000243
1120	1.1134e+02	-4.5833	-14.497354	0.000416	4.155539	1.407935	-0.000166
1121	1.1144e+02	-4.6250	-14.747657	0.000628	6.283986	2.129072	-0.000252
1122	1.1154e+02	-4.6635	-14.933365	0.000466	4.662312	1.579634	-0.000187
1123	1.1164e+02	-4.7116	-15.147333	0.000537	5.371795	1.820013	-0.000215
1124	1.1174e+02	-4.7437	-15.405710	0.000649	6.486695	2.197752	-0.000260
1125	1.1184e+02	-4.7886	-15.583344	0.000446	4.459603	1.510954	-0.000179
1126	1.1194e+02	-4.8303	-15.801349	0.000547	5.473149	1.854353	-0.000219
1127	1.1204e+02	-4.8721	-15.999169	0.000497	4.966376	1.682654	-0.000199
1128	1.1214e+02	-4.9025	-16.241397	0.000608	6.081277	2.060392	-0.000243
1129	1.1224e+02	-4.9507	-16.431142	0.000476	4.763667	1.613974	-0.000191
1130	1.1234e+02	-4.9844	-16.632999	0.000507	5.067731	1.716994	-0.000203
1131	1.1244e+02	-5.0245	-16.826782	0.000487	4.865022	1.648314	-0.000195
1132	1.1253e+02	-5.0662	-17.004416	0.000446	4.459603	1.510954	-0.000179
1133	1.1263e+02	-5.1143	-17.226458	0.000557	5.574504	1.888693	-0.000223
1134	1.1273e+02	-5.1448	-17.396018	0.000426	4.256894	1.442275	-0.000170
1135	1.1283e+02	-5.1865	-17.638246	0.000608	6.081277	2.060392	-0.000243
1136	1.1293e+02	-5.2282	-17.836066	0.000497	4.966376	1.682654	-0.000199
1137	1.1303e+02	-5.2619	-18.033885	0.000497	4.966376	1.682654	-0.000199
1138	1.1313e+02	-5.2972	-18.223631	0.000476	4.763667	1.613974	-0.000191
1139	1.1323e+02	-5.3517	-18.437599	0.000537	5.371795	1.820013	-0.000215
1140	1.1333e+02	-5.3886	-18.639456	0.000507	5.067731	1.716994	-0.000203
1141	1.1343e+02	-5.4255	-18.825164	0.000466	4.662312	1.579634	-0.000187
1142	1.1353e+02	-5.4688	-18.998761	0.000436	4.358248	1.476615	-0.000174
1143	1.1363e+02	-5.5105	-19.261175	0.000659	6.588050	2.232092	-0.000264
1144	1.1373e+02	-5.5346	-19.450920	0.000476	4.763667	1.613974	-0.000191
1145	1.1383e+02	-5.5843	-19.604331	0.000385	3.851475	1.304915	-0.000154
1146	1.1393e+02	-5.6260	-19.838485	0.000588	5.878568	1.991713	-0.000235
1147	1.1403e+02	-5.6678	-20.020156	0.000456	4.560958	1.545294	-0.000183
1148	1.1413e+02	-5.7030	-20.238161	0.000547	5.473149	1.854353	-0.000219
1149	1.1423e+02	-5.7351	-20.415795	0.000446	4.459603	1.510954	-0.000179
1150	1.1433e+02	-5.7865	-20.609578	0.000487	4.865022	1.648314	-0.000195
1151	1.1442e+02	-5.8234	-20.799323	0.000476	4.763667	1.613974	-0.000191
1152	1.1452e+02	-5.8571	-20.985032	0.000466	4.662312	1.579634	-0.000187
1153	1.1462e+02	-5.8972	-21.170740	0.000466	4.662312	1.579634	-0.000187
1154	1.1472e+02	-5.9389	-21.412968	0.000608	6.081277	2.060392	-0.000243
1155	1.1482e+02	-5.9806	-21.546193	0.000334	3.344702	1.133216	-0.000134
1156	1.1492e+02	-6.0191	-21.788422	0.000608	6.081277	2.060392	-0.000243
1157	1.1502e+02	-6.0704	-21.921647	0.000334	3.344702	1.133216	-0.000134
1158	1.1512e+02	-6.0993	-22.139652	0.000547	5.473149	1.854353	-0.000219
1159	1.1522e+02	-6.1490	-22.341509	0.000507	5.067731	1.716994	-0.000203
1160	1.1532e+02	-6.1763	-22.555477	0.000537	5.371795	1.820013	-0.000215
1161	1.1542e+02	-6.2116	-22.692740	0.000345	3.446057	1.167556	-0.000138
1162	1.1552e+02	-6.2613	-22.910745	0.000547	5.473149	1.854353	-0.000219
1163	1.1562e+02	-6.2982	-23.092416	0.000456	4.560958	1.545294	-0.000183
1164	1.1572e+02	-6.3335	-23.237753	0.000365	3.648766	1.236235	-0.000146
1165	1.1582e+02	-6.3736	-23.455759	0.000547	5.473149	1.854353	-0.000219
1166	1.1592e+02	-6.4169	-23.657615	0.000507	5.067731	1.716994	-0.000203
1167	1.1602e+02	-6.4522	-23.806989	0.000375	3.750121	1.270575	-0.000150
1168	1.1612e+02	-6.4987	-23.956363	0.000375	3.750121	1.270575	-0.000150
1169	1.1622e+02	-6.5276	-24.174369	0.000547	5.473149	1.854353	-0.000219
1170	1.1632e+02	-6.5725	-24.380263	0.000517	5.169085	1.751334	-0.000207
1171	1.1642e+02	-6.6143	-24.541748	0.000405	4.054185	1.373595	-0.000162
1172	1.1651e+02	-6.6608	-24.747642	0.000517	5.169085	1.751334	-0.000207
1173	1.1661e+02	-6.7009	-24.905090	0.000395	3.952830	1.339255	-0.000158
1174	1.1671e+02	-6.7282	-25.110984	0.000517	5.169085	1.751334	-0.000207
1175	1.1681e+02	-6.7715	-25.304767	0.000487	4.865022	1.648314	-0.000195
1176	1.1691e+02	-6.8084	-25.450104	0.000365	3.648766	1.236235	-0.000146
1177	1.1701e+02	-6.8597	-25.647923	0.000497	4.966376	1.682654	-0.000199
1178	1.1711e+02	-6.9062	-25.882077	0.000588	5.878568	1.991713	-0.000235
1179	1.1721e+02	-6.9303	-26.035488	0.000385	3.851475	1.304915	-0.000154
1180	1.1731e+02	-6.9736	-26.241382	0.000517	5.169085	1.751334	-0.000207
1181	1.1741e+02	-7.0201	-26.390756	0.000375	3.750121	1.270575	-0.000150
1182	1.1751e+02	-7.0602	-26.556279	0.000416	4.155539	1.407935	-0.000166
1183	1.1761e+02	-7.0955	-26.697579	0.000355	3.547412	1.201896	-0.000142
1184	1.1771e+02	-7.1372	-26.927695	0.000578	5.777213	1.957373	-0.000231
1185	1.1781e+02	-7.1757	-27.117441	0.000476	4.763667	1.613974	-0.000191
1186	1.1791e+02	-7.2158	-27.278926	0.000405	4.054185	1.373595	-0.000162
1187	1.1801e+02	-7.2624	-27.452523	0.000436	4.358248	1.476615	-0.000174
1188	1.1811e+02	-7.2816	-27.642268	0.000476	4.763667	1.613974	-0.000191
1189	1.1821e+02	-7.3394	-27.795680	0.000385	3.851475	1.304915	-0.000154
1190	1.1831e+02	-7.3714	-28.009648	0.000537	5.371795	1.820013	-0.000215
1191	1.1841e+02	-7.4148	-28.163059	0.000385	3.851475	1.304915	-0.000154
1192	1.1850e+02	-7.4468	-28.360879	0.000497	4.966376	1.682654	-0.000199
1193	1.1860e+02	-7.4966	-28.566772	0.000517	5.169085	1.751334	-0.000207
1194	1.1870e+02	-7.5367	-28.712109	0.000365	3.648766	1.236235	-0.000146
1195	1.1880e+02	-7.5736	-28.865521	0.000385	3.851475	1.304915	-0.000154
1196	1.1890e+02	-7.6185	-29.083526	0.000547	5.473149	1.854353	-0.000219
1197	1.1900e+02	-7.6570	-29.309605	0.000568	5.675858	1.923033	-0.000227
1198	1.1910e+02	-7.6955	-29.422645	0.000284	2.837929	0.961516	-0.000114
1199	1.1920e+02	-7.7372	-29.612391	0.000476	4.763667	1.613974	-0.000191
1200	1.1930e+02	-7.7709	-29.761765	0.000375	3.750121	1.270575	-0.000150
1201	1.1940e+02	-7.8078	-29.943436	0.000456	4.560958	1.545294	-0.000183
1202	1.1950e+02	-7.8543	-30.145293	0.000507	5.067731	1.716994	-0.000203
1203	1.1960e+02	-7.8944	-30.302741	0.000395	3.952830	1.339255	-0.000158
1204	1.1970e+02	-7.9281	-30.504598	0.000507	5.067731	1.716994	-0.000203
1205	1.1980e+02	-7.9730	-30.694343	0.000476	4.763667	1.613974	-0.000191
1206	1.1990e+02	-8.0164	-30.738752	0.000111	1.114901	0.377739	-0.000045
1207	1.2000e+02	-8.0468	-31.045574	0.000770	7.702951	2.609830	-0.000308
1208	1.2010e+02	-8.0869	-31.158614	0.000284	2.837929	0.961516	-0.000114
1209	1.2020e+02	-8.1335	-31.303951	0.000365	3.648766	1.236235	-0.000146
1210	1.2030e+02	-8.1671	-31.501770	0.000497	4.966376	1.682654	-0.000199
1211	1.2039e+02	-8.2008	-31.667293	0.000416	4.155539	1.407935	-0.000166
1212	1.2049e+02	-8.2554	-31.808592	0.000355	3.547412	1.201896	-0.000142
1213	1.2059e+02	-8.2955	-32.018524	0.000527	5.270440	1.785673	-0.000211
1214	1.2069e+02	-8.3356	-32.212306	0.000487	4.865022	1.648314	-0.000195
1215	1.2079e+02	-8.3709	-32.389940	0.000446	4.459603	1.510954	-0.000179
1216	1.2089e+02	-8.4078	-32.519128	0.000324	3.243348	1.098876	-0.000130
1217	1.2099e+02	-8.4559	-32.716948	0.000497	4.966376	1.682654	-0.000199
1218	1.2109e+02	-8.4960	-32.870359	0.000385	3.851475	1.304915	-0.000154
1219	1.2119e+02	-8.5313	-33.031845	0.000405	4.054185	1.373595	-0.000162
1220	1.2129e+02	-8.5714	-33.177181	0.000365	3.648766	1.236235	-0.000146
1221	1.2139e+02	-8.6099	-33.379038	0.000507	5.067731	1.716994	-0.000203
1222	1.2149e+02	-8.6420	-33.576858	0.000497	4.966376	1.682654	-0.000199
1223	1.2159e+02	-8.6821	-33.734306	0.000395	3.952830	1.339255	-0.000158
1224	1.2169e+02	-8.7286	-33.891755	0.000395	3.952830	1.339255	-0.000158
1225	1.2179e+02	-8.7687	-34.024980	0.000334	3.344702	1.133216	-0.000134
1226	1.2189e+02	-8.8040	-34.226837	0.000507	5.067731	1.716994	-0.000203
1227	1.2199e+02	-8.8473	-34.380248	0.000385	3.851475	1.304915	-0.000154
1228	1.2209e+02	-8.8891	-34.561919	0.000456	4.560958	1.545294	-0.000183
1229	1.2219e+02	-8.9227	-34.723404	0.000405	4.054185	1.373595	-0.000162
1230	1.2229e+02	-8.9677	-34.892964	0.000426	4.256894	1.442275	-0.000170
1231	1.2239e+02	-9.0206	-35.034264	0.000355	3.547412	1.201896	-0.000142
1232	1.2248e+02	-9.0511	-35.199786	0.000416	4.155539	1.407935	-0.000166
1233	1.2258e+02	-9.0848	-35.405680	0.000517	5.169085	1.751334	-0.000207
1234	1.2268e+02	-9.1249	-35.607537	0.000507	5.067731	1.716994	-0.000203
1235	1.2278e+02	-9.1634	-35.773060	0.000416	4.155539	1.407935	-0.000166
1236	1.2288e+02	-9.2115	-35.861877	0.000223	2.229802	0.755477	-0.000089
1237	1.2298e+02	-9.2468	-36.027399	0.000416	4.155539	1.407935	-0.000166
1238	1.2308e+02	-9.2917	-36.249442	0.000557	5.574504	1.888693	-0.000223
1239	1.2318e+02	-9.3318	-36.394779	0.000365	3.648766	1.236235	-0.000146
1240	1.2328e+02	-9.3607	-36.548190	0.000385	3.851475	1.304915	-0.000154
1241	1.2338e+02	-9.4040	-36.705638	0.000395	3.952830	1.339255	-0.000158
1242	1.2348e+02	-9.4473	-36.871161	0.000416	4.155539	1.407935	-0.000166
1243	1.2358e+02	-9.4778	-37.044758	0.000436	4.358248	1.476615	-0.000174
1244	1.2368e+02	-9.5259	-37.242577	0.000497	4.966376	1.682654	-0.000199
1245	1.2378e+02	-9.5709	-37.395988	0.000385	3.851475	1.304915	-0.000154
1246	1.2388e+02	-9.6061	-37.553437	0.000395	3.952830	1.339255	-0.000158
1247	1.2398e+02	-9.6382	-37.670514	0.000294	2.939284	0.995856	-0.000118
1248	1.2408e+02	-9.6912	-37.892556	0.000557	5.574504	1.888693	-0.000223
1249	1.2418e+02	-9.7233	-38.025782	0.000334	3.344702	1.133216	-0.000134
1250	1.2428e+02	-9.7666	-38.199378	0.000436	4.358248	1.476615	-0.000174
1251	1.2438e+02	-9.8003	-38.393161	0.000487	4.865022	1.648314	-0.000195
1252	1.2447e+02	-9.8420	-38.530423	0.000345	3.446057	1.167556	-0.000138
1253	1.2457e+02	-9.8901	-38.699983	0.000426	4.256894	1.442275	-0.000170
1254	1.2467e+02	-9.9270	-38.881654	0.000456	4.560958	1.545294	-0.000183
1255	1.2477e+02	-9.9527	-39.035065	0.000385	3.851475	1.304915	-0.000154
1256	1.2487e+02	-10.0056	-39.188477	0.000385	3.851475	1.304915	-0.000154
1257	1.2497e+02	-10.0409	-39.366111	0.000446	4.459603	1.510954	-0.000179
1258	1.2507e+02	-10.0842	-39.491262	0.000314	3.141993	1.064536	-0.000126
1259	1.2517e+02	-10.1211	-39.681007	0.000476	4.763667	1.613974	-0.000191
1260	1.2527e+02	-10.1660	-39.858641	0.000446	4.459603	1.510954	-0.000179
1261	1.2537e+02	-10.2077	-39.979755	0.000304	3.040638	1.030196	-0.000122
1262	1.2547e+02	-10.2414	-40.181612	0.000507	5.067731	1.716994	-0.000203
1263	1.2557e+02	-10.2815	-40.330986	0.000375	3.750121	1.270575	-0.000150
1264	1.2567e+02	-10.3281	-40.464212	0.000334	3.344702	1.133216	-0.000134
1265	1.2577e+02	-10.3633	-40.613586	0.000375	3.750121	1.270575	-0.000150
1266	1.2587e+02	-10.4131	-40.819479	0.000517	5.169085	1.751334	-0.000207
1267	1.2597e+02	-10.4387	-40.948668	0.000324	3.243348	1.098876	-0.000130
1268	1.2607e+02	-10.4901	-41.122265	0.000436	4.358248	1.476615	-0.000174
1269	1.2617e+02	-10.5190	-41.247416	0.000314	3.141993	1.064536	-0.000126
1270	1.2627e+02	-10.5703	-41.400827	0.000385	3.851475	1.304915	-0.000154
1271	1.2636e+02	-10.6024	-41.598647	0.000497	4.966376	1.682654	-0.000199
1272	1.2646e+02	-10.6425	-41.768206	0.000426	4.256894	1.442275	-0.000170
1273	1.2656e+02	-10.6858	-41.889320	0.000304	3.040638	1.030196	-0.000122
1274	1.2666e+02	-10.7163	-42.046769	0.000395	3.952830	1.339255	-0.000158
1275	1.2676e+02	-10.7580	-42.175957	0.000324	3.243348	1.098876	-0.000130
1276	1.2686e+02	-10.8013	-42.329368	0.000385	3.851475	1.304915	-0.000154
1277	1.2696e+02	-10.8430	-42.543336	0.000537	5.371795	1.820013	-0.000215
1278	1.2706e+02	-10.8703	-42.688673	0.000365	3.648766	1.236235	-0.000146
1279	1.2716e+02	-10.9152	-42.838047	0.000375	3.750121	1.270575	-0.000150
1280	1.2726e+02	-10.9649	-42.955124	0.000294	2.939284	0.995856	-0.000118
1281	1.2736e+02	-10.9954	-43.144870	0.000476	4.763667	1.613974	-0.000191
1282	1.2746e+02	-11.0419	-43.294244	0.000375	3.750121	1.270575	-0.000150
1283	1.2756e+02	-11.0836	-43.431506	0.000345	3.446057	1.167556	-0.000138
1284	1.2766e+02	-11.1221	-43.609140	0.000446	4.459603	1.510954	-0.000179
1285	1.2776e+02	-11.1606	-43.742366	0.000334	3.344702	1.133216	-0.000134
1286	1.2786e+02	-11.2008	-43.924037	0.000456	4.560958	1.545294	-0.000183
1287	1.2796e+02	-11.2425	-44.077448	0.000385	3.851475	1.304915	-0.000154
1288	1.2806e+02	-11.2842	-44.238933	0.000405	4.054185	1.373595	-0.000162
1289	1.2816e+02	-11.3163	-44.388307	0.000375	3.750121	1.270575	-0.000150
1290	1.2826e+02	-11.3516	-44.545756	0.000395	3.952830	1.339255	-0.000158
1291	1.2835e+02	-11.3997	-44.687055	0.000355	3.547412	1.201896	-0.000142
1292	1.2845e+02	-11.4318	-44.872764	0.000466	4.662312	1.579634	-0.000187
1293	1.2855e+02	-11.4831	-45.001952	0.000324	3.243348	1.098876	-0.000130
1294	1.2865e+02	-11.5216	-45.191697	0.000476	4.763667	1.613974	-0.000191
1295	1.2875e+02	-11.5569	-45.324923	0.000334	3.344702	1.133216	-0.000134
1296	1.2885e+02	-11.5954	-45.454111	0.000324	3.243348	1.098876	-0.000130
1297	1.2895e+02	-11.6419	-45.607522	0.000385	3.851475	1.304915	-0.000154
1298	1.2905e+02	-11.6708	-45.785156	0.000446	4.459603	1.510954	-0.000179
1299	1.2915e+02	-11.7109	-45.966828	0.000456	4.560958	1.545294	-0.000183
1300	1.2925e+02	-11.7574	-46.067756	0.000253	2.533865	0.858497	-0.000101
1301	1.2935e+02	-11.8039	-46.233278	0.000416	4.155539	1.407935	-0.000166
1302	1.2945e+02	-11.8312	-46.398801	0.000416	4.155539	1.407935	-0.000166
1303	1.2955e+02	-11.8826	-46.544138	0.000365	3.648766	1.236235	-0.000146
1304	1.2965e+02	-11.9162	-46.697549	0.000385	3.851475	1.304915	-0.000154
1305	1.2975e+02	-11.9580	-46.867109	0.000426	4.256894	1.442275	-0.000170
1306	1.2985e+02	-11.9916	-47.020520	0.000385	3.851475	1.304915	-0.000154
1307	1.2995e+02	-12.0398	-47.145671	0.000314	3.141993	1.064536	-0.000126
1308	1.3005e+02	-12.0735	-47.282934	0.000345	3.446057	1.167556	-0.000138
1309	1.3015e+02	-12.1136	-47.452493	0.000426	4.256894	1.442275	-0.000170
1310	1.3025e+02	-12.1601	-47.581682	0.000324	3.243348	1.098876	-0.000130
1311	1.3034e+02	-12.1922	-47.743167	0.000405	4.054185	1.373595	-0.000162
1312	1.3044e+02	-12.2387	-47.888504	0.000365	3.648766	1.236235	-0.000146
1313	1.3054e+02	-12.2804	-48.025767	0.000345	3.446057	1.167556	-0.000138
1314	1.3064e+02	-12.3125	-48.187252	0.000405	4.054185	1.373595	-0.000162
1315	1.3074e+02	-12.3430	-48.385072	0.000497	4.966376	1.682654	-0.000199
1316	1.3084e+02	-12.3927	-48.498112	0.000284	2.837929	0.961516	-0.000114
1317	1.3094e+02	-12.4296	-48.643449	0.000365	3.648766	1.236235	-0.000146
1318	1.3104e+02	-12.4681	-48.813008	0.000426	4.256894	1.442275	-0.000170
1319	1.3114e+02	-12.5114	-48.974494	0.000405	4.054185	1.373595	-0.000162
1320	1.3124e+02	-12.5595	-49.087533	0.000284	2.837929	0.961516	-0.000114
1321	1.3134e+02	-12.6012	-49.236907	0.000375	3.750121	1.270575	-0.000150
1322	1.3144e+02	-12.6301	-49.406467	0.000426	4.256894	1.442275	-0.000170
1323	1.3154e+02	-12.6750	-49.584101	0.000446	4.459603	1.510954	-0.000179
1324	1.3164e+02	-12.7264	-49.705215	0.000304	3.040638	1.030196	-0.000122
1325	1.3174e+02	-12.7488	-49.850552	0.000365	3.648766	1.236235	-0.000146
1326	1.3184e+02	-12.7970	-50.040297	0.000476	4.763667	1.613974	-0.000191
1327	1.3194e+02	-12.8339	-50.161412	0.000304	3.040638	1.030196	-0.000122
1328	1.3204e+02	-12.8772	-50.290600	0.000324	3.243348	1.098876	-0.000130
1329	1.3214e+02	-12.9093	-50.472271	0.000456	4.560958	1.545294	-0.000183
1330	1.3224e+02	-12.9542	-50.605496	0.000334	3.344702	1.133216	-0.000134
1331	1.3234e+02	-12.9863	-50.722573	0.000294	2.939284	0.995856	-0.000118
1332	1.3243e+02	-13.0296	-50.871947	0.000375	3.750121	1.270575	-0.000150
1333	1.3253e+02	-13.0649	-51.065730	0.000487	4.865022	1.648314	-0.000195
1334	1.3263e+02	-13.1082	-51.223178	0.000395	3.952830	1.339255	-0.000158
1335	1.3273e+02	-13.1531	-51.324107	0.000253	2.533865	0.858497	-0.000101
1336	1.3283e+02	-13.1932	-51.485592	0.000405	4.054185	1.373595	-0.000162
1337	1.3293e+02	-13.2189	-51.675337	0.000476	4.763667	1.613974	-0.000191
1338	1.3303e+02	-13.2718	-51.836823	0.000405	4.054185	1.373595	-0.000162
1339	1.3313e+02	-13.3087	-52.018494	0.000456	4.560958	1.545294	-0.000183
1340	1.3323e+02	-13.3488	-52.103274	0.000213	2.128447	0.721137	-0.000085
1341	1.3333e+02	-13.3857	-52.244574	0.000355	3.547412	1.201896	-0.000142
1342	1.3343e+02	-13.4371	-52.389910	0.000365	3.648766	1.236235	-0.000146
1343	1.3353e+02	-13.4756	-52.547359	0.000395	3.952830	1.339255	-0.000158
1344	1.3363e+02	-13.5092	-52.724993	0.000446	4.459603	1.510954	-0.000179
1345	1.3373e+02	-13.5526	-52.858218	0.000334	3.344702	1.133216	-0.000134
1346	1.3383e+02	-13.5927	-53.019704	0.000405	4.054185	1.373595	-0.000162
1347	1.3393e+02	-13.6264	-53.185226	0.000416	4.155539	1.407935	-0.000166
1348	1.3403e+02	-13.6616	-53.302303	0.000294	2.939284	0.995856	-0.000118
1349	1.3413e+02	-13.7146	-53.488011	0.000466	4.662312	1.579634	-0.000187
1350	1.3423e+02	-13.7451	-53.649497	0.000405	4.054185	1.373595	-0.000162
1351	1.3432e+02	-13.7884	-53.810982	0.000405	4.054185	1.373595	-0.000162
1352	1.3442e+02	-13.8285	-53.940171	0.000324	3.243348	1.098876	-0.000130
1353	1.3452e+02	-13.8718	-54.081470	0.000355	3.547412	1.201896	-0.000142
1354	1.3462e+02	-13.9071	-54.263141	0.000456	4.560958	1.545294	-0.000183
1355	1.3472e+02	-13.9536	-54.456924	0.000487	4.865022	1.648314	-0.000195
1356	1.3482e+02	-13.9889	-54.590149	0.000334	3.344702	1.133216	-0.000134
1357	1.3492e+02	-14.0274	-54.727412	0.000345	3.446057	1.167556	-0.000138
1358	1.3502e+02	-14.0739	-54.880823	0.000385	3.851475	1.304915	-0.000154
1359	1.3512e+02	-14.1092	-55.070569	0.000476	4.763667	1.613974	-0.000191
1360	1.3522e+02	-14.1509	-55.223980	0.000385	3.851475	1.304915	-0.000154
1361	1.3532e+02	-14.1926	-55.389502	0.000416	4.155539	1.407935	-0.000166
1362	1.3542e+02	-14.2344	-55.522728	0.000334	3.344702	1.133216	-0.000134
1363	1.3552e+02	-14.2729	-55.684213	0.000405	4.054185	1.373595	-0.000162
1364	1.3562e+02	-14.3082	-55.853773	0.000426	4.256894	1.442275	-0.000170
1365	1.3572e+02	-14.3450	-56.039481	0.000466	4.662312	1.579634	-0.000187
1366	1.3582e+02	-14.3868	-56.144447	0.000264	2.635220	0.892837	-0.000105
1367	1.3592e+02	-14.4301	-56.350341	0.000517	5.169085	1.751334	-0.000207
1368	1.3602e+02	-14.4622	-56.503752	0.000385	3.851475	1.304915	-0.000154
1369	1.3612e+02	-14.5023	-56.628903	0.000314	3.141993	1.064536	-0.000126
1370	1.3622e+02	-14.5408	-56.806537	0.000446	4.459603	1.510954	-0.000179
1371	1.3631e+02	-14.5905	-57.004357	0.000497	4.966376	1.682654	-0.000199
1372	1.3641e+02	-14.6258	-57.157768	0.000385	3.851475	1.304915	-0.000154
1373	1.3651e+02	-14.6627	-57.323290	0.000416	4.155539	1.407935	-0.000166
1374	1.3661e+02	-14.7092	-57.460553	0.000345	3.446057	1.167556	-0.000138
1375	1.3671e+02	-14.7477	-57.601853	0.000355	3.547412	1.201896	-0.000142
1376	1.3681e+02	-14.7846	-57.775450	0.000436	4.358248	1.476615	-0.000174
1377	1.3691e+02	-14.8263	-57.953084	0.000446	4.459603	1.510954	-0.000179
1378	1.3701e+02	-14.8664	-58.082272	0.000324	3.243348	1.098876	-0.000130
1379	1.3711e+02	-14.9049	-58.288166	0.000517	5.169085	1.751334	-0.000207
1380	1.3721e+02	-14.9434	-58.490023	0.000507	5.067731	1.716994	-0.000203
1381	1.3731e+02	-14.9964	-58.578840	0.000223	2.229802	0.755477	-0.000089
1382	1.3741e+02	-15.0204	-58.784733	0.000517	5.169085	1.751334	-0.000207
1383	1.3751e+02	-15.0621	-58.986590	0.000507	5.067731	1.716994	-0.000203
1384	1.3761e+02	-15.1039	-59.083482	0.000243	2.432511	0.824157	-0.000097
1385	1.3771e+02	-15.1391	-59.249004	0.000416	4.155539	1.407935	-0.000166
1386	1.3781e+02	-15.1841	-59.430675	0.000456	4.560958	1.545294	-0.000183
1387	1.3791e+02	-15.2210	-59.664829	0.000588	5.878568	1.991713	-0.000235
1388	1.3801e+02	-15.2530	-59.810166	0.000365	3.648766	1.236235	-0.000146
1389	1.3811e+02	-15.2996	-59.975689	0.000416	4.155539	1.407935	-0.000166
1390	1.3821e+02	-15.3557	-60.153322	0.000446	4.459603	1.510954	-0.000179
1391	1.3831e+02	-15.3878	-60.322882	0.000426	4.256894	1.442275	-0.000170
1392	1.3840e+02	-15.4279	-60.528776	0.000517	5.169085	1.751334	-0.000207
1393	1.3850e+02	-15.4632	-60.637779	0.000274	2.736575	0.927177	-0.000110
1394	1.3860e+02	-15.4937	-60.827524	0.000476	4.763667	1.613974	-0.000191
1395	1.3870e+02	-15.5418	-61.037455	0.000527	5.270440	1.785673	-0.000211
1396	1.3880e+02	-15.5835	-61.198941	0.000405	4.054185	1.373595	-0.000162
1397	1.3890e+02	-15.6108	-61.388686	0.000476	4.763667	1.613974	-0.000191
1398	1.3900e+02	-15.6621	-61.525949	0.000345	3.446057	1.167556	-0.000138
1399	1.3910e+02	-15.6942	-61.780288	0.000639	6.385341	2.163412	-0.000256
1400	1.3920e+02	-15.7455	-61.905439	0.000314	3.141993	1.064536	-0.000126
1401	1.3930e+02	-15.7808	-62.119408	0.000537	5.371795	1.820013	-0.000215
1402	1.3940e+02	-15.8161	-62.309153	0.000476	4.763667	1.613974	-0.000191
1403	1.3950e+02	-15.8707	-62.511010	0.000507	5.067731	1.716994	-0.000203
1404	1.3960e+02	-15.8931	-62.688644	0.000446	4.459603	1.510954	-0.000179
1405	1.3970e+02	-15.9509	-62.870315	0.000456	4.560958	1.545294	-0.000183
1406	1.3980e+02	-15.9894	-63.003540	0.000334	3.344702	1.133216	-0.000134
1407	1.3990e+02	-16.0135	-63.265954	0.000659	6.588050	2.232092	-0.000264
1408	1.4000e+02	-16.0487	-63.439551	0.000436	4.358248	1.476615	-0.000174
1409	1.4010e+02	-16.1017	-63.637371	0.000497	4.966376	1.682654	-0.000199
1410	1.4020e+02	-16.1466	-63.810967	0.000436	4.358248	1.476615	-0.000174
1411	1.4029e+02	-16.1915	-63.992639	0.000456	4.560958	1.545294	-0.000183
1412	1.4039e+02	-16.2156	-64.174310	0.000456	4.560958	1.545294	-0.000183
1413	1.4049e+02	-16.2541	-64.351944	0.000446	4.459603	1.510954	-0.000179
1414	1.4059e+02	-16.2958	-64.549763	0.000497	4.966376	1.682654	-0.000199
1415	1.4069e+02	-16.3327	-64.743546	0.000487	4.865022	1.648314	-0.000195
1416	1.4079e+02	-16.3824	-64.977700	0.000588	5.878568	1.991713	-0.000235
1417	1.4089e+02	-16.4225	-65.143222	0.000416	4.155539	1.407935	-0.000166
1418	1.4099e+02	-16.4546	-65.365265	0.000557	5.574504	1.888693	-0.000223
1419	1.4109e+02	-16.4963	-65.534824	0.000426	4.256894	1.442275	-0.000170
1420	1.4119e+02	-16.5300	-65.760904	0.000568	5.675858	1.923033	-0.000227
1421	1.4129e+02	-16.5781	-65.890092	0.000324	3.243348	1.098876	-0.000130
1422	1.4139e+02	-16.6199	-66.164618	0.000689	6.892114	2.335111	-0.000276
1423	1.4149e+02	-16.6584	-66.346289	0.000456	4.560958	1.545294	-0.000183
1424	1.4159e+02	-16.6953	-66.556220	0.000527	5.270440	1.785673	-0.000211
1425	1.4169e+02	-16.7289	-66.790374	0.000588	5.878568	1.991713	-0.000235
1426	1.4179e+02	-16.7819	-66.988193	0.000497	4.966376	1.682654	-0.000199
1427	1.4189e+02	-16.8220	-67.186013	0.000497	4.966376	1.682654	-0.000199
1428	1.4199e+02	-16.8557	-67.395944	0.000527	5.270440	1.785673	-0.000211
1429	1.4209e+02	-16.8974	-67.626061	0.000578	5.777213	1.957373	-0.000231
1430	1.4219e+02	-16.9375	-67.795620	0.000426	4.256894	1.442275	-0.000170
1431	1.4228e+02	-16.9840	-68.062071	0.000669	6.689405	2.266432	-0.000268
1432	1.4238e+02	-17.0129	-68.215483	0.000385	3.851475	1.304915	-0.000154
1433	1.4248e+02	-17.0530	-68.429451	0.000537	5.371795	1.820013	-0.000215
1434	1.4258e+02	-17.0963	-68.655530	0.000568	5.675858	1.923033	-0.000227
1435	1.4268e+02	-17.1332	-68.845276	0.000476	4.763667	1.613974	-0.000191
1436	1.4278e+02	-17.1781	-69.091541	0.000618	6.182632	2.094732	-0.000248
1437	1.4288e+02	-17.2214	-69.333769	0.000608	6.081277	2.060392	-0.000243
1438	1.4298e+02	-17.2599	-69.543700	0.000527	5.270440	1.785673	-0.000211
1439	1.4308e+02	-17.2888	-69.761706	0.000547	5.473149	1.854353	-0.000219
1440	1.4318e+02	-17.3418	-69.955488	0.000487	4.865022	1.648314	-0.000195
1441	1.4328e+02	-17.3803	-70.201753	0.000618	6.182632	2.094732	-0.000248
1442	1.4338e+02	-17.4172	-70.411684	0.000527	5.270440	1.785673	-0.000211
1443	1.4348e+02	-17.4573	-70.645838	0.000588	5.878568	1.991713	-0.000235
1444	1.4358e+02	-17.5006	-70.912289	0.000669	6.689405	2.266432	-0.000268
1445	1.4368e+02	-17.5375	-71.093960	0.000456	4.560958	1.545294	-0.000183
1446	1.4378e+02	-17.5760	-71.299854	0.000517	5.169085	1.751334	-0.000207
1447	1.4388e+02	-17.6113	-71.550157	0.000628	6.283986	2.129072	-0.000252
1448	1.4398e+02	-17.6530	-71.776236	0.000568	5.675858	1.923033	-0.000227
1449	1.4408e+02	-17.6931	-71.994242	0.000547	5.473149	1.854353	-0.000219
1450	1.4418e+02	-17.7412	-72.236470	0.000608	6.081277	2.060392	-0.000243
1451	1.4428e+02	-17.7701	-72.458512	0.000557	5.574504	1.888693	-0.000223
1452	1.4437e+02	-17.8006	-72.700740	0.000608	6.081277	2.060392	-0.000243
1453	1.4447e+02	-17.8583	-72.942969	0.000608	6.081277	2.060392	-0.000243
1454	1.4457e+02	-17.8936	-73.177122	0.000588	5.878568	1.991713	-0.000235
1455	1.4467e+02	-17.9305	-73.443573	0.000669	6.689405	2.266432	-0.000268
1456	1.4477e+02	-17.9738	-73.669653	0.000568	5.675858	1.923033	-0.000227
1457	1.4487e+02	-18.0155	-73.907844	0.000598	5.979922	2.026053	-0.000239
1458	1.4497e+02	-18.0524	-74.194481	0.000720	7.196178	2.438131	-0.000288
1459	1.4507e+02	-18.0893	-74.392300	0.000497	4.966376	1.682654	-0.000199
1460	1.4517e+02	-18.1455	-74.634528	0.000608	6.081277	2.060392	-0.000243
1461	1.4527e+02	-18.1647	-74.917128	0.000709	7.094823	2.403791	-0.000284
1462	1.4537e+02	-18.2161	-75.167430	0.000628	6.283986	2.129072	-0.000252
1463	1.4547e+02	-18.2514	-75.417733	0.000628	6.283986	2.129072	-0.000252
1464	1.4557e+02	-18.2979	-75.688221	0.000679	6.790759	2.300772	-0.000272
1465	1.4567e+02	-18.3412	-75.918338	0.000578	5.777213	1.957373	-0.000231
1466	1.4577e+02	-18.3733	-76.196900	0.000699	6.993468	2.369451	-0.000280
1467	1.4587e+02	-18.4118	-76.471425	0.000689	6.892114	2.335111	-0.000276
1468	1.4597e+02	-18.4503	-76.729802	0.000649	6.486695	2.197752	-0.000260
1469	1.4607e+02	-18.4936	-76.967993	0.000598	5.979922	2.026053	-0.000239
1470	1.4617e+02	-18.5353	-77.230407	0.000659	6.588050	2.232092	-0.000264
1471	1.4626e+02	-18.5770	-77.484746	0.000639	6.385341	2.163412	-0.000256
1472	1.4636e+02	-18.6059	-77.755234	0.000679	6.790759	2.300772	-0.000272
1473	1.4646e+02	-18.6540	-78.029760	0.000689	6.892114	2.335111	-0.000276
1474	1.4656e+02	-18.6941	-78.296211	0.000669	6.689405	2.266432	-0.000268
1475	1.4666e+02	-18.7310	-78.566699	0.000679	6.790759	2.300772	-0.000272
1476	1.4676e+02	-18.7727	-78.853335	0.000720	7.196178	2.438131	-0.000288
1477	1.4686e+02	-18.8096	-79.119786	0.000669	6.689405	2.266432	-0.000268
1478	1.4696e+02	-18.8529	-79.438720	0.000801	8.007015	2.712850	-0.000321
1479	1.4706e+02	-18.8898	-79.689022	0.000628	6.283986	2.129072	-0.000252
1480	1.4716e+02	-18.9299	-79.971622	0.000709	7.094823	2.403791	-0.000284
1481	1.4726e+02	-18.9813	-80.217887	0.000618	6.182632	2.094732	-0.000248
1482	1.4736e+02	-19.0166	-80.540858	0.000811	8.108369	2.747190	-0.000325
1483	1.4746e+02	-19.0374	-80.815383	0.000689	6.892114	2.335111	-0.000276
1484	1.4756e+02	-19.0904	-81.093946	0.000699	6.993468	2.369451	-0.000280
1485	1.4766e+02	-19.1225	-81.356359	0.000659	6.588050	2.232092	-0.000264
1486	1.4776e+02	-19.1770	-81.699516	0.000862	8.615142	2.918889	-0.000345
1487	1.4786e+02	-19.2075	-82.010375	0.000780	7.804305	2.644170	-0.000312
1488	1.4796e+02	-19.2604	-82.264715	0.000639	6.385341	2.163412	-0.000256
1489	1.4806e+02	-19.2925	-82.559426	0.000740	7.398887	2.506811	-0.000296
1490	1.4816e+02	-19.3230	-82.882397	0.000811	8.108369	2.747190	-0.000325
1491	1.4825e+02	-19.3631	-83.160959	0.000699	6.993468	2.369451	-0.000280
1492	1.4835e+02	-19.4080	-83.443559	0.000709	7.094823	2.403791	-0.000284
1493	1.4845e+02	-19.4513	-83.742307	0.000750	7.500242	2.541151	-0.000300
1494	1.4855e+02	-19.4786	-84.053166	0.000780	7.804305	2.644170	-0.000312
1495	1.4865e+02	-19.5171	-84.368063	0.000791	7.905660	2.678510	-0.000316
1496	1.4875e+02	-19.5636	-84.703145	0.000841	8.412433	2.850209	-0.000337
1497	1.4885e+02	-19.6053	-84.977670	0.000689	6.892114	2.335111	-0.000276
1498	1.4895e+02	-19.6422	-85.304678	0.000821	8.209724	2.781530	-0.000329
1499	1.4905e+02	-19.6791	-85.631686	0.000821	8.209724	2.781530	-0.000329
1500	1.4915e+02	-19.7208	-85.942546	0.000780	7.804305	2.644170	-0.000312
1501	1.4925e+02	-19.7593	-86.277628	0.000841	8.412433	2.850209	-0.000337
1502	1.4935e+02	-19.8010	-86.584450	0.000770	7.702951	2.609830	-0.000308
1503	1.4945e+02	-19.8395	-86.887235	0.000760	7.601596	2.575490	-0.000304
1504	1.4955e+02	-19.8893	-87.194058	0.000770	7.702951	2.609830	-0.000308
1505	1.4965e+02	-19.9294	-87.557400	0.000912	9.121915	3.090589	-0.000365
1506	1.4975e+02	-19.9695	-87.876334	0.000801	8.007015	2.712850	-0.000321
1507	1.4985e+02	-20.0000	-88.219490	0.000862	8.615142	2.918889	-0.000345
1508	1.4995e+02	-19.9695	-88.352716	-0.000334	-3.344702	-1.133216	-0.000134
1509	1.5005e+02	-19.9262	-88.417310	-0.000162	-1.621674	-0.549438	-0.000065
1510	1.5015e+02	-19.8780	-88.465755	-0.000122	-1.216255	-0.412078	-0.000049
1511	1.5025e+02	-19.8476	-88.574758	-0.000274	-2.736575	-0.927177	-0.000110
1512	1.5034e+02	-19.8091	-88.716058	-0.000355	-3.547412	-1.201896	-0.000142
1513	1.5044e+02	-19.7609	-88.728169	-0.000030	-0.304064	-0.103020	-0.000012
1514	1.5054e+02	-19.7273	-88.764503	-0.000091	-0.912192	-0.309059	-0.000037
1515	1.5064e+02	-19.6887	-88.792763	-0.000071	-0.709482	-0.240379	-0.000028
1516	1.5074e+02	-19.6502	-88.825061	-0.000081	-0.810837	-0.274719	-0.000032
1517	1.5084e+02	-19.5989	-88.849283	-0.000061	-0.608128	-0.206039	-0.000024
1518	1.5094e+02	-19.5684	-88.897729	-0.000122	-1.216255	-0.412078	-0.000049
1519	1.5104e+02	-19.5187	-88.913877	-0.000041	-0.405418	-0.137359	-0.000016
1520	1.5114e+02	-19.4850	-88.885618	0.000071	0.709482	0.240379	0.000028
1521	1.5124e+02	-19.4465	-88.869469	0.000041	0.405418	0.137359	0.000016
1522	1.5134e+02	-19.4080	-88.889655	-0.000051	-0.506773	-0.171699	-0.000020
1523	1.5144e+02	-19.3615	-88.877543	0.000030	0.304064	0.103020	0.000012
1524	1.5154e+02	-19.3294	-88.873506	0.000010	0.101355	0.034340	0.000004
1525	1.5164e+02	-19.3021	-88.905803	-0.000081	-0.810837	-0.274719	-0.000032
1526	1.5174e+02	-19.2444	-88.853320	0.000132	1.317610	0.446418	0.000053
1527	1.5184e+02	-19.2155	-88.837172	0.000041	0.405418	0.137359	0.000016
1528	1.5194e+02	-19.1642	-88.788726	0.000122	1.216255	0.412078	0.000049
1529	1.5204e+02	-19.1273	-88.756429	0.000081	0.810837	0.274719	0.000032
1530	1.5214e+02	-19.0840	-88.740281	0.000041	0.405418	0.137359	0.000016
1531	1.5224e+02	-19.0455	-88.720095	0.000051	0.506773	0.171699	0.000020
1532	1.5233e+02	-19.0134	-88.643389	0.000193	1.925738	0.652458	0.000077
1533	1.5243e+02	-18.9668	-88.643389	0.000000	0.000000	0.000000	0.000000
1534	1.5253e+02	-18.9332	-88.566684	0.000193	1.925738	0.652458	0.000077
1535	1.5263e+02	-18.8866	-88.538424	0.000071	0.709482	0.240379	0.000028
1536	1.5273e+02	-18.8578	-88.469793	0.000172	1.723028	0.583778	0.000069
1537	1.5283e+02	-18.8112	-88.425384	0.000111	1.114901	0.377739	0.000045
1538	1.5293e+02	-18.7647	-88.364827	0.000152	1.520319	0.515098	0.000061
1539	1.5303e+02	-18.7342	-88.348678	0.000041	0.405418	0.137359	0.000016
1540	1.5313e+02	-18.6989	-88.263899	0.000213	2.128447	0.721137	0.000085
1541	1.5323e+02	-18.6524	-88.195267	0.000172	1.723028	0.583778	0.000069
1542	1.5333e+02	-18.6075	-88.138747	0.000142	1.418965	0.480758	0.000057
1543	1.5343e+02	-18.5770	-88.086265	0.000132	1.317610	0.446418	0.000053
1544	1.5353e+02	-18.5321	-88.013596	0.000182	1.824383	0.618118	0.000073
1545	1.5363e+02	-18.4952	-87.949002	0.000162	1.621674	0.549438	0.000065
1546	1.5373e+02	-18.4423	-87.924779	0.000061	0.608128	0.206039	0.000024
1547	1.5383e+02	-18.4150	-87.807702	0.000294	2.939284	0.995856	0.000118
1548	1.5393e+02	-18.3781	-87.795591	0.000030	0.304064	0.103020	0.000012
1549	1.5403e+02	-18.3332	-87.686588	0.000274	2.736575	0.927177	0.000110
1550	1.5413e+02	-18.2915	-87.593734	0.000233	2.331156	0.789817	0.000093
1551	1.5422e+02	-18.2465	-87.533177	0.000152	1.520319	0.515098	0.000061
1552	1.5432e+02	-18.2145	-87.480694	0.000132	1.317610	0.446418	0.000053
1553	1.5442e+02	-18.1631	-87.383803	0.000243	2.432511	0.824157	0.000097
1554	1.5452e+02	-18.1230	-87.286912	0.000243	2.432511	0.824157	0.000097
1555	1.5462e+02	-18.0957	-87.202132	0.000213	2.128447	0.721137	0.000085
1556	1.5472e+02	-18.0492	-87.149649	0.000132	1.317610	0.446418	0.000053
1557	1.5482e+02	-18.0139	-87.081018	0.000172	1.723028	0.583778	0.000069
1558	1.5492e+02	-17.9706	-86.992201	0.000223	2.229802	0.755477	0.000089
1559	1.5502e+02	-17.9305	-86.883198	0.000274	2.736575	0.927177	0.000110
1560	1.5512e+02	-17.8936	-86.863013	0.000051	0.506773	0.171699	0.000020
1561	1.5522e+02	-17.8551	-86.754010	0.000274	2.736575	0.927177	0.000110
1562	1.5532e+02	-17.7942	-86.628859	0.000314	3.141993	1.064536	0.000126
1563	1.5542e+02	-17.7749	-86.580413	0.000122	1.216255	0.412078	0.000049
1564	1.5552e+02	-17.7300	-86.503707	0.000193	1.925738	0.652458	0.000077
1565	1.5562e+02	-17.6947	-86.394705	0.000274	2.736575	0.927177	0.000110
1566	1.5572e+02	-17.6546	-86.322036	0.000182	1.824383	0.618118	0.000073
1567	1.5582e+02	-17.6241	-86.192848	0.000324	3.243348	1.098876	0.000130
1568	1.5592e+02	-17.5776	-86.148440	0.000111	1.114901	0.377739	0.000045
1569	1.5602e+02	-17.5359	-86.071734	0.000193	1.925738	0.652458	0.000077
1570	1.5612e+02	-17.4910	-86.015214	0.000142	1.418965	0.480758	0.000057
1571	1.5622e+02	-17.4557	-85.894100	0.000304	3.040638	1.030196	0.000122
1572	1.5631e+02	-17.4107	-85.809320	0.000213	2.128447	0.721137	0.000085
1573	1.5641e+02	-17.3706	-85.724540	0.000213	2.128447	0.721137	0.000085
1574	1.5651e+02	-17.3305	-85.607463	0.000294	2.939284	0.995856	0.000118
1575	1.5661e+02	-17.3017	-85.534795	0.000182	1.824383	0.618118	0.000073
1576	1.5671e+02	-17.2567	-85.466164	0.000172	1.723028	0.583778	0.000069
1577	1.5681e+02	-17.2102	-85.349087	0.000294	2.939284	0.995856	0.000118
1578	1.5691e+02	-17.1797	-85.308715	0.000101	1.013546	0.343399	0.000041
1579	1.5701e+02	-17.1380	-85.171453	0.000345	3.446057	1.167556	0.000138
1580	1.5711e+02	-17.0915	-85.123007	0.000122	1.216255	0.412078	0.000049
1581	1.5721e+02	-17.0546	-85.005930	0.000294	2.939284	0.995856	0.000118
1582	1.5731e+02	-17.0209	-84.892890	0.000284	2.837929	0.961516	0.000114
1583	1.5741e+02	-16.9776	-84.771776	0.000304	3.040638	1.030196	0.000122
1584	1.5751e+02	-16.9327	-84.755628	0.000041	0.405418	0.137359	0.000016
1585	1.5761e+02	-16.8958	-84.630476	0.000314	3.141993	1.064536	0.000126
1586	1.5771e+02	-16.8573	-84.557808	0.000182	1.824383	0.618118	0.000073
1587	1.5781e+02	-16.8172	-84.489177	0.000172	1.723028	0.583778	0.000069
1588	1.5791e+02	-16.7835	-84.400360	0.000223	2.229802	0.755477	0.000089
1589	1.5801e+02	-16.7257	-84.287320	0.000284	2.837929	0.961516	0.000114
1590	1.5811e+02	-16.7033	-84.166206	0.000304	3.040638	1.030196	0.000122
1591	1.5821e+02	-16.6584	-84.041055	0.000314	3.141993	1.064536	0.000126
1592	1.5830e+02	-16.6038	-83.984535	0.000142	1.418965	0.480758	0.000057
1593	1.5840e+02	-16.5717	-83.883606	0.000253	2.533865	0.858497	0.000101
1594	1.5850e+02	-16.5412	-83.806901	0.000193	1.925738	0.652458	0.000077
1595	1.5860e+02	-16.4979	-83.681750	0.000314	3.141993	1.064536	0.000126
1596	1.5870e+02	-16.4578	-83.601007	0.000203	2.027092	0.686797	0.000081
1597	1.5880e+02	-16.4241	-83.496041	0.000264	2.635220	0.892837	0.000105
1598	1.5890e+02	-16.3760	-83.378964	0.000294	2.939284	0.995856	0.000118
1599	1.5900e+02	-16.3471	-83.318407	0.000152	1.520319	0.515098	0.000061
1600	1.5910e+02	-16.2958	-83.173070	0.000365	3.648766	1.236235	0.000146
1601	1.5920e+02	-16.2573	-83.120588	0.000132	1.317610	0.446418	0.000053
1602	1.5930e+02	-16.2188	-82.995437	0.000314	3.141993	1.064536	0.000126
1603	1.5940e+02	-16.1819	-82.922768	0.000182	1.824383	0.618118	0.000073
1604	1.5950e+02	-16.1482	-82.821840	0.000253	2.533865	0.858497	0.000101
1605	1.5960e+02	-16.1049	-82.733023	0.000223	2.229802	0.755477	0.000089
1606	1.5970e+02	-16.0648	-82.595760	0.000345	3.446057	1.167556	0.000138
1607	1.5980e+02	-16.0183	-82.547314	0.000122	1.216255	0.412078	0.000049
1608	1.5990e+02	-15.9846	-82.397940	0.000375	3.750121	1.270575	0.000150
1609	1.6000e+02	-15.9364	-82.288938	0.000274	2.736575	0.927177	0.000110
1610	1.6010e+02	-15.9012	-82.200121	0.000223	2.229802	0.755477	0.000089
1611	1.6019e+02	-15.8562	-82.087081	0.000284	2.837929	0.961516	0.000114
1612	1.6029e+02	-15.8193	-81.978078	0.000274	2.736575	0.927177	0.000110
1613	1.6039e+02	-15.7840	-81.869076	0.000274	2.736575	0.927177	0.000110
1614	1.6049e+02	-15.7423	-81.796407	0.000182	1.824383	0.618118	0.000073
1615	1.6059e+02	-15.7103	-81.679330	0.000294	2.939284	0.995856	0.000118
1616	1.6069e+02	-15.6685	-81.578402	0.000253	2.533865	0.858497	0.000101
1617	1.6079e+02	-15.6204	-81.465362	0.000284	2.837929	0.961516	0.000114
1618	1.6089e+02	-15.5819	-81.388656	0.000193	1.925738	0.652458	0.000077
1619	1.6099e+02	-15.5482	-81.227171	0.000405	4.054185	1.373595	0.000162
1620	1.6109e+02	-15.4969	-81.162577	0.000162	1.621674	0.549438	0.000065
1621	1.6119e+02	-15.4600	-81.057611	0.000264	2.635220	0.892837	0.000105
1622	1.6129e+02	-15.4215	-80.900163	0.000395	3.952830	1.339255	0.000158
1623	1.6139e+02	-15.3830	-80.851717	0.000122	1.216255	0.412078	0.000049
1624	1.6149e+02	-15.3509	-80.766938	0.000213	2.128447	0.721137	0.000085
1625	1.6159e+02	-15.3012	-80.629675	0.000345	3.446057	1.167556	0.000138
1626	1.6169e+02	-15.2579	-80.561044	0.000172	1.723028	0.583778	0.000069
1627	1.6179e+02	-15.2290	-80.439930	0.000304	3.040638	1.030196	0.000122
1628	1.6189e+02	-15.1857	-80.310741	0.000324	3.243348	1.098876	0.000130
1629	1.6199e+02	-15.1424	-80.229999	0.000203	2.027092	0.686797	0.000081
1630	1.6209e+02	-15.1006	-80.100810	0.000324	3.243348	1.098876	0.000130
1631	1.6219e+02	-15.0605	-79.999882	0.000253	2.533865	0.858497	0.000101
1632	1.6228e+02	-15.0252	-79.890879	0.000274	2.736575	0.927177	0.000110
1633	1.6238e+02	-14.9883	-79.761691	0.000324	3.243348	1.098876	0.000130
1634	1.6248e+02	-14.9370	-79.672874	0.000223	2.229802	0.755477	0.000089
1635	1.6258e+02	-14.9081	-79.580020	0.000233	2.331156	0.789817	0.000093
1636	1.6268e+02	-14.8696	-79.462943	0.000294	2.939284	0.995856	0.000118
1637	1.6278e+02	-14.8279	-79.366051	0.000243	2.432511	0.824157	0.000097
1638	1.6288e+02	-14.7862	-79.224752	0.000355	3.547412	1.201896	0.000142
1639	1.6298e+02	-14.7445	-79.144009	0.000203	2.027092	0.686797	0.000081
1640	1.6308e+02	-14.7124	-79.051155	0.000233	2.331156	0.789817	0.000093
1641	1.6318e+02	-14.6627	-78.946189	0.000264	2.635220	0.892837	0.000105
1642	1.6328e+02	-14.6194	-78.837187	0.000274	2.736575	0.927177	0.000110
1643	1.6338e+02	-14.5857	-78.703961	0.000334	3.344702	1.133216	0.000134
1644	1.6348e+02	-14.5520	-78.615144	0.000223	2.229802	0.755477	0.000089
1645	1.6358e+02	-14.5087	-78.453659	0.000405	4.054185	1.373595	0.000162
1646	1.6368e+02	-14.4654	-78.344656	0.000274	2.736575	0.927177	0.000110
1647	1.6378e+02	-14.4221	-78.259876	0.000213	2.128447	0.721137	0.000085
1648	1.6388e+02	-14.3868	-78.130688	0.000324	3.243348	1.098876	0.000130
1649	1.6398e+02	-14.3467	-78.053982	0.000193	1.925738	0.652458	0.000077
1650	1.6408e+02	-14.3098	-77.940943	0.000284	2.837929	0.961516	0.000114
1651	1.6418e+02	-14.2568	-77.799643	0.000355	3.547412	1.201896	0.000142
1652	1.6427e+02	-14.2247	-77.698714	0.000253	2.533865	0.858497	0.000101
1653	1.6437e+02	-14.1878	-77.569526	0.000324	3.243348	1.098876	0.000130
1654	1.6447e+02	-14.1525	-77.492820	0.000193	1.925738	0.652458	0.000077
1655	1.6457e+02	-14.1076	-77.355558	0.000345	3.446057	1.167556	0.000138
1656	1.6467e+02	-14.0611	-77.230407	0.000314	3.141993	1.064536	0.000126
1657	1.6477e+02	-14.0306	-77.165812	0.000162	1.621674	0.549438	0.000065
1658	1.6487e+02	-13.9841	-77.044698	0.000304	3.040638	1.030196	0.000122
1659	1.6497e+02	-13.9472	-76.907436	0.000345	3.446057	1.167556	0.000138
1660	1.6507e+02	-13.9087	-76.754025	0.000385	3.851475	1.304915	0.000154
1661	1.6517e+02	-13.8750	-76.693468	0.000152	1.520319	0.515098	0.000061
1662	1.6527e+02	-13.8333	-76.560242	0.000334	3.344702	1.133216	0.000134
1663	1.6537e+02	-13.7852	-76.467388	0.000233	2.331156	0.789817	0.000093
1664	1.6547e+02	-13.7386	-76.358385	0.000274	2.736575	0.927177	0.000110
1665	1.6557e+02	-13.7034	-76.221123	0.000345	3.446057	1.167556	0.000138
1666	1.6567e+02	-13.6665	-76.079823	0.000355	3.547412	1.201896	0.000142
1667	1.6577e+02	-13.6328	-75.966783	0.000284	2.837929	0.961516	0.000114
1668	1.6587e+02	-13.5927	-75.817409	0.000375	3.750121	1.270575	0.000150
1669	1.6597e+02	-13.5461	-75.756852	0.000152	1.520319	0.515098	0.000061
1670	1.6607e+02	-13.5028	-75.623627	0.000334	3.344702	1.133216	0.000134
1671	1.6616e+02	-13.4723	-75.526735	0.000243	2.432511	0.824157	0.000097
1672	1.6626e+02	-13.4226	-75.361213	0.000416	4.155539	1.407935	0.000166
1673	1.6636e+02	-13.3921	-75.276433	0.000213	2.128447	0.721137	0.000085
1674	1.6646e+02	-13.3456	-75.143207	0.000334	3.344702	1.133216	0.000134
1675	1.6656e+02	-13.3119	-75.005945	0.000345	3.446057	1.167556	0.000138
1676	1.6666e+02	-13.2686	-74.953462	0.000132	1.317610	0.446418	0.000053
1677	1.6676e+02	-13.2349	-74.824274	0.000324	3.243348	1.098876	0.000130
1678	1.6686e+02	-13.1916	-74.695085	0.000324	3.243348	1.098876	0.000130
1679	1.6696e+02	-13.1467	-74.565897	0.000324	3.243348	1.098876	0.000130
1680	1.6706e+02	-13.1066	-74.424597	0.000355	3.547412	1.201896	0.000142
1681	1.6716e+02	-13.0809	-74.295409	0.000324	3.243348	1.098876	0.000130
1682	1.6726e+02	-13.0216	-74.190443	0.000264	2.635220	0.892837	0.000105
1683	1.6736e+02	-12.9911	-74.032995	0.000395	3.952830	1.339255	0.000158
1684	1.6746e+02	-12.9526	-73.976475	0.000142	1.418965	0.480758	0.000057
1685	1.6756e+02	-12.9125	-73.827101	0.000375	3.750121	1.270575	0.000150
1686	1.6766e+02	-12.8772	-73.726173	0.000253	2.533865	0.858497	0.000101
1687	1.6776e+02	-12.8274	-73.605059	0.000304	3.040638	1.030196	0.000122
1688	1.6786e+02	-12.7986	-73.463759	0.000355	3.547412	1.201896	0.000142
1689	1.6796e+02	-12.7617	-73.350719	0.000284	2.837929	0.961516	0.000114
1690	1.6806e+02	-12.7168	-73.249791	0.000253	2.533865	0.858497	0.000101
1691	1.6816e+02	-12.6686	-73.132714	0.000294	2.939284	0.995856	0.000118
1692	1.6825e+02	-12.6414	-73.007563	0.000314	3.141993	1.064536	0.000126
1693	1.6835e+02	-12.6045	-72.874337	0.000334	3.344702	1.133216	0.000134
1694	1.6845e+02	-12.5547	-72.785520	0.000223	2.229802	0.755477	0.000089
1695	1.6855e+02	-12.5130	-72.615961	0.000426	4.256894	1.442275	0.000170
1696	1.6865e+02	-12.4745	-72.539255	0.000193	1.925738	0.652458	0.000077
1697	1.6875e+02	-12.4328	-72.377770	0.000405	4.054185	1.373595	0.000162
1698	1.6885e+02	-12.3991	-72.268767	0.000274	2.736575	0.927177	0.000110
1699	1.6895e+02	-12.3574	-72.151690	0.000294	2.939284	0.995856	0.000118
1700	1.6905e+02	-12.3141	-72.022502	0.000324	3.243348	1.098876	0.000130
1701	1.6915e+02	-12.2852	-71.889276	0.000334	3.344702	1.133216	0.000134
1702	1.6925e+02	-12.2323	-71.723754	0.000416	4.155539	1.407935	0.000166
1703	1.6935e+02	-12.1858	-71.651085	0.000182	1.824383	0.618118	0.000073
1704	1.6945e+02	-12.1505	-71.538045	0.000284	2.837929	0.961516	0.000114
1705	1.6955e+02	-12.1136	-71.412894	0.000314	3.141993	1.064536	0.000126
1706	1.6965e+02	-12.0783	-71.275631	0.000345	3.446057	1.167556	0.000138
1707	1.6975e+02	-12.0334	-71.122220	0.000385	3.851475	1.304915	0.000154
1708	1.6985e+02	-11.9852	-70.984958	0.000345	3.446057	1.167556	0.000138
1709	1.6995e+02	-11.9596	-70.932475	0.000132	1.317610	0.446418	0.000053
1710	1.7005e+02	-11.9114	-70.775027	0.000395	3.952830	1.339255	0.000158
1711	1.7015e+02	-11.8826	-70.657950	0.000294	2.939284	0.995856	0.000118
1712	1.7024e+02	-11.8360	-70.561058	0.000243	2.432511	0.824157	0.000097
1713	1.7034e+02	-11.7959	-70.407647	0.000385	3.851475	1.304915	0.000154
1714	1.7044e+02	-11.7606	-70.282496	0.000314	3.141993	1.064536	0.000126
1715	1.7054e+02	-11.7125	-70.177531	0.000264	2.635220	0.892837	0.000105
1716	1.7064e+02	-11.6868	-70.007971	0.000426	4.256894	1.442275	0.000170
1717	1.7074e+02	-11.6387	-69.911080	0.000243	2.432511	0.824157	0.000097
1718	1.7084e+02	-11.5986	-69.753631	0.000395	3.952830	1.339255	0.000158
1719	1.7094e+02	-11.5569	-69.668851	0.000213	2.128447	0.721137	0.000085
1720	1.7104e+02	-11.5264	-69.503329	0.000416	4.155539	1.407935	0.000166
1721	1.7114e+02	-11.4703	-69.406438	0.000243	2.432511	0.824157	0.000097
1722	1.7124e+02	-11.4430	-69.285324	0.000304	3.040638	1.030196	0.000122
1723	1.7134e+02	-11.3981	-69.123838	0.000405	4.054185	1.373595	0.000162
1724	1.7144e+02	-11.3483	-69.006761	0.000294	2.939284	0.995856	0.000118
1725	1.7154e+02	-11.3195	-68.885647	0.000304	3.040638	1.030196	0.000122
1726	1.7164e+02	-11.2745	-68.748384	0.000345	3.446057	1.167556	0.000138
1727	1.7174e+02	-11.2457	-68.615159	0.000334	3.344702	1.133216	0.000134
1728	1.7184e+02	-11.1911	-68.538453	0.000193	1.925738	0.652458	0.000077
1729	1.7194e+02	-11.1623	-68.376968	0.000405	4.054185	1.373595	0.000162
1730	1.7204e+02	-11.1189	-68.267965	0.000274	2.736575	0.927177	0.000110
1731	1.7213e+02	-11.0820	-68.098406	0.000426	4.256894	1.442275	0.000170
1732	1.7223e+02	-11.0419	-67.985366	0.000284	2.837929	0.961516	0.000114
1733	1.7233e+02	-10.9970	-67.872326	0.000284	2.837929	0.961516	0.000114
1734	1.7243e+02	-10.9569	-67.743138	0.000324	3.243348	1.098876	0.000130
1735	1.7253e+02	-10.9120	-67.622024	0.000304	3.040638	1.030196	0.000122
1736	1.7263e+02	-10.8815	-67.484761	0.000345	3.446057	1.167556	0.000138
1737	1.7273e+02	-10.8430	-67.367684	0.000294	2.939284	0.995856	0.000118
1738	1.7283e+02	-10.7949	-67.218310	0.000375	3.750121	1.270575	0.000150
1739	1.7293e+02	-10.7516	-67.081047	0.000345	3.446057	1.167556	0.000138
1740	1.7303e+02	-10.7147	-66.947822	0.000334	3.344702	1.133216	0.000134
1741	1.7313e+02	-10.6826	-66.822671	0.000314	3.141993	1.064536	0.000126
1742	1.7323e+02	-10.6505	-66.737891	0.000213	2.128447	0.721137	0.000085
1743	1.7333e+02	-10.6008	-66.592554	0.000365	3.648766	1.236235	0.000146
1744	1.7343e+02	-10.5591	-66.455291	0.000345	3.446057	1.167556	0.000138
1745	1.7353e+02	-10.5157	-66.326103	0.000324	3.243348	1.098876	0.000130
1746	1.7363e+02	-10.4821	-66.217100	0.000274	2.736575	0.927177	0.000110
1747	1.7373e+02	-10.4339	-66.023318	0.000487	4.865022	1.648314	0.000195
1748	1.7383e+02	-10.4034	-65.902204	0.000304	3.040638	1.030196	0.000122
1749	1.7393e+02	-10.3633	-65.805313	0.000243	2.432511	0.824157	0.000097
1750	1.7403e+02	-10.3264	-65.724570	0.000203	2.027092	0.686797	0.000081
1751	1.7413e+02	-10.2912	-65.530787	0.000487	4.865022	1.648314	0.000195
1752	1.7422e+02	-10.2366	-65.441970	0.000223	2.229802	0.755477	0.000089
1753	1.7432e+02	-10.2029	-65.312782	0.000324	3.243348	1.098876	0.000130
1754	1.7442e+02	-10.1612	-65.143222	0.000426	4.256894	1.442275	0.000170
1755	1.7452e+02	-10.1099	-65.054405	0.000223	2.229802	0.755477	0.000089
1756	1.7462e+02	-10.0794	-64.909068	0.000365	3.648766	1.236235	0.000146
1757	1.7472e+02	-10.0457	-64.731434	0.000446	4.459603	1.510954	0.000179
1758	1.7482e+02	-9.9976	-64.634543	0.000243	2.432511	0.824157	0.000097
1759	1.7492e+02	-9.9655	-64.497281	0.000345	3.446057	1.167556	0.000138
1760	1.7502e+02	-9.9270	-64.388278	0.000274	2.736575	0.927177	0.000110
1761	1.7512e+02	-9.8805	-64.230830	0.000395	3.952830	1.339255	0.000158
1762	1.7522e+02	-9.8516	-64.073381	0.000395	3.952830	1.339255	0.000158
1763	1.7532e+02	-9.8067	-63.992639	0.000203	2.027092	0.686797	0.000081
1764	1.7542e+02	-9.7618	-63.823079	0.000426	4.256894	1.442275	0.000170
1765	1.7552e+02	-9.7265	-63.701965	0.000304	3.040638	1.030196	0.000122
1766	1.7562e+02	-9.6831	-63.536442	0.000416	4.155539	1.407935	0.000166
1767	1.7572e+02	-9.6366	-63.435514	0.000253	2.533865	0.858497	0.000101
1768	1.7582e+02	-9.6029	-63.310363	0.000314	3.141993	1.064536	0.000126
1769	1.7592e+02	-9.5660	-63.160989	0.000375	3.750121	1.270575	0.000150
1770	1.7602e+02	-9.5324	-62.999503	0.000405	4.054185	1.373595	0.000162
1771	1.7612e+02	-9.4810	-62.882426	0.000294	2.939284	0.995856	0.000118
1772	1.7621e+02	-9.4377	-62.741127	0.000355	3.547412	1.201896	0.000142
1773	1.7631e+02	-9.4024	-62.583678	0.000395	3.952830	1.339255	0.000158
1774	1.7641e+02	-9.3655	-62.498898	0.000213	2.128447	0.721137	0.000085
1775	1.7651e+02	-9.3334	-62.313190	0.000466	4.662312	1.579634	0.000187
1776	1.7661e+02	-9.2853	-62.188039	0.000314	3.141993	1.064536	0.000126
1777	1.7671e+02	-9.2468	-62.034628	0.000385	3.851475	1.304915	0.000154
1778	1.7681e+02	-9.2083	-61.905439	0.000324	3.243348	1.098876	0.000130
1779	1.7691e+02	-9.1714	-61.772214	0.000334	3.344702	1.133216	0.000134
1780	1.7701e+02	-9.1217	-61.626877	0.000365	3.648766	1.236235	0.000146
1781	1.7711e+02	-9.0864	-61.489614	0.000345	3.446057	1.167556	0.000138
1782	1.7721e+02	-9.0399	-61.360426	0.000324	3.243348	1.098876	0.000130
1783	1.7731e+02	-9.0030	-61.239312	0.000304	3.040638	1.030196	0.000122
1784	1.7741e+02	-8.9645	-61.106087	0.000334	3.344702	1.133216	0.000134
1785	1.7751e+02	-8.9340	-60.920378	0.000466	4.662312	1.579634	0.000187
1786	1.7761e+02	-8.8794	-60.831561	0.000223	2.229802	0.755477	0.000089
1787	1.7771e+02	-8.8489	-60.653927	0.000446	4.459603	1.510954	0.000179
1788	1.7781e+02	-8.8072	-60.512628	0.000355	3.547412	1.201896	0.000142
1789	1.7791e+02	-8.7800	-60.371328	0.000355	3.547412	1.201896	0.000142
1790	1.7801e+02	-8.7302	-60.213880	0.000395	3.952830	1.339255	0.000158
1791	1.7810e+02	-8.6965	-60.080654	0.000334	3.344702	1.133216	0.000134
1792	1.7820e+02	-8.6532	-59.943391	0.000345	3.446057	1.167556	0.000138
1793	1.7830e+02	-8.6083	-59.798055	0.000365	3.648766	1.236235	0.000146
1794	1.7840e+02	-8.5810	-59.664829	0.000334	3.344702	1.133216	0.000134
1795	1.7850e+02	-8.5281	-59.511418	0.000385	3.851475	1.304915	0.000154
1796	1.7860e+02	-8.4736	-59.418564	0.000233	2.331156	0.789817	0.000093
1797	1.7870e+02	-8.4463	-59.224781	0.000487	4.865022	1.648314	0.000195
1798	1.7880e+02	-8.4126	-59.115779	0.000274	2.736575	0.927177	0.000110
1799	1.7890e+02	-8.3693	-58.950256	0.000416	4.155539	1.407935	0.000166
1800	1.7900e+02	-8.3292	-58.841253	0.000274	2.736575	0.927177	0.000110
1801	1.7910e+02	-8.2875	-58.675731	0.000416	4.155539	1.407935	0.000166
1802	1.7920e+02	-8.2458	-58.518283	0.000395	3.952830	1.339255	0.000158
1803	1.7930e+02	-8.2137	-58.372946	0.000365	3.648766	1.236235	0.000146
1804	1.7940e+02	-8.1768	-58.243757	0.000324	3.243348	1.098876	0.000130
1805	1.7950e+02	-8.1286	-58.098420	0.000365	3.648766	1.236235	0.000146
1806	1.7960e+02	-8.0869	-57.924824	0.000436	4.358248	1.476615	0.000174
1807	1.7970e+02	-8.0468	-57.787561	0.000345	3.446057	1.167556	0.000138
1808	1.7980e+02	-8.0115	-57.634150	0.000385	3.851475	1.304915	0.000154
1809	1.7990e+02	-7.9698	-57.517073	0.000294	2.939284	0.995856	0.000118
1810	1.8000e+02	-7.9185	-57.339439	0.000446	4.459603	1.510954	0.000179
1811	1.8009e+02	-7.8896	-57.210251	0.000324	3.243348	1.098876	0.000130
1812	1.8019e+02	-7.8447	-57.048765	0.000405	4.054185	1.373595	0.000162
1813	1.8029e+02	-7.8126	-56.907465	0.000355	3.547412	1.201896	0.000142
1814	1.8039e+02	-7.7773	-56.745980	0.000405	4.054185	1.373595	0.000162
1815	1.8049e+02	-7.7276	-56.580457	0.000416	4.155539	1.407935	0.000166
1816	1.8059e+02	-7.7035	-56.423009	0.000395	3.952830	1.339255	0.000158
1817	1.8069e+02	-7.6586	-56.297858	0.000314	3.141993	1.064536	0.000126
1818	1.8079e+02	-7.6073	-56.144447	0.000385	3.851475	1.304915	0.000154
1819	1.8089e+02	-7.5704	-55.978924	0.000416	4.155539	1.407935	0.000166
1820	1.8099e+02	-7.5271	-55.869921	0.000274	2.736575	0.927177	0.000110
1821	1.8109e+02	-7.4934	-55.720547	0.000375	3.750121	1.270575	0.000150
1822	1.8119e+02	-7.4581	-55.502542	0.000547	5.473149	1.854353	0.000219
1823	1.8129e+02	-7.4051	-55.409688	0.000233	2.331156	0.789817	0.000093
1824	1.8139e+02	-7.3682	-55.215905	0.000487	4.865022	1.648314	0.000195
1825	1.8149e+02	-7.3426	-55.058457	0.000395	3.952830	1.339255	0.000158
1826	1.8159e+02	-7.2977	-54.880823	0.000446	4.459603	1.510954	0.000179
1827	1.8169e+02	-7.2672	-54.767783	0.000284	2.837929	0.961516	0.000114
1828	1.8179e+02	-7.2142	-54.586112	0.000456	4.560958	1.545294	0.000183
1829	1.8189e+02	-7.1725	-54.456924	0.000324	3.243348	1.098876	0.000130
1830	1.8199e+02	-7.1356	-54.291401	0.000416	4.155539	1.407935	0.000166
1831	1.8209e+02	-7.0971	-54.133953	0.000395	3.952830	1.339255	0.000158
1832	1.8218e+02	-7.0570	-53.980542	0.000385	3.851475	1.304915	0.000154
1833	1.8228e+02	-7.0089	-53.810982	0.000426	4.256894	1.442275	0.000170
1834	1.8238e+02	-6.9752	-53.661608	0.000375	3.750121	1.270575	0.000150
1835	1.8248e+02	-6.9287	-53.496086	0.000416	4.155539	1.407935	0.000166
1836	1.8258e+02	-6.8918	-53.342675	0.000385	3.851475	1.304915	0.000154
1837	1.8268e+02	-6.8485	-53.189263	0.000385	3.851475	1.304915	0.000154
1838	1.8278e+02	-6.8228	-53.011629	0.000446	4.459603	1.510954	0.000179
1839	1.8288e+02	-6.7747	-52.854181	0.000395	3.952830	1.339255	0.000158
1840	1.8298e+02	-6.7490	-52.684621	0.000426	4.256894	1.442275	0.000170
1841	1.8308e+02	-6.6913	-52.531210	0.000385	3.851475	1.304915	0.000154
1842	1.8318e+02	-6.6544	-52.361651	0.000426	4.256894	1.442275	0.000170
1843	1.8328e+02	-6.6239	-52.208239	0.000385	3.851475	1.304915	0.000154
1844	1.8338e+02	-6.5774	-52.026568	0.000456	4.560958	1.545294	0.000183
1845	1.8348e+02	-6.5292	-51.905454	0.000304	3.040638	1.030196	0.000122
1846	1.8358e+02	-6.4939	-51.731857	0.000436	4.358248	1.476615	0.000174
1847	1.8368e+02	-6.4586	-51.562298	0.000426	4.256894	1.442275	0.000170
1848	1.8378e+02	-6.4201	-51.388701	0.000436	4.358248	1.476615	0.000174
1849	1.8388e+02	-6.3752	-51.215104	0.000436	4.358248	1.476615	0.000174
1850	1.8398e+02	-6.3383	-51.085916	0.000324	3.243348	1.098876	0.000130
1851	1.8407e+02	-6.2998	-50.924430	0.000405	4.054185	1.373595	0.000162
1852	1.8417e+02	-6.2565	-50.750833	0.000436	4.358248	1.476615	0.000174
1853	1.8427e+02	-6.2212	-50.569162	0.000456	4.560958	1.545294	0.000183
1854	1.8437e+02	-6.1715	-50.427863	0.000355	3.547412	1.201896	0.000142
1855	1.8447e+02	-6.1378	-50.258303	0.000426	4.256894	1.442275	0.000170
1856	1.8457e+02	-6.1041	-50.080669	0.000446	4.459603	1.510954	0.000179
1857	1.8467e+02	-6.0608	-49.935332	0.000365	3.648766	1.236235	0.000146
1858	1.8477e+02	-6.0239	-49.729438	0.000517	5.169085	1.751334	0.000207
1859	1.8487e+02	-5.9870	-49.612361	0.000294	2.939284	0.995856	0.000118
1860	1.8497e+02	-5.9469	-49.454913	0.000395	3.952830	1.339255	0.000158
1861	1.8507e+02	-5.8940	-49.265167	0.000476	4.763667	1.613974	0.000191
1862	1.8517e+02	-5.8554	-49.083496	0.000456	4.560958	1.545294	0.000183
1863	1.8527e+02	-5.8202	-48.934122	0.000375	3.750121	1.270575	0.000150
1864	1.8537e+02	-5.7768	-48.760525	0.000436	4.358248	1.476615	0.000174
1865	1.8547e+02	-5.7448	-48.578854	0.000456	4.560958	1.545294	0.000183
1866	1.8557e+02	-5.7063	-48.441592	0.000345	3.446057	1.167556	0.000138
1867	1.8567e+02	-5.6645	-48.255883	0.000466	4.662312	1.579634	0.000187
1868	1.8577e+02	-5.6180	-48.086324	0.000426	4.256894	1.442275	0.000170
1869	1.8587e+02	-5.5859	-47.864281	0.000557	5.574504	1.888693	0.000223
1870	1.8597e+02	-5.5426	-47.718944	0.000365	3.648766	1.236235	0.000146
1871	1.8606e+02	-5.5025	-47.557459	0.000405	4.054185	1.373595	0.000162
1872	1.8616e+02	-5.4544	-47.395974	0.000405	4.054185	1.373595	0.000162
1873	1.8626e+02	-5.4239	-47.210265	0.000466	4.662312	1.579634	0.000187
1874	1.8636e+02	-5.3774	-47.048780	0.000405	4.054185	1.373595	0.000162
1875	1.8646e+02	-5.3389	-46.887294	0.000405	4.054185	1.373595	0.000162
1876	1.8656e+02	-5.2972	-46.689475	0.000497	4.966376	1.682654	0.000199
1877	1.8666e+02	-5.2699	-46.540101	0.000375	3.750121	1.270575	0.000150
1878	1.8676e+02	-5.2202	-46.330170	0.000527	5.270440	1.785673	0.000211
1879	1.8686e+02	-5.1897	-46.168684	0.000405	4.054185	1.373595	0.000162
1880	1.8696e+02	-5.1416	-45.982976	0.000466	4.662312	1.579634	0.000187
1881	1.8706e+02	-5.1143	-45.785156	0.000497	4.966376	1.682654	0.000199
1882	1.8716e+02	-5.0662	-45.668079	0.000294	2.939284	0.995856	0.000118
1883	1.8726e+02	-5.0277	-45.482371	0.000466	4.662312	1.579634	0.000187
1884	1.8736e+02	-4.9860	-45.320886	0.000405	4.054185	1.373595	0.000162
1885	1.8746e+02	-4.9378	-45.123066	0.000497	4.966376	1.682654	0.000199
1886	1.8756e+02	-4.9057	-44.965618	0.000395	3.952830	1.339255	0.000158
1887	1.8766e+02	-4.8592	-44.775872	0.000476	4.763667	1.613974	0.000191
1888	1.8776e+02	-4.8255	-44.606313	0.000426	4.256894	1.442275	0.000170
1889	1.8786e+02	-4.7886	-44.388307	0.000547	5.473149	1.854353	0.000219
1890	1.8796e+02	-4.7485	-44.210673	0.000446	4.459603	1.510954	0.000179
1891	1.8806e+02	-4.6988	-44.024965	0.000466	4.662312	1.579634	0.000187
1892	1.8815e+02	-4.6699	-43.883665	0.000355	3.547412	1.201896	0.000142
1893	1.8825e+02	-4.6186	-43.669697	0.000537	5.371795	1.820013	0.000215
1894	1.8835e+02	-4.5881	-43.532435	0.000345	3.446057	1.167556	0.000138
1895	1.8845e+02	-4.5496	-43.314429	0.000547	5.473149	1.854353	0.000219
1896	1.8855e+02	-4.5031	-43.156981	0.000395	3.952830	1.339255	0.000158
1897	1.8865e+02	-4.4662	-42.951087	0.000517	5.169085	1.751334	0.000207
1898	1.8875e+02	-4.4357	-42.777490	0.000436	4.358248	1.476615	0.000174
1899	1.8885e+02	-4.3844	-42.579671	0.000497	4.966376	1.682654	0.000199
1900	1.8895e+02	-4.3475	-42.381851	0.000497	4.966376	1.682654	0.000199
1901	1.8905e+02	-4.3042	-42.212291	0.000426	4.256894	1.442275	0.000170
1902	1.8915e+02	-4.2753	-42.034657	0.000446	4.459603	1.510954	0.000179
1903	1.8925e+02	-4.2304	-41.844912	0.000476	4.763667	1.613974	0.000191
1904	1.8935e+02	-4.1887	-41.703612	0.000355	3.547412	1.201896	0.000142
1905	1.8945e+02	-4.1485	-41.505793	0.000497	4.966376	1.682654	0.000199
1906	1.8955e+02	-4.1149	-41.243379	0.000659	6.588050	2.232092	0.000264
1907	1.8965e+02	-4.0667	-41.118227	0.000314	3.141993	1.064536	0.000126
1908	1.8975e+02	-4.0314	-40.936556	0.000456	4.560958	1.545294	0.000183
1909	1.8985e+02	-3.9929	-40.722588	0.000537	5.371795	1.820013	0.000215
1910	1.8995e+02	-3.9528	-40.548991	0.000436	4.358248	1.476615	0.000174
1911	1.9004e+02	-3.9159	-40.371357	0.000446	4.459603	1.510954	0.000179
1912	1.9014e+02	-3.8694	-40.181612	0.000476	4.763667	1.613974	0.000191
1913	1.9024e+02	-3.8309	-39.971681	0.000527	5.270440	1.785673	0.000211
1914	1.9034e+02	-3.7924	-39.765787	0.000517	5.169085	1.751334	0.000207
1915	1.9044e+02	-3.7491	-39.640636	0.000314	3.141993	1.064536	0.000126
1916	1.9054e+02	-3.6978	-39.414556	0.000568	5.675858	1.923033	0.000227
1917	1.9064e+02	-3.6721	-39.220774	0.000487	4.865022	1.648314	0.000195
1918	1.9074e+02	-3.6272	-39.075437	0.000365	3.648766	1.236235	0.000146
1919	1.9084e+02	-3.5903	-38.849357	0.000568	5.675858	1.923033	0.000227
1920	1.9094e+02	-3.5518	-38.647500	0.000507	5.067731	1.716994	0.000203
1921	1.9104e+02	-3.5181	-38.473904	0.000436	4.358248	1.476615	0.000174
1922	1.9114e+02	-3.4716	-38.276084	0.000497	4.966376	1.682654	0.000199
1923	1.9124e+02	-3.4298	-38.082301	0.000487	4.865022	1.648314	0.000195
1924	1.9134e+02	-3.3930	-37.876407	0.000517	5.169085	1.751334	0.000207
1925	1.9144e+02	-3.3432	-37.690699	0.000466	4.662312	1.579634	0.000187
1926	1.9154e+02	-3.3159	-37.492880	0.000497	4.966376	1.682654	0.000199
1927	1.9164e+02	-3.2742	-37.323320	0.000426	4.256894	1.442275	0.000170
1928	1.9174e+02	-3.2309	-37.113389	0.000527	5.270440	1.785673	0.000211
1929	1.9184e+02	-3.1956	-36.935755	0.000446	4.459603	1.510954	0.000179
1930	1.9194e+02	-3.1523	-36.762158	0.000436	4.358248	1.476615	0.000174
1931	1.9203e+02	-3.1106	-36.507818	0.000639	6.385341	2.163412	0.000256
1932	1.9213e+02	-3.0769	-36.285776	0.000557	5.574504	1.888693	0.000223
1933	1.9223e+02	-3.0304	-36.120253	0.000416	4.155539	1.407935	0.000166
1934	1.9233e+02	-2.9935	-35.926471	0.000487	4.865022	1.648314	0.000195
1935	1.9243e+02	-2.9518	-35.756911	0.000426	4.256894	1.442275	0.000170
1936	1.9253e+02	-2.9197	-35.551017	0.000517	5.169085	1.751334	0.000207
1937	1.9263e+02	-2.8764	-35.296678	0.000639	6.385341	2.163412	0.000256
1938	1.9273e+02	-2.8331	-35.119044	0.000446	4.459603	1.510954	0.000179
1939	1.9283e+02	-2.7930	-34.909113	0.000527	5.270440	1.785673	0.000211
1940	1.9293e+02	-2.7481	-34.755702	0.000385	3.851475	1.304915	0.000154
1941	1.9303e+02	-2.7176	-34.521548	0.000588	5.878568	1.991713	0.000235
1942	1.9313e+02	-2.6855	-34.287394	0.000588	5.878568	1.991713	0.000235
1943	1.9323e+02	-2.6309	-34.105723	0.000456	4.560958	1.545294	0.000183
1944	1.9333e+02	-2.5940	-33.907903	0.000497	4.966376	1.682654	0.000199
1945	1.9343e+02	-2.5475	-33.697972	0.000527	5.270440	1.785673	0.000211
1946	1.9353e+02	-2.5154	-33.496115	0.000507	5.067731	1.716994	0.000203
1947	1.9363e+02	-2.4737	-33.278110	0.000547	5.473149	1.854353	0.000219
1948	1.9373e+02	-2.4400	-33.052030	0.000568	5.675858	1.923033	0.000227
1949	1.9383e+02	-2.3951	-32.842099	0.000527	5.270440	1.785673	0.000211
1950	1.9393e+02	-2.3518	-32.700799	0.000355	3.547412	1.201896	0.000142
1951	1.9403e+02	-2.3133	-32.434349	0.000669	6.689405	2.266432	0.000268
1952	1.9412e+02	-2.2732	-32.244603	0.000476	4.763667	1.613974	0.000191
1953	1.9422e+02	-2.2395	-32.010449	0.000588	5.878568	1.991713	0.000235
1954	1.9432e+02	-2.1898	-31.808592	0.000507	5.067731	1.716994	0.000203
1955	1.9442e+02	-2.1465	-31.598661	0.000527	5.270440	1.785673	0.000211
1956	1.9452e+02	-2.1192	-31.356433	0.000608	6.081277	2.060392	0.000243
1957	1.9462e+02	-2.0791	-31.138428	0.000547	5.473149	1.854353	0.000219
1958	1.9472e+02	-2.0342	-30.948683	0.000476	4.763667	1.613974	0.000191
1959	1.9482e+02	-2.0005	-30.730677	0.000547	5.473149	1.854353	0.000219
1960	1.9492e+02	-1.9443	-30.492486	0.000598	5.979922	2.026053	0.000239
1961	1.9502e+02	-1.9155	-30.310815	0.000456	4.560958	1.545294	0.000183
1962	1.9512e+02	-1.8802	-30.052438	0.000649	6.486695	2.197752	0.000260
1963	1.9522e+02	-1.8401	-29.894990	0.000395	3.952830	1.339255	0.000158
1964	1.9532e+02	-1.7999	-29.636613	0.000649	6.486695	2.197752	0.000260
1965	1.9542e+02	-1.7598	-29.418608	0.000547	5.473149	1.854353	0.000219
1966	1.9552e+02	-1.7149	-29.220788	0.000497	4.966376	1.682654	0.000199
1967	1.9562e+02	-1.6828	-28.994709	0.000568	5.675858	1.923033	0.000227
1968	1.9572e+02	-1.6363	-28.784778	0.000527	5.270440	1.785673	0.000211
1969	1.9582e+02	-1.6026	-28.574847	0.000527	5.270440	1.785673	0.000211
1970	1.9592e+02	-1.5513	-28.340693	0.000588	5.878568	1.991713	0.000235
1971	1.9601e+02	-1.5176	-28.146910	0.000487	4.865022	1.648314	0.000195
1972	1.9611e+02	-1.4775	-27.916794	0.000578	5.777213	1.957373	0.000231
1973	1.9621e+02	-1.4358	-27.654380	0.000659	6.588050	2.232092	0.000264
1974	1.9631e+02	-1.3925	-27.440412	0.000537	5.371795	1.820013	0.000215
1975	1.9641e+02	-1.3588	-27.230481	0.000527	5.270440	1.785673	0.000211
1976	1.9651e+02	-1.3123	-27.020549	0.000527	5.270440	1.785673	0.000211
1977	1.9661e+02	-1.2802	-26.750061	0.000679	6.790759	2.300772	0.000272
1978	1.9671e+02	-1.2369	-26.572427	0.000446	4.459603	1.510954	0.000179
1979	1.9681e+02	-1.1952	-26.334236	0.000598	5.979922	2.026053	0.000239
1980	1.9691e+02	-1.1599	-26.079897	0.000639	6.385341	2.163412	0.000256
1981	1.9701e+02	-1.1182	-25.861892	0.000547	5.473149	1.854353	0.000219
1982	1.9711e+02	-1.0829	-25.651960	0.000527	5.270440	1.785673	0.000211
1983	1.9721e+02	-1.0444	-25.389547	0.000659	6.588050	2.232092	0.000264
1984	1.9731e+02	-0.9978	-25.147319	0.000608	6.081277	2.060392	0.000243
1985	1.9741e+02	-0.9625	-24.941425	0.000517	5.169085	1.751334	0.000207
1986	1.9751e+02	-0.9208	-24.650751	0.000730	7.297532	2.472471	0.000292
1987	1.9761e+02	-0.8807	-24.432745	0.000547	5.473149	1.854353	0.000219
1988	1.9771e+02	-0.8454	-24.226852	0.000517	5.169085	1.751334	0.000207
1989	1.9781e+02	-0.7893	-23.960401	0.000669	6.689405	2.266432	0.000268
1990	1.9791e+02	-0.7636	-23.734321	0.000568	5.675858	1.923033	0.000227
1991	1.9800e+02	-0.7187	-23.520353	0.000537	5.371795	1.820013	0.000215
1992	1.9810e+02	-0.6802	-23.302347	0.000547	5.473149	1.854353	0.000219
1993	1.9820e+02	-0.6369	-23.023785	0.000699	6.993468	2.369451	0.000280
1994	1.9830e+02	-0.5871	-22.821928	0.000507	5.067731	1.716994	0.000203
1995	1.9840e+02	-0.5695	-22.547403	0.000689	6.892114	2.335111	0.000276
1996	1.9850e+02	-0.5278	-22.333435	0.000537	5.371795	1.820013	0.000215
1997	1.9860e+02	-0.4845	-22.079095	0.000639	6.385341	2.163412	0.000256
1998	1.9870e+02	-0.4444	-21.816682	0.000659	6.588050	2.232092	0.000264
1999	1.9880e+02	-0.3898	-21.594639	0.000557	5.574504	1.888693	0.000223
2000	1.9890e+02	-0.3561	-21.372597	0.000557	5.574504	1.888693	0.000223
2001	1.9900e+02	-0.3208	-21.114220	0.000649	6.486695	2.197752	0.000260
2002	1.9910e+02	-0.2888	-20.884103	0.000578	5.777213	1.957373	0.000231
2003	1.9920e+02	-0.2438	-20.645912	0.000598	5.979922	2.026053	0.000239
2004	1.9930e+02	-0.2086	-20.403684	0.000608	6.081277	2.060392	0.000243
2005	1.9940e+02	-0.1668	-20.149344	0.000639	6.385341	2.163412	0.000256
2006	1.9950e+02	-0.1267	-19.886931	0.000659	6.588050	2.232092	0.000264
2007	1.9960e+02	-0.0850	-19.632591	0.000639	6.385341	2.163412	0.000256
2008	1.9970e+02	-0.0337	-19.325769	0.000770	7.702951	2.609830	0.000308
2009	1.9980e+02	-0.0016	-19.140061	0.000770	7.702951	2.609830	0.000187

Center data before PMax,+/-Pr and +/-Vc Calc.

PMax (uC/cm2):	8.89e+01
Pr (uC/cm2):	1.20e+01
-Pr (uC/cm2):	-1.91e+01
PLoss (uC/cm2):	-1.95e+01
-Vc:	-2.00e+00
C (Max-Eff) (nF):	4.45e-01
K (Eff):	1.51e+03
Vert. (+/-Pr) Shift (uC/cm2):	-3.58e+00
Offset (uC/cm2):	-2.99e-01

A (Loop Area - uC/cm2·Volts):	1.24e-01



Hysteresis Version: 5.48.1 - Radiant Technologies, Inc., 1999 - 9/12/24

