»»»»»»»»»»»»»»»»»»»»»»»»»»»»»»»»»»»» Hysteresis ««««««««««««««««««««««««««««««««««««
»»»  Executed Version:	5.48.1
»»»  Vision Version:	5.48.4 (R)
»»»  Vision Compiled:	9/18/24
»»»  Driver Version:	5.47.0
»»»  Windows Version:	Windows 8 or 8.1
»»»  Processor Information:	x86 (AMD or Intel) - 32 Processors
»»»  Tester Name:	PMF21124-494 (100V)
»»»  Tester S/N:	PMF21124-494
»»»  Internal Amp Type:	100V RevK 270k
»»»  Internal Amp S/N:	iAB2-596/K     
»»»  Execution Count:	1
»»»»»»»»»»»»»»»»»»»»»»»»»»»»»»»»»»»»»»»»»»««««««««««««««««««««««««««««««««««««««««««

Stored:	6/10/2025 - 15:38:34
Configured:	06/10/25 03:08:08 PM
Executed:	06/10/25 03:38:01 PM

»»»»»»»»»»»»»»»»»»»»»»»»»»»»»»»»»»» Sample Info ««««««««««««««««««««««««««««««««««««
Sample Name:	
Lot Name:	
Wafer Name:	
Die Row/Column:	0/0
Capacitor Number:	0
Sample Area (cm2):	1.00e-04
Sample Thickness (microns):	3.00e-01

Amplifier:	Internal

»»»»»»»»»»»»»»»»»»»»»»»»»»»»»»»»»»» Tester Info «««««««««««««««««««««««««««««««««««
Tester Name:	PMF21124-494 (100V)
Tester Serial Number:	PMF21124-494
Return Signal Amp. Level:	0.19 [Index: 3]

»»»»»»»»»»»»»»»»»»»»»»»»»»»»»»»» Hysteresis Info ««««««««««««««««««««««««««««««««««
Task Name:	Hyst-1091
Volts:	20.00
Field:	666.67 (kV/cm)
DCBias:	0.00
DCField:	0.00 (kV/cm)
Hysteresis Period (ms):	2.00e+02
Preset:	Enabled
Preset Delay (ms):	1.00e+03
Profile:	Standard Bipolar

»»»»»»»»»»»»»»»»»»»»»»»»»»»»»»»»»»»»»» Data «««««««««««««««««««««««««««««««««««««««
Points:	2009

Valid Data

Point	Time (ms)	Drive Voltage	Measured Polarization (uC/cm2)	Capacitance (uF)	Normalized Capacitance (uF/cm2)	Dielectric Constant	Instantaneous Current (mA)
   1	0.0000e+00	0.0032	-4.220825	0.000182	1.824456	0.618143	0.000073
   2	9.9500e-02	0.0225	-4.148157	0.000182	1.824456	0.618143	0.000073
   3	1.9900e-01	0.0642	-4.035117	0.000284	2.838043	0.961555	0.000114
   4	2.9850e-01	0.1043	-3.889780	0.000365	3.648913	1.236285	0.000146
   5	3.9800e-01	0.1476	-3.772703	0.000294	2.939402	0.995896	0.000118
   6	4.9750e-01	0.1813	-3.603144	0.000426	4.257065	1.442333	0.000170
   7	5.9700e-01	0.2262	-3.457807	0.000365	3.648913	1.236285	0.000146
   8	6.9650e-01	0.2615	-3.272099	0.000466	4.662499	1.579698	0.000187
   9	7.9600e-01	0.3096	-3.118687	0.000385	3.851630	1.304968	0.000154
  10	8.9550e-01	0.3321	-2.961239	0.000395	3.952989	1.339309	0.000158
  11	9.9500e-01	0.3930	-2.795716	0.000416	4.155706	1.407991	0.000166
  12	1.0945e+00	0.4219	-2.610008	0.000466	4.662499	1.579698	0.000187
  13	1.1940e+00	0.4572	-2.460634	0.000375	3.750271	1.270626	0.000150
  14	1.2935e+00	0.5069	-2.335483	0.000314	3.142119	1.064579	0.000126
  15	1.3930e+00	0.5486	-2.206295	0.000324	3.243478	1.098920	0.000130
  16	1.4925e+00	0.5839	-2.028661	0.000446	4.459782	1.511015	0.000179
  17	1.5920e+00	0.6224	-1.907547	0.000304	3.040760	1.030238	0.000122
  18	1.6915e+00	0.6674	-1.709727	0.000497	4.966575	1.682721	0.000199
  19	1.7910e+00	0.7027	-1.560353	0.000375	3.750271	1.270626	0.000150
  20	1.8905e+00	0.7492	-1.419053	0.000355	3.547554	1.201944	0.000142
  21	1.9900e+00	0.7845	-1.217196	0.000507	5.067934	1.717063	0.000203
  22	2.0895e+00	0.8230	-1.055711	0.000405	4.054347	1.373650	0.000162
  23	2.1890e+00	0.8631	-0.918448	0.000345	3.446195	1.167603	0.000138
  24	2.2885e+00	0.8984	-0.603552	0.000791	7.905977	2.678618	0.000316
  25	2.3880e+00	0.9465	-0.450141	0.000385	3.851630	1.304968	0.000154
  26	2.4875e+00	0.9834	-0.228098	0.000557	5.574727	1.888769	0.000223
  27	2.5870e+00	1.0219	-0.030279	0.000497	4.966575	1.682721	0.000199
  28	2.6865e+00	1.0668	0.131207	0.000405	4.054347	1.373650	0.000162
  29	2.7860e+00	1.1021	0.308841	0.000446	4.459782	1.511015	0.000179
  30	2.8855e+00	1.1550	0.470326	0.000405	4.054347	1.373650	0.000162
  31	2.9850e+00	1.1823	0.611626	0.000355	3.547554	1.201944	0.000142
  32	3.0845e+00	1.2240	0.773111	0.000405	4.054347	1.373650	0.000162
  33	3.1840e+00	1.2545	0.979005	0.000517	5.169293	1.751404	0.000207
  34	3.2835e+00	1.2962	1.128379	0.000375	3.750271	1.270626	0.000150
  35	3.3830e+00	1.3411	1.326199	0.000497	4.966575	1.682721	0.000199
  36	3.4825e+00	1.3877	1.467499	0.000355	3.547554	1.201944	0.000142
  37	3.5820e+00	1.4197	1.677430	0.000527	5.270651	1.785745	0.000211
  38	3.6815e+00	1.4599	1.826804	0.000375	3.750271	1.270626	0.000150
  39	3.7810e+00	1.5080	2.020586	0.000487	4.865217	1.648380	0.000195
  40	3.8805e+00	1.5385	2.173998	0.000385	3.851630	1.304968	0.000154
  41	3.9800e+00	1.5738	2.347594	0.000436	4.358423	1.476674	0.000174
  42	4.0795e+00	1.6235	2.505043	0.000395	3.952989	1.339309	0.000158
  43	4.1790e+00	1.6572	2.682677	0.000446	4.459782	1.511015	0.000179
  44	4.2785e+00	1.7053	2.904719	0.000557	5.574727	1.888769	0.000223
  45	4.3780e+00	1.7454	2.993536	0.000223	2.229891	0.755508	0.000089
  46	4.4775e+00	1.7823	3.199430	0.000517	5.169293	1.751404	0.000207
  47	4.5770e+00	1.8176	3.348804	0.000375	3.750271	1.270626	0.000150
  48	4.6765e+00	1.8657	3.498178	0.000375	3.750271	1.270626	0.000150
  49	4.7760e+00	1.8946	3.651589	0.000385	3.851630	1.304968	0.000154
  50	4.8755e+00	1.9475	3.817112	0.000416	4.155706	1.407991	0.000166
  51	4.9750e+00	1.9876	4.018969	0.000507	5.067934	1.717063	0.000203
  52	5.0745e+00	2.0197	4.148157	0.000324	3.243478	1.098920	0.000130
  53	5.1740e+00	2.0582	4.362125	0.000537	5.372010	1.820086	0.000215
  54	5.2735e+00	2.1015	4.487276	0.000314	3.142119	1.064579	0.000126
  55	5.3730e+00	2.1433	4.729505	0.000608	6.081521	2.060475	0.000243
  56	5.4725e+00	2.1785	4.878879	0.000375	3.750271	1.270626	0.000150
  57	5.5720e+00	2.2203	5.060550	0.000456	4.561141	1.545356	0.000183
  58	5.6715e+00	2.2636	5.217998	0.000395	3.952989	1.339309	0.000158
  59	5.7710e+00	2.3117	5.359298	0.000355	3.547554	1.201944	0.000142
  60	5.8705e+00	2.3422	5.581340	0.000557	5.574727	1.888769	0.000223
  61	5.9700e+00	2.3695	5.730714	0.000375	3.750271	1.270626	0.000150
  62	6.0695e+00	2.4224	5.876051	0.000365	3.648913	1.236285	0.000146
  63	6.1690e+00	2.4705	6.025425	0.000375	3.750271	1.270626	0.000150
  64	6.2685e+00	2.5010	6.170762	0.000365	3.648913	1.236285	0.000146
  65	6.3680e+00	2.5315	6.372619	0.000507	5.067934	1.717063	0.000203
  66	6.4675e+00	2.5732	6.550253	0.000446	4.459782	1.511015	0.000179
  67	6.5670e+00	2.6245	6.703664	0.000385	3.851630	1.304968	0.000154
  68	6.6665e+00	2.6646	6.853038	0.000375	3.750271	1.270626	0.000150
  69	6.7660e+00	2.6999	7.038746	0.000466	4.662499	1.579698	0.000187
  70	6.8655e+00	2.7336	7.208306	0.000426	4.257065	1.442333	0.000170
  71	6.9650e+00	2.7801	7.389977	0.000456	4.561141	1.545356	0.000183
  72	7.0645e+00	2.8154	7.547425	0.000395	3.952989	1.339309	0.000158
  73	7.1640e+00	2.8571	7.708911	0.000405	4.054347	1.373650	0.000162
  74	7.2635e+00	2.8988	7.882508	0.000436	4.358423	1.476674	0.000174
  75	7.3630e+00	2.9325	8.035919	0.000385	3.851630	1.304968	0.000154
  76	7.4625e+00	2.9759	8.177218	0.000355	3.547554	1.201944	0.000142
  77	7.5620e+00	3.0111	8.362927	0.000466	4.662499	1.579698	0.000187
  78	7.6615e+00	3.0593	8.532486	0.000426	4.257065	1.442333	0.000170
  79	7.7610e+00	3.1042	8.685898	0.000385	3.851630	1.304968	0.000154
  80	7.8605e+00	3.1379	8.843346	0.000395	3.952989	1.339309	0.000158
  81	7.9600e+00	3.1764	8.984646	0.000355	3.547554	1.201944	0.000142
  82	8.0595e+00	3.2213	9.178428	0.000487	4.865217	1.648380	0.000195
  83	8.1590e+00	3.2630	9.372211	0.000487	4.865217	1.648380	0.000195
  84	8.2585e+00	3.2983	9.521585	0.000375	3.750271	1.270626	0.000150
  85	8.3580e+00	3.3352	9.674996	0.000385	3.851630	1.304968	0.000154
  86	8.4575e+00	3.3817	9.816296	0.000355	3.547554	1.201944	0.000142
  87	8.5570e+00	3.4138	9.985855	0.000426	4.257065	1.442333	0.000170
  88	8.6565e+00	3.4539	10.175601	0.000476	4.763858	1.614039	0.000191
  89	8.7560e+00	3.4988	10.320938	0.000365	3.648913	1.236285	0.000146
  90	8.8555e+00	3.5325	10.514720	0.000487	4.865217	1.648380	0.000195
  91	8.9550e+00	3.5742	10.684280	0.000426	4.257065	1.442333	0.000170
  92	9.0545e+00	3.6079	10.817505	0.000334	3.344836	1.133261	0.000134
  93	9.1540e+00	3.6609	10.962842	0.000365	3.648913	1.236285	0.000146
  94	9.2535e+00	3.6978	11.104142	0.000355	3.547554	1.201944	0.000142
  95	9.3530e+00	3.7234	11.293887	0.000476	4.763858	1.614039	0.000191
  96	9.4525e+00	3.7796	11.447298	0.000385	3.851630	1.304968	0.000154
  97	9.5520e+00	3.8133	11.616858	0.000426	4.257065	1.442333	0.000170
  98	9.6515e+00	3.8486	11.742009	0.000314	3.142119	1.064579	0.000126
  99	9.7510e+00	3.8903	11.911569	0.000426	4.257065	1.442333	0.000170
 100	9.8505e+00	3.9304	12.073054	0.000405	4.054347	1.373650	0.000162
 101	9.9500e+00	3.9673	12.214354	0.000355	3.547554	1.201944	0.000142
 102	1.0050e+01	4.0218	12.412174	0.000497	4.966575	1.682721	0.000199
 103	1.0149e+01	4.0571	12.589808	0.000446	4.459782	1.511015	0.000179
 104	1.0248e+01	4.0924	12.763405	0.000436	4.358423	1.476674	0.000174
 105	1.0348e+01	4.1325	12.872407	0.000274	2.736684	0.927214	0.000110
 106	1.0447e+01	4.1646	13.066190	0.000487	4.865217	1.648380	0.000195
 107	1.0547e+01	4.2223	13.207490	0.000355	3.547554	1.201944	0.000142
 108	1.0646e+01	4.2496	13.336678	0.000324	3.243478	1.098920	0.000130
 109	1.0746e+01	4.2929	13.486052	0.000375	3.750271	1.270626	0.000150
 110	1.0845e+01	4.3298	13.655612	0.000426	4.257065	1.442333	0.000170
 111	1.0945e+01	4.3796	13.792874	0.000345	3.446195	1.167603	0.000138
 112	1.1044e+01	4.4132	13.930137	0.000345	3.446195	1.167603	0.000138
 113	1.1144e+01	4.4550	14.119882	0.000476	4.763858	1.614039	0.000191
 114	1.1243e+01	4.4951	14.253108	0.000334	3.344836	1.133261	0.000134
 115	1.1343e+01	4.5352	14.382296	0.000324	3.243478	1.098920	0.000130
 116	1.1443e+01	4.5705	14.495336	0.000284	2.838043	0.961555	0.000114
 117	1.1542e+01	4.6170	14.664896	0.000426	4.257065	1.442333	0.000170
 118	1.1642e+01	4.6555	14.862715	0.000497	4.966575	1.682721	0.000199
 119	1.1741e+01	4.7036	14.971718	0.000274	2.736684	0.927214	0.000110
 120	1.1841e+01	4.7325	15.108980	0.000345	3.446195	1.167603	0.000138
 121	1.1940e+01	4.7630	15.298726	0.000476	4.763858	1.614039	0.000191
 122	1.2040e+01	4.8191	15.452137	0.000385	3.851630	1.304968	0.000154
 123	1.2139e+01	4.8480	15.609585	0.000395	3.952989	1.339309	0.000158
 124	1.2239e+01	4.8881	15.750885	0.000355	3.547554	1.201944	0.000142
 125	1.2338e+01	4.9282	15.896222	0.000365	3.648913	1.236285	0.000146
 126	1.2438e+01	4.9731	16.061745	0.000416	4.155706	1.407991	0.000166
 127	1.2537e+01	5.0036	16.203044	0.000355	3.547554	1.201944	0.000142
 128	1.2636e+01	5.0533	16.384715	0.000456	4.561141	1.545356	0.000183
 129	1.2736e+01	5.0934	16.469495	0.000213	2.128532	0.721166	0.000085
 130	1.2835e+01	5.1335	16.606758	0.000345	3.446195	1.167603	0.000138
 131	1.2935e+01	5.1624	16.760169	0.000385	3.851630	1.304968	0.000154
 132	1.3034e+01	5.2073	16.941840	0.000456	4.561141	1.545356	0.000183
 133	1.3134e+01	5.2458	17.119474	0.000446	4.459782	1.511015	0.000179
 134	1.3233e+01	5.2811	17.224440	0.000264	2.635326	0.892873	0.000105
 135	1.3333e+01	5.3341	17.389962	0.000416	4.155706	1.407991	0.000166
 136	1.3432e+01	5.3662	17.523188	0.000334	3.344836	1.133261	0.000134
 137	1.3532e+01	5.4095	17.672562	0.000375	3.750271	1.270626	0.000150
 138	1.3632e+01	5.4480	17.850196	0.000446	4.459782	1.511015	0.000179
 139	1.3731e+01	5.4849	17.963235	0.000284	2.838043	0.961555	0.000114
 140	1.3831e+01	5.5250	18.104535	0.000355	3.547554	1.201944	0.000142
 141	1.3930e+01	5.5715	18.229686	0.000314	3.142119	1.064579	0.000126
 142	1.4030e+01	5.6020	18.395209	0.000416	4.155706	1.407991	0.000166
 143	1.4129e+01	5.6469	18.548620	0.000385	3.851630	1.304968	0.000154
 144	1.4229e+01	5.6774	18.689920	0.000355	3.547554	1.201944	0.000142
 145	1.4328e+01	5.7239	18.835257	0.000365	3.648913	1.236285	0.000146
 146	1.4428e+01	5.7752	18.988668	0.000385	3.851630	1.304968	0.000154
 147	1.4527e+01	5.8009	19.129968	0.000355	3.547554	1.201944	0.000142
 148	1.4627e+01	5.8458	19.230896	0.000253	2.533967	0.858531	0.000101
 149	1.4726e+01	5.8891	19.368159	0.000345	3.446195	1.167603	0.000138
 150	1.4825e+01	5.9196	19.561941	0.000487	4.865217	1.648380	0.000195
 151	1.4925e+01	5.9629	19.695167	0.000334	3.344836	1.133261	0.000134
 152	1.5024e+01	5.9998	19.836466	0.000355	3.547554	1.201944	0.000142
 153	1.5124e+01	6.0367	19.993915	0.000395	3.952989	1.339309	0.000158
 154	1.5223e+01	6.0865	20.082732	0.000223	2.229891	0.755508	0.000089
 155	1.5323e+01	6.1250	20.252291	0.000426	4.257065	1.442333	0.000170
 156	1.5422e+01	6.1683	20.381480	0.000324	3.243478	1.098920	0.000130
 157	1.5522e+01	6.1988	20.518742	0.000345	3.446195	1.167603	0.000138
 158	1.5621e+01	6.2517	20.656005	0.000345	3.446195	1.167603	0.000138
 159	1.5721e+01	6.2918	20.821528	0.000416	4.155706	1.407991	0.000166
 160	1.5820e+01	6.3223	20.987050	0.000416	4.155706	1.407991	0.000166
 161	1.5920e+01	6.3640	21.071830	0.000213	2.128532	0.721166	0.000085
 162	1.6020e+01	6.4025	21.253501	0.000456	4.561141	1.545356	0.000183
 163	1.6119e+01	6.4426	21.386727	0.000334	3.344836	1.133261	0.000134
 164	1.6218e+01	6.4779	21.515915	0.000324	3.243478	1.098920	0.000130
 165	1.6318e+01	6.5228	21.669326	0.000385	3.851630	1.304968	0.000154
 166	1.6418e+01	6.5533	21.778329	0.000274	2.736684	0.927214	0.000110
 167	1.6517e+01	6.6014	21.927703	0.000375	3.750271	1.270626	0.000150
 168	1.6616e+01	6.6383	22.056891	0.000324	3.243478	1.098920	0.000130
 169	1.6716e+01	6.6752	22.190117	0.000334	3.344836	1.133261	0.000134
 170	1.6816e+01	6.7233	22.323342	0.000334	3.344836	1.133261	0.000134
 171	1.6915e+01	6.7554	22.460605	0.000345	3.446195	1.167603	0.000138
 172	1.7015e+01	6.7987	22.585756	0.000314	3.142119	1.064579	0.000126
 173	1.7114e+01	6.8356	22.718981	0.000334	3.344836	1.133261	0.000134
 174	1.7213e+01	6.8838	22.823947	0.000264	2.635326	0.892873	0.000105
 175	1.7313e+01	6.9126	23.009655	0.000466	4.662499	1.579698	0.000187
 176	1.7413e+01	6.9624	23.138843	0.000324	3.243478	1.098920	0.000130
 177	1.7512e+01	7.0009	23.268032	0.000324	3.243478	1.098920	0.000130
 178	1.7611e+01	7.0426	23.417406	0.000375	3.750271	1.270626	0.000150
 179	1.7711e+01	7.0779	23.542557	0.000314	3.142119	1.064579	0.000126
 180	1.7811e+01	7.1132	23.691931	0.000375	3.750271	1.270626	0.000150
 181	1.7910e+01	7.1597	23.833231	0.000355	3.547554	1.201944	0.000142
 182	1.8009e+01	7.2030	23.942233	0.000274	2.736684	0.927214	0.000110
 183	1.8109e+01	7.2415	24.075459	0.000334	3.344836	1.133261	0.000134
 184	1.8209e+01	7.2704	24.216759	0.000355	3.547554	1.201944	0.000142
 185	1.8308e+01	7.3249	24.349984	0.000334	3.344836	1.133261	0.000134
 186	1.8407e+01	7.3554	24.442838	0.000233	2.331250	0.789849	0.000093
 187	1.8507e+01	7.4051	24.604324	0.000405	4.054347	1.373650	0.000162
 188	1.8607e+01	7.4420	24.781958	0.000446	4.459782	1.511015	0.000179
 189	1.8706e+01	7.4741	24.890960	0.000274	2.736684	0.927214	0.000110
 190	1.8805e+01	7.5206	25.032260	0.000355	3.547554	1.201944	0.000142
 191	1.8905e+01	7.5559	25.165486	0.000334	3.344836	1.133261	0.000134
 192	1.9005e+01	7.6009	25.302748	0.000345	3.446195	1.167603	0.000138
 193	1.9104e+01	7.6378	25.399639	0.000243	2.432608	0.824190	0.000097
 194	1.9203e+01	7.6746	25.544976	0.000365	3.648913	1.236285	0.000146
 195	1.9303e+01	7.7212	25.666090	0.000304	3.040760	1.030238	0.000122
 196	1.9402e+01	7.7645	25.831613	0.000416	4.155706	1.407991	0.000166
 197	1.9502e+01	7.8078	25.976950	0.000365	3.648913	1.236285	0.000146
 198	1.9602e+01	7.8335	26.110175	0.000334	3.344836	1.133261	0.000134
 199	1.9701e+01	7.8864	26.215141	0.000264	2.635326	0.892873	0.000105
 200	1.9800e+01	7.9089	26.360478	0.000365	3.648913	1.236285	0.000146
 201	1.9900e+01	7.9650	26.481592	0.000304	3.040760	1.030238	0.000122
 202	2.0000e+01	7.9923	26.635003	0.000385	3.851630	1.304968	0.000154
 203	2.0099e+01	8.0372	26.760154	0.000314	3.142119	1.064579	0.000126
 204	2.0198e+01	8.0837	26.897417	0.000345	3.446195	1.167603	0.000138
 205	2.0298e+01	8.1190	27.018531	0.000304	3.040760	1.030238	0.000122
 206	2.0398e+01	8.1559	27.143682	0.000314	3.142119	1.064579	0.000126
 207	2.0497e+01	8.1960	27.272870	0.000324	3.243478	1.098920	0.000130
 208	2.0596e+01	8.2313	27.410133	0.000345	3.446195	1.167603	0.000138
 209	2.0696e+01	8.2746	27.563544	0.000385	3.851630	1.304968	0.000154
 210	2.0796e+01	8.3115	27.668510	0.000264	2.635326	0.892873	0.000105
 211	2.0895e+01	8.3532	27.789624	0.000304	3.040760	1.030238	0.000122
 212	2.0994e+01	8.3982	27.951109	0.000405	4.054347	1.373650	0.000162
 213	2.1094e+01	8.4415	28.064149	0.000284	2.838043	0.961555	0.000114
 214	2.1194e+01	8.4736	28.189300	0.000314	3.142119	1.064579	0.000126
 215	2.1293e+01	8.5121	28.342711	0.000385	3.851630	1.304968	0.000154
 216	2.1392e+01	8.5586	28.431528	0.000223	2.229891	0.755508	0.000089
 217	2.1492e+01	8.5875	28.576865	0.000365	3.648913	1.236285	0.000146
 218	2.1591e+01	8.6324	28.693942	0.000294	2.939402	0.995896	0.000118
 219	2.1691e+01	8.6709	28.794871	0.000253	2.533967	0.858531	0.000101
 220	2.1791e+01	8.7078	28.940208	0.000365	3.648913	1.236285	0.000146
 221	2.1890e+01	8.7415	29.061322	0.000304	3.040760	1.030238	0.000122
 222	2.1989e+01	8.7960	29.190510	0.000324	3.243478	1.098920	0.000130
 223	2.2089e+01	8.8329	29.315661	0.000314	3.142119	1.064579	0.000126
 224	2.2189e+01	8.8794	29.420627	0.000264	2.635326	0.892873	0.000105
 225	2.2288e+01	8.9099	29.602298	0.000456	4.561141	1.545356	0.000183
 226	2.2387e+01	8.9484	29.695152	0.000233	2.331250	0.789849	0.000093
 227	2.2487e+01	8.9805	29.844526	0.000375	3.750271	1.270626	0.000150
 228	2.2587e+01	9.0350	29.957566	0.000284	2.838043	0.961555	0.000114
 229	2.2686e+01	9.0784	30.062531	0.000264	2.635326	0.892873	0.000105
 230	2.2785e+01	9.1153	30.211905	0.000375	3.750271	1.270626	0.000150
 231	2.2885e+01	9.1570	30.320908	0.000274	2.736684	0.927214	0.000110
 232	2.2985e+01	9.2019	30.401651	0.000203	2.027174	0.686825	0.000081
 233	2.3084e+01	9.2259	30.599470	0.000497	4.966575	1.682721	0.000199
 234	2.3183e+01	9.2773	30.724622	0.000314	3.142119	1.064579	0.000126
 235	2.3283e+01	9.3142	30.841698	0.000294	2.939402	0.995896	0.000118
 236	2.3383e+01	9.3398	30.962813	0.000304	3.040760	1.030238	0.000122
 237	2.3482e+01	9.3992	31.112187	0.000375	3.750271	1.270626	0.000150
 238	2.3581e+01	9.4281	31.196966	0.000213	2.128532	0.721166	0.000085
 239	2.3681e+01	9.4730	31.314043	0.000294	2.939402	0.995896	0.000118
 240	2.3780e+01	9.5147	31.431120	0.000294	2.939402	0.995896	0.000118
 241	2.3880e+01	9.5580	31.592606	0.000405	4.054347	1.373650	0.000162
 242	2.3980e+01	9.5885	31.649126	0.000142	1.419022	0.480778	0.000057
 243	2.4079e+01	9.6302	31.822722	0.000436	4.358423	1.476674	0.000174
 244	2.4178e+01	9.6687	31.899428	0.000193	1.925815	0.652484	0.000077
 245	2.4278e+01	9.7168	32.028616	0.000324	3.243478	1.098920	0.000130
 246	2.4378e+01	9.7409	32.157805	0.000324	3.243478	1.098920	0.000130
 247	2.4477e+01	9.7890	32.274882	0.000294	2.939402	0.995896	0.000118
 248	2.4576e+01	9.8307	32.367736	0.000233	2.331250	0.789849	0.000093
 249	2.4676e+01	9.8660	32.517110	0.000375	3.750271	1.270626	0.000150
 250	2.4776e+01	9.9061	32.609964	0.000233	2.331250	0.789849	0.000093
 251	2.4875e+01	9.9430	32.767412	0.000395	3.952989	1.339309	0.000158
 252	2.4974e+01	9.9847	32.884489	0.000294	2.939402	0.995896	0.000118
 253	2.5074e+01	10.0297	32.993492	0.000274	2.736684	0.927214	0.000110
 254	2.5174e+01	10.0682	33.090383	0.000243	2.432608	0.824190	0.000097
 255	2.5273e+01	10.1115	33.231683	0.000355	3.547554	1.201944	0.000142
 256	2.5372e+01	10.1468	33.381057	0.000375	3.750271	1.270626	0.000150
 257	2.5472e+01	10.1869	33.506208	0.000314	3.142119	1.064579	0.000126
 258	2.5572e+01	10.2302	33.619248	0.000284	2.838043	0.961555	0.000114
 259	2.5671e+01	10.2607	33.720176	0.000253	2.533967	0.858531	0.000101
 260	2.5770e+01	10.3056	33.881662	0.000405	4.054347	1.373650	0.000162
 261	2.5870e+01	10.3425	33.986627	0.000264	2.635326	0.892873	0.000105
 262	2.5970e+01	10.3954	34.152150	0.000416	4.155706	1.407991	0.000166
 263	2.6069e+01	10.4307	34.240967	0.000223	2.229891	0.755508	0.000089
 264	2.6169e+01	10.4724	34.378229	0.000345	3.446195	1.167603	0.000138
 265	2.6268e+01	10.5013	34.511455	0.000334	3.344836	1.133261	0.000134
 266	2.6367e+01	10.5526	34.584123	0.000182	1.824456	0.618143	0.000073
 267	2.6467e+01	10.5783	34.689089	0.000264	2.635326	0.892873	0.000105
 268	2.6567e+01	10.6329	34.838463	0.000375	3.750271	1.270626	0.000150
 269	2.6666e+01	10.6698	34.967651	0.000324	3.243478	1.098920	0.000130
 270	2.6765e+01	10.7099	35.048394	0.000203	2.027174	0.686825	0.000081
 271	2.6865e+01	10.7403	35.197768	0.000375	3.750271	1.270626	0.000150
 272	2.6965e+01	10.7885	35.306771	0.000274	2.736684	0.927214	0.000110
 273	2.7064e+01	10.8238	35.423848	0.000294	2.939402	0.995896	0.000118
 274	2.7163e+01	10.8558	35.524776	0.000253	2.533967	0.858531	0.000101
 275	2.7263e+01	10.9088	35.641853	0.000294	2.939402	0.995896	0.000118
 276	2.7363e+01	10.9473	35.803338	0.000405	4.054347	1.373650	0.000162
 277	2.7462e+01	10.9826	35.884081	0.000203	2.027174	0.686825	0.000081
 278	2.7561e+01	11.0291	36.005195	0.000304	3.040760	1.030238	0.000122
 279	2.7661e+01	11.0644	36.106123	0.000253	2.533967	0.858531	0.000101
 280	2.7761e+01	11.1029	36.198978	0.000233	2.331250	0.789849	0.000093
 281	2.7860e+01	11.1462	36.364500	0.000416	4.155706	1.407991	0.000166
 282	2.7959e+01	11.1879	36.437169	0.000182	1.824456	0.618143	0.000073
 283	2.8059e+01	11.2200	36.558283	0.000304	3.040760	1.030238	0.000122
 284	2.8159e+01	11.2681	36.683434	0.000314	3.142119	1.064579	0.000126
 285	2.8258e+01	11.3082	36.800511	0.000294	2.939402	0.995896	0.000118
 286	2.8358e+01	11.3403	36.925662	0.000314	3.142119	1.064579	0.000126
 287	2.8457e+01	11.3868	37.042739	0.000294	2.939402	0.995896	0.000118
 288	2.8556e+01	11.4237	37.131556	0.000223	2.229891	0.755508	0.000089
 289	2.8656e+01	11.4671	37.280930	0.000375	3.750271	1.270626	0.000150
 290	2.8756e+01	11.5040	37.389933	0.000274	2.736684	0.927214	0.000110
 291	2.8855e+01	11.5409	37.507010	0.000294	2.939402	0.995896	0.000118
 292	2.8954e+01	11.5826	37.587752	0.000203	2.027174	0.686825	0.000081
 293	2.9054e+01	11.6243	37.729052	0.000355	3.547554	1.201944	0.000142
 294	2.9154e+01	11.6628	37.854203	0.000314	3.142119	1.064579	0.000126
 295	2.9253e+01	11.7061	37.959169	0.000264	2.635326	0.892873	0.000105
 296	2.9352e+01	11.7494	38.052023	0.000233	2.331250	0.789849	0.000093
 297	2.9452e+01	11.7847	38.177174	0.000314	3.142119	1.064579	0.000126
 298	2.9552e+01	11.8232	38.302325	0.000314	3.142119	1.064579	0.000126
 299	2.9651e+01	11.8601	38.443625	0.000355	3.547554	1.201944	0.000142
 300	2.9750e+01	11.9002	38.536479	0.000233	2.331250	0.789849	0.000093
 301	2.9850e+01	11.9371	38.637408	0.000253	2.533967	0.858531	0.000101
 302	2.9950e+01	11.9788	38.786782	0.000375	3.750271	1.270626	0.000150
 303	3.0049e+01	12.0237	38.879636	0.000233	2.331250	0.789849	0.000093
 304	3.0148e+01	12.0574	38.996713	0.000294	2.939402	0.995896	0.000118
 305	3.0248e+01	12.1023	39.085530	0.000223	2.229891	0.755508	0.000089
 306	3.0348e+01	12.1456	39.206644	0.000304	3.040760	1.030238	0.000122
 307	3.0447e+01	12.1809	39.323721	0.000294	2.939402	0.995896	0.000118
 308	3.0547e+01	12.2226	39.420612	0.000243	2.432608	0.824190	0.000097
 309	3.0646e+01	12.2595	39.541726	0.000304	3.040760	1.030238	0.000122
 310	3.0745e+01	12.2916	39.646692	0.000264	2.635326	0.892873	0.000105
 311	3.0845e+01	12.3462	39.796066	0.000375	3.750271	1.270626	0.000150
 312	3.0945e+01	12.3831	39.872771	0.000193	1.925815	0.652484	0.000077
 313	3.1044e+01	12.4200	40.014071	0.000355	3.547554	1.201944	0.000142
 314	3.1143e+01	12.4713	40.110962	0.000243	2.432608	0.824190	0.000097
 315	3.1243e+01	12.4986	40.219965	0.000274	2.736684	0.927214	0.000110
 316	3.1343e+01	12.5387	40.328967	0.000274	2.736684	0.927214	0.000110
 317	3.1442e+01	12.5772	40.474304	0.000365	3.648913	1.236285	0.000146
 318	3.1541e+01	12.6157	40.546973	0.000182	1.824456	0.618143	0.000073
 319	3.1641e+01	12.6542	40.643864	0.000243	2.432608	0.824190	0.000097
 320	3.1741e+01	12.7039	40.773052	0.000324	3.243478	1.098920	0.000130
 321	3.1840e+01	12.7376	40.869944	0.000243	2.432608	0.824190	0.000097
 322	3.1939e+01	12.7761	41.003169	0.000334	3.344836	1.133261	0.000134
 323	3.2039e+01	12.8210	41.096023	0.000233	2.331250	0.789849	0.000093
 324	3.2139e+01	12.8579	41.225212	0.000324	3.243478	1.098920	0.000130
 325	3.2238e+01	12.8980	41.362474	0.000345	3.446195	1.167603	0.000138
 326	3.2337e+01	12.9317	41.471477	0.000274	2.736684	0.927214	0.000110
 327	3.2437e+01	12.9798	41.584517	0.000284	2.838043	0.961555	0.000114
 328	3.2536e+01	13.0200	41.653148	0.000172	1.723098	0.583801	0.000069
 329	3.2636e+01	13.0504	41.750039	0.000243	2.432608	0.824190	0.000097
 330	3.2736e+01	13.0954	41.919599	0.000426	4.257065	1.442333	0.000170
 331	3.2835e+01	13.1403	42.004379	0.000213	2.128532	0.721166	0.000085
 332	3.2934e+01	13.1627	42.048787	0.000111	1.114945	0.377754	0.000045
 333	3.3034e+01	13.2221	42.246607	0.000497	4.966575	1.682721	0.000199
 334	3.3133e+01	13.2574	42.315238	0.000172	1.723098	0.583801	0.000069
 335	3.3233e+01	13.3071	42.404055	0.000223	2.229891	0.755508	0.000089
 336	3.3333e+01	13.3280	42.521132	0.000294	2.939402	0.995896	0.000118
 337	3.3432e+01	13.3713	42.630135	0.000274	2.736684	0.927214	0.000110
 338	3.3532e+01	13.4146	42.795657	0.000416	4.155706	1.407991	0.000166
 339	3.3631e+01	13.4499	42.848140	0.000132	1.317663	0.446436	0.000053
 340	3.3730e+01	13.4852	42.981366	0.000334	3.344836	1.133261	0.000134
 341	3.3830e+01	13.5365	43.054034	0.000182	1.824456	0.618143	0.000073
 342	3.3929e+01	13.5702	43.183222	0.000324	3.243478	1.098920	0.000130
 343	3.4029e+01	13.6167	43.296262	0.000284	2.838043	0.961555	0.000114
 344	3.4129e+01	13.6552	43.401228	0.000264	2.635326	0.892873	0.000105
 345	3.4228e+01	13.6937	43.498119	0.000243	2.432608	0.824190	0.000097
 346	3.4328e+01	13.7258	43.599047	0.000253	2.533967	0.858531	0.000101
 347	3.4427e+01	13.7739	43.720161	0.000304	3.040760	1.030238	0.000122
 348	3.4526e+01	13.8124	43.796867	0.000193	1.925815	0.652484	0.000077
 349	3.4626e+01	13.8509	43.926055	0.000324	3.243478	1.098920	0.000130
 350	3.4725e+01	13.9007	44.043132	0.000294	2.939402	0.995896	0.000118
 351	3.4825e+01	13.9263	44.172321	0.000324	3.243478	1.098920	0.000130
 352	3.4925e+01	13.9665	44.253063	0.000203	2.027174	0.686825	0.000081
 353	3.5024e+01	14.0130	44.390326	0.000345	3.446195	1.167603	0.000138
 354	3.5123e+01	14.0531	44.507403	0.000294	2.939402	0.995896	0.000118
 355	3.5223e+01	14.0836	44.636591	0.000324	3.243478	1.098920	0.000130
 356	3.5322e+01	14.1317	44.693111	0.000142	1.419022	0.480778	0.000057
 357	3.5422e+01	14.1782	44.794040	0.000253	2.533967	0.858531	0.000101
 358	3.5522e+01	14.2103	44.870745	0.000193	1.925815	0.652484	0.000077
 359	3.5621e+01	14.2472	45.032231	0.000405	4.054347	1.373650	0.000162
 360	3.5721e+01	14.2921	45.129122	0.000243	2.432608	0.824190	0.000097
 361	3.5820e+01	14.3290	45.286570	0.000395	3.952989	1.339309	0.000158
 362	3.5919e+01	14.3611	45.359239	0.000182	1.824456	0.618143	0.000073
 363	3.6019e+01	14.4204	45.472278	0.000284	2.838043	0.961555	0.000114
 364	3.6118e+01	14.4461	45.577244	0.000264	2.635326	0.892873	0.000105
 365	3.6218e+01	14.4894	45.690284	0.000284	2.838043	0.961555	0.000114
 366	3.6318e+01	14.5327	45.811398	0.000304	3.040760	1.030238	0.000122
 367	3.6417e+01	14.5777	45.888103	0.000193	1.925815	0.652484	0.000077
 368	3.6517e+01	14.6130	46.001143	0.000284	2.838043	0.961555	0.000114
 369	3.6616e+01	14.6515	46.102072	0.000253	2.533967	0.858531	0.000101
 370	3.6715e+01	14.6916	46.243371	0.000355	3.547554	1.201944	0.000142
 371	3.6815e+01	14.7317	46.299891	0.000142	1.419022	0.480778	0.000057
 372	3.6914e+01	14.7605	46.445228	0.000365	3.648913	1.236285	0.000146
 373	3.7014e+01	14.8119	46.566342	0.000304	3.040760	1.030238	0.000122
 374	3.7114e+01	14.8424	46.622862	0.000142	1.419022	0.480778	0.000057
 375	3.7213e+01	14.8857	46.768199	0.000365	3.648913	1.236285	0.000146
 376	3.7313e+01	14.9242	46.877202	0.000274	2.736684	0.927214	0.000110
 377	3.7412e+01	14.9707	46.966019	0.000223	2.229891	0.755508	0.000089
 378	3.7511e+01	15.0124	47.079058	0.000284	2.838043	0.961555	0.000114
 379	3.7611e+01	15.0541	47.184024	0.000264	2.635326	0.892873	0.000105
 380	3.7711e+01	15.0942	47.297064	0.000284	2.838043	0.961555	0.000114
 381	3.7810e+01	15.1295	47.406066	0.000274	2.736684	0.927214	0.000110
 382	3.7910e+01	15.1793	47.498921	0.000233	2.331250	0.789849	0.000093
 383	3.8009e+01	15.2081	47.628109	0.000324	3.243478	1.098920	0.000130
 384	3.8108e+01	15.2450	47.745186	0.000294	2.939402	0.995896	0.000118
 385	3.8208e+01	15.2851	47.842077	0.000243	2.432608	0.824190	0.000097
 386	3.8307e+01	15.3220	47.906671	0.000162	1.621739	0.549460	0.000065
 387	3.8407e+01	15.3621	48.035860	0.000324	3.243478	1.098920	0.000130
 388	3.8507e+01	15.4199	48.132751	0.000243	2.432608	0.824190	0.000097
 389	3.8606e+01	15.4423	48.253865	0.000304	3.040760	1.030238	0.000122
 390	3.8706e+01	15.4873	48.358830	0.000264	2.635326	0.892873	0.000105
 391	3.8805e+01	15.5338	48.508204	0.000375	3.750271	1.270626	0.000150
 392	3.8904e+01	15.5627	48.576836	0.000172	1.723098	0.583801	0.000069
 393	3.9004e+01	15.6076	48.661616	0.000213	2.128532	0.721166	0.000085
 394	3.9103e+01	15.6477	48.754470	0.000233	2.331250	0.789849	0.000093
 395	3.9203e+01	15.6862	48.847324	0.000233	2.331250	0.789849	0.000093
 396	3.9303e+01	15.7279	48.992661	0.000365	3.648913	1.236285	0.000146
 397	3.9402e+01	15.7728	49.085515	0.000233	2.331250	0.789849	0.000093
 398	3.9502e+01	15.8081	49.186443	0.000253	2.533967	0.858531	0.000101
 399	3.9601e+01	15.8498	49.295446	0.000274	2.736684	0.927214	0.000110
 400	3.9700e+01	15.8803	49.380226	0.000213	2.128532	0.721166	0.000085
 401	3.9800e+01	15.9252	49.517488	0.000345	3.446195	1.167603	0.000138
 402	3.9900e+01	15.9669	49.606305	0.000223	2.229891	0.755508	0.000089
 403	3.9999e+01	16.0070	49.731457	0.000314	3.142119	1.064579	0.000126
 404	4.0099e+01	16.0407	49.804125	0.000182	1.824456	0.618143	0.000073
 405	4.0198e+01	16.0808	49.909091	0.000264	2.635326	0.892873	0.000105
 406	4.0297e+01	16.1161	50.026167	0.000294	2.939402	0.995896	0.000118
 407	4.0397e+01	16.1659	50.086725	0.000152	1.520380	0.515119	0.000061
 408	4.0496e+01	16.2011	50.248210	0.000405	4.054347	1.373650	0.000162
 409	4.0596e+01	16.2493	50.288581	0.000101	1.013587	0.343413	0.000041
 410	4.0696e+01	16.2878	50.433918	0.000365	3.648913	1.236285	0.000146
 411	4.0795e+01	16.3215	50.522735	0.000223	2.229891	0.755508	0.000089
 412	4.0895e+01	16.3632	50.623664	0.000253	2.533967	0.858531	0.000101
 413	4.0994e+01	16.4001	50.748815	0.000314	3.142119	1.064579	0.000126
 414	4.1093e+01	16.4466	50.865892	0.000294	2.939402	0.995896	0.000118
 415	4.1193e+01	16.4787	50.950672	0.000213	2.128532	0.721166	0.000085
 416	4.1292e+01	16.5220	51.063711	0.000284	2.838043	0.961555	0.000114
 417	4.1392e+01	16.5589	51.180788	0.000294	2.939402	0.995896	0.000118
 418	4.1492e+01	16.6134	51.249420	0.000172	1.723098	0.583801	0.000069
 419	4.1591e+01	16.6535	51.326125	0.000193	1.925815	0.652484	0.000077
 420	4.1691e+01	16.6808	51.447239	0.000304	3.040760	1.030238	0.000122
 421	4.1790e+01	16.7193	51.572390	0.000314	3.142119	1.064579	0.000126
 422	4.1889e+01	16.7642	51.685430	0.000284	2.838043	0.961555	0.000114
 423	4.1989e+01	16.8027	51.758099	0.000182	1.824456	0.618143	0.000073
 424	4.2089e+01	16.8412	51.859027	0.000253	2.533967	0.858531	0.000101
 425	4.2188e+01	16.8765	51.968030	0.000274	2.736684	0.927214	0.000110
 426	4.2288e+01	16.9198	52.064921	0.000243	2.432608	0.824190	0.000097
 427	4.2387e+01	16.9583	52.194109	0.000324	3.243478	1.098920	0.000130
 428	4.2486e+01	17.0033	52.335409	0.000355	3.547554	1.201944	0.000142
 429	4.2586e+01	17.0434	52.359632	0.000061	0.608152	0.206048	0.000024
 430	4.2685e+01	17.0755	52.509006	0.000375	3.750271	1.270626	0.000150
 431	4.2785e+01	17.1220	52.597823	0.000223	2.229891	0.755508	0.000089
 432	4.2885e+01	17.1557	52.690677	0.000233	2.331250	0.789849	0.000093
 433	4.2984e+01	17.2006	52.767383	0.000193	1.925815	0.652484	0.000077
 434	4.3084e+01	17.2311	52.932905	0.000416	4.155706	1.407991	0.000166
 435	4.3183e+01	17.2840	53.005574	0.000182	1.824456	0.618143	0.000073
 436	4.3282e+01	17.3321	53.106502	0.000253	2.533967	0.858531	0.000101
 437	4.3382e+01	17.3562	53.231653	0.000314	3.142119	1.064579	0.000126
 438	4.3481e+01	17.4011	53.280099	0.000122	1.216304	0.412095	0.000049
 439	4.3581e+01	17.4476	53.405250	0.000314	3.142119	1.064579	0.000126
 440	4.3681e+01	17.4845	53.498104	0.000233	2.331250	0.789849	0.000093
 441	4.3780e+01	17.5262	53.615181	0.000294	2.939402	0.995896	0.000118
 442	4.3880e+01	17.5567	53.708035	0.000233	2.331250	0.789849	0.000093
 443	4.3979e+01	17.5920	53.821075	0.000284	2.838043	0.961555	0.000114
 444	4.4078e+01	17.6450	53.922003	0.000253	2.533967	0.858531	0.000101
 445	4.4178e+01	17.6819	54.002746	0.000203	2.027174	0.686825	0.000081
 446	4.4278e+01	17.7155	54.115786	0.000284	2.838043	0.961555	0.000114
 447	4.4377e+01	17.7476	54.204603	0.000223	2.229891	0.755508	0.000089
 448	4.4477e+01	17.7974	54.289383	0.000213	2.128532	0.721166	0.000085
 449	4.4576e+01	17.8375	54.390311	0.000253	2.533967	0.858531	0.000101
 450	4.4675e+01	17.8744	54.511425	0.000304	3.040760	1.030238	0.000122
 451	4.4775e+01	17.9113	54.636577	0.000314	3.142119	1.064579	0.000126
 452	4.4874e+01	17.9594	54.693096	0.000142	1.419022	0.480778	0.000057
 453	4.4974e+01	17.9979	54.789988	0.000243	2.432608	0.824190	0.000097
 454	4.5074e+01	18.0476	54.886879	0.000243	2.432608	0.824190	0.000097
 455	4.5173e+01	18.0765	54.971659	0.000213	2.128532	0.721166	0.000085
 456	4.5273e+01	18.1006	55.108921	0.000345	3.446195	1.167603	0.000138
 457	4.5372e+01	18.1535	55.185627	0.000193	1.925815	0.652484	0.000077
 458	4.5471e+01	18.1920	55.310778	0.000314	3.142119	1.064579	0.000126
 459	4.5571e+01	18.2514	55.383447	0.000182	1.824456	0.618143	0.000073
 460	4.5670e+01	18.2770	55.484375	0.000253	2.533967	0.858531	0.000101
 461	4.5770e+01	18.3139	55.573192	0.000223	2.229891	0.755508	0.000089
 462	4.5870e+01	18.3572	55.706417	0.000334	3.344836	1.133261	0.000134
 463	4.5969e+01	18.3893	55.795234	0.000223	2.229891	0.755508	0.000089
 464	4.6069e+01	18.4391	55.880014	0.000213	2.128532	0.721166	0.000085
 465	4.6168e+01	18.4792	56.005166	0.000314	3.142119	1.064579	0.000126
 466	4.6267e+01	18.5225	56.110131	0.000264	2.635326	0.892873	0.000105
 467	4.6367e+01	18.5530	56.174725	0.000162	1.621739	0.549460	0.000065
 468	4.6467e+01	18.6027	56.303914	0.000324	3.243478	1.098920	0.000130
 469	4.6566e+01	18.6364	56.372545	0.000172	1.723098	0.583801	0.000069
 470	4.6666e+01	18.6685	56.485585	0.000284	2.838043	0.961555	0.000114
 471	4.6765e+01	18.7198	56.606699	0.000304	3.040760	1.030238	0.000122
 472	4.6864e+01	18.7599	56.707627	0.000253	2.533967	0.858531	0.000101
 473	4.6964e+01	18.7920	56.800481	0.000233	2.331250	0.789849	0.000093
 474	4.7063e+01	18.8321	56.913521	0.000284	2.838043	0.961555	0.000114
 475	4.7163e+01	18.8738	57.006375	0.000233	2.331250	0.789849	0.000093
 476	4.7263e+01	18.9059	57.083081	0.000193	1.925815	0.652484	0.000077
 477	4.7362e+01	18.9492	57.200158	0.000294	2.939402	0.995896	0.000118
 478	4.7462e+01	18.9941	57.341457	0.000355	3.547554	1.201944	0.000142
 479	4.7561e+01	19.0342	57.418163	0.000193	1.925815	0.652484	0.000077
 480	4.7660e+01	19.0743	57.470646	0.000132	1.317663	0.446436	0.000053
 481	4.7760e+01	19.1080	57.595797	0.000314	3.142119	1.064579	0.000126
 482	4.7859e+01	19.1513	57.704800	0.000274	2.736684	0.927214	0.000110
 483	4.7959e+01	19.1898	57.833988	0.000324	3.243478	1.098920	0.000130
 484	4.8059e+01	19.2315	57.898582	0.000162	1.621739	0.549460	0.000065
 485	4.8158e+01	19.2845	58.031808	0.000334	3.344836	1.133261	0.000134
 486	4.8258e+01	19.3069	58.116588	0.000213	2.128532	0.721166	0.000085
 487	4.8357e+01	19.3470	58.221553	0.000264	2.635326	0.892873	0.000105
 488	4.8456e+01	19.3823	58.314407	0.000233	2.331250	0.789849	0.000093
 489	4.8556e+01	19.4305	58.423410	0.000274	2.736684	0.927214	0.000110
 490	4.8656e+01	19.4722	58.512227	0.000223	2.229891	0.755508	0.000089
 491	4.8755e+01	19.5107	58.621229	0.000274	2.736684	0.927214	0.000110
 492	4.8855e+01	19.5460	58.677749	0.000142	1.419022	0.480778	0.000057
 493	4.8954e+01	19.5877	58.794826	0.000294	2.939402	0.995896	0.000118
 494	4.9053e+01	19.6310	58.887680	0.000233	2.331250	0.789849	0.000093
 495	4.9153e+01	19.6775	59.000720	0.000284	2.838043	0.961555	0.000114
 496	4.9252e+01	19.7064	59.117797	0.000294	2.939402	0.995896	0.000118
 497	4.9352e+01	19.7465	59.238911	0.000304	3.040760	1.030238	0.000122
 498	4.9452e+01	19.7866	59.319654	0.000203	2.027174	0.686825	0.000081
 499	4.9551e+01	19.8315	59.392322	0.000182	1.824456	0.618143	0.000073
 500	4.9651e+01	19.8780	59.533622	0.000355	3.547554	1.201944	0.000142
 501	4.9750e+01	19.9069	59.606291	0.000182	1.824456	0.618143	0.000073
 502	4.9849e+01	19.9486	59.699145	0.000233	2.331250	0.789849	0.000093
 503	4.9949e+01	19.9919	59.848519	0.000375	3.750271	1.270626	0.000150
 504	5.0048e+01	19.9534	59.739516	0.000274	2.736684	0.927214	-0.000110
 505	5.0148e+01	19.9101	59.695108	0.000111	1.114945	0.377754	-0.000045
 506	5.0248e+01	19.8652	59.630513	0.000162	1.621739	0.549460	-0.000065
 507	5.0347e+01	19.8283	59.557845	0.000182	1.824456	0.618143	-0.000073
 508	5.0447e+01	19.7770	59.464991	0.000233	2.331250	0.789849	-0.000093
 509	5.0546e+01	19.7545	59.440768	0.000061	0.608152	0.206048	-0.000024
 510	5.0645e+01	19.7096	59.368100	0.000182	1.824456	0.618143	-0.000073
 511	5.0745e+01	19.6647	59.311580	0.000142	1.419022	0.480778	-0.000057
 512	5.0844e+01	19.6422	59.210651	0.000253	2.533967	0.858531	-0.000101
 513	5.0944e+01	19.5893	59.121834	0.000223	2.229891	0.755508	-0.000089
 514	5.1044e+01	19.5588	59.069352	0.000132	1.317663	0.446436	-0.000053
 515	5.1143e+01	19.5203	59.016869	0.000132	1.317663	0.446436	-0.000053
 516	5.1242e+01	19.4674	58.903829	0.000284	2.838043	0.961555	-0.000114
 517	5.1342e+01	19.4305	58.871532	0.000081	0.810869	0.274730	-0.000032
 518	5.1441e+01	19.3936	58.766566	0.000264	2.635326	0.892873	-0.000105
 519	5.1541e+01	19.3503	58.689861	0.000193	1.925815	0.652484	-0.000077
 520	5.1641e+01	19.3182	58.609118	0.000203	2.027174	0.686825	-0.000081
 521	5.1740e+01	19.2781	58.544524	0.000162	1.621739	0.549460	-0.000065
 522	5.1840e+01	19.2299	58.455707	0.000223	2.229891	0.755508	-0.000089
 523	5.1939e+01	19.1882	58.374964	0.000203	2.027174	0.686825	-0.000081
 524	5.2038e+01	19.1610	58.302296	0.000182	1.824456	0.618143	-0.000073
 525	5.2138e+01	19.1080	58.213479	0.000223	2.229891	0.755508	-0.000089
 526	5.2237e+01	19.0791	58.173107	0.000101	1.013587	0.343413	-0.000041
 527	5.2337e+01	19.0390	58.092365	0.000203	2.027174	0.686825	-0.000081
 528	5.2437e+01	18.9973	58.011622	0.000203	2.027174	0.686825	-0.000081
 529	5.2536e+01	18.9540	57.947028	0.000162	1.621739	0.549460	-0.000065
 530	5.2636e+01	18.9187	57.866285	0.000203	2.027174	0.686825	-0.000081
 531	5.2735e+01	18.8786	57.777468	0.000223	2.229891	0.755508	-0.000089
 532	5.2834e+01	18.8353	57.704800	0.000182	1.824456	0.618143	-0.000073
 533	5.2934e+01	18.7936	57.648280	0.000142	1.419022	0.480778	-0.000057
 534	5.3033e+01	18.7487	57.555426	0.000233	2.331250	0.789849	-0.000093
 535	5.3133e+01	18.7118	57.519091	0.000091	0.912228	0.309071	-0.000037
 536	5.3233e+01	18.6797	57.414126	0.000264	2.635326	0.892873	-0.000105
 537	5.3332e+01	18.6316	57.305123	0.000274	2.736684	0.927214	-0.000110
 538	5.3431e+01	18.5882	57.212269	0.000233	2.331250	0.789849	-0.000093
 539	5.3531e+01	18.5546	57.163823	0.000122	1.216304	0.412095	-0.000049
 540	5.3630e+01	18.5193	57.087118	0.000193	1.925815	0.652484	-0.000077
 541	5.3730e+01	18.4727	56.986190	0.000253	2.533967	0.858531	-0.000101
 542	5.3830e+01	18.4310	56.933707	0.000132	1.317663	0.446436	-0.000053
 543	5.3929e+01	18.3989	56.861038	0.000182	1.824456	0.618143	-0.000073
 544	5.4029e+01	18.3604	56.756073	0.000264	2.635326	0.892873	-0.000105
 545	5.4128e+01	18.3155	56.655144	0.000253	2.533967	0.858531	-0.000101
 546	5.4227e+01	18.2802	56.566327	0.000223	2.229891	0.755508	-0.000089
 547	5.4327e+01	18.2353	56.489622	0.000193	1.925815	0.652484	-0.000077
 548	5.4426e+01	18.1920	56.388693	0.000253	2.533967	0.858531	-0.000101
 549	5.4526e+01	18.1599	56.328136	0.000152	1.520380	0.515119	-0.000061
 550	5.4626e+01	18.1166	56.235282	0.000233	2.331250	0.789849	-0.000093
 551	5.4725e+01	18.0733	56.182799	0.000132	1.317663	0.446436	-0.000053
 552	5.4825e+01	18.0380	56.130317	0.000132	1.317663	0.446436	-0.000053
 553	5.4924e+01	17.9995	55.989017	0.000355	3.547554	1.201944	-0.000142
 554	5.5023e+01	17.9594	55.928460	0.000152	1.520380	0.515119	-0.000061
 555	5.5123e+01	17.9241	55.823494	0.000264	2.635326	0.892873	-0.000105
 556	5.5222e+01	17.8744	55.791197	0.000081	0.810869	0.274730	-0.000032
 557	5.5322e+01	17.8343	55.641823	0.000375	3.750271	1.270626	-0.000150
 558	5.5422e+01	17.8038	55.569155	0.000182	1.824456	0.618143	-0.000073
 559	5.5521e+01	17.7476	55.512635	0.000142	1.419022	0.480778	-0.000057
 560	5.5620e+01	17.7171	55.431892	0.000203	2.027174	0.686825	-0.000081
 561	5.5720e+01	17.6835	55.359224	0.000182	1.824456	0.618143	-0.000073
 562	5.5819e+01	17.6385	55.242147	0.000294	2.939402	0.995896	-0.000118
 563	5.5919e+01	17.6032	55.185627	0.000142	1.419022	0.480778	-0.000057
 564	5.6019e+01	17.5631	55.056439	0.000324	3.243478	1.098920	-0.000130
 565	5.6118e+01	17.5134	54.983770	0.000182	1.824456	0.618143	-0.000073
 566	5.6218e+01	17.4893	54.907065	0.000193	1.925815	0.652484	-0.000077
 567	5.6317e+01	17.4492	54.806136	0.000253	2.533967	0.858531	-0.000101
 568	5.6416e+01	17.4011	54.705208	0.000253	2.533967	0.858531	-0.000101
 569	5.6516e+01	17.3562	54.648688	0.000142	1.419022	0.480778	-0.000057
 570	5.6615e+01	17.3225	54.584094	0.000162	1.621739	0.549460	-0.000065
 571	5.6715e+01	17.2808	54.495277	0.000223	2.229891	0.755508	-0.000089
 572	5.6815e+01	17.2423	54.358014	0.000345	3.446195	1.167603	-0.000138
 573	5.6914e+01	17.2022	54.281309	0.000193	1.925815	0.652484	-0.000077
 574	5.7014e+01	17.1653	54.208640	0.000182	1.824456	0.618143	-0.000073
 575	5.7113e+01	17.1204	54.107712	0.000253	2.533967	0.858531	-0.000101
 576	5.7212e+01	17.0722	54.022932	0.000213	2.128532	0.721166	-0.000085
 577	5.7312e+01	17.0418	53.954301	0.000172	1.723098	0.583801	-0.000069
 578	5.7411e+01	17.0001	53.877595	0.000193	1.925815	0.652484	-0.000077
 579	5.7511e+01	16.9648	53.744370	0.000334	3.344836	1.133261	-0.000134
 580	5.7611e+01	16.9214	53.699961	0.000111	1.114945	0.377754	-0.000045
 581	5.7710e+01	16.8733	53.623255	0.000193	1.925815	0.652484	-0.000077
 582	5.7809e+01	16.8428	53.506179	0.000294	2.939402	0.995896	-0.000118
 583	5.7909e+01	16.7979	53.453696	0.000132	1.317663	0.446436	-0.000053
 584	5.8008e+01	16.7626	53.328545	0.000314	3.142119	1.064579	-0.000126
 585	5.8108e+01	16.7161	53.239728	0.000223	2.229891	0.755508	-0.000089
 586	5.8208e+01	16.6808	53.167059	0.000182	1.824456	0.618143	-0.000073
 587	5.8307e+01	16.6519	53.090354	0.000193	1.925815	0.652484	-0.000077
 588	5.8407e+01	16.6054	52.997499	0.000233	2.331250	0.789849	-0.000093
 589	5.8506e+01	16.5605	52.884460	0.000284	2.838043	0.961555	-0.000114
 590	5.8605e+01	16.5220	52.827940	0.000142	1.419022	0.480778	-0.000057
 591	5.8705e+01	16.4819	52.714900	0.000284	2.838043	0.961555	-0.000114
 592	5.8804e+01	16.4546	52.642231	0.000182	1.824456	0.618143	-0.000073
 593	5.8904e+01	16.4001	52.561489	0.000203	2.027174	0.686825	-0.000081
 594	5.9004e+01	16.3680	52.448449	0.000284	2.838043	0.961555	-0.000114
 595	5.9103e+01	16.3263	52.412115	0.000091	0.912228	0.309071	-0.000037
 596	5.9203e+01	16.2894	52.286964	0.000314	3.142119	1.064579	-0.000126
 597	5.9302e+01	16.2380	52.230444	0.000142	1.419022	0.480778	-0.000057
 598	5.9401e+01	16.2028	52.125478	0.000264	2.635326	0.892873	-0.000105
 599	5.9501e+01	16.1626	52.032624	0.000233	2.331250	0.789849	-0.000093
 600	5.9600e+01	16.1209	51.923621	0.000274	2.736684	0.927214	-0.000110
 601	5.9700e+01	16.0937	51.830767	0.000233	2.331250	0.789849	-0.000093
 602	5.9800e+01	16.0407	51.762136	0.000172	1.723098	0.583801	-0.000069
 603	5.9899e+01	16.0054	51.673319	0.000223	2.229891	0.755508	-0.000089
 604	5.9998e+01	15.9733	51.592576	0.000203	2.027174	0.686825	-0.000081
 605	6.0098e+01	15.9252	51.495685	0.000243	2.432608	0.824190	-0.000097
 606	6.0197e+01	15.8803	51.358422	0.000345	3.446195	1.167603	-0.000138
 607	6.0297e+01	15.8514	51.326125	0.000081	0.810869	0.274730	-0.000032
 608	6.0397e+01	15.8049	51.209048	0.000294	2.939402	0.995896	-0.000118
 609	6.0496e+01	15.7664	51.100046	0.000274	2.736684	0.927214	-0.000110
 610	6.0596e+01	15.7279	51.003154	0.000243	2.432608	0.824190	-0.000097
 611	6.0695e+01	15.6894	50.914337	0.000223	2.229891	0.755508	-0.000089
 612	6.0794e+01	15.6477	50.833595	0.000203	2.027174	0.686825	-0.000081
 613	6.0894e+01	15.6060	50.744778	0.000223	2.229891	0.755508	-0.000089
 614	6.0993e+01	15.5643	50.643849	0.000253	2.533967	0.858531	-0.000101
 615	6.1093e+01	15.5193	50.575218	0.000172	1.723098	0.583801	-0.000069
 616	6.1193e+01	15.4857	50.454104	0.000304	3.040760	1.030238	-0.000122
 617	6.1292e+01	15.4456	50.385473	0.000172	1.723098	0.583801	-0.000069
 618	6.1392e+01	15.4087	50.284544	0.000253	2.533967	0.858531	-0.000101
 619	6.1491e+01	15.3686	50.191690	0.000233	2.331250	0.789849	-0.000093
 620	6.1590e+01	15.3284	50.098836	0.000233	2.331250	0.789849	-0.000093
 621	6.1690e+01	15.2867	49.969648	0.000324	3.243478	1.098920	-0.000130
 622	6.1789e+01	15.2498	49.880831	0.000223	2.229891	0.755508	-0.000089
 623	6.1889e+01	15.1969	49.796051	0.000213	2.128532	0.721166	-0.000085
 624	6.1989e+01	15.1664	49.683011	0.000284	2.838043	0.961555	-0.000114
 625	6.2088e+01	15.1183	49.634565	0.000122	1.216304	0.412095	-0.000049
 626	6.2188e+01	15.0878	49.569971	0.000162	1.621739	0.549460	-0.000065
 627	6.2287e+01	15.0509	49.404449	0.000416	4.155706	1.407991	-0.000166
 628	6.2386e+01	15.0092	49.319669	0.000213	2.128532	0.721166	-0.000085
 629	6.2486e+01	14.9659	49.255075	0.000162	1.621739	0.549460	-0.000065
 630	6.2586e+01	14.9242	49.121849	0.000334	3.344836	1.133261	-0.000134
 631	6.2685e+01	14.8921	49.033032	0.000223	2.229891	0.755508	-0.000089
 632	6.2785e+01	14.8472	48.956327	0.000193	1.925815	0.652484	-0.000077
 633	6.2884e+01	14.8135	48.887695	0.000172	1.723098	0.583801	-0.000069
 634	6.2983e+01	14.7766	48.798878	0.000223	2.229891	0.755508	-0.000089
 635	6.3083e+01	14.7269	48.701987	0.000243	2.432608	0.824190	-0.000097
 636	6.3182e+01	14.6819	48.592984	0.000274	2.736684	0.927214	-0.000110
 637	6.3282e+01	14.6434	48.516279	0.000193	1.925815	0.652484	-0.000077
 638	6.3382e+01	14.6178	48.415350	0.000253	2.533967	0.858531	-0.000101
 639	6.3481e+01	14.5696	48.314422	0.000253	2.533967	0.858531	-0.000101
 640	6.3581e+01	14.5327	48.193308	0.000304	3.040760	1.030238	-0.000122
 641	6.3680e+01	14.4894	48.088342	0.000264	2.635326	0.892873	-0.000105
 642	6.3779e+01	14.4493	48.003562	0.000213	2.128532	0.721166	-0.000085
 643	6.3879e+01	14.4092	47.890523	0.000284	2.838043	0.961555	-0.000114
 644	6.3978e+01	14.3707	47.817854	0.000182	1.824456	0.618143	-0.000073
 645	6.4078e+01	14.3306	47.757297	0.000152	1.520380	0.515119	-0.000061
 646	6.4177e+01	14.2857	47.632146	0.000314	3.142119	1.064579	-0.000126
 647	6.4277e+01	14.2552	47.575626	0.000142	1.419022	0.480778	-0.000057
 648	6.4376e+01	14.2071	47.511032	0.000162	1.621739	0.549460	-0.000065
 649	6.4476e+01	14.1830	47.317249	0.000487	4.865217	1.648380	-0.000195
 650	6.4576e+01	14.1381	47.260730	0.000142	1.419022	0.480778	-0.000057
 651	6.4675e+01	14.0916	47.175950	0.000213	2.128532	0.721166	-0.000085
 652	6.4775e+01	14.0563	47.054836	0.000304	3.040760	1.030238	-0.000122
 653	6.4874e+01	14.0033	46.990241	0.000162	1.621739	0.549460	-0.000065
 654	6.4974e+01	13.9745	46.893350	0.000243	2.432608	0.824190	-0.000097
 655	6.5073e+01	13.9263	46.869127	0.000061	0.608152	0.206048	-0.000024
 656	6.5172e+01	13.8894	46.699568	0.000426	4.257065	1.442333	-0.000170
 657	6.5272e+01	13.8574	46.614788	0.000213	2.128532	0.721166	-0.000085
 658	6.5371e+01	13.8140	46.534045	0.000203	2.027174	0.686825	-0.000081
 659	6.5471e+01	13.7691	46.441191	0.000233	2.331250	0.789849	-0.000093
 660	6.5570e+01	13.7290	46.312003	0.000324	3.243478	1.098920	-0.000130
 661	6.5670e+01	13.6905	46.259520	0.000132	1.317663	0.446436	-0.000053
 662	6.5769e+01	13.6552	46.098034	0.000405	4.054347	1.373650	-0.000162
 663	6.5869e+01	13.6167	46.045552	0.000132	1.317663	0.446436	-0.000053
 664	6.5969e+01	13.5782	45.920400	0.000314	3.142119	1.064579	-0.000126
 665	6.6068e+01	13.5397	45.843695	0.000193	1.925815	0.652484	-0.000077
 666	6.6168e+01	13.4964	45.746804	0.000243	2.432608	0.824190	-0.000097
 667	6.6267e+01	13.4595	45.657987	0.000223	2.229891	0.755508	-0.000089
 668	6.6367e+01	13.4034	45.565133	0.000233	2.331250	0.789849	-0.000093
 669	6.6466e+01	13.3697	45.472278	0.000233	2.331250	0.789849	-0.000093
 670	6.6566e+01	13.3360	45.375387	0.000243	2.432608	0.824190	-0.000097
 671	6.6665e+01	13.2991	45.270422	0.000264	2.635326	0.892873	-0.000105
 672	6.6764e+01	13.2622	45.145270	0.000314	3.142119	1.064579	-0.000126
 673	6.6864e+01	13.2173	45.032231	0.000284	2.838043	0.961555	-0.000114
 674	6.6963e+01	13.1740	44.951488	0.000203	2.027174	0.686825	-0.000081
 675	6.7063e+01	13.1403	44.862671	0.000223	2.229891	0.755508	-0.000089
 676	6.7162e+01	13.0937	44.769817	0.000233	2.331250	0.789849	-0.000093
 677	6.7262e+01	13.0536	44.681000	0.000223	2.229891	0.755508	-0.000089
 678	6.7362e+01	13.0135	44.580071	0.000253	2.533967	0.858531	-0.000101
 679	6.7461e+01	12.9815	44.418586	0.000405	4.054347	1.373650	-0.000162
 680	6.7561e+01	12.9446	44.353992	0.000162	1.621739	0.549460	-0.000065
 681	6.7660e+01	12.9061	44.285360	0.000172	1.723098	0.583801	-0.000069
 682	6.7760e+01	12.8611	44.184432	0.000253	2.533967	0.858531	-0.000101
 683	6.7859e+01	12.8242	44.051207	0.000334	3.344836	1.133261	-0.000134
 684	6.7959e+01	12.7777	43.946241	0.000264	2.635326	0.892873	-0.000105
 685	6.8058e+01	12.7328	43.833201	0.000284	2.838043	0.961555	-0.000114
 686	6.8157e+01	12.6975	43.748421	0.000213	2.128532	0.721166	-0.000085
 687	6.8257e+01	12.6590	43.647493	0.000253	2.533967	0.858531	-0.000101
 688	6.8356e+01	12.6189	43.530416	0.000294	2.939402	0.995896	-0.000118
 689	6.8456e+01	12.5772	43.433525	0.000243	2.432608	0.824190	-0.000097
 690	6.8555e+01	12.5307	43.360856	0.000182	1.824456	0.618143	-0.000073
 691	6.8655e+01	12.5034	43.239742	0.000304	3.040760	1.030238	-0.000122
 692	6.8754e+01	12.4729	43.171111	0.000172	1.723098	0.583801	-0.000069
 693	6.8854e+01	12.4136	43.054034	0.000294	2.939402	0.995896	-0.000118
 694	6.8954e+01	12.3734	42.953106	0.000253	2.533967	0.858531	-0.000101
 695	6.9053e+01	12.3462	42.860252	0.000233	2.331250	0.789849	-0.000093
 696	6.9153e+01	12.2997	42.783546	0.000193	1.925815	0.652484	-0.000077
 697	6.9252e+01	12.2595	42.678580	0.000264	2.635326	0.892873	-0.000105
 698	6.9352e+01	12.2210	42.553429	0.000314	3.142119	1.064579	-0.000126
 699	6.9451e+01	12.1809	42.472687	0.000203	2.027174	0.686825	-0.000081
 700	6.9550e+01	12.1456	42.363684	0.000274	2.736684	0.927214	-0.000110
 701	6.9650e+01	12.1007	42.250644	0.000284	2.838043	0.961555	-0.000114
 702	6.9749e+01	12.0670	42.165864	0.000213	2.128532	0.721166	-0.000085
 703	6.9849e+01	12.0285	42.121456	0.000111	1.114945	0.377754	-0.000045
 704	6.9948e+01	11.9804	41.968045	0.000385	3.851630	1.304968	-0.000154
 705	7.0048e+01	11.9387	41.867116	0.000253	2.533967	0.858531	-0.000101
 706	7.0147e+01	11.9050	41.762151	0.000264	2.635326	0.892873	-0.000105
 707	7.0247e+01	11.8681	41.693519	0.000172	1.723098	0.583801	-0.000069
 708	7.0347e+01	11.8184	41.560294	0.000334	3.344836	1.133261	-0.000134
 709	7.0446e+01	11.7815	41.447254	0.000284	2.838043	0.961555	-0.000114
 710	7.0546e+01	11.7526	41.346326	0.000253	2.533967	0.858531	-0.000101
 711	7.0645e+01	11.7077	41.245397	0.000253	2.533967	0.858531	-0.000101
 712	7.0745e+01	11.6628	41.144469	0.000253	2.533967	0.858531	-0.000101
 713	7.0844e+01	11.6259	41.047578	0.000243	2.432608	0.824190	-0.000097
 714	7.0944e+01	11.5874	40.938575	0.000274	2.736684	0.927214	-0.000110
 715	7.1043e+01	11.5409	40.849758	0.000223	2.229891	0.755508	-0.000089
 716	7.1142e+01	11.4991	40.748830	0.000253	2.533967	0.858531	-0.000101
 717	7.1242e+01	11.4671	40.672124	0.000193	1.925815	0.652484	-0.000077
 718	7.1341e+01	11.4205	40.555047	0.000294	2.939402	0.995896	-0.000118
 719	7.1441e+01	11.3933	40.462193	0.000233	2.331250	0.789849	-0.000093
 720	7.1540e+01	11.3451	40.296670	0.000416	4.155706	1.407991	-0.000166
 721	7.1640e+01	11.3034	40.179593	0.000294	2.939402	0.995896	-0.000118
 722	7.1740e+01	11.2713	40.110962	0.000172	1.723098	0.583801	-0.000069
 723	7.1839e+01	11.2312	39.977737	0.000334	3.344836	1.133261	-0.000134
 724	7.1939e+01	11.1847	39.901031	0.000193	1.925815	0.652484	-0.000077
 725	7.2038e+01	11.1430	39.808177	0.000233	2.331250	0.789849	-0.000093
 726	7.2138e+01	11.1109	39.703211	0.000264	2.635326	0.892873	-0.000105
 727	7.2237e+01	11.0644	39.586134	0.000294	2.939402	0.995896	-0.000118
 728	7.2337e+01	11.0339	39.469058	0.000294	2.939402	0.995896	-0.000118
 729	7.2436e+01	10.9858	39.384278	0.000213	2.128532	0.721166	-0.000085
 730	7.2535e+01	10.9473	39.299498	0.000213	2.128532	0.721166	-0.000085
 731	7.2635e+01	10.9056	39.190495	0.000274	2.736684	0.927214	-0.000110
 732	7.2734e+01	10.8703	39.093604	0.000243	2.432608	0.824190	-0.000097
 733	7.2834e+01	10.8270	38.996713	0.000243	2.432608	0.824190	-0.000097
 734	7.2933e+01	10.7788	38.891747	0.000264	2.635326	0.892873	-0.000105
 735	7.3033e+01	10.7339	38.750447	0.000355	3.547554	1.201944	-0.000142
 736	7.3132e+01	10.7050	38.661630	0.000223	2.229891	0.755508	-0.000089
 737	7.3232e+01	10.6681	38.605110	0.000142	1.419022	0.480778	-0.000057
 738	7.3332e+01	10.6393	38.479959	0.000314	3.142119	1.064579	-0.000126
 739	7.3431e+01	10.5847	38.334622	0.000365	3.648913	1.236285	-0.000146
 740	7.3531e+01	10.5526	38.193323	0.000355	3.547554	1.201944	-0.000142
 741	7.3630e+01	10.5061	38.092394	0.000253	2.533967	0.858531	-0.000101
 742	7.3730e+01	10.4612	37.959169	0.000334	3.344836	1.133261	-0.000134
 743	7.3829e+01	10.4259	37.874389	0.000213	2.128532	0.721166	-0.000085
 744	7.3928e+01	10.3874	37.765386	0.000274	2.736684	0.927214	-0.000110
 745	7.4028e+01	10.3409	37.652346	0.000284	2.838043	0.961555	-0.000114
 746	7.4127e+01	10.3168	37.539307	0.000284	2.838043	0.961555	-0.000114
 747	7.4227e+01	10.2751	37.474712	0.000162	1.621739	0.549460	-0.000065
 748	7.4326e+01	10.2222	37.385896	0.000223	2.229891	0.755508	-0.000089
 749	7.4426e+01	10.1853	37.272856	0.000284	2.838043	0.961555	-0.000114
 750	7.4525e+01	10.1564	37.159816	0.000284	2.838043	0.961555	-0.000114
 751	7.4625e+01	10.1179	37.083110	0.000193	1.925815	0.652484	-0.000077
 752	7.4725e+01	10.0569	36.998330	0.000213	2.128532	0.721166	-0.000085
 753	7.4824e+01	10.0249	36.901439	0.000243	2.432608	0.824190	-0.000097
 754	7.4924e+01	9.9880	36.784362	0.000294	2.939402	0.995896	-0.000118
 755	7.5023e+01	9.9478	36.687471	0.000243	2.432608	0.824190	-0.000097
 756	7.5123e+01	9.9077	36.590580	0.000243	2.432608	0.824190	-0.000097
 757	7.5222e+01	9.8692	36.461391	0.000324	3.243478	1.098920	-0.000130
 758	7.5322e+01	9.8291	36.344314	0.000294	2.939402	0.995896	-0.000118
 759	7.5421e+01	9.7938	36.231275	0.000284	2.838043	0.961555	-0.000114
 760	7.5520e+01	9.7489	36.190903	0.000101	1.013587	0.343413	-0.000041
 761	7.5620e+01	9.7072	35.985009	0.000517	5.169293	1.751404	-0.000207
 762	7.5719e+01	9.6719	35.904267	0.000203	2.027174	0.686825	-0.000081
 763	7.5819e+01	9.6270	35.803338	0.000253	2.533967	0.858531	-0.000101
 764	7.5918e+01	9.5901	35.702410	0.000253	2.533967	0.858531	-0.000101
 765	7.6018e+01	9.5500	35.597444	0.000264	2.635326	0.892873	-0.000105
 766	7.6118e+01	9.5051	35.488442	0.000274	2.736684	0.927214	-0.000110
 767	7.6217e+01	9.4698	35.403662	0.000213	2.128532	0.721166	-0.000085
 768	7.6317e+01	9.4297	35.294659	0.000274	2.736684	0.927214	-0.000110
 769	7.6416e+01	9.3896	35.189694	0.000264	2.635326	0.892873	-0.000105
 770	7.6516e+01	9.3527	35.084728	0.000264	2.635326	0.892873	-0.000105
 771	7.6615e+01	9.3046	34.967651	0.000294	2.939402	0.995896	-0.000118
 772	7.6715e+01	9.2789	34.818277	0.000375	3.750271	1.270626	-0.000150
 773	7.6814e+01	9.2340	34.749646	0.000172	1.723098	0.583801	-0.000069
 774	7.6913e+01	9.1939	34.596235	0.000385	3.851630	1.304968	-0.000154
 775	7.7013e+01	9.1538	34.442824	0.000385	3.851630	1.304968	-0.000154
 776	7.7112e+01	9.1104	34.370155	0.000182	1.824456	0.618143	-0.000073
 777	7.7212e+01	9.0687	34.253078	0.000294	2.939402	0.995896	-0.000118
 778	7.7311e+01	9.0318	34.160224	0.000233	2.331250	0.789849	-0.000093
 779	7.7411e+01	8.9949	34.031036	0.000324	3.243478	1.098920	-0.000130
 780	7.7510e+01	8.9580	33.930107	0.000253	2.533967	0.858531	-0.000101
 781	7.7610e+01	8.9163	33.744399	0.000466	4.662499	1.579698	-0.000187
 782	7.7710e+01	8.8730	33.647508	0.000243	2.432608	0.824190	-0.000097
 783	7.7809e+01	8.8281	33.570802	0.000193	1.925815	0.652484	-0.000077
 784	7.7909e+01	8.7992	33.449688	0.000304	3.040760	1.030238	-0.000122
 785	7.8008e+01	8.7527	33.320500	0.000324	3.243478	1.098920	-0.000130
 786	7.8108e+01	8.7174	33.163052	0.000395	3.952989	1.339309	-0.000158
 787	7.8207e+01	8.6661	33.102494	0.000152	1.520380	0.515119	-0.000061
 788	7.8306e+01	8.6340	32.928898	0.000436	4.358423	1.476674	-0.000174
 789	7.8406e+01	8.5907	32.844118	0.000213	2.128532	0.721166	-0.000085
 790	7.8505e+01	8.5602	32.727041	0.000294	2.939402	0.995896	-0.000118
 791	7.8605e+01	8.5072	32.646298	0.000203	2.027174	0.686825	-0.000081
 792	7.8704e+01	8.4768	32.488850	0.000395	3.952989	1.339309	-0.000158
 793	7.8804e+01	8.4238	32.375810	0.000284	2.838043	0.961555	-0.000114
 794	7.8903e+01	8.3901	32.278919	0.000243	2.432608	0.824190	-0.000097
 795	7.9003e+01	8.3564	32.161842	0.000294	2.939402	0.995896	-0.000118
 796	7.9103e+01	8.3099	32.032654	0.000324	3.243478	1.098920	-0.000130
 797	7.9202e+01	8.2762	31.911539	0.000304	3.040760	1.030238	-0.000122
 798	7.9302e+01	8.2329	31.822722	0.000223	2.229891	0.755508	-0.000089
 799	7.9401e+01	8.1976	31.705646	0.000294	2.939402	0.995896	-0.000118
 800	7.9501e+01	8.1575	31.596643	0.000274	2.736684	0.927214	-0.000110
 801	7.9600e+01	8.1238	31.491677	0.000264	2.635326	0.892873	-0.000105
 802	7.9700e+01	8.0677	31.382675	0.000274	2.736684	0.927214	-0.000110
 803	7.9799e+01	8.0308	31.277709	0.000264	2.635326	0.892873	-0.000105
 804	7.9898e+01	7.9923	31.192929	0.000213	2.128532	0.721166	-0.000085
 805	7.9998e+01	7.9442	31.092001	0.000253	2.533967	0.858531	-0.000101
 806	8.0097e+01	7.9153	30.982998	0.000274	2.736684	0.927214	-0.000110
 807	8.0197e+01	7.8768	30.857847	0.000314	3.142119	1.064579	-0.000126
 808	8.0296e+01	7.8303	30.748844	0.000274	2.736684	0.927214	-0.000110
 809	8.0396e+01	7.7982	30.643879	0.000264	2.635326	0.892873	-0.000105
 810	8.0496e+01	7.7597	30.526802	0.000294	2.939402	0.995896	-0.000118
 811	8.0595e+01	7.7148	30.393576	0.000334	3.344836	1.133261	-0.000134
 812	8.0695e+01	7.6714	30.316871	0.000193	1.925815	0.652484	-0.000077
 813	8.0794e+01	7.6394	30.179608	0.000345	3.446195	1.167603	-0.000138
 814	8.0894e+01	7.5960	30.086754	0.000233	2.331250	0.789849	-0.000093
 815	8.0993e+01	7.5559	29.957566	0.000324	3.243478	1.098920	-0.000130
 816	8.1093e+01	7.5158	29.824340	0.000334	3.344836	1.133261	-0.000134
 817	8.1192e+01	7.4773	29.723412	0.000253	2.533967	0.858531	-0.000101
 818	8.1291e+01	7.4420	29.594224	0.000324	3.243478	1.098920	-0.000130
 819	8.1391e+01	7.3923	29.517518	0.000193	1.925815	0.652484	-0.000077
 820	8.1490e+01	7.3618	29.372181	0.000365	3.648913	1.236285	-0.000146
 821	8.1590e+01	7.3297	29.259141	0.000284	2.838043	0.961555	-0.000114
 822	8.1689e+01	7.2816	29.113804	0.000365	3.648913	1.236285	-0.000146
 823	8.1789e+01	7.2415	29.024987	0.000223	2.229891	0.755508	-0.000089
 824	8.1888e+01	7.2014	28.887725	0.000345	3.446195	1.167603	-0.000138
 825	8.1988e+01	7.1581	28.819093	0.000172	1.723098	0.583801	-0.000069
 826	8.2088e+01	7.1228	28.685868	0.000334	3.344836	1.133261	-0.000134
 827	8.2187e+01	7.0731	28.560717	0.000314	3.142119	1.064579	-0.000126
 828	8.2287e+01	7.0410	28.471900	0.000223	2.229891	0.755508	-0.000089
 829	8.2386e+01	6.9929	28.346749	0.000314	3.142119	1.064579	-0.000126
 830	8.2486e+01	6.9576	28.261969	0.000213	2.128532	0.721166	-0.000085
 831	8.2585e+01	6.9207	28.132780	0.000324	3.243478	1.098920	-0.000130
 832	8.2684e+01	6.8773	28.043963	0.000223	2.229891	0.755508	-0.000089
 833	8.2784e+01	6.8372	27.906701	0.000345	3.446195	1.167603	-0.000138
 834	8.2883e+01	6.8019	27.749252	0.000395	3.952989	1.339309	-0.000158
 835	8.2983e+01	6.7570	27.628138	0.000304	3.040760	1.030238	-0.000122
 836	8.3082e+01	6.7137	27.494913	0.000334	3.344836	1.133261	-0.000134
 837	8.3182e+01	6.6848	27.438393	0.000142	1.419022	0.480778	-0.000057
 838	8.3281e+01	6.6479	27.293056	0.000365	3.648913	1.236285	-0.000146
 839	8.3381e+01	6.5966	27.180016	0.000284	2.838043	0.961555	-0.000114
 840	8.3481e+01	6.5677	27.066977	0.000284	2.838043	0.961555	-0.000114
 841	8.3580e+01	6.5260	26.949900	0.000294	2.939402	0.995896	-0.000118
 842	8.3680e+01	6.4811	26.808600	0.000355	3.547554	1.201944	-0.000142
 843	8.3779e+01	6.4426	26.703634	0.000264	2.635326	0.892873	-0.000105
 844	8.3879e+01	6.4057	26.570409	0.000334	3.344836	1.133261	-0.000134
 845	8.3978e+01	6.3656	26.485629	0.000213	2.128532	0.721166	-0.000085
 846	8.4078e+01	6.3239	26.312032	0.000436	4.358423	1.476674	-0.000174
 847	8.4177e+01	6.2774	26.219178	0.000233	2.331250	0.789849	-0.000093
 848	8.4276e+01	6.2469	26.073841	0.000365	3.648913	1.236285	-0.000146
 849	8.4376e+01	6.2036	25.956764	0.000294	2.939402	0.995896	-0.000118
 850	8.4475e+01	6.1763	25.799316	0.000395	3.952989	1.339309	-0.000158
 851	8.4575e+01	6.1250	25.645905	0.000385	3.851630	1.304968	-0.000154
 852	8.4674e+01	6.0897	25.520754	0.000314	3.142119	1.064579	-0.000126
 853	8.4774e+01	6.0431	25.387528	0.000334	3.344836	1.133261	-0.000134
 854	8.4874e+01	6.0062	25.262377	0.000314	3.142119	1.064579	-0.000126
 855	8.4973e+01	5.9710	25.161448	0.000253	2.533967	0.858531	-0.000101
 856	8.5073e+01	5.9228	25.028223	0.000334	3.344836	1.133261	-0.000134
 857	8.5172e+01	5.8875	24.858663	0.000426	4.257065	1.442333	-0.000170
 858	8.5272e+01	5.8458	24.790032	0.000172	1.723098	0.583801	-0.000069
 859	8.5371e+01	5.8105	24.640658	0.000375	3.750271	1.270626	-0.000150
 860	8.5471e+01	5.7672	24.515507	0.000314	3.142119	1.064579	-0.000126
 861	8.5570e+01	5.7255	24.370170	0.000365	3.648913	1.236285	-0.000146
 862	8.5669e+01	5.6870	24.257130	0.000284	2.838043	0.961555	-0.000114
 863	8.5769e+01	5.6421	24.131979	0.000314	3.142119	1.064579	-0.000126
 864	8.5868e+01	5.6116	23.962419	0.000426	4.257065	1.442333	-0.000170
 865	8.5968e+01	5.5731	23.825157	0.000345	3.446195	1.167603	-0.000138
 866	8.6067e+01	5.5298	23.659634	0.000416	4.155706	1.407991	-0.000166
 867	8.6167e+01	5.4929	23.514297	0.000365	3.648913	1.236285	-0.000146
 868	8.6266e+01	5.4367	23.393183	0.000304	3.040760	1.030238	-0.000122
 869	8.6366e+01	5.4143	23.251883	0.000355	3.547554	1.201944	-0.000142
 870	8.6466e+01	5.3742	23.070212	0.000456	4.561141	1.545356	-0.000183
 871	8.6565e+01	5.3277	22.932950	0.000345	3.446195	1.167603	-0.000138
 872	8.6665e+01	5.2892	22.779538	0.000385	3.851630	1.304968	-0.000154
 873	8.6764e+01	5.2490	22.682647	0.000243	2.432608	0.824190	-0.000097
 874	8.6864e+01	5.2041	22.488865	0.000487	4.865217	1.648380	-0.000195
 875	8.6963e+01	5.1720	22.319305	0.000426	4.257065	1.442333	-0.000170
 876	8.7063e+01	5.1335	22.190117	0.000324	3.243478	1.098920	-0.000130
 877	8.7162e+01	5.0934	21.972111	0.000547	5.473369	1.854428	-0.000219
 878	8.7261e+01	5.0533	21.855034	0.000294	2.939402	0.995896	-0.000118
 879	8.7361e+01	5.0052	21.709697	0.000365	3.648913	1.236285	-0.000146
 880	8.7460e+01	4.9715	21.580509	0.000324	3.243478	1.098920	-0.000130
 881	8.7560e+01	4.9282	21.427098	0.000385	3.851630	1.304968	-0.000154
 882	8.7659e+01	4.8929	21.257538	0.000426	4.257065	1.442333	-0.000170
 883	8.7759e+01	4.8576	21.108164	0.000375	3.750271	1.270626	-0.000150
 884	8.7859e+01	4.8159	20.995124	0.000284	2.838043	0.961555	-0.000114
 885	8.7958e+01	4.7662	20.849788	0.000365	3.648913	1.236285	-0.000146
 886	8.8058e+01	4.7357	20.672154	0.000446	4.459782	1.511015	-0.000179
 887	8.8157e+01	4.6876	20.591411	0.000203	2.027174	0.686825	-0.000081
 888	8.8257e+01	4.6491	20.438000	0.000385	3.851630	1.304968	-0.000154
 889	8.8356e+01	4.6170	20.337071	0.000253	2.533967	0.858531	-0.000101
 890	8.8456e+01	4.5753	20.163474	0.000436	4.358423	1.476674	-0.000174
 891	8.8555e+01	4.5271	20.001989	0.000405	4.054347	1.373650	-0.000162
 892	8.8654e+01	4.4935	19.844541	0.000395	3.952989	1.339309	-0.000158
 893	8.8754e+01	4.4469	19.719390	0.000314	3.142119	1.064579	-0.000126
 894	8.8853e+01	4.4036	19.557904	0.000405	4.054347	1.373650	-0.000162
 895	8.8953e+01	4.3683	19.432753	0.000314	3.142119	1.064579	-0.000126
 896	8.9052e+01	4.3362	19.315676	0.000294	2.939402	0.995896	-0.000118
 897	8.9152e+01	4.2881	19.129968	0.000466	4.662499	1.579698	-0.000187
 898	8.9251e+01	4.2480	18.932148	0.000497	4.966575	1.682721	-0.000199
 899	8.9351e+01	4.2127	18.827183	0.000264	2.635326	0.892873	-0.000105
 900	8.9451e+01	4.1710	18.641474	0.000466	4.662499	1.579698	-0.000187
 901	8.9550e+01	4.1277	18.512286	0.000324	3.243478	1.098920	-0.000130
 902	8.9650e+01	4.0860	18.338689	0.000436	4.358423	1.476674	-0.000174
 903	8.9749e+01	4.0491	18.169129	0.000426	4.257065	1.442333	-0.000170
 904	8.9849e+01	4.0106	18.019755	0.000375	3.750271	1.270626	-0.000150
 905	8.9948e+01	3.9689	17.906716	0.000284	2.838043	0.961555	-0.000114
 906	9.0047e+01	3.9320	17.741193	0.000416	4.155706	1.407991	-0.000166
 907	9.0147e+01	3.8903	17.616042	0.000314	3.142119	1.064579	-0.000126
 908	9.0246e+01	3.8582	17.450519	0.000416	4.155706	1.407991	-0.000166
 909	9.0346e+01	3.8197	17.313257	0.000345	3.446195	1.167603	-0.000138
 910	9.0445e+01	3.7699	17.167920	0.000365	3.648913	1.236285	-0.000146
 911	9.0545e+01	3.7347	17.038731	0.000324	3.243478	1.098920	-0.000130
 912	9.0644e+01	3.6929	16.844949	0.000487	4.865217	1.648380	-0.000195
 913	9.0744e+01	3.6593	16.679426	0.000416	4.155706	1.407991	-0.000166
 914	9.0844e+01	3.6175	16.493718	0.000466	4.662499	1.579698	-0.000187
 915	9.0943e+01	3.5742	16.360493	0.000334	3.344836	1.133261	-0.000134
 916	9.1043e+01	3.5341	16.166710	0.000487	4.865217	1.648380	-0.000195
 917	9.1142e+01	3.4892	16.094042	0.000182	1.824456	0.618143	-0.000073
 918	9.1242e+01	3.4571	15.944668	0.000375	3.750271	1.270626	-0.000150
 919	9.1341e+01	3.4234	15.835665	0.000274	2.736684	0.927214	-0.000110
 920	9.1441e+01	3.3769	15.670142	0.000416	4.155706	1.407991	-0.000166
 921	9.1540e+01	3.3304	15.524805	0.000365	3.648913	1.236285	-0.000146
 922	9.1639e+01	3.2935	15.387543	0.000345	3.446195	1.167603	-0.000138
 923	9.1739e+01	3.2614	15.258355	0.000324	3.243478	1.098920	-0.000130
 924	9.1838e+01	3.2197	15.153389	0.000264	2.635326	0.892873	-0.000105
 925	9.1938e+01	3.1748	14.987866	0.000416	4.155706	1.407991	-0.000166
 926	9.2037e+01	3.1459	14.818307	0.000426	4.257065	1.442333	-0.000170
 927	9.2137e+01	3.0914	14.681044	0.000345	3.446195	1.167603	-0.000138
 928	9.2237e+01	3.0593	14.527633	0.000385	3.851630	1.304968	-0.000154
 929	9.2336e+01	3.0144	14.301553	0.000568	5.676086	1.923110	-0.000227
 930	9.2436e+01	2.9759	14.087585	0.000537	5.372010	1.820086	-0.000215
 931	9.2535e+01	2.9341	13.946285	0.000355	3.547554	1.201944	-0.000142
 932	9.2635e+01	2.8972	13.800949	0.000365	3.648913	1.236285	-0.000146
 933	9.2734e+01	2.8491	13.643500	0.000395	3.952989	1.339309	-0.000158
 934	9.2834e+01	2.8170	13.502200	0.000355	3.547554	1.201944	-0.000142
 935	9.2933e+01	2.7833	13.344752	0.000395	3.952989	1.339309	-0.000158
 936	9.3032e+01	2.7384	13.223638	0.000304	3.040760	1.030238	-0.000122
 937	9.3132e+01	2.6935	13.037930	0.000466	4.662499	1.579698	-0.000187
 938	9.3231e+01	2.6550	12.896630	0.000355	3.547554	1.201944	-0.000142
 939	9.3331e+01	2.6101	12.723033	0.000436	4.358423	1.476674	-0.000174
 940	9.3430e+01	2.5764	12.630179	0.000233	2.331250	0.789849	-0.000093
 941	9.3530e+01	2.5283	12.496954	0.000334	3.344836	1.133261	-0.000134
 942	9.3629e+01	2.5026	12.331431	0.000416	4.155706	1.407991	-0.000166
 943	9.3729e+01	2.4657	12.161871	0.000426	4.257065	1.442333	-0.000170
 944	9.3829e+01	2.4224	11.996349	0.000416	4.155706	1.407991	-0.000166
 945	9.3928e+01	2.3775	11.842938	0.000385	3.851630	1.304968	-0.000154
 946	9.4028e+01	2.3486	11.705675	0.000345	3.446195	1.167603	-0.000138
 947	9.4127e+01	2.2973	11.572450	0.000334	3.344836	1.133261	-0.000134
 948	9.4227e+01	2.2491	11.358481	0.000537	5.372010	1.820086	-0.000215
 949	9.4326e+01	2.2170	11.196996	0.000405	4.054347	1.373650	-0.000162
 950	9.4425e+01	2.1834	11.023399	0.000436	4.358423	1.476674	-0.000174
 951	9.4525e+01	2.1320	10.837691	0.000466	4.662499	1.579698	-0.000187
 952	9.4624e+01	2.0983	10.700428	0.000345	3.446195	1.167603	-0.000138
 953	9.4724e+01	2.0646	10.551054	0.000375	3.750271	1.270626	-0.000150
 954	9.4823e+01	2.0197	10.409755	0.000355	3.547554	1.201944	-0.000142
 955	9.4923e+01	1.9780	10.224046	0.000466	4.662499	1.579698	-0.000187
 956	9.5022e+01	1.9459	10.058524	0.000416	4.155706	1.407991	-0.000166
 957	9.5122e+01	1.8930	9.929335	0.000324	3.243478	1.098920	-0.000130
 958	9.5222e+01	1.8689	9.763813	0.000416	4.155706	1.407991	-0.000166
 959	9.5321e+01	1.8208	9.553882	0.000527	5.270651	1.785745	-0.000211
 960	9.5421e+01	1.7743	9.396433	0.000395	3.952989	1.339309	-0.000158
 961	9.5520e+01	1.7470	9.226874	0.000426	4.257065	1.442333	-0.000170
 962	9.5620e+01	1.7133	9.113834	0.000284	2.838043	0.961555	-0.000114
 963	9.5719e+01	1.6588	8.936200	0.000446	4.459782	1.511015	-0.000179
 964	9.5819e+01	1.6187	8.811049	0.000314	3.142119	1.064579	-0.000126
 965	9.5918e+01	1.5834	8.653600	0.000395	3.952989	1.339309	-0.000158
 966	9.6017e+01	1.5385	8.459818	0.000487	4.865217	1.648380	-0.000195
 967	9.6117e+01	1.5016	8.322555	0.000345	3.446195	1.167603	-0.000138
 968	9.6216e+01	1.4582	8.148958	0.000436	4.358423	1.476674	-0.000174
 969	9.6316e+01	1.4197	8.007659	0.000355	3.547554	1.201944	-0.000142
 970	9.6415e+01	1.3845	7.825988	0.000456	4.561141	1.545356	-0.000183
 971	9.6515e+01	1.3427	7.712948	0.000284	2.838043	0.961555	-0.000114
 972	9.6615e+01	1.3010	7.527240	0.000466	4.662499	1.579698	-0.000187
 973	9.6714e+01	1.2641	7.353643	0.000436	4.358423	1.476674	-0.000174
 974	9.6814e+01	1.2272	7.192157	0.000405	4.054347	1.373650	-0.000162
 975	9.6913e+01	1.1791	7.010486	0.000456	4.561141	1.545356	-0.000183
 976	9.7013e+01	1.1486	6.840927	0.000426	4.257065	1.442333	-0.000170
 977	9.7112e+01	1.0957	6.695590	0.000365	3.648913	1.236285	-0.000146
 978	9.7212e+01	1.0636	6.558327	0.000345	3.446195	1.167603	-0.000138
 979	9.7311e+01	1.0155	6.364544	0.000487	4.865217	1.648380	-0.000195
 980	9.7410e+01	0.9850	6.211133	0.000385	3.851630	1.304968	-0.000154
 981	9.7510e+01	0.9353	6.037536	0.000436	4.358423	1.476674	-0.000174
 982	9.7609e+01	0.9080	5.892200	0.000365	3.648913	1.236285	-0.000146
 983	9.7709e+01	0.8599	5.767048	0.000314	3.142119	1.064579	-0.000126
 984	9.7808e+01	0.8262	5.605563	0.000405	4.054347	1.373650	-0.000162
 985	9.7908e+01	0.7829	5.419855	0.000466	4.662499	1.579698	-0.000187
 986	9.8007e+01	0.7492	5.266444	0.000385	3.851630	1.304968	-0.000154
 987	9.8107e+01	0.7075	5.076698	0.000476	4.763858	1.614039	-0.000191
 988	9.8207e+01	0.6674	4.923287	0.000385	3.851630	1.304968	-0.000154
 989	9.8306e+01	0.6321	4.677022	0.000618	6.182880	2.094816	-0.000248
 990	9.8406e+01	0.5791	4.527648	0.000375	3.750271	1.270626	-0.000150
 991	9.8505e+01	0.5486	4.390385	0.000345	3.446195	1.167603	-0.000138
 992	9.8605e+01	0.5101	4.216788	0.000436	4.358423	1.476674	-0.000174
 993	9.8704e+01	0.4716	4.055303	0.000405	4.054347	1.373650	-0.000162
 994	9.8803e+01	0.4187	3.869595	0.000466	4.662499	1.579698	-0.000187
 995	9.8903e+01	0.3850	3.716183	0.000385	3.851630	1.304968	-0.000154
 996	9.9002e+01	0.3337	3.595069	0.000304	3.040760	1.030238	-0.000122
 997	9.9102e+01	0.3096	3.389175	0.000517	5.169293	1.751404	-0.000207
 998	9.9201e+01	0.2615	3.207504	0.000456	4.561141	1.545356	-0.000183
 999	9.9301e+01	0.2246	3.017759	0.000476	4.763858	1.614039	-0.000191
1000	9.9400e+01	0.1909	2.872422	0.000365	3.648913	1.236285	-0.000146
1001	9.9500e+01	0.1396	2.759382	0.000284	2.838043	0.961555	-0.000114
1002	9.9600e+01	0.1059	2.521191	0.000598	5.980162	2.026134	-0.000239
1003	9.9699e+01	0.0658	2.351632	0.000426	4.257065	1.442333	-0.000170
1004	9.9799e+01	0.0241	2.145738	0.000517	5.169293	1.751404	-0.000207
1005	9.9898e+01	-0.0032	2.032698	0.000284	2.838043	0.961555	-0.000114
1006	9.9998e+01	-0.0449	1.907547	0.000314	3.142119	1.064579	-0.000126
1007	1.0010e+02	-0.0898	1.661281	0.000618	6.182880	2.094816	-0.000248
1008	1.0020e+02	-0.1251	1.556316	0.000264	2.635326	0.892873	-0.000105
1009	1.0030e+02	-0.1668	1.370608	0.000466	4.662499	1.579698	-0.000187
1010	1.0040e+02	-0.2134	1.213159	0.000395	3.952989	1.339309	-0.000158
1011	1.0050e+02	-0.2503	1.043600	0.000426	4.257065	1.442333	-0.000170
1012	1.0059e+02	-0.2936	0.870003	0.000436	4.358423	1.476674	-0.000174
1013	1.0069e+02	-0.3208	0.696406	0.000436	4.358423	1.476674	-0.000174
1014	1.0079e+02	-0.3674	0.563180	0.000334	3.344836	1.133261	-0.000134
1015	1.0089e+02	-0.4075	0.357287	0.000517	5.169293	1.751404	-0.000207
1016	1.0099e+02	-0.4412	0.215987	0.000355	3.547554	1.201944	-0.000142
1017	1.0109e+02	-0.4813	0.042390	0.000436	4.358423	1.476674	-0.000174
1018	1.0119e+02	-0.5230	-0.179653	0.000557	5.574727	1.888769	-0.000223
1019	1.0129e+02	-0.5615	-0.341138	0.000405	4.054347	1.373650	-0.000162
1020	1.0139e+02	-0.6096	-0.506661	0.000416	4.155706	1.407991	-0.000166
1021	1.0149e+02	-0.6433	-0.639886	0.000334	3.344836	1.133261	-0.000134
1022	1.0159e+02	-0.6770	-0.825594	0.000466	4.662499	1.579698	-0.000187
1023	1.0169e+02	-0.7075	-1.035525	0.000527	5.270651	1.785745	-0.000211
1024	1.0179e+02	-0.7668	-1.201048	0.000416	4.155706	1.407991	-0.000166
1025	1.0189e+02	-0.8005	-1.358496	0.000395	3.952989	1.339309	-0.000158
1026	1.0199e+02	-0.8438	-1.540167	0.000456	4.561141	1.545356	-0.000183
1027	1.0209e+02	-0.8839	-1.677430	0.000345	3.446195	1.167603	-0.000138
1028	1.0219e+02	-0.9240	-1.855064	0.000446	4.459782	1.511015	-0.000179
1029	1.0229e+02	-0.9593	-2.008475	0.000385	3.851630	1.304968	-0.000154
1030	1.0239e+02	-1.0155	-2.182072	0.000436	4.358423	1.476674	-0.000174
1031	1.0248e+02	-1.0428	-2.387966	0.000517	5.169293	1.751404	-0.000207
1032	1.0258e+02	-1.0796	-2.513117	0.000314	3.142119	1.064579	-0.000126
1033	1.0268e+02	-1.1262	-2.646342	0.000334	3.344836	1.133261	-0.000134
1034	1.0278e+02	-1.1647	-2.840125	0.000487	4.865217	1.648380	-0.000195
1035	1.0288e+02	-1.1952	-3.013722	0.000436	4.358423	1.476674	-0.000174
1036	1.0298e+02	-1.2369	-3.195393	0.000456	4.561141	1.545356	-0.000183
1037	1.0308e+02	-1.2818	-3.360916	0.000416	4.155706	1.407991	-0.000166
1038	1.0318e+02	-1.3219	-3.538549	0.000446	4.459782	1.511015	-0.000179
1039	1.0328e+02	-1.3588	-3.700035	0.000405	4.054347	1.373650	-0.000162
1040	1.0338e+02	-1.4037	-3.857483	0.000395	3.952989	1.339309	-0.000158
1041	1.0348e+02	-1.4502	-4.047229	0.000476	4.763858	1.614039	-0.000191
1042	1.0358e+02	-1.4807	-4.160268	0.000284	2.838043	0.961555	-0.000114
1043	1.0368e+02	-1.5208	-4.358088	0.000497	4.966575	1.682721	-0.000199
1044	1.0378e+02	-1.5593	-4.503425	0.000365	3.648913	1.236285	-0.000146
1045	1.0388e+02	-1.6010	-4.693170	0.000476	4.763858	1.614039	-0.000191
1046	1.0398e+02	-1.6411	-4.830433	0.000345	3.446195	1.167603	-0.000138
1047	1.0408e+02	-1.6844	-4.959621	0.000324	3.243478	1.098920	-0.000130
1048	1.0418e+02	-1.7294	-5.133218	0.000436	4.358423	1.476674	-0.000174
1049	1.0428e+02	-1.7631	-5.339112	0.000517	5.169293	1.751404	-0.000207
1050	1.0438e+02	-1.8064	-5.456189	0.000294	2.939402	0.995896	-0.000118
1051	1.0447e+02	-1.8465	-5.641897	0.000466	4.662499	1.579698	-0.000187
1052	1.0457e+02	-1.8721	-5.819531	0.000446	4.459782	1.511015	-0.000179
1053	1.0467e+02	-1.9171	-6.013314	0.000487	4.865217	1.648380	-0.000195
1054	1.0477e+02	-1.9652	-6.211133	0.000497	4.966575	1.682721	-0.000199
1055	1.0487e+02	-2.0101	-6.360507	0.000375	3.750271	1.270626	-0.000150
1056	1.0497e+02	-2.0310	-6.493733	0.000334	3.344836	1.133261	-0.000134
1057	1.0507e+02	-2.0823	-6.659255	0.000416	4.155706	1.407991	-0.000166
1058	1.0517e+02	-2.1144	-6.820741	0.000405	4.054347	1.373650	-0.000162
1059	1.0527e+02	-2.1577	-6.974152	0.000385	3.851630	1.304968	-0.000154
1060	1.0537e+02	-2.1882	-7.171972	0.000497	4.966575	1.682721	-0.000199
1061	1.0547e+02	-2.2459	-7.349606	0.000446	4.459782	1.511015	-0.000179
1062	1.0557e+02	-2.2844	-7.470720	0.000304	3.040760	1.030238	-0.000122
1063	1.0567e+02	-2.3197	-7.640279	0.000426	4.257065	1.442333	-0.000170
1064	1.0577e+02	-2.3630	-7.745245	0.000264	2.635326	0.892873	-0.000105
1065	1.0587e+02	-2.3983	-7.922879	0.000446	4.459782	1.511015	-0.000179
1066	1.0597e+02	-2.4384	-8.080327	0.000395	3.952989	1.339309	-0.000158
1067	1.0607e+02	-2.4721	-8.282184	0.000507	5.067934	1.717063	-0.000203
1068	1.0617e+02	-2.5219	-8.471929	0.000476	4.763858	1.614039	-0.000191
1069	1.0627e+02	-2.5588	-8.633415	0.000405	4.054347	1.373650	-0.000162
1070	1.0637e+02	-2.5956	-8.762603	0.000324	3.243478	1.098920	-0.000130
1071	1.0647e+02	-2.6245	-8.932163	0.000426	4.257065	1.442333	-0.000170
1072	1.0656e+02	-2.6839	-9.105760	0.000436	4.358423	1.476674	-0.000174
1073	1.0666e+02	-2.7192	-9.247059	0.000355	3.547554	1.201944	-0.000142
1074	1.0676e+02	-2.7545	-9.424693	0.000446	4.459782	1.511015	-0.000179
1075	1.0686e+02	-2.8026	-9.586179	0.000405	4.054347	1.373650	-0.000162
1076	1.0696e+02	-2.8251	-9.755739	0.000426	4.257065	1.442333	-0.000170
1077	1.0706e+02	-2.8700	-9.897038	0.000355	3.547554	1.201944	-0.000142
1078	1.0716e+02	-2.9213	-10.058524	0.000405	4.054347	1.373650	-0.000162
1079	1.0726e+02	-2.9598	-10.203861	0.000365	3.648913	1.236285	-0.000146
1080	1.0736e+02	-2.9983	-10.381495	0.000446	4.459782	1.511015	-0.000179
1081	1.0746e+02	-3.0352	-10.534906	0.000385	3.851630	1.304968	-0.000154
1082	1.0756e+02	-3.0769	-10.680243	0.000365	3.648913	1.236285	-0.000146
1083	1.0766e+02	-3.1122	-10.817505	0.000345	3.446195	1.167603	-0.000138
1084	1.0776e+02	-3.1523	-10.974954	0.000395	3.952989	1.339309	-0.000158
1085	1.0786e+02	-3.1988	-11.096068	0.000304	3.040760	1.030238	-0.000122
1086	1.0796e+02	-3.2373	-11.245442	0.000375	3.750271	1.270626	-0.000150
1087	1.0806e+02	-3.2678	-11.406927	0.000405	4.054347	1.373650	-0.000162
1088	1.0816e+02	-3.3111	-11.576487	0.000426	4.257065	1.442333	-0.000170
1089	1.0826e+02	-3.3528	-11.665304	0.000223	2.229891	0.755508	-0.000089
1090	1.0836e+02	-3.3897	-11.810641	0.000365	3.648913	1.236285	-0.000146
1091	1.0845e+02	-3.4298	-11.951940	0.000355	3.547554	1.201944	-0.000142
1092	1.0855e+02	-3.4651	-12.105352	0.000385	3.851630	1.304968	-0.000154
1093	1.0865e+02	-3.5117	-12.270874	0.000416	4.155706	1.407991	-0.000166
1094	1.0875e+02	-3.5486	-12.416211	0.000365	3.648913	1.236285	-0.000146
1095	1.0885e+02	-3.5823	-12.573659	0.000395	3.952989	1.339309	-0.000158
1096	1.0895e+02	-3.6256	-12.702848	0.000324	3.243478	1.098920	-0.000130
1097	1.0905e+02	-3.6689	-12.876444	0.000436	4.358423	1.476674	-0.000174
1098	1.0915e+02	-3.7138	-12.993521	0.000294	2.939402	0.995896	-0.000118
1099	1.0925e+02	-3.7459	-13.134821	0.000355	3.547554	1.201944	-0.000142
1100	1.0935e+02	-3.7860	-13.259972	0.000314	3.142119	1.064579	-0.000126
1101	1.0945e+02	-3.8293	-13.425495	0.000416	4.155706	1.407991	-0.000166
1102	1.0955e+02	-3.8838	-13.582943	0.000395	3.952989	1.339309	-0.000158
1103	1.0965e+02	-3.9175	-13.724243	0.000355	3.547554	1.201944	-0.000142
1104	1.0975e+02	-3.9528	-13.853431	0.000324	3.243478	1.098920	-0.000130
1105	1.0985e+02	-3.9994	-14.018954	0.000416	4.155706	1.407991	-0.000166
1106	1.0995e+02	-4.0362	-14.144105	0.000314	3.142119	1.064579	-0.000126
1107	1.1005e+02	-4.0683	-14.301553	0.000395	3.952989	1.339309	-0.000158
1108	1.1015e+02	-4.1116	-14.442853	0.000355	3.547554	1.201944	-0.000142
1109	1.1025e+02	-4.1534	-14.616450	0.000436	4.358423	1.476674	-0.000174
1110	1.1035e+02	-4.1822	-14.749675	0.000334	3.344836	1.133261	-0.000134
1111	1.1044e+02	-4.2416	-14.858678	0.000274	2.736684	0.927214	-0.000110
1112	1.1054e+02	-4.2657	-14.987866	0.000324	3.243478	1.098920	-0.000130
1113	1.1064e+02	-4.3058	-15.169538	0.000456	4.561141	1.545356	-0.000183
1114	1.1074e+02	-4.3619	-15.335060	0.000416	4.155706	1.407991	-0.000166
1115	1.1084e+02	-4.3844	-15.427914	0.000233	2.331250	0.789849	-0.000093
1116	1.1094e+02	-4.4245	-15.593437	0.000416	4.155706	1.407991	-0.000166
1117	1.1104e+02	-4.4742	-15.734737	0.000355	3.547554	1.201944	-0.000142
1118	1.1114e+02	-4.5063	-15.880073	0.000365	3.648913	1.236285	-0.000146
1119	1.1124e+02	-4.5576	-16.001187	0.000304	3.040760	1.030238	-0.000122
1120	1.1134e+02	-4.5961	-16.102116	0.000253	2.533967	0.858531	-0.000101
1121	1.1144e+02	-4.6378	-16.267638	0.000416	4.155706	1.407991	-0.000166
1122	1.1154e+02	-4.6763	-16.364530	0.000243	2.432608	0.824190	-0.000097
1123	1.1164e+02	-4.7100	-16.521978	0.000395	3.952989	1.339309	-0.000158
1124	1.1174e+02	-4.7485	-16.647129	0.000314	3.142119	1.064579	-0.000126
1125	1.1184e+02	-4.7918	-16.727872	0.000203	2.027174	0.686825	-0.000081
1126	1.1194e+02	-4.8319	-16.909543	0.000456	4.561141	1.545356	-0.000183
1127	1.1204e+02	-4.8656	-17.054880	0.000365	3.648913	1.236285	-0.000146
1128	1.1214e+02	-4.9025	-17.155808	0.000253	2.533967	0.858531	-0.000101
1129	1.1224e+02	-4.9442	-17.325368	0.000426	4.257065	1.442333	-0.000170
1130	1.1234e+02	-4.9892	-17.478779	0.000385	3.851630	1.304968	-0.000154
1131	1.1244e+02	-5.0229	-17.579708	0.000253	2.533967	0.858531	-0.000101
1132	1.1253e+02	-5.0614	-17.700822	0.000304	3.040760	1.030238	-0.000122
1133	1.1263e+02	-5.1079	-17.854233	0.000385	3.851630	1.304968	-0.000154
1134	1.1273e+02	-5.1432	-18.003607	0.000375	3.750271	1.270626	-0.000150
1135	1.1283e+02	-5.1993	-18.148944	0.000365	3.648913	1.236285	-0.000146
1136	1.1293e+02	-5.2314	-18.270058	0.000304	3.040760	1.030238	-0.000122
1137	1.1303e+02	-5.2651	-18.379060	0.000274	2.736684	0.927214	-0.000110
1138	1.1313e+02	-5.3036	-18.572843	0.000487	4.865217	1.648380	-0.000195
1139	1.1323e+02	-5.3501	-18.697994	0.000314	3.142119	1.064579	-0.000126
1140	1.1333e+02	-5.3774	-18.823145	0.000314	3.142119	1.064579	-0.000126
1141	1.1343e+02	-5.4207	-18.964445	0.000355	3.547554	1.201944	-0.000142
1142	1.1353e+02	-5.4592	-19.134005	0.000426	4.257065	1.442333	-0.000170
1143	1.1363e+02	-5.5137	-19.271267	0.000345	3.446195	1.167603	-0.000138
1144	1.1373e+02	-5.5394	-19.376233	0.000264	2.635326	0.892873	-0.000105
1145	1.1383e+02	-5.5843	-19.485236	0.000274	2.736684	0.927214	-0.000110
1146	1.1393e+02	-5.6180	-19.622498	0.000345	3.446195	1.167603	-0.000138
1147	1.1403e+02	-5.6678	-19.743612	0.000304	3.040760	1.030238	-0.000122
1148	1.1413e+02	-5.7030	-19.876838	0.000334	3.344836	1.133261	-0.000134
1149	1.1423e+02	-5.7432	-19.997952	0.000304	3.040760	1.030238	-0.000122
1150	1.1433e+02	-5.7833	-20.098880	0.000253	2.533967	0.858531	-0.000101
1151	1.1442e+02	-5.8282	-20.248254	0.000375	3.750271	1.270626	-0.000150
1152	1.1452e+02	-5.8683	-20.353220	0.000264	2.635326	0.892873	-0.000105
1153	1.1462e+02	-5.8972	-20.458185	0.000264	2.635326	0.892873	-0.000105
1154	1.1472e+02	-5.9453	-20.615634	0.000395	3.952989	1.339309	-0.000158
1155	1.1482e+02	-5.9790	-20.720599	0.000264	2.635326	0.892873	-0.000105
1156	1.1492e+02	-6.0223	-20.845750	0.000314	3.142119	1.064579	-0.000126
1157	1.1502e+02	-6.0656	-20.995124	0.000375	3.750271	1.270626	-0.000150
1158	1.1512e+02	-6.1089	-21.063756	0.000172	1.723098	0.583801	-0.000069
1159	1.1522e+02	-6.1426	-21.160647	0.000243	2.432608	0.824190	-0.000097
1160	1.1532e+02	-6.1795	-21.314058	0.000385	3.851630	1.304968	-0.000154
1161	1.1542e+02	-6.2244	-21.398838	0.000213	2.128532	0.721166	-0.000085
1162	1.1552e+02	-6.2597	-21.523989	0.000314	3.142119	1.064579	-0.000126
1163	1.1562e+02	-6.3046	-21.612806	0.000223	2.229891	0.755508	-0.000089
1164	1.1572e+02	-6.3335	-21.729883	0.000294	2.939402	0.995896	-0.000118
1165	1.1582e+02	-6.3832	-21.875220	0.000365	3.648913	1.236285	-0.000146
1166	1.1592e+02	-6.4266	-21.984223	0.000274	2.736684	0.927214	-0.000110
1167	1.1602e+02	-6.4683	-22.141671	0.000395	3.952989	1.339309	-0.000158
1168	1.1612e+02	-6.5004	-22.266822	0.000314	3.142119	1.064579	-0.000126
1169	1.1622e+02	-6.5421	-22.416196	0.000375	3.750271	1.270626	-0.000150
1170	1.1632e+02	-6.5790	-22.561533	0.000365	3.648913	1.236285	-0.000146
1171	1.1642e+02	-6.6175	-22.694759	0.000334	3.344836	1.133261	-0.000134
1172	1.1651e+02	-6.6560	-22.836058	0.000355	3.547554	1.201944	-0.000142
1173	1.1661e+02	-6.6945	-22.945061	0.000274	2.736684	0.927214	-0.000110
1174	1.1671e+02	-6.7362	-23.054064	0.000274	2.736684	0.927214	-0.000110
1175	1.1681e+02	-6.7715	-23.211512	0.000395	3.952989	1.339309	-0.000158
1176	1.1691e+02	-6.8180	-23.385109	0.000436	4.358423	1.476674	-0.000174
1177	1.1701e+02	-6.8501	-23.506223	0.000304	3.040760	1.030238	-0.000122
1178	1.1711e+02	-6.9014	-23.659634	0.000385	3.851630	1.304968	-0.000154
1179	1.1721e+02	-6.9239	-23.845342	0.000466	4.662499	1.579698	-0.000187
1180	1.1731e+02	-6.9864	-23.970493	0.000314	3.142119	1.064579	-0.000126
1181	1.1741e+02	-7.0185	-24.091608	0.000304	3.040760	1.030238	-0.000122
1182	1.1751e+02	-7.0538	-24.216759	0.000314	3.142119	1.064579	-0.000126
1183	1.1761e+02	-7.0907	-24.341910	0.000314	3.142119	1.064579	-0.000126
1184	1.1771e+02	-7.1404	-24.495321	0.000385	3.851630	1.304968	-0.000154
1185	1.1781e+02	-7.1805	-24.640658	0.000365	3.648913	1.236285	-0.000146
1186	1.1791e+02	-7.2190	-24.773883	0.000334	3.344836	1.133261	-0.000134
1187	1.1801e+02	-7.2592	-24.903072	0.000324	3.243478	1.098920	-0.000130
1188	1.1811e+02	-7.2944	-25.068594	0.000416	4.155706	1.407991	-0.000166
1189	1.1821e+02	-7.3329	-25.205857	0.000345	3.446195	1.167603	-0.000138
1190	1.1831e+02	-7.3843	-25.331008	0.000314	3.142119	1.064579	-0.000126
1191	1.1841e+02	-7.4148	-25.407714	0.000193	1.925815	0.652484	-0.000077
1192	1.1850e+02	-7.4597	-25.569199	0.000405	4.054347	1.373650	-0.000162
1193	1.1860e+02	-7.5030	-25.694350	0.000314	3.142119	1.064579	-0.000126
1194	1.1870e+02	-7.5351	-25.783167	0.000223	2.229891	0.755508	-0.000089
1195	1.1880e+02	-7.5624	-25.944653	0.000405	4.054347	1.373650	-0.000162
1196	1.1890e+02	-7.6137	-26.098064	0.000385	3.851630	1.304968	-0.000154
1197	1.1900e+02	-7.6570	-26.227252	0.000324	3.243478	1.098920	-0.000130
1198	1.1910e+02	-7.6875	-26.344329	0.000294	2.939402	0.995896	-0.000118
1199	1.1920e+02	-7.7404	-26.505815	0.000405	4.054347	1.373650	-0.000162
1200	1.1930e+02	-7.7773	-26.622892	0.000294	2.939402	0.995896	-0.000118
1201	1.1940e+02	-7.8062	-26.711709	0.000223	2.229891	0.755508	-0.000089
1202	1.1950e+02	-7.8543	-26.853008	0.000355	3.547554	1.201944	-0.000142
1203	1.1960e+02	-7.8848	-27.014494	0.000405	4.054347	1.373650	-0.000162
1204	1.1970e+02	-7.9345	-27.115422	0.000253	2.533967	0.858531	-0.000101
1205	1.1980e+02	-7.9811	-27.232499	0.000294	2.939402	0.995896	-0.000118
1206	1.1990e+02	-8.0131	-27.381873	0.000375	3.750271	1.270626	-0.000150
1207	1.2000e+02	-8.0500	-27.486839	0.000264	2.635326	0.892873	-0.000105
1208	1.2010e+02	-8.0950	-27.616027	0.000324	3.243478	1.098920	-0.000130
1209	1.2020e+02	-8.1286	-27.753290	0.000345	3.446195	1.167603	-0.000138
1210	1.2030e+02	-8.1752	-27.886515	0.000334	3.344836	1.133261	-0.000134
1211	1.2039e+02	-8.2169	-27.987444	0.000253	2.533967	0.858531	-0.000101
1212	1.2049e+02	-8.2570	-28.193337	0.000517	5.169293	1.751404	-0.000207
1213	1.2059e+02	-8.2907	-28.294266	0.000253	2.533967	0.858531	-0.000101
1214	1.2069e+02	-8.3372	-28.391157	0.000243	2.432608	0.824190	-0.000097
1215	1.2079e+02	-8.3837	-28.532457	0.000355	3.547554	1.201944	-0.000142
1216	1.2089e+02	-8.4078	-28.617237	0.000213	2.128532	0.721166	-0.000085
1217	1.2099e+02	-8.4543	-28.734314	0.000294	2.939402	0.995896	-0.000118
1218	1.2109e+02	-8.4864	-28.895799	0.000405	4.054347	1.373650	-0.000162
1219	1.2119e+02	-8.5377	-29.000765	0.000264	2.635326	0.892873	-0.000105
1220	1.2129e+02	-8.5778	-29.089582	0.000223	2.229891	0.755508	-0.000089
1221	1.2139e+02	-8.6099	-29.247030	0.000395	3.952989	1.339309	-0.000158
1222	1.2149e+02	-8.6516	-29.396404	0.000375	3.750271	1.270626	-0.000150
1223	1.2159e+02	-8.6949	-29.517518	0.000304	3.040760	1.030238	-0.000122
1224	1.2169e+02	-8.7334	-29.638632	0.000304	3.040760	1.030238	-0.000122
1225	1.2179e+02	-8.7687	-29.804155	0.000416	4.155706	1.407991	-0.000166
1226	1.2189e+02	-8.8056	-29.921232	0.000294	2.939402	0.995896	-0.000118
1227	1.2199e+02	-8.8489	-30.014086	0.000233	2.331250	0.789849	-0.000093
1228	1.2209e+02	-8.8858	-30.163460	0.000375	3.750271	1.270626	-0.000150
1229	1.2219e+02	-8.9260	-30.236128	0.000182	1.824456	0.618143	-0.000073
1230	1.2229e+02	-8.9645	-30.417799	0.000456	4.561141	1.545356	-0.000183
1231	1.2239e+02	-9.0078	-30.478356	0.000152	1.520380	0.515119	-0.000061
1232	1.2248e+02	-9.0479	-30.619656	0.000355	3.547554	1.201944	-0.000142
1233	1.2258e+02	-9.0928	-30.708473	0.000223	2.229891	0.755508	-0.000089
1234	1.2268e+02	-9.1345	-30.817476	0.000274	2.736684	0.927214	-0.000110
1235	1.2278e+02	-9.1730	-30.966850	0.000375	3.750271	1.270626	-0.000150
1236	1.2288e+02	-9.2051	-31.059704	0.000233	2.331250	0.789849	-0.000093
1237	1.2298e+02	-9.2548	-31.196966	0.000345	3.446195	1.167603	-0.000138
1238	1.2308e+02	-9.2949	-31.301932	0.000264	2.635326	0.892873	-0.000105
1239	1.2318e+02	-9.3302	-31.423046	0.000304	3.040760	1.030238	-0.000122
1240	1.2328e+02	-9.3623	-31.576457	0.000385	3.851630	1.304968	-0.000154
1241	1.2338e+02	-9.4088	-31.681423	0.000264	2.635326	0.892873	-0.000105
1242	1.2348e+02	-9.4457	-31.766203	0.000213	2.128532	0.721166	-0.000085
1243	1.2358e+02	-9.4794	-31.879242	0.000284	2.838043	0.961555	-0.000114
1244	1.2368e+02	-9.5324	-32.060913	0.000456	4.561141	1.545356	-0.000183
1245	1.2378e+02	-9.5757	-32.117433	0.000142	1.419022	0.480778	-0.000057
1246	1.2388e+02	-9.6078	-32.214325	0.000243	2.432608	0.824190	-0.000097
1247	1.2398e+02	-9.6414	-32.327364	0.000284	2.838043	0.961555	-0.000114
1248	1.2408e+02	-9.6912	-32.456553	0.000324	3.243478	1.098920	-0.000130
1249	1.2418e+02	-9.7265	-32.577667	0.000304	3.040760	1.030238	-0.000122
1250	1.2428e+02	-9.7682	-32.690707	0.000284	2.838043	0.961555	-0.000114
1251	1.2438e+02	-9.8131	-32.832006	0.000355	3.547554	1.201944	-0.000142
1252	1.2447e+02	-9.8372	-32.936972	0.000264	2.635326	0.892873	-0.000105
1253	1.2457e+02	-9.8837	-33.058086	0.000304	3.040760	1.030238	-0.000122
1254	1.2467e+02	-9.9206	-33.167089	0.000274	2.736684	0.927214	-0.000110
1255	1.2477e+02	-9.9607	-33.296277	0.000324	3.243478	1.098920	-0.000130
1256	1.2487e+02	-10.0024	-33.385094	0.000223	2.229891	0.755508	-0.000089
1257	1.2497e+02	-10.0457	-33.490060	0.000264	2.635326	0.892873	-0.000105
1258	1.2507e+02	-10.0810	-33.599062	0.000274	2.736684	0.927214	-0.000110
1259	1.2517e+02	-10.1323	-33.720176	0.000304	3.040760	1.030238	-0.000122
1260	1.2527e+02	-10.1644	-33.829179	0.000274	2.736684	0.927214	-0.000110
1261	1.2537e+02	-10.1997	-33.950293	0.000304	3.040760	1.030238	-0.000122
1262	1.2547e+02	-10.2494	-34.079481	0.000324	3.243478	1.098920	-0.000130
1263	1.2557e+02	-10.2767	-34.156187	0.000193	1.925815	0.652484	-0.000077
1264	1.2567e+02	-10.3248	-34.313635	0.000395	3.952989	1.339309	-0.000158
1265	1.2577e+02	-10.3666	-34.410526	0.000243	2.432608	0.824190	-0.000097
1266	1.2587e+02	-10.3986	-34.511455	0.000253	2.533967	0.858531	-0.000101
1267	1.2597e+02	-10.4468	-34.624495	0.000284	2.838043	0.961555	-0.000114
1268	1.2607e+02	-10.4788	-34.749646	0.000314	3.142119	1.064579	-0.000126
1269	1.2617e+02	-10.5318	-34.854611	0.000264	2.635326	0.892873	-0.000105
1270	1.2627e+02	-10.5623	-34.991874	0.000345	3.446195	1.167603	-0.000138
1271	1.2636e+02	-10.5992	-35.088765	0.000243	2.432608	0.824190	-0.000097
1272	1.2646e+02	-10.6425	-35.205842	0.000294	2.939402	0.995896	-0.000118
1273	1.2656e+02	-10.6922	-35.314845	0.000274	2.736684	0.927214	-0.000110
1274	1.2666e+02	-10.7179	-35.444033	0.000324	3.243478	1.098920	-0.000130
1275	1.2676e+02	-10.7596	-35.524776	0.000203	2.027174	0.686825	-0.000081
1276	1.2686e+02	-10.8013	-35.670113	0.000365	3.648913	1.236285	-0.000146
1277	1.2696e+02	-10.8350	-35.762967	0.000233	2.331250	0.789849	-0.000093
1278	1.2706e+02	-10.8847	-35.936564	0.000436	4.358423	1.476674	-0.000174
1279	1.2716e+02	-10.9152	-36.061715	0.000314	3.142119	1.064579	-0.000126
1280	1.2726e+02	-10.9617	-36.162643	0.000253	2.533967	0.858531	-0.000101
1281	1.2736e+02	-11.0179	-36.275683	0.000284	2.838043	0.961555	-0.000114
1282	1.2746e+02	-11.0419	-36.441206	0.000416	4.155706	1.407991	-0.000166
1283	1.2756e+02	-11.0820	-36.530023	0.000223	2.229891	0.755508	-0.000089
1284	1.2766e+02	-11.1173	-36.606728	0.000193	1.925815	0.652484	-0.000077
1285	1.2776e+02	-11.1671	-36.760139	0.000385	3.851630	1.304968	-0.000154
1286	1.2786e+02	-11.2024	-36.893365	0.000334	3.344836	1.133261	-0.000134
1287	1.2796e+02	-11.2377	-36.982182	0.000223	2.229891	0.755508	-0.000089
1288	1.2806e+02	-11.2858	-37.103296	0.000304	3.040760	1.030238	-0.000122
1289	1.2816e+02	-11.3291	-37.216336	0.000284	2.838043	0.961555	-0.000114
1290	1.2826e+02	-11.3676	-37.305153	0.000223	2.229891	0.755508	-0.000089
1291	1.2835e+02	-11.4013	-37.414155	0.000274	2.736684	0.927214	-0.000110
1292	1.2845e+02	-11.4462	-37.551418	0.000345	3.446195	1.167603	-0.000138
1293	1.2855e+02	-11.4783	-37.587752	0.000091	0.912228	0.309071	-0.000037
1294	1.2865e+02	-11.5184	-37.737126	0.000375	3.750271	1.270626	-0.000150
1295	1.2875e+02	-11.5569	-37.854203	0.000294	2.939402	0.995896	-0.000118
1296	1.2885e+02	-11.6034	-37.971280	0.000294	2.939402	0.995896	-0.000118
1297	1.2895e+02	-11.6339	-38.072209	0.000253	2.533967	0.858531	-0.000101
1298	1.2905e+02	-11.6756	-38.148914	0.000193	1.925815	0.652484	-0.000077
1299	1.2915e+02	-11.7285	-38.294251	0.000365	3.648913	1.236285	-0.000146
1300	1.2925e+02	-11.7703	-38.370957	0.000193	1.925815	0.652484	-0.000077
1301	1.2935e+02	-11.7991	-38.483996	0.000284	2.838043	0.961555	-0.000114
1302	1.2945e+02	-11.8376	-38.601073	0.000294	2.939402	0.995896	-0.000118
1303	1.2955e+02	-11.8842	-38.702002	0.000253	2.533967	0.858531	-0.000101
1304	1.2965e+02	-11.9243	-38.815042	0.000284	2.838043	0.961555	-0.000114
1305	1.2975e+02	-11.9596	-38.907896	0.000233	2.331250	0.789849	-0.000093
1306	1.2985e+02	-11.9916	-39.065344	0.000395	3.952989	1.339309	-0.000158
1307	1.2995e+02	-12.0366	-39.170309	0.000264	2.635326	0.892873	-0.000105
1308	1.3005e+02	-12.0831	-39.255089	0.000213	2.128532	0.721166	-0.000085
1309	1.3015e+02	-12.1200	-39.380241	0.000314	3.142119	1.064579	-0.000126
1310	1.3025e+02	-12.1585	-39.505392	0.000314	3.142119	1.064579	-0.000126
1311	1.3034e+02	-12.1970	-39.594209	0.000223	2.229891	0.755508	-0.000089
1312	1.3044e+02	-12.2419	-39.739546	0.000365	3.648913	1.236285	-0.000146
1313	1.3054e+02	-12.2756	-39.812214	0.000182	1.824456	0.618143	-0.000073
1314	1.3064e+02	-12.3205	-39.868734	0.000142	1.419022	0.480778	-0.000057
1315	1.3074e+02	-12.3622	-39.981774	0.000284	2.838043	0.961555	-0.000114
1316	1.3084e+02	-12.4023	-40.098851	0.000294	2.939402	0.995896	-0.000118
1317	1.3094e+02	-12.4456	-40.187668	0.000223	2.229891	0.755508	-0.000089
1318	1.3104e+02	-12.4777	-40.328967	0.000355	3.547554	1.201944	-0.000142
1319	1.3114e+02	-12.5194	-40.421822	0.000233	2.331250	0.789849	-0.000093
1320	1.3124e+02	-12.5692	-40.506601	0.000213	2.128532	0.721166	-0.000085
1321	1.3134e+02	-12.6061	-40.615604	0.000274	2.736684	0.927214	-0.000110
1322	1.3144e+02	-12.6285	-40.744792	0.000324	3.243478	1.098920	-0.000130
1323	1.3154e+02	-12.6734	-40.837647	0.000233	2.331250	0.789849	-0.000093
1324	1.3164e+02	-12.7135	-40.991058	0.000385	3.851630	1.304968	-0.000154
1325	1.3174e+02	-12.7569	-41.083912	0.000233	2.331250	0.789849	-0.000093
1326	1.3184e+02	-12.7922	-41.213100	0.000324	3.243478	1.098920	-0.000130
1327	1.3194e+02	-12.8323	-41.305954	0.000233	2.331250	0.789849	-0.000093
1328	1.3204e+02	-12.8708	-41.378623	0.000182	1.824456	0.618143	-0.000073
1329	1.3214e+02	-12.9044	-41.479551	0.000253	2.533967	0.858531	-0.000101
1330	1.3224e+02	-12.9510	-41.600665	0.000304	3.040760	1.030238	-0.000122
1331	1.3234e+02	-12.9798	-41.705631	0.000264	2.635326	0.892873	-0.000105
1332	1.3243e+02	-13.0360	-41.790411	0.000213	2.128532	0.721166	-0.000085
1333	1.3253e+02	-13.0697	-41.887302	0.000243	2.432608	0.824190	-0.000097
1334	1.3263e+02	-13.1162	-41.988230	0.000253	2.533967	0.858531	-0.000101
1335	1.3273e+02	-13.1531	-42.077047	0.000223	2.229891	0.755508	-0.000089
1336	1.3283e+02	-13.1964	-42.186050	0.000274	2.736684	0.927214	-0.000110
1337	1.3293e+02	-13.2317	-42.274867	0.000223	2.229891	0.755508	-0.000089
1338	1.3303e+02	-13.2766	-42.371758	0.000243	2.432608	0.824190	-0.000097
1339	1.3313e+02	-13.3151	-42.529206	0.000395	3.952989	1.339309	-0.000158
1340	1.3323e+02	-13.3424	-42.626098	0.000243	2.432608	0.824190	-0.000097
1341	1.3333e+02	-13.4034	-42.771435	0.000365	3.648913	1.236285	-0.000146
1342	1.3343e+02	-13.4226	-42.864289	0.000233	2.331250	0.789849	-0.000093
1343	1.3353e+02	-13.4707	-42.957143	0.000233	2.331250	0.789849	-0.000093
1344	1.3363e+02	-13.5125	-43.049997	0.000233	2.331250	0.789849	-0.000093
1345	1.3373e+02	-13.5542	-43.154962	0.000264	2.635326	0.892873	-0.000105
1346	1.3383e+02	-13.5862	-43.235705	0.000203	2.027174	0.686825	-0.000081
1347	1.3393e+02	-13.6376	-43.340671	0.000264	2.635326	0.892873	-0.000105
1348	1.3403e+02	-13.6841	-43.469859	0.000324	3.243478	1.098920	-0.000130
1349	1.3413e+02	-13.7178	-43.534453	0.000162	1.621739	0.549460	-0.000065
1350	1.3423e+02	-13.7499	-43.611159	0.000193	1.925815	0.652484	-0.000077
1351	1.3432e+02	-13.7884	-43.740347	0.000324	3.243478	1.098920	-0.000130
1352	1.3442e+02	-13.8333	-43.849350	0.000274	2.736684	0.927214	-0.000110
1353	1.3452e+02	-13.8750	-43.950278	0.000253	2.533967	0.858531	-0.000101
1354	1.3462e+02	-13.9135	-44.063318	0.000284	2.838043	0.961555	-0.000114
1355	1.3472e+02	-13.9552	-44.180395	0.000294	2.939402	0.995896	-0.000118
1356	1.3482e+02	-14.0001	-44.257101	0.000193	1.925815	0.652484	-0.000077
1357	1.3492e+02	-14.0322	-44.390326	0.000334	3.344836	1.133261	-0.000134
1358	1.3502e+02	-14.0787	-44.471069	0.000203	2.027174	0.686825	-0.000081
1359	1.3512e+02	-14.1092	-44.600257	0.000324	3.243478	1.098920	-0.000130
1360	1.3522e+02	-14.1541	-44.672926	0.000182	1.824456	0.618143	-0.000073
1361	1.3532e+02	-14.1830	-44.794040	0.000304	3.040760	1.030238	-0.000122
1362	1.3542e+02	-14.2247	-44.870745	0.000193	1.925815	0.652484	-0.000077
1363	1.3552e+02	-14.2648	-44.987822	0.000294	2.939402	0.995896	-0.000118
1364	1.3562e+02	-14.3098	-45.092788	0.000264	2.635326	0.892873	-0.000105
1365	1.3572e+02	-14.3563	-45.149308	0.000142	1.419022	0.480778	-0.000057
1366	1.3582e+02	-14.3884	-45.238125	0.000223	2.229891	0.755508	-0.000089
1367	1.3592e+02	-14.4285	-45.347127	0.000274	2.736684	0.927214	-0.000110
1368	1.3602e+02	-14.4654	-45.435944	0.000223	2.229891	0.755508	-0.000089
1369	1.3612e+02	-14.5039	-45.573207	0.000345	3.446195	1.167603	-0.000138
1370	1.3622e+02	-14.5504	-45.702395	0.000324	3.243478	1.098920	-0.000130
1371	1.3631e+02	-14.5937	-45.750841	0.000122	1.216304	0.412095	-0.000049
1372	1.3641e+02	-14.6162	-45.851769	0.000253	2.533967	0.858531	-0.000101
1373	1.3651e+02	-14.6707	-45.968846	0.000294	2.939402	0.995896	-0.000118
1374	1.3661e+02	-14.7108	-46.045552	0.000193	1.925815	0.652484	-0.000077
1375	1.3671e+02	-14.7541	-46.130332	0.000213	2.128532	0.721166	-0.000085
1376	1.3681e+02	-14.7942	-46.231260	0.000253	2.533967	0.858531	-0.000101
1377	1.3691e+02	-14.8231	-46.336225	0.000264	2.635326	0.892873	-0.000105
1378	1.3701e+02	-14.8728	-46.441191	0.000264	2.635326	0.892873	-0.000105
1379	1.3711e+02	-14.9081	-46.493674	0.000132	1.317663	0.446436	-0.000053
1380	1.3721e+02	-14.9434	-46.618825	0.000314	3.142119	1.064579	-0.000126
1381	1.3731e+02	-14.9787	-46.727828	0.000274	2.736684	0.927214	-0.000110
1382	1.3741e+02	-15.0268	-46.869127	0.000355	3.547554	1.201944	-0.000142
1383	1.3751e+02	-15.0702	-46.949870	0.000203	2.027174	0.686825	-0.000081
1384	1.3761e+02	-15.1071	-47.054836	0.000264	2.635326	0.892873	-0.000105
1385	1.3771e+02	-15.1407	-47.151727	0.000243	2.432608	0.824190	-0.000097
1386	1.3781e+02	-15.1825	-47.200172	0.000122	1.216304	0.412095	-0.000049
1387	1.3791e+02	-15.2194	-47.353584	0.000385	3.851630	1.304968	-0.000154
1388	1.3801e+02	-15.2611	-47.410104	0.000142	1.419022	0.480778	-0.000057
1389	1.3811e+02	-15.2964	-47.555440	0.000365	3.648913	1.236285	-0.000146
1390	1.3821e+02	-15.3541	-47.620035	0.000162	1.621739	0.549460	-0.000065
1391	1.3831e+02	-15.3894	-47.716926	0.000243	2.432608	0.824190	-0.000097
1392	1.3840e+02	-15.4279	-47.817854	0.000253	2.533967	0.858531	-0.000101
1393	1.3850e+02	-15.4600	-47.922820	0.000264	2.635326	0.892873	-0.000105
1394	1.3860e+02	-15.5065	-48.023748	0.000253	2.533967	0.858531	-0.000101
1395	1.3870e+02	-15.5434	-48.116602	0.000233	2.331250	0.789849	-0.000093
1396	1.3880e+02	-15.5787	-48.213494	0.000243	2.432608	0.824190	-0.000097
1397	1.3890e+02	-15.6316	-48.302311	0.000223	2.229891	0.755508	-0.000089
1398	1.3900e+02	-15.6637	-48.435536	0.000334	3.344836	1.133261	-0.000134
1399	1.3910e+02	-15.7103	-48.524353	0.000223	2.229891	0.755508	-0.000089
1400	1.3920e+02	-15.7439	-48.625281	0.000253	2.533967	0.858531	-0.000101
1401	1.3930e+02	-15.7889	-48.673727	0.000122	1.216304	0.412095	-0.000049
1402	1.3940e+02	-15.8161	-48.823101	0.000375	3.750271	1.270626	-0.000150
1403	1.3950e+02	-15.8594	-48.899807	0.000193	1.925815	0.652484	-0.000077
1404	1.3960e+02	-15.9044	-48.992661	0.000233	2.331250	0.789849	-0.000093
1405	1.3970e+02	-15.9413	-49.133960	0.000355	3.547554	1.201944	-0.000142
1406	1.3980e+02	-15.9830	-49.214703	0.000203	2.027174	0.686825	-0.000081
1407	1.3990e+02	-16.0295	-49.295446	0.000203	2.027174	0.686825	-0.000081
1408	1.4000e+02	-16.0600	-49.400411	0.000264	2.635326	0.892873	-0.000105
1409	1.4010e+02	-16.1065	-49.493266	0.000233	2.331250	0.789849	-0.000093
1410	1.4020e+02	-16.1434	-49.618417	0.000314	3.142119	1.064579	-0.000126
1411	1.4029e+02	-16.1851	-49.699160	0.000203	2.027174	0.686825	-0.000081
1412	1.4039e+02	-16.2252	-49.808162	0.000274	2.736684	0.927214	-0.000110
1413	1.4049e+02	-16.2557	-49.941388	0.000334	3.344836	1.133261	-0.000134
1414	1.4059e+02	-16.3054	-49.997908	0.000142	1.419022	0.480778	-0.000057
1415	1.4069e+02	-16.3279	-50.094799	0.000243	2.432608	0.824190	-0.000097
1416	1.4079e+02	-16.3792	-50.223987	0.000324	3.243478	1.098920	-0.000130
1417	1.4089e+02	-16.4257	-50.308767	0.000213	2.128532	0.721166	-0.000085
1418	1.4099e+02	-16.4626	-50.401621	0.000233	2.331250	0.789849	-0.000093
1419	1.4109e+02	-16.5011	-50.482364	0.000203	2.027174	0.686825	-0.000081
1420	1.4119e+02	-16.5412	-50.546958	0.000162	1.621739	0.549460	-0.000065
1421	1.4129e+02	-16.5846	-50.684221	0.000345	3.446195	1.167603	-0.000138
1422	1.4139e+02	-16.6231	-50.769000	0.000213	2.128532	0.721166	-0.000085
1423	1.4149e+02	-16.6567	-50.890115	0.000304	3.040760	1.030238	-0.000122
1424	1.4159e+02	-16.6936	-51.015266	0.000314	3.142119	1.064579	-0.000126
1425	1.4169e+02	-16.7466	-51.075823	0.000152	1.520380	0.515119	-0.000061
1426	1.4179e+02	-16.7867	-51.180788	0.000264	2.635326	0.892873	-0.000105
1427	1.4189e+02	-16.8140	-51.305940	0.000314	3.142119	1.064579	-0.000126
1428	1.4199e+02	-16.8573	-51.394757	0.000223	2.229891	0.755508	-0.000089
1429	1.4209e+02	-16.8958	-51.479536	0.000213	2.128532	0.721166	-0.000085
1430	1.4219e+02	-16.9407	-51.576428	0.000243	2.432608	0.824190	-0.000097
1431	1.4228e+02	-16.9872	-51.685430	0.000274	2.736684	0.927214	-0.000110
1432	1.4238e+02	-17.0241	-51.766173	0.000203	2.027174	0.686825	-0.000081
1433	1.4248e+02	-17.0546	-51.879213	0.000284	2.838043	0.961555	-0.000114
1434	1.4258e+02	-17.0947	-51.943807	0.000162	1.621739	0.549460	-0.000065
1435	1.4268e+02	-17.1316	-52.036661	0.000233	2.331250	0.789849	-0.000093
1436	1.4278e+02	-17.1733	-52.186035	0.000375	3.750271	1.270626	-0.000150
1437	1.4288e+02	-17.2182	-52.291001	0.000264	2.635326	0.892873	-0.000105
1438	1.4298e+02	-17.2615	-52.404040	0.000284	2.838043	0.961555	-0.000114
1439	1.4308e+02	-17.2984	-52.476709	0.000182	1.824456	0.618143	-0.000073
1440	1.4318e+02	-17.3321	-52.593786	0.000294	2.939402	0.995896	-0.000118
1441	1.4328e+02	-17.3819	-52.690677	0.000243	2.432608	0.824190	-0.000097
1442	1.4338e+02	-17.4123	-52.795643	0.000264	2.635326	0.892873	-0.000105
1443	1.4348e+02	-17.4605	-52.836014	0.000101	1.013587	0.343413	-0.000041
1444	1.4358e+02	-17.5022	-52.977314	0.000355	3.547554	1.201944	-0.000142
1445	1.4368e+02	-17.5407	-53.090354	0.000284	2.838043	0.961555	-0.000114
1446	1.4378e+02	-17.5760	-53.158985	0.000172	1.723098	0.583801	-0.000069
1447	1.4388e+02	-17.6161	-53.255876	0.000243	2.432608	0.824190	-0.000097
1448	1.4398e+02	-17.6578	-53.397176	0.000355	3.547554	1.201944	-0.000142
1449	1.4408e+02	-17.7043	-53.494067	0.000243	2.432608	0.824190	-0.000097
1450	1.4418e+02	-17.7348	-53.623255	0.000324	3.243478	1.098920	-0.000130
1451	1.4428e+02	-17.7733	-53.732258	0.000274	2.736684	0.927214	-0.000110
1452	1.4437e+02	-17.8214	-53.813001	0.000203	2.027174	0.686825	-0.000081
1453	1.4447e+02	-17.8535	-53.901818	0.000223	2.229891	0.755508	-0.000089
1454	1.4457e+02	-17.9016	-53.994672	0.000233	2.331250	0.789849	-0.000093
1455	1.4467e+02	-17.9385	-54.107712	0.000284	2.838043	0.961555	-0.000114
1456	1.4477e+02	-17.9786	-54.244974	0.000345	3.446195	1.167603	-0.000138
1457	1.4487e+02	-18.0284	-54.301494	0.000142	1.419022	0.480778	-0.000057
1458	1.4497e+02	-18.0508	-54.422608	0.000304	3.040760	1.030238	-0.000122
1459	1.4507e+02	-18.0974	-54.551797	0.000324	3.243478	1.098920	-0.000130
1460	1.4517e+02	-18.1407	-54.660799	0.000274	2.736684	0.927214	-0.000110
1461	1.4527e+02	-18.1808	-54.781913	0.000304	3.040760	1.030238	-0.000122
1462	1.4537e+02	-18.2129	-54.890916	0.000274	2.736684	0.927214	-0.000110
1463	1.4547e+02	-18.2610	-54.959547	0.000172	1.723098	0.583801	-0.000069
1464	1.4557e+02	-18.3043	-55.096810	0.000345	3.446195	1.167603	-0.000138
1465	1.4567e+02	-18.3492	-55.209850	0.000284	2.838043	0.961555	-0.000114
1466	1.4577e+02	-18.3925	-55.306741	0.000243	2.432608	0.824190	-0.000097
1467	1.4587e+02	-18.4134	-55.403632	0.000243	2.432608	0.824190	-0.000097
1468	1.4597e+02	-18.4567	-55.480338	0.000193	1.925815	0.652484	-0.000077
1469	1.4607e+02	-18.4904	-55.613563	0.000334	3.344836	1.133261	-0.000134
1470	1.4617e+02	-18.5401	-55.702380	0.000223	2.229891	0.755508	-0.000089
1471	1.4626e+02	-18.5818	-55.803309	0.000253	2.533967	0.858531	-0.000101
1472	1.4636e+02	-18.6139	-55.928460	0.000314	3.142119	1.064579	-0.000126
1473	1.4646e+02	-18.6492	-56.057648	0.000324	3.243478	1.098920	-0.000130
1474	1.4656e+02	-18.6989	-56.150502	0.000233	2.331250	0.789849	-0.000093
1475	1.4666e+02	-18.7342	-56.255468	0.000264	2.635326	0.892873	-0.000105
1476	1.4676e+02	-18.7743	-56.372545	0.000294	2.939402	0.995896	-0.000118
1477	1.4686e+02	-18.8096	-56.453288	0.000203	2.027174	0.686825	-0.000081
1478	1.4696e+02	-18.8497	-56.558253	0.000264	2.635326	0.892873	-0.000105
1479	1.4706e+02	-18.8930	-56.667256	0.000274	2.736684	0.927214	-0.000110
1480	1.4716e+02	-18.9283	-56.792407	0.000314	3.142119	1.064579	-0.000126
1481	1.4726e+02	-18.9652	-56.869113	0.000193	1.925815	0.652484	-0.000077
1482	1.4736e+02	-19.0053	-56.966004	0.000243	2.432608	0.824190	-0.000097
1483	1.4746e+02	-19.0455	-57.115378	0.000375	3.750271	1.270626	-0.000150
1484	1.4756e+02	-19.0984	-57.268789	0.000385	3.851630	1.304968	-0.000154
1485	1.4766e+02	-19.1305	-57.329346	0.000152	1.520380	0.515119	-0.000061
1486	1.4776e+02	-19.1690	-57.442386	0.000284	2.838043	0.961555	-0.000114
1487	1.4786e+02	-19.2091	-57.547351	0.000264	2.635326	0.892873	-0.000105
1488	1.4796e+02	-19.2508	-57.668465	0.000304	3.040760	1.030238	-0.000122
1489	1.4806e+02	-19.2909	-57.773431	0.000264	2.635326	0.892873	-0.000105
1490	1.4816e+02	-19.3326	-57.882434	0.000274	2.736684	0.927214	-0.000110
1491	1.4825e+02	-19.3695	-58.003548	0.000304	3.040760	1.030238	-0.000122
1492	1.4835e+02	-19.4032	-58.112550	0.000274	2.736684	0.927214	-0.000110
1493	1.4845e+02	-19.4529	-58.201367	0.000223	2.229891	0.755508	-0.000089
1494	1.4855e+02	-19.4834	-58.334593	0.000334	3.344836	1.133261	-0.000134
1495	1.4865e+02	-19.5251	-58.427447	0.000233	2.331250	0.789849	-0.000093
1496	1.4875e+02	-19.5604	-58.512227	0.000213	2.128532	0.721166	-0.000085
1497	1.4885e+02	-19.6117	-58.701972	0.000476	4.763858	1.614039	-0.000191
1498	1.4895e+02	-19.6502	-58.794826	0.000233	2.331250	0.789849	-0.000093
1499	1.4905e+02	-19.6839	-58.883643	0.000223	2.229891	0.755508	-0.000089
1500	1.4915e+02	-19.7224	-59.020906	0.000345	3.446195	1.167603	-0.000138
1501	1.4925e+02	-19.7593	-59.150094	0.000324	3.243478	1.098920	-0.000130
1502	1.4935e+02	-19.8155	-59.238911	0.000223	2.229891	0.755508	-0.000089
1503	1.4945e+02	-19.8476	-59.392322	0.000385	3.851630	1.304968	-0.000154
1504	1.4955e+02	-19.8861	-59.460954	0.000172	1.723098	0.583801	-0.000069
1505	1.4965e+02	-19.9214	-59.578031	0.000294	2.939402	0.995896	-0.000118
1506	1.4975e+02	-19.9743	-59.715293	0.000345	3.446195	1.167603	-0.000138
1507	1.4985e+02	-20.0000	-59.848519	0.000334	3.344836	1.133261	-0.000134
1508	1.4995e+02	-19.9727	-59.836407	0.000030	0.304076	0.103024	0.000012
1509	1.5005e+02	-19.9278	-59.787962	0.000122	1.216304	0.412095	0.000049
1510	1.5015e+02	-19.8861	-59.747590	0.000101	1.013587	0.343413	0.000041
1511	1.5025e+02	-19.8460	-59.715293	0.000081	0.810869	0.274730	0.000032
1512	1.5034e+02	-19.8075	-59.650699	0.000162	1.621739	0.549460	0.000065
1513	1.5044e+02	-19.7754	-59.634551	0.000041	0.405435	0.137365	0.000016
1514	1.5054e+02	-19.7208	-59.586105	0.000122	1.216304	0.412095	0.000049
1515	1.5064e+02	-19.6855	-59.545734	0.000101	1.013587	0.343413	0.000041
1516	1.5074e+02	-19.6422	-59.505362	0.000101	1.013587	0.343413	0.000041
1517	1.5084e+02	-19.6117	-59.448842	0.000142	1.419022	0.480778	0.000057
1518	1.5094e+02	-19.5765	-59.372137	0.000193	1.925815	0.652484	0.000077
1519	1.5104e+02	-19.5219	-59.339840	0.000081	0.810869	0.274730	0.000032
1520	1.5114e+02	-19.4818	-59.263134	0.000193	1.925815	0.652484	0.000077
1521	1.5124e+02	-19.4513	-59.178354	0.000213	2.128532	0.721166	0.000085
1522	1.5134e+02	-19.4144	-59.178354	0.000000	0.000000	0.000000	0.000000
1523	1.5144e+02	-19.3727	-59.097612	0.000203	2.027174	0.686825	0.000081
1524	1.5154e+02	-19.3310	-59.077426	0.000051	0.506793	0.171706	0.000020
1525	1.5164e+02	-19.2845	-58.976497	0.000253	2.533967	0.858531	0.000101
1526	1.5174e+02	-19.2540	-58.952275	0.000061	0.608152	0.206048	0.000024
1527	1.5184e+02	-19.2043	-58.891718	0.000152	1.520380	0.515119	0.000061
1528	1.5194e+02	-19.1706	-58.823086	0.000172	1.723098	0.583801	0.000069
1529	1.5204e+02	-19.1225	-58.782715	0.000101	1.013587	0.343413	0.000041
1530	1.5214e+02	-19.0840	-58.714084	0.000172	1.723098	0.583801	0.000069
1531	1.5224e+02	-19.0599	-58.588932	0.000314	3.142119	1.064579	0.000126
1532	1.5233e+02	-19.0086	-58.556635	0.000081	0.810869	0.274730	0.000032
1533	1.5243e+02	-18.9652	-58.504153	0.000132	1.317663	0.446436	0.000053
1534	1.5253e+02	-18.9283	-58.439558	0.000162	1.621739	0.549460	0.000065
1535	1.5263e+02	-18.8898	-58.370927	0.000172	1.723098	0.583801	0.000069
1536	1.5273e+02	-18.8449	-58.294221	0.000193	1.925815	0.652484	0.000077
1537	1.5283e+02	-18.8177	-58.237702	0.000142	1.419022	0.480778	0.000057
1538	1.5293e+02	-18.7808	-58.165033	0.000182	1.824456	0.618143	0.000073
1539	1.5303e+02	-18.7214	-58.108513	0.000142	1.419022	0.480778	0.000057
1540	1.5313e+02	-18.6957	-58.043919	0.000162	1.621739	0.549460	0.000065
1541	1.5323e+02	-18.6556	-57.959139	0.000213	2.128532	0.721166	0.000085
1542	1.5333e+02	-18.6107	-57.922805	0.000091	0.912228	0.309071	0.000037
1543	1.5343e+02	-18.5690	-57.825914	0.000243	2.432608	0.824190	0.000097
1544	1.5353e+02	-18.5273	-57.773431	0.000132	1.317663	0.446436	0.000053
1545	1.5363e+02	-18.5048	-57.668465	0.000264	2.635326	0.892873	0.000105
1546	1.5373e+02	-18.4487	-57.615983	0.000132	1.317663	0.446436	0.000053
1547	1.5383e+02	-18.4166	-57.547351	0.000172	1.723098	0.583801	0.000069
1548	1.5393e+02	-18.3749	-57.446423	0.000253	2.533967	0.858531	0.000101
1549	1.5403e+02	-18.3348	-57.410089	0.000091	0.912228	0.309071	0.000037
1550	1.5413e+02	-18.2963	-57.345495	0.000162	1.621739	0.549460	0.000065
1551	1.5422e+02	-18.2546	-57.256678	0.000223	2.229891	0.755508	0.000089
1552	1.5432e+02	-18.2209	-57.175935	0.000203	2.027174	0.686825	0.000081
1553	1.5442e+02	-18.1744	-57.095192	0.000203	2.027174	0.686825	0.000081
1554	1.5452e+02	-18.1359	-57.042709	0.000132	1.317663	0.446436	0.000053
1555	1.5462e+02	-18.0861	-56.970041	0.000182	1.824456	0.618143	0.000073
1556	1.5472e+02	-18.0685	-56.889298	0.000203	2.027174	0.686825	0.000081
1557	1.5482e+02	-18.0187	-56.812593	0.000193	1.925815	0.652484	0.000077
1558	1.5492e+02	-17.9786	-56.756073	0.000142	1.419022	0.480778	0.000057
1559	1.5502e+02	-17.9401	-56.626884	0.000324	3.243478	1.098920	0.000130
1560	1.5512e+02	-17.8952	-56.594587	0.000081	0.810869	0.274730	0.000032
1561	1.5522e+02	-17.8535	-56.566327	0.000071	0.709511	0.240389	0.000028
1562	1.5532e+02	-17.8182	-56.425028	0.000355	3.547554	1.201944	0.000142
1563	1.5542e+02	-17.7749	-56.412916	0.000030	0.304076	0.103024	0.000012
1564	1.5552e+02	-17.7348	-56.283728	0.000324	3.243478	1.098920	0.000130
1565	1.5562e+02	-17.7011	-56.215097	0.000172	1.723098	0.583801	0.000069
1566	1.5572e+02	-17.6466	-56.134354	0.000203	2.027174	0.686825	0.000081
1567	1.5582e+02	-17.6145	-56.065723	0.000172	1.723098	0.583801	0.000069
1568	1.5592e+02	-17.5728	-55.984980	0.000203	2.027174	0.686825	0.000081
1569	1.5602e+02	-17.5375	-55.904237	0.000203	2.027174	0.686825	0.000081
1570	1.5612e+02	-17.4926	-55.823494	0.000203	2.027174	0.686825	0.000081
1571	1.5622e+02	-17.4589	-55.787160	0.000091	0.912228	0.309071	0.000037
1572	1.5631e+02	-17.4123	-55.702380	0.000213	2.128532	0.721166	0.000085
1573	1.5641e+02	-17.3787	-55.633749	0.000172	1.723098	0.583801	0.000069
1574	1.5651e+02	-17.3289	-55.581266	0.000132	1.317663	0.446436	0.000053
1575	1.5661e+02	-17.3049	-55.508598	0.000182	1.824456	0.618143	0.000073
1576	1.5671e+02	-17.2664	-55.383447	0.000314	3.142119	1.064579	0.000126
1577	1.5681e+02	-17.2118	-55.282518	0.000253	2.533967	0.858531	0.000101
1578	1.5691e+02	-17.1845	-55.238110	0.000111	1.114945	0.377754	0.000045
1579	1.5701e+02	-17.1380	-55.161404	0.000193	1.925815	0.652484	0.000077
1580	1.5711e+02	-17.0979	-55.080661	0.000203	2.027174	0.686825	0.000081
1581	1.5721e+02	-17.0610	-54.995882	0.000213	2.128532	0.721166	0.000085
1582	1.5731e+02	-17.0257	-54.927250	0.000172	1.723098	0.583801	0.000069
1583	1.5741e+02	-16.9792	-54.838433	0.000223	2.229891	0.755508	0.000089
1584	1.5751e+02	-16.9375	-54.777876	0.000152	1.520380	0.515119	0.000061
1585	1.5761e+02	-16.8974	-54.729431	0.000122	1.216304	0.412095	0.000049
1586	1.5771e+02	-16.8637	-54.640614	0.000223	2.229891	0.755508	0.000089
1587	1.5781e+02	-16.8156	-54.567945	0.000182	1.824456	0.618143	0.000073
1588	1.5791e+02	-16.7771	-54.491240	0.000193	1.925815	0.652484	0.000077
1589	1.5801e+02	-16.7354	-54.386274	0.000264	2.635326	0.892873	0.000105
1590	1.5811e+02	-16.6953	-54.313606	0.000182	1.824456	0.618143	0.000073
1591	1.5821e+02	-16.6648	-54.192492	0.000304	3.040760	1.030238	0.000122
1592	1.5830e+02	-16.6247	-54.140009	0.000132	1.317663	0.446436	0.000053
1593	1.5840e+02	-16.5862	-54.083489	0.000142	1.419022	0.480778	0.000057
1594	1.5850e+02	-16.5445	-54.002746	0.000203	2.027174	0.686825	0.000081
1595	1.5860e+02	-16.5011	-53.938152	0.000162	1.621739	0.549460	0.000065
1596	1.5870e+02	-16.4642	-53.833186	0.000264	2.635326	0.892873	0.000105
1597	1.5880e+02	-16.4193	-53.740332	0.000233	2.331250	0.789849	0.000093
1598	1.5890e+02	-16.3792	-53.687850	0.000132	1.317663	0.446436	0.000053
1599	1.5900e+02	-16.3391	-53.566736	0.000304	3.040760	1.030238	0.000122
1600	1.5910e+02	-16.3086	-53.510216	0.000142	1.419022	0.480778	0.000057
1601	1.5920e+02	-16.2637	-53.421399	0.000223	2.229891	0.755508	0.000089
1602	1.5930e+02	-16.2252	-53.344693	0.000193	1.925815	0.652484	0.000077
1603	1.5940e+02	-16.1867	-53.227616	0.000294	2.939402	0.995896	0.000118
1604	1.5950e+02	-16.1418	-53.167059	0.000152	1.520380	0.515119	0.000061
1605	1.5960e+02	-16.1065	-53.086316	0.000203	2.027174	0.686825	0.000081
1606	1.5970e+02	-16.0712	-52.993462	0.000233	2.331250	0.789849	0.000093
1607	1.5980e+02	-16.0215	-52.936942	0.000142	1.419022	0.480778	0.000057
1608	1.5990e+02	-15.9830	-52.864274	0.000182	1.824456	0.618143	0.000073
1609	1.6000e+02	-15.9445	-52.763346	0.000253	2.533967	0.858531	0.000101
1610	1.6010e+02	-15.9076	-52.722974	0.000101	1.013587	0.343413	0.000041
1611	1.6019e+02	-15.8659	-52.622046	0.000253	2.533967	0.858531	0.000101
1612	1.6029e+02	-15.8338	-52.509006	0.000284	2.838043	0.961555	0.000114
1613	1.6039e+02	-15.7873	-52.452486	0.000142	1.419022	0.480778	0.000057
1614	1.6049e+02	-15.7488	-52.395966	0.000142	1.419022	0.480778	0.000057
1615	1.6059e+02	-15.7022	-52.286964	0.000274	2.736684	0.927214	0.000110
1616	1.6069e+02	-15.6750	-52.202184	0.000213	2.128532	0.721166	0.000085
1617	1.6079e+02	-15.6220	-52.105292	0.000243	2.432608	0.824190	0.000097
1618	1.6089e+02	-15.5867	-52.048773	0.000142	1.419022	0.480778	0.000057
1619	1.6099e+02	-15.5498	-51.963993	0.000213	2.128532	0.721166	0.000085
1620	1.6109e+02	-15.4953	-51.883250	0.000203	2.027174	0.686825	0.000081
1621	1.6119e+02	-15.4648	-51.814619	0.000172	1.723098	0.583801	0.000069
1622	1.6129e+02	-15.4311	-51.766173	0.000122	1.216304	0.412095	0.000049
1623	1.6139e+02	-15.3830	-51.641022	0.000314	3.142119	1.064579	0.000126
1624	1.6149e+02	-15.3429	-51.540093	0.000253	2.533967	0.858531	0.000101
1625	1.6159e+02	-15.2996	-51.495685	0.000111	1.114945	0.377754	0.000045
1626	1.6169e+02	-15.2514	-51.402831	0.000233	2.331250	0.789849	0.000093
1627	1.6179e+02	-15.2290	-51.334199	0.000172	1.723098	0.583801	0.000069
1628	1.6189e+02	-15.1857	-51.245382	0.000223	2.229891	0.755508	0.000089
1629	1.6199e+02	-15.1520	-51.144454	0.000253	2.533967	0.858531	0.000101
1630	1.6209e+02	-15.1151	-51.039489	0.000264	2.635326	0.892873	0.000105
1631	1.6219e+02	-15.0782	-50.982969	0.000142	1.419022	0.480778	0.000057
1632	1.6228e+02	-15.0204	-50.914337	0.000172	1.723098	0.583801	0.000069
1633	1.6238e+02	-14.9867	-50.817446	0.000243	2.432608	0.824190	0.000097
1634	1.6248e+02	-14.9482	-50.769000	0.000122	1.216304	0.412095	0.000049
1635	1.6258e+02	-14.9049	-50.635775	0.000334	3.344836	1.133261	0.000134
1636	1.6268e+02	-14.8648	-50.542921	0.000233	2.331250	0.789849	0.000093
1637	1.6278e+02	-14.8327	-50.458141	0.000213	2.128532	0.721166	0.000085
1638	1.6288e+02	-14.7814	-50.385473	0.000182	1.824456	0.618143	0.000073
1639	1.6298e+02	-14.7381	-50.316841	0.000172	1.723098	0.583801	0.000069
1640	1.6308e+02	-14.7124	-50.240136	0.000193	1.925815	0.652484	0.000077
1641	1.6318e+02	-14.6659	-50.147282	0.000233	2.331250	0.789849	0.000093
1642	1.6328e+02	-14.6290	-50.082687	0.000162	1.621739	0.549460	0.000065
1643	1.6338e+02	-14.5905	-50.001945	0.000203	2.027174	0.686825	0.000081
1644	1.6348e+02	-14.5488	-49.892942	0.000274	2.736684	0.927214	0.000110
1645	1.6358e+02	-14.5087	-49.816236	0.000193	1.925815	0.652484	0.000077
1646	1.6368e+02	-14.4638	-49.755679	0.000152	1.520380	0.515119	0.000061
1647	1.6378e+02	-14.4317	-49.666862	0.000223	2.229891	0.755508	0.000089
1648	1.6388e+02	-14.3932	-49.574008	0.000233	2.331250	0.789849	0.000093
1649	1.6398e+02	-14.3547	-49.505377	0.000172	1.723098	0.583801	0.000069
1650	1.6408e+02	-14.3114	-49.392337	0.000284	2.838043	0.961555	0.000114
1651	1.6418e+02	-14.2664	-49.303520	0.000223	2.229891	0.755508	0.000089
1652	1.6427e+02	-14.2247	-49.202592	0.000253	2.533967	0.858531	0.000101
1653	1.6437e+02	-14.1926	-49.125886	0.000193	1.925815	0.652484	0.000077
1654	1.6447e+02	-14.1509	-49.033032	0.000233	2.331250	0.789849	0.000093
1655	1.6457e+02	-14.1124	-48.984586	0.000122	1.216304	0.412095	0.000049
1656	1.6467e+02	-14.0739	-48.919992	0.000162	1.621739	0.549460	0.000065
1657	1.6477e+02	-14.0306	-48.823101	0.000243	2.432608	0.824190	0.000097
1658	1.6487e+02	-13.9953	-48.738321	0.000213	2.128532	0.721166	0.000085
1659	1.6497e+02	-13.9520	-48.633356	0.000264	2.635326	0.892873	0.000105
1660	1.6507e+02	-13.9023	-48.609133	0.000061	0.608152	0.206048	0.000024
1661	1.6517e+02	-13.8766	-48.431499	0.000446	4.459782	1.511015	0.000179
1662	1.6527e+02	-13.8301	-48.407276	0.000061	0.608152	0.206048	0.000024
1663	1.6537e+02	-13.7932	-48.322496	0.000213	2.128532	0.721166	0.000085
1664	1.6547e+02	-13.7403	-48.257902	0.000162	1.621739	0.549460	0.000065
1665	1.6557e+02	-13.7194	-48.161011	0.000243	2.432608	0.824190	0.000097
1666	1.6567e+02	-13.6745	-48.072194	0.000223	2.229891	0.755508	0.000089
1667	1.6577e+02	-13.6183	-47.938968	0.000334	3.344836	1.133261	0.000134
1668	1.6587e+02	-13.5895	-47.834003	0.000264	2.635326	0.892873	0.000105
1669	1.6597e+02	-13.5574	-47.749223	0.000213	2.128532	0.721166	0.000085
1670	1.6607e+02	-13.5092	-47.620035	0.000324	3.243478	1.098920	0.000130
1671	1.6616e+02	-13.4756	-47.603886	0.000041	0.405435	0.137365	0.000016
1672	1.6626e+02	-13.4371	-47.543329	0.000152	1.520380	0.515119	0.000061
1673	1.6636e+02	-13.3937	-47.454512	0.000223	2.229891	0.755508	0.000089
1674	1.6646e+02	-13.3424	-47.373769	0.000203	2.027174	0.686825	0.000081
1675	1.6656e+02	-13.3183	-47.288989	0.000213	2.128532	0.721166	0.000085
1676	1.6666e+02	-13.2782	-47.232470	0.000142	1.419022	0.480778	0.000057
1677	1.6676e+02	-13.2333	-47.159801	0.000182	1.824456	0.618143	0.000073
1678	1.6686e+02	-13.1852	-47.046761	0.000284	2.838043	0.961555	0.000114
1679	1.6696e+02	-13.1483	-46.957944	0.000223	2.229891	0.755508	0.000089
1680	1.6706e+02	-13.1066	-46.852979	0.000264	2.635326	0.892873	0.000105
1681	1.6716e+02	-13.0745	-46.776273	0.000193	1.925815	0.652484	0.000077
1682	1.6726e+02	-13.0296	-46.687456	0.000223	2.229891	0.755508	0.000089
1683	1.6736e+02	-13.0023	-46.606714	0.000203	2.027174	0.686825	0.000081
1684	1.6746e+02	-12.9558	-46.497711	0.000274	2.736684	0.927214	0.000110
1685	1.6756e+02	-12.9141	-46.412931	0.000213	2.128532	0.721166	0.000085
1686	1.6766e+02	-12.8772	-46.372560	0.000101	1.013587	0.343413	0.000041
1687	1.6776e+02	-12.8323	-46.255483	0.000294	2.939402	0.995896	0.000118
1688	1.6786e+02	-12.8018	-46.150517	0.000264	2.635326	0.892873	0.000105
1689	1.6796e+02	-12.7553	-46.089960	0.000152	1.520380	0.515119	0.000061
1690	1.6806e+02	-12.7055	-46.025366	0.000162	1.621739	0.549460	0.000065
1691	1.6816e+02	-12.6670	-45.948660	0.000193	1.925815	0.652484	0.000077
1692	1.6825e+02	-12.6381	-45.843695	0.000264	2.635326	0.892873	0.000105
1693	1.6835e+02	-12.5868	-45.742766	0.000253	2.533967	0.858531	0.000101
1694	1.6845e+02	-12.5627	-45.645875	0.000243	2.432608	0.824190	0.000097
1695	1.6855e+02	-12.5130	-45.520724	0.000314	3.142119	1.064579	0.000126
1696	1.6865e+02	-12.4809	-45.464204	0.000142	1.419022	0.480778	0.000057
1697	1.6875e+02	-12.4440	-45.375387	0.000223	2.229891	0.755508	0.000089
1698	1.6885e+02	-12.3943	-45.294644	0.000203	2.027174	0.686825	0.000081
1699	1.6895e+02	-12.3494	-45.205827	0.000223	2.229891	0.755508	0.000089
1700	1.6905e+02	-12.3205	-45.125085	0.000203	2.027174	0.686825	0.000081
1701	1.6915e+02	-12.2820	-44.955525	0.000426	4.257065	1.442333	0.000170
1702	1.6925e+02	-12.2355	-44.915154	0.000101	1.013587	0.343413	0.000041
1703	1.6935e+02	-12.1954	-44.842485	0.000182	1.824456	0.618143	0.000073
1704	1.6945e+02	-12.1729	-44.705223	0.000345	3.446195	1.167603	0.000138
1705	1.6955e+02	-12.1152	-44.632554	0.000182	1.824456	0.618143	0.000073
1706	1.6965e+02	-12.0719	-44.555849	0.000193	1.925815	0.652484	0.000077
1707	1.6975e+02	-12.0494	-44.495292	0.000152	1.520380	0.515119	0.000061
1708	1.6985e+02	-11.9900	-44.410512	0.000213	2.128532	0.721166	0.000085
1709	1.6995e+02	-11.9612	-44.289398	0.000304	3.040760	1.030238	0.000122
1710	1.7005e+02	-11.9130	-44.176358	0.000284	2.838043	0.961555	0.000114
1711	1.7015e+02	-11.8777	-44.107727	0.000172	1.723098	0.583801	0.000069
1712	1.7024e+02	-11.8392	-43.994687	0.000284	2.838043	0.961555	0.000114
1713	1.7034e+02	-11.8039	-43.889721	0.000264	2.635326	0.892873	0.000105
1714	1.7044e+02	-11.7574	-43.784756	0.000264	2.635326	0.892873	0.000105
1715	1.7054e+02	-11.7189	-43.712087	0.000182	1.824456	0.618143	0.000073
1716	1.7064e+02	-11.6804	-43.623270	0.000223	2.229891	0.755508	0.000089
1717	1.7074e+02	-11.6435	-43.518305	0.000264	2.635326	0.892873	0.000105
1718	1.7084e+02	-11.5938	-43.445636	0.000182	1.824456	0.618143	0.000073
1719	1.7094e+02	-11.5649	-43.332596	0.000284	2.838043	0.961555	0.000114
1720	1.7104e+02	-11.5232	-43.239742	0.000233	2.331250	0.789849	0.000093
1721	1.7114e+02	-11.4815	-43.146888	0.000233	2.331250	0.789849	0.000093
1722	1.7124e+02	-11.4398	-43.082294	0.000162	1.621739	0.549460	0.000065
1723	1.7134e+02	-11.4093	-42.985403	0.000243	2.432608	0.824190	0.000097
1724	1.7144e+02	-11.3660	-42.852177	0.000334	3.344836	1.133261	0.000134
1725	1.7154e+02	-11.3211	-42.783546	0.000172	1.723098	0.583801	0.000069
1726	1.7164e+02	-11.2842	-42.694729	0.000223	2.229891	0.755508	0.000089
1727	1.7174e+02	-11.2393	-42.646283	0.000122	1.216304	0.412095	0.000049
1728	1.7184e+02	-11.2072	-42.496909	0.000375	3.750271	1.270626	0.000150
1729	1.7194e+02	-11.1655	-42.363684	0.000334	3.344836	1.133261	0.000134
1730	1.7204e+02	-11.1254	-42.307164	0.000142	1.419022	0.480778	0.000057
1731	1.7213e+02	-11.0869	-42.210273	0.000243	2.432608	0.824190	0.000097
1732	1.7223e+02	-11.0355	-42.121456	0.000223	2.229891	0.755508	0.000089
1733	1.7233e+02	-11.0050	-41.984193	0.000345	3.446195	1.167603	0.000138
1734	1.7243e+02	-10.9697	-41.935747	0.000122	1.216304	0.412095	0.000049
1735	1.7253e+02	-10.9184	-41.830782	0.000264	2.635326	0.892873	0.000105
1736	1.7263e+02	-10.8847	-41.729854	0.000253	2.533967	0.858531	0.000101
1737	1.7273e+02	-10.8510	-41.653148	0.000193	1.925815	0.652484	0.000077
1738	1.7283e+02	-10.8093	-41.576442	0.000193	1.925815	0.652484	0.000077
1739	1.7293e+02	-10.7676	-41.467440	0.000274	2.736684	0.927214	0.000110
1740	1.7303e+02	-10.7211	-41.330177	0.000345	3.446195	1.167603	0.000138
1741	1.7313e+02	-10.6874	-41.241360	0.000223	2.229891	0.755508	0.000089
1742	1.7323e+02	-10.6553	-41.124283	0.000294	2.939402	0.995896	0.000118
1743	1.7333e+02	-10.6024	-40.991058	0.000334	3.344836	1.133261	0.000134
1744	1.7343e+02	-10.5591	-40.882055	0.000274	2.736684	0.927214	0.000110
1745	1.7353e+02	-10.5254	-40.821498	0.000152	1.520380	0.515119	0.000061
1746	1.7363e+02	-10.4853	-40.724607	0.000243	2.432608	0.824190	0.000097
1747	1.7373e+02	-10.4484	-40.607530	0.000294	2.939402	0.995896	0.000118
1748	1.7383e+02	-10.4002	-40.518713	0.000223	2.229891	0.755508	0.000089
1749	1.7393e+02	-10.3666	-40.446044	0.000182	1.824456	0.618143	0.000073
1750	1.7403e+02	-10.3248	-40.324930	0.000304	3.040760	1.030238	0.000122
1751	1.7413e+02	-10.2960	-40.219965	0.000264	2.635326	0.892873	0.000105
1752	1.7422e+02	-10.2382	-40.098851	0.000304	3.040760	1.030238	0.000122
1753	1.7432e+02	-10.2093	-40.001959	0.000243	2.432608	0.824190	0.000097
1754	1.7442e+02	-10.1612	-39.913142	0.000223	2.229891	0.755508	0.000089
1755	1.7452e+02	-10.1227	-39.796066	0.000294	2.939402	0.995896	0.000118
1756	1.7462e+02	-10.0874	-39.735509	0.000152	1.520380	0.515119	0.000061
1757	1.7472e+02	-10.0425	-39.642654	0.000233	2.331250	0.789849	0.000093
1758	1.7482e+02	-10.0008	-39.517503	0.000314	3.142119	1.064579	0.000126
1759	1.7492e+02	-9.9623	-39.416575	0.000253	2.533967	0.858531	0.000101
1760	1.7502e+02	-9.9270	-39.295461	0.000304	3.040760	1.030238	0.000122
1761	1.7512e+02	-9.8885	-39.166272	0.000324	3.243478	1.098920	0.000130
1762	1.7522e+02	-9.8500	-39.061307	0.000264	2.635326	0.892873	0.000105
1763	1.7532e+02	-9.8083	-38.944230	0.000294	2.939402	0.995896	0.000118
1764	1.7542e+02	-9.7618	-38.811004	0.000334	3.344836	1.133261	0.000134
1765	1.7552e+02	-9.7265	-38.750447	0.000152	1.520380	0.515119	0.000061
1766	1.7562e+02	-9.6880	-38.580888	0.000426	4.257065	1.442333	0.000170
1767	1.7572e+02	-9.6446	-38.492071	0.000223	2.229891	0.755508	0.000089
1768	1.7582e+02	-9.6094	-38.411328	0.000203	2.027174	0.686825	0.000081
1769	1.7592e+02	-9.5676	-38.286177	0.000314	3.142119	1.064579	0.000126
1770	1.7602e+02	-9.5243	-38.197360	0.000223	2.229891	0.755508	0.000089
1771	1.7612e+02	-9.4874	-38.120654	0.000193	1.925815	0.652484	0.000077
1772	1.7621e+02	-9.4457	-37.987429	0.000334	3.344836	1.133261	0.000134
1773	1.7631e+02	-9.4040	-37.890537	0.000243	2.432608	0.824190	0.000097
1774	1.7641e+02	-9.3575	-37.773461	0.000294	2.939402	0.995896	0.000118
1775	1.7651e+02	-9.3318	-37.664458	0.000274	2.736684	0.927214	0.000110
1776	1.7661e+02	-9.2997	-37.563529	0.000253	2.533967	0.858531	0.000101
1777	1.7671e+02	-9.2612	-37.470675	0.000233	2.331250	0.789849	0.000093
1778	1.7681e+02	-9.2051	-37.398007	0.000182	1.824456	0.618143	0.000073
1779	1.7691e+02	-9.1634	-37.256707	0.000355	3.547554	1.201944	0.000142
1780	1.7701e+02	-9.1329	-37.175964	0.000203	2.027174	0.686825	0.000081
1781	1.7711e+02	-9.0960	-37.026590	0.000375	3.750271	1.270626	0.000150
1782	1.7721e+02	-9.0495	-36.937773	0.000223	2.229891	0.755508	0.000089
1783	1.7731e+02	-9.0094	-36.792437	0.000365	3.648913	1.236285	0.000146
1784	1.7741e+02	-8.9773	-36.683434	0.000274	2.736684	0.927214	0.000110
1785	1.7751e+02	-8.9227	-36.558283	0.000314	3.142119	1.064579	0.000126
1786	1.7761e+02	-8.8971	-36.408909	0.000375	3.750271	1.270626	0.000150
1787	1.7771e+02	-8.8489	-36.295869	0.000284	2.838043	0.961555	0.000114
1788	1.7781e+02	-8.8121	-36.190903	0.000264	2.635326	0.892873	0.000105
1789	1.7791e+02	-8.7687	-36.118235	0.000182	1.824456	0.618143	0.000073
1790	1.7801e+02	-8.7238	-35.993084	0.000314	3.142119	1.064579	0.000126
1791	1.7810e+02	-8.6933	-35.892155	0.000253	2.533967	0.858531	0.000101
1792	1.7820e+02	-8.6484	-35.767004	0.000314	3.142119	1.064579	0.000126
1793	1.7830e+02	-8.6067	-35.698373	0.000172	1.723098	0.583801	0.000069
1794	1.7840e+02	-8.5746	-35.585333	0.000284	2.838043	0.961555	0.000114
1795	1.7850e+02	-8.5329	-35.435959	0.000375	3.750271	1.270626	0.000150
1796	1.7860e+02	-8.5040	-35.343105	0.000233	2.331250	0.789849	0.000093
1797	1.7870e+02	-8.4463	-35.254288	0.000223	2.229891	0.755508	0.000089
1798	1.7880e+02	-8.4110	-35.129137	0.000314	3.142119	1.064579	0.000126
1799	1.7890e+02	-8.3661	-35.003985	0.000314	3.142119	1.064579	0.000126
1800	1.7900e+02	-8.3340	-34.919206	0.000213	2.128532	0.721166	0.000085
1801	1.7910e+02	-8.2907	-34.806166	0.000284	2.838043	0.961555	0.000114
1802	1.7920e+02	-8.2522	-34.713312	0.000233	2.331250	0.789849	0.000093
1803	1.7930e+02	-8.2153	-34.656792	0.000142	1.419022	0.480778	0.000057
1804	1.7940e+02	-8.1704	-34.539715	0.000294	2.939402	0.995896	0.000118
1805	1.7950e+02	-8.1303	-34.426675	0.000284	2.838043	0.961555	0.000114
1806	1.7960e+02	-8.0982	-34.281338	0.000365	3.648913	1.236285	0.000146
1807	1.7970e+02	-8.0549	-34.196558	0.000213	2.128532	0.721166	0.000085
1808	1.7980e+02	-8.0067	-34.087556	0.000274	2.736684	0.927214	0.000110
1809	1.7990e+02	-7.9730	-34.010850	0.000193	1.925815	0.652484	0.000077
1810	1.8000e+02	-7.9377	-33.869550	0.000355	3.547554	1.201944	0.000142
1811	1.8009e+02	-7.8960	-33.744399	0.000314	3.142119	1.064579	0.000126
1812	1.8019e+02	-7.8623	-33.623285	0.000304	3.040760	1.030238	0.000122
1813	1.8029e+02	-7.8142	-33.546579	0.000193	1.925815	0.652484	0.000077
1814	1.8039e+02	-7.7709	-33.429502	0.000294	2.939402	0.995896	0.000118
1815	1.8049e+02	-7.7324	-33.280128	0.000375	3.750271	1.270626	0.000150
1816	1.8059e+02	-7.6955	-33.175163	0.000264	2.635326	0.892873	0.000105
1817	1.8069e+02	-7.6554	-33.098457	0.000193	1.925815	0.652484	0.000077
1818	1.8079e+02	-7.6137	-33.005603	0.000233	2.331250	0.789849	0.000093
1819	1.8089e+02	-7.5704	-32.872378	0.000334	3.344836	1.133261	0.000134
1820	1.8099e+02	-7.5335	-32.727041	0.000365	3.648913	1.236285	0.000146
1821	1.8109e+02	-7.5014	-32.674558	0.000132	1.317663	0.446436	0.000053
1822	1.8119e+02	-7.4581	-32.537295	0.000345	3.446195	1.167603	0.000138
1823	1.8129e+02	-7.4148	-32.383884	0.000385	3.851630	1.304968	0.000154
1824	1.8139e+02	-7.3763	-32.303142	0.000203	2.027174	0.686825	0.000081
1825	1.8149e+02	-7.3297	-32.214325	0.000223	2.229891	0.755508	0.000089
1826	1.8159e+02	-7.2961	-32.081099	0.000334	3.344836	1.133261	0.000134
1827	1.8169e+02	-7.2543	-31.899428	0.000456	4.561141	1.545356	0.000183
1828	1.8179e+02	-7.2239	-31.838871	0.000152	1.520380	0.515119	0.000061
1829	1.8189e+02	-7.1757	-31.737943	0.000253	2.533967	0.858531	0.000101
1830	1.8199e+02	-7.1404	-31.596643	0.000355	3.547554	1.201944	0.000142
1831	1.8209e+02	-7.1051	-31.540123	0.000142	1.419022	0.480778	0.000057
1832	1.8218e+02	-7.0538	-31.382675	0.000395	3.952989	1.339309	0.000158
1833	1.8228e+02	-7.0169	-31.301932	0.000203	2.027174	0.686825	0.000081
1834	1.8238e+02	-6.9720	-31.164669	0.000345	3.446195	1.167603	0.000138
1835	1.8248e+02	-6.9415	-31.059704	0.000264	2.635326	0.892873	0.000105
1836	1.8258e+02	-6.8998	-30.942627	0.000294	2.939402	0.995896	0.000118
1837	1.8268e+02	-6.8549	-30.813439	0.000324	3.243478	1.098920	0.000130
1838	1.8278e+02	-6.8228	-30.700399	0.000284	2.838043	0.961555	0.000114
1839	1.8288e+02	-6.7827	-30.559099	0.000355	3.547554	1.201944	0.000142
1840	1.8298e+02	-6.7394	-30.470282	0.000223	2.229891	0.755508	0.000089
1841	1.8308e+02	-6.7009	-30.320908	0.000375	3.750271	1.270626	0.000150
1842	1.8318e+02	-6.6592	-30.191720	0.000324	3.243478	1.098920	0.000130
1843	1.8328e+02	-6.6207	-30.110977	0.000203	2.027174	0.686825	0.000081
1844	1.8338e+02	-6.5758	-30.018123	0.000233	2.331250	0.789849	0.000093
1845	1.8348e+02	-6.5324	-29.913157	0.000264	2.635326	0.892873	0.000105
1846	1.8358e+02	-6.4923	-29.783969	0.000324	3.243478	1.098920	0.000130
1847	1.8368e+02	-6.4635	-29.646706	0.000345	3.446195	1.167603	0.000138
1848	1.8378e+02	-6.4217	-29.561926	0.000213	2.128532	0.721166	0.000085
1849	1.8388e+02	-6.3816	-29.440812	0.000304	3.040760	1.030238	0.000122
1850	1.8398e+02	-6.3415	-29.319698	0.000304	3.040760	1.030238	0.000122
1851	1.8407e+02	-6.3046	-29.182436	0.000345	3.446195	1.167603	0.000138
1852	1.8417e+02	-6.2597	-29.073433	0.000274	2.736684	0.927214	0.000110
1853	1.8427e+02	-6.2260	-28.932133	0.000355	3.547554	1.201944	0.000142
1854	1.8437e+02	-6.1843	-28.855428	0.000193	1.925815	0.652484	0.000077
1855	1.8447e+02	-6.1458	-28.730276	0.000314	3.142119	1.064579	0.000126
1856	1.8457e+02	-6.1057	-28.609162	0.000304	3.040760	1.030238	0.000122
1857	1.8467e+02	-6.0624	-28.479974	0.000324	3.243478	1.098920	0.000130
1858	1.8477e+02	-6.0255	-28.326563	0.000385	3.851630	1.304968	0.000154
1859	1.8487e+02	-5.9790	-28.213523	0.000284	2.838043	0.961555	0.000114
1860	1.8497e+02	-5.9469	-28.088372	0.000314	3.142119	1.064579	0.000126
1861	1.8507e+02	-5.9020	-27.975332	0.000284	2.838043	0.961555	0.000114
1862	1.8517e+02	-5.8554	-27.846144	0.000324	3.243478	1.098920	0.000130
1863	1.8527e+02	-5.8234	-27.749252	0.000243	2.432608	0.824190	0.000097
1864	1.8537e+02	-5.7817	-27.607953	0.000355	3.547554	1.201944	0.000142
1865	1.8547e+02	-5.7432	-27.486839	0.000304	3.040760	1.030238	0.000122
1866	1.8557e+02	-5.7095	-27.361687	0.000314	3.142119	1.064579	0.000126
1867	1.8567e+02	-5.6742	-27.248648	0.000284	2.838043	0.961555	0.000114
1868	1.8577e+02	-5.6228	-27.107348	0.000355	3.547554	1.201944	0.000142
1869	1.8587e+02	-5.5843	-27.006420	0.000253	2.533967	0.858531	0.000101
1870	1.8597e+02	-5.5506	-26.828786	0.000446	4.459782	1.511015	0.000179
1871	1.8606e+02	-5.5009	-26.739969	0.000223	2.229891	0.755508	0.000089
1872	1.8616e+02	-5.4672	-26.602706	0.000345	3.446195	1.167603	0.000138
1873	1.8626e+02	-5.4239	-26.497740	0.000264	2.635326	0.892873	0.000105
1874	1.8636e+02	-5.3918	-26.388738	0.000274	2.736684	0.927214	0.000110
1875	1.8646e+02	-5.3453	-26.251475	0.000345	3.446195	1.167603	0.000138
1876	1.8656e+02	-5.3004	-26.126324	0.000314	3.142119	1.064579	0.000126
1877	1.8666e+02	-5.2683	-26.017321	0.000274	2.736684	0.927214	0.000110
1878	1.8676e+02	-5.2186	-25.916393	0.000253	2.533967	0.858531	0.000101
1879	1.8686e+02	-5.1833	-25.771056	0.000365	3.648913	1.236285	0.000146
1880	1.8696e+02	-5.1544	-25.637831	0.000334	3.344836	1.133261	0.000134
1881	1.8706e+02	-5.1031	-25.532865	0.000264	2.635326	0.892873	0.000105
1882	1.8716e+02	-5.0662	-25.387528	0.000365	3.648913	1.236285	0.000146
1883	1.8726e+02	-5.0293	-25.234117	0.000385	3.851630	1.304968	0.000154
1884	1.8736e+02	-4.9779	-25.084743	0.000375	3.750271	1.270626	0.000150
1885	1.8746e+02	-4.9491	-24.967666	0.000294	2.939402	0.995896	0.000118
1886	1.8756e+02	-4.9170	-24.810218	0.000395	3.952989	1.339309	0.000158
1887	1.8766e+02	-4.8705	-24.717364	0.000233	2.331250	0.789849	0.000093
1888	1.8776e+02	-4.8223	-24.636621	0.000203	2.027174	0.686825	0.000081
1889	1.8786e+02	-4.7854	-24.479173	0.000395	3.952989	1.339309	0.000158
1890	1.8796e+02	-4.7405	-24.325761	0.000385	3.851630	1.304968	0.000154
1891	1.8806e+02	-4.7052	-24.212722	0.000284	2.838043	0.961555	0.000114
1892	1.8815e+02	-4.6619	-24.067385	0.000365	3.648913	1.236285	0.000146
1893	1.8825e+02	-4.6330	-23.970493	0.000243	2.432608	0.824190	0.000097
1894	1.8835e+02	-4.5833	-23.817082	0.000385	3.851630	1.304968	0.000154
1895	1.8845e+02	-4.5496	-23.667708	0.000375	3.750271	1.270626	0.000150
1896	1.8855e+02	-4.5063	-23.546594	0.000304	3.040760	1.030238	0.000122
1897	1.8865e+02	-4.4694	-23.425480	0.000304	3.040760	1.030238	0.000122
1898	1.8875e+02	-4.4309	-23.308403	0.000294	2.939402	0.995896	0.000118
1899	1.8885e+02	-4.3892	-23.126732	0.000456	4.561141	1.545356	0.000183
1900	1.8895e+02	-4.3539	-23.021767	0.000264	2.635326	0.892873	0.000105
1901	1.8905e+02	-4.3058	-22.932950	0.000223	2.229891	0.755508	0.000089
1902	1.8915e+02	-4.2624	-22.779538	0.000385	3.851630	1.304968	0.000154
1903	1.8925e+02	-4.2368	-22.642276	0.000345	3.446195	1.167603	0.000138
1904	1.8935e+02	-4.1854	-22.517125	0.000314	3.142119	1.064579	0.000126
1905	1.8945e+02	-4.1373	-22.363713	0.000385	3.851630	1.304968	0.000154
1906	1.8955e+02	-4.1149	-22.222414	0.000355	3.547554	1.201944	0.000142
1907	1.8965e+02	-4.0571	-22.113411	0.000274	2.736684	0.927214	0.000110
1908	1.8975e+02	-4.0362	-21.964037	0.000375	3.750271	1.270626	0.000150
1909	1.8985e+02	-3.9945	-21.770254	0.000487	4.865217	1.648380	0.000195
1910	1.8995e+02	-3.9560	-21.661252	0.000274	2.736684	0.927214	0.000110
1911	1.9004e+02	-3.9111	-21.540138	0.000304	3.040760	1.030238	0.000122
1912	1.9014e+02	-3.8742	-21.362504	0.000446	4.459782	1.511015	0.000179
1913	1.9024e+02	-3.8229	-21.289835	0.000182	1.824456	0.618143	0.000073
1914	1.9034e+02	-3.7892	-21.160647	0.000324	3.243478	1.098920	0.000130
1915	1.9044e+02	-3.7491	-21.019347	0.000355	3.547554	1.201944	0.000142
1916	1.9054e+02	-3.7074	-20.914382	0.000264	2.635326	0.892873	0.000105
1917	1.9064e+02	-3.6705	-20.744822	0.000426	4.257065	1.442333	0.000170
1918	1.9074e+02	-3.6320	-20.611597	0.000334	3.344836	1.133261	0.000134
1919	1.9084e+02	-3.5967	-20.458185	0.000385	3.851630	1.304968	0.000154
1920	1.9094e+02	-3.5454	-20.320923	0.000345	3.446195	1.167603	0.000138
1921	1.9104e+02	-3.5149	-20.215957	0.000264	2.635326	0.892873	0.000105
1922	1.9114e+02	-3.4780	-20.046398	0.000426	4.257065	1.442333	0.000170
1923	1.9124e+02	-3.4363	-19.909135	0.000345	3.446195	1.167603	0.000138
1924	1.9134e+02	-3.3849	-19.763798	0.000365	3.648913	1.236285	0.000146
1925	1.9144e+02	-3.3577	-19.618461	0.000365	3.648913	1.236285	0.000146
1926	1.9154e+02	-3.3127	-19.469087	0.000375	3.750271	1.270626	0.000150
1927	1.9164e+02	-3.2646	-19.331824	0.000345	3.446195	1.167603	0.000138
1928	1.9174e+02	-3.2357	-19.230896	0.000253	2.533967	0.858531	0.000101
1929	1.9184e+02	-3.1908	-19.065374	0.000416	4.155706	1.407991	0.000166
1930	1.9194e+02	-3.1491	-18.972519	0.000233	2.331250	0.789849	0.000093
1931	1.9203e+02	-3.1154	-18.770663	0.000507	5.067934	1.717063	0.000203
1932	1.9213e+02	-3.0801	-18.649549	0.000304	3.040760	1.030238	0.000122
1933	1.9223e+02	-3.0336	-18.492100	0.000395	3.952989	1.339309	0.000158
1934	1.9233e+02	-3.0031	-18.334652	0.000395	3.952989	1.339309	0.000158
1935	1.9243e+02	-2.9582	-18.221612	0.000284	2.838043	0.961555	0.000114
1936	1.9253e+02	-2.9165	-18.031867	0.000476	4.763858	1.614039	0.000191
1937	1.9263e+02	-2.8764	-17.830010	0.000507	5.067934	1.717063	0.000203
1938	1.9273e+02	-2.8427	-17.765416	0.000162	1.621739	0.549460	0.000065
1939	1.9283e+02	-2.7849	-17.603930	0.000405	4.054347	1.373650	0.000162
1940	1.9293e+02	-2.7497	-17.430334	0.000436	4.358423	1.476674	0.000174
1941	1.9303e+02	-2.7176	-17.297108	0.000334	3.344836	1.133261	0.000134
1942	1.9313e+02	-2.6743	-17.175994	0.000304	3.040760	1.030238	0.000122
1943	1.9323e+02	-2.6390	-17.042769	0.000334	3.344836	1.133261	0.000134
1944	1.9333e+02	-2.5924	-16.873209	0.000426	4.257065	1.442333	0.000170
1945	1.9343e+02	-2.5523	-16.748058	0.000314	3.142119	1.064579	0.000126
1946	1.9353e+02	-2.5186	-16.594646	0.000385	3.851630	1.304968	0.000154
1947	1.9363e+02	-2.4801	-16.469495	0.000314	3.142119	1.064579	0.000126
1948	1.9373e+02	-2.4320	-16.275713	0.000487	4.865217	1.648380	0.000195
1949	1.9383e+02	-2.4015	-16.138450	0.000345	3.446195	1.167603	0.000138
1950	1.9393e+02	-2.3646	-16.001187	0.000345	3.446195	1.167603	0.000138
1951	1.9403e+02	-2.3149	-15.819516	0.000456	4.561141	1.545356	0.000183
1952	1.9412e+02	-2.2748	-15.658031	0.000405	4.054347	1.373650	0.000162
1953	1.9422e+02	-2.2427	-15.488471	0.000426	4.257065	1.442333	0.000170
1954	1.9432e+02	-2.1994	-15.375431	0.000284	2.838043	0.961555	0.000114
1955	1.9442e+02	-2.1593	-15.242206	0.000334	3.344836	1.133261	0.000134
1956	1.9452e+02	-2.1208	-15.092832	0.000375	3.750271	1.270626	0.000150
1957	1.9462e+02	-2.0695	-14.931347	0.000405	4.054347	1.373650	0.000162
1958	1.9472e+02	-2.0390	-14.786010	0.000365	3.648913	1.236285	0.000146
1959	1.9482e+02	-1.9973	-14.648747	0.000345	3.446195	1.167603	0.000138
1960	1.9492e+02	-1.9604	-14.491299	0.000395	3.952989	1.339309	0.000158
1961	1.9502e+02	-1.9106	-14.313665	0.000446	4.459782	1.511015	0.000179
1962	1.9512e+02	-1.8673	-14.180439	0.000334	3.344836	1.133261	0.000134
1963	1.9522e+02	-1.8385	-14.002805	0.000446	4.459782	1.511015	0.000179
1964	1.9532e+02	-1.7999	-13.849394	0.000385	3.851630	1.304968	0.000154
1965	1.9542e+02	-1.7647	-13.651574	0.000497	4.966575	1.682721	0.000199
1966	1.9552e+02	-1.7197	-13.522386	0.000324	3.243478	1.098920	0.000130
1967	1.9562e+02	-1.6828	-13.364938	0.000395	3.952989	1.339309	0.000158
1968	1.9572e+02	-1.6459	-13.167118	0.000497	4.966575	1.682721	0.000199
1969	1.9582e+02	-1.6010	-13.062153	0.000264	2.635326	0.892873	0.000105
1970	1.9592e+02	-1.5641	-12.908742	0.000385	3.851630	1.304968	0.000154
1971	1.9601e+02	-1.5272	-12.755330	0.000385	3.851630	1.304968	0.000154
1972	1.9611e+02	-1.4791	-12.573659	0.000456	4.561141	1.545356	0.000183
1973	1.9621e+02	-1.4374	-12.440434	0.000334	3.344836	1.133261	0.000134
1974	1.9631e+02	-1.4037	-12.262800	0.000446	4.459782	1.511015	0.000179
1975	1.9641e+02	-1.3540	-12.105352	0.000395	3.952989	1.339309	0.000158
1976	1.9651e+02	-1.3235	-11.947903	0.000395	3.952989	1.339309	0.000158
1977	1.9661e+02	-1.2802	-11.794492	0.000385	3.851630	1.304968	0.000154
1978	1.9671e+02	-1.2481	-11.673378	0.000304	3.040760	1.030238	0.000122
1979	1.9681e+02	-1.2032	-11.519967	0.000385	3.851630	1.304968	0.000154
1980	1.9691e+02	-1.1679	-11.362519	0.000395	3.952989	1.339309	0.000158
1981	1.9701e+02	-1.1262	-11.196996	0.000416	4.155706	1.407991	0.000166
1982	1.9711e+02	-1.0829	-11.003213	0.000487	4.865217	1.648380	0.000195
1983	1.9721e+02	-1.0411	-10.869988	0.000334	3.344836	1.133261	0.000134
1984	1.9731e+02	-0.9962	-10.696391	0.000436	4.358423	1.476674	0.000174
1985	1.9741e+02	-0.9545	-10.563166	0.000334	3.344836	1.133261	0.000134
1986	1.9751e+02	-0.9192	-10.385532	0.000446	4.459782	1.511015	0.000179
1987	1.9761e+02	-0.8823	-10.211935	0.000436	4.358423	1.476674	0.000174
1988	1.9771e+02	-0.8390	-10.030264	0.000456	4.561141	1.545356	0.000183
1989	1.9781e+02	-0.7973	-9.909150	0.000304	3.040760	1.030238	0.000122
1990	1.9791e+02	-0.7604	-9.727479	0.000456	4.561141	1.545356	0.000183
1991	1.9800e+02	-0.7203	-9.553882	0.000436	4.358423	1.476674	0.000174
1992	1.9810e+02	-0.6866	-9.436805	0.000294	2.939402	0.995896	0.000118
1993	1.9820e+02	-0.6401	-9.315691	0.000304	3.040760	1.030238	0.000122
1994	1.9830e+02	-0.6000	-9.142094	0.000436	4.358423	1.476674	0.000174
1995	1.9840e+02	-0.5567	-8.980608	0.000405	4.054347	1.373650	0.000162
1996	1.9850e+02	-0.5214	-8.815086	0.000416	4.155706	1.407991	0.000166
1997	1.9860e+02	-0.4797	-8.661675	0.000385	3.851630	1.304968	0.000154
1998	1.9870e+02	-0.4508	-8.540561	0.000304	3.040760	1.030238	0.000122
1999	1.9880e+02	-0.4043	-8.334667	0.000517	5.169293	1.751404	0.000207
2000	1.9890e+02	-0.3642	-8.181256	0.000385	3.851630	1.304968	0.000154
2001	1.9900e+02	-0.3128	-8.011696	0.000426	4.257065	1.442333	0.000170
2002	1.9910e+02	-0.2904	-7.878470	0.000334	3.344836	1.133261	0.000134
2003	1.9920e+02	-0.2358	-7.729096	0.000375	3.750271	1.270626	0.000150
2004	1.9930e+02	-0.2053	-7.543388	0.000466	4.662499	1.579698	0.000187
2005	1.9940e+02	-0.1717	-7.373828	0.000426	4.257065	1.442333	0.000170
2006	1.9950e+02	-0.1299	-7.236566	0.000345	3.446195	1.167603	0.000138
2007	1.9960e+02	-0.0802	-7.030672	0.000517	5.169293	1.751404	0.000207
2008	1.9970e+02	-0.0433	-6.877261	0.000385	3.851630	1.304968	0.000154
2009	1.9980e+02	-0.0016	-6.695590	0.000385	3.851630	1.304968	0.000183

Center data before PMax,+/-Pr and +/-Vc Calc.

PMax (uC/cm2):	5.98e+01
Pr (uC/cm2):	2.05e+00
-Pr (uC/cm2):	-6.70e+00
PLoss (uC/cm2):	-2.47e+00
Vc:	1.03e+00
-Vc:	-4.89e-01
C (Max-Eff) (nF):	2.99e-01
K (Eff):	1.01e+03
Vert. (+/-Pr) Shift (uC/cm2):	-2.32e+00
Horiz. Shift (+/-Vc):	2.71e-01
Offset (uC/cm2):	4.18e+00

A (Loop Area - uC/cm2·Volts):	4.04e-02



Hysteresis Version: 5.48.1 - Radiant Technologies, Inc., 1999 - 9/12/24

