»»»»»»»»»»»»»»»»»»»»»»»»»»»»»»»»»»»» Hysteresis ««««««««««««««««««««««««««««««««««««
»»»  Executed Version:	5.48.1
»»»  Vision Version:	5.48.4 (R)
»»»  Vision Compiled:	9/18/24
»»»  Driver Version:	5.47.0
»»»  Windows Version:	Windows 8 or 8.1
»»»  Processor Information:	x86 (AMD or Intel) - 32 Processors
»»»  Tester Name:	PMF21124-494 (100V)
»»»  Tester S/N:	PMF21124-494
»»»  Internal Amp Type:	100V RevK 270k
»»»  Internal Amp S/N:	iAB2-596/K     
»»»  Execution Count:	1
»»»»»»»»»»»»»»»»»»»»»»»»»»»»»»»»»»»»»»»»»»««««««««««««««««««««««««««««««««««««««««««

Stored:	6/10/2025 - 15:26:45
Configured:	06/10/25 03:08:08 PM
Executed:	06/10/25 03:26:17 PM

»»»»»»»»»»»»»»»»»»»»»»»»»»»»»»»»»»» Sample Info ««««««««««««««««««««««««««««««««««««
Sample Name:	
Lot Name:	
Wafer Name:	
Die Row/Column:	0/0
Capacitor Number:	0
Sample Area (cm2):	1.00e-04
Sample Thickness (microns):	3.00e-01

Amplifier:	Internal

»»»»»»»»»»»»»»»»»»»»»»»»»»»»»»»»»»» Tester Info «««««««««««««««««««««««««««««««««««
Tester Name:	PMF21124-494 (100V)
Tester Serial Number:	PMF21124-494
Return Signal Amp. Level:	0.19 [Index: 3]

»»»»»»»»»»»»»»»»»»»»»»»»»»»»»»»» Hysteresis Info ««««««««««««««««««««««««««««««««««
Task Name:	Hyst-1091
Volts:	20.00
Field:	666.67 (kV/cm)
DCBias:	0.00
DCField:	0.00 (kV/cm)
Hysteresis Period (ms):	2.00e+02
Preset:	Enabled
Preset Delay (ms):	1.00e+03
Profile:	Standard Bipolar

»»»»»»»»»»»»»»»»»»»»»»»»»»»»»»»»»»»»»» Data «««««««««««««««««««««««««««««««««««««««
Points:	2009

Valid Data

Point	Time (ms)	Drive Voltage	Measured Polarization (uC/cm2)	Capacitance (uF)	Normalized Capacitance (uF/cm2)	Dielectric Constant	Instantaneous Current (mA)
   1	0.0000e+00	-0.0112	-3.782796	0.000223	2.229041	0.755220	0.000089
   2	9.9500e-02	0.0289	-3.693979	0.000223	2.229041	0.755220	0.000089
   3	1.9900e-01	0.0674	-3.520382	0.000436	4.356763	1.476111	0.000174
   4	2.9850e-01	0.1043	-3.407343	0.000284	2.836962	0.961189	0.000114
   5	3.9800e-01	0.1492	-3.286228	0.000304	3.039602	1.029845	0.000122
   6	4.9750e-01	0.1861	-3.104557	0.000456	4.559403	1.544768	0.000183
   7	5.9700e-01	0.2182	-2.967295	0.000344	3.444882	1.167158	0.000138
   8	6.9650e-01	0.2727	-2.817921	0.000375	3.748843	1.270142	0.000150
   9	7.9600e-01	0.2984	-2.684695	0.000334	3.343562	1.132830	0.000134
  10	8.9550e-01	0.3497	-2.523210	0.000405	4.052803	1.373127	0.000162
  11	9.9500e-01	0.3818	-2.410170	0.000284	2.836962	0.961189	0.000114
  12	1.0945e+00	0.4203	-2.248685	0.000405	4.052803	1.373127	0.000162
  13	1.1940e+00	0.4749	-2.139682	0.000274	2.735642	0.926861	0.000110
  14	1.2935e+00	0.5005	-1.974159	0.000415	4.154123	1.407455	0.000166
  15	1.3930e+00	0.5519	-1.800563	0.000436	4.356763	1.476111	0.000174
  16	1.4925e+00	0.5791	-1.643114	0.000395	3.951483	1.338799	0.000158
  17	1.5920e+00	0.6240	-1.493740	0.000375	3.748843	1.270142	0.000150
  18	1.6915e+00	0.6674	-1.388775	0.000263	2.634322	0.892532	0.000105
  19	1.7910e+00	0.7010	-1.207104	0.000456	4.559403	1.544768	0.000183
  20	1.8905e+00	0.7524	-1.085990	0.000304	3.039602	1.029845	0.000122
  21	1.9900e+00	0.7813	-0.956801	0.000324	3.242242	1.098501	0.000130
  22	2.0895e+00	0.8246	-0.795316	0.000405	4.052803	1.373127	0.000162
  23	2.1890e+00	0.8615	-0.637867	0.000395	3.951483	1.338799	0.000158
  24	2.2885e+00	0.9000	-0.500605	0.000344	3.444882	1.167158	0.000138
  25	2.3880e+00	0.9449	-0.351231	0.000375	3.748843	1.270142	0.000150
  26	2.4875e+00	0.9834	-0.193783	0.000395	3.951483	1.338799	0.000158
  27	2.5870e+00	1.0267	-0.068631	0.000314	3.140922	1.064173	0.000126
  28	2.6865e+00	1.0716	0.129188	0.000496	4.964683	1.682080	0.000199
  29	2.7860e+00	1.1053	0.258377	0.000324	3.242242	1.098501	0.000130
  30	2.8855e+00	1.1422	0.403714	0.000365	3.647522	1.235814	0.000146
  31	2.9850e+00	1.1887	0.565199	0.000405	4.052803	1.373127	0.000162
  32	3.0845e+00	1.2192	0.694387	0.000324	3.242242	1.098501	0.000130
  33	3.1840e+00	1.2641	0.863947	0.000426	4.255443	1.441783	0.000170
  34	3.2835e+00	1.3010	0.997173	0.000334	3.343562	1.132830	0.000134
  35	3.3830e+00	1.3508	1.142509	0.000365	3.647522	1.235814	0.000146
  36	3.4825e+00	1.3796	1.283809	0.000355	3.546202	1.201486	0.000142
  37	3.5820e+00	1.4246	1.412998	0.000324	3.242242	1.098501	0.000130
  38	3.6815e+00	1.4615	1.530074	0.000294	2.938282	0.995517	0.000118
  39	3.7810e+00	1.5080	1.752117	0.000557	5.572604	1.888049	0.000223
  40	3.8805e+00	1.5385	1.853045	0.000253	2.533002	0.858204	0.000101
  41	3.9800e+00	1.5818	2.030679	0.000446	4.458083	1.510439	0.000179
  42	4.0795e+00	1.6203	2.180053	0.000375	3.748843	1.270142	0.000150
  43	4.1790e+00	1.6588	2.329427	0.000375	3.748843	1.270142	0.000150
  44	4.2785e+00	1.7069	2.442467	0.000284	2.836962	0.961189	0.000114
  45	4.3780e+00	1.7406	2.648361	0.000517	5.167323	1.750737	0.000207
  46	4.4775e+00	1.7791	2.757364	0.000274	2.735642	0.926861	0.000110
  47	4.5770e+00	1.8144	2.918849	0.000405	4.052803	1.373127	0.000162
  48	4.6765e+00	1.8561	3.039963	0.000304	3.039602	1.029845	0.000122
  49	4.7760e+00	1.9042	3.189337	0.000375	3.748843	1.270142	0.000150
  50	4.8755e+00	1.9331	3.350823	0.000405	4.052803	1.373127	0.000162
  51	4.9750e+00	1.9844	3.504234	0.000385	3.850163	1.304470	0.000154
  52	5.0745e+00	2.0261	3.613236	0.000274	2.735642	0.926861	0.000110
  53	5.1740e+00	2.0679	3.750499	0.000344	3.444882	1.167158	0.000138
  54	5.2735e+00	2.1048	3.891799	0.000355	3.546202	1.201486	0.000142
  55	5.3730e+00	2.1400	4.081544	0.000476	4.762043	1.613424	0.000191
  56	5.4725e+00	2.1882	4.267252	0.000466	4.660723	1.579096	0.000187
  57	5.5720e+00	2.2267	4.339921	0.000182	1.823761	0.617907	0.000073
  58	5.6715e+00	2.2620	4.509481	0.000426	4.255443	1.441783	0.000170
  59	5.7710e+00	2.3005	4.658855	0.000375	3.748843	1.270142	0.000150
  60	5.8705e+00	2.3486	4.808229	0.000375	3.748843	1.270142	0.000150
  61	5.9700e+00	2.3759	4.949528	0.000355	3.546202	1.201486	0.000142
  62	6.0695e+00	2.4176	5.098902	0.000375	3.748843	1.270142	0.000150
  63	6.1690e+00	2.4561	5.220017	0.000304	3.039602	1.029845	0.000122
  64	6.2685e+00	2.4994	5.401688	0.000456	4.559403	1.544768	0.000183
  65	6.3680e+00	2.5363	5.498579	0.000243	2.431682	0.823876	0.000097
  66	6.4675e+00	2.5812	5.664101	0.000415	4.154123	1.407455	0.000166
  67	6.5670e+00	2.6101	5.769067	0.000263	2.634322	0.892532	0.000105
  68	6.6665e+00	2.6550	5.930552	0.000405	4.052803	1.373127	0.000162
  69	6.7660e+00	2.6999	6.112224	0.000456	4.559403	1.544768	0.000183
  70	6.8655e+00	2.7352	6.233338	0.000304	3.039602	1.029845	0.000122
  71	6.9650e+00	2.7753	6.390786	0.000395	3.951483	1.338799	0.000158
  72	7.0645e+00	2.8170	6.495751	0.000263	2.634322	0.892532	0.000105
  73	7.1640e+00	2.8571	6.685497	0.000476	4.762043	1.613424	0.000191
  74	7.2635e+00	2.8972	6.806611	0.000304	3.039602	1.029845	0.000122
  75	7.3630e+00	2.9309	6.964059	0.000395	3.951483	1.338799	0.000158
  76	7.4625e+00	2.9759	7.060950	0.000243	2.431682	0.823876	0.000097
  77	7.5620e+00	3.0111	7.222436	0.000405	4.052803	1.373127	0.000162
  78	7.6615e+00	3.0545	7.359698	0.000344	3.444882	1.167158	0.000138
  79	7.7610e+00	3.0930	7.492924	0.000334	3.343562	1.132830	0.000134
  80	7.8605e+00	3.1315	7.658446	0.000415	4.154123	1.407455	0.000166
  81	7.9600e+00	3.1764	7.787635	0.000324	3.242242	1.098501	0.000130
  82	8.0595e+00	3.2213	7.932972	0.000365	3.647522	1.235814	0.000146
  83	8.1590e+00	3.2566	8.074271	0.000355	3.546202	1.201486	0.000142
  84	8.2585e+00	3.2903	8.199423	0.000314	3.140922	1.064173	0.000126
  85	8.3580e+00	3.3320	8.340722	0.000355	3.546202	1.201486	0.000142
  86	8.4575e+00	3.3641	8.453762	0.000284	2.836962	0.961189	0.000114
  87	8.5570e+00	3.4074	8.627359	0.000436	4.356763	1.476111	0.000174
  88	8.6565e+00	3.4603	8.756547	0.000324	3.242242	1.098501	0.000130
  89	8.7560e+00	3.5036	8.889773	0.000334	3.343562	1.132830	0.000134
  90	8.8555e+00	3.5293	9.014924	0.000314	3.140922	1.064173	0.000126
  91	8.9550e+00	3.5694	9.144112	0.000324	3.242242	1.098501	0.000130
  92	9.0545e+00	3.6095	9.293486	0.000375	3.748843	1.270142	0.000150
  93	9.1540e+00	3.6496	9.430749	0.000344	3.444882	1.167158	0.000138
  94	9.2535e+00	3.6897	9.551863	0.000304	3.039602	1.029845	0.000122
  95	9.3530e+00	3.7347	9.668940	0.000294	2.938282	0.995517	0.000118
  96	9.4525e+00	3.7699	9.814277	0.000365	3.647522	1.235814	0.000146
  97	9.5520e+00	3.8149	9.979800	0.000415	4.154123	1.407455	0.000166
  98	9.6515e+00	3.8502	10.084765	0.000263	2.634322	0.892532	0.000105
  99	9.7510e+00	3.8903	10.234139	0.000375	3.748843	1.270142	0.000150
 100	9.8505e+00	3.9336	10.347179	0.000284	2.836962	0.961189	0.000114
 101	9.9500e+00	3.9801	10.516739	0.000426	4.255443	1.441783	0.000170
 102	1.0050e+01	4.0122	10.637853	0.000304	3.039602	1.029845	0.000122
 103	1.0149e+01	4.0459	10.803375	0.000415	4.154123	1.407455	0.000166
 104	1.0248e+01	4.0924	10.916415	0.000284	2.836962	0.961189	0.000114
 105	1.0348e+01	4.1277	11.041566	0.000314	3.140922	1.064173	0.000126
 106	1.0447e+01	4.1662	11.182866	0.000355	3.546202	1.201486	0.000142
 107	1.0547e+01	4.2223	11.312054	0.000324	3.242242	1.098501	0.000130
 108	1.0646e+01	4.2416	11.461428	0.000375	3.748843	1.270142	0.000150
 109	1.0746e+01	4.2817	11.590617	0.000324	3.242242	1.098501	0.000130
 110	1.0845e+01	4.3346	11.703657	0.000284	2.836962	0.961189	0.000114
 111	1.0945e+01	4.3715	11.869179	0.000415	4.154123	1.407455	0.000166
 112	1.1044e+01	4.4148	11.966070	0.000243	2.431682	0.823876	0.000097
 113	1.1144e+01	4.4453	12.119481	0.000385	3.850163	1.304470	0.000154
 114	1.1243e+01	4.4902	12.244633	0.000314	3.140922	1.064173	0.000126
 115	1.1343e+01	4.5223	12.377858	0.000334	3.343562	1.132830	0.000134
 116	1.1443e+01	4.5640	12.482824	0.000263	2.634322	0.892532	0.000105
 117	1.1542e+01	4.6058	12.628161	0.000365	3.647522	1.235814	0.000146
 118	1.1642e+01	4.6475	12.757349	0.000324	3.242242	1.098501	0.000130
 119	1.1741e+01	4.6908	12.894612	0.000344	3.444882	1.167158	0.000138
 120	1.1841e+01	4.7341	13.015726	0.000304	3.039602	1.029845	0.000122
 121	1.1940e+01	4.7598	13.157025	0.000355	3.546202	1.201486	0.000142
 122	1.2040e+01	4.8031	13.286214	0.000324	3.242242	1.098501	0.000130
 123	1.2139e+01	4.8480	13.427513	0.000355	3.546202	1.201486	0.000142
 124	1.2239e+01	4.8865	13.556702	0.000324	3.242242	1.098501	0.000130
 125	1.2338e+01	4.9234	13.645519	0.000223	2.229041	0.755220	0.000089
 126	1.2438e+01	4.9651	13.766633	0.000304	3.039602	1.029845	0.000122
 127	1.2537e+01	5.0020	13.875636	0.000274	2.735642	0.926861	0.000110
 128	1.2636e+01	5.0485	14.049232	0.000436	4.356763	1.476111	0.000174
 129	1.2736e+01	5.0902	14.174384	0.000314	3.140922	1.064173	0.000126
 130	1.2835e+01	5.1400	14.303572	0.000324	3.242242	1.098501	0.000130
 131	1.2935e+01	5.1704	14.440835	0.000344	3.444882	1.167158	0.000138
 132	1.3034e+01	5.2009	14.525614	0.000213	2.127721	0.720892	0.000085
 133	1.3134e+01	5.2442	14.674988	0.000375	3.748843	1.270142	0.000150
 134	1.3233e+01	5.2876	14.763805	0.000223	2.229041	0.755220	0.000089
 135	1.3333e+01	5.3277	14.953551	0.000476	4.762043	1.613424	0.000191
 136	1.3432e+01	5.3613	15.046405	0.000233	2.330362	0.789548	0.000093
 137	1.3532e+01	5.4079	15.171556	0.000314	3.140922	1.064173	0.000126
 138	1.3632e+01	5.4464	15.353227	0.000456	4.559403	1.544768	0.000183
 139	1.3731e+01	5.4945	15.425896	0.000182	1.823761	0.617907	0.000073
 140	1.3831e+01	5.5218	15.542973	0.000294	2.938282	0.995517	0.000118
 141	1.3930e+01	5.5683	15.676198	0.000334	3.343562	1.132830	0.000134
 142	1.4030e+01	5.5988	15.789238	0.000284	2.836962	0.961189	0.000114
 143	1.4129e+01	5.6357	15.946686	0.000395	3.951483	1.338799	0.000158
 144	1.4229e+01	5.6838	16.055689	0.000274	2.735642	0.926861	0.000110
 145	1.4328e+01	5.7335	16.196989	0.000355	3.546202	1.201486	0.000142
 146	1.4428e+01	5.7704	16.289843	0.000233	2.330362	0.789548	0.000093
 147	1.4527e+01	5.7945	16.374623	0.000213	2.127721	0.720892	0.000085
 148	1.4627e+01	5.8458	16.532071	0.000395	3.951483	1.338799	0.000158
 149	1.4726e+01	5.8907	16.669333	0.000344	3.444882	1.167158	0.000138
 150	1.4825e+01	5.9228	16.758150	0.000223	2.229041	0.755220	0.000089
 151	1.4925e+01	5.9613	16.923673	0.000415	4.154123	1.407455	0.000166
 152	1.5024e+01	6.0030	17.004416	0.000203	2.026401	0.686563	0.000081
 153	1.5124e+01	6.0335	17.149753	0.000365	3.647522	1.235814	0.000146
 154	1.5223e+01	6.0784	17.246644	0.000243	2.431682	0.823876	0.000097
 155	1.5323e+01	6.1234	17.371795	0.000314	3.140922	1.064173	0.000126
 156	1.5422e+01	6.1586	17.529243	0.000395	3.951483	1.338799	0.000158
 157	1.5522e+01	6.1988	17.658432	0.000324	3.242242	1.098501	0.000130
 158	1.5621e+01	6.2469	17.775509	0.000294	2.938282	0.995517	0.000118
 159	1.5721e+01	6.2709	17.864326	0.000223	2.229041	0.755220	0.000089
 160	1.5820e+01	6.3239	17.993514	0.000324	3.242242	1.098501	0.000130
 161	1.5920e+01	6.3688	18.086368	0.000233	2.330362	0.789548	0.000093
 162	1.6020e+01	6.4009	18.203445	0.000294	2.938282	0.995517	0.000118
 163	1.6119e+01	6.4378	18.356856	0.000385	3.850163	1.304470	0.000154
 164	1.6218e+01	6.4859	18.433562	0.000193	1.925081	0.652235	0.000077
 165	1.6318e+01	6.5196	18.582936	0.000375	3.748843	1.270142	0.000150
 166	1.6418e+01	6.5677	18.695976	0.000284	2.836962	0.961189	0.000114
 167	1.6517e+01	6.6110	18.800941	0.000263	2.634322	0.892532	0.000105
 168	1.6616e+01	6.6415	18.922055	0.000304	3.039602	1.029845	0.000122
 169	1.6716e+01	6.6768	19.055281	0.000334	3.343562	1.132830	0.000134
 170	1.6816e+01	6.7153	19.156209	0.000253	2.533002	0.858204	0.000101
 171	1.6915e+01	6.7586	19.261175	0.000263	2.634322	0.892532	0.000105
 172	1.7015e+01	6.8003	19.410549	0.000375	3.748843	1.270142	0.000150
 173	1.7114e+01	6.8501	19.531663	0.000304	3.039602	1.029845	0.000122
 174	1.7213e+01	6.8773	19.624517	0.000233	2.330362	0.789548	0.000093
 175	1.7313e+01	6.9158	19.745631	0.000304	3.039602	1.029845	0.000122
 176	1.7413e+01	6.9576	19.842522	0.000243	2.431682	0.823876	0.000097
 177	1.7512e+01	7.0009	19.967673	0.000314	3.140922	1.064173	0.000126
 178	1.7611e+01	7.0362	20.064565	0.000243	2.431682	0.823876	0.000097
 179	1.7711e+01	7.0715	20.238161	0.000436	4.356763	1.476111	0.000174
 180	1.7811e+01	7.1164	20.331016	0.000233	2.330362	0.789548	0.000093
 181	1.7910e+01	7.1645	20.440018	0.000274	2.735642	0.926861	0.000110
 182	1.8009e+01	7.1934	20.561132	0.000304	3.039602	1.029845	0.000122
 183	1.8109e+01	7.2367	20.686284	0.000314	3.140922	1.064173	0.000126
 184	1.8209e+01	7.2736	20.787212	0.000253	2.533002	0.858204	0.000101
 185	1.8308e+01	7.3233	20.920437	0.000334	3.343562	1.132830	0.000134
 186	1.8407e+01	7.3602	21.001180	0.000203	2.026401	0.686563	0.000081
 187	1.8507e+01	7.3923	21.110183	0.000274	2.735642	0.926861	0.000110
 188	1.8607e+01	7.4340	21.255520	0.000365	3.647522	1.235814	0.000146
 189	1.8706e+01	7.4741	21.392782	0.000344	3.444882	1.167158	0.000138
 190	1.8805e+01	7.5190	21.449302	0.000142	1.418481	0.480594	0.000057
 191	1.8905e+01	7.5543	21.562342	0.000284	2.836962	0.961189	0.000114
 192	1.9005e+01	7.6057	21.703642	0.000355	3.546202	1.201486	0.000142
 193	1.9104e+01	7.6361	21.800533	0.000243	2.431682	0.823876	0.000097
 194	1.9203e+01	7.6714	21.893387	0.000233	2.330362	0.789548	0.000093
 195	1.9303e+01	7.7099	22.010464	0.000294	2.938282	0.995517	0.000118
 196	1.9402e+01	7.7597	22.167912	0.000395	3.951483	1.338799	0.000158
 197	1.9502e+01	7.7853	22.268841	0.000253	2.533002	0.858204	0.000101
 198	1.9602e+01	7.8431	22.337472	0.000172	1.722441	0.583579	0.000069
 199	1.9701e+01	7.8720	22.474735	0.000344	3.444882	1.167158	0.000138
 200	1.9800e+01	7.9121	22.595849	0.000304	3.039602	1.029845	0.000122
 201	1.9900e+01	7.9474	22.716963	0.000304	3.039602	1.029845	0.000122
 202	2.0000e+01	7.9939	22.842114	0.000314	3.140922	1.064173	0.000126
 203	2.0099e+01	8.0356	22.930931	0.000223	2.229041	0.755220	0.000089
 204	2.0198e+01	8.0693	23.043971	0.000284	2.836962	0.961189	0.000114
 205	2.0298e+01	8.1238	23.177196	0.000334	3.343562	1.132830	0.000134
 206	2.0398e+01	8.1479	23.241790	0.000162	1.621121	0.549251	0.000065
 207	2.0497e+01	8.1928	23.387127	0.000365	3.647522	1.235814	0.000146
 208	2.0596e+01	8.2265	23.463833	0.000193	1.925081	0.652235	0.000077
 209	2.0696e+01	8.2682	23.572836	0.000274	2.735642	0.926861	0.000110
 210	2.0796e+01	8.3147	23.673764	0.000253	2.533002	0.858204	0.000101
 211	2.0895e+01	8.3516	23.811027	0.000344	3.444882	1.167158	0.000138
 212	2.0994e+01	8.4014	23.924066	0.000284	2.836962	0.961189	0.000114
 213	2.1094e+01	8.4335	24.029032	0.000263	2.634322	0.892532	0.000105
 214	2.1194e+01	8.4800	24.129960	0.000253	2.533002	0.858204	0.000101
 215	2.1293e+01	8.5153	24.247037	0.000294	2.938282	0.995517	0.000118
 216	2.1392e+01	8.5586	24.368151	0.000304	3.039602	1.029845	0.000122
 217	2.1492e+01	8.5907	24.473117	0.000263	2.634322	0.892532	0.000105
 218	2.1591e+01	8.6340	24.606342	0.000334	3.343562	1.132830	0.000134
 219	2.1691e+01	8.6725	24.719382	0.000284	2.836962	0.961189	0.000114
 220	2.1791e+01	8.7238	24.800125	0.000203	2.026401	0.686563	0.000081
 221	2.1890e+01	8.7543	24.876830	0.000193	1.925081	0.652235	0.000077
 222	2.1989e+01	8.7880	25.014093	0.000344	3.444882	1.167158	0.000138
 223	2.2089e+01	8.8313	25.135207	0.000304	3.039602	1.029845	0.000122
 224	2.2189e+01	8.8762	25.211913	0.000193	1.925081	0.652235	0.000077
 225	2.2288e+01	8.9115	25.341101	0.000324	3.242242	1.098501	0.000130
 226	2.2387e+01	8.9532	25.437992	0.000243	2.431682	0.823876	0.000097
 227	2.2487e+01	8.9901	25.542958	0.000263	2.634322	0.892532	0.000105
 228	2.2587e+01	9.0350	25.668109	0.000314	3.140922	1.064173	0.000126
 229	2.2686e+01	9.0671	25.740777	0.000182	1.823761	0.617907	0.000073
 230	2.2785e+01	9.1088	25.849780	0.000274	2.735642	0.926861	0.000110
 231	2.2885e+01	9.1441	25.966857	0.000294	2.938282	0.995517	0.000118
 232	2.2985e+01	9.2003	26.079897	0.000284	2.836962	0.961189	0.000114
 233	2.3084e+01	9.2292	26.205048	0.000314	3.140922	1.064173	0.000126
 234	2.3183e+01	9.2644	26.273679	0.000172	1.722441	0.583579	0.000069
 235	2.3283e+01	9.3094	26.410942	0.000344	3.444882	1.167158	0.000138
 236	2.3383e+01	9.3495	26.532056	0.000304	3.039602	1.029845	0.000122
 237	2.3482e+01	9.3960	26.637022	0.000263	2.634322	0.892532	0.000105
 238	2.3581e+01	9.4281	26.705653	0.000172	1.722441	0.583579	0.000069
 239	2.3681e+01	9.4650	26.863101	0.000395	3.951483	1.338799	0.000158
 240	2.3780e+01	9.5083	26.931733	0.000172	1.722441	0.583579	0.000069
 241	2.3880e+01	9.5516	27.024587	0.000233	2.330362	0.789548	0.000093
 242	2.3980e+01	9.5901	27.129552	0.000263	2.634322	0.892532	0.000105
 243	2.4079e+01	9.6222	27.254703	0.000314	3.140922	1.064173	0.000126
 244	2.4178e+01	9.6751	27.355632	0.000253	2.533002	0.858204	0.000101
 245	2.4278e+01	9.7040	27.472709	0.000294	2.938282	0.995517	0.000118
 246	2.4378e+01	9.7489	27.573637	0.000253	2.533002	0.858204	0.000101
 247	2.4477e+01	9.7890	27.666491	0.000233	2.330362	0.789548	0.000093
 248	2.4576e+01	9.8372	27.775494	0.000274	2.735642	0.926861	0.000110
 249	2.4676e+01	9.8708	27.900645	0.000314	3.140922	1.064173	0.000126
 250	2.4776e+01	9.9077	27.949091	0.000122	1.215841	0.411938	0.000049
 251	2.4875e+01	9.9462	28.098465	0.000375	3.748843	1.270142	0.000150
 252	2.4974e+01	9.9847	28.227653	0.000324	3.242242	1.098501	0.000130
 253	2.5074e+01	10.0232	28.304359	0.000193	1.925081	0.652235	0.000077
 254	2.5174e+01	10.0714	28.429510	0.000314	3.140922	1.064173	0.000126
 255	2.5273e+01	10.1083	28.518327	0.000223	2.229041	0.755220	0.000089
 256	2.5372e+01	10.1548	28.623292	0.000263	2.634322	0.892532	0.000105
 257	2.5472e+01	10.1901	28.732295	0.000274	2.735642	0.926861	0.000110
 258	2.5572e+01	10.2270	28.841298	0.000274	2.735642	0.926861	0.000110
 259	2.5671e+01	10.2671	28.901855	0.000152	1.519801	0.514923	0.000061
 260	2.5770e+01	10.3120	29.022969	0.000304	3.039602	1.029845	0.000122
 261	2.5870e+01	10.3489	29.115823	0.000233	2.330362	0.789548	0.000093
 262	2.5970e+01	10.3842	29.204640	0.000223	2.229041	0.755220	0.000089
 263	2.6069e+01	10.4291	29.317680	0.000284	2.836962	0.961189	0.000114
 264	2.6169e+01	10.4660	29.450905	0.000334	3.343562	1.132830	0.000134
 265	2.6268e+01	10.5013	29.539722	0.000223	2.229041	0.755220	0.000089
 266	2.6367e+01	10.5478	29.644688	0.000263	2.634322	0.892532	0.000105
 267	2.6467e+01	10.5927	29.717356	0.000182	1.823761	0.617907	0.000073
 268	2.6567e+01	10.6280	29.850582	0.000334	3.343562	1.132830	0.000134
 269	2.6666e+01	10.6698	29.927287	0.000193	1.925081	0.652235	0.000077
 270	2.6765e+01	10.6954	30.036290	0.000274	2.735642	0.926861	0.000110
 271	2.6865e+01	10.7516	30.165478	0.000324	3.242242	1.098501	0.000130
 272	2.6965e+01	10.7804	30.258332	0.000233	2.330362	0.789548	0.000093
 273	2.7064e+01	10.8286	30.339075	0.000203	2.026401	0.686563	0.000081
 274	2.7163e+01	10.8719	30.448078	0.000274	2.735642	0.926861	0.000110
 275	2.7263e+01	10.9008	30.561118	0.000284	2.836962	0.961189	0.000114
 276	2.7363e+01	10.9441	30.653972	0.000233	2.330362	0.789548	0.000093
 277	2.7462e+01	10.9874	30.791234	0.000344	3.444882	1.167158	0.000138
 278	2.7561e+01	11.0291	30.863903	0.000182	1.823761	0.617907	0.000073
 279	2.7661e+01	11.0532	30.972905	0.000274	2.735642	0.926861	0.000110
 280	2.7761e+01	11.0997	31.061722	0.000223	2.229041	0.755220	0.000089
 281	2.7860e+01	11.1414	31.186874	0.000314	3.140922	1.064173	0.000126
 282	2.7959e+01	11.1879	31.259542	0.000182	1.823761	0.617907	0.000073
 283	2.8059e+01	11.2296	31.376619	0.000294	2.938282	0.995517	0.000118
 284	2.8159e+01	11.2649	31.465436	0.000223	2.229041	0.755220	0.000089
 285	2.8258e+01	11.3002	31.590587	0.000314	3.140922	1.064173	0.000126
 286	2.8358e+01	11.3467	31.675367	0.000213	2.127721	0.720892	0.000085
 287	2.8457e+01	11.3804	31.776295	0.000253	2.533002	0.858204	0.000101
 288	2.8556e+01	11.4205	31.844927	0.000172	1.722441	0.583579	0.000069
 289	2.8656e+01	11.4638	32.006412	0.000405	4.052803	1.373127	0.000162
 290	2.8756e+01	11.4991	32.071006	0.000162	1.621121	0.549251	0.000065
 291	2.8855e+01	11.5489	32.188083	0.000294	2.938282	0.995517	0.000118
 292	2.8954e+01	11.5794	32.276900	0.000223	2.229041	0.755220	0.000089
 293	2.9054e+01	11.6243	32.357643	0.000203	2.026401	0.686563	0.000081
 294	2.9154e+01	11.6676	32.507017	0.000375	3.748843	1.270142	0.000150
 295	2.9253e+01	11.6965	32.579685	0.000182	1.823761	0.617907	0.000073
 296	2.9352e+01	11.7430	32.692725	0.000284	2.836962	0.961189	0.000114
 297	2.9452e+01	11.7831	32.773468	0.000203	2.026401	0.686563	0.000081
 298	2.9552e+01	11.8200	32.874396	0.000253	2.533002	0.858204	0.000101
 299	2.9651e+01	11.8633	32.995510	0.000304	3.039602	1.029845	0.000122
 300	2.9750e+01	11.9002	33.056067	0.000152	1.519801	0.514923	0.000061
 301	2.9850e+01	11.9371	33.181219	0.000314	3.140922	1.064173	0.000126
 302	2.9950e+01	11.9852	33.265998	0.000213	2.127721	0.720892	0.000085
 303	3.0049e+01	12.0157	33.354815	0.000223	2.229041	0.755220	0.000089
 304	3.0148e+01	12.0606	33.475930	0.000304	3.039602	1.029845	0.000122
 305	3.0248e+01	12.1071	33.568784	0.000233	2.330362	0.789548	0.000093
 306	3.0348e+01	12.1376	33.661638	0.000233	2.330362	0.789548	0.000093
 307	3.0447e+01	12.1793	33.742380	0.000203	2.026401	0.686563	0.000081
 308	3.0547e+01	12.2146	33.879643	0.000344	3.444882	1.167158	0.000138
 309	3.0646e+01	12.2595	33.964423	0.000213	2.127721	0.720892	0.000085
 310	3.0745e+01	12.2964	34.069388	0.000263	2.634322	0.892532	0.000105
 311	3.0845e+01	12.3478	34.113797	0.000111	1.114521	0.377610	0.000045
 312	3.0945e+01	12.3751	34.271245	0.000395	3.951483	1.338799	0.000158
 313	3.1044e+01	12.4248	34.319691	0.000122	1.215841	0.411938	0.000049
 314	3.1143e+01	12.4617	34.412545	0.000233	2.330362	0.789548	0.000093
 315	3.1243e+01	12.5034	34.529622	0.000294	2.938282	0.995517	0.000118
 316	3.1343e+01	12.5387	34.658810	0.000324	3.242242	1.098501	0.000130
 317	3.1442e+01	12.5772	34.691107	0.000081	0.810561	0.274625	0.000032
 318	3.1541e+01	12.6189	34.868741	0.000446	4.458083	1.510439	0.000179
 319	3.1641e+01	12.6606	34.921224	0.000132	1.317161	0.446266	0.000053
 320	3.1741e+01	12.6975	34.989855	0.000172	1.722441	0.583579	0.000069
 321	3.1840e+01	12.7440	35.139229	0.000375	3.748843	1.270142	0.000150
 322	3.1939e+01	12.7777	35.224009	0.000213	2.127721	0.720892	0.000085
 323	3.2039e+01	12.8114	35.296678	0.000182	1.823761	0.617907	0.000073
 324	3.2139e+01	12.8692	35.397606	0.000253	2.533002	0.858204	0.000101
 325	3.2238e+01	12.8980	35.518720	0.000304	3.039602	1.029845	0.000122
 326	3.2337e+01	12.9381	35.603500	0.000213	2.127721	0.720892	0.000085
 327	3.2437e+01	12.9879	35.688280	0.000213	2.127721	0.720892	0.000085
 328	3.2536e+01	13.0183	35.793245	0.000263	2.634322	0.892532	0.000105
 329	3.2636e+01	13.0520	35.857840	0.000162	1.621121	0.549251	0.000065
 330	3.2736e+01	13.0937	35.982991	0.000314	3.140922	1.064173	0.000126
 331	3.2835e+01	13.1339	36.075845	0.000233	2.330362	0.789548	0.000093
 332	3.2934e+01	13.1804	36.184848	0.000274	2.735642	0.926861	0.000110
 333	3.3034e+01	13.2093	36.265590	0.000203	2.026401	0.686563	0.000081
 334	3.3133e+01	13.2574	36.362482	0.000243	2.431682	0.823876	0.000097
 335	3.3233e+01	13.2911	36.419001	0.000142	1.418481	0.480594	0.000057
 336	3.3333e+01	13.3344	36.540116	0.000304	3.039602	1.029845	0.000122
 337	3.3432e+01	13.3681	36.632970	0.000233	2.330362	0.789548	0.000093
 338	3.3532e+01	13.4162	36.758121	0.000314	3.140922	1.064173	0.000126
 339	3.3631e+01	13.4499	36.842901	0.000213	2.127721	0.720892	0.000085
 340	3.3730e+01	13.4884	36.939792	0.000243	2.431682	0.823876	0.000097
 341	3.3830e+01	13.5333	37.012460	0.000182	1.823761	0.617907	0.000073
 342	3.3929e+01	13.5686	37.121463	0.000274	2.735642	0.926861	0.000110
 343	3.4029e+01	13.6119	37.222392	0.000253	2.533002	0.858204	0.000101
 344	3.4129e+01	13.6568	37.323320	0.000253	2.533002	0.858204	0.000101
 345	3.4228e+01	13.6921	37.371766	0.000122	1.215841	0.411938	0.000049
 346	3.4328e+01	13.7258	37.456545	0.000213	2.127721	0.720892	0.000085
 347	3.4427e+01	13.7755	37.597845	0.000355	3.546202	1.201486	0.000142
 348	3.4526e+01	13.8157	37.698774	0.000253	2.533002	0.858204	0.000101
 349	3.4626e+01	13.8574	37.779516	0.000203	2.026401	0.686563	0.000081
 350	3.4725e+01	13.8959	37.852185	0.000182	1.823761	0.617907	0.000073
 351	3.4825e+01	13.9344	37.957150	0.000263	2.634322	0.892532	0.000105
 352	3.4925e+01	13.9697	38.070190	0.000284	2.836962	0.961189	0.000114
 353	3.5024e+01	14.0146	38.130747	0.000152	1.519801	0.514923	0.000061
 354	3.5123e+01	14.0531	38.235713	0.000263	2.634322	0.892532	0.000105
 355	3.5223e+01	14.1092	38.368938	0.000334	3.343562	1.132830	0.000134
 356	3.5322e+01	14.1349	38.437569	0.000172	1.722441	0.583579	0.000069
 357	3.5422e+01	14.1670	38.530423	0.000233	2.330362	0.789548	0.000093
 358	3.5522e+01	14.2167	38.623278	0.000233	2.330362	0.789548	0.000093
 359	3.5621e+01	14.2616	38.716132	0.000233	2.330362	0.789548	0.000093
 360	3.5721e+01	14.2937	38.788800	0.000182	1.823761	0.617907	0.000073
 361	3.5820e+01	14.3322	38.881654	0.000233	2.330362	0.789548	0.000093
 362	3.5919e+01	14.3739	38.974508	0.000233	2.330362	0.789548	0.000093
 363	3.6019e+01	14.4044	39.067363	0.000233	2.330362	0.789548	0.000093
 364	3.6118e+01	14.4541	39.200588	0.000334	3.343562	1.132830	0.000134
 365	3.6218e+01	14.4846	39.249034	0.000122	1.215841	0.411938	0.000049
 366	3.6318e+01	14.5279	39.382259	0.000334	3.343562	1.132830	0.000134
 367	3.6417e+01	14.5664	39.467039	0.000213	2.127721	0.720892	0.000085
 368	3.6517e+01	14.6097	39.531633	0.000162	1.621121	0.549251	0.000065
 369	3.6616e+01	14.6418	39.620450	0.000223	2.229041	0.755220	0.000089
 370	3.6715e+01	14.6900	39.717341	0.000243	2.431682	0.823876	0.000097
 371	3.6815e+01	14.7269	39.798084	0.000203	2.026401	0.686563	0.000081
 372	3.6914e+01	14.7702	39.919198	0.000304	3.039602	1.029845	0.000122
 373	3.7014e+01	14.8151	39.995904	0.000193	1.925081	0.652235	0.000077
 374	3.7114e+01	14.8536	40.104906	0.000274	2.735642	0.926861	0.000110
 375	3.7213e+01	14.8969	40.173538	0.000172	1.722441	0.583579	0.000069
 376	3.7313e+01	14.9338	40.258318	0.000213	2.127721	0.720892	0.000085
 377	3.7412e+01	14.9707	40.359246	0.000253	2.533002	0.858204	0.000101
 378	3.7511e+01	15.0092	40.431914	0.000182	1.823761	0.617907	0.000073
 379	3.7611e+01	15.0477	40.577251	0.000365	3.647522	1.235814	0.000146
 380	3.7711e+01	15.0830	40.649920	0.000182	1.823761	0.617907	0.000073
 381	3.7810e+01	15.1247	40.706440	0.000142	1.418481	0.480594	0.000057
 382	3.7910e+01	15.1680	40.827554	0.000304	3.039602	1.029845	0.000122
 383	3.8009e+01	15.2097	40.908296	0.000203	2.026401	0.686563	0.000081
 384	3.8108e+01	15.2530	41.001151	0.000233	2.330362	0.789548	0.000093
 385	3.8208e+01	15.2867	41.081893	0.000203	2.026401	0.686563	0.000081
 386	3.8307e+01	15.3268	41.158599	0.000193	1.925081	0.652235	0.000077
 387	3.8407e+01	15.3573	41.291824	0.000334	3.343562	1.132830	0.000134
 388	3.8507e+01	15.4135	41.340270	0.000122	1.215841	0.411938	0.000049
 389	3.8606e+01	15.4504	41.437161	0.000243	2.431682	0.823876	0.000097
 390	3.8706e+01	15.4841	41.570387	0.000334	3.343562	1.132830	0.000134
 391	3.8805e+01	15.5177	41.614795	0.000111	1.114521	0.377610	0.000045
 392	3.8904e+01	15.5723	41.731872	0.000294	2.938282	0.995517	0.000118
 393	3.9004e+01	15.6028	41.796466	0.000162	1.621121	0.549251	0.000065
 394	3.9103e+01	15.6365	41.889320	0.000233	2.330362	0.789548	0.000093
 395	3.9203e+01	15.6830	42.006397	0.000294	2.938282	0.995517	0.000118
 396	3.9303e+01	15.7231	42.099251	0.000233	2.330362	0.789548	0.000093
 397	3.9402e+01	15.7616	42.167883	0.000172	1.722441	0.583579	0.000069
 398	3.9502e+01	15.8001	42.248625	0.000203	2.026401	0.686563	0.000081
 399	3.9601e+01	15.8434	42.325331	0.000193	1.925081	0.652235	0.000077
 400	3.9700e+01	15.8867	42.422222	0.000243	2.431682	0.823876	0.000097
 401	3.9800e+01	15.9172	42.523151	0.000253	2.533002	0.858204	0.000101
 402	3.9900e+01	15.9653	42.648302	0.000314	3.140922	1.064173	0.000126
 403	3.9999e+01	15.9942	42.680599	0.000081	0.810561	0.274625	0.000032
 404	4.0099e+01	16.0439	42.801713	0.000304	3.039602	1.029845	0.000122
 405	4.0198e+01	16.0872	42.886493	0.000213	2.127721	0.720892	0.000085
 406	4.0297e+01	16.1209	42.999533	0.000284	2.836962	0.961189	0.000114
 407	4.0397e+01	16.1594	43.064127	0.000162	1.621121	0.549251	0.000065
 408	4.0496e+01	16.2076	43.140832	0.000193	1.925081	0.652235	0.000077
 409	4.0596e+01	16.2396	43.233687	0.000233	2.330362	0.789548	0.000093
 410	4.0696e+01	16.2814	43.342689	0.000274	2.735642	0.926861	0.000110
 411	4.0795e+01	16.3199	43.419395	0.000193	1.925081	0.652235	0.000077
 412	4.0895e+01	16.3600	43.544546	0.000314	3.140922	1.064173	0.000126
 413	4.0994e+01	16.3953	43.629326	0.000213	2.127721	0.720892	0.000085
 414	4.1093e+01	16.4450	43.706031	0.000193	1.925081	0.652235	0.000077
 415	4.1193e+01	16.4819	43.774663	0.000172	1.722441	0.583579	0.000069
 416	4.1292e+01	16.5204	43.839257	0.000162	1.621121	0.549251	0.000065
 417	4.1392e+01	16.5653	43.988631	0.000375	3.748843	1.270142	0.000150
 418	4.1492e+01	16.6070	44.077448	0.000223	2.229041	0.755220	0.000089
 419	4.1591e+01	16.6391	44.162228	0.000213	2.127721	0.720892	0.000085
 420	4.1691e+01	16.6824	44.251045	0.000223	2.229041	0.755220	0.000089
 421	4.1790e+01	16.7257	44.311602	0.000152	1.519801	0.514923	0.000061
 422	4.1889e+01	16.7706	44.420605	0.000274	2.735642	0.926861	0.000110
 423	4.1989e+01	16.8027	44.529607	0.000274	2.735642	0.926861	0.000110
 424	4.2089e+01	16.8477	44.569979	0.000101	1.013201	0.343282	0.000041
 425	4.2188e+01	16.8813	44.646684	0.000193	1.925081	0.652235	0.000077
 426	4.2288e+01	16.9214	44.804132	0.000395	3.951483	1.338799	0.000158
 427	4.2387e+01	16.9567	44.864689	0.000152	1.519801	0.514923	0.000061
 428	4.2486e+01	17.0001	44.941395	0.000193	1.925081	0.652235	0.000077
 429	4.2586e+01	17.0418	45.014063	0.000182	1.823761	0.617907	0.000073
 430	4.2685e+01	17.0738	45.119029	0.000263	2.634322	0.892532	0.000105
 431	4.2785e+01	17.1172	45.187660	0.000172	1.722441	0.583579	0.000069
 432	4.2885e+01	17.1621	45.292626	0.000263	2.634322	0.892532	0.000105
 433	4.2984e+01	17.1958	45.381443	0.000223	2.229041	0.755220	0.000089
 434	4.3084e+01	17.2343	45.470260	0.000223	2.229041	0.755220	0.000089
 435	4.3183e+01	17.2744	45.567151	0.000243	2.431682	0.823876	0.000097
 436	4.3282e+01	17.3193	45.660005	0.000233	2.330362	0.789548	0.000093
 437	4.3382e+01	17.3626	45.724599	0.000162	1.621121	0.549251	0.000065
 438	4.3481e+01	17.3947	45.825528	0.000253	2.533002	0.858204	0.000101
 439	4.3581e+01	17.4412	45.950679	0.000314	3.140922	1.064173	0.000126
 440	4.3681e+01	17.4781	46.019310	0.000172	1.722441	0.583579	0.000069
 441	4.3780e+01	17.5102	46.108127	0.000223	2.229041	0.755220	0.000089
 442	4.3880e+01	17.5583	46.188870	0.000203	2.026401	0.686563	0.000081
 443	4.3979e+01	17.5952	46.289798	0.000253	2.533002	0.858204	0.000101
 444	4.4078e+01	17.6417	46.378615	0.000223	2.229041	0.755220	0.000089
 445	4.4178e+01	17.6786	46.483581	0.000263	2.634322	0.892532	0.000105
 446	4.4278e+01	17.7107	46.564324	0.000203	2.026401	0.686563	0.000081
 447	4.4377e+01	17.7589	46.616806	0.000132	1.317161	0.446266	0.000053
 448	4.4477e+01	17.7909	46.750032	0.000334	3.343562	1.132830	0.000134
 449	4.4576e+01	17.8359	46.818663	0.000172	1.722441	0.583579	0.000069
 450	4.4675e+01	17.8695	46.919592	0.000253	2.533002	0.858204	0.000101
 451	4.4775e+01	17.9177	47.012446	0.000233	2.330362	0.789548	0.000093
 452	4.4874e+01	17.9562	47.129523	0.000294	2.938282	0.995517	0.000118
 453	4.4974e+01	17.9963	47.141634	0.000030	0.303960	0.102985	0.000012
 454	4.5074e+01	18.0428	47.282934	0.000355	3.546202	1.201486	0.000142
 455	4.5173e+01	18.0877	47.355602	0.000182	1.823761	0.617907	0.000073
 456	4.5273e+01	18.1134	47.468642	0.000284	2.836962	0.961189	0.000114
 457	4.5372e+01	18.1615	47.549385	0.000203	2.026401	0.686563	0.000081
 458	4.5471e+01	18.1936	47.618016	0.000172	1.722441	0.583579	0.000069
 459	4.5571e+01	18.2385	47.714907	0.000243	2.431682	0.823876	0.000097
 460	4.5670e+01	18.2786	47.751242	0.000091	0.911881	0.308954	0.000037
 461	4.5770e+01	18.3235	47.904653	0.000385	3.850163	1.304470	0.000154
 462	4.5870e+01	18.3540	47.965210	0.000152	1.519801	0.514923	0.000061
 463	4.5969e+01	18.3909	48.058064	0.000233	2.330362	0.789548	0.000093
 464	4.6069e+01	18.4423	48.126695	0.000172	1.722441	0.583579	0.000069
 465	4.6168e+01	18.4711	48.300292	0.000436	4.356763	1.476111	0.000174
 466	4.6267e+01	18.5193	48.336626	0.000091	0.911881	0.308954	0.000037
 467	4.6367e+01	18.5481	48.413332	0.000193	1.925081	0.652235	0.000077
 468	4.6467e+01	18.6011	48.514260	0.000253	2.533002	0.858204	0.000101
 469	4.6566e+01	18.6364	48.635374	0.000304	3.039602	1.029845	0.000122
 470	4.6666e+01	18.6701	48.699968	0.000162	1.621121	0.549251	0.000065
 471	4.6765e+01	18.7166	48.756488	0.000142	1.418481	0.480594	0.000057
 472	4.6864e+01	18.7615	48.853380	0.000243	2.431682	0.823876	0.000097
 473	4.6964e+01	18.7920	48.970457	0.000294	2.938282	0.995517	0.000118
 474	4.7063e+01	18.8337	49.055236	0.000213	2.127721	0.720892	0.000085
 475	4.7163e+01	18.8690	49.160202	0.000263	2.634322	0.892532	0.000105
 476	4.7263e+01	18.9267	49.224796	0.000162	1.621121	0.549251	0.000065
 477	4.7362e+01	18.9588	49.293427	0.000172	1.722441	0.583579	0.000069
 478	4.7462e+01	18.9845	49.410504	0.000294	2.938282	0.995517	0.000118
 479	4.7561e+01	19.0326	49.503358	0.000233	2.330362	0.789548	0.000093
 480	4.7660e+01	19.0711	49.592175	0.000223	2.229041	0.755220	0.000089
 481	4.7760e+01	19.1096	49.685030	0.000233	2.330362	0.789548	0.000093
 482	4.7859e+01	19.1481	49.729438	0.000111	1.114521	0.377610	0.000045
 483	4.7959e+01	19.1898	49.874775	0.000365	3.647522	1.235814	0.000146
 484	4.8059e+01	19.2412	49.947443	0.000182	1.823761	0.617907	0.000073
 485	4.8158e+01	19.2716	50.032223	0.000213	2.127721	0.720892	0.000085
 486	4.8258e+01	19.3021	50.108929	0.000193	1.925081	0.652235	0.000077
 487	4.8357e+01	19.3503	50.197746	0.000223	2.229041	0.755220	0.000089
 488	4.8456e+01	19.3936	50.282526	0.000213	2.127721	0.720892	0.000085
 489	4.8556e+01	19.4305	50.403640	0.000304	3.039602	1.029845	0.000122
 490	4.8656e+01	19.4770	50.496494	0.000233	2.330362	0.789548	0.000093
 491	4.8755e+01	19.5155	50.589348	0.000233	2.330362	0.789548	0.000093
 492	4.8855e+01	19.5540	50.649905	0.000152	1.519801	0.514923	0.000061
 493	4.8954e+01	19.5909	50.742759	0.000233	2.330362	0.789548	0.000093
 494	4.9053e+01	19.6230	50.823502	0.000203	2.026401	0.686563	0.000081
 495	4.9153e+01	19.6711	50.916356	0.000233	2.330362	0.789548	0.000093
 496	4.9252e+01	19.7032	50.989024	0.000182	1.823761	0.617907	0.000073
 497	4.9352e+01	19.7545	51.102064	0.000284	2.836962	0.961189	0.000114
 498	4.9452e+01	19.7898	51.198955	0.000243	2.431682	0.823876	0.000097
 499	4.9551e+01	19.8299	51.283735	0.000213	2.127721	0.720892	0.000085
 500	4.9651e+01	19.8668	51.380627	0.000243	2.431682	0.823876	0.000097
 501	4.9750e+01	19.9117	51.437146	0.000142	1.418481	0.480594	0.000057
 502	4.9849e+01	19.9406	51.566335	0.000324	3.242242	1.098501	0.000130
 503	4.9949e+01	19.9936	51.643040	0.000193	1.925081	0.652235	0.000077
 504	5.0048e+01	19.9470	51.578446	0.000162	1.621121	0.549251	-0.000065
 505	5.0148e+01	19.9037	51.534038	0.000111	1.114521	0.377610	-0.000045
 506	5.0248e+01	19.8684	51.469444	0.000162	1.621121	0.549251	-0.000065
 507	5.0347e+01	19.8267	51.461369	0.000020	0.202640	0.068656	-0.000008
 508	5.0447e+01	19.7962	51.360441	0.000253	2.533002	0.858204	-0.000101
 509	5.0546e+01	19.7609	51.303921	0.000142	1.418481	0.480594	-0.000057
 510	5.0645e+01	19.7112	51.251438	0.000132	1.317161	0.446266	-0.000053
 511	5.0745e+01	19.6727	51.223178	0.000071	0.709240	0.240297	-0.000028
 512	5.0844e+01	19.6262	51.138398	0.000213	2.127721	0.720892	-0.000085
 513	5.0944e+01	19.5973	51.069767	0.000172	1.722441	0.583579	-0.000069
 514	5.1044e+01	19.5492	51.017284	0.000132	1.317161	0.446266	-0.000053
 515	5.1143e+01	19.5091	50.976913	0.000101	1.013201	0.343282	-0.000041
 516	5.1242e+01	19.4674	50.888096	0.000223	2.229041	0.755220	-0.000089
 517	5.1342e+01	19.4305	50.839650	0.000122	1.215841	0.411938	-0.000049
 518	5.1441e+01	19.3839	50.766982	0.000182	1.823761	0.617907	-0.000073
 519	5.1541e+01	19.3535	50.718536	0.000122	1.215841	0.411938	-0.000049
 520	5.1641e+01	19.3085	50.621645	0.000243	2.431682	0.823876	-0.000097
 521	5.1740e+01	19.2749	50.569162	0.000132	1.317161	0.446266	-0.000053
 522	5.1840e+01	19.2412	50.516679	0.000132	1.317161	0.446266	-0.000053
 523	5.1939e+01	19.1898	50.403640	0.000284	2.836962	0.961189	-0.000114
 524	5.2038e+01	19.1513	50.363268	0.000101	1.013201	0.343282	-0.000041
 525	5.2138e+01	19.1144	50.298674	0.000162	1.621121	0.549251	-0.000065
 526	5.2237e+01	19.0759	50.217931	0.000203	2.026401	0.686563	-0.000081
 527	5.2337e+01	19.0342	50.117003	0.000253	2.533002	0.858204	-0.000101
 528	5.2437e+01	18.9941	50.084706	0.000081	0.810561	0.274625	-0.000032
 529	5.2536e+01	18.9524	50.032223	0.000132	1.317161	0.446266	-0.000053
 530	5.2636e+01	18.9091	50.003963	0.000071	0.709240	0.240297	-0.000028
 531	5.2735e+01	18.8658	49.894961	0.000274	2.735642	0.926861	-0.000110
 532	5.2834e+01	18.8417	49.806144	0.000223	2.229041	0.755220	-0.000089
 533	5.2934e+01	18.7936	49.745587	0.000152	1.519801	0.514923	-0.000061
 534	5.3033e+01	18.7551	49.693104	0.000132	1.317161	0.446266	-0.000053
 535	5.3133e+01	18.7166	49.644658	0.000122	1.215841	0.411938	-0.000049
 536	5.3233e+01	18.6765	49.527581	0.000294	2.938282	0.995517	-0.000118
 537	5.3332e+01	18.6284	49.450876	0.000193	1.925081	0.652235	-0.000077
 538	5.3431e+01	18.5898	49.353984	0.000243	2.431682	0.823876	-0.000097
 539	5.3531e+01	18.5401	49.313613	0.000101	1.013201	0.343282	-0.000041
 540	5.3630e+01	18.5257	49.249019	0.000162	1.621121	0.549251	-0.000065
 541	5.3730e+01	18.4759	49.200573	0.000122	1.215841	0.411938	-0.000049
 542	5.3830e+01	18.4358	49.111756	0.000223	2.229041	0.755220	-0.000089
 543	5.3929e+01	18.3989	49.059273	0.000132	1.317161	0.446266	-0.000053
 544	5.4029e+01	18.3588	48.966419	0.000233	2.330362	0.789548	-0.000093
 545	5.4128e+01	18.3107	48.889714	0.000193	1.925081	0.652235	-0.000077
 546	5.4227e+01	18.2770	48.853380	0.000091	0.911881	0.308954	-0.000037
 547	5.4327e+01	18.2289	48.732265	0.000304	3.039602	1.029845	-0.000122
 548	5.4426e+01	18.1920	48.659597	0.000182	1.823761	0.617907	-0.000073
 549	5.4526e+01	18.1567	48.623263	0.000091	0.911881	0.308954	-0.000037
 550	5.4626e+01	18.1086	48.526372	0.000243	2.431682	0.823876	-0.000097
 551	5.4725e+01	18.0781	48.477926	0.000122	1.215841	0.411938	-0.000049
 552	5.4825e+01	18.0396	48.397183	0.000203	2.026401	0.686563	-0.000081
 553	5.4924e+01	18.0043	48.328552	0.000172	1.722441	0.583579	-0.000069
 554	5.5023e+01	17.9530	48.276069	0.000132	1.317161	0.446266	-0.000053
 555	5.5123e+01	17.9193	48.150918	0.000314	3.140922	1.064173	-0.000126
 556	5.5222e+01	17.8776	48.102472	0.000122	1.215841	0.411938	-0.000049
 557	5.5322e+01	17.8327	48.058064	0.000111	1.114521	0.377610	-0.000045
 558	5.5422e+01	17.7974	47.973284	0.000213	2.127721	0.720892	-0.000085
 559	5.5521e+01	17.7540	47.840058	0.000334	3.343562	1.132830	-0.000134
 560	5.5620e+01	17.7204	47.819873	0.000051	0.506600	0.171641	-0.000020
 561	5.5720e+01	17.6802	47.751242	0.000172	1.722441	0.583579	-0.000069
 562	5.5819e+01	17.6353	47.642239	0.000274	2.735642	0.926861	-0.000110
 563	5.5919e+01	17.6032	47.549385	0.000233	2.330362	0.789548	-0.000093
 564	5.6019e+01	17.5535	47.460568	0.000223	2.229041	0.755220	-0.000089
 565	5.6118e+01	17.5295	47.436345	0.000061	0.607920	0.205969	-0.000024
 566	5.6218e+01	17.4829	47.339454	0.000243	2.431682	0.823876	-0.000097
 567	5.6317e+01	17.4412	47.270822	0.000172	1.722441	0.583579	-0.000069
 568	5.6416e+01	17.4091	47.182005	0.000223	2.229041	0.755220	-0.000089
 569	5.6516e+01	17.3562	47.133560	0.000122	1.215841	0.411938	-0.000049
 570	5.6615e+01	17.3161	47.052817	0.000203	2.026401	0.686563	-0.000081
 571	5.6715e+01	17.2792	46.976111	0.000193	1.925081	0.652235	-0.000077
 572	5.6815e+01	17.2375	46.911517	0.000162	1.621121	0.549251	-0.000065
 573	5.6914e+01	17.2022	46.790403	0.000304	3.039602	1.029845	-0.000122
 574	5.7014e+01	17.1605	46.745995	0.000111	1.114521	0.377610	-0.000045
 575	5.7113e+01	17.1091	46.693512	0.000132	1.317161	0.446266	-0.000053
 576	5.7212e+01	17.0803	46.600658	0.000233	2.330362	0.789548	-0.000093
 577	5.7312e+01	17.0450	46.515878	0.000213	2.127721	0.720892	-0.000085
 578	5.7411e+01	16.9985	46.410912	0.000263	2.634322	0.892532	-0.000105
 579	5.7511e+01	16.9648	46.418987	-0.000020	-0.202640	-0.068656	0.000008
 580	5.7611e+01	16.9182	46.277687	0.000355	3.546202	1.201486	-0.000142
 581	5.7710e+01	16.8781	46.209056	0.000172	1.722441	0.583579	-0.000069
 582	5.7809e+01	16.8380	46.152536	0.000142	1.418481	0.480594	-0.000057
 583	5.7909e+01	16.7979	46.075830	0.000193	1.925081	0.652235	-0.000077
 584	5.8008e+01	16.7594	46.007199	0.000172	1.722441	0.583579	-0.000069
 585	5.8108e+01	16.7225	45.926456	0.000203	2.026401	0.686563	-0.000081
 586	5.8208e+01	16.6872	45.886085	0.000101	1.013201	0.343282	-0.000041
 587	5.8307e+01	16.6439	45.740748	0.000365	3.647522	1.235814	-0.000146
 588	5.8407e+01	16.6022	45.684228	0.000142	1.418481	0.480594	-0.000057
 589	5.8506e+01	16.5589	45.607522	0.000193	1.925081	0.652235	-0.000077
 590	5.8605e+01	16.5284	45.538891	0.000172	1.722441	0.583579	-0.000069
 591	5.8705e+01	16.4835	45.462186	0.000193	1.925081	0.652235	-0.000077
 592	5.8804e+01	16.4402	45.365294	0.000243	2.431682	0.823876	-0.000097
 593	5.8904e+01	16.4113	45.300700	0.000162	1.621121	0.549251	-0.000065
 594	5.9004e+01	16.3664	45.199772	0.000253	2.533002	0.858204	-0.000101
 595	5.9103e+01	16.3263	45.123066	0.000193	1.925081	0.652235	-0.000077
 596	5.9203e+01	16.2814	45.054435	0.000172	1.722441	0.583579	-0.000069
 597	5.9302e+01	16.2445	44.993878	0.000152	1.519801	0.514923	-0.000061
 598	5.9401e+01	16.2044	44.892949	0.000253	2.533002	0.858204	-0.000101
 599	5.9501e+01	16.1578	44.832392	0.000152	1.519801	0.514923	-0.000061
 600	5.9600e+01	16.1209	44.731464	0.000253	2.533002	0.858204	-0.000101
 601	5.9700e+01	16.0776	44.674944	0.000142	1.418481	0.480594	-0.000057
 602	5.9800e+01	16.0439	44.565941	0.000274	2.735642	0.926861	-0.000110
 603	5.9899e+01	16.0038	44.529607	0.000091	0.911881	0.308954	-0.000037
 604	5.9998e+01	15.9573	44.428679	0.000253	2.533002	0.858204	-0.000101
 605	6.0098e+01	15.9172	44.356010	0.000182	1.823761	0.617907	-0.000073
 606	6.0197e+01	15.8851	44.323713	0.000081	0.810561	0.274625	-0.000032
 607	6.0297e+01	15.8434	44.182414	0.000355	3.546202	1.201486	-0.000142
 608	6.0397e+01	15.8049	44.121856	0.000152	1.519801	0.514923	-0.000061
 609	6.0496e+01	15.7680	44.061299	0.000152	1.519801	0.514923	-0.000061
 610	6.0596e+01	15.7311	43.964408	0.000243	2.431682	0.823876	-0.000097
 611	6.0695e+01	15.6830	43.851368	0.000284	2.836962	0.961189	-0.000114
 612	6.0794e+01	15.6461	43.794848	0.000142	1.418481	0.480594	-0.000057
 613	6.0894e+01	15.6060	43.730254	0.000162	1.621121	0.549251	-0.000065
 614	6.0993e+01	15.5675	43.673734	0.000142	1.418481	0.480594	-0.000057
 615	6.1093e+01	15.5306	43.548583	0.000314	3.140922	1.064173	-0.000126
 616	6.1193e+01	15.4760	43.516286	0.000081	0.810561	0.274625	-0.000032
 617	6.1292e+01	15.4520	43.435543	0.000203	2.026401	0.686563	-0.000081
 618	6.1392e+01	15.4071	43.358838	0.000193	1.925081	0.652235	-0.000077
 619	6.1491e+01	15.3734	43.257909	0.000253	2.533002	0.858204	-0.000101
 620	6.1590e+01	15.3284	43.169092	0.000223	2.229041	0.755220	-0.000089
 621	6.1690e+01	15.2867	43.076238	0.000233	2.330362	0.789548	-0.000093
 622	6.1789e+01	15.2450	43.011644	0.000162	1.621121	0.549251	-0.000065
 623	6.1889e+01	15.1969	42.902641	0.000274	2.735642	0.926861	-0.000110
 624	6.1989e+01	15.1680	42.834010	0.000172	1.722441	0.583579	-0.000069
 625	6.2088e+01	15.1183	42.757305	0.000193	1.925081	0.652235	-0.000077
 626	6.2188e+01	15.0926	42.652339	0.000263	2.634322	0.892532	-0.000105
 627	6.2287e+01	15.0525	42.571596	0.000203	2.026401	0.686563	-0.000081
 628	6.2386e+01	15.0028	42.539299	0.000081	0.810561	0.274625	-0.000032
 629	6.2486e+01	14.9659	42.458557	0.000203	2.026401	0.686563	-0.000081
 630	6.2586e+01	14.9242	42.341480	0.000294	2.938282	0.995517	-0.000118
 631	6.2685e+01	14.8921	42.244588	0.000243	2.431682	0.823876	-0.000097
 632	6.2785e+01	14.8504	42.212291	0.000081	0.810561	0.274625	-0.000032
 633	6.2884e+01	14.8167	42.131549	0.000203	2.026401	0.686563	-0.000081
 634	6.2983e+01	14.7718	42.046769	0.000213	2.127721	0.720892	-0.000085
 635	6.3083e+01	14.7236	41.966026	0.000203	2.026401	0.686563	-0.000081
 636	6.3182e+01	14.6964	41.861060	0.000263	2.634322	0.892532	-0.000105
 637	6.3282e+01	14.6515	41.776281	0.000213	2.127721	0.720892	-0.000085
 638	6.3382e+01	14.6065	41.699575	0.000193	1.925081	0.652235	-0.000077
 639	6.3481e+01	14.5632	41.630944	0.000172	1.722441	0.583579	-0.000069
 640	6.3581e+01	14.5295	41.554238	0.000193	1.925081	0.652235	-0.000077
 641	6.3680e+01	14.4878	41.441198	0.000284	2.836962	0.961189	-0.000114
 642	6.3779e+01	14.4590	41.384678	0.000142	1.418481	0.480594	-0.000057
 643	6.3879e+01	14.4188	41.303936	0.000203	2.026401	0.686563	-0.000081
 644	6.3978e+01	14.3771	41.231267	0.000182	1.823761	0.617907	-0.000073
 645	6.4078e+01	14.3226	41.138413	0.000233	2.330362	0.789548	-0.000093
 646	6.4177e+01	14.2905	41.013262	0.000314	3.140922	1.064173	-0.000126
 647	6.4277e+01	14.2488	40.960779	0.000132	1.317161	0.446266	-0.000053
 648	6.4376e+01	14.2151	40.896185	0.000162	1.621121	0.549251	-0.000065
 649	6.4476e+01	14.1654	40.799294	0.000243	2.431682	0.823876	-0.000097
 650	6.4576e+01	14.1333	40.678180	0.000304	3.039602	1.029845	-0.000122
 651	6.4675e+01	14.0916	40.637808	0.000101	1.013201	0.343282	-0.000041
 652	6.4775e+01	14.0499	40.565140	0.000182	1.823761	0.617907	-0.000073
 653	6.4874e+01	14.0130	40.460174	0.000263	2.634322	0.892532	-0.000105
 654	6.4974e+01	13.9745	40.379432	0.000203	2.026401	0.686563	-0.000081
 655	6.5073e+01	13.9376	40.278503	0.000253	2.533002	0.858204	-0.000101
 656	6.5172e+01	13.8894	40.213909	0.000162	1.621121	0.549251	-0.000065
 657	6.5272e+01	13.8509	40.137204	0.000193	1.925081	0.652235	-0.000077
 658	6.5371e+01	13.8108	40.052424	0.000213	2.127721	0.720892	-0.000085
 659	6.5471e+01	13.7659	39.991867	0.000152	1.519801	0.514923	-0.000061
 660	6.5570e+01	13.7322	39.874790	0.000294	2.938282	0.995517	-0.000118
 661	6.5670e+01	13.6937	39.826344	0.000122	1.215841	0.411938	-0.000049
 662	6.5769e+01	13.6600	39.721379	0.000263	2.634322	0.892532	-0.000105
 663	6.5869e+01	13.6199	39.612376	0.000274	2.735642	0.926861	-0.000110
 664	6.5969e+01	13.5670	39.547782	0.000162	1.621121	0.549251	-0.000065
 665	6.6068e+01	13.5301	39.479150	0.000172	1.722441	0.583579	-0.000069
 666	6.6168e+01	13.4964	39.394371	0.000213	2.127721	0.720892	-0.000085
 667	6.6267e+01	13.4611	39.293442	0.000253	2.533002	0.858204	-0.000101
 668	6.6367e+01	13.4082	39.200588	0.000233	2.330362	0.789548	-0.000093
 669	6.6466e+01	13.3697	39.099660	0.000253	2.533002	0.858204	-0.000101
 670	6.6566e+01	13.3296	39.043140	0.000142	1.418481	0.480594	-0.000057
 671	6.6665e+01	13.2927	38.970471	0.000182	1.823761	0.617907	-0.000073
 672	6.6764e+01	13.2590	38.869543	0.000253	2.533002	0.858204	-0.000101
 673	6.6864e+01	13.2173	38.760540	0.000274	2.735642	0.926861	-0.000110
 674	6.6963e+01	13.1804	38.695946	0.000162	1.621121	0.549251	-0.000065
 675	6.7063e+01	13.1258	38.647500	0.000122	1.215841	0.411938	-0.000049
 676	6.7162e+01	13.0937	38.538498	0.000274	2.735642	0.926861	-0.000110
 677	6.7262e+01	13.0504	38.433532	0.000263	2.634322	0.892532	-0.000105
 678	6.7362e+01	13.0216	38.344715	0.000223	2.229041	0.755220	-0.000089
 679	6.7461e+01	12.9718	38.284158	0.000152	1.519801	0.514923	-0.000061
 680	6.7561e+01	12.9317	38.191304	0.000233	2.330362	0.789548	-0.000093
 681	6.7660e+01	12.9012	38.102487	0.000223	2.229041	0.755220	-0.000089
 682	6.7760e+01	12.8563	37.997522	0.000263	2.634322	0.892532	-0.000105
 683	6.7859e+01	12.8210	37.928890	0.000172	1.722441	0.583579	-0.000069
 684	6.7959e+01	12.7809	37.860259	0.000172	1.722441	0.583579	-0.000069
 685	6.8058e+01	12.7440	37.755293	0.000263	2.634322	0.892532	-0.000105
 686	6.8157e+01	12.7007	37.646291	0.000274	2.735642	0.926861	-0.000110
 687	6.8257e+01	12.6670	37.593808	0.000132	1.317161	0.446266	-0.000053
 688	6.8356e+01	12.6189	37.488842	0.000263	2.634322	0.892532	-0.000105
 689	6.8456e+01	12.5756	37.436360	0.000132	1.317161	0.446266	-0.000053
 690	6.8555e+01	12.5467	37.315246	0.000304	3.039602	1.029845	-0.000122
 691	6.8655e+01	12.5050	37.218354	0.000243	2.431682	0.823876	-0.000097
 692	6.8754e+01	12.4601	37.141649	0.000193	1.925081	0.652235	-0.000077
 693	6.8854e+01	12.4200	37.077055	0.000162	1.621121	0.549251	-0.000065
 694	6.8954e+01	12.3783	36.968052	0.000274	2.735642	0.926861	-0.000110
 695	6.9053e+01	12.3398	36.903458	0.000162	1.621121	0.549251	-0.000065
 696	6.9153e+01	12.2980	36.802529	0.000253	2.533002	0.858204	-0.000101
 697	6.9252e+01	12.2579	36.725824	0.000193	1.925081	0.652235	-0.000077
 698	6.9352e+01	12.2259	36.608747	0.000294	2.938282	0.995517	-0.000118
 699	6.9451e+01	12.1825	36.503781	0.000263	2.634322	0.892532	-0.000105
 700	6.9550e+01	12.1328	36.455336	0.000122	1.215841	0.411938	-0.000049
 701	6.9650e+01	12.1039	36.334222	0.000304	3.039602	1.029845	-0.000122
 702	6.9749e+01	12.0622	36.209070	0.000314	3.140922	1.064173	-0.000126
 703	6.9849e+01	12.0125	36.196959	0.000030	0.303960	0.102985	-0.000012
 704	6.9948e+01	11.9836	36.055659	0.000355	3.546202	1.201486	-0.000142
 705	7.0048e+01	11.9371	35.982991	0.000182	1.823761	0.617907	-0.000073
 706	7.0147e+01	11.8890	35.898211	0.000213	2.127721	0.720892	-0.000085
 707	7.0247e+01	11.8649	35.813431	0.000213	2.127721	0.720892	-0.000085
 708	7.0347e+01	11.8264	35.692317	0.000304	3.039602	1.029845	-0.000122
 709	7.0446e+01	11.7767	35.639834	0.000132	1.317161	0.446266	-0.000053
 710	7.0546e+01	11.7494	35.546980	0.000233	2.330362	0.789548	-0.000093
 711	7.0645e+01	11.6981	35.450089	0.000243	2.431682	0.823876	-0.000097
 712	7.0745e+01	11.6515	35.349161	0.000253	2.533002	0.858204	-0.000101
 713	7.0844e+01	11.6162	35.280529	0.000172	1.722441	0.583579	-0.000069
 714	7.0944e+01	11.5858	35.167489	0.000284	2.836962	0.961189	-0.000114
 715	7.1043e+01	11.5425	35.110970	0.000142	1.418481	0.480594	-0.000057
 716	7.1142e+01	11.5136	34.997930	0.000284	2.836962	0.961189	-0.000114
 717	7.1242e+01	11.4735	34.888927	0.000274	2.735642	0.926861	-0.000110
 718	7.1341e+01	11.4237	34.808184	0.000203	2.026401	0.686563	-0.000081
 719	7.1441e+01	11.3852	34.707256	0.000253	2.533002	0.858204	-0.000101
 720	7.1540e+01	11.3419	34.638625	0.000172	1.722441	0.583579	-0.000069
 721	7.1640e+01	11.2986	34.545771	0.000233	2.330362	0.789548	-0.000093
 722	7.1740e+01	11.2681	34.456954	0.000223	2.229041	0.755220	-0.000089
 723	7.1839e+01	11.2200	34.356025	0.000253	2.533002	0.858204	-0.000101
 724	7.1939e+01	11.1895	34.283357	0.000182	1.823761	0.617907	-0.000073
 725	7.2038e+01	11.1430	34.170317	0.000284	2.836962	0.961189	-0.000114
 726	7.2138e+01	11.1013	34.089574	0.000203	2.026401	0.686563	-0.000081
 727	7.2237e+01	11.0644	34.004794	0.000213	2.127721	0.720892	-0.000085
 728	7.2337e+01	11.0275	33.895792	0.000274	2.735642	0.926861	-0.000110
 729	7.2436e+01	10.9794	33.790826	0.000263	2.634322	0.892532	-0.000105
 730	7.2535e+01	10.9393	33.734306	0.000142	1.418481	0.480594	-0.000057
 731	7.2635e+01	10.9088	33.637415	0.000243	2.431682	0.823876	-0.000097
 732	7.2734e+01	10.8623	33.536487	0.000253	2.533002	0.858204	-0.000101
 733	7.2834e+01	10.8206	33.455744	0.000203	2.026401	0.686563	-0.000081
 734	7.2933e+01	10.7837	33.358853	0.000243	2.431682	0.823876	-0.000097
 735	7.3033e+01	10.7435	33.253887	0.000263	2.634322	0.892532	-0.000105
 736	7.3132e+01	10.7099	33.161033	0.000233	2.330362	0.789548	-0.000093
 737	7.3232e+01	10.6681	33.088365	0.000182	1.823761	0.617907	-0.000073
 738	7.3332e+01	10.6200	32.995510	0.000233	2.330362	0.789548	-0.000093
 739	7.3431e+01	10.5944	32.906693	0.000223	2.229041	0.755220	-0.000089
 740	7.3531e+01	10.5510	32.801728	0.000263	2.634322	0.892532	-0.000105
 741	7.3630e+01	10.5045	32.668502	0.000334	3.343562	1.132830	-0.000134
 742	7.3730e+01	10.4708	32.628131	0.000101	1.013201	0.343282	-0.000041
 743	7.3829e+01	10.4211	32.539314	0.000223	2.229041	0.755220	-0.000089
 744	7.3928e+01	10.3858	32.402051	0.000344	3.444882	1.167158	-0.000138
 745	7.4028e+01	10.3409	32.333420	0.000172	1.722441	0.583579	-0.000069
 746	7.4127e+01	10.3072	32.228455	0.000263	2.634322	0.892532	-0.000105
 747	7.4227e+01	10.2735	32.131563	0.000243	2.431682	0.823876	-0.000097
 748	7.4326e+01	10.2158	32.058895	0.000182	1.823761	0.617907	-0.000073
 749	7.4426e+01	10.1965	31.978152	0.000203	2.026401	0.686563	-0.000081
 750	7.4525e+01	10.1436	31.857038	0.000304	3.039602	1.029845	-0.000122
 751	7.4625e+01	10.1131	31.756110	0.000253	2.533002	0.858204	-0.000101
 752	7.4725e+01	10.0634	31.683441	0.000182	1.823761	0.617907	-0.000073
 753	7.4824e+01	10.0249	31.606736	0.000193	1.925081	0.652235	-0.000077
 754	7.4924e+01	9.9912	31.469473	0.000344	3.444882	1.167158	-0.000138
 755	7.5023e+01	9.9414	31.344322	0.000314	3.140922	1.064173	-0.000126
 756	7.5123e+01	9.9093	31.267616	0.000193	1.925081	0.652235	-0.000077
 757	7.5222e+01	9.8628	31.178799	0.000223	2.229041	0.755220	-0.000089
 758	7.5322e+01	9.8307	31.081908	0.000243	2.431682	0.823876	-0.000097
 759	7.5421e+01	9.7906	31.009240	0.000182	1.823761	0.617907	-0.000073
 760	7.5520e+01	9.7441	30.896200	0.000284	2.836962	0.961189	-0.000114
 761	7.5620e+01	9.7184	30.779123	0.000294	2.938282	0.995517	-0.000118
 762	7.5719e+01	9.6655	30.682232	0.000243	2.431682	0.823876	-0.000097
 763	7.5819e+01	9.6270	30.629749	0.000132	1.317161	0.446266	-0.000053
 764	7.5918e+01	9.5933	30.508635	0.000304	3.039602	1.029845	-0.000122
 765	7.6018e+01	9.5436	30.464226	0.000111	1.114521	0.377610	-0.000045
 766	7.6118e+01	9.5115	30.306778	0.000395	3.951483	1.338799	-0.000158
 767	7.6217e+01	9.4650	30.230072	0.000193	1.925081	0.652235	-0.000077
 768	7.6317e+01	9.4361	30.141255	0.000223	2.229041	0.755220	-0.000089
 769	7.6416e+01	9.3880	29.999956	0.000355	3.546202	1.201486	-0.000142
 770	7.6516e+01	9.3463	29.943436	0.000142	1.418481	0.480594	-0.000057
 771	7.6615e+01	9.3110	29.834433	0.000274	2.735642	0.926861	-0.000110
 772	7.6715e+01	9.2789	29.729468	0.000263	2.634322	0.892532	-0.000105
 773	7.6814e+01	9.2356	29.640651	0.000223	2.229041	0.755220	-0.000089
 774	7.6913e+01	9.1906	29.539722	0.000253	2.533002	0.858204	-0.000101
 775	7.7013e+01	9.1489	29.442831	0.000243	2.431682	0.823876	-0.000097
 776	7.7112e+01	9.1120	29.354014	0.000223	2.229041	0.755220	-0.000089
 777	7.7212e+01	9.0784	29.224826	0.000324	3.242242	1.098501	-0.000130
 778	7.7311e+01	9.0318	29.180417	0.000111	1.114521	0.377610	-0.000045
 779	7.7411e+01	8.9821	29.039117	0.000355	3.546202	1.201486	-0.000142
 780	7.7510e+01	8.9484	28.974523	0.000162	1.621121	0.549251	-0.000065
 781	7.7610e+01	8.9115	28.877632	0.000243	2.431682	0.823876	-0.000097
 782	7.7710e+01	8.8682	28.788815	0.000223	2.229041	0.755220	-0.000089
 783	7.7809e+01	8.8281	28.671738	0.000294	2.938282	0.995517	-0.000118
 784	7.7909e+01	8.8040	28.554661	0.000294	2.938282	0.995517	-0.000118
 785	7.8008e+01	8.7543	28.477955	0.000193	1.925081	0.652235	-0.000077
 786	7.8108e+01	8.7142	28.389139	0.000223	2.229041	0.755220	-0.000089
 787	7.8207e+01	8.6677	28.255913	0.000334	3.343562	1.132830	-0.000134
 788	7.8306e+01	8.6324	28.175170	0.000203	2.026401	0.686563	-0.000081
 789	7.8406e+01	8.5907	28.102502	0.000182	1.823761	0.617907	-0.000073
 790	7.8505e+01	8.5506	27.969276	0.000334	3.343562	1.132830	-0.000134
 791	7.8605e+01	8.5105	27.900645	0.000172	1.722441	0.583579	-0.000069
 792	7.8704e+01	8.4800	27.807791	0.000233	2.330362	0.789548	-0.000093
 793	7.8804e+01	8.4367	27.666491	0.000355	3.546202	1.201486	-0.000142
 794	7.8903e+01	8.3950	27.569600	0.000243	2.431682	0.823876	-0.000097
 795	7.9003e+01	8.3548	27.480783	0.000223	2.229041	0.755220	-0.000089
 796	7.9103e+01	8.3131	27.363706	0.000294	2.938282	0.995517	-0.000118
 797	7.9202e+01	8.2746	27.274889	0.000223	2.229041	0.755220	-0.000089
 798	7.9302e+01	8.2345	27.177998	0.000243	2.431682	0.823876	-0.000097
 799	7.9401e+01	8.1896	27.081107	0.000243	2.431682	0.823876	-0.000097
 800	7.9501e+01	8.1527	26.972104	0.000274	2.735642	0.926861	-0.000110
 801	7.9600e+01	8.1174	26.850990	0.000304	3.039602	1.029845	-0.000122
 802	7.9700e+01	8.0709	26.725839	0.000314	3.140922	1.064173	-0.000126
 803	7.9799e+01	8.0340	26.697579	0.000071	0.709240	0.240297	-0.000028
 804	7.9898e+01	7.9891	26.540130	0.000395	3.951483	1.338799	-0.000158
 805	7.9998e+01	7.9602	26.463425	0.000193	1.925081	0.652235	-0.000077
 806	8.0097e+01	7.9153	26.326162	0.000344	3.444882	1.167158	-0.000138
 807	8.0197e+01	7.8784	26.253494	0.000182	1.823761	0.617907	-0.000073
 808	8.0296e+01	7.8351	26.120268	0.000334	3.343562	1.132830	-0.000134
 809	8.0396e+01	7.7902	26.059711	0.000152	1.519801	0.514923	-0.000061
 810	8.0496e+01	7.7533	25.934560	0.000314	3.140922	1.064173	-0.000126
 811	8.0595e+01	7.7115	25.845743	0.000223	2.229041	0.755220	-0.000089
 812	8.0695e+01	7.6795	25.769037	0.000193	1.925081	0.652235	-0.000077
 813	8.0794e+01	7.6426	25.583329	0.000466	4.660723	1.579096	-0.000187
 814	8.0894e+01	7.5896	25.534884	0.000122	1.215841	0.411938	-0.000049
 815	8.0993e+01	7.5591	25.417807	0.000294	2.938282	0.995517	-0.000118
 816	8.1093e+01	7.5110	25.300730	0.000294	2.938282	0.995517	-0.000118
 817	8.1192e+01	7.4789	25.232098	0.000172	1.722441	0.583579	-0.000069
 818	8.1291e+01	7.4324	25.131170	0.000253	2.533002	0.858204	-0.000101
 819	8.1391e+01	7.4019	24.993907	0.000344	3.444882	1.167158	-0.000138
 820	8.1490e+01	7.3538	24.921239	0.000182	1.823761	0.617907	-0.000073
 821	8.1590e+01	7.3169	24.816273	0.000263	2.634322	0.892532	-0.000105
 822	8.1689e+01	7.2784	24.687085	0.000324	3.242242	1.098501	-0.000130
 823	8.1789e+01	7.2399	24.570008	0.000294	2.938282	0.995517	-0.000118
 824	8.1888e+01	7.2014	24.497340	0.000182	1.823761	0.617907	-0.000073
 825	8.1988e+01	7.1581	24.376226	0.000304	3.039602	1.029845	-0.000122
 826	8.2088e+01	7.1244	24.255112	0.000304	3.039602	1.029845	-0.000122
 827	8.2187e+01	7.0682	24.158220	0.000243	2.431682	0.823876	-0.000097
 828	8.2287e+01	7.0378	24.089589	0.000172	1.722441	0.583579	-0.000069
 829	8.2386e+01	6.9961	23.940215	0.000375	3.748843	1.270142	-0.000150
 830	8.2486e+01	6.9624	23.899844	0.000101	1.013201	0.343282	-0.000041
 831	8.2585e+01	6.9126	23.702024	0.000496	4.964683	1.682080	-0.000199
 832	8.2684e+01	6.8773	23.625318	0.000193	1.925081	0.652235	-0.000077
 833	8.2784e+01	6.8437	23.556687	0.000172	1.722441	0.583579	-0.000069
 834	8.2883e+01	6.8003	23.427499	0.000324	3.242242	1.098501	-0.000130
 835	8.2983e+01	6.7602	23.298310	0.000324	3.242242	1.098501	-0.000130
 836	8.3082e+01	6.7217	23.229679	0.000172	1.722441	0.583579	-0.000069
 837	8.3182e+01	6.6848	23.084342	0.000365	3.647522	1.235814	-0.000146
 838	8.3281e+01	6.6415	22.987451	0.000243	2.431682	0.823876	-0.000097
 839	8.3381e+01	6.5966	22.862300	0.000314	3.140922	1.064173	-0.000126
 840	8.3481e+01	6.5565	22.765408	0.000243	2.431682	0.823876	-0.000097
 841	8.3580e+01	6.5180	22.692740	0.000182	1.823761	0.617907	-0.000073
 842	8.3680e+01	6.4795	22.575663	0.000294	2.938282	0.995517	-0.000118
 843	8.3779e+01	6.4378	22.454549	0.000304	3.039602	1.029845	-0.000122
 844	8.3879e+01	6.3961	22.369769	0.000213	2.127721	0.720892	-0.000085
 845	8.3978e+01	6.3640	22.244618	0.000314	3.140922	1.064173	-0.000126
 846	8.4078e+01	6.3191	22.107355	0.000344	3.444882	1.167158	-0.000138
 847	8.4177e+01	6.2950	22.026613	0.000203	2.026401	0.686563	-0.000081
 848	8.4276e+01	6.2485	21.937796	0.000223	2.229041	0.755220	-0.000089
 849	8.4376e+01	6.2004	21.784384	0.000385	3.850163	1.304470	-0.000154
 850	8.4475e+01	6.1667	21.687493	0.000243	2.431682	0.823876	-0.000097
 851	8.4575e+01	6.1201	21.590602	0.000243	2.431682	0.823876	-0.000097
 852	8.4674e+01	6.0720	21.477562	0.000284	2.836962	0.961189	-0.000114
 853	8.4774e+01	6.0367	21.360485	0.000294	2.938282	0.995517	-0.000118
 854	8.4874e+01	6.0030	21.255520	0.000263	2.634322	0.892532	-0.000105
 855	8.4973e+01	5.9629	21.122294	0.000334	3.343562	1.132830	-0.000134
 856	8.5073e+01	5.9292	21.017329	0.000263	2.634322	0.892532	-0.000105
 857	8.5172e+01	5.8779	20.924475	0.000233	2.330362	0.789548	-0.000093
 858	8.5272e+01	5.8506	20.779138	0.000365	3.647522	1.235814	-0.000146
 859	8.5371e+01	5.8057	20.666098	0.000284	2.836962	0.961189	-0.000114
 860	8.5471e+01	5.7624	20.593429	0.000182	1.823761	0.617907	-0.000073
 861	8.5570e+01	5.7223	20.440018	0.000385	3.850163	1.304470	-0.000154
 862	8.5669e+01	5.6902	20.331016	0.000274	2.735642	0.926861	-0.000110
 863	8.5769e+01	5.6437	20.213939	0.000294	2.938282	0.995517	-0.000118
 864	8.5868e+01	5.6116	20.141270	0.000182	1.823761	0.617907	-0.000073
 865	8.5968e+01	5.5683	20.008045	0.000334	3.343562	1.132830	-0.000134
 866	8.6067e+01	5.5250	19.890968	0.000294	2.938282	0.995517	-0.000118
 867	8.6167e+01	5.4833	19.761779	0.000324	3.242242	1.098501	-0.000130
 868	8.6266e+01	5.4496	19.652777	0.000274	2.735642	0.926861	-0.000110
 869	8.6366e+01	5.4207	19.555886	0.000243	2.431682	0.823876	-0.000097
 870	8.6466e+01	5.3630	19.467069	0.000223	2.229041	0.755220	-0.000089
 871	8.6565e+01	5.3325	19.317695	0.000375	3.748843	1.270142	-0.000150
 872	8.6665e+01	5.2827	19.216766	0.000253	2.533002	0.858204	-0.000101
 873	8.6764e+01	5.2426	19.111801	0.000263	2.634322	0.892532	-0.000105
 874	8.6864e+01	5.2089	18.986649	0.000314	3.140922	1.064173	-0.000126
 875	8.6963e+01	5.1624	18.893795	0.000233	2.330362	0.789548	-0.000093
 876	8.7063e+01	5.1335	18.732310	0.000405	4.052803	1.373127	-0.000162
 877	8.7162e+01	5.0886	18.663679	0.000172	1.722441	0.583579	-0.000069
 878	8.7261e+01	5.0533	18.506230	0.000395	3.951483	1.338799	-0.000158
 879	8.7361e+01	5.0004	18.413376	0.000233	2.330362	0.789548	-0.000093
 880	8.7460e+01	4.9715	18.284188	0.000324	3.242242	1.098501	-0.000130
 881	8.7560e+01	4.9378	18.191334	0.000233	2.330362	0.789548	-0.000093
 882	8.7659e+01	4.8881	18.082331	0.000274	2.735642	0.926861	-0.000110
 883	8.7759e+01	4.8512	17.936994	0.000365	3.647522	1.235814	-0.000146
 884	8.7859e+01	4.8015	17.823954	0.000284	2.836962	0.961189	-0.000114
 885	8.7958e+01	4.7646	17.727063	0.000243	2.431682	0.823876	-0.000097
 886	8.8058e+01	4.7245	17.565578	0.000405	4.052803	1.373127	-0.000162
 887	8.8157e+01	4.6924	17.480798	0.000213	2.127721	0.720892	-0.000085
 888	8.8257e+01	4.6523	17.355647	0.000314	3.140922	1.064173	-0.000126
 889	8.8356e+01	4.6041	17.238570	0.000294	2.938282	0.995517	-0.000118
 890	8.8456e+01	4.5673	17.125530	0.000284	2.836962	0.961189	-0.000114
 891	8.8555e+01	4.5320	16.988267	0.000344	3.444882	1.167158	-0.000138
 892	8.8654e+01	4.4967	16.859079	0.000324	3.242242	1.098501	-0.000130
 893	8.8754e+01	4.4485	16.758150	0.000253	2.533002	0.858204	-0.000101
 894	8.8853e+01	4.4148	16.669333	0.000223	2.229041	0.755220	-0.000089
 895	8.8953e+01	4.3683	16.564368	0.000263	2.634322	0.892532	-0.000105
 896	8.9052e+01	4.3314	16.378660	0.000466	4.660723	1.579096	-0.000187
 897	8.9152e+01	4.2849	16.257546	0.000304	3.039602	1.029845	-0.000122
 898	8.9251e+01	4.2512	16.168729	0.000223	2.229041	0.755220	-0.000089
 899	8.9351e+01	4.2111	16.019355	0.000375	3.748843	1.270142	-0.000150
 900	8.9451e+01	4.1694	15.906315	0.000284	2.836962	0.961189	-0.000114
 901	8.9550e+01	4.1261	15.785201	0.000304	3.039602	1.029845	-0.000122
 902	8.9650e+01	4.0940	15.688309	0.000243	2.431682	0.823876	-0.000097
 903	8.9749e+01	4.0603	15.542973	0.000365	3.647522	1.235814	-0.000146
 904	8.9849e+01	4.0170	15.429933	0.000284	2.836962	0.961189	-0.000114
 905	8.9948e+01	3.9657	15.244225	0.000466	4.660723	1.579096	-0.000187
 906	9.0047e+01	3.9223	15.220002	0.000061	0.607920	0.205969	-0.000024
 907	9.0147e+01	3.8855	15.058516	0.000405	4.052803	1.373127	-0.000162
 908	9.0246e+01	3.8502	14.921254	0.000344	3.444882	1.167158	-0.000138
 909	9.0346e+01	3.8036	14.796102	0.000314	3.140922	1.064173	-0.000126
 910	9.0445e+01	3.7780	14.658840	0.000344	3.444882	1.167158	-0.000138
 911	9.0545e+01	3.7379	14.541763	0.000294	2.938282	0.995517	-0.000118
 912	9.0644e+01	3.6849	14.412575	0.000324	3.242242	1.098501	-0.000130
 913	9.0744e+01	3.6609	14.311646	0.000253	2.533002	0.858204	-0.000101
 914	9.0844e+01	3.6159	14.162272	0.000375	3.748843	1.270142	-0.000150
 915	9.0943e+01	3.5662	14.069418	0.000233	2.330362	0.789548	-0.000093
 916	9.1043e+01	3.5357	13.944267	0.000314	3.140922	1.064173	-0.000126
 917	9.1142e+01	3.4908	13.827190	0.000294	2.938282	0.995517	-0.000118
 918	9.1242e+01	3.4603	13.689927	0.000344	3.444882	1.167158	-0.000138
 919	9.1341e+01	3.4106	13.593036	0.000243	2.431682	0.823876	-0.000097
 920	9.1441e+01	3.3737	13.419439	0.000436	4.356763	1.476111	-0.000174
 921	9.1540e+01	3.3352	13.302362	0.000294	2.938282	0.995517	-0.000118
 922	9.1639e+01	3.2935	13.213545	0.000223	2.229041	0.755220	-0.000089
 923	9.1739e+01	3.2518	13.043986	0.000426	4.255443	1.441783	-0.000170
 924	9.1838e+01	3.2181	12.930946	0.000284	2.836962	0.961189	-0.000114
 925	9.1938e+01	3.1668	12.809832	0.000304	3.039602	1.029845	-0.000122
 926	9.2037e+01	3.1315	12.668532	0.000355	3.546202	1.201486	-0.000142
 927	9.2137e+01	3.0930	12.507047	0.000405	4.052803	1.373127	-0.000162
 928	9.2237e+01	3.0561	12.418230	0.000223	2.229041	0.755220	-0.000089
 929	9.2336e+01	3.0079	12.272893	0.000365	3.647522	1.235814	-0.000146
 930	9.2436e+01	2.9710	12.127556	0.000365	3.647522	1.235814	-0.000146
 931	9.2535e+01	2.9309	12.050850	0.000193	1.925081	0.652235	-0.000077
 932	9.2635e+01	2.8924	11.901476	0.000375	3.748843	1.270142	-0.000150
 933	9.2734e+01	2.8571	11.764214	0.000344	3.444882	1.167158	-0.000138
 934	9.2834e+01	2.8090	11.630988	0.000334	3.343562	1.132830	-0.000134
 935	9.2933e+01	2.7721	11.501800	0.000324	3.242242	1.098501	-0.000130
 936	9.3032e+01	2.7448	11.360500	0.000355	3.546202	1.201486	-0.000142
 937	9.3132e+01	2.7031	11.247460	0.000284	2.836962	0.961189	-0.000114
 938	9.3231e+01	2.6678	11.130383	0.000294	2.938282	0.995517	-0.000118
 939	9.3331e+01	2.6245	10.960824	0.000426	4.255443	1.441783	-0.000170
 940	9.3430e+01	2.5860	10.859895	0.000253	2.533002	0.858204	-0.000101
 941	9.3530e+01	2.5411	10.702447	0.000395	3.951483	1.338799	-0.000158
 942	9.3629e+01	2.4930	10.589407	0.000284	2.836962	0.961189	-0.000114
 943	9.3729e+01	2.4657	10.423884	0.000415	4.154123	1.407455	-0.000166
 944	9.3829e+01	2.4144	10.343142	0.000203	2.026401	0.686563	-0.000081
 945	9.3928e+01	2.3759	10.185693	0.000395	3.951483	1.338799	-0.000158
 946	9.4028e+01	2.3342	10.032282	0.000385	3.850163	1.304470	-0.000154
 947	9.4127e+01	2.2908	9.915205	0.000294	2.938282	0.995517	-0.000118
 948	9.4227e+01	2.2588	9.773906	0.000355	3.546202	1.201486	-0.000142
 949	9.4326e+01	2.2203	9.660866	0.000284	2.836962	0.961189	-0.000114
 950	9.4425e+01	2.1850	9.551863	0.000274	2.735642	0.926861	-0.000110
 951	9.4525e+01	2.1336	9.390378	0.000405	4.052803	1.373127	-0.000162
 952	9.4624e+01	2.0999	9.212744	0.000446	4.458083	1.510439	-0.000179
 953	9.4724e+01	2.0550	9.099704	0.000284	2.836962	0.961189	-0.000114
 954	9.4823e+01	2.0069	8.986664	0.000284	2.836962	0.961189	-0.000114
 955	9.4923e+01	1.9860	8.865550	0.000304	3.039602	1.029845	-0.000122
 956	9.5022e+01	1.9427	8.695990	0.000426	4.255443	1.441783	-0.000170
 957	9.5122e+01	1.8962	8.570839	0.000314	3.140922	1.064173	-0.000126
 958	9.5222e+01	1.8513	8.413391	0.000395	3.951483	1.338799	-0.000158
 959	9.5321e+01	1.8144	8.292277	0.000304	3.039602	1.029845	-0.000122
 960	9.5421e+01	1.7759	8.138866	0.000385	3.850163	1.304470	-0.000154
 961	9.5520e+01	1.7422	8.021789	0.000294	2.938282	0.995517	-0.000118
 962	9.5620e+01	1.7037	7.884526	0.000344	3.444882	1.167158	-0.000138
 963	9.5719e+01	1.6668	7.723041	0.000405	4.052803	1.373127	-0.000162
 964	9.5819e+01	1.6235	7.593852	0.000324	3.242242	1.098501	-0.000130
 965	9.5918e+01	1.5705	7.472738	0.000304	3.039602	1.029845	-0.000122
 966	9.6017e+01	1.5417	7.315290	0.000395	3.951483	1.338799	-0.000158
 967	9.6117e+01	1.4903	7.222436	0.000233	2.330362	0.789548	-0.000093
 968	9.6216e+01	1.4534	7.064988	0.000395	3.951483	1.338799	-0.000158
 969	9.6316e+01	1.4262	6.879279	0.000466	4.660723	1.579096	-0.000187
 970	9.6415e+01	1.3812	6.762202	0.000294	2.938282	0.995517	-0.000118
 971	9.6515e+01	1.3427	6.661274	0.000253	2.533002	0.858204	-0.000101
 972	9.6615e+01	1.3074	6.479603	0.000456	4.559403	1.544768	-0.000183
 973	9.6714e+01	1.2609	6.330229	0.000375	3.748843	1.270142	-0.000150
 974	9.6814e+01	1.2144	6.205078	0.000314	3.140922	1.064173	-0.000126
 975	9.6913e+01	1.1823	6.023407	0.000456	4.559403	1.544768	-0.000183
 976	9.7013e+01	1.1422	5.869995	0.000385	3.850163	1.304470	-0.000154
 977	9.7112e+01	1.1037	5.748881	0.000304	3.039602	1.029845	-0.000122
 978	9.7212e+01	1.0668	5.631804	0.000294	2.938282	0.995517	-0.000118
 979	9.7311e+01	1.0219	5.442059	0.000476	4.762043	1.613424	-0.000191
 980	9.7410e+01	0.9802	5.304796	0.000344	3.444882	1.167158	-0.000138
 981	9.7510e+01	0.9417	5.159459	0.000365	3.647522	1.235814	-0.000146
 982	9.7609e+01	0.9000	5.046420	0.000284	2.836962	0.961189	-0.000114
 983	9.7709e+01	0.8615	4.901083	0.000365	3.647522	1.235814	-0.000146
 984	9.7808e+01	0.8198	4.759783	0.000355	3.546202	1.201486	-0.000142
 985	9.7908e+01	0.7845	4.594260	0.000415	4.154123	1.407455	-0.000166
 986	9.8007e+01	0.7444	4.477184	0.000294	2.938282	0.995517	-0.000118
 987	9.8107e+01	0.6978	4.335884	0.000355	3.546202	1.201486	-0.000142
 988	9.8207e+01	0.6577	4.186510	0.000375	3.748843	1.270142	-0.000150
 989	9.8306e+01	0.6160	4.004839	0.000456	4.559403	1.544768	-0.000183
 990	9.8406e+01	0.5791	3.895836	0.000274	2.735642	0.926861	-0.000110
 991	9.8505e+01	0.5470	3.730313	0.000415	4.154123	1.407455	-0.000166
 992	9.8605e+01	0.5069	3.597088	0.000334	3.343562	1.132830	-0.000134
 993	9.8704e+01	0.4636	3.463862	0.000334	3.343562	1.132830	-0.000134
 994	9.8803e+01	0.4203	3.302377	0.000405	4.052803	1.373127	-0.000162
 995	9.8903e+01	0.3882	3.128780	0.000436	4.356763	1.476111	-0.000174
 996	9.9002e+01	0.3449	2.999592	0.000324	3.242242	1.098501	-0.000130
 997	9.9102e+01	0.3128	2.870404	0.000324	3.242242	1.098501	-0.000130
 998	9.9201e+01	0.2759	2.716992	0.000385	3.850163	1.304470	-0.000154
 999	9.9301e+01	0.2262	2.523210	0.000486	4.863363	1.647752	-0.000195
1000	9.9400e+01	0.1829	2.353650	0.000426	4.255443	1.441783	-0.000170
1001	9.9500e+01	0.1476	2.232536	0.000304	3.039602	1.029845	-0.000122
1002	9.9600e+01	0.1075	2.079125	0.000385	3.850163	1.304470	-0.000154
1003	9.9699e+01	0.0658	1.941862	0.000344	3.444882	1.167158	-0.000138
1004	9.9799e+01	0.0176	1.804600	0.000344	3.444882	1.167158	-0.000138
1005	9.9898e+01	-0.0064	1.687523	0.000294	2.938282	0.995517	-0.000118
1006	9.9998e+01	-0.0481	1.501814	0.000466	4.660723	1.579096	-0.000187
1007	1.0010e+02	-0.0738	1.396849	0.000263	2.634322	0.892532	-0.000105
1008	1.0020e+02	-0.1235	1.243438	0.000385	3.850163	1.304470	-0.000154
1009	1.0030e+02	-0.1700	1.106175	0.000344	3.444882	1.167158	-0.000138
1010	1.0040e+02	-0.2053	0.948727	0.000395	3.951483	1.338799	-0.000158
1011	1.0050e+02	-0.2471	0.839724	0.000274	2.735642	0.926861	-0.000110
1012	1.0059e+02	-0.2823	0.662090	0.000446	4.458083	1.510439	-0.000179
1013	1.0069e+02	-0.3257	0.508679	0.000385	3.850163	1.304470	-0.000154
1014	1.0079e+02	-0.3658	0.367379	0.000355	3.546202	1.201486	-0.000142
1015	1.0089e+02	-0.4059	0.238191	0.000324	3.242242	1.098501	-0.000130
1016	1.0099e+02	-0.4331	0.048446	0.000476	4.762043	1.613424	-0.000191
1017	1.0109e+02	-0.4861	-0.125151	0.000436	4.356763	1.476111	-0.000174
1018	1.0119e+02	-0.5198	-0.286637	0.000405	4.052803	1.373127	-0.000162
1019	1.0129e+02	-0.5663	-0.399676	0.000284	2.836962	0.961189	-0.000114
1020	1.0139e+02	-0.6016	-0.557125	0.000395	3.951483	1.338799	-0.000158
1021	1.0149e+02	-0.6465	-0.674202	0.000294	2.938282	0.995517	-0.000118
1022	1.0159e+02	-0.6882	-0.863947	0.000476	4.762043	1.613424	-0.000191
1023	1.0169e+02	-0.7299	-0.968913	0.000263	2.634322	0.892532	-0.000105
1024	1.0179e+02	-0.7732	-1.166732	0.000496	4.964683	1.682080	-0.000199
1025	1.0189e+02	-0.8069	-1.328218	0.000405	4.052803	1.373127	-0.000162
1026	1.0199e+02	-0.8406	-1.465480	0.000344	3.444882	1.167158	-0.000138
1027	1.0209e+02	-0.8887	-1.602743	0.000344	3.444882	1.167158	-0.000138
1028	1.0219e+02	-0.9240	-1.756154	0.000385	3.850163	1.304470	-0.000154
1029	1.0229e+02	-0.9690	-1.885342	0.000324	3.242242	1.098501	-0.000130
1030	1.0239e+02	-1.0123	-2.046828	0.000405	4.052803	1.373127	-0.000162
1031	1.0248e+02	-1.0492	-2.184090	0.000344	3.444882	1.167158	-0.000138
1032	1.0258e+02	-1.0796	-2.337502	0.000385	3.850163	1.304470	-0.000154
1033	1.0268e+02	-1.1246	-2.535321	0.000496	4.964683	1.682080	-0.000199
1034	1.0278e+02	-1.1631	-2.644324	0.000274	2.735642	0.926861	-0.000110
1035	1.0288e+02	-1.2000	-2.785624	0.000355	3.546202	1.201486	-0.000142
1036	1.0298e+02	-1.2481	-2.902701	0.000294	2.938282	0.995517	-0.000118
1037	1.0308e+02	-1.2770	-3.084372	0.000456	4.559403	1.544768	-0.000183
1038	1.0318e+02	-1.3251	-3.262006	0.000446	4.458083	1.510439	-0.000179
1039	1.0328e+02	-1.3668	-3.387157	0.000314	3.140922	1.064173	-0.000126
1040	1.0338e+02	-1.4005	-3.532494	0.000365	3.647522	1.235814	-0.000146
1041	1.0348e+02	-1.4454	-3.661682	0.000324	3.242242	1.098501	-0.000130
1042	1.0358e+02	-1.4887	-3.835279	0.000436	4.356763	1.476111	-0.000174
1043	1.0368e+02	-1.5240	-3.972542	0.000344	3.444882	1.167158	-0.000138
1044	1.0378e+02	-1.5625	-4.109804	0.000344	3.444882	1.167158	-0.000138
1045	1.0388e+02	-1.5962	-4.259178	0.000375	3.748843	1.270142	-0.000150
1046	1.0398e+02	-1.6363	-4.396441	0.000344	3.444882	1.167158	-0.000138
1047	1.0408e+02	-1.6780	-4.566001	0.000426	4.255443	1.441783	-0.000170
1048	1.0418e+02	-1.7213	-4.711337	0.000365	3.647522	1.235814	-0.000146
1049	1.0428e+02	-1.7598	-4.832451	0.000304	3.039602	1.029845	-0.000122
1050	1.0438e+02	-1.7967	-5.022197	0.000476	4.762043	1.613424	-0.000191
1051	1.0447e+02	-1.8385	-5.135237	0.000284	2.836962	0.961189	-0.000114
1052	1.0457e+02	-1.8850	-5.324982	0.000476	4.762043	1.613424	-0.000191
1053	1.0467e+02	-1.9155	-5.425910	0.000253	2.533002	0.858204	-0.000101
1054	1.0477e+02	-1.9652	-5.555099	0.000324	3.242242	1.098501	-0.000130
1055	1.0487e+02	-2.0053	-5.728696	0.000436	4.356763	1.476111	-0.000174
1056	1.0497e+02	-2.0422	-5.874032	0.000365	3.647522	1.235814	-0.000146
1057	1.0507e+02	-2.0871	-6.007258	0.000334	3.343562	1.132830	-0.000134
1058	1.0517e+02	-2.1256	-6.136446	0.000324	3.242242	1.098501	-0.000130
1059	1.0527e+02	-2.1625	-6.281783	0.000365	3.647522	1.235814	-0.000146
1060	1.0537e+02	-2.2026	-6.435194	0.000385	3.850163	1.304470	-0.000154
1061	1.0547e+02	-2.2411	-6.588606	0.000385	3.850163	1.304470	-0.000154
1062	1.0557e+02	-2.2780	-6.713757	0.000314	3.140922	1.064173	-0.000126
1063	1.0567e+02	-2.3069	-6.842945	0.000324	3.242242	1.098501	-0.000130
1064	1.0577e+02	-2.3550	-6.992319	0.000375	3.748843	1.270142	-0.000150
1065	1.0587e+02	-2.3999	-7.137656	0.000365	3.647522	1.235814	-0.000146
1066	1.0597e+02	-2.4352	-7.303179	0.000415	4.154123	1.407455	-0.000166
1067	1.0607e+02	-2.4769	-7.404107	0.000253	2.533002	0.858204	-0.000101
1068	1.0617e+02	-2.5202	-7.573667	0.000426	4.255443	1.441783	-0.000170
1069	1.0627e+02	-2.5588	-7.702855	0.000324	3.242242	1.098501	-0.000130
1070	1.0637e+02	-2.6005	-7.840118	0.000344	3.444882	1.167158	-0.000138
1071	1.0647e+02	-2.6454	-7.965269	0.000314	3.140922	1.064173	-0.000126
1072	1.0656e+02	-2.6775	-8.130791	0.000415	4.154123	1.407455	-0.000166
1073	1.0666e+02	-2.7144	-8.243831	0.000284	2.836962	0.961189	-0.000114
1074	1.0676e+02	-2.7593	-8.377057	0.000334	3.343562	1.132830	-0.000134
1075	1.0686e+02	-2.7962	-8.566802	0.000476	4.762043	1.613424	-0.000191
1076	1.0696e+02	-2.8283	-8.667730	0.000253	2.533002	0.858204	-0.000101
1077	1.0706e+02	-2.8780	-8.796919	0.000324	3.242242	1.098501	-0.000130
1078	1.0716e+02	-2.9149	-8.934181	0.000344	3.444882	1.167158	-0.000138
1079	1.0726e+02	-2.9550	-9.099704	0.000415	4.154123	1.407455	-0.000166
1080	1.0736e+02	-3.0079	-9.216781	0.000294	2.938282	0.995517	-0.000118
1081	1.0746e+02	-3.0384	-9.362118	0.000365	3.647522	1.235814	-0.000146
1082	1.0756e+02	-3.0689	-9.499380	0.000344	3.444882	1.167158	-0.000138
1083	1.0766e+02	-3.1283	-9.628569	0.000324	3.242242	1.098501	-0.000130
1084	1.0776e+02	-3.1475	-9.765831	0.000344	3.444882	1.167158	-0.000138
1085	1.0786e+02	-3.1924	-9.903094	0.000344	3.444882	1.167158	-0.000138
1086	1.0796e+02	-3.2229	-10.024208	0.000304	3.039602	1.029845	-0.000122
1087	1.0806e+02	-3.2807	-10.165508	0.000355	3.546202	1.201486	-0.000142
1088	1.0816e+02	-3.3176	-10.294696	0.000324	3.242242	1.098501	-0.000130
1089	1.0826e+02	-3.3545	-10.415810	0.000304	3.039602	1.029845	-0.000122
1090	1.0836e+02	-3.3962	-10.561147	0.000365	3.647522	1.235814	-0.000146
1091	1.0845e+02	-3.4218	-10.678224	0.000294	2.938282	0.995517	-0.000118
1092	1.0855e+02	-3.4732	-10.827598	0.000375	3.748843	1.270142	-0.000150
1093	1.0865e+02	-3.5197	-10.916415	0.000223	2.229041	0.755220	-0.000089
1094	1.0875e+02	-3.5502	-11.081938	0.000415	4.154123	1.407455	-0.000166
1095	1.0885e+02	-3.5999	-11.223237	0.000355	3.546202	1.201486	-0.000142
1096	1.0895e+02	-3.6336	-11.312054	0.000223	2.229041	0.755220	-0.000089
1097	1.0905e+02	-3.6705	-11.501800	0.000476	4.762043	1.613424	-0.000191
1098	1.0915e+02	-3.7154	-11.602728	0.000253	2.533002	0.858204	-0.000101
1099	1.0925e+02	-3.7539	-11.752102	0.000375	3.748843	1.270142	-0.000150
1100	1.0935e+02	-3.7876	-11.832845	0.000203	2.026401	0.686563	-0.000081
1101	1.0945e+02	-3.8389	-11.941848	0.000274	2.735642	0.926861	-0.000110
1102	1.0955e+02	-3.8678	-12.115444	0.000436	4.356763	1.476111	-0.000174
1103	1.0965e+02	-3.9047	-12.196187	0.000203	2.026401	0.686563	-0.000081
1104	1.0975e+02	-3.9560	-12.389970	0.000486	4.863363	1.647752	-0.000195
1105	1.0985e+02	-3.9945	-12.494935	0.000263	2.634322	0.892532	-0.000105
1106	1.0995e+02	-4.0427	-12.595864	0.000253	2.533002	0.858204	-0.000101
1107	1.1005e+02	-4.0715	-12.745238	0.000375	3.748843	1.270142	-0.000150
1108	1.1015e+02	-4.1084	-12.850203	0.000263	2.634322	0.892532	-0.000105
1109	1.1025e+02	-4.1502	-12.934983	0.000213	2.127721	0.720892	-0.000085
1110	1.1035e+02	-4.1935	-13.104543	0.000426	4.255443	1.441783	-0.000170
1111	1.1044e+02	-4.2304	-13.253917	0.000375	3.748843	1.270142	-0.000150
1112	1.1054e+02	-4.2705	-13.370994	0.000294	2.938282	0.995517	-0.000118
1113	1.1064e+02	-4.3074	-13.504219	0.000334	3.343562	1.132830	-0.000134
1114	1.1074e+02	-4.3523	-13.597073	0.000233	2.330362	0.789548	-0.000093
1115	1.1084e+02	-4.3812	-13.746447	0.000375	3.748843	1.270142	-0.000150
1116	1.1094e+02	-4.4341	-13.867561	0.000304	3.039602	1.029845	-0.000122
1117	1.1104e+02	-4.4710	-14.008861	0.000355	3.546202	1.201486	-0.000142
1118	1.1114e+02	-4.5063	-14.117864	0.000274	2.735642	0.926861	-0.000110
1119	1.1124e+02	-4.5496	-14.190532	0.000182	1.823761	0.617907	-0.000073
1120	1.1134e+02	-4.5881	-14.311646	0.000304	3.039602	1.029845	-0.000122
1121	1.1144e+02	-4.6250	-14.440835	0.000324	3.242242	1.098501	-0.000130
1122	1.1154e+02	-4.6699	-14.582134	0.000355	3.546202	1.201486	-0.000142
1123	1.1164e+02	-4.7100	-14.711323	0.000324	3.242242	1.098501	-0.000130
1124	1.1174e+02	-4.7549	-14.816288	0.000263	2.634322	0.892532	-0.000105
1125	1.1184e+02	-4.7902	-14.937402	0.000304	3.039602	1.029845	-0.000122
1126	1.1194e+02	-4.8352	-15.066591	0.000324	3.242242	1.098501	-0.000130
1127	1.1204e+02	-4.8769	-15.159445	0.000233	2.330362	0.789548	-0.000093
1128	1.1214e+02	-4.9122	-15.308819	0.000375	3.748843	1.270142	-0.000150
1129	1.1224e+02	-4.9394	-15.405710	0.000243	2.431682	0.823876	-0.000097
1130	1.1234e+02	-4.9956	-15.534898	0.000324	3.242242	1.098501	-0.000130
1131	1.1244e+02	-5.0277	-15.660050	0.000314	3.140922	1.064173	-0.000126
1132	1.1253e+02	-5.0678	-15.773089	0.000284	2.836962	0.961189	-0.000114
1133	1.1263e+02	-5.1063	-15.894203	0.000304	3.039602	1.029845	-0.000122
1134	1.1273e+02	-5.1512	-16.031466	0.000344	3.444882	1.167158	-0.000138
1135	1.1283e+02	-5.1913	-16.152580	0.000304	3.039602	1.029845	-0.000122
1136	1.1293e+02	-5.2250	-16.241397	0.000223	2.229041	0.755220	-0.000089
1137	1.1303e+02	-5.2651	-16.358474	0.000294	2.938282	0.995517	-0.000118
1138	1.1313e+02	-5.3100	-16.487662	0.000324	3.242242	1.098501	-0.000130
1139	1.1323e+02	-5.3565	-16.588591	0.000253	2.533002	0.858204	-0.000101
1140	1.1333e+02	-5.3822	-16.701631	0.000284	2.836962	0.961189	-0.000114
1141	1.1343e+02	-5.4287	-16.822745	0.000304	3.039602	1.029845	-0.000122
1142	1.1353e+02	-5.4624	-16.960007	0.000344	3.444882	1.167158	-0.000138
1143	1.1363e+02	-5.5057	-17.048824	0.000223	2.229041	0.755220	-0.000089
1144	1.1373e+02	-5.5458	-17.186087	0.000344	3.444882	1.167158	-0.000138
1145	1.1383e+02	-5.5875	-17.291052	0.000263	2.634322	0.892532	-0.000105
1146	1.1393e+02	-5.6389	-17.428315	0.000344	3.444882	1.167158	-0.000138
1147	1.1403e+02	-5.6662	-17.521169	0.000233	2.330362	0.789548	-0.000093
1148	1.1413e+02	-5.7127	-17.614023	0.000233	2.330362	0.789548	-0.000093
1149	1.1423e+02	-5.7448	-17.747249	0.000334	3.343562	1.132830	-0.000134
1150	1.1433e+02	-5.7865	-17.864326	0.000294	2.938282	0.995517	-0.000118
1151	1.1442e+02	-5.8266	-17.969291	0.000263	2.634322	0.892532	-0.000105
1152	1.1452e+02	-5.8619	-18.082331	0.000284	2.836962	0.961189	-0.000114
1153	1.1462e+02	-5.9100	-18.211519	0.000324	3.242242	1.098501	-0.000130
1154	1.1472e+02	-5.9517	-18.340708	0.000324	3.242242	1.098501	-0.000130
1155	1.1482e+02	-5.9822	-18.445673	0.000263	2.634322	0.892532	-0.000105
1156	1.1492e+02	-6.0271	-18.550639	0.000263	2.634322	0.892532	-0.000105
1157	1.1502e+02	-6.0624	-18.635419	0.000213	2.127721	0.720892	-0.000085
1158	1.1512e+02	-6.1121	-18.788830	0.000385	3.850163	1.304470	-0.000154
1159	1.1522e+02	-6.1410	-18.893795	0.000263	2.634322	0.892532	-0.000105
1160	1.1532e+02	-6.1811	-18.982612	0.000223	2.229041	0.755220	-0.000089
1161	1.1542e+02	-6.2244	-19.099689	0.000294	2.938282	0.995517	-0.000118
1162	1.1552e+02	-6.2677	-19.208692	0.000274	2.735642	0.926861	-0.000110
1163	1.1562e+02	-6.3111	-19.337880	0.000324	3.242242	1.098501	-0.000130
1164	1.1572e+02	-6.3479	-19.426697	0.000223	2.229041	0.755220	-0.000089
1165	1.1582e+02	-6.3929	-19.612405	0.000466	4.660723	1.579096	-0.000187
1166	1.1592e+02	-6.4282	-19.677000	0.000162	1.621121	0.549251	-0.000065
1167	1.1602e+02	-6.4554	-19.781965	0.000263	2.634322	0.892532	-0.000105
1168	1.1612e+02	-6.5004	-19.866745	0.000213	2.127721	0.720892	-0.000085
1169	1.1622e+02	-6.5324	-19.987859	0.000304	3.039602	1.029845	-0.000122
1170	1.1632e+02	-6.5822	-20.064565	0.000193	1.925081	0.652235	-0.000077
1171	1.1642e+02	-6.6239	-20.181642	0.000294	2.938282	0.995517	-0.000118
1172	1.1651e+02	-6.6640	-20.314867	0.000334	3.343562	1.132830	-0.000134
1173	1.1661e+02	-6.7057	-20.427907	0.000284	2.836962	0.961189	-0.000114
1174	1.1671e+02	-6.7394	-20.524798	0.000243	2.431682	0.823876	-0.000097
1175	1.1681e+02	-6.7811	-20.621689	0.000243	2.431682	0.823876	-0.000097
1176	1.1691e+02	-6.8228	-20.718581	0.000243	2.431682	0.823876	-0.000097
1177	1.1701e+02	-6.8613	-20.831620	0.000284	2.836962	0.961189	-0.000114
1178	1.1711e+02	-6.8998	-20.956772	0.000314	3.140922	1.064173	-0.000126
1179	1.1721e+02	-6.9303	-21.045589	0.000223	2.229041	0.755220	-0.000089
1180	1.1731e+02	-6.9832	-21.162666	0.000294	2.938282	0.995517	-0.000118
1181	1.1741e+02	-7.0185	-21.291854	0.000324	3.242242	1.098501	-0.000130
1182	1.1751e+02	-7.0522	-21.404894	0.000284	2.836962	0.961189	-0.000114
1183	1.1761e+02	-7.1068	-21.485636	0.000203	2.026401	0.686563	-0.000081
1184	1.1771e+02	-7.1324	-21.610788	0.000314	3.140922	1.064173	-0.000126
1185	1.1781e+02	-7.1741	-21.731902	0.000304	3.039602	1.029845	-0.000122
1186	1.1791e+02	-7.2190	-21.804570	0.000182	1.823761	0.617907	-0.000073
1187	1.1801e+02	-7.2592	-21.929721	0.000314	3.140922	1.064173	-0.000126
1188	1.1811e+02	-7.2993	-22.046798	0.000294	2.938282	0.995517	-0.000118
1189	1.1821e+02	-7.3378	-22.151764	0.000263	2.634322	0.892532	-0.000105
1190	1.1831e+02	-7.3714	-22.236544	0.000213	2.127721	0.720892	-0.000085
1191	1.1841e+02	-7.4164	-22.353621	0.000294	2.938282	0.995517	-0.000118
1192	1.1850e+02	-7.4549	-22.478772	0.000314	3.140922	1.064173	-0.000126
1193	1.1860e+02	-7.4934	-22.579700	0.000253	2.533002	0.858204	-0.000101
1194	1.1870e+02	-7.5383	-22.712926	0.000334	3.343562	1.132830	-0.000134
1195	1.1880e+02	-7.5768	-22.793668	0.000203	2.026401	0.686563	-0.000081
1196	1.1890e+02	-7.6201	-22.902671	0.000274	2.735642	0.926861	-0.000110
1197	1.1900e+02	-7.6570	-23.011674	0.000274	2.735642	0.926861	-0.000110
1198	1.1910e+02	-7.7035	-23.080305	0.000172	1.722441	0.583579	-0.000069
1199	1.1920e+02	-7.7404	-23.233716	0.000385	3.850163	1.304470	-0.000154
1200	1.1930e+02	-7.7645	-23.338682	0.000263	2.634322	0.892532	-0.000105
1201	1.1940e+02	-7.8190	-23.423462	0.000213	2.127721	0.720892	-0.000085
1202	1.1950e+02	-7.8543	-23.536501	0.000284	2.836962	0.961189	-0.000114
1203	1.1960e+02	-7.8912	-23.613207	0.000193	1.925081	0.652235	-0.000077
1204	1.1970e+02	-7.9361	-23.730284	0.000294	2.938282	0.995517	-0.000118
1205	1.1980e+02	-7.9795	-23.827175	0.000243	2.431682	0.823876	-0.000097
1206	1.1990e+02	-8.0164	-23.903881	0.000193	1.925081	0.652235	-0.000077
1207	1.2000e+02	-8.0565	-24.041143	0.000344	3.444882	1.167158	-0.000138
1208	1.2010e+02	-8.0918	-24.138035	0.000243	2.431682	0.823876	-0.000097
1209	1.2020e+02	-8.1335	-24.251074	0.000284	2.836962	0.961189	-0.000114
1210	1.2030e+02	-8.1704	-24.339891	0.000223	2.229041	0.755220	-0.000089
1211	1.2039e+02	-8.2121	-24.473117	0.000334	3.343562	1.132830	-0.000134
1212	1.2049e+02	-8.2586	-24.570008	0.000243	2.431682	0.823876	-0.000097
1213	1.2059e+02	-8.2939	-24.646714	0.000193	1.925081	0.652235	-0.000077
1214	1.2069e+02	-8.3260	-24.792051	0.000365	3.647522	1.235814	-0.000146
1215	1.2079e+02	-8.3773	-24.844533	0.000132	1.317161	0.446266	-0.000053
1216	1.2089e+02	-8.4094	-24.965647	0.000304	3.039602	1.029845	-0.000122
1217	1.2099e+02	-8.4607	-25.086761	0.000304	3.039602	1.029845	-0.000122
1218	1.2109e+02	-8.4928	-25.171541	0.000213	2.127721	0.720892	-0.000085
1219	1.2119e+02	-8.5457	-25.284581	0.000284	2.836962	0.961189	-0.000114
1220	1.2129e+02	-8.5762	-25.365324	0.000203	2.026401	0.686563	-0.000081
1221	1.2139e+02	-8.6179	-25.514698	0.000375	3.748843	1.270142	-0.000150
1222	1.2149e+02	-8.6580	-25.599478	0.000213	2.127721	0.720892	-0.000085
1223	1.2159e+02	-8.6949	-25.692332	0.000233	2.330362	0.789548	-0.000093
1224	1.2169e+02	-8.7350	-25.769037	0.000193	1.925081	0.652235	-0.000077
1225	1.2179e+02	-8.7671	-25.914374	0.000365	3.647522	1.235814	-0.000146
1226	1.2189e+02	-8.8072	-25.991080	0.000193	1.925081	0.652235	-0.000077
1227	1.2199e+02	-8.8554	-26.100083	0.000274	2.735642	0.926861	-0.000110
1228	1.2209e+02	-8.8939	-26.196974	0.000243	2.431682	0.823876	-0.000097
1229	1.2219e+02	-8.9340	-26.261568	0.000162	1.621121	0.549251	-0.000065
1230	1.2229e+02	-8.9677	-26.382682	0.000304	3.039602	1.029845	-0.000122
1231	1.2239e+02	-9.0126	-26.515908	0.000334	3.343562	1.132830	-0.000134
1232	1.2248e+02	-9.0479	-26.596650	0.000203	2.026401	0.686563	-0.000081
1233	1.2258e+02	-9.0944	-26.713727	0.000294	2.938282	0.995517	-0.000118
1234	1.2268e+02	-9.1265	-26.778321	0.000162	1.621121	0.549251	-0.000065
1235	1.2278e+02	-9.1778	-26.911547	0.000334	3.343562	1.132830	-0.000134
1236	1.2288e+02	-9.2083	-27.000364	0.000223	2.229041	0.755220	-0.000089
1237	1.2298e+02	-9.2580	-27.113404	0.000284	2.836962	0.961189	-0.000114
1238	1.2308e+02	-9.2933	-27.198183	0.000213	2.127721	0.720892	-0.000085
1239	1.2318e+02	-9.3334	-27.323335	0.000314	3.140922	1.064173	-0.000126
1240	1.2328e+02	-9.3671	-27.400040	0.000193	1.925081	0.652235	-0.000077
1241	1.2338e+02	-9.4217	-27.484820	0.000213	2.127721	0.720892	-0.000085
1242	1.2348e+02	-9.4473	-27.581711	0.000243	2.431682	0.823876	-0.000097
1243	1.2358e+02	-9.4938	-27.706863	0.000314	3.140922	1.064173	-0.000126
1244	1.2368e+02	-9.5259	-27.795680	0.000223	2.229041	0.755220	-0.000089
1245	1.2378e+02	-9.5644	-27.916794	0.000304	3.039602	1.029845	-0.000122
1246	1.2388e+02	-9.6094	-28.041945	0.000314	3.140922	1.064173	-0.000126
1247	1.2398e+02	-9.6446	-28.094428	0.000132	1.317161	0.446266	-0.000053
1248	1.2408e+02	-9.6799	-28.175170	0.000203	2.026401	0.686563	-0.000081
1249	1.2418e+02	-9.7281	-28.280136	0.000263	2.634322	0.892532	-0.000105
1250	1.2428e+02	-9.7666	-28.381064	0.000253	2.533002	0.858204	-0.000101
1251	1.2438e+02	-9.8067	-28.490067	0.000274	2.735642	0.926861	-0.000110
1252	1.2447e+02	-9.8548	-28.562735	0.000182	1.823761	0.617907	-0.000073
1253	1.2457e+02	-9.8869	-28.699998	0.000344	3.444882	1.167158	-0.000138
1254	1.2467e+02	-9.9190	-28.760555	0.000152	1.519801	0.514923	-0.000061
1255	1.2477e+02	-9.9735	-28.897818	0.000344	3.444882	1.167158	-0.000138
1256	1.2487e+02	-10.0104	-28.918003	0.000051	0.506600	0.171641	-0.000020
1257	1.2497e+02	-10.0473	-29.051229	0.000334	3.343562	1.132830	-0.000134
1258	1.2507e+02	-10.0842	-29.168306	0.000294	2.938282	0.995517	-0.000118
1259	1.2517e+02	-10.1307	-29.249048	0.000203	2.026401	0.686563	-0.000081
1260	1.2527e+02	-10.1740	-29.382274	0.000334	3.343562	1.132830	-0.000134
1261	1.2537e+02	-10.2174	-29.487239	0.000263	2.634322	0.892532	-0.000105
1262	1.2547e+02	-10.2430	-29.563945	0.000193	1.925081	0.652235	-0.000077
1263	1.2557e+02	-10.2879	-29.672948	0.000274	2.735642	0.926861	-0.000110
1264	1.2567e+02	-10.3297	-29.761765	0.000223	2.229041	0.755220	-0.000089
1265	1.2577e+02	-10.3666	-29.878842	0.000294	2.938282	0.995517	-0.000118
1266	1.2587e+02	-10.4083	-29.935361	0.000142	1.418481	0.480594	-0.000057
1267	1.2597e+02	-10.4420	-30.032253	0.000243	2.431682	0.823876	-0.000097
1268	1.2607e+02	-10.4885	-30.108958	0.000193	1.925081	0.652235	-0.000077
1269	1.2617e+02	-10.5238	-30.209887	0.000253	2.533002	0.858204	-0.000101
1270	1.2627e+02	-10.5607	-30.318889	0.000274	2.735642	0.926861	-0.000110
1271	1.2636e+02	-10.6056	-30.423855	0.000263	2.634322	0.892532	-0.000105
1272	1.2646e+02	-10.6457	-30.528820	0.000263	2.634322	0.892532	-0.000105
1273	1.2656e+02	-10.6890	-30.633786	0.000263	2.634322	0.892532	-0.000105
1274	1.2666e+02	-10.7195	-30.734714	0.000253	2.533002	0.858204	-0.000101
1275	1.2676e+02	-10.7628	-30.827568	0.000233	2.330362	0.789548	-0.000093
1276	1.2686e+02	-10.8045	-30.900237	0.000182	1.823761	0.617907	-0.000073
1277	1.2696e+02	-10.8558	-30.993091	0.000233	2.330362	0.789548	-0.000093
1278	1.2706e+02	-10.8847	-31.085945	0.000233	2.330362	0.789548	-0.000093
1279	1.2716e+02	-10.9184	-31.170725	0.000213	2.127721	0.720892	-0.000085
1280	1.2726e+02	-10.9633	-31.283765	0.000284	2.836962	0.961189	-0.000114
1281	1.2736e+02	-11.0098	-31.392767	0.000274	2.735642	0.926861	-0.000110
1282	1.2746e+02	-11.0419	-31.457362	0.000162	1.621121	0.549251	-0.000065
1283	1.2756e+02	-11.0788	-31.558290	0.000253	2.533002	0.858204	-0.000101
1284	1.2766e+02	-11.1189	-31.667293	0.000274	2.735642	0.926861	-0.000110
1285	1.2776e+02	-11.1590	-31.756110	0.000223	2.229041	0.755220	-0.000089
1286	1.2786e+02	-11.1911	-31.844927	0.000223	2.229041	0.755220	-0.000089
1287	1.2796e+02	-11.2441	-31.929707	0.000213	2.127721	0.720892	-0.000085
1288	1.2806e+02	-11.2842	-31.994301	0.000162	1.621121	0.549251	-0.000065
1289	1.2816e+02	-11.3275	-32.123489	0.000324	3.242242	1.098501	-0.000130
1290	1.2826e+02	-11.3564	-32.224417	0.000253	2.533002	0.858204	-0.000101
1291	1.2835e+02	-11.3997	-32.325346	0.000253	2.533002	0.858204	-0.000101
1292	1.2845e+02	-11.4350	-32.426274	0.000253	2.533002	0.858204	-0.000101
1293	1.2855e+02	-11.4863	-32.490868	0.000162	1.621121	0.549251	-0.000065
1294	1.2865e+02	-11.5216	-32.571611	0.000203	2.026401	0.686563	-0.000081
1295	1.2875e+02	-11.5665	-32.688688	0.000294	2.938282	0.995517	-0.000118
1296	1.2885e+02	-11.5970	-32.733097	0.000111	1.114521	0.377610	-0.000045
1297	1.2895e+02	-11.6435	-32.898619	0.000415	4.154123	1.407455	-0.000166
1298	1.2905e+02	-11.6788	-32.963213	0.000162	1.621121	0.549251	-0.000065
1299	1.2915e+02	-11.7205	-33.060105	0.000243	2.431682	0.823876	-0.000097
1300	1.2925e+02	-11.7590	-33.173144	0.000284	2.836962	0.961189	-0.000114
1301	1.2935e+02	-11.7975	-33.261961	0.000223	2.229041	0.755220	-0.000089
1302	1.2945e+02	-11.8344	-33.375001	0.000284	2.836962	0.961189	-0.000114
1303	1.2955e+02	-11.8842	-33.419410	0.000111	1.114521	0.377610	-0.000045
1304	1.2965e+02	-11.9211	-33.524375	0.000263	2.634322	0.892532	-0.000105
1305	1.2975e+02	-11.9499	-33.617229	0.000233	2.330362	0.789548	-0.000093
1306	1.2985e+02	-12.0093	-33.706046	0.000223	2.229041	0.755220	-0.000089
1307	1.2995e+02	-12.0382	-33.758529	0.000132	1.317161	0.446266	-0.000053
1308	1.3005e+02	-12.0831	-33.879643	0.000304	3.039602	1.029845	-0.000122
1309	1.3015e+02	-12.1168	-33.964423	0.000213	2.127721	0.720892	-0.000085
1310	1.3025e+02	-12.1585	-34.105723	0.000355	3.546202	1.201486	-0.000142
1311	1.3034e+02	-12.2050	-34.166280	0.000152	1.519801	0.514923	-0.000061
1312	1.3044e+02	-12.2419	-34.279320	0.000284	2.836962	0.961189	-0.000114
1313	1.3054e+02	-12.2724	-34.339877	0.000152	1.519801	0.514923	-0.000061
1314	1.3064e+02	-12.3221	-34.428694	0.000223	2.229041	0.755220	-0.000089
1315	1.3074e+02	-12.3606	-34.557882	0.000324	3.242242	1.098501	-0.000130
1316	1.3084e+02	-12.3991	-34.618439	0.000152	1.519801	0.514923	-0.000061
1317	1.3094e+02	-12.4408	-34.743590	0.000314	3.140922	1.064173	-0.000126
1318	1.3104e+02	-12.4777	-34.828370	0.000213	2.127721	0.720892	-0.000085
1319	1.3114e+02	-12.5258	-34.876816	0.000122	1.215841	0.411938	-0.000049
1320	1.3124e+02	-12.5611	-35.018115	0.000355	3.546202	1.201486	-0.000142
1321	1.3134e+02	-12.5884	-35.082710	0.000162	1.621121	0.549251	-0.000065
1322	1.3144e+02	-12.6381	-35.191712	0.000274	2.735642	0.926861	-0.000110
1323	1.3154e+02	-12.6718	-35.248232	0.000142	1.418481	0.480594	-0.000057
1324	1.3164e+02	-12.7200	-35.341086	0.000233	2.330362	0.789548	-0.000093
1325	1.3174e+02	-12.7537	-35.417792	0.000193	1.925081	0.652235	-0.000077
1326	1.3184e+02	-12.8002	-35.546980	0.000324	3.242242	1.098501	-0.000130
1327	1.3194e+02	-12.8419	-35.591389	0.000111	1.114521	0.377610	-0.000045
1328	1.3204e+02	-12.8772	-35.728651	0.000344	3.444882	1.167158	-0.000138
1329	1.3214e+02	-12.9157	-35.797283	0.000172	1.722441	0.583579	-0.000069
1330	1.3224e+02	-12.9510	-35.882062	0.000213	2.127721	0.720892	-0.000085
1331	1.3234e+02	-12.9959	-35.966842	0.000213	2.127721	0.720892	-0.000085
1332	1.3243e+02	-13.0376	-36.043548	0.000193	1.925081	0.652235	-0.000077
1333	1.3253e+02	-13.0745	-36.132365	0.000223	2.229041	0.755220	-0.000089
1334	1.3263e+02	-13.1130	-36.233293	0.000253	2.533002	0.858204	-0.000101
1335	1.3273e+02	-13.1467	-36.374593	0.000355	3.546202	1.201486	-0.000142
1336	1.3283e+02	-13.1932	-36.443224	0.000172	1.722441	0.583579	-0.000069
1337	1.3293e+02	-13.2381	-36.528004	0.000213	2.127721	0.720892	-0.000085
1338	1.3303e+02	-13.2718	-36.592598	0.000162	1.621121	0.549251	-0.000065
1339	1.3313e+02	-13.3103	-36.750047	0.000395	3.951483	1.338799	-0.000158
1340	1.3323e+02	-13.3520	-36.818678	0.000172	1.722441	0.583579	-0.000069
1341	1.3333e+02	-13.3953	-36.899421	0.000203	2.026401	0.686563	-0.000081
1342	1.3343e+02	-13.4371	-36.935755	0.000091	0.911881	0.308954	-0.000037
1343	1.3353e+02	-13.4772	-37.056869	0.000304	3.039602	1.029845	-0.000122
1344	1.3363e+02	-13.5125	-37.125500	0.000172	1.722441	0.583579	-0.000069
1345	1.3373e+02	-13.5510	-37.246614	0.000304	3.039602	1.029845	-0.000122
1346	1.3383e+02	-13.5943	-37.307171	0.000152	1.519801	0.514923	-0.000061
1347	1.3393e+02	-13.6376	-37.391951	0.000213	2.127721	0.720892	-0.000085
1348	1.3403e+02	-13.6681	-37.513065	0.000304	3.039602	1.029845	-0.000122
1349	1.3413e+02	-13.7066	-37.573622	0.000152	1.519801	0.514923	-0.000061
1350	1.3423e+02	-13.7531	-37.694736	0.000304	3.039602	1.029845	-0.000122
1351	1.3432e+02	-13.7996	-37.759331	0.000162	1.621121	0.549251	-0.000065
1352	1.3442e+02	-13.8285	-37.888519	0.000324	3.242242	1.098501	-0.000130
1353	1.3452e+02	-13.8766	-37.936965	0.000122	1.215841	0.411938	-0.000049
1354	1.3462e+02	-13.9151	-38.029819	0.000233	2.330362	0.789548	-0.000093
1355	1.3472e+02	-13.9504	-38.118636	0.000223	2.229041	0.755220	-0.000089
1356	1.3482e+02	-13.9953	-38.219564	0.000253	2.533002	0.858204	-0.000101
1357	1.3492e+02	-14.0338	-38.324530	0.000263	2.634322	0.892532	-0.000105
1358	1.3502e+02	-14.0659	-38.405272	0.000203	2.026401	0.686563	-0.000081
1359	1.3512e+02	-14.1189	-38.441606	0.000091	0.911881	0.308954	-0.000037
1360	1.3522e+02	-14.1574	-38.574832	0.000334	3.343562	1.132830	-0.000134
1361	1.3532e+02	-14.1878	-38.639426	0.000162	1.621121	0.549251	-0.000065
1362	1.3542e+02	-14.2360	-38.720169	0.000203	2.026401	0.686563	-0.000081
1363	1.3552e+02	-14.2664	-38.808986	0.000223	2.229041	0.755220	-0.000089
1364	1.3562e+02	-14.3178	-38.934137	0.000314	3.140922	1.064173	-0.000126
1365	1.3572e+02	-14.3467	-39.022954	0.000223	2.229041	0.755220	-0.000089
1366	1.3582e+02	-14.3868	-39.107734	0.000213	2.127721	0.720892	-0.000085
1367	1.3592e+02	-14.4381	-39.216737	0.000274	2.735642	0.926861	-0.000110
1368	1.3602e+02	-14.4686	-39.301516	0.000213	2.127721	0.720892	-0.000085
1369	1.3612e+02	-14.5135	-39.374185	0.000182	1.823761	0.617907	-0.000073
1370	1.3622e+02	-14.5520	-39.422630	0.000122	1.215841	0.411938	-0.000049
1371	1.3631e+02	-14.5825	-39.531633	0.000274	2.735642	0.926861	-0.000110
1372	1.3641e+02	-14.6258	-39.628524	0.000243	2.431682	0.823876	-0.000097
1373	1.3651e+02	-14.6675	-39.721379	0.000233	2.330362	0.789548	-0.000093
1374	1.3661e+02	-14.7204	-39.802121	0.000203	2.026401	0.686563	-0.000081
1375	1.3671e+02	-14.7429	-39.874790	0.000182	1.823761	0.617907	-0.000073
1376	1.3681e+02	-14.7830	-39.971681	0.000243	2.431682	0.823876	-0.000097
1377	1.3691e+02	-14.8327	-40.032238	0.000152	1.519801	0.514923	-0.000061
1378	1.3701e+02	-14.8728	-40.169501	0.000344	3.444882	1.167158	-0.000138
1379	1.3711e+02	-14.9146	-40.238132	0.000172	1.722441	0.583579	-0.000069
1380	1.3721e+02	-14.9450	-40.330986	0.000233	2.330362	0.789548	-0.000093
1381	1.3731e+02	-14.9883	-40.411729	0.000203	2.026401	0.686563	-0.000081
1382	1.3741e+02	-15.0268	-40.492471	0.000203	2.026401	0.686563	-0.000081
1383	1.3751e+02	-15.0670	-40.585326	0.000233	2.330362	0.789548	-0.000093
1384	1.3761e+02	-15.1039	-40.682217	0.000243	2.431682	0.823876	-0.000097
1385	1.3771e+02	-15.1440	-40.746811	0.000162	1.621121	0.549251	-0.000065
1386	1.3781e+02	-15.1841	-40.855814	0.000274	2.735642	0.926861	-0.000110
1387	1.3791e+02	-15.2210	-40.916371	0.000152	1.519801	0.514923	-0.000061
1388	1.3801e+02	-15.2659	-41.025373	0.000274	2.735642	0.926861	-0.000110
1389	1.3811e+02	-15.3172	-41.089968	0.000162	1.621121	0.549251	-0.000065
1390	1.3821e+02	-15.3429	-41.174747	0.000213	2.127721	0.720892	-0.000085
1391	1.3831e+02	-15.3862	-41.275676	0.000253	2.533002	0.858204	-0.000101
1392	1.3840e+02	-15.4311	-41.376604	0.000253	2.533002	0.858204	-0.000101
1393	1.3850e+02	-15.4680	-41.493681	0.000294	2.938282	0.995517	-0.000118
1394	1.3860e+02	-15.5113	-41.554238	0.000152	1.519801	0.514923	-0.000061
1395	1.3870e+02	-15.5418	-41.602684	0.000122	1.215841	0.411938	-0.000049
1396	1.3880e+02	-15.5803	-41.707649	0.000263	2.634322	0.892532	-0.000105
1397	1.3890e+02	-15.6188	-41.820689	0.000284	2.836962	0.961189	-0.000114
1398	1.3900e+02	-15.6718	-41.889320	0.000172	1.722441	0.583579	-0.000069
1399	1.3910e+02	-15.7070	-41.966026	0.000193	1.925081	0.652235	-0.000077
1400	1.3920e+02	-15.7504	-42.062917	0.000243	2.431682	0.823876	-0.000097
1401	1.3930e+02	-15.7840	-42.163846	0.000253	2.533002	0.858204	-0.000101
1402	1.3940e+02	-15.8290	-42.236514	0.000182	1.823761	0.617907	-0.000073
1403	1.3950e+02	-15.8594	-42.333405	0.000243	2.431682	0.823876	-0.000097
1404	1.3960e+02	-15.9076	-42.422222	0.000223	2.229041	0.755220	-0.000089
1405	1.3970e+02	-15.9461	-42.486817	0.000162	1.621121	0.549251	-0.000065
1406	1.3980e+02	-15.9782	-42.559485	0.000182	1.823761	0.617907	-0.000073
1407	1.3990e+02	-16.0247	-42.648302	0.000223	2.229041	0.755220	-0.000089
1408	1.4000e+02	-16.0648	-42.733082	0.000213	2.127721	0.720892	-0.000085
1409	1.4010e+02	-16.1081	-42.874382	0.000355	3.546202	1.201486	-0.000142
1410	1.4020e+02	-16.1418	-42.943013	0.000172	1.722441	0.583579	-0.000069
1411	1.4029e+02	-16.1867	-43.003570	0.000152	1.519801	0.514923	-0.000061
1412	1.4039e+02	-16.2156	-43.104498	0.000253	2.533002	0.858204	-0.000101
1413	1.4049e+02	-16.2605	-43.185241	0.000203	2.026401	0.686563	-0.000081
1414	1.4059e+02	-16.3054	-43.286169	0.000253	2.533002	0.858204	-0.000101
1415	1.4069e+02	-16.3375	-43.322504	0.000091	0.911881	0.308954	-0.000037
1416	1.4079e+02	-16.3904	-43.443618	0.000304	3.039602	1.029845	-0.000122
1417	1.4089e+02	-16.4161	-43.544546	0.000253	2.533002	0.858204	-0.000101
1418	1.4099e+02	-16.4546	-43.576843	0.000081	0.810561	0.274625	-0.000032
1419	1.4109e+02	-16.5027	-43.722180	0.000365	3.647522	1.235814	-0.000146
1420	1.4119e+02	-16.5461	-43.762551	0.000101	1.013201	0.343282	-0.000041
1421	1.4129e+02	-16.5749	-43.855406	0.000233	2.330362	0.789548	-0.000093
1422	1.4139e+02	-16.6215	-43.964408	0.000274	2.735642	0.926861	-0.000110
1423	1.4149e+02	-16.6632	-44.041114	0.000193	1.925081	0.652235	-0.000077
1424	1.4159e+02	-16.7097	-44.089559	0.000122	1.215841	0.411938	-0.000049
1425	1.4169e+02	-16.7530	-44.218748	0.000324	3.242242	1.098501	-0.000130
1426	1.4179e+02	-16.7706	-44.295453	0.000193	1.925081	0.652235	-0.000077
1427	1.4189e+02	-16.8204	-44.404456	0.000274	2.735642	0.926861	-0.000110
1428	1.4199e+02	-16.8589	-44.460976	0.000142	1.418481	0.480594	-0.000057
1429	1.4209e+02	-16.9102	-44.565941	0.000263	2.634322	0.892532	-0.000105
1430	1.4219e+02	-16.9407	-44.683018	0.000294	2.938282	0.995517	-0.000118
1431	1.4228e+02	-16.9840	-44.767798	0.000213	2.127721	0.720892	-0.000085
1432	1.4238e+02	-17.0289	-44.832392	0.000162	1.621121	0.549251	-0.000065
1433	1.4248e+02	-17.0562	-44.905061	0.000182	1.823761	0.617907	-0.000073
1434	1.4258e+02	-17.1075	-44.973692	0.000172	1.722441	0.583579	-0.000069
1435	1.4268e+02	-17.1509	-45.102880	0.000324	3.242242	1.098501	-0.000130
1436	1.4278e+02	-17.1797	-45.179586	0.000193	1.925081	0.652235	-0.000077
1437	1.4288e+02	-17.2230	-45.260329	0.000203	2.026401	0.686563	-0.000081
1438	1.4298e+02	-17.2615	-45.373369	0.000284	2.836962	0.961189	-0.000114
1439	1.4308e+02	-17.3033	-45.446037	0.000182	1.823761	0.617907	-0.000073
1440	1.4318e+02	-17.3369	-45.571188	0.000314	3.140922	1.064173	-0.000126
1441	1.4328e+02	-17.3803	-45.615597	0.000111	1.114521	0.377610	-0.000045
1442	1.4338e+02	-17.4172	-45.716525	0.000253	2.533002	0.858204	-0.000101
1443	1.4348e+02	-17.4557	-45.829565	0.000284	2.836962	0.961189	-0.000114
1444	1.4358e+02	-17.5038	-45.865899	0.000091	0.911881	0.308954	-0.000037
1445	1.4368e+02	-17.5455	-45.934530	0.000172	1.722441	0.583579	-0.000069
1446	1.4378e+02	-17.5776	-46.067756	0.000334	3.343562	1.132830	-0.000134
1447	1.4388e+02	-17.6145	-46.120239	0.000132	1.317161	0.446266	-0.000053
1448	1.4398e+02	-17.6578	-46.213093	0.000233	2.330362	0.789548	-0.000093
1449	1.4408e+02	-17.7059	-46.309984	0.000243	2.431682	0.823876	-0.000097
1450	1.4418e+02	-17.7412	-46.410912	0.000253	2.533002	0.858204	-0.000101
1451	1.4428e+02	-17.7781	-46.507804	0.000243	2.431682	0.823876	-0.000097
1452	1.4437e+02	-17.8150	-46.564324	0.000142	1.418481	0.480594	-0.000057
1453	1.4447e+02	-17.8615	-46.701586	0.000344	3.444882	1.167158	-0.000138
1454	1.4457e+02	-17.8984	-46.737920	0.000091	0.911881	0.308954	-0.000037
1455	1.4467e+02	-17.9385	-46.830775	0.000233	2.330362	0.789548	-0.000093
1456	1.4477e+02	-17.9706	-46.911517	0.000203	2.026401	0.686563	-0.000081
1457	1.4487e+02	-18.0300	-47.000334	0.000223	2.229041	0.755220	-0.000089
1458	1.4497e+02	-18.0605	-47.093188	0.000233	2.330362	0.789548	-0.000093
1459	1.4507e+02	-18.0990	-47.202191	0.000274	2.735642	0.926861	-0.000110
1460	1.4517e+02	-18.1342	-47.274859	0.000182	1.823761	0.617907	-0.000073
1461	1.4527e+02	-18.1776	-47.347528	0.000182	1.823761	0.617907	-0.000073
1462	1.4537e+02	-18.2177	-47.480753	0.000334	3.343562	1.132830	-0.000134
1463	1.4547e+02	-18.2578	-47.561496	0.000203	2.026401	0.686563	-0.000081
1464	1.4557e+02	-18.2963	-47.654350	0.000233	2.330362	0.789548	-0.000093
1465	1.4567e+02	-18.3380	-47.710870	0.000142	1.418481	0.480594	-0.000057
1466	1.4577e+02	-18.3781	-47.827947	0.000294	2.938282	0.995517	-0.000118
1467	1.4587e+02	-18.4166	-47.908690	0.000203	2.026401	0.686563	-0.000081
1468	1.4597e+02	-18.4503	-47.977321	0.000172	1.722441	0.583579	-0.000069
1469	1.4607e+02	-18.4968	-48.074212	0.000243	2.431682	0.823876	-0.000097
1470	1.4617e+02	-18.5417	-48.199364	0.000314	3.140922	1.064173	-0.000126
1471	1.4626e+02	-18.5770	-48.288181	0.000223	2.229041	0.755220	-0.000089
1472	1.4636e+02	-18.6123	-48.340663	0.000132	1.317161	0.446266	-0.000053
1473	1.4646e+02	-18.6556	-48.469852	0.000324	3.242242	1.098501	-0.000130
1474	1.4656e+02	-18.6925	-48.554632	0.000213	2.127721	0.720892	-0.000085
1475	1.4666e+02	-18.7358	-48.643449	0.000223	2.229041	0.755220	-0.000089
1476	1.4676e+02	-18.7743	-48.712080	0.000172	1.722441	0.583579	-0.000069
1477	1.4686e+02	-18.8112	-48.821082	0.000274	2.735642	0.926861	-0.000110
1478	1.4696e+02	-18.8529	-48.922011	0.000253	2.533002	0.858204	-0.000101
1479	1.4706e+02	-18.8995	-48.986605	0.000162	1.621121	0.549251	-0.000065
1480	1.4716e+02	-18.9332	-49.071385	0.000213	2.127721	0.720892	-0.000085
1481	1.4726e+02	-18.9765	-49.220759	0.000375	3.748843	1.270142	-0.000150
1482	1.4736e+02	-19.0198	-49.261130	0.000101	1.013201	0.343282	-0.000041
1483	1.4746e+02	-19.0519	-49.349947	0.000223	2.229041	0.755220	-0.000089
1484	1.4756e+02	-19.0968	-49.462987	0.000284	2.836962	0.961189	-0.000114
1485	1.4766e+02	-19.1401	-49.567953	0.000263	2.634322	0.892532	-0.000105
1486	1.4776e+02	-19.1690	-49.636584	0.000172	1.722441	0.583579	-0.000069
1487	1.4786e+02	-19.2171	-49.737512	0.000253	2.533002	0.858204	-0.000101
1488	1.4796e+02	-19.2540	-49.806144	0.000172	1.722441	0.583579	-0.000069
1489	1.4806e+02	-19.2957	-49.935332	0.000324	3.242242	1.098501	-0.000130
1490	1.4816e+02	-19.3342	-50.056446	0.000304	3.039602	1.029845	-0.000122
1491	1.4825e+02	-19.3759	-50.129114	0.000182	1.823761	0.617907	-0.000073
1492	1.4835e+02	-19.4160	-50.209857	0.000203	2.026401	0.686563	-0.000081
1493	1.4845e+02	-19.4545	-50.335008	0.000314	3.140922	1.064173	-0.000126
1494	1.4855e+02	-19.4914	-50.391528	0.000142	1.418481	0.480594	-0.000057
1495	1.4865e+02	-19.5283	-50.472271	0.000203	2.026401	0.686563	-0.000081
1496	1.4875e+02	-19.5732	-50.577237	0.000263	2.634322	0.892532	-0.000105
1497	1.4885e+02	-19.6134	-50.678165	0.000253	2.533002	0.858204	-0.000101
1498	1.4895e+02	-19.6535	-50.795242	0.000294	2.938282	0.995517	-0.000118
1499	1.4905e+02	-19.6936	-50.875985	0.000203	2.026401	0.686563	-0.000081
1500	1.4915e+02	-19.7273	-50.956727	0.000203	2.026401	0.686563	-0.000081
1501	1.4925e+02	-19.7690	-51.081878	0.000314	3.140922	1.064173	-0.000126
1502	1.4935e+02	-19.8091	-51.182807	0.000253	2.533002	0.858204	-0.000101
1503	1.4945e+02	-19.8492	-51.263550	0.000203	2.026401	0.686563	-0.000081
1504	1.4955e+02	-19.8861	-51.344292	0.000203	2.026401	0.686563	-0.000081
1505	1.4965e+02	-19.9310	-51.449258	0.000263	2.634322	0.892532	-0.000105
1506	1.4975e+02	-19.9695	-51.538075	0.000223	2.229041	0.755220	-0.000089
1507	1.4985e+02	-20.0064	-51.643040	0.000263	2.634322	0.892532	-0.000105
1508	1.4995e+02	-19.9679	-51.630929	0.000030	0.303960	0.102985	0.000012
1509	1.5005e+02	-19.9294	-51.594595	0.000091	0.911881	0.308954	0.000037
1510	1.5015e+02	-19.8780	-51.562298	0.000081	0.810561	0.274625	0.000032
1511	1.5025e+02	-19.8476	-51.513852	0.000122	1.215841	0.411938	0.000049
1512	1.5034e+02	-19.8107	-51.441184	0.000182	1.823761	0.617907	0.000073
1513	1.5044e+02	-19.7738	-51.392738	0.000122	1.215841	0.411938	0.000049
1514	1.5054e+02	-19.7273	-51.344292	0.000122	1.215841	0.411938	0.000049
1515	1.5064e+02	-19.6887	-51.303921	0.000101	1.013201	0.343282	0.000041
1516	1.5074e+02	-19.6551	-51.279698	0.000061	0.607920	0.205969	0.000024
1517	1.5084e+02	-19.6117	-51.211067	0.000172	1.722441	0.583579	0.000069
1518	1.5094e+02	-19.5684	-51.150510	0.000152	1.519801	0.514923	0.000061
1519	1.5104e+02	-19.5139	-51.134361	0.000041	0.405280	0.137313	0.000016
1520	1.5114e+02	-19.4866	-51.053619	0.000203	2.026401	0.686563	0.000081
1521	1.5124e+02	-19.4545	-51.065730	-0.000030	-0.303960	-0.102985	-0.000012
1522	1.5134e+02	-19.4112	-50.928467	0.000344	3.444882	1.167158	0.000138
1523	1.5144e+02	-19.3711	-50.964802	-0.000091	-0.911881	-0.308954	-0.000037
1524	1.5154e+02	-19.3278	-50.851762	0.000284	2.836962	0.961189	0.000114
1525	1.5164e+02	-19.2877	-50.863873	-0.000030	-0.303960	-0.102985	-0.000012
1526	1.5174e+02	-19.2588	-50.750833	0.000284	2.836962	0.961189	0.000114
1527	1.5184e+02	-19.2123	-50.690276	0.000152	1.519801	0.514923	0.000061
1528	1.5194e+02	-19.1706	-50.637794	0.000132	1.317161	0.446266	0.000053
1529	1.5204e+02	-19.1385	-50.573199	0.000162	1.621121	0.549251	0.000065
1530	1.5214e+02	-19.0968	-50.528791	0.000111	1.114521	0.377610	0.000045
1531	1.5224e+02	-19.0631	-50.508605	0.000051	0.506600	0.171641	0.000020
1532	1.5233e+02	-19.0214	-50.435937	0.000182	1.823761	0.617907	0.000073
1533	1.5243e+02	-18.9797	-50.371343	0.000162	1.621121	0.549251	0.000065
1534	1.5253e+02	-18.9332	-50.363268	0.000020	0.202640	0.068656	0.000008
1535	1.5263e+02	-18.8995	-50.282526	0.000203	2.026401	0.686563	0.000081
1536	1.5273e+02	-18.8594	-50.209857	0.000182	1.823761	0.617907	0.000073
1537	1.5283e+02	-18.8128	-50.161412	0.000122	1.215841	0.411938	0.000049
1538	1.5293e+02	-18.7808	-50.092780	0.000172	1.722441	0.583579	0.000069
1539	1.5303e+02	-18.7326	-50.016075	0.000193	1.925081	0.652235	0.000077
1540	1.5313e+02	-18.6941	-49.959555	0.000142	1.418481	0.480594	0.000057
1541	1.5323e+02	-18.6540	-49.923221	0.000091	0.911881	0.308954	0.000037
1542	1.5333e+02	-18.6203	-49.850552	0.000182	1.823761	0.617907	0.000073
1543	1.5343e+02	-18.5754	-49.802106	0.000122	1.215841	0.411938	0.000049
1544	1.5353e+02	-18.5385	-49.757698	0.000111	1.114521	0.377610	0.000045
1545	1.5363e+02	-18.5000	-49.676955	0.000203	2.026401	0.686563	0.000081
1546	1.5373e+02	-18.4551	-49.600250	0.000193	1.925081	0.652235	0.000077
1547	1.5383e+02	-18.4150	-49.551804	0.000122	1.215841	0.411938	0.000049
1548	1.5393e+02	-18.3717	-49.499321	0.000132	1.317161	0.446266	0.000053
1549	1.5403e+02	-18.3476	-49.438764	0.000152	1.519801	0.514923	0.000061
1550	1.5413e+02	-18.2915	-49.345910	0.000233	2.330362	0.789548	0.000093
1551	1.5422e+02	-18.2546	-49.269205	0.000193	1.925081	0.652235	0.000077
1552	1.5432e+02	-18.2177	-49.265167	0.000010	0.101320	0.034328	0.000004
1553	1.5442e+02	-18.1679	-49.148090	0.000294	2.938282	0.995517	0.000118
1554	1.5452e+02	-18.1310	-49.095608	0.000132	1.317161	0.446266	0.000053
1555	1.5462e+02	-18.1038	-49.075422	0.000051	0.506600	0.171641	0.000020
1556	1.5472e+02	-18.0588	-48.998716	0.000193	1.925081	0.652235	0.000077
1557	1.5482e+02	-18.0123	-48.946234	0.000132	1.317161	0.446266	0.000053
1558	1.5492e+02	-17.9802	-48.865491	0.000203	2.026401	0.686563	0.000081
1559	1.5502e+02	-17.9369	-48.796860	0.000172	1.722441	0.583579	0.000069
1560	1.5512e+02	-17.8968	-48.732265	0.000162	1.621121	0.549251	0.000065
1561	1.5522e+02	-17.8535	-48.659597	0.000182	1.823761	0.617907	0.000073
1562	1.5532e+02	-17.8102	-48.586929	0.000182	1.823761	0.617907	0.000073
1563	1.5542e+02	-17.7765	-48.514260	0.000182	1.823761	0.617907	0.000073
1564	1.5552e+02	-17.7364	-48.490037	0.000061	0.607920	0.205969	0.000024
1565	1.5562e+02	-17.7027	-48.409295	0.000203	2.026401	0.686563	0.000081
1566	1.5572e+02	-17.6658	-48.328552	0.000203	2.026401	0.686563	0.000081
1567	1.5582e+02	-17.6161	-48.304329	0.000061	0.607920	0.205969	0.000024
1568	1.5592e+02	-17.5792	-48.267995	0.000091	0.911881	0.308954	0.000037
1569	1.5602e+02	-17.5471	-48.146881	0.000304	3.039602	1.029845	0.000122
1570	1.5612e+02	-17.4893	-48.062101	0.000213	2.127721	0.720892	0.000085
1571	1.5622e+02	-17.4653	-47.989433	0.000182	1.823761	0.617907	0.000073
1572	1.5631e+02	-17.4156	-47.936950	0.000132	1.317161	0.446266	0.000053
1573	1.5641e+02	-17.3851	-47.896578	0.000101	1.013201	0.343282	0.000041
1574	1.5651e+02	-17.3418	-47.823910	0.000182	1.823761	0.617907	0.000073
1575	1.5661e+02	-17.3017	-47.731056	0.000233	2.330362	0.789548	0.000093
1576	1.5671e+02	-17.2615	-47.682610	0.000122	1.215841	0.411938	0.000049
1577	1.5681e+02	-17.2263	-47.593793	0.000223	2.229041	0.755220	0.000089
1578	1.5691e+02	-17.1701	-47.549385	0.000111	1.114521	0.377610	0.000045
1579	1.5701e+02	-17.1348	-47.460568	0.000223	2.229041	0.755220	0.000089
1580	1.5711e+02	-17.0995	-47.424234	0.000091	0.911881	0.308954	0.000037
1581	1.5721e+02	-17.0530	-47.335417	0.000223	2.229041	0.755220	0.000089
1582	1.5731e+02	-17.0257	-47.295045	0.000101	1.013201	0.343282	0.000041
1583	1.5741e+02	-16.9856	-47.210265	0.000213	2.127721	0.720892	0.000085
1584	1.5751e+02	-16.9391	-47.141634	0.000172	1.722441	0.583579	0.000069
1585	1.5761e+02	-16.9054	-47.048780	0.000233	2.330362	0.789548	0.000093
1586	1.5771e+02	-16.8621	-47.004371	0.000111	1.114521	0.377610	0.000045
1587	1.5781e+02	-16.8268	-46.907480	0.000243	2.431682	0.823876	0.000097
1588	1.5791e+02	-16.7787	-46.875183	0.000081	0.810561	0.274625	0.000032
1589	1.5801e+02	-16.7354	-46.802515	0.000182	1.823761	0.617907	0.000073
1590	1.5811e+02	-16.7033	-46.709660	0.000233	2.330362	0.789548	0.000093
1591	1.5821e+02	-16.6616	-46.657178	0.000132	1.317161	0.446266	0.000053
1592	1.5830e+02	-16.6343	-46.568361	0.000223	2.229041	0.755220	0.000089
1593	1.5840e+02	-16.5846	-46.527989	0.000101	1.013201	0.343282	0.000041
1594	1.5850e+02	-16.5509	-46.471469	0.000142	1.418481	0.480594	0.000057
1595	1.5860e+02	-16.5011	-46.362467	0.000274	2.735642	0.926861	0.000110
1596	1.5870e+02	-16.4642	-46.309984	0.000132	1.317161	0.446266	0.000053
1597	1.5880e+02	-16.4177	-46.237316	0.000182	1.823761	0.617907	0.000073
1598	1.5890e+02	-16.3824	-46.160610	0.000193	1.925081	0.652235	0.000077
1599	1.5900e+02	-16.3503	-46.100053	0.000152	1.519801	0.514923	0.000061
1600	1.5910e+02	-16.2990	-46.019310	0.000203	2.026401	0.686563	0.000081
1601	1.5920e+02	-16.2653	-45.995087	0.000061	0.607920	0.205969	0.000024
1602	1.5930e+02	-16.2300	-45.894159	0.000253	2.533002	0.858204	0.000101
1603	1.5940e+02	-16.1851	-45.837639	0.000142	1.418481	0.480594	0.000057
1604	1.5950e+02	-16.1482	-45.752859	0.000213	2.127721	0.720892	0.000085
1605	1.5960e+02	-16.1033	-45.704414	0.000122	1.215841	0.411938	0.000049
1606	1.5970e+02	-16.0568	-45.627708	0.000193	1.925081	0.652235	0.000077
1607	1.5980e+02	-16.0343	-45.546965	0.000203	2.026401	0.686563	0.000081
1608	1.5990e+02	-15.9782	-45.510631	0.000091	0.911881	0.308954	0.000037
1609	1.6000e+02	-15.9348	-45.405666	0.000263	2.634322	0.892532	0.000105
1610	1.6010e+02	-15.9076	-45.316849	0.000223	2.229041	0.755220	0.000089
1611	1.6019e+02	-15.8610	-45.228032	0.000223	2.229041	0.755220	0.000089
1612	1.6029e+02	-15.8225	-45.163438	0.000162	1.621121	0.549251	0.000065
1613	1.6039e+02	-15.7857	-45.139215	0.000061	0.607920	0.205969	0.000024
1614	1.6049e+02	-15.7455	-45.038286	0.000253	2.533002	0.858204	0.000101
1615	1.6059e+02	-15.7070	-44.969655	0.000172	1.722441	0.583579	0.000069
1616	1.6069e+02	-15.6701	-44.860652	0.000274	2.735642	0.926861	0.000110
1617	1.6079e+02	-15.6220	-44.796058	0.000162	1.621121	0.549251	0.000065
1618	1.6089e+02	-15.5851	-44.759724	0.000091	0.911881	0.308954	0.000037
1619	1.6099e+02	-15.5482	-44.650721	0.000274	2.735642	0.926861	0.000110
1620	1.6109e+02	-15.5097	-44.545756	0.000263	2.634322	0.892532	0.000105
1621	1.6119e+02	-15.4744	-44.521533	0.000061	0.607920	0.205969	0.000024
1622	1.6129e+02	-15.4327	-44.452902	0.000172	1.722441	0.583579	0.000069
1623	1.6139e+02	-15.4022	-44.351973	0.000253	2.533002	0.858204	0.000101
1624	1.6149e+02	-15.3397	-44.315639	0.000091	0.911881	0.308954	0.000037
1625	1.6159e+02	-15.3060	-44.234896	0.000203	2.026401	0.686563	0.000081
1626	1.6169e+02	-15.2691	-44.170302	0.000162	1.621121	0.549251	0.000065
1627	1.6179e+02	-15.2274	-44.085522	0.000213	2.127721	0.720892	0.000085
1628	1.6189e+02	-15.1937	-44.041114	0.000111	1.114521	0.377610	0.000045
1629	1.6199e+02	-15.1488	-43.952297	0.000223	2.229041	0.755220	0.000089
1630	1.6209e+02	-15.1006	-43.827146	0.000314	3.140922	1.064173	0.000126
1631	1.6219e+02	-15.0670	-43.782737	0.000111	1.114521	0.377610	0.000045
1632	1.6228e+02	-15.0349	-43.754477	0.000071	0.709240	0.240297	0.000028
1633	1.6238e+02	-14.9883	-43.637400	0.000294	2.938282	0.995517	0.000118
1634	1.6248e+02	-14.9482	-43.584917	0.000132	1.317161	0.446266	0.000053
1635	1.6258e+02	-14.9097	-43.463803	0.000304	3.039602	1.029845	0.000122
1636	1.6268e+02	-14.8680	-43.451692	0.000030	0.303960	0.102985	0.000012
1637	1.6278e+02	-14.8247	-43.358838	0.000233	2.330362	0.789548	0.000093
1638	1.6288e+02	-14.7814	-43.237724	0.000304	3.039602	1.029845	0.000122
1639	1.6298e+02	-14.7541	-43.193315	0.000111	1.114521	0.377610	0.000045
1640	1.6308e+02	-14.7204	-43.116610	0.000193	1.925081	0.652235	0.000077
1641	1.6318e+02	-14.6643	-43.035867	0.000203	2.026401	0.686563	0.000081
1642	1.6328e+02	-14.6402	-43.003570	0.000081	0.810561	0.274625	0.000032
1643	1.6338e+02	-14.5889	-42.870344	0.000334	3.343562	1.132830	0.000134
1644	1.6348e+02	-14.5488	-42.838047	0.000081	0.810561	0.274625	0.000032
1645	1.6358e+02	-14.5151	-42.769416	0.000172	1.722441	0.583579	0.000069
1646	1.6368e+02	-14.4670	-42.668488	0.000253	2.533002	0.858204	0.000101
1647	1.6378e+02	-14.4237	-42.644265	0.000061	0.607920	0.205969	0.000024
1648	1.6388e+02	-14.3996	-42.519114	0.000314	3.140922	1.064173	0.000126
1649	1.6398e+02	-14.3547	-42.466631	0.000132	1.317161	0.446266	0.000053
1650	1.6408e+02	-14.3162	-42.377814	0.000223	2.229041	0.755220	0.000089
1651	1.6418e+02	-14.2745	-42.325331	0.000132	1.317161	0.446266	0.000053
1652	1.6427e+02	-14.2328	-42.244588	0.000203	2.026401	0.686563	0.000081
1653	1.6437e+02	-14.1846	-42.135586	0.000274	2.735642	0.926861	0.000110
1654	1.6447e+02	-14.1525	-42.038694	0.000243	2.431682	0.823876	0.000097
1655	1.6457e+02	-14.1044	-42.018509	0.000051	0.506600	0.171641	0.000020
1656	1.6467e+02	-14.0820	-41.901432	0.000294	2.938282	0.995517	0.000118
1657	1.6477e+02	-14.0290	-41.800503	0.000253	2.533002	0.858204	0.000101
1658	1.6487e+02	-13.9953	-41.760132	0.000101	1.013201	0.343282	0.000041
1659	1.6497e+02	-13.9520	-41.639018	0.000304	3.039602	1.029845	0.000122
1660	1.6507e+02	-13.9199	-41.602684	0.000091	0.911881	0.308954	0.000037
1661	1.6517e+02	-13.8718	-41.566350	0.000091	0.911881	0.308954	0.000037
1662	1.6527e+02	-13.8317	-41.445235	0.000304	3.039602	1.029845	0.000122
1663	1.6537e+02	-13.7900	-41.368530	0.000193	1.925081	0.652235	0.000077
1664	1.6547e+02	-13.7515	-41.275676	0.000233	2.330362	0.789548	0.000093
1665	1.6557e+02	-13.7082	-41.231267	0.000111	1.114521	0.377610	0.000045
1666	1.6567e+02	-13.6745	-41.146487	0.000213	2.127721	0.720892	0.000085
1667	1.6577e+02	-13.6392	-41.049596	0.000243	2.431682	0.823876	0.000097
1668	1.6587e+02	-13.5991	-41.001151	0.000122	1.215841	0.411938	0.000049
1669	1.6597e+02	-13.5558	-40.924445	0.000193	1.925081	0.652235	0.000077
1670	1.6607e+02	-13.5108	-40.839665	0.000213	2.127721	0.720892	0.000085
1671	1.6616e+02	-13.4707	-40.762960	0.000193	1.925081	0.652235	0.000077
1672	1.6626e+02	-13.4306	-40.662031	0.000253	2.533002	0.858204	0.000101
1673	1.6636e+02	-13.3921	-40.621660	0.000101	1.013201	0.343282	0.000041
1674	1.6646e+02	-13.3584	-40.512657	0.000274	2.735642	0.926861	0.000110
1675	1.6656e+02	-13.3167	-40.464212	0.000122	1.215841	0.411938	0.000049
1676	1.6666e+02	-13.2766	-40.407692	0.000142	1.418481	0.480594	0.000057
1677	1.6676e+02	-13.2349	-40.302726	0.000263	2.634322	0.892532	0.000105
1678	1.6686e+02	-13.1980	-40.181612	0.000304	3.039602	1.029845	0.000122
1679	1.6696e+02	-13.1547	-40.121055	0.000152	1.519801	0.514923	0.000061
1680	1.6706e+02	-13.1162	-40.064535	0.000142	1.418481	0.480594	0.000057
1681	1.6716e+02	-13.0713	-39.979755	0.000213	2.127721	0.720892	0.000085
1682	1.6726e+02	-13.0264	-39.874790	0.000263	2.634322	0.892532	0.000105
1683	1.6736e+02	-12.9927	-39.785973	0.000223	2.229041	0.755220	0.000089
1684	1.6746e+02	-12.9574	-39.733490	0.000132	1.317161	0.446266	0.000053
1685	1.6756e+02	-12.9157	-39.624487	0.000274	2.735642	0.926861	0.000110
1686	1.6766e+02	-12.8740	-39.584116	0.000101	1.013201	0.343282	0.000041
1687	1.6776e+02	-12.8435	-39.495299	0.000223	2.229041	0.755220	0.000089
1688	1.6786e+02	-12.7970	-39.454928	0.000101	1.013201	0.343282	0.000041
1689	1.6796e+02	-12.7520	-39.333813	0.000304	3.039602	1.029845	0.000122
1690	1.6806e+02	-12.7232	-39.297479	0.000091	0.911881	0.308954	0.000037
1691	1.6816e+02	-12.6879	-39.184439	0.000284	2.836962	0.961189	0.000114
1692	1.6825e+02	-12.6398	-39.067363	0.000294	2.938282	0.995517	0.000118
1693	1.6835e+02	-12.5964	-39.014880	0.000132	1.317161	0.446266	0.000053
1694	1.6845e+02	-12.5627	-38.901840	0.000284	2.836962	0.961189	0.000114
1695	1.6855e+02	-12.5114	-38.857431	0.000111	1.114521	0.377610	0.000045
1696	1.6865e+02	-12.4825	-38.792837	0.000162	1.621121	0.549251	0.000065
1697	1.6875e+02	-12.4392	-38.736317	0.000142	1.418481	0.480594	0.000057
1698	1.6885e+02	-12.4023	-38.639426	0.000243	2.431682	0.823876	0.000097
1699	1.6895e+02	-12.3670	-38.530423	0.000274	2.735642	0.926861	0.000110
1700	1.6905e+02	-12.3253	-38.477941	0.000132	1.317161	0.446266	0.000053
1701	1.6915e+02	-12.2868	-38.401235	0.000193	1.925081	0.652235	0.000077
1702	1.6925e+02	-12.2371	-38.300307	0.000253	2.533002	0.858204	0.000101
1703	1.6935e+02	-12.1986	-38.292232	0.000020	0.202640	0.068656	0.000008
1704	1.6945e+02	-12.1553	-38.167081	0.000314	3.140922	1.064173	0.000126
1705	1.6955e+02	-12.1264	-38.037893	0.000324	3.242242	1.098501	0.000130
1706	1.6965e+02	-12.0879	-37.977336	0.000152	1.519801	0.514923	0.000061
1707	1.6975e+02	-12.0366	-37.908705	0.000172	1.722441	0.583579	0.000069
1708	1.6985e+02	-11.9997	-37.775479	0.000334	3.343562	1.132830	0.000134
1709	1.6995e+02	-11.9644	-37.755293	0.000051	0.506600	0.171641	0.000020
1710	1.7005e+02	-11.9211	-37.670514	0.000213	2.127721	0.720892	0.000085
1711	1.7015e+02	-11.8793	-37.541325	0.000324	3.242242	1.098501	0.000130
1712	1.7024e+02	-11.8473	-37.488842	0.000132	1.317161	0.446266	0.000053
1713	1.7034e+02	-11.8088	-37.408100	0.000203	2.026401	0.686563	0.000081
1714	1.7044e+02	-11.7719	-37.319283	0.000223	2.229041	0.755220	0.000089
1715	1.7054e+02	-11.7237	-37.250651	0.000172	1.722441	0.583579	0.000069
1716	1.7064e+02	-11.6836	-37.153760	0.000243	2.431682	0.823876	0.000097
1717	1.7074e+02	-11.6451	-37.085129	0.000172	1.722441	0.583579	0.000069
1718	1.7084e+02	-11.6082	-36.992275	0.000233	2.330362	0.789548	0.000093
1719	1.7094e+02	-11.5649	-36.947866	0.000111	1.114521	0.377610	0.000045
1720	1.7104e+02	-11.5232	-36.826752	0.000304	3.039602	1.029845	0.000122
1721	1.7114e+02	-11.4879	-36.741972	0.000213	2.127721	0.720892	0.000085
1722	1.7124e+02	-11.4494	-36.641044	0.000253	2.533002	0.858204	0.000101
1723	1.7134e+02	-11.3981	-36.612784	0.000071	0.709240	0.240297	0.000028
1724	1.7144e+02	-11.3708	-36.479559	0.000334	3.343562	1.132830	0.000134
1725	1.7154e+02	-11.3179	-36.435150	0.000111	1.114521	0.377610	0.000045
1726	1.7164e+02	-11.2778	-36.326147	0.000274	2.735642	0.926861	0.000110
1727	1.7174e+02	-11.2457	-36.249442	0.000193	1.925081	0.652235	0.000077
1728	1.7184e+02	-11.2056	-36.172736	0.000193	1.925081	0.652235	0.000077
1729	1.7194e+02	-11.1623	-36.112179	0.000152	1.519801	0.514923	0.000061
1730	1.7204e+02	-11.1302	-36.011251	0.000253	2.533002	0.858204	0.000101
1731	1.7213e+02	-11.0836	-35.922434	0.000223	2.229041	0.755220	0.000089
1732	1.7223e+02	-11.0467	-35.853802	0.000172	1.722441	0.583579	0.000069
1733	1.7233e+02	-10.9938	-35.756911	0.000243	2.431682	0.823876	0.000097
1734	1.7243e+02	-10.9505	-35.664057	0.000233	2.330362	0.789548	0.000093
1735	1.7253e+02	-10.9296	-35.591389	0.000182	1.823761	0.617907	0.000073
1736	1.7263e+02	-10.8831	-35.526794	0.000162	1.621121	0.549251	0.000065
1737	1.7273e+02	-10.8510	-35.353198	0.000436	4.356763	1.476111	0.000174
1738	1.7283e+02	-10.8061	-35.312826	0.000101	1.013201	0.343282	0.000041
1739	1.7293e+02	-10.7660	-35.256306	0.000142	1.418481	0.480594	0.000057
1740	1.7303e+02	-10.7323	-35.135192	0.000304	3.039602	1.029845	0.000122
1741	1.7313e+02	-10.6842	-35.046375	0.000223	2.229041	0.755220	0.000089
1742	1.7323e+02	-10.6473	-34.961595	0.000213	2.127721	0.720892	0.000085
1743	1.7333e+02	-10.6072	-34.892964	0.000172	1.722441	0.583579	0.000069
1744	1.7343e+02	-10.5671	-34.812221	0.000203	2.026401	0.686563	0.000081
1745	1.7353e+02	-10.5270	-34.767813	0.000111	1.114521	0.377610	0.000045
1746	1.7363e+02	-10.4853	-34.646699	0.000304	3.039602	1.029845	0.000122
1747	1.7373e+02	-10.4484	-34.582105	0.000162	1.621121	0.549251	0.000065
1748	1.7383e+02	-10.4115	-34.469065	0.000284	2.836962	0.961189	0.000114
1749	1.7393e+02	-10.3682	-34.384285	0.000213	2.127721	0.720892	0.000085
1750	1.7403e+02	-10.3297	-34.283357	0.000253	2.533002	0.858204	0.000101
1751	1.7413e+02	-10.2847	-34.214725	0.000172	1.722441	0.583579	0.000069
1752	1.7422e+02	-10.2478	-34.150131	0.000162	1.621121	0.549251	0.000065
1753	1.7432e+02	-10.2093	-34.037091	0.000284	2.836962	0.961189	0.000114
1754	1.7442e+02	-10.1692	-33.972497	0.000162	1.621121	0.549251	0.000065
1755	1.7452e+02	-10.1307	-33.867532	0.000263	2.634322	0.892532	0.000105
1756	1.7462e+02	-10.0890	-33.738343	0.000324	3.242242	1.098501	0.000130
1757	1.7472e+02	-10.0409	-33.645489	0.000233	2.330362	0.789548	0.000093
1758	1.7482e+02	-10.0120	-33.584932	0.000152	1.519801	0.514923	0.000061
1759	1.7492e+02	-9.9687	-33.560709	0.000061	0.607920	0.205969	0.000024
1760	1.7502e+02	-9.9366	-33.431521	0.000324	3.242242	1.098501	0.000130
1761	1.7512e+02	-9.8885	-33.395187	0.000091	0.911881	0.308954	0.000037
1762	1.7522e+02	-9.8484	-33.253887	0.000355	3.546202	1.201486	0.000142
1763	1.7532e+02	-9.8131	-33.156996	0.000243	2.431682	0.823876	0.000097
1764	1.7542e+02	-9.7698	-33.080290	0.000193	1.925081	0.652235	0.000077
1765	1.7552e+02	-9.7217	-33.007622	0.000182	1.823761	0.617907	0.000073
1766	1.7562e+02	-9.6783	-32.934953	0.000182	1.823761	0.617907	0.000073
1767	1.7572e+02	-9.6446	-32.854211	0.000203	2.026401	0.686563	0.000081
1768	1.7582e+02	-9.5949	-32.725022	0.000324	3.242242	1.098501	0.000130
1769	1.7592e+02	-9.5725	-32.680614	0.000111	1.114521	0.377610	0.000045
1770	1.7602e+02	-9.5259	-32.547388	0.000334	3.343562	1.132830	0.000134
1771	1.7612e+02	-9.4858	-32.462608	0.000213	2.127721	0.720892	0.000085
1772	1.7621e+02	-9.4505	-32.385903	0.000193	1.925081	0.652235	0.000077
1773	1.7631e+02	-9.4104	-32.284974	0.000253	2.533002	0.858204	0.000101
1774	1.7641e+02	-9.3655	-32.200195	0.000213	2.127721	0.720892	0.000085
1775	1.7651e+02	-9.3302	-32.123489	0.000193	1.925081	0.652235	0.000077
1776	1.7661e+02	-9.2853	-31.998338	0.000314	3.140922	1.064173	0.000126
1777	1.7671e+02	-9.2516	-31.937781	0.000152	1.519801	0.514923	0.000061
1778	1.7681e+02	-9.2115	-31.844927	0.000233	2.330362	0.789548	0.000093
1779	1.7691e+02	-9.1730	-31.756110	0.000223	2.229041	0.755220	0.000089
1780	1.7701e+02	-9.1393	-31.663256	0.000233	2.330362	0.789548	0.000093
1781	1.7711e+02	-9.0896	-31.590587	0.000182	1.823761	0.617907	0.000073
1782	1.7721e+02	-9.0495	-31.505807	0.000213	2.127721	0.720892	0.000085
1783	1.7731e+02	-9.0158	-31.396805	0.000274	2.735642	0.926861	0.000110
1784	1.7741e+02	-8.9677	-31.312025	0.000213	2.127721	0.720892	0.000085
1785	1.7751e+02	-8.9324	-31.223208	0.000223	2.229041	0.755220	0.000089
1786	1.7761e+02	-8.8987	-31.073834	0.000375	3.748843	1.270142	0.000150
1787	1.7771e+02	-8.8538	-31.025388	0.000122	1.215841	0.411938	0.000049
1788	1.7781e+02	-8.8104	-30.944645	0.000203	2.026401	0.686563	0.000081
1789	1.7791e+02	-8.7719	-30.851791	0.000233	2.330362	0.789548	0.000093
1790	1.7801e+02	-8.7302	-30.779123	0.000182	1.823761	0.617907	0.000073
1791	1.7810e+02	-8.6998	-30.662046	0.000294	2.938282	0.995517	0.000118
1792	1.7820e+02	-8.6532	-30.601489	0.000152	1.519801	0.514923	0.000061
1793	1.7830e+02	-8.6131	-30.448078	0.000385	3.850163	1.304470	0.000154
1794	1.7840e+02	-8.5730	-30.379446	0.000172	1.722441	0.583579	0.000069
1795	1.7850e+02	-8.5281	-30.274481	0.000263	2.634322	0.892532	0.000105
1796	1.7860e+02	-8.4960	-30.209887	0.000162	1.621121	0.549251	0.000065
1797	1.7870e+02	-8.4527	-30.100884	0.000274	2.735642	0.926861	0.000110
1798	1.7880e+02	-8.4158	-29.987844	0.000284	2.836962	0.961189	0.000114
1799	1.7890e+02	-8.3773	-29.899027	0.000223	2.229041	0.755220	0.000089
1800	1.7900e+02	-8.3324	-29.802136	0.000243	2.431682	0.823876	0.000097
1801	1.7910e+02	-8.2987	-29.733505	0.000172	1.722441	0.583579	0.000069
1802	1.7920e+02	-8.2554	-29.628539	0.000263	2.634322	0.892532	0.000105
1803	1.7930e+02	-8.2217	-29.539722	0.000223	2.229041	0.755220	0.000089
1804	1.7940e+02	-8.1768	-29.463017	0.000193	1.925081	0.652235	0.000077
1805	1.7950e+02	-8.1303	-29.370162	0.000233	2.330362	0.789548	0.000093
1806	1.7960e+02	-8.0934	-29.240974	0.000324	3.242242	1.098501	0.000130
1807	1.7970e+02	-8.0565	-29.119860	0.000304	3.039602	1.029845	0.000122
1808	1.7980e+02	-8.0164	-29.047192	0.000182	1.823761	0.617907	0.000073
1809	1.7990e+02	-7.9762	-28.974523	0.000182	1.823761	0.617907	0.000073
1810	1.8000e+02	-7.9345	-28.881669	0.000233	2.330362	0.789548	0.000093
1811	1.8009e+02	-7.8960	-28.788815	0.000233	2.330362	0.789548	0.000093
1812	1.8019e+02	-7.8591	-28.659627	0.000324	3.242242	1.098501	0.000130
1813	1.8029e+02	-7.8158	-28.590995	0.000172	1.722441	0.583579	0.000069
1814	1.8039e+02	-7.7693	-28.473918	0.000294	2.938282	0.995517	0.000118
1815	1.8049e+02	-7.7404	-28.381064	0.000233	2.330362	0.789548	0.000093
1816	1.8059e+02	-7.6955	-28.320507	0.000152	1.519801	0.514923	0.000061
1817	1.8069e+02	-7.6618	-28.203430	0.000294	2.938282	0.995517	0.000118
1818	1.8079e+02	-7.6137	-28.130762	0.000182	1.823761	0.617907	0.000073
1819	1.8089e+02	-7.5704	-27.985425	0.000365	3.647522	1.235814	0.000146
1820	1.8099e+02	-7.5335	-27.908719	0.000193	1.925081	0.652235	0.000077
1821	1.8109e+02	-7.4934	-27.840088	0.000172	1.722441	0.583579	0.000069
1822	1.8119e+02	-7.4597	-27.743197	0.000243	2.431682	0.823876	0.000097
1823	1.8129e+02	-7.4228	-27.626120	0.000294	2.938282	0.995517	0.000118
1824	1.8139e+02	-7.3779	-27.533266	0.000233	2.330362	0.789548	0.000093
1825	1.8149e+02	-7.3394	-27.444449	0.000223	2.229041	0.755220	0.000089
1826	1.8159e+02	-7.2977	-27.355632	0.000223	2.229041	0.755220	0.000089
1827	1.8169e+02	-7.2592	-27.258741	0.000243	2.431682	0.823876	0.000097
1828	1.8179e+02	-7.2110	-27.173961	0.000213	2.127721	0.720892	0.000085
1829	1.8189e+02	-7.1773	-27.068995	0.000263	2.634322	0.892532	0.000105
1830	1.8199e+02	-7.1372	-26.959992	0.000274	2.735642	0.926861	0.000110
1831	1.8209e+02	-7.0891	-26.850990	0.000274	2.735642	0.926861	0.000110
1832	1.8218e+02	-7.0586	-26.766210	0.000213	2.127721	0.720892	0.000085
1833	1.8228e+02	-7.0233	-26.673356	0.000233	2.330362	0.789548	0.000093
1834	1.8238e+02	-6.9800	-26.540130	0.000334	3.343562	1.132830	0.000134
1835	1.8248e+02	-6.9367	-26.475536	0.000162	1.621121	0.549251	0.000065
1836	1.8258e+02	-6.8918	-26.362496	0.000284	2.836962	0.961189	0.000114
1837	1.8268e+02	-6.8581	-26.257531	0.000263	2.634322	0.892532	0.000105
1838	1.8278e+02	-6.8196	-26.156602	0.000253	2.533002	0.858204	0.000101
1839	1.8288e+02	-6.7763	-26.063748	0.000233	2.330362	0.789548	0.000093
1840	1.8298e+02	-6.7362	-25.978968	0.000213	2.127721	0.720892	0.000085
1841	1.8308e+02	-6.6897	-25.894189	0.000213	2.127721	0.720892	0.000085
1842	1.8318e+02	-6.6656	-25.769037	0.000314	3.140922	1.064173	0.000126
1843	1.8328e+02	-6.6143	-25.684258	0.000213	2.127721	0.720892	0.000085
1844	1.8338e+02	-6.5822	-25.542958	0.000355	3.546202	1.201486	0.000142
1845	1.8348e+02	-6.5340	-25.421844	0.000304	3.039602	1.029845	0.000122
1846	1.8358e+02	-6.5020	-25.385510	0.000091	0.911881	0.308954	0.000037
1847	1.8368e+02	-6.4570	-25.228061	0.000395	3.951483	1.338799	0.000158
1848	1.8378e+02	-6.4233	-25.159430	0.000172	1.722441	0.583579	0.000069
1849	1.8388e+02	-6.3929	-25.090799	0.000172	1.722441	0.583579	0.000069
1850	1.8398e+02	-6.3383	-24.953536	0.000344	3.444882	1.167158	0.000138
1851	1.8407e+02	-6.3014	-24.876830	0.000193	1.925081	0.652235	0.000077
1852	1.8417e+02	-6.2645	-24.783976	0.000233	2.330362	0.789548	0.000093
1853	1.8427e+02	-6.2292	-24.674974	0.000274	2.735642	0.926861	0.000110
1854	1.8437e+02	-6.1843	-24.570008	0.000263	2.634322	0.892532	0.000105
1855	1.8447e+02	-6.1378	-24.412560	0.000395	3.951483	1.338799	0.000158
1856	1.8457e+02	-6.1137	-24.335854	0.000193	1.925081	0.652235	0.000077
1857	1.8467e+02	-6.0672	-24.234926	0.000253	2.533002	0.858204	0.000101
1858	1.8477e+02	-6.0239	-24.138035	0.000243	2.431682	0.823876	0.000097
1859	1.8487e+02	-5.9886	-24.008846	0.000324	3.242242	1.098501	0.000130
1860	1.8497e+02	-5.9453	-23.948289	0.000152	1.519801	0.514923	0.000061
1861	1.8507e+02	-5.9100	-23.819101	0.000324	3.242242	1.098501	0.000130
1862	1.8517e+02	-5.8699	-23.746432	0.000182	1.823761	0.617907	0.000073
1863	1.8527e+02	-5.8250	-23.588984	0.000395	3.951483	1.338799	0.000158
1864	1.8537e+02	-5.7929	-23.516316	0.000182	1.823761	0.617907	0.000073
1865	1.8547e+02	-5.7448	-23.411350	0.000263	2.634322	0.892532	0.000105
1866	1.8557e+02	-5.7111	-23.322533	0.000223	2.229041	0.755220	0.000089
1867	1.8567e+02	-5.6597	-23.221605	0.000253	2.533002	0.858204	0.000101
1868	1.8577e+02	-5.6293	-23.132788	0.000223	2.229041	0.755220	0.000089
1869	1.8587e+02	-5.5891	-23.015711	0.000294	2.938282	0.995517	0.000118
1870	1.8597e+02	-5.5410	-22.914782	0.000253	2.533002	0.858204	0.000101
1871	1.8606e+02	-5.5137	-22.805780	0.000274	2.735642	0.926861	0.000110
1872	1.8616e+02	-5.4640	-22.672554	0.000334	3.343562	1.132830	0.000134
1873	1.8626e+02	-5.4287	-22.579700	0.000233	2.330362	0.789548	0.000093
1874	1.8636e+02	-5.3822	-22.482809	0.000243	2.431682	0.823876	0.000097
1875	1.8646e+02	-5.3517	-22.329398	0.000385	3.850163	1.304470	0.000154
1876	1.8656e+02	-5.3084	-22.272878	0.000142	1.418481	0.480594	0.000057
1877	1.8666e+02	-5.2715	-22.175987	0.000243	2.431682	0.823876	0.000097
1878	1.8676e+02	-5.2282	-22.066984	0.000274	2.735642	0.926861	0.000110
1879	1.8686e+02	-5.1961	-21.953944	0.000284	2.836962	0.961189	0.000114
1880	1.8696e+02	-5.1544	-21.848979	0.000263	2.634322	0.892532	0.000105
1881	1.8706e+02	-5.1095	-21.800533	0.000122	1.215841	0.411938	0.000049
1882	1.8716e+02	-5.0646	-21.626936	0.000436	4.356763	1.476111	0.000174
1883	1.8726e+02	-5.0389	-21.534082	0.000233	2.330362	0.789548	0.000093
1884	1.8736e+02	-4.9811	-21.352411	0.000456	4.559403	1.544768	0.000183
1885	1.8746e+02	-4.9539	-21.279742	0.000182	1.823761	0.617907	0.000073
1886	1.8756e+02	-4.9073	-21.174777	0.000263	2.634322	0.892532	0.000105
1887	1.8766e+02	-4.8753	-21.085960	0.000223	2.229041	0.755220	0.000089
1888	1.8776e+02	-4.8416	-20.972920	0.000284	2.836962	0.961189	0.000114
1889	1.8786e+02	-4.7838	-20.827583	0.000365	3.647522	1.235814	0.000146
1890	1.8796e+02	-4.7453	-20.750878	0.000193	1.925081	0.652235	0.000077
1891	1.8806e+02	-4.7036	-20.633801	0.000294	2.938282	0.995517	0.000118
1892	1.8815e+02	-4.6763	-20.540947	0.000233	2.330362	0.789548	0.000093
1893	1.8825e+02	-4.6330	-20.395610	0.000365	3.647522	1.235814	0.000146
1894	1.8835e+02	-4.5865	-20.335053	0.000152	1.519801	0.514923	0.000061
1895	1.8845e+02	-4.5464	-20.193753	0.000355	3.546202	1.201486	0.000142
1896	1.8855e+02	-4.5143	-20.100899	0.000233	2.330362	0.789548	0.000093
1897	1.8865e+02	-4.4694	-19.963636	0.000344	3.444882	1.167158	0.000138
1898	1.8875e+02	-4.4309	-19.874819	0.000223	2.229041	0.755220	0.000089
1899	1.8885e+02	-4.3892	-19.741594	0.000334	3.343562	1.132830	0.000134
1900	1.8895e+02	-4.3507	-19.656814	0.000213	2.127721	0.720892	0.000085
1901	1.8905e+02	-4.3042	-19.503403	0.000385	3.850163	1.304470	0.000154
1902	1.8915e+02	-4.2721	-19.418623	0.000213	2.127721	0.720892	0.000085
1903	1.8925e+02	-4.2223	-19.293472	0.000314	3.140922	1.064173	0.000126
1904	1.8935e+02	-4.1822	-19.180432	0.000284	2.836962	0.961189	0.000114
1905	1.8945e+02	-4.1453	-19.063355	0.000294	2.938282	0.995517	0.000118
1906	1.8955e+02	-4.1165	-18.938204	0.000314	3.140922	1.064173	0.000126
1907	1.8965e+02	-4.0683	-18.865535	0.000182	1.823761	0.617907	0.000073
1908	1.8975e+02	-4.0379	-18.712124	0.000385	3.850163	1.304470	0.000154
1909	1.8985e+02	-3.9897	-18.639456	0.000182	1.823761	0.617907	0.000073
1910	1.8995e+02	-3.9496	-18.461822	0.000446	4.458083	1.510439	0.000179
1911	1.9004e+02	-3.9159	-18.381079	0.000203	2.026401	0.686563	0.000081
1912	1.9014e+02	-3.8710	-18.247854	0.000334	3.343562	1.132830	0.000134
1913	1.9024e+02	-3.8293	-18.126739	0.000304	3.039602	1.029845	0.000122
1914	1.9034e+02	-3.7860	-18.041960	0.000213	2.127721	0.720892	0.000085
1915	1.9044e+02	-3.7475	-17.928920	0.000284	2.836962	0.961189	0.000114
1916	1.9054e+02	-3.7170	-17.767434	0.000405	4.052803	1.373127	0.000162
1917	1.9064e+02	-3.6769	-17.654395	0.000284	2.836962	0.961189	0.000114
1918	1.9074e+02	-3.6352	-17.569615	0.000213	2.127721	0.720892	0.000085
1919	1.9084e+02	-3.5983	-17.432352	0.000344	3.444882	1.167158	0.000138
1920	1.9094e+02	-3.5518	-17.331424	0.000253	2.533002	0.858204	0.000101
1921	1.9104e+02	-3.5149	-17.186087	0.000365	3.647522	1.235814	0.000146
1922	1.9114e+02	-3.4684	-17.093233	0.000233	2.330362	0.789548	0.000093
1923	1.9124e+02	-3.4315	-16.947896	0.000365	3.647522	1.235814	0.000146
1924	1.9134e+02	-3.3978	-16.875227	0.000182	1.823761	0.617907	0.000073
1925	1.9144e+02	-3.3528	-16.709705	0.000415	4.154123	1.407455	0.000166
1926	1.9154e+02	-3.3079	-16.592628	0.000294	2.938282	0.995517	0.000118
1927	1.9164e+02	-3.2742	-16.519959	0.000182	1.823761	0.617907	0.000073
1928	1.9174e+02	-3.2309	-16.382697	0.000344	3.444882	1.167158	0.000138
1929	1.9184e+02	-3.1988	-16.225249	0.000395	3.951483	1.338799	0.000158
1930	1.9194e+02	-3.1635	-16.140469	0.000213	2.127721	0.720892	0.000085
1931	1.9203e+02	-3.1106	-15.999169	0.000355	3.546202	1.201486	0.000142
1932	1.9213e+02	-3.0753	-15.865943	0.000334	3.343562	1.132830	0.000134
1933	1.9223e+02	-3.0352	-15.765015	0.000253	2.533002	0.858204	0.000101
1934	1.9233e+02	-2.9999	-15.611604	0.000385	3.850163	1.304470	0.000154
1935	1.9243e+02	-2.9534	-15.486453	0.000314	3.140922	1.064173	0.000126
1936	1.9253e+02	-2.9085	-15.377450	0.000274	2.735642	0.926861	0.000110
1937	1.9263e+02	-2.8764	-15.284596	0.000233	2.330362	0.789548	0.000093
1938	1.9273e+02	-2.8427	-15.127148	0.000395	3.951483	1.338799	0.000158
1939	1.9283e+02	-2.7849	-14.997959	0.000324	3.242242	1.098501	0.000130
1940	1.9293e+02	-2.7625	-14.897031	0.000253	2.533002	0.858204	0.000101
1941	1.9303e+02	-2.7240	-14.796102	0.000253	2.533002	0.858204	0.000101
1942	1.9313e+02	-2.6759	-14.658840	0.000344	3.444882	1.167158	0.000138
1943	1.9323e+02	-2.6325	-14.489280	0.000426	4.255443	1.441783	0.000170
1944	1.9333e+02	-2.5956	-14.408537	0.000203	2.026401	0.686563	0.000081
1945	1.9343e+02	-2.5539	-14.251089	0.000395	3.951483	1.338799	0.000158
1946	1.9353e+02	-2.5219	-14.121901	0.000324	3.242242	1.098501	0.000130
1947	1.9363e+02	-2.4817	-13.996750	0.000314	3.140922	1.064173	0.000126
1948	1.9373e+02	-2.4384	-13.839301	0.000395	3.951483	1.338799	0.000158
1949	1.9383e+02	-2.3951	-13.742410	0.000243	2.431682	0.823876	0.000097
1950	1.9393e+02	-2.3630	-13.597073	0.000365	3.647522	1.235814	0.000146
1951	1.9403e+02	-2.3213	-13.455773	0.000355	3.546202	1.201486	0.000142
1952	1.9412e+02	-2.2764	-13.346771	0.000274	2.735642	0.926861	0.000110
1953	1.9422e+02	-2.2427	-13.209508	0.000344	3.444882	1.167158	0.000138
1954	1.9432e+02	-2.1978	-13.084357	0.000314	3.140922	1.064173	0.000126
1955	1.9442e+02	-2.1577	-12.934983	0.000375	3.748843	1.270142	0.000150
1956	1.9452e+02	-2.1160	-12.858277	0.000193	1.925081	0.652235	0.000077
1957	1.9462e+02	-2.0759	-12.652383	0.000517	5.167323	1.750737	0.000207
1958	1.9472e+02	-2.0374	-12.543381	0.000274	2.735642	0.926861	0.000110
1959	1.9482e+02	-2.0005	-12.406118	0.000344	3.444882	1.167158	0.000138
1960	1.9492e+02	-1.9684	-12.285004	0.000304	3.039602	1.029845	0.000122
1961	1.9502e+02	-1.9187	-12.171964	0.000284	2.836962	0.961189	0.000114
1962	1.9512e+02	-1.8802	-11.998367	0.000436	4.356763	1.476111	0.000174
1963	1.9522e+02	-1.8336	-11.933773	0.000162	1.621121	0.549251	0.000065
1964	1.9532e+02	-1.7935	-11.764214	0.000426	4.255443	1.441783	0.000170
1965	1.9542e+02	-1.7631	-11.614840	0.000375	3.748843	1.270142	0.000150
1966	1.9552e+02	-1.7310	-11.489688	0.000314	3.140922	1.064173	0.000126
1967	1.9562e+02	-1.6780	-11.368574	0.000304	3.039602	1.029845	0.000122
1968	1.9572e+02	-1.6395	-11.199015	0.000426	4.255443	1.441783	0.000170
1969	1.9582e+02	-1.6058	-11.053678	0.000365	3.647522	1.235814	0.000146
1970	1.9592e+02	-1.5641	-10.948712	0.000263	2.634322	0.892532	0.000105
1971	1.9601e+02	-1.5272	-10.807412	0.000355	3.546202	1.201486	0.000142
1972	1.9611e+02	-1.4807	-10.641890	0.000415	4.154123	1.407455	0.000166
1973	1.9621e+02	-1.4486	-10.524813	0.000294	2.938282	0.995517	0.000118
1974	1.9631e+02	-1.4005	-10.375439	0.000375	3.748843	1.270142	0.000150
1975	1.9641e+02	-1.3700	-10.230102	0.000365	3.647522	1.235814	0.000146
1976	1.9651e+02	-1.3251	-10.092839	0.000344	3.444882	1.167158	0.000138
1977	1.9661e+02	-1.2802	-9.987874	0.000263	2.634322	0.892532	0.000105
1978	1.9671e+02	-1.2385	-9.798128	0.000476	4.762043	1.613424	0.000191
1979	1.9681e+02	-1.2016	-9.668940	0.000324	3.242242	1.098501	0.000130
1980	1.9691e+02	-1.1583	-9.523603	0.000365	3.647522	1.235814	0.000146
1981	1.9701e+02	-1.1214	-9.398452	0.000314	3.140922	1.064173	0.000126
1982	1.9711e+02	-1.0796	-9.245041	0.000385	3.850163	1.304470	0.000154
1983	1.9721e+02	-1.0428	-9.083555	0.000405	4.052803	1.373127	0.000162
1984	1.9731e+02	-1.0010	-8.982627	0.000253	2.533002	0.858204	0.000101
1985	1.9741e+02	-0.9674	-8.841327	0.000355	3.546202	1.201486	0.000142
1986	1.9751e+02	-0.9272	-8.679842	0.000405	4.052803	1.373127	0.000162
1987	1.9761e+02	-0.8807	-8.526431	0.000385	3.850163	1.304470	0.000154
1988	1.9771e+02	-0.8406	-8.405317	0.000304	3.039602	1.029845	0.000122
1989	1.9781e+02	-0.8053	-8.247868	0.000395	3.951483	1.338799	0.000158
1990	1.9791e+02	-0.7620	-8.082346	0.000415	4.154123	1.407455	0.000166
1991	1.9800e+02	-0.7155	-7.945083	0.000344	3.444882	1.167158	0.000138
1992	1.9810e+02	-0.6850	-7.799746	0.000365	3.647522	1.235814	0.000146
1993	1.9820e+02	-0.6561	-7.662484	0.000344	3.444882	1.167158	0.000138
1994	1.9830e+02	-0.6128	-7.484850	0.000446	4.458083	1.510439	0.000179
1995	1.9840e+02	-0.5663	-7.375847	0.000274	2.735642	0.926861	0.000110
1996	1.9850e+02	-0.5230	-7.202250	0.000436	4.356763	1.476111	0.000174
1997	1.9860e+02	-0.4845	-7.036728	0.000415	4.154123	1.407455	0.000166
1998	1.9870e+02	-0.4412	-6.907539	0.000324	3.242242	1.098501	0.000130
1999	1.9880e+02	-0.4043	-6.762202	0.000365	3.647522	1.235814	0.000146
2000	1.9890e+02	-0.3610	-6.616865	0.000365	3.647522	1.235814	0.000146
2001	1.9900e+02	-0.3353	-6.487677	0.000324	3.242242	1.098501	0.000130
2002	1.9910e+02	-0.2872	-6.330229	0.000395	3.951483	1.338799	0.000158
2003	1.9920e+02	-0.2390	-6.152595	0.000446	4.458083	1.510439	0.000179
2004	1.9930e+02	-0.2102	-6.027444	0.000314	3.140922	1.064173	0.000126
2005	1.9940e+02	-0.1636	-5.869995	0.000395	3.951483	1.338799	0.000158
2006	1.9950e+02	-0.1332	-5.765030	0.000263	2.634322	0.892532	0.000105
2007	1.9960e+02	-0.0850	-5.542987	0.000557	5.572604	1.888049	0.000223
2008	1.9970e+02	-0.0481	-5.421873	0.000304	3.039602	1.029845	0.000122
2009	1.9980e+02	-0.0016	-5.256351	0.000304	3.039602	1.029845	0.000166

Center data before PMax,+/-Pr and +/-Vc Calc.

PMax (uC/cm2):	5.16e+01
Pr (uC/cm2):	1.72e+00
-Pr (uC/cm2):	-5.26e+00
PLoss (uC/cm2):	-1.47e+00
Vc:	1.04e+00
-Vc:	-4.48e-01
C (Max-Eff) (nF):	2.58e-01
K (Eff):	8.75e+02
Vert. (+/-Pr) Shift (uC/cm2):	-1.77e+00
Horiz. Shift (+/-Vc):	2.97e-01
Offset (uC/cm2):	3.78e+00

A (Loop Area - uC/cm2·Volts):	8.87e-04



Hysteresis Version: 5.48.1 - Radiant Technologies, Inc., 1999 - 9/12/24

