»»»»»»»»»»»»»»»»»»»»»»»»»»»»»»»»»»»» Hysteresis ««««««««««««««««««««««««««««««««««««
»»»  Executed Version:	5.48.1
»»»  Vision Version:	5.48.4 (R)
»»»  Vision Compiled:	9/18/24
»»»  Driver Version:	5.47.0
»»»  Windows Version:	Windows 8 or 8.1
»»»  Processor Information:	x86 (AMD or Intel) - 32 Processors
»»»  Tester Name:	PMF21124-494 (100V)
»»»  Tester S/N:	PMF21124-494
»»»  Internal Amp Type:	100V RevK 270k
»»»  Internal Amp S/N:	iAB2-596/K     
»»»  Execution Count:	1
»»»»»»»»»»»»»»»»»»»»»»»»»»»»»»»»»»»»»»»»»»««««««««««««««««««««««««««««««««««««««««««

Stored:	6/10/2025 - 15:58:58
Configured:	06/10/25 03:08:08 PM
Executed:	06/10/25 03:58:26 PM

»»»»»»»»»»»»»»»»»»»»»»»»»»»»»»»»»»» Sample Info ««««««««««««««««««««««««««««««««««««
Sample Name:	
Lot Name:	
Wafer Name:	
Die Row/Column:	0/0
Capacitor Number:	0
Sample Area (cm2):	1.00e-04
Sample Thickness (microns):	3.00e-01

Amplifier:	Internal

»»»»»»»»»»»»»»»»»»»»»»»»»»»»»»»»»»» Tester Info «««««««««««««««««««««««««««««««««««
Tester Name:	PMF21124-494 (100V)
Tester Serial Number:	PMF21124-494
Return Signal Amp. Level:	0.19 [Index: 3]

»»»»»»»»»»»»»»»»»»»»»»»»»»»»»»»» Hysteresis Info ««««««««««««««««««««««««««««««««««
Task Name:	Hyst-1091
Volts:	20.00
Field:	666.67 (kV/cm)
DCBias:	0.00
DCField:	0.00 (kV/cm)
Hysteresis Period (ms):	2.00e+02
Preset:	Enabled
Preset Delay (ms):	1.00e+03
Profile:	Standard Bipolar

»»»»»»»»»»»»»»»»»»»»»»»»»»»»»»»»»»»»»» Data «««««««««««««««««««««««««««««««««««««««
Points:	2009

Valid Data

Point	Time (ms)	Drive Voltage	Measured Polarization (uC/cm2)	Capacitance (uF)	Normalized Capacitance (uF/cm2)	Dielectric Constant	Instantaneous Current (mA)
   1	0.0000e+00	-0.0080	-0.593459	0.000446	4.458530	1.510591	0.000179
   2	9.9500e-02	0.0273	-0.415825	0.000446	4.458530	1.510591	0.000179
   3	1.9900e-01	0.0722	-0.177634	0.000598	5.978483	2.025565	0.000239
   4	2.9850e-01	0.1075	0.100928	0.000699	6.991786	2.368881	0.000280
   5	3.9800e-01	0.1524	0.331045	0.000578	5.775823	1.956902	0.000231
   6	4.9750e-01	0.1845	0.589422	0.000649	6.485134	2.197223	0.000260
   7	5.9700e-01	0.2262	0.839724	0.000628	6.282474	2.128560	0.000252
   8	6.9650e-01	0.2679	1.126361	0.000719	7.194446	2.437544	0.000288
   9	7.9600e-01	0.3096	1.372626	0.000618	6.181144	2.094228	0.000248
  10	8.9550e-01	0.3577	1.590631	0.000547	5.471832	1.853907	0.000219
  11	9.9500e-01	0.3914	1.869194	0.000699	6.991786	2.368881	0.000280
  12	1.0945e+00	0.4315	2.139682	0.000679	6.789125	2.300218	0.000272
  13	1.1940e+00	0.4652	2.398059	0.000649	6.485134	2.197223	0.000260
  14	1.2935e+00	0.5134	2.676621	0.000699	6.991786	2.368881	0.000280
  15	1.3930e+00	0.5454	2.906738	0.000578	5.775823	1.956902	0.000231
  16	1.4925e+00	0.5936	3.185300	0.000699	6.991786	2.368881	0.000280
  17	1.5920e+00	0.6240	3.415417	0.000578	5.775823	1.956902	0.000231
  18	1.6915e+00	0.6690	3.718202	0.000760	7.599767	2.574871	0.000304
  19	1.7910e+00	0.7107	3.936207	0.000547	5.471832	1.853907	0.000219
  20	1.8905e+00	0.7444	4.255141	0.000801	8.005088	2.712197	0.000321
  21	1.9900e+00	0.7941	4.444886	0.000476	4.762521	1.613586	0.000191
  22	2.0895e+00	0.8390	4.739597	0.000740	7.397107	2.506208	0.000296
  23	2.1890e+00	0.8711	5.026234	0.000719	7.194446	2.437544	0.000288
  24	2.2885e+00	0.9048	5.304796	0.000699	6.991786	2.368881	0.000280
  25	2.3880e+00	0.9465	5.591433	0.000719	7.194446	2.437544	0.000288
  26	2.4875e+00	0.9882	5.833661	0.000608	6.079814	2.059897	0.000243
  27	2.5870e+00	1.0123	6.083964	0.000628	6.282474	2.128560	0.000252
  28	2.6865e+00	1.0588	6.346377	0.000659	6.586465	2.231555	0.000264
  29	2.7860e+00	1.0989	6.608791	0.000659	6.586465	2.231555	0.000264
  30	2.8855e+00	1.1486	6.943873	0.000841	8.410409	2.849524	0.000337
  31	2.9850e+00	1.1839	7.182064	0.000598	5.978483	2.025565	0.000239
  32	3.0845e+00	1.2192	7.456590	0.000689	6.890455	2.334549	0.000276
  33	3.1840e+00	1.2641	7.686706	0.000578	5.775823	1.956902	0.000231
  34	3.2835e+00	1.3010	7.969306	0.000709	7.093116	2.403213	0.000284
  35	3.3830e+00	1.3572	8.259980	0.000730	7.295776	2.471876	0.000292
  36	3.4825e+00	1.3828	8.506245	0.000618	6.181144	2.094228	0.000248
  37	3.5820e+00	1.4278	8.788845	0.000709	7.093116	2.403213	0.000284
  38	3.6815e+00	1.4679	9.051258	0.000659	6.586465	2.231555	0.000264
  39	3.7810e+00	1.5080	9.337895	0.000719	7.194446	2.437544	0.000288
  40	3.8805e+00	1.5561	9.551863	0.000537	5.370502	1.819575	0.000215
  41	3.9800e+00	1.5866	9.854648	0.000760	7.599767	2.574871	0.000304
  42	4.0795e+00	1.6267	10.137248	0.000709	7.093116	2.403213	0.000284
  43	4.1790e+00	1.6652	10.383513	0.000618	6.181144	2.094228	0.000248
  44	4.2785e+00	1.7069	10.649964	0.000669	6.687795	2.265886	0.000268
  45	4.3780e+00	1.7550	10.948712	0.000750	7.498437	2.540539	0.000300
  46	4.4775e+00	1.7791	11.174792	0.000567	5.674493	1.922570	0.000227
  47	4.5770e+00	1.8224	11.457391	0.000709	7.093116	2.403213	0.000284
  48	4.6765e+00	1.8625	11.699619	0.000608	6.079814	2.059897	0.000243
  49	4.7760e+00	1.9106	11.982219	0.000709	7.093116	2.403213	0.000284
  50	4.8755e+00	1.9443	12.220410	0.000598	5.978483	2.025565	0.000239
  51	4.9750e+00	1.9796	12.515121	0.000740	7.397107	2.506208	0.000296
  52	5.0745e+00	2.0213	12.773497	0.000649	6.485134	2.197223	0.000260
  53	5.1740e+00	2.0695	13.068208	0.000740	7.397107	2.506208	0.000296
  54	5.2735e+00	2.1031	13.302362	0.000588	5.877153	1.991233	0.000235
  55	5.3730e+00	2.1497	13.560739	0.000649	6.485134	2.197223	0.000260
  56	5.4725e+00	2.1850	13.831227	0.000679	6.789125	2.300218	0.000272
  57	5.5720e+00	2.2203	14.105752	0.000689	6.890455	2.334549	0.000276
  58	5.6715e+00	2.2716	14.384315	0.000699	6.991786	2.368881	0.000280
  59	5.7710e+00	2.2973	14.622506	0.000598	5.978483	2.025565	0.000239
  60	5.8705e+00	2.3438	14.901068	0.000699	6.991786	2.368881	0.000280
  61	5.9700e+00	2.3871	15.143296	0.000608	6.079814	2.059897	0.000243
  62	6.0695e+00	2.4224	15.401673	0.000649	6.485134	2.197223	0.000260
  63	6.1690e+00	2.4609	15.672161	0.000679	6.789125	2.300218	0.000272
  64	6.2685e+00	2.4962	15.946686	0.000689	6.890455	2.334549	0.000276
  65	6.3680e+00	2.5443	16.180840	0.000588	5.877153	1.991233	0.000235
  66	6.4675e+00	2.5860	16.431142	0.000628	6.282474	2.128560	0.000252
  67	6.5670e+00	2.6245	16.709705	0.000699	6.991786	2.368881	0.000280
  68	6.6665e+00	2.6598	17.008453	0.000750	7.498437	2.540539	0.000300
  69	6.7660e+00	2.7015	17.258755	0.000628	6.282474	2.128560	0.000252
  70	6.8655e+00	2.7448	17.509058	0.000628	6.282474	2.128560	0.000252
  71	6.9650e+00	2.7737	17.771472	0.000659	6.586465	2.231555	0.000264
  72	7.0645e+00	2.8267	18.025811	0.000638	6.383804	2.162891	0.000256
  73	7.1640e+00	2.8555	18.316485	0.000730	7.295776	2.471876	0.000292
  74	7.2635e+00	2.8988	18.550639	0.000588	5.877153	1.991233	0.000235
  75	7.3630e+00	2.9325	18.825164	0.000689	6.890455	2.334549	0.000276
  76	7.4625e+00	2.9807	19.099689	0.000689	6.890455	2.334549	0.000276
  77	7.5620e+00	3.0111	19.329806	0.000578	5.775823	1.956902	0.000231
  78	7.6615e+00	3.0529	19.608368	0.000699	6.991786	2.368881	0.000280
  79	7.7610e+00	3.0946	19.846559	0.000598	5.978483	2.025565	0.000239
  80	7.8605e+00	3.1363	20.104936	0.000649	6.485134	2.197223	0.000260
  81	7.9600e+00	3.1732	20.387535	0.000709	7.093116	2.403213	0.000284
  82	8.0595e+00	3.2197	20.605541	0.000547	5.471832	1.853907	0.000219
  83	8.1590e+00	3.2582	20.904289	0.000750	7.498437	2.540539	0.000300
  84	8.2585e+00	3.3031	21.114220	0.000527	5.269172	1.785244	0.000211
  85	8.3580e+00	3.3384	21.392782	0.000699	6.991786	2.368881	0.000280
  86	8.4575e+00	3.3705	21.659233	0.000669	6.687795	2.265886	0.000268
  87	8.5570e+00	3.4186	21.877239	0.000547	5.471832	1.853907	0.000219
  88	8.6565e+00	3.4716	22.139652	0.000659	6.586465	2.231555	0.000264
  89	8.7560e+00	3.5004	22.422252	0.000709	7.093116	2.403213	0.000284
  90	8.8555e+00	3.5373	22.688703	0.000669	6.687795	2.265886	0.000268
  91	8.9550e+00	3.5742	22.914782	0.000567	5.674493	1.922570	0.000227
  92	9.0545e+00	3.6175	23.140862	0.000567	5.674493	1.922570	0.000227
  93	9.1540e+00	3.6577	23.443647	0.000760	7.599767	2.574871	0.000304
  94	9.2535e+00	3.7042	23.681838	0.000598	5.978483	2.025565	0.000239
  95	9.3530e+00	3.7363	23.903881	0.000557	5.573162	1.888239	0.000223
  96	9.4525e+00	3.7860	24.170332	0.000669	6.687795	2.265886	0.000268
  97	9.5520e+00	3.8068	24.444857	0.000689	6.890455	2.334549	0.000276
  98	9.6515e+00	3.8550	24.670936	0.000567	5.674493	1.922570	0.000227
  99	9.7510e+00	3.8999	24.925276	0.000638	6.383804	2.162891	0.000256
 100	9.8505e+00	3.9336	25.191727	0.000669	6.687795	2.265886	0.000268
 101	9.9500e+00	3.9721	25.405695	0.000537	5.370502	1.819575	0.000215
 102	1.0050e+01	4.0170	25.692332	0.000719	7.194446	2.437544	0.000288
 103	1.0149e+01	4.0523	25.910337	0.000547	5.471832	1.853907	0.000219
 104	1.0248e+01	4.0924	26.152565	0.000608	6.079814	2.059897	0.000243
 105	1.0348e+01	4.1357	26.423053	0.000679	6.789125	2.300218	0.000272
 106	1.0447e+01	4.1726	26.661244	0.000598	5.978483	2.025565	0.000239
 107	1.0547e+01	4.2175	26.911547	0.000628	6.282474	2.128560	0.000252
 108	1.0646e+01	4.2432	27.149738	0.000598	5.978483	2.025565	0.000239
 109	1.0746e+01	4.2929	27.375817	0.000567	5.674493	1.922570	0.000227
 110	1.0845e+01	4.3378	27.630157	0.000638	6.383804	2.162891	0.000256
 111	1.0945e+01	4.3715	27.832014	0.000507	5.066511	1.716581	0.000203
 112	1.1044e+01	4.4132	28.082316	0.000628	6.282474	2.128560	0.000252
 113	1.1144e+01	4.4566	28.340693	0.000649	6.485134	2.197223	0.000260
 114	1.1243e+01	4.4951	28.627330	0.000719	7.194446	2.437544	0.000288
 115	1.1343e+01	4.5320	28.837261	0.000527	5.269172	1.785244	0.000211
 116	1.1443e+01	4.5737	29.067377	0.000578	5.775823	1.956902	0.000231
 117	1.1542e+01	4.6138	29.309605	0.000608	6.079814	2.059897	0.000243
 118	1.1642e+01	4.6507	29.555871	0.000618	6.181144	2.094228	0.000248
 119	1.1741e+01	4.6828	29.777913	0.000557	5.573162	1.888239	0.000223
 120	1.1841e+01	4.7309	29.995919	0.000547	5.471832	1.853907	0.000219
 121	1.1940e+01	4.7678	30.234110	0.000598	5.978483	2.025565	0.000239
 122	1.2040e+01	4.8175	30.496523	0.000659	6.586465	2.231555	0.000264
 123	1.2139e+01	4.8528	30.730677	0.000588	5.877153	1.991233	0.000235
 124	1.2239e+01	4.9025	30.940608	0.000527	5.269172	1.785244	0.000211
 125	1.2338e+01	4.9282	31.178799	0.000598	5.978483	2.025565	0.000239
 126	1.2438e+01	4.9715	31.388730	0.000527	5.269172	1.785244	0.000211
 127	1.2537e+01	5.0180	31.647107	0.000649	6.485134	2.197223	0.000260
 128	1.2636e+01	5.0453	31.853001	0.000517	5.167842	1.750912	0.000207
 129	1.2736e+01	5.0950	32.075043	0.000557	5.573162	1.888239	0.000223
 130	1.2835e+01	5.1271	32.341494	0.000669	6.687795	2.265886	0.000268
 131	1.2935e+01	5.1688	32.587760	0.000618	6.181144	2.094228	0.000248
 132	1.3034e+01	5.2057	32.825951	0.000598	5.978483	2.025565	0.000239
 133	1.3134e+01	5.2507	33.088365	0.000659	6.586465	2.231555	0.000264
 134	1.3233e+01	5.2940	33.265998	0.000446	4.458530	1.510591	0.000179
 135	1.3333e+01	5.3437	33.520338	0.000638	6.383804	2.162891	0.000256
 136	1.3432e+01	5.3646	33.746418	0.000567	5.674493	1.922570	0.000227
 137	1.3532e+01	5.4127	33.960386	0.000537	5.370502	1.819575	0.000215
 138	1.3632e+01	5.4528	34.206651	0.000618	6.181144	2.094228	0.000248
 139	1.3731e+01	5.4881	34.420619	0.000537	5.370502	1.819575	0.000215
 140	1.3831e+01	5.5346	34.638625	0.000547	5.471832	1.853907	0.000219
 141	1.3930e+01	5.5699	34.901038	0.000659	6.586465	2.231555	0.000264
 142	1.4030e+01	5.6068	35.102895	0.000507	5.066511	1.716581	0.000203
 143	1.4129e+01	5.6517	35.369346	0.000669	6.687795	2.265886	0.000268
 144	1.4229e+01	5.6886	35.551017	0.000456	4.559860	1.544922	0.000183
 145	1.4328e+01	5.7223	35.793245	0.000608	6.079814	2.059897	0.000243
 146	1.4428e+01	5.7801	36.019325	0.000567	5.674493	1.922570	0.000227
 147	1.4527e+01	5.8057	36.241368	0.000557	5.573162	1.888239	0.000223
 148	1.4627e+01	5.8426	36.471484	0.000578	5.775823	1.956902	0.000231
 149	1.4726e+01	5.8940	36.681415	0.000527	5.269172	1.785244	0.000211
 150	1.4825e+01	5.9260	36.935755	0.000638	6.383804	2.162891	0.000256
 151	1.4925e+01	5.9742	37.137612	0.000507	5.066511	1.716581	0.000203
 152	1.5024e+01	6.0095	37.319283	0.000456	4.559860	1.544922	0.000183
 153	1.5124e+01	6.0447	37.569585	0.000628	6.282474	2.128560	0.000252
 154	1.5223e+01	6.0849	37.807776	0.000598	5.978483	2.025565	0.000239
 155	1.5323e+01	6.1137	38.001559	0.000486	4.863851	1.647917	0.000195
 156	1.5422e+01	6.1731	38.231675	0.000578	5.775823	1.956902	0.000231
 157	1.5522e+01	6.2100	38.421421	0.000476	4.762521	1.613586	0.000191
 158	1.5621e+01	6.2501	38.675760	0.000638	6.383804	2.162891	0.000256
 159	1.5721e+01	6.2902	38.897803	0.000557	5.573162	1.888239	0.000223
 160	1.5820e+01	6.3287	39.127920	0.000578	5.775823	1.956902	0.000231
 161	1.5920e+01	6.3656	39.297479	0.000426	4.255870	1.441928	0.000170
 162	1.6020e+01	6.4057	39.535670	0.000598	5.978483	2.025565	0.000239
 163	1.6119e+01	6.4522	39.741564	0.000517	5.167842	1.750912	0.000207
 164	1.6218e+01	6.4859	39.971681	0.000578	5.775823	1.956902	0.000231
 165	1.6318e+01	6.5212	40.169501	0.000497	4.965181	1.682249	0.000199
 166	1.6418e+01	6.5645	40.375395	0.000517	5.167842	1.750912	0.000207
 167	1.6517e+01	6.5998	40.645883	0.000679	6.789125	2.300218	0.000272
 168	1.6616e+01	6.6463	40.799294	0.000385	3.850549	1.304601	0.000154
 169	1.6716e+01	6.6848	41.017299	0.000547	5.471832	1.853907	0.000219
 170	1.6816e+01	6.7249	41.235304	0.000547	5.471832	1.853907	0.000219
 171	1.6915e+01	6.7554	41.449273	0.000537	5.370502	1.819575	0.000215
 172	1.7015e+01	6.8132	41.687464	0.000598	5.978483	2.025565	0.000239
 173	1.7114e+01	6.8469	41.865098	0.000446	4.458530	1.510591	0.000179
 174	1.7213e+01	6.8822	42.099251	0.000588	5.877153	1.991233	0.000235
 175	1.7313e+01	6.9287	42.301108	0.000507	5.066511	1.716581	0.000203
 176	1.7413e+01	6.9640	42.507002	0.000517	5.167842	1.750912	0.000207
 177	1.7512e+01	7.0041	42.729045	0.000557	5.573162	1.888239	0.000223
 178	1.7611e+01	7.0458	42.943013	0.000537	5.370502	1.819575	0.000215
 179	1.7711e+01	7.0811	43.124684	0.000456	4.559860	1.544922	0.000183
 180	1.7811e+01	7.1244	43.350764	0.000567	5.674493	1.922570	0.000227
 181	1.7910e+01	7.1501	43.576843	0.000567	5.674493	1.922570	0.000227
 182	1.8009e+01	7.2046	43.738329	0.000405	4.053209	1.373264	0.000162
 183	1.8109e+01	7.2383	43.968445	0.000578	5.775823	1.956902	0.000231
 184	1.8209e+01	7.2800	44.158191	0.000476	4.762521	1.613586	0.000191
 185	1.8308e+01	7.3281	44.384270	0.000567	5.674493	1.922570	0.000227
 186	1.8407e+01	7.3682	44.578053	0.000486	4.863851	1.647917	0.000195
 187	1.8507e+01	7.4035	44.771835	0.000486	4.863851	1.647917	0.000195
 188	1.8607e+01	7.4404	45.001952	0.000578	5.775823	1.956902	0.000231
 189	1.8706e+01	7.4854	45.187660	0.000466	4.661190	1.579254	0.000187
 190	1.8805e+01	7.5190	45.377406	0.000476	4.762521	1.613586	0.000191
 191	1.8905e+01	7.5591	45.603485	0.000567	5.674493	1.922570	0.000227
 192	1.9005e+01	7.5976	45.805342	0.000507	5.066511	1.716581	0.000203
 193	1.9104e+01	7.6378	46.031422	0.000567	5.674493	1.922570	0.000227
 194	1.9203e+01	7.6795	46.205019	0.000436	4.357200	1.476259	0.000174
 195	1.9303e+01	7.7196	46.390727	0.000466	4.661190	1.579254	0.000187
 196	1.9402e+01	7.7709	46.564324	0.000436	4.357200	1.476259	0.000174
 197	1.9502e+01	7.8030	46.806552	0.000608	6.079814	2.059897	0.000243
 198	1.9602e+01	7.8415	47.000334	0.000486	4.863851	1.647917	0.000195
 199	1.9701e+01	7.8864	47.226414	0.000567	5.674493	1.922570	0.000227
 200	1.9800e+01	7.9297	47.420196	0.000486	4.863851	1.647917	0.000195
 201	1.9900e+01	7.9586	47.658387	0.000598	5.978483	2.025565	0.000239
 202	2.0000e+01	8.0003	47.823910	0.000415	4.154539	1.407596	0.000166
 203	2.0099e+01	8.0340	48.058064	0.000588	5.877153	1.991233	0.000235
 204	2.0198e+01	8.0805	48.215512	0.000395	3.951879	1.338933	0.000158
 205	2.0298e+01	8.1238	48.429480	0.000537	5.370502	1.819575	0.000215
 206	2.0398e+01	8.1591	48.639411	0.000527	5.269172	1.785244	0.000211
 207	2.0497e+01	8.2024	48.837231	0.000497	4.965181	1.682249	0.000199
 208	2.0596e+01	8.2393	48.990642	0.000385	3.850549	1.304601	0.000154
 209	2.0696e+01	8.2778	49.180388	0.000476	4.762521	1.613586	0.000191
 210	2.0796e+01	8.3163	49.430690	0.000628	6.282474	2.128560	0.000252
 211	2.0895e+01	8.3677	49.612361	0.000456	4.559860	1.544922	0.000183
 212	2.0994e+01	8.4030	49.814218	0.000507	5.066511	1.716581	0.000203
 213	2.1094e+01	8.4286	49.979740	0.000415	4.154539	1.407596	0.000166
 214	2.1194e+01	8.4816	50.185634	0.000517	5.167842	1.750912	0.000207
 215	2.1293e+01	8.5217	50.399603	0.000537	5.370502	1.819575	0.000215
 216	2.1392e+01	8.5602	50.597422	0.000497	4.965181	1.682249	0.000199
 217	2.1492e+01	8.5907	50.746796	0.000375	3.749218	1.270270	0.000150
 218	2.1591e+01	8.6404	50.968839	0.000557	5.573162	1.888239	0.000223
 219	2.1691e+01	8.6741	51.106101	0.000345	3.445228	1.167275	0.000138
 220	2.1791e+01	8.7078	51.356404	0.000628	6.282474	2.128560	0.000252
 221	2.1890e+01	8.7623	51.538075	0.000456	4.559860	1.544922	0.000183
 222	2.1989e+01	8.7864	51.695523	0.000395	3.951879	1.338933	0.000158
 223	2.2089e+01	8.8329	51.913528	0.000547	5.471832	1.853907	0.000219
 224	2.2189e+01	8.8762	52.091162	0.000446	4.458530	1.510591	0.000179
 225	2.2288e+01	8.9099	52.305131	0.000537	5.370502	1.819575	0.000215
 226	2.2387e+01	8.9580	52.458542	0.000385	3.850549	1.304601	0.000154
 227	2.2487e+01	8.9933	52.648287	0.000476	4.762521	1.613586	0.000191
 228	2.2587e+01	9.0415	52.858218	0.000527	5.269172	1.785244	0.000211
 229	2.2686e+01	9.0784	53.047964	0.000476	4.762521	1.613586	0.000191
 230	2.2785e+01	9.1153	53.237709	0.000476	4.762521	1.613586	0.000191
 231	2.2885e+01	9.1505	53.419380	0.000456	4.559860	1.544922	0.000183
 232	2.2985e+01	9.1971	53.572791	0.000385	3.850549	1.304601	0.000154
 233	2.3084e+01	9.2356	53.738314	0.000415	4.154539	1.407596	0.000166
 234	2.3183e+01	9.2821	53.956319	0.000547	5.471832	1.853907	0.000219
 235	2.3283e+01	9.3142	54.210659	0.000638	6.383804	2.162891	0.000256
 236	2.3383e+01	9.3575	54.331773	0.000304	3.039907	1.029948	0.000122
 237	2.3482e+01	9.3960	54.525555	0.000486	4.863851	1.647917	0.000195
 238	2.3581e+01	9.4361	54.707226	0.000456	4.559860	1.544922	0.000183
 239	2.3681e+01	9.4746	54.901009	0.000486	4.863851	1.647917	0.000195
 240	2.3780e+01	9.5179	55.094791	0.000486	4.863851	1.647917	0.000195
 241	2.3880e+01	9.5484	55.284537	0.000476	4.762521	1.613586	0.000191
 242	2.3980e+01	9.5997	55.458134	0.000436	4.357200	1.476259	0.000174
 243	2.4079e+01	9.6479	55.651916	0.000486	4.863851	1.647917	0.000195
 244	2.4178e+01	9.6783	55.845699	0.000486	4.863851	1.647917	0.000195
 245	2.4278e+01	9.7104	55.970850	0.000314	3.141237	1.064280	0.000126
 246	2.4378e+01	9.7537	56.196929	0.000567	5.674493	1.922570	0.000227
 247	2.4477e+01	9.7922	56.374563	0.000446	4.458530	1.510591	0.000179
 248	2.4576e+01	9.8307	56.552197	0.000446	4.458530	1.510591	0.000179
 249	2.4676e+01	9.8692	56.758091	0.000517	5.167842	1.750912	0.000207
 250	2.4776e+01	9.9174	56.883243	0.000314	3.141237	1.064280	0.000126
 251	2.4875e+01	9.9543	57.145656	0.000659	6.586465	2.231555	0.000264
 252	2.4974e+01	9.9863	57.266770	0.000304	3.039907	1.029948	0.000122
 253	2.5074e+01	10.0281	57.484776	0.000547	5.471832	1.853907	0.000219
 254	2.5174e+01	10.0698	57.678558	0.000486	4.863851	1.647917	0.000195
 255	2.5273e+01	10.1211	57.823895	0.000365	3.647888	1.235938	0.000146
 256	2.5372e+01	10.1564	58.001529	0.000446	4.458530	1.510591	0.000179
 257	2.5472e+01	10.2029	58.191275	0.000476	4.762521	1.613586	0.000191
 258	2.5572e+01	10.2254	58.364871	0.000436	4.357200	1.476259	0.000174
 259	2.5671e+01	10.2719	58.582877	0.000547	5.471832	1.853907	0.000219
 260	2.5770e+01	10.3056	58.740325	0.000395	3.951879	1.338933	0.000158
 261	2.5870e+01	10.3441	58.934108	0.000486	4.863851	1.647917	0.000195
 262	2.5970e+01	10.4018	59.103667	0.000426	4.255870	1.441928	0.000170
 263	2.6069e+01	10.4211	59.281301	0.000446	4.458530	1.510591	0.000179
 264	2.6169e+01	10.4644	59.450861	0.000426	4.255870	1.441928	0.000170
 265	2.6268e+01	10.5141	59.664829	0.000537	5.370502	1.819575	0.000215
 266	2.6367e+01	10.5446	59.838426	0.000436	4.357200	1.476259	0.000174
 267	2.6467e+01	10.5895	60.012023	0.000436	4.357200	1.476259	0.000174
 268	2.6567e+01	10.6329	60.225991	0.000537	5.370502	1.819575	0.000215
 269	2.6666e+01	10.6730	60.351142	0.000314	3.141237	1.064280	0.000126
 270	2.6765e+01	10.6986	60.516665	0.000415	4.154539	1.407596	0.000166
 271	2.6865e+01	10.7516	60.718522	0.000507	5.066511	1.716581	0.000203
 272	2.6965e+01	10.7885	60.900193	0.000456	4.559860	1.544922	0.000183
 273	2.7064e+01	10.8286	61.053604	0.000385	3.850549	1.304601	0.000154
 274	2.7163e+01	10.8703	61.255461	0.000507	5.066511	1.716581	0.000203
 275	2.7263e+01	10.9040	61.425020	0.000426	4.255870	1.441928	0.000170
 276	2.7363e+01	10.9457	61.586506	0.000405	4.053209	1.373264	0.000162
 277	2.7462e+01	10.9922	61.780288	0.000486	4.863851	1.647917	0.000195
 278	2.7561e+01	11.0339	61.949848	0.000426	4.255870	1.441928	0.000170
 279	2.7661e+01	11.0692	62.111333	0.000405	4.053209	1.373264	0.000162
 280	2.7761e+01	11.1173	62.284930	0.000436	4.357200	1.476259	0.000174
 281	2.7860e+01	11.1526	62.462564	0.000446	4.458530	1.510591	0.000179
 282	2.7959e+01	11.1847	62.628087	0.000415	4.154539	1.407596	0.000166
 283	2.8059e+01	11.2312	62.793609	0.000415	4.154539	1.407596	0.000166
 284	2.8159e+01	11.2537	62.971243	0.000446	4.458530	1.510591	0.000179
 285	2.8258e+01	11.3098	63.169063	0.000497	4.965181	1.682249	0.000199
 286	2.8358e+01	11.3483	63.326511	0.000395	3.951879	1.338933	0.000158
 287	2.8457e+01	11.3917	63.492034	0.000415	4.154539	1.407596	0.000166
 288	2.8556e+01	11.4205	63.673705	0.000456	4.559860	1.544922	0.000183
 289	2.8656e+01	11.4622	63.847302	0.000436	4.357200	1.476259	0.000174
 290	2.8756e+01	11.5120	64.012824	0.000415	4.154539	1.407596	0.000166
 291	2.8855e+01	11.5521	64.162198	0.000375	3.749218	1.270270	0.000150
 292	2.8954e+01	11.5842	64.335795	0.000436	4.357200	1.476259	0.000174
 293	2.9054e+01	11.6307	64.537652	0.000507	5.066511	1.716581	0.000203
 294	2.9154e+01	11.6708	64.695100	0.000395	3.951879	1.338933	0.000158
 295	2.9253e+01	11.7013	64.864660	0.000426	4.255870	1.441928	0.000170
 296	2.9352e+01	11.7446	65.005960	0.000355	3.546558	1.201606	0.000142
 297	2.9452e+01	11.7847	65.252225	0.000618	6.181144	2.094228	0.000248
 298	2.9552e+01	11.8248	65.369302	0.000294	2.938577	0.995617	0.000118
 299	2.9651e+01	11.8745	65.579233	0.000527	5.269172	1.785244	0.000211
 300	2.9750e+01	11.9034	65.736681	0.000395	3.951879	1.338933	0.000158
 301	2.9850e+01	11.9419	65.894130	0.000395	3.951879	1.338933	0.000158
 302	2.9950e+01	11.9804	66.100023	0.000517	5.167842	1.750912	0.000207
 303	3.0049e+01	12.0221	66.253435	0.000385	3.850549	1.304601	0.000154
 304	3.0148e+01	12.0719	66.435106	0.000456	4.559860	1.544922	0.000183
 305	3.0248e+01	12.1055	66.584480	0.000375	3.749218	1.270270	0.000150
 306	3.0348e+01	12.1505	66.758077	0.000436	4.357200	1.476259	0.000174
 307	3.0447e+01	12.1841	66.955896	0.000497	4.965181	1.682249	0.000199
 308	3.0547e+01	12.2307	67.105270	0.000375	3.749218	1.270270	0.000150
 309	3.0646e+01	12.2579	67.274830	0.000426	4.255870	1.441928	0.000170
 310	3.0745e+01	12.3013	67.440353	0.000415	4.154539	1.407596	0.000166
 311	3.0845e+01	12.3478	67.646246	0.000517	5.167842	1.750912	0.000207
 312	3.0945e+01	12.3943	67.771398	0.000314	3.141237	1.064280	0.000126
 313	3.1044e+01	12.4264	67.961143	0.000476	4.762521	1.613586	0.000191
 314	3.1143e+01	12.4617	68.158963	0.000497	4.965181	1.682249	0.000199
 315	3.1243e+01	12.5050	68.284114	0.000314	3.141237	1.064280	0.000126
 316	3.1343e+01	12.5435	68.465785	0.000456	4.559860	1.544922	0.000183
 317	3.1442e+01	12.5756	68.679753	0.000537	5.370502	1.819575	0.000215
 318	3.1541e+01	12.6173	68.788756	0.000274	2.735916	0.926953	0.000110
 319	3.1641e+01	12.6686	68.930056	0.000355	3.546558	1.201606	0.000142
 320	3.1741e+01	12.7071	69.139987	0.000527	5.269172	1.785244	0.000211
 321	3.1840e+01	12.7424	69.293398	0.000385	3.850549	1.304601	0.000154
 322	3.1939e+01	12.7777	69.450846	0.000395	3.951879	1.338933	0.000158
 323	3.2039e+01	12.8194	69.640591	0.000476	4.762521	1.613586	0.000191
 324	3.2139e+01	12.8676	69.789966	0.000375	3.749218	1.270270	0.000150
 325	3.2238e+01	12.9093	69.955488	0.000415	4.154539	1.407596	0.000166
 326	3.2337e+01	12.9413	70.141196	0.000466	4.661190	1.579254	0.000187
 327	3.2437e+01	12.9750	70.274422	0.000334	3.343897	1.132943	0.000134
 328	3.2536e+01	13.0296	70.435907	0.000405	4.053209	1.373264	0.000162
 329	3.2636e+01	13.0536	70.625653	0.000476	4.762521	1.613586	0.000191
 330	3.2736e+01	13.1002	70.779064	0.000385	3.850549	1.304601	0.000154
 331	3.2835e+01	13.1339	70.916326	0.000345	3.445228	1.167275	0.000138
 332	3.2934e+01	13.1756	71.097997	0.000456	4.559860	1.544922	0.000183
 333	3.3034e+01	13.2141	71.279669	0.000456	4.559860	1.544922	0.000183
 334	3.3133e+01	13.2590	71.384634	0.000263	2.634586	0.892622	0.000105
 335	3.3233e+01	13.2911	71.582454	0.000497	4.965181	1.682249	0.000199
 336	3.3333e+01	13.3392	71.780273	0.000497	4.965181	1.682249	0.000199
 337	3.3432e+01	13.3857	71.897350	0.000294	2.938577	0.995617	0.000118
 338	3.3532e+01	13.4114	72.099207	0.000507	5.066511	1.716581	0.000203
 339	3.3631e+01	13.4579	72.280878	0.000456	4.559860	1.544922	0.000183
 340	3.3730e+01	13.4980	72.410067	0.000324	3.242567	1.098612	0.000130
 341	3.3830e+01	13.5413	72.571552	0.000405	4.053209	1.373264	0.000162
 342	3.3929e+01	13.5766	72.745149	0.000436	4.357200	1.476259	0.000174
 343	3.4029e+01	13.6199	72.894523	0.000375	3.749218	1.270270	0.000150
 344	3.4129e+01	13.6536	73.072157	0.000446	4.458530	1.510591	0.000179
 345	3.4228e+01	13.6873	73.229605	0.000395	3.951879	1.338933	0.000158
 346	3.4328e+01	13.7370	73.391091	0.000405	4.053209	1.373264	0.000162
 347	3.4427e+01	13.7836	73.532390	0.000355	3.546558	1.201606	0.000142
 348	3.4526e+01	13.8157	73.722136	0.000476	4.762521	1.613586	0.000191
 349	3.4626e+01	13.8590	73.871510	0.000375	3.749218	1.270270	0.000150
 350	3.4725e+01	13.8959	74.032995	0.000405	4.053209	1.373264	0.000162
 351	3.4825e+01	13.9344	74.190443	0.000395	3.951879	1.338933	0.000158
 352	3.4925e+01	13.9761	74.339817	0.000375	3.749218	1.270270	0.000150
 353	3.5024e+01	14.0066	74.549749	0.000527	5.269172	1.785244	0.000211
 354	3.5123e+01	14.0563	74.682974	0.000334	3.343897	1.132943	0.000134
 355	3.5223e+01	14.0980	74.848497	0.000415	4.154539	1.407596	0.000166
 356	3.5322e+01	14.1349	74.969611	0.000304	3.039907	1.029948	0.000122
 357	3.5422e+01	14.1766	75.171467	0.000507	5.066511	1.716581	0.000203
 358	3.5522e+01	14.2103	75.312767	0.000355	3.546558	1.201606	0.000142
 359	3.5621e+01	14.2568	75.437918	0.000314	3.141237	1.064280	0.000126
 360	3.5721e+01	14.2953	75.623627	0.000466	4.661190	1.579254	0.000187
 361	3.5820e+01	14.3354	75.777038	0.000385	3.850549	1.304601	0.000154
 362	3.5919e+01	14.3675	75.999080	0.000557	5.573162	1.888239	0.000223
 363	3.6019e+01	14.4044	76.112120	0.000284	2.837246	0.961285	0.000114
 364	3.6118e+01	14.4573	76.289754	0.000446	4.458530	1.510591	0.000179
 365	3.6218e+01	14.4830	76.435091	0.000365	3.647888	1.235938	0.000146
 366	3.6318e+01	14.5360	76.600613	0.000415	4.154539	1.407596	0.000166
 367	3.6417e+01	14.5761	76.741913	0.000355	3.546558	1.201606	0.000142
 368	3.6517e+01	14.6049	76.907436	0.000415	4.154539	1.407596	0.000166
 369	3.6616e+01	14.6643	77.068921	0.000405	4.053209	1.373264	0.000162
 370	3.6715e+01	14.6932	77.226370	0.000395	3.951879	1.338933	0.000158
 371	3.6815e+01	14.7301	77.399966	0.000436	4.357200	1.476259	0.000174
 372	3.6914e+01	14.7702	77.557415	0.000395	3.951879	1.338933	0.000158
 373	3.7014e+01	14.8135	77.718900	0.000405	4.053209	1.373264	0.000162
 374	3.7114e+01	14.8488	77.880386	0.000405	4.053209	1.373264	0.000162
 375	3.7213e+01	14.8841	78.009574	0.000324	3.242567	1.098612	0.000130
 376	3.7313e+01	14.9418	78.211431	0.000507	5.066511	1.716581	0.000203
 377	3.7412e+01	14.9691	78.364842	0.000385	3.850549	1.304601	0.000154
 378	3.7511e+01	15.0156	78.518253	0.000385	3.850549	1.304601	0.000154
 379	3.7611e+01	15.0509	78.631293	0.000284	2.837246	0.961285	0.000114
 380	3.7711e+01	15.0958	78.817001	0.000466	4.661190	1.579254	0.000187
 381	3.7810e+01	15.1263	78.954264	0.000345	3.445228	1.167275	0.000138
 382	3.7910e+01	15.1632	79.156120	0.000507	5.066511	1.716581	0.000203
 383	3.8009e+01	15.2049	79.269160	0.000284	2.837246	0.961285	0.000114
 384	3.8108e+01	15.2482	79.418534	0.000375	3.749218	1.270270	0.000150
 385	3.8208e+01	15.2948	79.563871	0.000365	3.647888	1.235938	0.000146
 386	3.8307e+01	15.3317	79.749579	0.000466	4.661190	1.579254	0.000187
 387	3.8407e+01	15.3718	79.898953	0.000375	3.749218	1.270270	0.000150
 388	3.8507e+01	15.4071	80.064476	0.000415	4.154539	1.407596	0.000166
 389	3.8606e+01	15.4520	80.201739	0.000345	3.445228	1.167275	0.000138
 390	3.8706e+01	15.4889	80.355150	0.000385	3.850549	1.304601	0.000154
 391	3.8805e+01	15.5258	80.569118	0.000537	5.370502	1.819575	0.000215
 392	3.8904e+01	15.5691	80.653898	0.000213	2.127935	0.720964	0.000085
 393	3.9004e+01	15.6092	80.835569	0.000456	4.559860	1.544922	0.000183
 394	3.9103e+01	15.6541	80.964757	0.000324	3.242567	1.098612	0.000130
 395	3.9203e+01	15.6942	81.138354	0.000436	4.357200	1.476259	0.000174
 396	3.9303e+01	15.7183	81.279654	0.000355	3.546558	1.201606	0.000142
 397	3.9402e+01	15.7696	81.445176	0.000415	4.154539	1.407596	0.000166
 398	3.9502e+01	15.8001	81.606662	0.000405	4.053209	1.373264	0.000162
 399	3.9601e+01	15.8482	81.747962	0.000355	3.546558	1.201606	0.000142
 400	3.9700e+01	15.8915	81.881187	0.000334	3.343897	1.132943	0.000134
 401	3.9800e+01	15.9220	82.058821	0.000446	4.458530	1.510591	0.000179
 402	3.9900e+01	15.9717	82.204158	0.000365	3.647888	1.235938	0.000146
 403	3.9999e+01	16.0118	82.321235	0.000294	2.938577	0.995617	0.000118
 404	4.0099e+01	16.0471	82.510980	0.000476	4.762521	1.613586	0.000191
 405	4.0198e+01	16.0905	82.660354	0.000375	3.749218	1.270270	0.000150
 406	4.0297e+01	16.1113	82.817803	0.000395	3.951879	1.338933	0.000158
 407	4.0397e+01	16.1659	82.971214	0.000385	3.850549	1.304601	0.000154
 408	4.0496e+01	16.2108	83.104439	0.000334	3.343897	1.132943	0.000134
 409	4.0596e+01	16.2364	83.286110	0.000456	4.559860	1.544922	0.000183
 410	4.0696e+01	16.2846	83.399150	0.000284	2.837246	0.961285	0.000114
 411	4.0795e+01	16.3247	83.588895	0.000476	4.762521	1.613586	0.000191
 412	4.0895e+01	16.3632	83.762492	0.000436	4.357200	1.476259	0.000174
 413	4.0994e+01	16.4065	83.903792	0.000355	3.546558	1.201606	0.000142
 414	4.1093e+01	16.4434	84.037018	0.000334	3.343897	1.132943	0.000134
 415	4.1193e+01	16.4851	84.186392	0.000375	3.749218	1.270270	0.000150
 416	4.1292e+01	16.5188	84.351914	0.000415	4.154539	1.407596	0.000166
 417	4.1392e+01	16.5685	84.493214	0.000355	3.546558	1.201606	0.000142
 418	4.1492e+01	16.6102	84.658736	0.000415	4.154539	1.407596	0.000166
 419	4.1591e+01	16.6551	84.828296	0.000426	4.255870	1.441928	0.000170
 420	4.1691e+01	16.6744	84.957484	0.000324	3.242567	1.098612	0.000130
 421	4.1790e+01	16.7257	85.135118	0.000446	4.458530	1.510591	0.000179
 422	4.1889e+01	16.7626	85.248158	0.000284	2.837246	0.961285	0.000114
 423	4.1989e+01	16.7995	85.433866	0.000466	4.661190	1.579254	0.000187
 424	4.2089e+01	16.8396	85.583241	0.000375	3.749218	1.270270	0.000150
 425	4.2188e+01	16.8926	85.760874	0.000446	4.458530	1.510591	0.000179
 426	4.2288e+01	16.9263	85.853729	0.000233	2.330595	0.789627	0.000093
 427	4.2387e+01	16.9616	86.031363	0.000446	4.458530	1.510591	0.000179
 428	4.2486e+01	17.0017	86.188811	0.000395	3.951879	1.338933	0.000158
 429	4.2586e+01	17.0353	86.338185	0.000375	3.749218	1.270270	0.000150
 430	4.2685e+01	17.0931	86.515819	0.000446	4.458530	1.510591	0.000179
 431	4.2785e+01	17.1204	86.653081	0.000345	3.445228	1.167275	0.000138
 432	4.2885e+01	17.1653	86.802456	0.000375	3.749218	1.270270	0.000150
 433	4.2984e+01	17.1990	86.980089	0.000446	4.458530	1.510591	0.000179
 434	4.3084e+01	17.2519	87.089092	0.000274	2.735916	0.926953	0.000110
 435	4.3183e+01	17.2808	87.266726	0.000446	4.458530	1.510591	0.000179
 436	4.3282e+01	17.3305	87.424174	0.000395	3.951879	1.338933	0.000158
 437	4.3382e+01	17.3594	87.533177	0.000274	2.735916	0.926953	0.000110
 438	4.3481e+01	17.4059	87.726960	0.000486	4.863851	1.647917	0.000195
 439	4.3581e+01	17.4460	87.860185	0.000334	3.343897	1.132943	0.000134
 440	4.3681e+01	17.4861	88.053968	0.000486	4.863851	1.647917	0.000195
 441	4.3780e+01	17.5214	88.175082	0.000304	3.039907	1.029948	0.000122
 442	4.3880e+01	17.5696	88.328493	0.000385	3.850549	1.304601	0.000154
 443	4.3979e+01	17.6016	88.489978	0.000405	4.053209	1.373264	0.000162
 444	4.4078e+01	17.6401	88.627241	0.000345	3.445228	1.167275	0.000138
 445	4.4178e+01	17.6754	88.780652	0.000385	3.850549	1.304601	0.000154
 446	4.4278e+01	17.7236	88.909840	0.000324	3.242567	1.098612	0.000130
 447	4.4377e+01	17.7605	89.087474	0.000446	4.458530	1.510591	0.000179
 448	4.4477e+01	17.7925	89.248960	0.000405	4.053209	1.373264	0.000162
 449	4.4576e+01	17.8375	89.394297	0.000365	3.647888	1.235938	0.000146
 450	4.4675e+01	17.8792	89.555782	0.000405	4.053209	1.373264	0.000162
 451	4.4775e+01	17.9209	89.717268	0.000405	4.053209	1.373264	0.000162
 452	4.4874e+01	17.9642	89.894901	0.000446	4.458530	1.510591	0.000179
 453	4.4974e+01	18.0043	90.024090	0.000324	3.242567	1.098612	0.000130
 454	4.5074e+01	18.0492	90.185575	0.000405	4.053209	1.373264	0.000162
 455	4.5173e+01	18.0877	90.286504	0.000253	2.533256	0.858290	0.000101
 456	4.5273e+01	18.1262	90.472212	0.000466	4.661190	1.579254	0.000187
 457	4.5372e+01	18.1631	90.665994	0.000486	4.863851	1.647917	0.000195
 458	4.5471e+01	18.1952	90.774997	0.000274	2.735916	0.926953	0.000110
 459	4.5571e+01	18.2401	90.932445	0.000395	3.951879	1.338933	0.000158
 460	4.5670e+01	18.2883	91.081819	0.000375	3.749218	1.270270	0.000150
 461	4.5770e+01	18.3155	91.235231	0.000385	3.850549	1.304601	0.000154
 462	4.5870e+01	18.3556	91.380567	0.000365	3.647888	1.235938	0.000146
 463	4.5969e+01	18.4022	91.497644	0.000294	2.938577	0.995617	0.000118
 464	4.6069e+01	18.4391	91.663167	0.000415	4.154539	1.407596	0.000166
 465	4.6168e+01	18.4743	91.865024	0.000507	5.066511	1.716581	0.000203
 466	4.6267e+01	18.5225	91.998249	0.000334	3.343897	1.132943	0.000134
 467	4.6367e+01	18.5594	92.208180	0.000527	5.269172	1.785244	0.000211
 468	4.6467e+01	18.5963	92.317183	0.000274	2.735916	0.926953	0.000110
 469	4.6566e+01	18.6412	92.494817	0.000446	4.458530	1.510591	0.000179
 470	4.6666e+01	18.6829	92.611894	0.000294	2.938577	0.995617	0.000118
 471	4.6765e+01	18.7166	92.777416	0.000415	4.154539	1.407596	0.000166
 472	4.6864e+01	18.7615	92.971199	0.000486	4.863851	1.647917	0.000195
 473	4.6964e+01	18.8032	93.128647	0.000395	3.951879	1.338933	0.000158
 474	4.7063e+01	18.8417	93.245724	0.000294	2.938577	0.995617	0.000118
 475	4.7163e+01	18.8706	93.435470	0.000476	4.762521	1.613586	0.000191
 476	4.7263e+01	18.9171	93.588881	0.000385	3.850549	1.304601	0.000154
 477	4.7362e+01	18.9492	93.730180	0.000355	3.546558	1.201606	0.000142
 478	4.7462e+01	19.0005	93.919926	0.000476	4.762521	1.613586	0.000191
 479	4.7561e+01	19.0455	94.081411	0.000405	4.053209	1.373264	0.000162
 480	4.7660e+01	19.0711	94.242897	0.000405	4.053209	1.373264	0.000162
 481	4.7760e+01	19.1096	94.359974	0.000294	2.938577	0.995617	0.000118
 482	4.7859e+01	19.1513	94.525496	0.000415	4.154539	1.407596	0.000166
 483	4.7959e+01	19.1995	94.686982	0.000405	4.053209	1.373264	0.000162
 484	4.8059e+01	19.2444	94.828281	0.000355	3.546558	1.201606	0.000142
 485	4.8158e+01	19.2765	94.981693	0.000385	3.850549	1.304601	0.000154
 486	4.8258e+01	19.3134	95.171438	0.000476	4.762521	1.613586	0.000191
 487	4.8357e+01	19.3519	95.320812	0.000375	3.749218	1.270270	0.000150
 488	4.8456e+01	19.4016	95.482297	0.000405	4.053209	1.373264	0.000162
 489	4.8556e+01	19.4369	95.595337	0.000284	2.837246	0.961285	0.000114
 490	4.8656e+01	19.4818	95.801231	0.000517	5.167842	1.750912	0.000207
 491	4.8755e+01	19.5171	95.926382	0.000314	3.141237	1.064280	0.000126
 492	4.8855e+01	19.5524	96.055571	0.000324	3.242567	1.098612	0.000130
 493	4.8954e+01	19.6069	96.237242	0.000456	4.559860	1.544922	0.000183
 494	4.9053e+01	19.6278	96.402764	0.000415	4.154539	1.407596	0.000166
 495	4.9153e+01	19.6727	96.572324	0.000426	4.255870	1.441928	0.000170
 496	4.9252e+01	19.7064	96.741884	0.000426	4.255870	1.441928	0.000170
 497	4.9352e+01	19.7545	96.891258	0.000375	3.749218	1.270270	0.000150
 498	4.9452e+01	19.7962	97.068892	0.000446	4.458530	1.510591	0.000179
 499	4.9551e+01	19.8315	97.226340	0.000395	3.951879	1.338933	0.000158
 500	4.9651e+01	19.8813	97.359565	0.000334	3.343897	1.132943	0.000134
 501	4.9750e+01	19.9085	97.529125	0.000426	4.255870	1.441928	0.000170
 502	4.9849e+01	19.9551	97.662351	0.000334	3.343897	1.132943	0.000134
 503	4.9949e+01	19.9871	97.844022	0.000456	4.559860	1.544922	0.000183
 504	5.0048e+01	19.9438	97.759242	0.000213	2.127935	0.720964	-0.000085
 505	5.0148e+01	19.9133	97.678499	0.000203	2.026605	0.686632	-0.000081
 506	5.0248e+01	19.8700	97.617942	0.000152	1.519953	0.514974	-0.000061
 507	5.0347e+01	19.8412	97.549311	0.000172	1.722614	0.583637	-0.000069
 508	5.0447e+01	19.7914	97.448382	0.000253	2.533256	0.858290	-0.000101
 509	5.0546e+01	19.7641	97.371677	0.000193	1.925274	0.652301	-0.000077
 510	5.0645e+01	19.7128	97.274786	0.000243	2.431925	0.823959	-0.000097
 511	5.0745e+01	19.6695	97.202117	0.000182	1.823944	0.617969	-0.000073
 512	5.0844e+01	19.6374	97.093114	0.000274	2.735916	0.926953	-0.000110
 513	5.0944e+01	19.6005	97.008335	0.000213	2.127935	0.720964	-0.000085
 514	5.1044e+01	19.5620	96.911443	0.000243	2.431925	0.823959	-0.000097
 515	5.1143e+01	19.5107	96.814552	0.000243	2.431925	0.823959	-0.000097
 516	5.1242e+01	19.4609	96.717661	0.000243	2.431925	0.823959	-0.000097
 517	5.1342e+01	19.4385	96.640955	0.000193	1.925274	0.652301	-0.000077
 518	5.1441e+01	19.3855	96.544064	0.000243	2.431925	0.823959	-0.000097
 519	5.1541e+01	19.3535	96.439099	0.000263	2.634586	0.892622	-0.000105
 520	5.1641e+01	19.3150	96.346244	0.000233	2.330595	0.789627	-0.000093
 521	5.1740e+01	19.2797	96.237242	0.000274	2.735916	0.926953	-0.000110
 522	5.1840e+01	19.2412	96.164573	0.000182	1.823944	0.617969	-0.000073
 523	5.1939e+01	19.1946	96.019236	0.000365	3.647888	1.235938	-0.000146
 524	5.2038e+01	19.1497	95.918308	0.000253	2.533256	0.858290	-0.000101
 525	5.2138e+01	19.1176	95.833528	0.000213	2.127935	0.720964	-0.000085
 526	5.2237e+01	19.0727	95.732600	0.000253	2.533256	0.858290	-0.000101
 527	5.2337e+01	19.0374	95.591300	0.000355	3.546558	1.201606	-0.000142
 528	5.2437e+01	19.0053	95.534780	0.000142	1.418623	0.480643	-0.000057
 529	5.2536e+01	18.9508	95.413666	0.000304	3.039907	1.029948	-0.000122
 530	5.2636e+01	18.9235	95.316775	0.000243	2.431925	0.823959	-0.000097
 531	5.2735e+01	18.8690	95.236032	0.000203	2.026605	0.686632	-0.000081
 532	5.2834e+01	18.8321	95.118955	0.000294	2.938577	0.995617	-0.000118
 533	5.2934e+01	18.8000	95.005915	0.000284	2.837246	0.961285	-0.000114
 534	5.3033e+01	18.7615	94.929210	0.000193	1.925274	0.652301	-0.000077
 535	5.3133e+01	18.7182	94.775799	0.000385	3.850549	1.304601	-0.000154
 536	5.3233e+01	18.6813	94.666796	0.000274	2.735916	0.926953	-0.000110
 537	5.3332e+01	18.6412	94.586053	0.000203	2.026605	0.686632	-0.000081
 538	5.3431e+01	18.5963	94.444753	0.000355	3.546558	1.201606	-0.000142
 539	5.3531e+01	18.5578	94.355936	0.000223	2.229265	0.755295	-0.000089
 540	5.3630e+01	18.5161	94.242897	0.000284	2.837246	0.961285	-0.000114
 541	5.3730e+01	18.4872	94.150043	0.000233	2.330595	0.789627	-0.000093
 542	5.3830e+01	18.4519	94.045077	0.000263	2.634586	0.892622	-0.000105
 543	5.3929e+01	18.4006	93.940111	0.000263	2.634586	0.892622	-0.000105
 544	5.4029e+01	18.3540	93.802849	0.000345	3.445228	1.167275	-0.000138
 545	5.4128e+01	18.3268	93.714032	0.000223	2.229265	0.755295	-0.000089
 546	5.4227e+01	18.2834	93.560621	0.000385	3.850549	1.304601	-0.000154
 547	5.4327e+01	18.2401	93.475841	0.000213	2.127935	0.720964	-0.000085
 548	5.4426e+01	18.2048	93.387024	0.000223	2.229265	0.755295	-0.000089
 549	5.4526e+01	18.1583	93.253798	0.000334	3.343897	1.132943	-0.000134
 550	5.4626e+01	18.1230	93.136721	0.000294	2.938577	0.995617	-0.000118
 551	5.4725e+01	18.0765	92.983310	0.000385	3.850549	1.304601	-0.000154
 552	5.4825e+01	18.0396	92.894493	0.000223	2.229265	0.755295	-0.000089
 553	5.4924e+01	17.9963	92.773379	0.000304	3.039907	1.029948	-0.000122
 554	5.5023e+01	17.9514	92.680525	0.000233	2.330595	0.789627	-0.000093
 555	5.5123e+01	17.9257	92.555374	0.000314	3.141237	1.064280	-0.000126
 556	5.5222e+01	17.8824	92.414074	0.000355	3.546558	1.201606	-0.000142
 557	5.5322e+01	17.8471	92.333331	0.000203	2.026605	0.686632	-0.000081
 558	5.5422e+01	17.8054	92.192032	0.000355	3.546558	1.201606	-0.000142
 559	5.5521e+01	17.7589	92.046695	0.000365	3.647888	1.235938	-0.000146
 560	5.5620e+01	17.7220	91.909432	0.000345	3.445228	1.167275	-0.000138
 561	5.5720e+01	17.6819	91.844838	0.000162	1.621284	0.549306	-0.000065
 562	5.5819e+01	17.6385	91.691427	0.000385	3.850549	1.304601	-0.000154
 563	5.5919e+01	17.6049	91.578387	0.000284	2.837246	0.961285	-0.000114
 564	5.6019e+01	17.5615	91.420939	0.000395	3.951879	1.338933	-0.000158
 565	5.6118e+01	17.5182	91.356345	0.000162	1.621284	0.549306	-0.000065
 566	5.6218e+01	17.4813	91.194859	0.000405	4.053209	1.373264	-0.000162
 567	5.6317e+01	17.4444	91.110079	0.000213	2.127935	0.720964	-0.000085
 568	5.6416e+01	17.3995	90.984928	0.000314	3.141237	1.064280	-0.000126
 569	5.6516e+01	17.3626	90.851703	0.000334	3.343897	1.132943	-0.000134
 570	5.6615e+01	17.3193	90.710403	0.000355	3.546558	1.201606	-0.000142
 571	5.6715e+01	17.2760	90.589289	0.000304	3.039907	1.029948	-0.000122
 572	5.6815e+01	17.2423	90.508546	0.000203	2.026605	0.686632	-0.000081
 573	5.6914e+01	17.2054	90.371283	0.000345	3.445228	1.167275	-0.000138
 574	5.7014e+01	17.1605	90.242095	0.000324	3.242567	1.098612	-0.000130
 575	5.7113e+01	17.1172	90.100795	0.000355	3.546558	1.201606	-0.000142
 576	5.7212e+01	17.0803	89.983718	0.000294	2.938577	0.995617	-0.000118
 577	5.7312e+01	17.0386	89.898939	0.000213	2.127935	0.720964	-0.000085
 578	5.7411e+01	17.0001	89.741490	0.000395	3.951879	1.338933	-0.000158
 579	5.7511e+01	16.9664	89.620376	0.000304	3.039907	1.029948	-0.000122
 580	5.7611e+01	16.9247	89.511374	0.000274	2.735916	0.926953	-0.000110
 581	5.7710e+01	16.8846	89.382185	0.000324	3.242567	1.098612	-0.000130
 582	5.7809e+01	16.8428	89.261071	0.000304	3.039907	1.029948	-0.000122
 583	5.7909e+01	16.8027	89.123809	0.000345	3.445228	1.167275	-0.000138
 584	5.8008e+01	16.7610	89.022880	0.000253	2.533256	0.858290	-0.000101
 585	5.8108e+01	16.7177	88.869469	0.000385	3.850549	1.304601	-0.000154
 586	5.8208e+01	16.6792	88.752392	0.000294	2.938577	0.995617	-0.000118
 587	5.8307e+01	16.6439	88.631278	0.000304	3.039907	1.029948	-0.000122
 588	5.8407e+01	16.6102	88.494015	0.000345	3.445228	1.167275	-0.000138
 589	5.8506e+01	16.5685	88.380976	0.000284	2.837246	0.961285	-0.000114
 590	5.8605e+01	16.5252	88.243713	0.000345	3.445228	1.167275	-0.000138
 591	5.8705e+01	16.4787	88.122599	0.000304	3.039907	1.029948	-0.000122
 592	5.8804e+01	16.4562	87.981299	0.000355	3.546558	1.201606	-0.000142
 593	5.8904e+01	16.4097	87.900556	0.000203	2.026605	0.686632	-0.000081
 594	5.9004e+01	16.3712	87.735034	0.000415	4.154539	1.407596	-0.000166
 595	5.9103e+01	16.3199	87.630068	0.000263	2.634586	0.892622	-0.000105
 596	5.9203e+01	16.2878	87.484731	0.000365	3.647888	1.235938	-0.000146
 597	5.9302e+01	16.2380	87.371692	0.000284	2.837246	0.961285	-0.000114
 598	5.9401e+01	16.2028	87.254615	0.000294	2.938577	0.995617	-0.000118
 599	5.9501e+01	16.1707	87.093129	0.000405	4.053209	1.373264	-0.000162
 600	5.9600e+01	16.1225	87.000275	0.000233	2.330595	0.789627	-0.000093
 601	5.9700e+01	16.0937	86.883198	0.000294	2.938577	0.995617	-0.000118
 602	5.9800e+01	16.0423	86.713639	0.000426	4.255870	1.441928	-0.000170
 603	5.9899e+01	16.0102	86.604636	0.000274	2.735916	0.926953	-0.000110
 604	5.9998e+01	15.9733	86.467373	0.000345	3.445228	1.167275	-0.000138
 605	6.0098e+01	15.9316	86.370482	0.000243	2.431925	0.823959	-0.000097
 606	6.0197e+01	15.8947	86.217071	0.000385	3.850549	1.304601	-0.000154
 607	6.0297e+01	15.8450	86.091920	0.000314	3.141237	1.064280	-0.000126
 608	6.0397e+01	15.8001	86.003103	0.000223	2.229265	0.755295	-0.000089
 609	6.0496e+01	15.7728	85.869877	0.000334	3.343897	1.132943	-0.000134
 610	6.0596e+01	15.7327	85.692243	0.000446	4.458530	1.510591	-0.000179
 611	6.0695e+01	15.6830	85.559018	0.000334	3.343897	1.132943	-0.000134
 612	6.0794e+01	15.6509	85.441941	0.000294	2.938577	0.995617	-0.000118
 613	6.0894e+01	15.6060	85.353124	0.000223	2.229265	0.755295	-0.000089
 614	6.0993e+01	15.5675	85.187601	0.000415	4.154539	1.407596	-0.000166
 615	6.1093e+01	15.5226	85.070524	0.000294	2.938577	0.995617	-0.000118
 616	6.1193e+01	15.4873	84.941336	0.000324	3.242567	1.098612	-0.000130
 617	6.1292e+01	15.4536	84.787925	0.000385	3.850549	1.304601	-0.000154
 618	6.1392e+01	15.4087	84.638551	0.000375	3.749218	1.270270	-0.000150
 619	6.1491e+01	15.3830	84.533585	0.000263	2.634586	0.892622	-0.000105
 620	6.1590e+01	15.3236	84.396323	0.000345	3.445228	1.167275	-0.000138
 621	6.1690e+01	15.2915	84.283283	0.000284	2.837246	0.961285	-0.000114
 622	6.1789e+01	15.2546	84.129872	0.000385	3.850549	1.304601	-0.000154
 623	6.1889e+01	15.2194	84.000683	0.000324	3.242567	1.098612	-0.000130
 624	6.1989e+01	15.1760	83.855346	0.000365	3.647888	1.235938	-0.000146
 625	6.2088e+01	15.1247	83.726158	0.000324	3.242567	1.098612	-0.000130
 626	6.2188e+01	15.0878	83.576784	0.000375	3.749218	1.270270	-0.000150
 627	6.2287e+01	15.0654	83.431447	0.000365	3.647888	1.235938	-0.000146
 628	6.2386e+01	15.0124	83.330519	0.000253	2.533256	0.858290	-0.000101
 629	6.2486e+01	14.9723	83.225553	0.000263	2.634586	0.892622	-0.000105
 630	6.2586e+01	14.9258	83.112513	0.000284	2.837246	0.961285	-0.000114
 631	6.2685e+01	14.8953	82.938917	0.000436	4.357200	1.476259	-0.000174
 632	6.2785e+01	14.8616	82.785505	0.000385	3.850549	1.304601	-0.000154
 633	6.2884e+01	14.8135	82.628057	0.000395	3.951879	1.338933	-0.000158
 634	6.2983e+01	14.7670	82.535203	0.000233	2.330595	0.789627	-0.000093
 635	6.3083e+01	14.7269	82.410052	0.000314	3.141237	1.064280	-0.000126
 636	6.3182e+01	14.6868	82.268752	0.000355	3.546558	1.201606	-0.000142
 637	6.3282e+01	14.6466	82.123415	0.000365	3.647888	1.235938	-0.000146
 638	6.3382e+01	14.6162	81.990190	0.000334	3.343897	1.132943	-0.000134
 639	6.3481e+01	14.5809	81.828704	0.000405	4.053209	1.373264	-0.000162
 640	6.3581e+01	14.5295	81.751999	0.000193	1.925274	0.652301	-0.000077
 641	6.3680e+01	14.4942	81.610699	0.000355	3.546558	1.201606	-0.000142
 642	6.3779e+01	14.4509	81.485548	0.000314	3.141237	1.064280	-0.000126
 643	6.3879e+01	14.4076	81.344248	0.000355	3.546558	1.201606	-0.000142
 644	6.3978e+01	14.3755	81.202948	0.000355	3.546558	1.201606	-0.000142
 645	6.4078e+01	14.3354	81.057611	0.000365	3.647888	1.235938	-0.000146
 646	6.4177e+01	14.2985	80.944572	0.000284	2.837246	0.961285	-0.000114
 647	6.4277e+01	14.2552	80.831532	0.000284	2.837246	0.961285	-0.000114
 648	6.4376e+01	14.2087	80.674083	0.000395	3.951879	1.338933	-0.000158
 649	6.4476e+01	14.1878	80.540858	0.000334	3.343897	1.132943	-0.000134
 650	6.4576e+01	14.1365	80.391484	0.000375	3.749218	1.270270	-0.000150
 651	6.4675e+01	14.0868	80.294593	0.000243	2.431925	0.823959	-0.000097
 652	6.4775e+01	14.0579	80.129070	0.000415	4.154539	1.407596	-0.000166
 653	6.4874e+01	14.0194	79.967585	0.000405	4.053209	1.373264	-0.000162
 654	6.4974e+01	13.9697	79.858582	0.000274	2.735916	0.926953	-0.000110
 655	6.5073e+01	13.9344	79.705171	0.000385	3.850549	1.304601	-0.000154
 656	6.5172e+01	13.9023	79.559834	0.000365	3.647888	1.235938	-0.000146
 657	6.5272e+01	13.8606	79.418534	0.000355	3.546558	1.201606	-0.000142
 658	6.5371e+01	13.8092	79.301457	0.000294	2.938577	0.995617	-0.000118
 659	6.5471e+01	13.7804	79.135935	0.000415	4.154539	1.407596	-0.000166
 660	6.5570e+01	13.7467	78.978486	0.000395	3.951879	1.338933	-0.000158
 661	6.5670e+01	13.7001	78.881595	0.000243	2.431925	0.823959	-0.000097
 662	6.5769e+01	13.6616	78.752407	0.000324	3.242567	1.098612	-0.000130
 663	6.5869e+01	13.6167	78.615144	0.000345	3.445228	1.167275	-0.000138
 664	6.5969e+01	13.5782	78.449622	0.000415	4.154539	1.407596	-0.000166
 665	6.6068e+01	13.5317	78.300248	0.000375	3.749218	1.270270	-0.000150
 666	6.6168e+01	13.4932	78.179134	0.000304	3.039907	1.029948	-0.000122
 667	6.6267e+01	13.4563	78.025722	0.000385	3.850549	1.304601	-0.000154
 668	6.6367e+01	13.4210	77.864237	0.000405	4.053209	1.373264	-0.000162
 669	6.6466e+01	13.3777	77.763309	0.000253	2.533256	0.858290	-0.000101
 670	6.6566e+01	13.3312	77.626046	0.000345	3.445228	1.167275	-0.000138
 671	6.6665e+01	13.2927	77.452449	0.000436	4.357200	1.476259	-0.000174
 672	6.6764e+01	13.2558	77.351521	0.000253	2.533256	0.858290	-0.000101
 673	6.6864e+01	13.2205	77.181961	0.000426	4.255870	1.441928	-0.000170
 674	6.6963e+01	13.1756	77.085070	0.000243	2.431925	0.823959	-0.000097
 675	6.7063e+01	13.1419	76.915510	0.000426	4.255870	1.441928	-0.000170
 676	6.7162e+01	13.1114	76.790359	0.000314	3.141237	1.064280	-0.000126
 677	6.7262e+01	13.0649	76.632911	0.000395	3.951879	1.338933	-0.000158
 678	6.7362e+01	13.0200	76.503722	0.000324	3.242567	1.098612	-0.000130
 679	6.7461e+01	12.9815	76.322051	0.000456	4.559860	1.544922	-0.000183
 680	6.7561e+01	12.9430	76.209011	0.000284	2.837246	0.961285	-0.000114
 681	6.7660e+01	12.9061	76.019266	0.000476	4.762521	1.613586	-0.000191
 682	6.7760e+01	12.8579	75.914300	0.000263	2.634586	0.892622	-0.000105
 683	6.7859e+01	12.8258	75.793186	0.000304	3.039907	1.029948	-0.000122
 684	6.7959e+01	12.7793	75.635738	0.000395	3.951879	1.338933	-0.000158
 685	6.8058e+01	12.7392	75.530773	0.000263	2.634586	0.892622	-0.000105
 686	6.8157e+01	12.7023	75.345064	0.000466	4.661190	1.579254	-0.000187
 687	6.8257e+01	12.6686	75.195690	0.000375	3.749218	1.270270	-0.000150
 688	6.8356e+01	12.6189	75.086688	0.000274	2.735916	0.926953	-0.000110
 689	6.8456e+01	12.5884	74.941351	0.000365	3.647888	1.235938	-0.000146
 690	6.8555e+01	12.5387	74.767754	0.000436	4.357200	1.476259	-0.000174
 691	6.8655e+01	12.5034	74.598194	0.000426	4.255870	1.441928	-0.000170
 692	6.8754e+01	12.4665	74.460932	0.000345	3.445228	1.167275	-0.000138
 693	6.8854e+01	12.4264	74.323669	0.000345	3.445228	1.167275	-0.000138
 694	6.8954e+01	12.3831	74.202555	0.000304	3.039907	1.029948	-0.000122
 695	6.9053e+01	12.3494	74.020884	0.000456	4.559860	1.544922	-0.000183
 696	6.9153e+01	12.3029	73.895733	0.000314	3.141237	1.064280	-0.000126
 697	6.9252e+01	12.2628	73.774618	0.000304	3.039907	1.029948	-0.000122
 698	6.9352e+01	12.2162	73.584873	0.000476	4.762521	1.613586	-0.000191
 699	6.9451e+01	12.1922	73.451648	0.000334	3.343897	1.132943	-0.000134
 700	6.9550e+01	12.1440	73.330534	0.000304	3.039907	1.029948	-0.000122
 701	6.9650e+01	12.0943	73.177122	0.000385	3.850549	1.304601	-0.000154
 702	6.9749e+01	12.0606	73.019674	0.000395	3.951879	1.338933	-0.000158
 703	6.9849e+01	12.0237	72.858189	0.000405	4.053209	1.373264	-0.000162
 704	6.9948e+01	11.9788	72.737075	0.000304	3.039907	1.029948	-0.000122
 705	7.0048e+01	11.9403	72.571552	0.000415	4.154539	1.407596	-0.000166
 706	7.0147e+01	11.9050	72.406029	0.000415	4.154539	1.407596	-0.000166
 707	7.0247e+01	11.8713	72.288953	0.000294	2.938577	0.995617	-0.000118
 708	7.0347e+01	11.8152	72.135541	0.000385	3.850549	1.304601	-0.000154
 709	7.0446e+01	11.7895	71.957907	0.000446	4.458530	1.510591	-0.000179
 710	7.0546e+01	11.7494	71.844868	0.000284	2.837246	0.961285	-0.000114
 711	7.0645e+01	11.7077	71.687419	0.000395	3.951879	1.338933	-0.000158
 712	7.0745e+01	11.6692	71.517860	0.000426	4.255870	1.441928	-0.000170
 713	7.0844e+01	11.6243	71.368486	0.000375	3.749218	1.270270	-0.000150
 714	7.0944e+01	11.5906	71.255446	0.000284	2.837246	0.961285	-0.000114
 715	7.1043e+01	11.5409	71.093960	0.000405	4.053209	1.373264	-0.000162
 716	7.1142e+01	11.5120	70.928438	0.000415	4.154539	1.407596	-0.000166
 717	7.1242e+01	11.4703	70.779064	0.000375	3.749218	1.270270	-0.000150
 718	7.1341e+01	11.4109	70.621615	0.000395	3.951879	1.338933	-0.000158
 719	7.1441e+01	11.3917	70.480316	0.000355	3.546558	1.201606	-0.000142
 720	7.1540e+01	11.3532	70.334979	0.000365	3.647888	1.235938	-0.000146
 721	7.1640e+01	11.3130	70.173493	0.000405	4.053209	1.373264	-0.000162
 722	7.1740e+01	11.2617	70.064491	0.000274	2.735916	0.926953	-0.000110
 723	7.1839e+01	11.2312	69.822263	0.000608	6.079814	2.059897	-0.000243
 724	7.1939e+01	11.1895	69.697111	0.000314	3.141237	1.064280	-0.000126
 725	7.2038e+01	11.1558	69.539663	0.000395	3.951879	1.338933	-0.000158
 726	7.2138e+01	11.1013	69.370103	0.000426	4.255870	1.441928	-0.000170
 727	7.2237e+01	11.0628	69.244952	0.000314	3.141237	1.064280	-0.000126
 728	7.2337e+01	11.0259	69.111727	0.000334	3.343897	1.132943	-0.000134
 729	7.2436e+01	10.9874	68.909870	0.000507	5.066511	1.716581	-0.000203
 730	7.2535e+01	10.9537	68.788756	0.000304	3.039907	1.029948	-0.000122
 731	7.2635e+01	10.9072	68.586899	0.000507	5.066511	1.716581	-0.000203
 732	7.2734e+01	10.8703	68.405228	0.000456	4.559860	1.544922	-0.000183
 733	7.2834e+01	10.8350	68.292188	0.000284	2.837246	0.961285	-0.000114
 734	7.2933e+01	10.7917	68.146851	0.000365	3.647888	1.235938	-0.000146
 735	7.3033e+01	10.7468	68.001514	0.000365	3.647888	1.235938	-0.000146
 736	7.3132e+01	10.7050	67.827918	0.000436	4.357200	1.476259	-0.000174
 737	7.3232e+01	10.6681	67.690655	0.000345	3.445228	1.167275	-0.000138
 738	7.3332e+01	10.6361	67.500910	0.000476	4.762521	1.613586	-0.000191
 739	7.3431e+01	10.5799	67.339424	0.000405	4.053209	1.373264	-0.000162
 740	7.3531e+01	10.5430	67.198124	0.000355	3.546558	1.201606	-0.000142
 741	7.3630e+01	10.5029	67.040676	0.000395	3.951879	1.338933	-0.000158
 742	7.3730e+01	10.4756	66.895339	0.000365	3.647888	1.235938	-0.000146
 743	7.3829e+01	10.4307	66.709631	0.000466	4.661190	1.579254	-0.000187
 744	7.3928e+01	10.3938	66.540071	0.000426	4.255870	1.441928	-0.000170
 745	7.4028e+01	10.3617	66.422994	0.000294	2.938577	0.995617	-0.000118
 746	7.4127e+01	10.3024	66.261509	0.000405	4.053209	1.373264	-0.000162
 747	7.4227e+01	10.2767	66.116172	0.000365	3.647888	1.235938	-0.000146
 748	7.4326e+01	10.2334	65.934501	0.000456	4.559860	1.544922	-0.000183
 749	7.4426e+01	10.1933	65.764941	0.000426	4.255870	1.441928	-0.000170
 750	7.4525e+01	10.1516	65.603456	0.000405	4.053209	1.373264	-0.000162
 751	7.4625e+01	10.1179	65.441970	0.000405	4.053209	1.373264	-0.000162
 752	7.4725e+01	10.0714	65.284522	0.000395	3.951879	1.338933	-0.000158
 753	7.4824e+01	10.0329	65.114962	0.000426	4.255870	1.441928	-0.000170
 754	7.4924e+01	9.9847	64.973663	0.000355	3.546558	1.201606	-0.000142
 755	7.5023e+01	9.9559	64.820251	0.000385	3.850549	1.304601	-0.000154
 756	7.5123e+01	9.9077	64.630506	0.000476	4.762521	1.613586	-0.000191
 757	7.5222e+01	9.8692	64.448835	0.000456	4.559860	1.544922	-0.000183
 758	7.5322e+01	9.8307	64.335795	0.000284	2.837246	0.961285	-0.000114
 759	7.5421e+01	9.7987	64.142013	0.000486	4.863851	1.647917	-0.000195
 760	7.5520e+01	9.7569	64.000713	0.000355	3.546558	1.201606	-0.000142
 761	7.5620e+01	9.7168	63.823079	0.000446	4.458530	1.510591	-0.000179
 762	7.5719e+01	9.6767	63.677742	0.000365	3.647888	1.235938	-0.000146
 763	7.5819e+01	9.6382	63.496071	0.000456	4.559860	1.544922	-0.000183
 764	7.5918e+01	9.5981	63.342660	0.000385	3.850549	1.304601	-0.000154
 765	7.6018e+01	9.5548	63.189249	0.000385	3.850549	1.304601	-0.000154
 766	7.6118e+01	9.5147	62.991429	0.000497	4.965181	1.682249	-0.000199
 767	7.6217e+01	9.4778	62.850129	0.000355	3.546558	1.201606	-0.000142
 768	7.6317e+01	9.4297	62.696718	0.000385	3.850549	1.304601	-0.000154
 769	7.6416e+01	9.3992	62.502935	0.000486	4.863851	1.647917	-0.000195
 770	7.6516e+01	9.3623	62.353561	0.000375	3.749218	1.270270	-0.000150
 771	7.6615e+01	9.3142	62.175928	0.000446	4.458530	1.510591	-0.000179
 772	7.6715e+01	9.2757	62.030591	0.000365	3.647888	1.235938	-0.000146
 773	7.6814e+01	9.2404	61.877179	0.000385	3.850549	1.304601	-0.000154
 774	7.6913e+01	9.1923	61.703583	0.000436	4.357200	1.476259	-0.000174
 775	7.7013e+01	9.1521	61.542097	0.000405	4.053209	1.373264	-0.000162
 776	7.7112e+01	9.1104	61.344278	0.000497	4.965181	1.682249	-0.000199
 777	7.7212e+01	9.0751	61.207015	0.000345	3.445228	1.167275	-0.000138
 778	7.7311e+01	9.0334	61.029381	0.000446	4.458530	1.510591	-0.000179
 779	7.7411e+01	9.0030	60.839636	0.000476	4.762521	1.613586	-0.000191
 780	7.7510e+01	8.9564	60.662002	0.000446	4.458530	1.510591	-0.000179
 781	7.7610e+01	8.9163	60.528776	0.000334	3.343897	1.132943	-0.000134
 782	7.7710e+01	8.8810	60.355179	0.000436	4.357200	1.476259	-0.000174
 783	7.7809e+01	8.8441	60.185620	0.000426	4.255870	1.441928	-0.000170
 784	7.7909e+01	8.7992	60.007986	0.000446	4.458530	1.510591	-0.000179
 785	7.8008e+01	8.7607	59.822277	0.000466	4.661190	1.579254	-0.000187
 786	7.8108e+01	8.7206	59.644643	0.000446	4.458530	1.510591	-0.000179
 787	7.8207e+01	8.6805	59.507381	0.000345	3.445228	1.167275	-0.000138
 788	7.8306e+01	8.6388	59.321673	0.000466	4.661190	1.579254	-0.000187
 789	7.8406e+01	8.5955	59.156150	0.000415	4.154539	1.407596	-0.000166
 790	7.8505e+01	8.5554	58.994665	0.000405	4.053209	1.373264	-0.000162
 791	7.8605e+01	8.5233	58.768585	0.000567	5.674493	1.922570	-0.000227
 792	7.8704e+01	8.4784	58.623248	0.000365	3.647888	1.235938	-0.000146
 793	7.8804e+01	8.4351	58.445614	0.000446	4.458530	1.510591	-0.000179
 794	7.8903e+01	8.3966	58.288166	0.000395	3.951879	1.338933	-0.000158
 795	7.9003e+01	8.3581	58.118606	0.000426	4.255870	1.441928	-0.000170
 796	7.9103e+01	8.3228	57.936935	0.000456	4.559860	1.544922	-0.000183
 797	7.9202e+01	8.2746	57.722967	0.000537	5.370502	1.819575	-0.000215
 798	7.9302e+01	8.2442	57.577630	0.000365	3.647888	1.235938	-0.000146
 799	7.9401e+01	8.1960	57.444404	0.000334	3.343897	1.132943	-0.000134
 800	7.9501e+01	8.1607	57.222362	0.000557	5.573162	1.888239	-0.000223
 801	7.9600e+01	8.1126	57.052802	0.000426	4.255870	1.441928	-0.000170
 802	7.9700e+01	8.0757	56.875168	0.000446	4.458530	1.510591	-0.000179
 803	7.9799e+01	8.0356	56.758091	0.000294	2.938577	0.995617	-0.000118
 804	7.9898e+01	8.0019	56.568346	0.000476	4.762521	1.613586	-0.000191
 805	7.9998e+01	7.9586	56.402823	0.000415	4.154539	1.407596	-0.000166
 806	8.0097e+01	7.9185	56.241338	0.000405	4.053209	1.373264	-0.000162
 807	8.0197e+01	7.8816	56.055630	0.000466	4.661190	1.579254	-0.000187
 808	8.0296e+01	7.8479	55.857810	0.000497	4.965181	1.682249	-0.000199
 809	8.0396e+01	7.8014	55.700362	0.000395	3.951879	1.338933	-0.000158
 810	8.0496e+01	7.7645	55.538876	0.000405	4.053209	1.373264	-0.000162
 811	8.0595e+01	7.7228	55.345094	0.000486	4.863851	1.647917	-0.000195
 812	8.0695e+01	7.6843	55.187646	0.000395	3.951879	1.338933	-0.000158
 813	8.0794e+01	7.6426	55.005974	0.000456	4.559860	1.544922	-0.000183
 814	8.0894e+01	7.5928	54.804118	0.000507	5.066511	1.716581	-0.000203
 815	8.0993e+01	7.5656	54.654744	0.000375	3.749218	1.270270	-0.000150
 816	8.1093e+01	7.5255	54.489221	0.000415	4.154539	1.407596	-0.000166
 817	8.1192e+01	7.4837	54.283327	0.000517	5.167842	1.750912	-0.000207
 818	8.1291e+01	7.4436	54.109730	0.000436	4.357200	1.476259	-0.000174
 819	8.1391e+01	7.4067	53.968431	0.000355	3.546558	1.201606	-0.000142
 820	8.1490e+01	7.3570	53.738314	0.000578	5.775823	1.956902	-0.000231
 821	8.1590e+01	7.3249	53.552606	0.000466	4.661190	1.579254	-0.000187
 822	8.1689e+01	7.2832	53.395157	0.000395	3.951879	1.338933	-0.000158
 823	8.1789e+01	7.2431	53.173115	0.000557	5.573162	1.888239	-0.000223
 824	8.1888e+01	7.2014	53.039889	0.000334	3.343897	1.132943	-0.000134
 825	8.1988e+01	7.1613	52.874367	0.000415	4.154539	1.407596	-0.000166
 826	8.2088e+01	7.1132	52.680584	0.000486	4.863851	1.647917	-0.000195
 827	8.2187e+01	7.0923	52.490839	0.000476	4.762521	1.613586	-0.000191
 828	8.2287e+01	7.0426	52.309168	0.000456	4.559860	1.544922	-0.000183
 829	8.2386e+01	7.0073	52.123460	0.000466	4.661190	1.579254	-0.000187
 830	8.2486e+01	6.9592	51.921603	0.000507	5.066511	1.716581	-0.000203
 831	8.2585e+01	6.9239	51.756080	0.000415	4.154539	1.407596	-0.000166
 832	8.2684e+01	6.8806	51.546149	0.000527	5.269172	1.785244	-0.000211
 833	8.2784e+01	6.8388	51.344292	0.000507	5.066511	1.716581	-0.000203
 834	8.2883e+01	6.8164	51.202993	0.000355	3.546558	1.201606	-0.000142
 835	8.2983e+01	6.7634	51.017284	0.000466	4.661190	1.579254	-0.000187
 836	8.3082e+01	6.7185	50.791205	0.000567	5.674493	1.922570	-0.000227
 837	8.3182e+01	6.6913	50.617608	0.000436	4.357200	1.476259	-0.000174
 838	8.3281e+01	6.6399	50.456122	0.000405	4.053209	1.373264	-0.000162
 839	8.3381e+01	6.6094	50.286563	0.000426	4.255870	1.441928	-0.000170
 840	8.3481e+01	6.5581	50.060483	0.000567	5.674493	1.922570	-0.000227
 841	8.3580e+01	6.5260	49.886886	0.000436	4.357200	1.476259	-0.000174
 842	8.3680e+01	6.4939	49.733475	0.000385	3.850549	1.304601	-0.000154
 843	8.3779e+01	6.4426	49.555841	0.000446	4.458530	1.510591	-0.000179
 844	8.3879e+01	6.3993	49.349947	0.000517	5.167842	1.750912	-0.000207
 845	8.3978e+01	6.3592	49.119831	0.000578	5.775823	1.956902	-0.000231
 846	8.4078e+01	6.3271	48.930085	0.000476	4.762521	1.613586	-0.000191
 847	8.4177e+01	6.2870	48.764563	0.000415	4.154539	1.407596	-0.000166
 848	8.4276e+01	6.2453	48.590966	0.000436	4.357200	1.476259	-0.000174
 849	8.4376e+01	6.2036	48.389109	0.000507	5.066511	1.716581	-0.000203
 850	8.4475e+01	6.1619	48.187252	0.000507	5.066511	1.716581	-0.000203
 851	8.4575e+01	6.1362	48.001544	0.000466	4.661190	1.579254	-0.000187
 852	8.4674e+01	6.0833	47.819873	0.000456	4.559860	1.544922	-0.000183
 853	8.4774e+01	6.0383	47.577645	0.000608	6.079814	2.059897	-0.000243
 854	8.4874e+01	6.0095	47.391936	0.000466	4.661190	1.579254	-0.000187
 855	8.4973e+01	5.9694	47.230451	0.000405	4.053209	1.373264	-0.000162
 856	8.5073e+01	5.9276	47.044743	0.000466	4.661190	1.579254	-0.000187
 857	8.5172e+01	5.8859	46.854997	0.000476	4.762521	1.613586	-0.000191
 858	8.5272e+01	5.8474	46.600658	0.000638	6.383804	2.162891	-0.000256
 859	8.5371e+01	5.8073	46.463395	0.000345	3.445228	1.167275	-0.000138
 860	8.5471e+01	5.7801	46.249427	0.000537	5.370502	1.819575	-0.000215
 861	8.5570e+01	5.7223	46.063719	0.000466	4.661190	1.579254	-0.000187
 862	8.5669e+01	5.6950	45.882048	0.000456	4.559860	1.544922	-0.000183
 863	8.5769e+01	5.6405	45.680191	0.000507	5.066511	1.716581	-0.000203
 864	8.5868e+01	5.6004	45.474297	0.000517	5.167842	1.750912	-0.000207
 865	8.5968e+01	5.5683	45.288589	0.000466	4.661190	1.579254	-0.000187
 866	8.6067e+01	5.5266	45.054435	0.000588	5.877153	1.991233	-0.000235
 867	8.6167e+01	5.4897	44.860652	0.000486	4.863851	1.647917	-0.000195
 868	8.6266e+01	5.4448	44.703204	0.000395	3.951879	1.338933	-0.000158
 869	8.6366e+01	5.4047	44.489236	0.000537	5.370502	1.819575	-0.000215
 870	8.6466e+01	5.3774	44.267193	0.000557	5.573162	1.888239	-0.000223
 871	8.6565e+01	5.3325	44.061299	0.000517	5.167842	1.750912	-0.000207
 872	8.6665e+01	5.2924	43.924037	0.000345	3.445228	1.167275	-0.000138
 873	8.6764e+01	5.2555	43.706031	0.000547	5.471832	1.853907	-0.000219
 874	8.6864e+01	5.2073	43.492063	0.000537	5.370502	1.819575	-0.000215
 875	8.6963e+01	5.1704	43.318466	0.000436	4.357200	1.476259	-0.000174
 876	8.7063e+01	5.1319	43.136795	0.000456	4.559860	1.544922	-0.000183
 877	8.7162e+01	5.0983	42.858233	0.000699	6.991786	2.368881	-0.000280
 878	8.7261e+01	5.0630	42.660413	0.000497	4.965181	1.682249	-0.000199
 879	8.7361e+01	5.0068	42.482779	0.000446	4.458530	1.510591	-0.000179
 880	8.7460e+01	4.9683	42.297071	0.000466	4.661190	1.579254	-0.000187
 881	8.7560e+01	4.9298	42.083103	0.000537	5.370502	1.819575	-0.000215
 882	8.7659e+01	4.8833	41.885283	0.000497	4.965181	1.682249	-0.000199
 883	8.7759e+01	4.8496	41.663241	0.000557	5.573162	1.888239	-0.000223
 884	8.7859e+01	4.8191	41.449273	0.000537	5.370502	1.819575	-0.000215
 885	8.7958e+01	4.7774	41.251453	0.000497	4.965181	1.682249	-0.000199
 886	8.8058e+01	4.7357	41.017299	0.000588	5.877153	1.991233	-0.000235
 887	8.8157e+01	4.6940	40.831591	0.000466	4.661190	1.579254	-0.000187
 888	8.8257e+01	4.6667	40.585326	0.000618	6.181144	2.094228	-0.000248
 889	8.8356e+01	4.6154	40.387506	0.000497	4.965181	1.682249	-0.000199
 890	8.8456e+01	4.5753	40.221983	0.000415	4.154539	1.407596	-0.000166
 891	8.8555e+01	4.5287	39.971681	0.000628	6.282474	2.128560	-0.000252
 892	8.8654e+01	4.4967	39.777898	0.000486	4.863851	1.647917	-0.000195
 893	8.8754e+01	4.4566	39.523559	0.000638	6.383804	2.162891	-0.000256
 894	8.8853e+01	4.4116	39.374185	0.000375	3.749218	1.270270	-0.000150
 895	8.8953e+01	4.3763	39.123882	0.000628	6.282474	2.128560	-0.000252
 896	8.9052e+01	4.3362	38.926063	0.000497	4.965181	1.682249	-0.000199
 897	8.9152e+01	4.3026	38.704020	0.000557	5.573162	1.888239	-0.000223
 898	8.9251e+01	4.2576	38.514275	0.000476	4.762521	1.613586	-0.000191
 899	8.9351e+01	4.2079	38.243787	0.000679	6.789125	2.300218	-0.000272
 900	8.9451e+01	4.1726	38.082301	0.000405	4.053209	1.373264	-0.000162
 901	8.9550e+01	4.1309	37.827962	0.000638	6.383804	2.162891	-0.000256
 902	8.9650e+01	4.0972	37.634179	0.000486	4.863851	1.647917	-0.000195
 903	8.9749e+01	4.0539	37.404063	0.000578	5.775823	1.956902	-0.000231
 904	8.9849e+01	4.0138	37.214317	0.000476	4.762521	1.613586	-0.000191
 905	8.9948e+01	3.9737	36.992275	0.000557	5.573162	1.888239	-0.000223
 906	9.0047e+01	3.9320	36.750047	0.000608	6.079814	2.059897	-0.000243
 907	9.0147e+01	3.8951	36.556264	0.000486	4.863851	1.647917	-0.000195
 908	9.0246e+01	3.8566	36.322110	0.000588	5.877153	1.991233	-0.000235
 909	9.0346e+01	3.8101	36.087956	0.000588	5.877153	1.991233	-0.000235
 910	9.0445e+01	3.7635	35.857840	0.000578	5.775823	1.956902	-0.000231
 911	9.0545e+01	3.7314	35.676169	0.000456	4.559860	1.544922	-0.000183
 912	9.0644e+01	3.7010	35.446052	0.000578	5.775823	1.956902	-0.000231
 913	9.0744e+01	3.6641	35.187675	0.000649	6.485134	2.197223	-0.000260
 914	9.0844e+01	3.6127	35.018115	0.000426	4.255870	1.441928	-0.000170
 915	9.0943e+01	3.5774	34.796073	0.000557	5.573162	1.888239	-0.000223
 916	9.1043e+01	3.5293	34.557882	0.000598	5.978483	2.025565	-0.000239
 917	9.1142e+01	3.4892	34.335839	0.000557	5.573162	1.888239	-0.000223
 918	9.1242e+01	3.4523	34.133983	0.000507	5.066511	1.716581	-0.000203
 919	9.1341e+01	3.4122	33.875606	0.000649	6.485134	2.197223	-0.000260
 920	9.1441e+01	3.3753	33.681823	0.000486	4.863851	1.647917	-0.000195
 921	9.1540e+01	3.3416	33.435558	0.000618	6.181144	2.094228	-0.000248
 922	9.1639e+01	3.3095	33.233701	0.000507	5.066511	1.716581	-0.000203
 923	9.1739e+01	3.2534	32.983399	0.000628	6.282474	2.128560	-0.000252
 924	9.1838e+01	3.2149	32.725022	0.000649	6.485134	2.197223	-0.000260
 925	9.1938e+01	3.1860	32.531240	0.000486	4.863851	1.647917	-0.000195
 926	9.2037e+01	3.1363	32.309197	0.000557	5.573162	1.888239	-0.000223
 927	9.2137e+01	3.1042	32.062932	0.000618	6.181144	2.094228	-0.000248
 928	9.2237e+01	3.0593	31.857038	0.000517	5.167842	1.750912	-0.000207
 929	9.2336e+01	3.0256	31.586550	0.000679	6.789125	2.300218	-0.000272
 930	9.2436e+01	2.9823	31.372582	0.000537	5.370502	1.819575	-0.000215
 931	9.2535e+01	2.9325	31.142465	0.000578	5.775823	1.956902	-0.000231
 932	9.2635e+01	2.9085	30.936571	0.000517	5.167842	1.750912	-0.000207
 933	9.2734e+01	2.8555	30.718566	0.000547	5.471832	1.853907	-0.000219
 934	9.2834e+01	2.8186	30.464226	0.000638	6.383804	2.162891	-0.000256
 935	9.2933e+01	2.7930	30.234110	0.000578	5.775823	1.956902	-0.000231
 936	9.3032e+01	2.7368	29.979770	0.000638	6.383804	2.162891	-0.000256
 937	9.3132e+01	2.6999	29.741579	0.000598	5.978483	2.025565	-0.000239
 938	9.3231e+01	2.6582	29.531648	0.000527	5.269172	1.785244	-0.000211
 939	9.3331e+01	2.6213	29.285383	0.000618	6.181144	2.094228	-0.000248
 940	9.3430e+01	2.5892	29.091600	0.000486	4.863851	1.647917	-0.000195
 941	9.3530e+01	2.5379	28.821112	0.000679	6.789125	2.300218	-0.000272
 942	9.3629e+01	2.5026	28.599070	0.000557	5.573162	1.888239	-0.000223
 943	9.3729e+01	2.4497	28.356841	0.000608	6.079814	2.059897	-0.000243
 944	9.3829e+01	2.4272	28.110576	0.000618	6.181144	2.094228	-0.000248
 945	9.3928e+01	2.3823	27.880459	0.000578	5.775823	1.956902	-0.000231
 946	9.4028e+01	2.3470	27.622083	0.000649	6.485134	2.197223	-0.000260
 947	9.4127e+01	2.3085	27.416189	0.000517	5.167842	1.750912	-0.000207
 948	9.4227e+01	2.2620	27.169924	0.000618	6.181144	2.094228	-0.000248
 949	9.4326e+01	2.2251	26.927695	0.000608	6.079814	2.059897	-0.000243
 950	9.4425e+01	2.1785	26.669319	0.000649	6.485134	2.197223	-0.000260
 951	9.4525e+01	2.1433	26.423053	0.000618	6.181144	2.094228	-0.000248
 952	9.4624e+01	2.0935	26.188900	0.000588	5.877153	1.991233	-0.000235
 953	9.4724e+01	2.0582	25.934560	0.000638	6.383804	2.162891	-0.000256
 954	9.4823e+01	2.0197	25.692332	0.000608	6.079814	2.059897	-0.000243
 955	9.4923e+01	1.9764	25.466252	0.000567	5.674493	1.922570	-0.000227
 956	9.5022e+01	1.9443	25.224024	0.000608	6.079814	2.059897	-0.000243
 957	9.5122e+01	1.8946	24.985833	0.000598	5.978483	2.025565	-0.000239
 958	9.5222e+01	1.8657	24.739568	0.000618	6.181144	2.094228	-0.000248
 959	9.5321e+01	1.8256	24.501377	0.000598	5.978483	2.025565	-0.000239
 960	9.5421e+01	1.7903	24.198592	0.000760	7.599767	2.574871	-0.000304
 961	9.5520e+01	1.7438	23.976549	0.000557	5.573162	1.888239	-0.000223
 962	9.5620e+01	1.6973	23.726247	0.000628	6.282474	2.128560	-0.000252
 963	9.5719e+01	1.6572	23.459796	0.000669	6.687795	2.265886	-0.000268
 964	9.5819e+01	1.6235	23.233716	0.000567	5.674493	1.922570	-0.000227
 965	9.5918e+01	1.5818	22.991488	0.000608	6.079814	2.059897	-0.000243
 966	9.6017e+01	1.5465	22.741186	0.000628	6.282474	2.128560	-0.000252
 967	9.6117e+01	1.5032	22.519143	0.000557	5.573162	1.888239	-0.000223
 968	9.6216e+01	1.4631	22.272878	0.000618	6.181144	2.094228	-0.000248
 969	9.6316e+01	1.4214	21.974130	0.000750	7.498437	2.540539	-0.000300
 970	9.6415e+01	1.3780	21.748050	0.000567	5.674493	1.922570	-0.000227
 971	9.6515e+01	1.3411	21.485636	0.000659	6.586465	2.231555	-0.000264
 972	9.6615e+01	1.3074	21.263594	0.000557	5.573162	1.888239	-0.000223
 973	9.6714e+01	1.2673	20.985032	0.000699	6.991786	2.368881	-0.000280
 974	9.6814e+01	1.2240	20.742803	0.000608	6.079814	2.059897	-0.000243
 975	9.6913e+01	1.1823	20.492501	0.000628	6.282474	2.128560	-0.000252
 976	9.7013e+01	1.1454	20.230087	0.000659	6.586465	2.231555	-0.000264
 977	9.7112e+01	1.1021	19.979785	0.000628	6.282474	2.128560	-0.000252
 978	9.7212e+01	1.0684	19.725445	0.000638	6.383804	2.162891	-0.000256
 979	9.7311e+01	1.0299	19.471106	0.000638	6.383804	2.162891	-0.000256
 980	9.7410e+01	0.9802	19.212729	0.000649	6.485134	2.197223	-0.000260
 981	9.7510e+01	0.9561	18.930129	0.000709	7.093116	2.403213	-0.000284
 982	9.7609e+01	0.9064	18.704050	0.000567	5.674493	1.922570	-0.000227
 983	9.7709e+01	0.8663	18.482007	0.000557	5.573162	1.888239	-0.000223
 984	9.7808e+01	0.8262	18.195371	0.000719	7.194446	2.437544	-0.000288
 985	9.7908e+01	0.7829	17.920846	0.000689	6.890455	2.334549	-0.000276
 986	9.8007e+01	0.7396	17.638246	0.000709	7.093116	2.403213	-0.000284
 987	9.8107e+01	0.7155	17.416204	0.000557	5.573162	1.888239	-0.000223
 988	9.8207e+01	0.6706	17.137641	0.000699	6.991786	2.368881	-0.000280
 989	9.8306e+01	0.6240	16.923673	0.000537	5.370502	1.819575	-0.000215
 990	9.8406e+01	0.5888	16.632999	0.000730	7.295776	2.471876	-0.000292
 991	9.8505e+01	0.5438	16.366548	0.000669	6.687795	2.265886	-0.000268
 992	9.8605e+01	0.5150	16.144506	0.000557	5.573162	1.888239	-0.000223
 993	9.8704e+01	0.4620	15.878055	0.000669	6.687795	2.265886	-0.000268
 994	9.8803e+01	0.4331	15.567195	0.000780	7.802427	2.643534	-0.000312
 995	9.8903e+01	0.3834	15.333042	0.000588	5.877153	1.991233	-0.000235
 996	9.9002e+01	0.3449	15.062553	0.000679	6.789125	2.300218	-0.000272
 997	9.9102e+01	0.3000	14.796102	0.000669	6.687795	2.265886	-0.000268
 998	9.9201e+01	0.2759	14.545800	0.000628	6.282474	2.128560	-0.000252
 999	9.9301e+01	0.2230	14.255126	0.000730	7.295776	2.471876	-0.000292
1000	9.9400e+01	0.1957	13.992712	0.000659	6.586465	2.231555	-0.000264
1001	9.9500e+01	0.1508	13.742410	0.000628	6.282474	2.128560	-0.000252
1002	9.9600e+01	0.1091	13.455773	0.000719	7.194446	2.437544	-0.000288
1003	9.9699e+01	0.0610	13.209508	0.000618	6.181144	2.094228	-0.000248
1004	9.9799e+01	0.0289	12.910760	0.000750	7.498437	2.540539	-0.000300
1005	9.9898e+01	-0.0048	12.761386	0.000375	3.749218	1.270270	-0.000150
1006	9.9998e+01	-0.0417	12.470712	0.000730	7.295776	2.471876	-0.000292
1007	1.0010e+02	-0.0898	12.155816	0.000790	7.903758	2.677866	-0.000316
1008	1.0020e+02	-0.1251	11.937810	0.000547	5.471832	1.853907	-0.000219
1009	1.0030e+02	-0.1652	11.691545	0.000618	6.181144	2.094228	-0.000248
1010	1.0040e+02	-0.2134	11.396834	0.000740	7.397107	2.506208	-0.000296
1011	1.0050e+02	-0.2390	11.110198	0.000719	7.194446	2.437544	-0.000288
1012	1.0059e+02	-0.2743	10.835672	0.000689	6.890455	2.334549	-0.000276
1013	1.0069e+02	-0.3176	10.605556	0.000578	5.775823	1.956902	-0.000231
1014	1.0079e+02	-0.3610	10.322956	0.000709	7.093116	2.403213	-0.000284
1015	1.0089e+02	-0.3962	10.052468	0.000679	6.789125	2.300218	-0.000272
1016	1.0099e+02	-0.4508	9.773906	0.000699	6.991786	2.368881	-0.000280
1017	1.0109e+02	-0.4813	9.507455	0.000669	6.687795	2.265886	-0.000268
1018	1.0119e+02	-0.5262	9.253115	0.000638	6.383804	2.162891	-0.000256
1019	1.0129e+02	-0.5615	8.978590	0.000689	6.890455	2.334549	-0.000276
1020	1.0139e+02	-0.5936	8.695990	0.000709	7.093116	2.403213	-0.000284
1021	1.0149e+02	-0.6369	8.413391	0.000709	7.093116	2.403213	-0.000284
1022	1.0159e+02	-0.6802	8.126754	0.000719	7.194446	2.437544	-0.000288
1023	1.0169e+02	-0.7091	7.880489	0.000618	6.181144	2.094228	-0.000248
1024	1.0179e+02	-0.7572	7.597889	0.000709	7.093116	2.403213	-0.000284
1025	1.0189e+02	-0.7957	7.327401	0.000679	6.789125	2.300218	-0.000272
1026	1.0199e+02	-0.8406	7.036728	0.000730	7.295776	2.471876	-0.000292
1027	1.0209e+02	-0.8807	6.762202	0.000689	6.890455	2.334549	-0.000276
1028	1.0219e+02	-0.9256	6.491714	0.000679	6.789125	2.300218	-0.000272
1029	1.0229e+02	-0.9625	6.273709	0.000547	5.471832	1.853907	-0.000219
1030	1.0239e+02	-1.0026	5.954775	0.000801	8.005088	2.712197	-0.000321
1031	1.0248e+02	-1.0444	5.708510	0.000618	6.181144	2.094228	-0.000248
1032	1.0258e+02	-1.0732	5.446096	0.000659	6.586465	2.231555	-0.000264
1033	1.0268e+02	-1.1117	5.167534	0.000699	6.991786	2.368881	-0.000280
1034	1.0278e+02	-1.1711	4.884934	0.000709	7.093116	2.403213	-0.000284
1035	1.0288e+02	-1.2048	4.654818	0.000578	5.775823	1.956902	-0.000231
1036	1.0298e+02	-1.2433	4.360107	0.000740	7.397107	2.506208	-0.000296
1037	1.0308e+02	-1.2706	4.053284	0.000770	7.701097	2.609202	-0.000308
1038	1.0318e+02	-1.3187	3.839316	0.000537	5.370502	1.819575	-0.000215
1039	1.0328e+02	-1.3604	3.475974	0.000912	9.119720	3.089845	-0.000365
1040	1.0338e+02	-1.3973	3.241820	0.000588	5.877153	1.991233	-0.000235
1041	1.0348e+02	-1.4310	2.971332	0.000679	6.789125	2.300218	-0.000272
1042	1.0358e+02	-1.4807	2.696807	0.000689	6.890455	2.334549	-0.000276
1043	1.0368e+02	-1.5080	2.434393	0.000659	6.586465	2.231555	-0.000264
1044	1.0378e+02	-1.5561	2.131608	0.000760	7.599767	2.574871	-0.000304
1045	1.0388e+02	-1.6010	1.917639	0.000537	5.370502	1.819575	-0.000215
1046	1.0398e+02	-1.6315	1.622929	0.000740	7.397107	2.506208	-0.000296
1047	1.0408e+02	-1.6748	1.400886	0.000557	5.573162	1.888239	-0.000223
1048	1.0418e+02	-1.7197	1.130398	0.000679	6.789125	2.300218	-0.000272
1049	1.0428e+02	-1.7582	0.823576	0.000770	7.701097	2.609202	-0.000308
1050	1.0438e+02	-1.7903	0.553088	0.000679	6.789125	2.300218	-0.000272
1051	1.0447e+02	-1.8320	0.286637	0.000669	6.687795	2.265886	-0.000268
1052	1.0457e+02	-1.8689	-0.008074	0.000740	7.397107	2.506208	-0.000296
1053	1.0467e+02	-1.9155	-0.234154	0.000567	5.674493	1.922570	-0.000227
1054	1.0477e+02	-1.9524	-0.532902	0.000750	7.498437	2.540539	-0.000300
1055	1.0487e+02	-1.9973	-0.767056	0.000588	5.877153	1.991233	-0.000235
1056	1.0497e+02	-2.0358	-1.061767	0.000740	7.397107	2.506208	-0.000296
1057	1.0507e+02	-2.0791	-1.336292	0.000689	6.890455	2.334549	-0.000276
1058	1.0517e+02	-2.1112	-1.590631	0.000638	6.383804	2.162891	-0.000256
1059	1.0527e+02	-2.1513	-1.885342	0.000740	7.397107	2.506208	-0.000296
1060	1.0537e+02	-2.1946	-2.163905	0.000699	6.991786	2.368881	-0.000280
1061	1.0547e+02	-2.2379	-2.398059	0.000588	5.877153	1.991233	-0.000235
1062	1.0557e+02	-2.2748	-2.668547	0.000679	6.789125	2.300218	-0.000272
1063	1.0567e+02	-2.3117	-2.967295	0.000750	7.498437	2.540539	-0.000300
1064	1.0577e+02	-2.3454	-3.241820	0.000689	6.890455	2.334549	-0.000276
1065	1.0587e+02	-2.3951	-3.492122	0.000628	6.282474	2.128560	-0.000252
1066	1.0597e+02	-2.4320	-3.770685	0.000699	6.991786	2.368881	-0.000280
1067	1.0607e+02	-2.4641	-3.972542	0.000507	5.066511	1.716581	-0.000203
1068	1.0617e+02	-2.5090	-4.267252	0.000740	7.397107	2.506208	-0.000296
1069	1.0627e+02	-2.5555	-4.493332	0.000567	5.674493	1.922570	-0.000227
1070	1.0637e+02	-2.6037	-4.804192	0.000780	7.802427	2.643534	-0.000312
1071	1.0647e+02	-2.6293	-5.070642	0.000669	6.687795	2.265886	-0.000268
1072	1.0656e+02	-2.6662	-5.369391	0.000750	7.498437	2.540539	-0.000300
1073	1.0666e+02	-2.7144	-5.611619	0.000608	6.079814	2.059897	-0.000243
1074	1.0676e+02	-2.7545	-5.869995	0.000649	6.485134	2.197223	-0.000260
1075	1.0686e+02	-2.7978	-6.120298	0.000628	6.282474	2.128560	-0.000252
1076	1.0696e+02	-2.8299	-6.378674	0.000649	6.485134	2.197223	-0.000260
1077	1.0706e+02	-2.8732	-6.620903	0.000608	6.079814	2.059897	-0.000243
1078	1.0716e+02	-2.9021	-6.891391	0.000679	6.789125	2.300218	-0.000272
1079	1.0726e+02	-2.9486	-7.165916	0.000689	6.890455	2.334549	-0.000276
1080	1.0736e+02	-2.9919	-7.444478	0.000699	6.991786	2.368881	-0.000280
1081	1.0746e+02	-3.0336	-7.654409	0.000527	5.269172	1.785244	-0.000211
1082	1.0756e+02	-3.0657	-7.941046	0.000719	7.194446	2.437544	-0.000288
1083	1.0766e+02	-3.1090	-8.195386	0.000638	6.383804	2.162891	-0.000256
1084	1.0776e+02	-3.1491	-8.457799	0.000659	6.586465	2.231555	-0.000264
1085	1.0786e+02	-3.1988	-8.708102	0.000628	6.282474	2.128560	-0.000252
1086	1.0796e+02	-3.2277	-8.942256	0.000588	5.877153	1.991233	-0.000235
1087	1.0806e+02	-3.2710	-9.232929	0.000730	7.295776	2.471876	-0.000292
1088	1.0816e+02	-3.2983	-9.467083	0.000588	5.877153	1.991233	-0.000235
1089	1.0826e+02	-3.3561	-9.697200	0.000578	5.775823	1.956902	-0.000231
1090	1.0836e+02	-3.3865	-9.987874	0.000730	7.295776	2.471876	-0.000292
1091	1.0845e+02	-3.4250	-10.226065	0.000598	5.978483	2.025565	-0.000239
1092	1.0855e+02	-3.4667	-10.468293	0.000608	6.079814	2.059897	-0.000243
1093	1.0865e+02	-3.5133	-10.698410	0.000578	5.775823	1.956902	-0.000231
1094	1.0875e+02	-3.5421	-10.960824	0.000659	6.586465	2.231555	-0.000264
1095	1.0885e+02	-3.5919	-11.211126	0.000628	6.282474	2.128560	-0.000252
1096	1.0895e+02	-3.6304	-11.477577	0.000669	6.687795	2.265886	-0.000268
1097	1.0905e+02	-3.6689	-11.711731	0.000588	5.877153	1.991233	-0.000235
1098	1.0915e+02	-3.7122	-11.945885	0.000588	5.877153	1.991233	-0.000235
1099	1.0925e+02	-3.7507	-12.256744	0.000780	7.802427	2.643534	-0.000312
1100	1.0935e+02	-3.7876	-12.462638	0.000517	5.167842	1.750912	-0.000207
1101	1.0945e+02	-3.8213	-12.696792	0.000588	5.877153	1.991233	-0.000235
1102	1.0955e+02	-3.8678	-12.939020	0.000608	6.079814	2.059897	-0.000243
1103	1.0965e+02	-3.9015	-13.197397	0.000649	6.485134	2.197223	-0.000260
1104	1.0975e+02	-3.9336	-13.451736	0.000638	6.383804	2.162891	-0.000256
1105	1.0985e+02	-3.9881	-13.685890	0.000588	5.877153	1.991233	-0.000235
1106	1.0995e+02	-4.0314	-13.920044	0.000588	5.877153	1.991233	-0.000235
1107	1.1005e+02	-4.0748	-14.174384	0.000638	6.383804	2.162891	-0.000256
1108	1.1015e+02	-4.1084	-14.436797	0.000659	6.586465	2.231555	-0.000264
1109	1.1025e+02	-4.1518	-14.630580	0.000486	4.863851	1.647917	-0.000195
1110	1.1035e+02	-4.1999	-14.913179	0.000709	7.093116	2.403213	-0.000284
1111	1.1044e+02	-4.2288	-15.123110	0.000527	5.269172	1.785244	-0.000211
1112	1.1054e+02	-4.2641	-15.377450	0.000638	6.383804	2.162891	-0.000256
1113	1.1064e+02	-4.3122	-15.607567	0.000578	5.775823	1.956902	-0.000231
1114	1.1074e+02	-4.3411	-15.865943	0.000649	6.485134	2.197223	-0.000260
1115	1.1084e+02	-4.3828	-16.100097	0.000588	5.877153	1.991233	-0.000235
1116	1.1094e+02	-4.4261	-16.301954	0.000507	5.066511	1.716581	-0.000203
1117	1.1104e+02	-4.4678	-16.528034	0.000567	5.674493	1.922570	-0.000227
1118	1.1114e+02	-4.5079	-16.794485	0.000669	6.687795	2.265886	-0.000268
1119	1.1124e+02	-4.5480	-17.056898	0.000659	6.586465	2.231555	-0.000264
1120	1.1134e+02	-4.5801	-17.282978	0.000567	5.674493	1.922570	-0.000227
1121	1.1144e+02	-4.6218	-17.492909	0.000527	5.269172	1.785244	-0.000211
1122	1.1154e+02	-4.6587	-17.751286	0.000649	6.485134	2.197223	-0.000260
1123	1.1164e+02	-4.7068	-17.961217	0.000527	5.269172	1.785244	-0.000211
1124	1.1174e+02	-4.7405	-18.211519	0.000628	6.282474	2.128560	-0.000252
1125	1.1184e+02	-4.7870	-18.482007	0.000679	6.789125	2.300218	-0.000272
1126	1.1194e+02	-4.8255	-18.679827	0.000497	4.965181	1.682249	-0.000199
1127	1.1204e+02	-4.8672	-18.909944	0.000578	5.775823	1.956902	-0.000231
1128	1.1214e+02	-4.8977	-19.148135	0.000598	5.978483	2.025565	-0.000239
1129	1.1224e+02	-4.9458	-19.333843	0.000466	4.661190	1.579254	-0.000187
1130	1.1234e+02	-4.9908	-19.604331	0.000679	6.789125	2.300218	-0.000272
1131	1.1244e+02	-5.0245	-19.846559	0.000608	6.079814	2.059897	-0.000243
1132	1.1253e+02	-5.0662	-20.036305	0.000476	4.762521	1.613586	-0.000191
1133	1.1263e+02	-5.1079	-20.298718	0.000659	6.586465	2.231555	-0.000264
1134	1.1273e+02	-5.1384	-20.496538	0.000497	4.965181	1.682249	-0.000199
1135	1.1283e+02	-5.1865	-20.722618	0.000567	5.674493	1.922570	-0.000227
1136	1.1293e+02	-5.2234	-20.964846	0.000608	6.079814	2.059897	-0.000243
1137	1.1303e+02	-5.2603	-21.174777	0.000527	5.269172	1.785244	-0.000211
1138	1.1313e+02	-5.2988	-21.392782	0.000547	5.471832	1.853907	-0.000219
1139	1.1323e+02	-5.3501	-21.622899	0.000578	5.775823	1.956902	-0.000231
1140	1.1333e+02	-5.3758	-21.857053	0.000588	5.877153	1.991233	-0.000235
1141	1.1343e+02	-5.4271	-22.091207	0.000588	5.877153	1.991233	-0.000235
1142	1.1353e+02	-5.4592	-22.297101	0.000517	5.167842	1.750912	-0.000207
1143	1.1363e+02	-5.5009	-22.486846	0.000476	4.762521	1.613586	-0.000191
1144	1.1373e+02	-5.5458	-22.721000	0.000588	5.877153	1.991233	-0.000235
1145	1.1383e+02	-5.5956	-22.939005	0.000547	5.471832	1.853907	-0.000219
1146	1.1393e+02	-5.6148	-23.140862	0.000507	5.066511	1.716581	-0.000203
1147	1.1403e+02	-5.6565	-23.419424	0.000699	6.991786	2.368881	-0.000280
1148	1.1413e+02	-5.6950	-23.593021	0.000436	4.357200	1.476259	-0.000174
1149	1.1423e+02	-5.7448	-23.811027	0.000547	5.471832	1.853907	-0.000219
1150	1.1433e+02	-5.7768	-24.020958	0.000527	5.269172	1.785244	-0.000211
1151	1.1442e+02	-5.8250	-24.271260	0.000628	6.282474	2.128560	-0.000252
1152	1.1452e+02	-5.8603	-24.505414	0.000588	5.877153	1.991233	-0.000235
1153	1.1462e+02	-5.8988	-24.670936	0.000415	4.154539	1.407596	-0.000166
1154	1.1472e+02	-5.9469	-24.888942	0.000547	5.471832	1.853907	-0.000219
1155	1.1482e+02	-5.9726	-25.106947	0.000547	5.471832	1.853907	-0.000219
1156	1.1492e+02	-6.0287	-25.353212	0.000618	6.181144	2.094228	-0.000248
1157	1.1502e+02	-6.0656	-25.522772	0.000426	4.255870	1.441928	-0.000170
1158	1.1512e+02	-6.0993	-25.740777	0.000547	5.471832	1.853907	-0.000219
1159	1.1522e+02	-6.1426	-25.966857	0.000567	5.674493	1.922570	-0.000227
1160	1.1532e+02	-6.1827	-26.176788	0.000527	5.269172	1.785244	-0.000211
1161	1.1542e+02	-6.2212	-26.366534	0.000476	4.762521	1.613586	-0.000191
1162	1.1552e+02	-6.2661	-26.645096	0.000699	6.991786	2.368881	-0.000280
1163	1.1562e+02	-6.2966	-26.846953	0.000507	5.066511	1.716581	-0.000203
1164	1.1572e+02	-6.3351	-27.020549	0.000436	4.357200	1.476259	-0.000174
1165	1.1582e+02	-6.3672	-27.230481	0.000527	5.269172	1.785244	-0.000211
1166	1.1592e+02	-6.4105	-27.452523	0.000557	5.573162	1.888239	-0.000223
1167	1.1602e+02	-6.4570	-27.622083	0.000426	4.255870	1.441928	-0.000170
1168	1.1612e+02	-6.4955	-27.872385	0.000628	6.282474	2.128560	-0.000252
1169	1.1622e+02	-6.5228	-28.066168	0.000486	4.863851	1.647917	-0.000195
1170	1.1632e+02	-6.5677	-28.276099	0.000527	5.269172	1.785244	-0.000211
1171	1.1642e+02	-6.6126	-28.518327	0.000608	6.079814	2.059897	-0.000243
1172	1.1651e+02	-6.6592	-28.728258	0.000527	5.269172	1.785244	-0.000211
1173	1.1661e+02	-6.6848	-28.869558	0.000355	3.546558	1.201606	-0.000142
1174	1.1671e+02	-6.7282	-29.067377	0.000497	4.965181	1.682249	-0.000199
1175	1.1681e+02	-6.7747	-29.305568	0.000598	5.978483	2.025565	-0.000239
1176	1.1691e+02	-6.8148	-29.487239	0.000456	4.559860	1.544922	-0.000183
1177	1.1701e+02	-6.8549	-29.689096	0.000507	5.066511	1.716581	-0.000203
1178	1.1711e+02	-6.8934	-29.923250	0.000588	5.877153	1.991233	-0.000235
1179	1.1721e+02	-6.9335	-30.125107	0.000507	5.066511	1.716581	-0.000203
1180	1.1731e+02	-6.9784	-30.335038	0.000527	5.269172	1.785244	-0.000211
1181	1.1741e+02	-7.0169	-30.524783	0.000476	4.762521	1.613586	-0.000191
1182	1.1751e+02	-7.0506	-30.722603	0.000497	4.965181	1.682249	-0.000199
1183	1.1761e+02	-7.0891	-30.944645	0.000557	5.573162	1.888239	-0.000223
1184	1.1771e+02	-7.1372	-31.106131	0.000405	4.053209	1.373264	-0.000162
1185	1.1781e+02	-7.1725	-31.364508	0.000649	6.485134	2.197223	-0.000260
1186	1.1791e+02	-7.2142	-31.550216	0.000466	4.661190	1.579254	-0.000187
1187	1.1801e+02	-7.2527	-31.735924	0.000466	4.661190	1.579254	-0.000187
1188	1.1811e+02	-7.2928	-31.966041	0.000578	5.775823	1.956902	-0.000231
1189	1.1821e+02	-7.3297	-32.115415	0.000375	3.749218	1.270270	-0.000150
1190	1.1831e+02	-7.3634	-32.333420	0.000547	5.471832	1.853907	-0.000219
1191	1.1841e+02	-7.4116	-32.547388	0.000537	5.370502	1.819575	-0.000215
1192	1.1850e+02	-7.4597	-32.729059	0.000456	4.559860	1.544922	-0.000183
1193	1.1860e+02	-7.4934	-32.918805	0.000476	4.762521	1.613586	-0.000191
1194	1.1870e+02	-7.5415	-33.148922	0.000578	5.775823	1.956902	-0.000231
1195	1.1880e+02	-7.5832	-33.338667	0.000476	4.762521	1.613586	-0.000191
1196	1.1890e+02	-7.6185	-33.484004	0.000365	3.647888	1.235938	-0.000146
1197	1.1900e+02	-7.6458	-33.746418	0.000659	6.586465	2.231555	-0.000264
1198	1.1910e+02	-7.6907	-33.895792	0.000375	3.749218	1.270270	-0.000150
1199	1.1920e+02	-7.7324	-34.117834	0.000557	5.573162	1.888239	-0.000223
1200	1.1930e+02	-7.7757	-34.311617	0.000486	4.863851	1.647917	-0.000195
1201	1.1940e+02	-7.8126	-34.501362	0.000476	4.762521	1.613586	-0.000191
1202	1.1950e+02	-7.8447	-34.707256	0.000517	5.167842	1.750912	-0.000207
1203	1.1960e+02	-7.8912	-34.892964	0.000466	4.661190	1.579254	-0.000187
1204	1.1970e+02	-7.9377	-35.050412	0.000395	3.951879	1.338933	-0.000158
1205	1.1980e+02	-7.9714	-35.308789	0.000649	6.485134	2.197223	-0.000260
1206	1.1990e+02	-8.0228	-35.462200	0.000385	3.850549	1.304601	-0.000154
1207	1.2000e+02	-8.0549	-35.688280	0.000567	5.674493	1.922570	-0.000227
1208	1.2010e+02	-8.0885	-35.845728	0.000395	3.951879	1.338933	-0.000158
1209	1.2020e+02	-8.1463	-36.027399	0.000456	4.559860	1.544922	-0.000183
1210	1.2030e+02	-8.1800	-36.225219	0.000497	4.965181	1.682249	-0.000199
1211	1.2039e+02	-8.2089	-36.382667	0.000395	3.951879	1.338933	-0.000158
1212	1.2049e+02	-8.2490	-36.604710	0.000557	5.573162	1.888239	-0.000223
1213	1.2059e+02	-8.2891	-36.782344	0.000446	4.458530	1.510591	-0.000179
1214	1.2069e+02	-8.3356	-37.012460	0.000578	5.775823	1.956902	-0.000231
1215	1.2079e+02	-8.3789	-37.169909	0.000395	3.951879	1.338933	-0.000158
1216	1.2089e+02	-8.4078	-37.375803	0.000517	5.167842	1.750912	-0.000207
1217	1.2099e+02	-8.4367	-37.529214	0.000385	3.850549	1.304601	-0.000154
1218	1.2109e+02	-8.4752	-37.743182	0.000537	5.370502	1.819575	-0.000215
1219	1.2119e+02	-8.5281	-37.941002	0.000497	4.965181	1.682249	-0.000199
1220	1.2129e+02	-8.5746	-38.138821	0.000497	4.965181	1.682249	-0.000199
1221	1.2139e+02	-8.6003	-38.280121	0.000355	3.546558	1.201606	-0.000142
1222	1.2149e+02	-8.6436	-38.522349	0.000608	6.079814	2.059897	-0.000243
1223	1.2159e+02	-8.6821	-38.675760	0.000385	3.850549	1.304601	-0.000154
1224	1.2169e+02	-8.7238	-38.917989	0.000608	6.079814	2.059897	-0.000243
1225	1.2179e+02	-8.7623	-39.063325	0.000365	3.647888	1.235938	-0.000146
1226	1.2189e+02	-8.7992	-39.277294	0.000537	5.370502	1.819575	-0.000215
1227	1.2199e+02	-8.8393	-39.471076	0.000486	4.863851	1.647917	-0.000195
1228	1.2209e+02	-8.8842	-39.636599	0.000415	4.154539	1.407596	-0.000166
1229	1.2219e+02	-8.9276	-39.830381	0.000486	4.863851	1.647917	-0.000195
1230	1.2229e+02	-8.9661	-39.995904	0.000415	4.154539	1.407596	-0.000166
1231	1.2239e+02	-9.0046	-40.213909	0.000547	5.471832	1.853907	-0.000219
1232	1.2248e+02	-9.0415	-40.387506	0.000436	4.357200	1.476259	-0.000174
1233	1.2258e+02	-9.0896	-40.516694	0.000324	3.242567	1.098612	-0.000130
1234	1.2268e+02	-9.1265	-40.783145	0.000669	6.687795	2.265886	-0.000268
1235	1.2278e+02	-9.1634	-40.936556	0.000385	3.850549	1.304601	-0.000154
1236	1.2288e+02	-9.2099	-41.118227	0.000456	4.559860	1.544922	-0.000183
1237	1.2298e+02	-9.2404	-41.316047	0.000497	4.965181	1.682249	-0.000199
1238	1.2308e+02	-9.2901	-41.538090	0.000557	5.573162	1.888239	-0.000223
1239	1.2318e+02	-9.3238	-41.691501	0.000385	3.850549	1.304601	-0.000154
1240	1.2328e+02	-9.3703	-41.852986	0.000405	4.053209	1.373264	-0.000162
1241	1.2338e+02	-9.4024	-42.070992	0.000547	5.471832	1.853907	-0.000219
1242	1.2348e+02	-9.4537	-42.192106	0.000304	3.039907	1.029948	-0.000122
1243	1.2358e+02	-9.4955	-42.385888	0.000486	4.863851	1.647917	-0.000195
1244	1.2368e+02	-9.5227	-42.599856	0.000537	5.370502	1.819575	-0.000215
1245	1.2378e+02	-9.5709	-42.797676	0.000497	4.965181	1.682249	-0.000199
1246	1.2388e+02	-9.5997	-42.995496	0.000497	4.965181	1.682249	-0.000199
1247	1.2398e+02	-9.6414	-43.128721	0.000334	3.343897	1.132943	-0.000134
1248	1.2408e+02	-9.6880	-43.278095	0.000375	3.749218	1.270270	-0.000150
1249	1.2418e+02	-9.7361	-43.475915	0.000497	4.965181	1.682249	-0.000199
1250	1.2428e+02	-9.7569	-43.645474	0.000426	4.255870	1.441928	-0.000170
1251	1.2438e+02	-9.8019	-43.859443	0.000537	5.370502	1.819575	-0.000215
1252	1.2447e+02	-9.8468	-44.000742	0.000355	3.546558	1.201606	-0.000142
1253	1.2457e+02	-9.8821	-44.178376	0.000446	4.458530	1.510591	-0.000179
1254	1.2467e+02	-9.9190	-44.376196	0.000497	4.965181	1.682249	-0.000199
1255	1.2477e+02	-9.9639	-44.533644	0.000395	3.951879	1.338933	-0.000158
1256	1.2487e+02	-10.0024	-44.743575	0.000527	5.269172	1.785244	-0.000211
1257	1.2497e+02	-10.0425	-44.876801	0.000334	3.343897	1.132943	-0.000134
1258	1.2507e+02	-10.0842	-45.094806	0.000547	5.471832	1.853907	-0.000219
1259	1.2517e+02	-10.1211	-45.199772	0.000263	2.634586	0.892622	-0.000105
1260	1.2527e+02	-10.1580	-45.446037	0.000618	6.181144	2.094228	-0.000248
1261	1.2537e+02	-10.2029	-45.639820	0.000486	4.863851	1.647917	-0.000195
1262	1.2547e+02	-10.2382	-45.777082	0.000345	3.445228	1.167275	-0.000138
1263	1.2557e+02	-10.2847	-45.978939	0.000507	5.066511	1.716581	-0.000203
1264	1.2567e+02	-10.3232	-46.140424	0.000405	4.053209	1.373264	-0.000162
1265	1.2577e+02	-10.3617	-46.273650	0.000334	3.343897	1.132943	-0.000134
1266	1.2587e+02	-10.3986	-46.491655	0.000547	5.471832	1.853907	-0.000219
1267	1.2597e+02	-10.4436	-46.636992	0.000365	3.647888	1.235938	-0.000146
1268	1.2607e+02	-10.4821	-46.846923	0.000527	5.269172	1.785244	-0.000211
1269	1.2617e+02	-10.5141	-47.016483	0.000426	4.255870	1.441928	-0.000170
1270	1.2627e+02	-10.5591	-47.177968	0.000405	4.053209	1.373264	-0.000162
1271	1.2636e+02	-10.6040	-47.339454	0.000405	4.053209	1.373264	-0.000162
1272	1.2646e+02	-10.6329	-47.521125	0.000456	4.559860	1.544922	-0.000183
1273	1.2656e+02	-10.6810	-47.706833	0.000466	4.661190	1.579254	-0.000187
1274	1.2666e+02	-10.7115	-47.856207	0.000375	3.749218	1.270270	-0.000150
1275	1.2676e+02	-10.7628	-48.041915	0.000466	4.661190	1.579254	-0.000187
1276	1.2686e+02	-10.8045	-48.179178	0.000345	3.445228	1.167275	-0.000138
1277	1.2696e+02	-10.8446	-48.356812	0.000446	4.458530	1.510591	-0.000179
1278	1.2706e+02	-10.8767	-48.542520	0.000466	4.661190	1.579254	-0.000187
1279	1.2716e+02	-10.9264	-48.704006	0.000405	4.053209	1.373264	-0.000162
1280	1.2726e+02	-10.9537	-48.950271	0.000618	6.181144	2.094228	-0.000248
1281	1.2736e+02	-10.9954	-49.055236	0.000263	2.634586	0.892622	-0.000105
1282	1.2746e+02	-11.0339	-49.232870	0.000446	4.458530	1.510591	-0.000179
1283	1.2756e+02	-11.0804	-49.406467	0.000436	4.357200	1.476259	-0.000174
1284	1.2766e+02	-11.1109	-49.584101	0.000446	4.458530	1.510591	-0.000179
1285	1.2776e+02	-11.1606	-49.737512	0.000385	3.850549	1.304601	-0.000154
1286	1.2786e+02	-11.1991	-49.911109	0.000436	4.357200	1.476259	-0.000174
1287	1.2796e+02	-11.2441	-50.092780	0.000456	4.559860	1.544922	-0.000183
1288	1.2806e+02	-11.2826	-50.242154	0.000375	3.749218	1.270270	-0.000150
1289	1.2816e+02	-11.3179	-50.423825	0.000456	4.559860	1.544922	-0.000183
1290	1.2826e+02	-11.3612	-50.609534	0.000466	4.661190	1.579254	-0.000187
1291	1.2835e+02	-11.4045	-50.783130	0.000436	4.357200	1.476259	-0.000174
1292	1.2845e+02	-11.4334	-50.948653	0.000415	4.154539	1.407596	-0.000166
1293	1.2855e+02	-11.4767	-51.114176	0.000415	4.154539	1.407596	-0.000166
1294	1.2865e+02	-11.5216	-51.279698	0.000415	4.154539	1.407596	-0.000166
1295	1.2875e+02	-11.5649	-51.441184	0.000405	4.053209	1.373264	-0.000162
1296	1.2885e+02	-11.6050	-51.574409	0.000334	3.343897	1.132943	-0.000134
1297	1.2895e+02	-11.6419	-51.804526	0.000578	5.775823	1.956902	-0.000231
1298	1.2905e+02	-11.6772	-51.937751	0.000334	3.343897	1.132943	-0.000134
1299	1.2915e+02	-11.7173	-52.111348	0.000436	4.357200	1.476259	-0.000174
1300	1.2925e+02	-11.7462	-52.280908	0.000426	4.255870	1.441928	-0.000170
1301	1.2935e+02	-11.7975	-52.454505	0.000436	4.357200	1.476259	-0.000174
1302	1.2945e+02	-11.8441	-52.579656	0.000314	3.141237	1.064280	-0.000126
1303	1.2955e+02	-11.8681	-52.789587	0.000527	5.269172	1.785244	-0.000211
1304	1.2965e+02	-11.9178	-52.930887	0.000355	3.546558	1.201606	-0.000142
1305	1.2975e+02	-11.9596	-53.100446	0.000426	4.255870	1.441928	-0.000170
1306	1.2985e+02	-11.9900	-53.217523	0.000294	2.938577	0.995617	-0.000118
1307	1.2995e+02	-12.0366	-53.439566	0.000557	5.573162	1.888239	-0.000223
1308	1.3005e+02	-12.0879	-53.633348	0.000486	4.863851	1.647917	-0.000195
1309	1.3015e+02	-12.1087	-53.770611	0.000345	3.445228	1.167275	-0.000138
1310	1.3025e+02	-12.1537	-53.907874	0.000345	3.445228	1.167275	-0.000138
1311	1.3034e+02	-12.1938	-54.097619	0.000476	4.762521	1.613586	-0.000191
1312	1.3044e+02	-12.2243	-54.279290	0.000456	4.559860	1.544922	-0.000183
1313	1.3054e+02	-12.2756	-54.420590	0.000355	3.546558	1.201606	-0.000142
1314	1.3064e+02	-12.3125	-54.606298	0.000466	4.661190	1.579254	-0.000187
1315	1.3074e+02	-12.3494	-54.743561	0.000345	3.445228	1.167275	-0.000138
1316	1.3084e+02	-12.3975	-54.901009	0.000395	3.951879	1.338933	-0.000158
1317	1.3094e+02	-12.4376	-55.082680	0.000456	4.559860	1.544922	-0.000183
1318	1.3104e+02	-12.4777	-55.232054	0.000375	3.749218	1.270270	-0.000150
1319	1.3114e+02	-12.5066	-55.417762	0.000466	4.661190	1.579254	-0.000187
1320	1.3124e+02	-12.5595	-55.546951	0.000324	3.242567	1.098612	-0.000130
1321	1.3134e+02	-12.5836	-55.724585	0.000446	4.458530	1.510591	-0.000179
1322	1.3144e+02	-12.6365	-55.861847	0.000345	3.445228	1.167275	-0.000138
1323	1.3154e+02	-12.6734	-56.059667	0.000497	4.965181	1.682249	-0.000199
1324	1.3164e+02	-12.7039	-56.233264	0.000436	4.357200	1.476259	-0.000174
1325	1.3174e+02	-12.7488	-56.378601	0.000365	3.647888	1.235938	-0.000146
1326	1.3184e+02	-12.7970	-56.576420	0.000497	4.965181	1.682249	-0.000199
1327	1.3194e+02	-12.8226	-56.705609	0.000324	3.242567	1.098612	-0.000130
1328	1.3204e+02	-12.8804	-56.895354	0.000476	4.762521	1.613586	-0.000191
1329	1.3214e+02	-12.9109	-57.056839	0.000405	4.053209	1.373264	-0.000162
1330	1.3224e+02	-12.9526	-57.169879	0.000284	2.837246	0.961285	-0.000114
1331	1.3234e+02	-12.9863	-57.367699	0.000497	4.965181	1.682249	-0.000199
1332	1.3243e+02	-13.0248	-57.504961	0.000345	3.445228	1.167275	-0.000138
1333	1.3253e+02	-13.0713	-57.666447	0.000405	4.053209	1.373264	-0.000162
1334	1.3263e+02	-13.0970	-57.815821	0.000375	3.749218	1.270270	-0.000150
1335	1.3273e+02	-13.1451	-58.005566	0.000476	4.762521	1.613586	-0.000191
1336	1.3283e+02	-13.2028	-58.167052	0.000405	4.053209	1.373264	-0.000162
1337	1.3293e+02	-13.2253	-58.340649	0.000436	4.357200	1.476259	-0.000174
1338	1.3303e+02	-13.2750	-58.506171	0.000415	4.154539	1.407596	-0.000166
1339	1.3313e+02	-13.3151	-58.687842	0.000456	4.559860	1.544922	-0.000183
1340	1.3323e+02	-13.3520	-58.853365	0.000415	4.154539	1.407596	-0.000166
1341	1.3333e+02	-13.3809	-59.010813	0.000395	3.951879	1.338933	-0.000158
1342	1.3343e+02	-13.4274	-59.172299	0.000405	4.053209	1.373264	-0.000162
1343	1.3353e+02	-13.4836	-59.321673	0.000375	3.749218	1.270270	-0.000150
1344	1.3363e+02	-13.4964	-59.483158	0.000405	4.053209	1.373264	-0.000162
1345	1.3373e+02	-13.5494	-59.664829	0.000456	4.559860	1.544922	-0.000183
1346	1.3383e+02	-13.5879	-59.854574	0.000476	4.762521	1.613586	-0.000191
1347	1.3393e+02	-13.6215	-59.987800	0.000334	3.343897	1.132943	-0.000134
1348	1.3403e+02	-13.6745	-60.169471	0.000456	4.559860	1.544922	-0.000183
1349	1.3413e+02	-13.7130	-60.306734	0.000345	3.445228	1.167275	-0.000138
1350	1.3423e+02	-13.7515	-60.496479	0.000476	4.762521	1.613586	-0.000191
1351	1.3432e+02	-13.7852	-60.686224	0.000476	4.762521	1.613586	-0.000191
1352	1.3442e+02	-13.8333	-60.851747	0.000415	4.154539	1.407596	-0.000166
1353	1.3452e+02	-13.8718	-60.980935	0.000324	3.242567	1.098612	-0.000130
1354	1.3462e+02	-13.9007	-61.170681	0.000476	4.762521	1.613586	-0.000191
1355	1.3472e+02	-13.9488	-61.311980	0.000355	3.546558	1.201606	-0.000142
1356	1.3482e+02	-13.9841	-61.505763	0.000486	4.863851	1.647917	-0.000195
1357	1.3492e+02	-14.0290	-61.651100	0.000365	3.647888	1.235938	-0.000146
1358	1.3502e+02	-14.0643	-61.820660	0.000426	4.255870	1.441928	-0.000170
1359	1.3512e+02	-14.1076	-61.961959	0.000355	3.546558	1.201606	-0.000142
1360	1.3522e+02	-14.1477	-62.167853	0.000517	5.167842	1.750912	-0.000207
1361	1.3532e+02	-14.1910	-62.373747	0.000517	5.167842	1.750912	-0.000207
1362	1.3542e+02	-14.2231	-62.523121	0.000375	3.749218	1.270270	-0.000150
1363	1.3552e+02	-14.2664	-62.672495	0.000375	3.749218	1.270270	-0.000150
1364	1.3562e+02	-14.3130	-62.813795	0.000355	3.546558	1.201606	-0.000142
1365	1.3572e+02	-14.3563	-62.975280	0.000405	4.053209	1.373264	-0.000162
1366	1.3582e+02	-14.3836	-63.197323	0.000557	5.573162	1.888239	-0.000223
1367	1.3592e+02	-14.4269	-63.350734	0.000385	3.850549	1.304601	-0.000154
1368	1.3602e+02	-14.4606	-63.540479	0.000476	4.762521	1.613586	-0.000191
1369	1.3612e+02	-14.5007	-63.697928	0.000395	3.951879	1.338933	-0.000158
1370	1.3622e+02	-14.5376	-63.851339	0.000385	3.850549	1.304601	-0.000154
1371	1.3631e+02	-14.5809	-64.045121	0.000486	4.863851	1.647917	-0.000195
1372	1.3641e+02	-14.6226	-64.198533	0.000385	3.850549	1.304601	-0.000154
1373	1.3651e+02	-14.6563	-64.372129	0.000436	4.357200	1.476259	-0.000174
1374	1.3661e+02	-14.7044	-64.573986	0.000507	5.066511	1.716581	-0.000203
1375	1.3671e+02	-14.7445	-64.723360	0.000375	3.749218	1.270270	-0.000150
1376	1.3681e+02	-14.7846	-64.900994	0.000446	4.458530	1.510591	-0.000179
1377	1.3691e+02	-14.8247	-65.062480	0.000405	4.053209	1.373264	-0.000162
1378	1.3701e+02	-14.8632	-65.223965	0.000405	4.053209	1.373264	-0.000162
1379	1.3711e+02	-14.9129	-65.393525	0.000426	4.255870	1.441928	-0.000170
1380	1.3721e+02	-14.9498	-65.559047	0.000415	4.154539	1.407596	-0.000166
1381	1.3731e+02	-14.9739	-65.748793	0.000476	4.762521	1.613586	-0.000191
1382	1.3741e+02	-15.0204	-65.926427	0.000446	4.458530	1.510591	-0.000179
1383	1.3751e+02	-15.0670	-66.148469	0.000557	5.573162	1.888239	-0.000223
1384	1.3761e+02	-15.0990	-66.265546	0.000294	2.938577	0.995617	-0.000118
1385	1.3771e+02	-15.1440	-66.443180	0.000446	4.458530	1.510591	-0.000179
1386	1.3781e+02	-15.1760	-66.641000	0.000497	4.965181	1.682249	-0.000199
1387	1.3791e+02	-15.2290	-66.814596	0.000436	4.357200	1.476259	-0.000174
1388	1.3801e+02	-15.2579	-67.020490	0.000517	5.167842	1.750912	-0.000207
1389	1.3811e+02	-15.3028	-67.218310	0.000497	4.965181	1.682249	-0.000199
1390	1.3821e+02	-15.3493	-67.379795	0.000405	4.053209	1.373264	-0.000162
1391	1.3831e+02	-15.3766	-67.533207	0.000385	3.850549	1.304601	-0.000154
1392	1.3840e+02	-15.4247	-67.775435	0.000608	6.079814	2.059897	-0.000243
1393	1.3850e+02	-15.4664	-67.940957	0.000415	4.154539	1.407596	-0.000166
1394	1.3860e+02	-15.5001	-68.118591	0.000446	4.458530	1.510591	-0.000179
1395	1.3870e+02	-15.5498	-68.308337	0.000476	4.762521	1.613586	-0.000191
1396	1.3880e+02	-15.5835	-68.518268	0.000527	5.269172	1.785244	-0.000211
1397	1.3890e+02	-15.6236	-68.687827	0.000426	4.255870	1.441928	-0.000170
1398	1.3900e+02	-15.6589	-68.893721	0.000517	5.167842	1.750912	-0.000207
1399	1.3910e+02	-15.7054	-69.043095	0.000375	3.749218	1.270270	-0.000150
1400	1.3920e+02	-15.7391	-69.228804	0.000466	4.661190	1.579254	-0.000187
1401	1.3930e+02	-15.7728	-69.410475	0.000456	4.559860	1.544922	-0.000183
1402	1.3940e+02	-15.8113	-69.604257	0.000486	4.863851	1.647917	-0.000195
1403	1.3950e+02	-15.8610	-69.814188	0.000527	5.269172	1.785244	-0.000211
1404	1.3960e+02	-15.8947	-70.003934	0.000476	4.762521	1.613586	-0.000191
1405	1.3970e+02	-15.9397	-70.197716	0.000486	4.863851	1.647917	-0.000195
1406	1.3980e+02	-15.9750	-70.383424	0.000466	4.661190	1.579254	-0.000187
1407	1.3990e+02	-16.0167	-70.581244	0.000497	4.965181	1.682249	-0.000199
1408	1.4000e+02	-16.0632	-70.791175	0.000527	5.269172	1.785244	-0.000211
1409	1.4010e+02	-16.1033	-70.976883	0.000466	4.661190	1.579254	-0.000187
1410	1.4020e+02	-16.1274	-71.182777	0.000517	5.167842	1.750912	-0.000207
1411	1.4029e+02	-16.1803	-71.388671	0.000517	5.167842	1.750912	-0.000207
1412	1.4039e+02	-16.2220	-71.586491	0.000497	4.965181	1.682249	-0.000199
1413	1.4049e+02	-16.2477	-71.780273	0.000486	4.863851	1.647917	-0.000195
1414	1.4059e+02	-16.2926	-72.002316	0.000557	5.573162	1.888239	-0.000223
1415	1.4069e+02	-16.3375	-72.147653	0.000365	3.647888	1.235938	-0.000146
1416	1.4079e+02	-16.3776	-72.377770	0.000578	5.775823	1.956902	-0.000231
1417	1.4089e+02	-16.4129	-72.559441	0.000456	4.559860	1.544922	-0.000183
1418	1.4099e+02	-16.4546	-72.769372	0.000527	5.269172	1.785244	-0.000211
1419	1.4109e+02	-16.4883	-72.987377	0.000547	5.471832	1.853907	-0.000219
1420	1.4119e+02	-16.5316	-73.201345	0.000537	5.370502	1.819575	-0.000215
1421	1.4129e+02	-16.5749	-73.395128	0.000486	4.863851	1.647917	-0.000195
1422	1.4139e+02	-16.6150	-73.605059	0.000527	5.269172	1.785244	-0.000211
1423	1.4149e+02	-16.6600	-73.814990	0.000527	5.269172	1.785244	-0.000211
1424	1.4159e+02	-16.7001	-74.032995	0.000547	5.471832	1.853907	-0.000219
1425	1.4169e+02	-16.7450	-74.246963	0.000537	5.370502	1.819575	-0.000215
1426	1.4179e+02	-16.7851	-74.473043	0.000567	5.674493	1.922570	-0.000227
1427	1.4189e+02	-16.8092	-74.646640	0.000436	4.357200	1.476259	-0.000174
1428	1.4199e+02	-16.8589	-74.852534	0.000517	5.167842	1.750912	-0.000207
1429	1.4209e+02	-16.8910	-75.082650	0.000578	5.775823	1.956902	-0.000231
1430	1.4219e+02	-16.9279	-75.300656	0.000547	5.471832	1.853907	-0.000219
1431	1.4228e+02	-16.9824	-75.526735	0.000567	5.674493	1.922570	-0.000227
1432	1.4238e+02	-17.0257	-75.728592	0.000507	5.066511	1.716581	-0.000203
1433	1.4248e+02	-17.0578	-75.991006	0.000659	6.586465	2.231555	-0.000264
1434	1.4258e+02	-17.0867	-76.213048	0.000557	5.573162	1.888239	-0.000223
1435	1.4268e+02	-17.1364	-76.443165	0.000578	5.775823	1.956902	-0.000231
1436	1.4278e+02	-17.1733	-76.677319	0.000588	5.877153	1.991233	-0.000235
1437	1.4288e+02	-17.2150	-76.903399	0.000567	5.674493	1.922570	-0.000227
1438	1.4298e+02	-17.2503	-77.089107	0.000466	4.661190	1.579254	-0.000187
1439	1.4308e+02	-17.2920	-77.343446	0.000638	6.383804	2.162891	-0.000256
1440	1.4318e+02	-17.3305	-77.597786	0.000638	6.383804	2.162891	-0.000256
1441	1.4328e+02	-17.3819	-77.807717	0.000527	5.269172	1.785244	-0.000211
1442	1.4338e+02	-17.4091	-77.981314	0.000436	4.357200	1.476259	-0.000174
1443	1.4348e+02	-17.4541	-78.288136	0.000770	7.701097	2.609202	-0.000308
1444	1.4358e+02	-17.4893	-78.522290	0.000588	5.877153	1.991233	-0.000235
1445	1.4368e+02	-17.5343	-78.724147	0.000507	5.066511	1.716581	-0.000203
1446	1.4378e+02	-17.5728	-78.990598	0.000669	6.687795	2.265886	-0.000268
1447	1.4388e+02	-17.6113	-79.212640	0.000557	5.573162	1.888239	-0.000223
1448	1.4398e+02	-17.6546	-79.471017	0.000649	6.485134	2.197223	-0.000260
1449	1.4408e+02	-17.6947	-79.705171	0.000588	5.877153	1.991233	-0.000235
1450	1.4418e+02	-17.7252	-79.959510	0.000638	6.383804	2.162891	-0.000256
1451	1.4428e+02	-17.7733	-80.201739	0.000608	6.079814	2.059897	-0.000243
1452	1.4437e+02	-17.8230	-80.407632	0.000517	5.167842	1.750912	-0.000207
1453	1.4447e+02	-17.8423	-80.686195	0.000699	6.991786	2.368881	-0.000280
1454	1.4457e+02	-17.8936	-80.936497	0.000628	6.282474	2.128560	-0.000252
1455	1.4467e+02	-17.9369	-81.206985	0.000679	6.789125	2.300218	-0.000272
1456	1.4477e+02	-17.9722	-81.433065	0.000567	5.674493	1.922570	-0.000227
1457	1.4487e+02	-18.0203	-81.691442	0.000649	6.485134	2.197223	-0.000260
1458	1.4497e+02	-18.0540	-81.961930	0.000679	6.789125	2.300218	-0.000272
1459	1.4507e+02	-18.0909	-82.252604	0.000730	7.295776	2.471876	-0.000292
1460	1.4517e+02	-18.1262	-82.462535	0.000527	5.269172	1.785244	-0.000211
1461	1.4527e+02	-18.1615	-82.749171	0.000719	7.194446	2.437544	-0.000288
1462	1.4537e+02	-18.2032	-83.031771	0.000709	7.093116	2.403213	-0.000284
1463	1.4547e+02	-18.2610	-83.302259	0.000679	6.789125	2.300218	-0.000272
1464	1.4557e+02	-18.2883	-83.540450	0.000598	5.978483	2.025565	-0.000239
1465	1.4567e+02	-18.3187	-83.802864	0.000659	6.586465	2.231555	-0.000264
1466	1.4577e+02	-18.3701	-84.125835	0.000811	8.106418	2.746529	-0.000325
1467	1.4587e+02	-18.4118	-84.380174	0.000638	6.383804	2.162891	-0.000256
1468	1.4597e+02	-18.4551	-84.634514	0.000638	6.383804	2.162891	-0.000256
1469	1.4607e+02	-18.4952	-84.933262	0.000750	7.498437	2.540539	-0.000300
1470	1.4617e+02	-18.5369	-85.215861	0.000709	7.093116	2.403213	-0.000284
1471	1.4626e+02	-18.5722	-85.462126	0.000618	6.181144	2.094228	-0.000248
1472	1.4636e+02	-18.6043	-85.752800	0.000730	7.295776	2.471876	-0.000292
1473	1.4646e+02	-18.6508	-86.039437	0.000719	7.194446	2.437544	-0.000288
1474	1.4656e+02	-18.6909	-86.305888	0.000669	6.687795	2.265886	-0.000268
1475	1.4666e+02	-18.7214	-86.624822	0.000801	8.005088	2.712197	-0.000321
1476	1.4676e+02	-18.7615	-86.911458	0.000719	7.194446	2.437544	-0.000288
1477	1.4686e+02	-18.8144	-87.194058	0.000709	7.093116	2.403213	-0.000284
1478	1.4696e+02	-18.8513	-87.508954	0.000790	7.903758	2.677866	-0.000316
1479	1.4706e+02	-18.8850	-87.795591	0.000719	7.194446	2.437544	-0.000288
1480	1.4716e+02	-18.9267	-88.102413	0.000770	7.701097	2.609202	-0.000308
1481	1.4726e+02	-18.9652	-88.397124	0.000740	7.397107	2.506208	-0.000296
1482	1.4736e+02	-19.0037	-88.675686	0.000699	6.991786	2.368881	-0.000280
1483	1.4746e+02	-19.0519	-89.014806	0.000851	8.511739	2.883855	-0.000341
1484	1.4756e+02	-19.0888	-89.301443	0.000719	7.194446	2.437544	-0.000288
1485	1.4766e+02	-19.1337	-89.580005	0.000699	6.991786	2.368881	-0.000280
1486	1.4776e+02	-19.1674	-89.907013	0.000821	8.207748	2.780860	-0.000329
1487	1.4786e+02	-19.2107	-90.262281	0.000892	8.917060	3.021182	-0.000357
1488	1.4796e+02	-19.2460	-90.585252	0.000811	8.106418	2.746529	-0.000325
1489	1.4806e+02	-19.2941	-90.900148	0.000790	7.903758	2.677866	-0.000316
1490	1.4816e+02	-19.3278	-91.251379	0.000882	8.815730	2.986850	-0.000353
1491	1.4825e+02	-19.3727	-91.509756	0.000649	6.485134	2.197223	-0.000260
1492	1.4835e+02	-19.4000	-91.836764	0.000821	8.207748	2.780860	-0.000329
1493	1.4845e+02	-19.4513	-92.208180	0.000932	9.322381	3.158508	-0.000373
1494	1.4855e+02	-19.4674	-92.498854	0.000730	7.295776	2.471876	-0.000292
1495	1.4865e+02	-19.5315	-92.833936	0.000841	8.410409	2.849524	-0.000337
1496	1.4875e+02	-19.5524	-93.156907	0.000811	8.106418	2.746529	-0.000325
1497	1.4885e+02	-19.6053	-93.500064	0.000861	8.613069	2.918187	-0.000345
1498	1.4895e+02	-19.6422	-93.839183	0.000851	8.511739	2.883855	-0.000341
1499	1.4905e+02	-19.6743	-94.186377	0.000871	8.714399	2.952518	-0.000349
1500	1.4915e+02	-19.7256	-94.509348	0.000811	8.106418	2.746529	-0.000325
1501	1.4925e+02	-19.7690	-94.884801	0.000942	9.423711	3.192840	-0.000377
1502	1.4935e+02	-19.7994	-95.211809	0.000821	8.207748	2.780860	-0.000329
1503	1.4945e+02	-19.8428	-95.546892	0.000841	8.410409	2.849524	-0.000337
1504	1.4955e+02	-19.8813	-95.934457	0.000973	9.727702	3.295835	-0.000390
1505	1.4965e+02	-19.9198	-96.269539	0.000841	8.410409	2.849524	-0.000337
1506	1.4975e+02	-19.9695	-96.628844	0.000902	9.018390	3.055513	-0.000361
1507	1.4985e+02	-20.0112	-96.988149	0.000902	9.018390	3.055513	-0.000361
1508	1.4995e+02	-19.9631	-97.121374	-0.000334	-3.343897	-1.132943	-0.000134
1509	1.5005e+02	-19.9230	-97.218266	-0.000243	-2.431925	-0.823959	-0.000097
1510	1.5015e+02	-19.8813	-97.339380	-0.000304	-3.039907	-1.029948	-0.000122
1511	1.5025e+02	-19.8444	-97.440308	-0.000253	-2.533256	-0.858290	-0.000101
1512	1.5034e+02	-19.7962	-97.488754	-0.000122	-1.215963	-0.411979	-0.000049
1513	1.5044e+02	-19.7625	-97.605831	-0.000294	-2.938577	-0.995617	-0.000118
1514	1.5054e+02	-19.7273	-97.605831	0.000000	0.000000	0.000000	0.000000
1515	1.5064e+02	-19.6855	-97.666388	-0.000152	-1.519953	-0.514974	-0.000061
1516	1.5074e+02	-19.6454	-97.678499	-0.000030	-0.303991	-0.102995	-0.000012
1517	1.5084e+02	-19.6182	-97.706759	-0.000071	-0.709312	-0.240321	-0.000028
1518	1.5094e+02	-19.5604	-97.767316	-0.000152	-1.519953	-0.514974	-0.000061
1519	1.5104e+02	-19.5267	-97.795576	-0.000071	-0.709312	-0.240321	-0.000028
1520	1.5114e+02	-19.4850	-97.783465	0.000030	0.303991	0.102995	0.000012
1521	1.5124e+02	-19.4465	-97.844022	-0.000152	-1.519953	-0.514974	-0.000061
1522	1.5134e+02	-19.4032	-97.775390	0.000172	1.722614	0.583637	0.000069
1523	1.5144e+02	-19.3631	-97.815762	-0.000101	-1.013302	-0.343316	-0.000041
1524	1.5154e+02	-19.3262	-97.799613	0.000041	0.405321	0.137326	0.000016
1525	1.5164e+02	-19.2797	-97.775390	0.000061	0.607981	0.205990	0.000024
1526	1.5174e+02	-19.2508	-97.783465	-0.000020	-0.202660	-0.068663	-0.000008
1527	1.5184e+02	-19.2091	-97.759242	0.000061	0.607981	0.205990	0.000024
1528	1.5194e+02	-19.1642	-97.722908	0.000091	0.911972	0.308984	0.000037
1529	1.5204e+02	-19.1305	-97.726945	-0.000010	-0.101330	-0.034332	-0.000004
1530	1.5214e+02	-19.0807	-97.694648	0.000081	0.810642	0.274653	0.000032
1531	1.5224e+02	-19.0438	-97.630054	0.000162	1.621284	0.549306	0.000065
1532	1.5233e+02	-19.0021	-97.601794	0.000071	0.709312	0.240321	0.000028
1533	1.5243e+02	-18.9765	-97.541237	0.000152	1.519953	0.514974	0.000061
1534	1.5253e+02	-18.9283	-97.537199	0.000010	0.101330	0.034332	0.000004
1535	1.5263e+02	-18.8850	-97.512977	0.000061	0.607981	0.205990	0.000024
1536	1.5273e+02	-18.8481	-97.464531	0.000122	1.215963	0.411979	0.000049
1537	1.5283e+02	-18.8193	-97.387825	0.000193	1.925274	0.652301	0.000077
1538	1.5293e+02	-18.7615	-97.339380	0.000122	1.215963	0.411979	0.000049
1539	1.5303e+02	-18.7294	-97.230377	0.000274	2.735916	0.926953	0.000110
1540	1.5313e+02	-18.6829	-97.234414	-0.000010	-0.101330	-0.034332	-0.000004
1541	1.5323e+02	-18.6604	-97.153672	0.000203	2.026605	0.686632	0.000081
1542	1.5333e+02	-18.6043	-97.097152	0.000142	1.418623	0.480643	0.000057
1543	1.5343e+02	-18.5722	-97.036595	0.000152	1.519953	0.514974	0.000061
1544	1.5353e+02	-18.5289	-97.004298	0.000081	0.810642	0.274653	0.000032
1545	1.5363e+02	-18.4968	-96.899332	0.000263	2.634586	0.892622	0.000105
1546	1.5373e+02	-18.4487	-96.867035	0.000081	0.810642	0.274653	0.000032
1547	1.5383e+02	-18.4054	-96.770144	0.000243	2.431925	0.823959	0.000097
1548	1.5393e+02	-18.3717	-96.689401	0.000203	2.026605	0.686632	0.000081
1549	1.5403e+02	-18.3332	-96.628844	0.000152	1.519953	0.514974	0.000061
1550	1.5413e+02	-18.2947	-96.507730	0.000304	3.039907	1.029948	0.000122
1551	1.5422e+02	-18.2514	-96.487544	0.000051	0.506651	0.171658	0.000020
1552	1.5432e+02	-18.2048	-96.418913	0.000172	1.722614	0.583637	0.000069
1553	1.5442e+02	-18.1663	-96.338170	0.000203	2.026605	0.686632	0.000081
1554	1.5452e+02	-18.1310	-96.237242	0.000253	2.533256	0.858290	0.000101
1555	1.5462e+02	-18.0925	-96.168610	0.000172	1.722614	0.583637	0.000069
1556	1.5472e+02	-18.0524	-96.116128	0.000132	1.317293	0.446311	0.000053
1557	1.5482e+02	-18.0139	-96.015199	0.000253	2.533256	0.858290	0.000101
1558	1.5492e+02	-17.9674	-95.958679	0.000142	1.418623	0.480643	0.000057
1559	1.5502e+02	-17.9337	-95.849677	0.000274	2.735916	0.926953	0.000110
1560	1.5512e+02	-17.8936	-95.785083	0.000162	1.621284	0.549306	0.000065
1561	1.5522e+02	-17.8535	-95.724525	0.000152	1.519953	0.514974	0.000061
1562	1.5532e+02	-17.8134	-95.615523	0.000274	2.735916	0.926953	0.000110
1563	1.5542e+02	-17.7797	-95.550929	0.000162	1.621284	0.549306	0.000065
1564	1.5552e+02	-17.7220	-95.417703	0.000334	3.343897	1.132943	0.000134
1565	1.5562e+02	-17.6995	-95.369258	0.000122	1.215963	0.411979	0.000049
1566	1.5572e+02	-17.6498	-95.276403	0.000233	2.330595	0.789627	0.000093
1567	1.5582e+02	-17.6113	-95.187586	0.000223	2.229265	0.755295	0.000089
1568	1.5592e+02	-17.5712	-95.070509	0.000294	2.938577	0.995617	0.000118
1569	1.5602e+02	-17.5278	-95.009952	0.000152	1.519953	0.514974	0.000061
1570	1.5612e+02	-17.4942	-94.896913	0.000284	2.837246	0.961285	0.000114
1571	1.5622e+02	-17.4621	-94.812133	0.000213	2.127935	0.720964	0.000085
1572	1.5631e+02	-17.4107	-94.695056	0.000294	2.938577	0.995617	0.000118
1573	1.5641e+02	-17.3706	-94.630462	0.000162	1.621284	0.549306	0.000065
1574	1.5651e+02	-17.3289	-94.521459	0.000274	2.735916	0.926953	0.000110
1575	1.5661e+02	-17.2984	-94.428605	0.000233	2.330595	0.789627	0.000093
1576	1.5671e+02	-17.2567	-94.323639	0.000263	2.634586	0.892622	0.000105
1577	1.5681e+02	-17.2134	-94.242897	0.000203	2.026605	0.686632	0.000081
1578	1.5691e+02	-17.1717	-94.166191	0.000193	1.925274	0.652301	0.000077
1579	1.5701e+02	-17.1412	-94.085448	0.000203	2.026605	0.686632	0.000081
1580	1.5711e+02	-17.0963	-93.911852	0.000436	4.357200	1.476259	0.000174
1581	1.5721e+02	-17.0434	-93.806886	0.000263	2.634586	0.892622	0.000105
1582	1.5731e+02	-17.0145	-93.762478	0.000111	1.114632	0.377648	0.000045
1583	1.5741e+02	-16.9776	-93.669623	0.000233	2.330595	0.789627	0.000093
1584	1.5751e+02	-16.9311	-93.552546	0.000294	2.938577	0.995617	0.000118
1585	1.5761e+02	-16.8974	-93.431432	0.000304	3.039907	1.029948	0.000122
1586	1.5771e+02	-16.8509	-93.342615	0.000223	2.229265	0.755295	0.000089
1587	1.5781e+02	-16.8140	-93.278021	0.000162	1.621284	0.549306	0.000065
1588	1.5791e+02	-16.7755	-93.152870	0.000314	3.141237	1.064280	0.000126
1589	1.5801e+02	-16.7370	-93.060016	0.000233	2.330595	0.789627	0.000093
1590	1.5811e+02	-16.6953	-92.918716	0.000355	3.546558	1.201606	0.000142
1591	1.5821e+02	-16.6503	-92.817788	0.000253	2.533256	0.858290	0.000101
1592	1.5830e+02	-16.6070	-92.712822	0.000263	2.634586	0.892622	0.000105
1593	1.5840e+02	-16.5830	-92.648228	0.000162	1.621284	0.549306	0.000065
1594	1.5850e+02	-16.5396	-92.490780	0.000395	3.951879	1.338933	0.000158
1595	1.5860e+02	-16.5043	-92.381777	0.000274	2.735916	0.926953	0.000110
1596	1.5870e+02	-16.4610	-92.301034	0.000203	2.026605	0.686632	0.000081
1597	1.5880e+02	-16.4177	-92.212217	0.000223	2.229265	0.755295	0.000089
1598	1.5890e+02	-16.3872	-92.091103	0.000304	3.039907	1.029948	0.000122
1599	1.5900e+02	-16.3327	-91.990175	0.000253	2.533256	0.858290	0.000101
1600	1.5910e+02	-16.2894	-91.877135	0.000284	2.837246	0.961285	0.000114
1601	1.5920e+02	-16.2637	-91.804467	0.000182	1.823944	0.617969	0.000073
1602	1.5930e+02	-16.2204	-91.691427	0.000284	2.837246	0.961285	0.000114
1603	1.5940e+02	-16.1707	-91.529941	0.000405	4.053209	1.373264	0.000162
1604	1.5950e+02	-16.1402	-91.424976	0.000263	2.634586	0.892622	0.000105
1605	1.5960e+02	-16.1017	-91.336159	0.000223	2.229265	0.755295	0.000089
1606	1.5970e+02	-16.0487	-91.215045	0.000304	3.039907	1.029948	0.000122
1607	1.5980e+02	-16.0263	-91.122191	0.000233	2.330595	0.789627	0.000093
1608	1.5990e+02	-15.9830	-91.005114	0.000294	2.938577	0.995617	0.000118
1609	1.6000e+02	-15.9493	-90.892074	0.000284	2.837246	0.961285	0.000114
1610	1.6010e+02	-15.8963	-90.762886	0.000324	3.242567	1.098612	0.000130
1611	1.6019e+02	-15.8578	-90.670032	0.000233	2.330595	0.789627	0.000093
1612	1.6029e+02	-15.8177	-90.520658	0.000375	3.749218	1.270270	0.000150
1613	1.6039e+02	-15.7873	-90.472212	0.000122	1.215963	0.411979	0.000049
1614	1.6049e+02	-15.7423	-90.326875	0.000365	3.647888	1.235938	0.000146
1615	1.6059e+02	-15.7022	-90.282467	0.000111	1.114632	0.377648	0.000045
1616	1.6069e+02	-15.6573	-90.096758	0.000466	4.661190	1.579254	0.000187
1617	1.6079e+02	-15.6236	-89.959496	0.000345	3.445228	1.167275	0.000138
1618	1.6089e+02	-15.5771	-89.862604	0.000243	2.431925	0.823959	0.000097
1619	1.6099e+02	-15.5466	-89.777825	0.000213	2.127935	0.720964	0.000085
1620	1.6109e+02	-15.4953	-89.652673	0.000314	3.141237	1.064280	0.000126
1621	1.6119e+02	-15.4648	-89.559819	0.000233	2.330595	0.789627	0.000093
1622	1.6129e+02	-15.4199	-89.446779	0.000284	2.837246	0.961285	0.000114
1623	1.6139e+02	-15.3798	-89.333740	0.000284	2.837246	0.961285	0.000114
1624	1.6149e+02	-15.3381	-89.204551	0.000324	3.242567	1.098612	0.000130
1625	1.6159e+02	-15.3044	-89.099586	0.000263	2.634586	0.892622	0.000105
1626	1.6169e+02	-15.2643	-88.982509	0.000294	2.938577	0.995617	0.000118
1627	1.6179e+02	-15.2145	-88.905803	0.000193	1.925274	0.652301	0.000077
1628	1.6189e+02	-15.1857	-88.728169	0.000446	4.458530	1.510591	0.000179
1629	1.6199e+02	-15.1359	-88.643389	0.000213	2.127935	0.720964	0.000085
1630	1.6209e+02	-15.1006	-88.534387	0.000274	2.735916	0.926953	0.000110
1631	1.6219e+02	-15.0621	-88.368864	0.000415	4.154539	1.407596	0.000166
1632	1.6228e+02	-15.0204	-88.292159	0.000193	1.925274	0.652301	0.000077
1633	1.6238e+02	-14.9819	-88.199304	0.000233	2.330595	0.789627	0.000093
1634	1.6248e+02	-14.9418	-88.070116	0.000324	3.242567	1.098612	0.000130
1635	1.6258e+02	-14.9081	-87.908631	0.000405	4.053209	1.373264	0.000162
1636	1.6268e+02	-14.8664	-87.803665	0.000263	2.634586	0.892622	0.000105
1637	1.6278e+02	-14.8199	-87.706774	0.000243	2.431925	0.823959	0.000097
1638	1.6288e+02	-14.7830	-87.585660	0.000304	3.039907	1.029948	0.000122
1639	1.6298e+02	-14.7333	-87.440323	0.000365	3.647888	1.235938	0.000146
1640	1.6308e+02	-14.7140	-87.359580	0.000203	2.026605	0.686632	0.000081
1641	1.6318e+02	-14.6675	-87.181946	0.000446	4.458530	1.510591	0.000179
1642	1.6328e+02	-14.6226	-87.064869	0.000294	2.938577	0.995617	0.000118
1643	1.6338e+02	-14.5873	-86.951830	0.000284	2.837246	0.961285	0.000114
1644	1.6348e+02	-14.5360	-86.822641	0.000324	3.242567	1.098612	0.000130
1645	1.6358e+02	-14.5087	-86.770158	0.000132	1.317293	0.446311	0.000053
1646	1.6368e+02	-14.4718	-86.604636	0.000415	4.154539	1.407596	0.000166
1647	1.6378e+02	-14.4237	-86.475448	0.000324	3.242567	1.098612	0.000130
1648	1.6388e+02	-14.3948	-86.338185	0.000345	3.445228	1.167275	0.000138
1649	1.6398e+02	-14.3450	-86.249368	0.000223	2.229265	0.755295	0.000089
1650	1.6408e+02	-14.3130	-86.132291	0.000294	2.938577	0.995617	0.000118
1651	1.6418e+02	-14.2664	-85.946583	0.000466	4.661190	1.579254	0.000187
1652	1.6427e+02	-14.2376	-85.813357	0.000334	3.343897	1.132943	0.000134
1653	1.6437e+02	-14.1814	-85.716466	0.000243	2.431925	0.823959	0.000097
1654	1.6447e+02	-14.1397	-85.607463	0.000274	2.735916	0.926953	0.000110
1655	1.6457e+02	-14.1012	-85.506535	0.000253	2.533256	0.858290	0.000101
1656	1.6467e+02	-14.0739	-85.365235	0.000355	3.546558	1.201606	0.000142
1657	1.6477e+02	-14.0354	-85.219898	0.000365	3.647888	1.235938	0.000146
1658	1.6487e+02	-13.9889	-85.094747	0.000314	3.141237	1.064280	0.000126
1659	1.6497e+02	-13.9504	-84.997856	0.000243	2.431925	0.823959	0.000097
1660	1.6507e+02	-13.8975	-84.872705	0.000314	3.141237	1.064280	0.000126
1661	1.6517e+02	-13.8734	-84.703145	0.000426	4.255870	1.441928	0.000170
1662	1.6527e+02	-13.8221	-84.610291	0.000233	2.330595	0.789627	0.000093
1663	1.6537e+02	-13.7836	-84.485140	0.000314	3.141237	1.064280	0.000126
1664	1.6547e+02	-13.7435	-84.347877	0.000345	3.445228	1.167275	0.000138
1665	1.6557e+02	-13.7050	-84.246949	0.000253	2.533256	0.858290	0.000101
1666	1.6567e+02	-13.6649	-84.113723	0.000334	3.343897	1.132943	0.000134
1667	1.6577e+02	-13.6280	-83.972423	0.000355	3.546558	1.201606	0.000142
1668	1.6587e+02	-13.5879	-83.839198	0.000334	3.343897	1.132943	0.000134
1669	1.6597e+02	-13.5510	-83.705972	0.000334	3.343897	1.132943	0.000134
1670	1.6607e+02	-13.5076	-83.601007	0.000263	2.634586	0.892622	0.000105
1671	1.6616e+02	-13.4804	-83.496041	0.000263	2.634586	0.892622	0.000105
1672	1.6626e+02	-13.4290	-83.362816	0.000334	3.343897	1.132943	0.000134
1673	1.6636e+02	-13.3873	-83.213442	0.000375	3.749218	1.270270	0.000150
1674	1.6646e+02	-13.3520	-83.104439	0.000274	2.735916	0.926953	0.000110
1675	1.6656e+02	-13.3039	-82.959102	0.000365	3.647888	1.235938	0.000146
1676	1.6666e+02	-13.2686	-82.846062	0.000284	2.837246	0.961285	0.000114
1677	1.6676e+02	-13.2317	-82.708800	0.000345	3.445228	1.167275	0.000138
1678	1.6686e+02	-13.1916	-82.624020	0.000213	2.127935	0.720964	0.000085
1679	1.6696e+02	-13.1467	-82.466572	0.000395	3.951879	1.338933	0.000158
1680	1.6706e+02	-13.1098	-82.337383	0.000324	3.242567	1.098612	0.000130
1681	1.6716e+02	-13.0777	-82.216269	0.000304	3.039907	1.029948	0.000122
1682	1.6726e+02	-13.0360	-82.079007	0.000345	3.445228	1.167275	0.000138
1683	1.6736e+02	-12.9879	-81.961930	0.000294	2.938577	0.995617	0.000118
1684	1.6746e+02	-12.9526	-81.824667	0.000345	3.445228	1.167275	0.000138
1685	1.6756e+02	-12.9061	-81.711627	0.000284	2.837246	0.961285	0.000114
1686	1.6766e+02	-12.8724	-81.546105	0.000415	4.154539	1.407596	0.000166
1687	1.6776e+02	-12.8355	-81.453251	0.000233	2.330595	0.789627	0.000093
1688	1.6786e+02	-12.7970	-81.299839	0.000385	3.850549	1.304601	0.000154
1689	1.6796e+02	-12.7633	-81.190837	0.000274	2.735916	0.926953	0.000110
1690	1.6806e+02	-12.7119	-81.077797	0.000284	2.837246	0.961285	0.000114
1691	1.6816e+02	-12.6766	-80.912274	0.000415	4.154539	1.407596	0.000166
1692	1.6825e+02	-12.6317	-80.783086	0.000324	3.242567	1.098612	0.000130
1693	1.6835e+02	-12.5836	-80.653898	0.000324	3.242567	1.098612	0.000130
1694	1.6845e+02	-12.5547	-80.544895	0.000274	2.735916	0.926953	0.000110
1695	1.6855e+02	-12.5146	-80.407632	0.000345	3.445228	1.167275	0.000138
1696	1.6865e+02	-12.4777	-80.266333	0.000355	3.546558	1.201606	0.000142
1697	1.6875e+02	-12.4376	-80.129070	0.000345	3.445228	1.167275	0.000138
1698	1.6885e+02	-12.3863	-79.999882	0.000324	3.242567	1.098612	0.000130
1699	1.6895e+02	-12.3558	-79.878768	0.000304	3.039907	1.029948	0.000122
1700	1.6905e+02	-12.3109	-79.749579	0.000324	3.242567	1.098612	0.000130
1701	1.6915e+02	-12.2708	-79.596168	0.000385	3.850549	1.304601	0.000154
1702	1.6925e+02	-12.2451	-79.466980	0.000324	3.242567	1.098612	0.000130
1703	1.6935e+02	-12.1890	-79.357977	0.000274	2.735916	0.926953	0.000110
1704	1.6945e+02	-12.1585	-79.192455	0.000415	4.154539	1.407596	0.000166
1705	1.6955e+02	-12.1071	-79.030969	0.000405	4.053209	1.373264	0.000162
1706	1.6965e+02	-12.0719	-78.938115	0.000233	2.330595	0.789627	0.000093
1707	1.6975e+02	-12.0350	-78.849298	0.000223	2.229265	0.755295	0.000089
1708	1.6985e+02	-11.9997	-78.635330	0.000537	5.370502	1.819575	0.000215
1709	1.6995e+02	-11.9580	-78.554587	0.000203	2.026605	0.686632	0.000081
1710	1.7005e+02	-11.9162	-78.372916	0.000456	4.559860	1.544922	0.000183
1711	1.7015e+02	-11.8858	-78.263913	0.000274	2.735916	0.926953	0.000110
1712	1.7024e+02	-11.8392	-78.086279	0.000446	4.458530	1.510591	0.000179
1713	1.7034e+02	-11.8007	-77.969203	0.000294	2.938577	0.995617	0.000118
1714	1.7044e+02	-11.7687	-77.852126	0.000294	2.938577	0.995617	0.000118
1715	1.7054e+02	-11.7157	-77.686603	0.000415	4.154539	1.407596	0.000166
1716	1.7064e+02	-11.6660	-77.517043	0.000426	4.255870	1.441928	0.000170
1717	1.7074e+02	-11.6291	-77.399966	0.000294	2.938577	0.995617	0.000118
1718	1.7084e+02	-11.5842	-77.274815	0.000314	3.141237	1.064280	0.000126
1719	1.7094e+02	-11.5601	-77.181961	0.000233	2.330595	0.789627	0.000093
1720	1.7104e+02	-11.5184	-76.992216	0.000476	4.762521	1.613586	0.000191
1721	1.7114e+02	-11.4703	-76.939733	0.000132	1.317293	0.446311	0.000053
1722	1.7124e+02	-11.4318	-76.766136	0.000436	4.357200	1.476259	0.000174
1723	1.7134e+02	-11.3965	-76.632911	0.000334	3.343897	1.132943	0.000134
1724	1.7144e+02	-11.3532	-76.495648	0.000345	3.445228	1.167275	0.000138
1725	1.7154e+02	-11.3147	-76.338200	0.000395	3.951879	1.338933	0.000158
1726	1.7164e+02	-11.2697	-76.196900	0.000355	3.546558	1.201606	0.000142
1727	1.7174e+02	-11.2441	-76.047526	0.000375	3.749218	1.270270	0.000150
1728	1.7184e+02	-11.1975	-75.938523	0.000274	2.735916	0.926953	0.000110
1729	1.7194e+02	-11.1574	-75.849706	0.000223	2.229265	0.755295	0.000089
1730	1.7204e+02	-11.1286	-75.672072	0.000446	4.458530	1.510591	0.000179
1731	1.7213e+02	-11.0772	-75.550958	0.000304	3.039907	1.029948	0.000122
1732	1.7223e+02	-11.0435	-75.393510	0.000395	3.951879	1.338933	0.000158
1733	1.7233e+02	-10.9938	-75.227987	0.000415	4.154539	1.407596	0.000166
1734	1.7243e+02	-10.9569	-75.123022	0.000263	2.634586	0.892622	0.000105
1735	1.7253e+02	-10.9072	-74.965574	0.000395	3.951879	1.338933	0.000158
1736	1.7263e+02	-10.8815	-74.828311	0.000345	3.445228	1.167275	0.000138
1737	1.7273e+02	-10.8398	-74.699123	0.000324	3.242567	1.098612	0.000130
1738	1.7283e+02	-10.8061	-74.533600	0.000415	4.154539	1.407596	0.000166
1739	1.7293e+02	-10.7628	-74.392300	0.000355	3.546558	1.201606	0.000142
1740	1.7303e+02	-10.7259	-74.295409	0.000243	2.431925	0.823959	0.000097
1741	1.7313e+02	-10.6794	-74.121812	0.000436	4.357200	1.476259	0.000174
1742	1.7323e+02	-10.6409	-73.952252	0.000426	4.255870	1.441928	0.000170
1743	1.7333e+02	-10.6056	-73.798841	0.000385	3.850549	1.304601	0.000154
1744	1.7343e+02	-10.5591	-73.681764	0.000294	2.938577	0.995617	0.000118
1745	1.7353e+02	-10.5238	-73.524316	0.000395	3.951879	1.338933	0.000158
1746	1.7363e+02	-10.4837	-73.407239	0.000294	2.938577	0.995617	0.000118
1747	1.7373e+02	-10.4403	-73.249791	0.000395	3.951879	1.338933	0.000158
1748	1.7383e+02	-10.4034	-73.120602	0.000324	3.242567	1.098612	0.000130
1749	1.7393e+02	-10.3617	-73.015637	0.000263	2.634586	0.892622	0.000105
1750	1.7403e+02	-10.3264	-72.793594	0.000557	5.573162	1.888239	0.000223
1751	1.7413e+02	-10.2831	-72.700740	0.000233	2.330595	0.789627	0.000093
1752	1.7422e+02	-10.2430	-72.519069	0.000456	4.559860	1.544922	0.000183
1753	1.7432e+02	-10.1901	-72.397955	0.000304	3.039907	1.029948	0.000122
1754	1.7442e+02	-10.1596	-72.248581	0.000375	3.749218	1.270270	0.000150
1755	1.7452e+02	-10.1195	-72.111319	0.000345	3.445228	1.167275	0.000138
1756	1.7462e+02	-10.0890	-71.929647	0.000456	4.559860	1.544922	0.000183
1757	1.7472e+02	-10.0377	-71.804496	0.000314	3.141237	1.064280	0.000126
1758	1.7482e+02	-10.0056	-71.695494	0.000274	2.735916	0.926953	0.000110
1759	1.7492e+02	-9.9623	-71.509785	0.000466	4.661190	1.579254	0.000187
1760	1.7502e+02	-9.9254	-71.392708	0.000294	2.938577	0.995617	0.000118
1761	1.7512e+02	-9.8741	-71.239297	0.000385	3.850549	1.304601	0.000154
1762	1.7522e+02	-9.8436	-71.033403	0.000517	5.167842	1.750912	0.000207
1763	1.7532e+02	-9.8019	-70.932475	0.000253	2.533256	0.858290	0.000101
1764	1.7542e+02	-9.7585	-70.738692	0.000486	4.863851	1.647917	0.000195
1765	1.7552e+02	-9.7281	-70.649875	0.000223	2.229265	0.755295	0.000089
1766	1.7562e+02	-9.6848	-70.496464	0.000385	3.850549	1.304601	0.000154
1767	1.7572e+02	-9.6446	-70.310756	0.000466	4.661190	1.579254	0.000187
1768	1.7582e+02	-9.6094	-70.185605	0.000314	3.141237	1.064280	0.000126
1769	1.7592e+02	-9.5725	-70.040268	0.000365	3.647888	1.235938	0.000146
1770	1.7602e+02	-9.5275	-69.898968	0.000355	3.546558	1.201606	0.000142
1771	1.7612e+02	-9.4746	-69.737483	0.000405	4.053209	1.373264	0.000162
1772	1.7621e+02	-9.4409	-69.616369	0.000304	3.039907	1.029948	0.000122
1773	1.7631e+02	-9.4152	-69.442772	0.000436	4.357200	1.476259	0.000174
1774	1.7641e+02	-9.3655	-69.321658	0.000304	3.039907	1.029948	0.000122
1775	1.7651e+02	-9.3238	-69.144024	0.000446	4.458530	1.510591	0.000179
1776	1.7661e+02	-9.2853	-68.966390	0.000446	4.458530	1.510591	0.000179
1777	1.7671e+02	-9.2564	-68.853350	0.000284	2.837246	0.961285	0.000114
1778	1.7681e+02	-9.2051	-68.703976	0.000375	3.749218	1.270270	0.000150
1779	1.7691e+02	-9.1730	-68.538453	0.000415	4.154539	1.407596	0.000166
1780	1.7701e+02	-9.1217	-68.344671	0.000486	4.863851	1.647917	0.000195
1781	1.7711e+02	-9.0848	-68.219520	0.000314	3.141237	1.064280	0.000126
1782	1.7721e+02	-9.0431	-68.070146	0.000375	3.749218	1.270270	0.000150
1783	1.7731e+02	-8.9997	-67.928846	0.000355	3.546558	1.201606	0.000142
1784	1.7741e+02	-8.9677	-67.739101	0.000476	4.762521	1.613586	0.000191
1785	1.7751e+02	-8.9340	-67.585689	0.000385	3.850549	1.304601	0.000154
1786	1.7761e+02	-8.8874	-67.456501	0.000324	3.242567	1.098612	0.000130
1787	1.7771e+02	-8.8441	-67.307127	0.000375	3.749218	1.270270	0.000150
1788	1.7781e+02	-8.8024	-67.161790	0.000365	3.647888	1.235938	0.000146
1789	1.7791e+02	-8.7687	-67.036639	0.000314	3.141237	1.064280	0.000126
1790	1.7801e+02	-8.7222	-66.810559	0.000567	5.674493	1.922570	0.000227
1791	1.7810e+02	-8.6965	-66.697520	0.000284	2.837246	0.961285	0.000114
1792	1.7820e+02	-8.6452	-66.536034	0.000405	4.053209	1.373264	0.000162
1793	1.7830e+02	-8.6051	-66.338214	0.000497	4.965181	1.682249	0.000199
1794	1.7840e+02	-8.5602	-66.192878	0.000365	3.647888	1.235938	0.000146
1795	1.7850e+02	-8.5281	-66.087912	0.000263	2.634586	0.892622	0.000105
1796	1.7860e+02	-8.4944	-65.926427	0.000405	4.053209	1.373264	0.000162
1797	1.7870e+02	-8.4447	-65.756867	0.000426	4.255870	1.441928	0.000170
1798	1.7880e+02	-8.4078	-65.611530	0.000365	3.647888	1.235938	0.000146
1799	1.7890e+02	-8.3613	-65.441970	0.000426	4.255870	1.441928	0.000170
1800	1.7900e+02	-8.3308	-65.268373	0.000436	4.357200	1.476259	0.000174
1801	1.7910e+02	-8.2859	-65.110925	0.000395	3.951879	1.338933	0.000158
1802	1.7920e+02	-8.2490	-64.977700	0.000334	3.343897	1.132943	0.000134
1803	1.7930e+02	-8.2185	-64.791991	0.000466	4.661190	1.579254	0.000187
1804	1.7940e+02	-8.1704	-64.662803	0.000324	3.242567	1.098612	0.000130
1805	1.7950e+02	-8.1303	-64.493243	0.000426	4.255870	1.441928	0.000170
1806	1.7960e+02	-8.0934	-64.307535	0.000466	4.661190	1.579254	0.000187
1807	1.7970e+02	-8.0613	-64.146050	0.000405	4.053209	1.373264	0.000162
1808	1.7980e+02	-8.0083	-63.948230	0.000497	4.965181	1.682249	0.000199
1809	1.7990e+02	-7.9730	-63.770596	0.000446	4.458530	1.510591	0.000179
1810	1.8000e+02	-7.9265	-63.685816	0.000213	2.127935	0.720964	0.000085
1811	1.8009e+02	-7.8960	-63.492034	0.000486	4.863851	1.647917	0.000195
1812	1.8019e+02	-7.8511	-63.326511	0.000415	4.154539	1.407596	0.000166
1813	1.8029e+02	-7.8142	-63.148877	0.000446	4.458530	1.510591	0.000179
1814	1.8039e+02	-7.7597	-62.959132	0.000476	4.762521	1.613586	0.000191
1815	1.8049e+02	-7.7260	-62.833981	0.000314	3.141237	1.064280	0.000126
1816	1.8059e+02	-7.6923	-62.628087	0.000517	5.167842	1.750912	0.000207
1817	1.8069e+02	-7.6570	-62.474676	0.000385	3.850549	1.304601	0.000154
1818	1.8079e+02	-7.6105	-62.305116	0.000426	4.255870	1.441928	0.000170
1819	1.8089e+02	-7.5672	-62.103259	0.000507	5.066511	1.716581	0.000203
1820	1.8099e+02	-7.5271	-61.970034	0.000334	3.343897	1.132943	0.000134
1821	1.8109e+02	-7.4918	-61.780288	0.000476	4.762521	1.613586	0.000191
1822	1.8119e+02	-7.4565	-61.651100	0.000324	3.242567	1.098612	0.000130
1823	1.8129e+02	-7.4083	-61.457317	0.000486	4.863851	1.647917	0.000195
1824	1.8139e+02	-7.3618	-61.303906	0.000385	3.850549	1.304601	0.000154
1825	1.8149e+02	-7.3329	-61.098012	0.000517	5.167842	1.750912	0.000207
1826	1.8159e+02	-7.2912	-60.936527	0.000405	4.053209	1.373264	0.000162
1827	1.8169e+02	-7.2640	-60.754856	0.000456	4.559860	1.544922	0.000183
1828	1.8179e+02	-7.2046	-60.577222	0.000446	4.458530	1.510591	0.000179
1829	1.8189e+02	-7.1773	-60.448033	0.000324	3.242567	1.098612	0.000130
1830	1.8199e+02	-7.1533	-60.274437	0.000436	4.357200	1.476259	0.000174
1831	1.8209e+02	-7.0907	-60.112951	0.000405	4.053209	1.373264	0.000162
1832	1.8218e+02	-7.0538	-59.947429	0.000415	4.154539	1.407596	0.000166
1833	1.8228e+02	-7.0153	-59.761720	0.000466	4.661190	1.579254	0.000187
1834	1.8238e+02	-6.9720	-59.571975	0.000476	4.762521	1.613586	0.000191
1835	1.8248e+02	-6.9383	-59.422601	0.000375	3.749218	1.270270	0.000150
1836	1.8258e+02	-6.8854	-59.224781	0.000497	4.965181	1.682249	0.000199
1837	1.8268e+02	-6.8613	-59.067333	0.000395	3.951879	1.338933	0.000158
1838	1.8278e+02	-6.8100	-58.905848	0.000405	4.053209	1.373264	0.000162
1839	1.8288e+02	-6.7634	-58.679768	0.000567	5.674493	1.922570	0.000227
1840	1.8298e+02	-6.7298	-58.542505	0.000345	3.445228	1.167275	0.000138
1841	1.8308e+02	-6.7025	-58.308351	0.000588	5.877153	1.991233	0.000235
1842	1.8318e+02	-6.6544	-58.167052	0.000355	3.546558	1.201606	0.000142
1843	1.8328e+02	-6.6094	-58.025752	0.000355	3.546558	1.201606	0.000142
1844	1.8338e+02	-6.5709	-57.840044	0.000466	4.661190	1.579254	0.000187
1845	1.8348e+02	-6.5244	-57.646261	0.000486	4.863851	1.647917	0.000195
1846	1.8358e+02	-6.4939	-57.452479	0.000486	4.863851	1.647917	0.000195
1847	1.8368e+02	-6.4538	-57.303105	0.000375	3.749218	1.270270	0.000150
1848	1.8378e+02	-6.4121	-57.125471	0.000446	4.458530	1.510591	0.000179
1849	1.8388e+02	-6.3736	-56.947837	0.000446	4.458530	1.510591	0.000179
1850	1.8398e+02	-6.3431	-56.733869	0.000537	5.370502	1.819575	0.000215
1851	1.8407e+02	-6.3046	-56.628903	0.000263	2.634586	0.892622	0.000105
1852	1.8417e+02	-6.2629	-56.418972	0.000527	5.269172	1.785244	0.000211
1853	1.8427e+02	-6.2116	-56.237301	0.000456	4.559860	1.544922	0.000183
1854	1.8437e+02	-6.1843	-56.051593	0.000466	4.661190	1.579254	0.000187
1855	1.8447e+02	-6.1410	-55.849736	0.000507	5.066511	1.716581	0.000203
1856	1.8457e+02	-6.1025	-55.655953	0.000486	4.863851	1.647917	0.000195
1857	1.8467e+02	-6.0592	-55.494468	0.000405	4.053209	1.373264	0.000162
1858	1.8477e+02	-6.0271	-55.292611	0.000507	5.066511	1.716581	0.000203
1859	1.8487e+02	-5.9806	-55.131126	0.000405	4.053209	1.373264	0.000162
1860	1.8497e+02	-5.9357	-54.957529	0.000436	4.357200	1.476259	0.000174
1861	1.8507e+02	-5.9100	-54.759709	0.000497	4.965181	1.682249	0.000199
1862	1.8517e+02	-5.8667	-54.569964	0.000476	4.762521	1.613586	0.000191
1863	1.8527e+02	-5.8282	-54.380218	0.000476	4.762521	1.613586	0.000191
1864	1.8537e+02	-5.7913	-54.194510	0.000466	4.661190	1.579254	0.000187
1865	1.8547e+02	-5.7480	-54.037062	0.000395	3.951879	1.338933	0.000158
1866	1.8557e+02	-5.6918	-53.810982	0.000567	5.674493	1.922570	0.000227
1867	1.8567e+02	-5.6581	-53.637385	0.000436	4.357200	1.476259	0.000174
1868	1.8577e+02	-5.6325	-53.443603	0.000486	4.863851	1.647917	0.000195
1869	1.8587e+02	-5.5859	-53.274043	0.000426	4.255870	1.441928	0.000170
1870	1.8597e+02	-5.5458	-53.080261	0.000486	4.863851	1.647917	0.000195
1871	1.8606e+02	-5.5041	-52.850144	0.000578	5.775823	1.956902	0.000231
1872	1.8616e+02	-5.4576	-52.660399	0.000476	4.762521	1.613586	0.000191
1873	1.8626e+02	-5.4239	-52.511025	0.000375	3.749218	1.270270	0.000150
1874	1.8636e+02	-5.3870	-52.293019	0.000547	5.471832	1.853907	0.000219
1875	1.8646e+02	-5.3485	-52.119422	0.000436	4.357200	1.476259	0.000174
1876	1.8656e+02	-5.2988	-51.893343	0.000567	5.674493	1.922570	0.000227
1877	1.8666e+02	-5.2603	-51.723783	0.000426	4.255870	1.441928	0.000170
1878	1.8676e+02	-5.2314	-51.546149	0.000446	4.458530	1.510591	0.000179
1879	1.8686e+02	-5.1865	-51.336218	0.000527	5.269172	1.785244	0.000211
1880	1.8696e+02	-5.1384	-51.122250	0.000537	5.370502	1.819575	0.000215
1881	1.8706e+02	-5.1079	-50.936542	0.000466	4.661190	1.579254	0.000187
1882	1.8716e+02	-5.0630	-50.746796	0.000476	4.762521	1.613586	0.000191
1883	1.8726e+02	-5.0245	-50.561088	0.000466	4.661190	1.579254	0.000187
1884	1.8736e+02	-4.9860	-50.326934	0.000588	5.877153	1.991233	0.000235
1885	1.8746e+02	-4.9442	-50.117003	0.000527	5.269172	1.785244	0.000211
1886	1.8756e+02	-4.9057	-49.955518	0.000405	4.053209	1.373264	0.000162
1887	1.8766e+02	-4.8592	-49.765772	0.000476	4.762521	1.613586	0.000191
1888	1.8776e+02	-4.8223	-49.531618	0.000588	5.877153	1.991233	0.000235
1889	1.8786e+02	-4.7918	-49.366096	0.000415	4.154539	1.407596	0.000166
1890	1.8796e+02	-4.7389	-49.200573	0.000415	4.154539	1.407596	0.000166
1891	1.8806e+02	-4.7036	-48.962382	0.000598	5.978483	2.025565	0.000239
1892	1.8815e+02	-4.6619	-48.792823	0.000426	4.255870	1.441928	0.000170
1893	1.8825e+02	-4.6298	-48.586929	0.000517	5.167842	1.750912	0.000207
1894	1.8835e+02	-4.5849	-48.360849	0.000567	5.674493	1.922570	0.000227
1895	1.8845e+02	-4.5384	-48.171104	0.000476	4.762521	1.613586	0.000191
1896	1.8855e+02	-4.5047	-47.961173	0.000527	5.269172	1.785244	0.000211
1897	1.8865e+02	-4.4726	-47.767390	0.000486	4.863851	1.647917	0.000195
1898	1.8875e+02	-4.4293	-47.521125	0.000618	6.181144	2.094228	0.000248
1899	1.8885e+02	-4.3747	-47.347528	0.000436	4.357200	1.476259	0.000174
1900	1.8895e+02	-4.3427	-47.173931	0.000436	4.357200	1.476259	0.000174
1901	1.8905e+02	-4.2993	-46.927666	0.000618	6.181144	2.094228	0.000248
1902	1.8915e+02	-4.2753	-46.750032	0.000446	4.458530	1.510591	0.000179
1903	1.8925e+02	-4.2207	-46.527989	0.000557	5.573162	1.888239	0.000223
1904	1.8935e+02	-4.1854	-46.330170	0.000497	4.965181	1.682249	0.000199
1905	1.8945e+02	-4.1437	-46.132350	0.000497	4.965181	1.682249	0.000199
1906	1.8955e+02	-4.1197	-45.906270	0.000567	5.674493	1.922570	0.000227
1907	1.8965e+02	-4.0699	-45.716525	0.000476	4.762521	1.613586	0.000191
1908	1.8975e+02	-4.0298	-45.502557	0.000537	5.370502	1.819575	0.000215
1909	1.8985e+02	-3.9913	-45.320886	0.000456	4.559860	1.544922	0.000183
1910	1.8995e+02	-3.9416	-45.123066	0.000497	4.965181	1.682249	0.000199
1911	1.9004e+02	-3.9079	-44.868727	0.000638	6.383804	2.162891	0.000256
1912	1.9014e+02	-3.8630	-44.658796	0.000527	5.269172	1.785244	0.000211
1913	1.9024e+02	-3.8213	-44.452902	0.000517	5.167842	1.750912	0.000207
1914	1.9034e+02	-3.7876	-44.230859	0.000557	5.573162	1.888239	0.000223
1915	1.9044e+02	-3.7507	-44.024965	0.000517	5.167842	1.750912	0.000207
1916	1.9054e+02	-3.7010	-43.815034	0.000527	5.269172	1.785244	0.000211
1917	1.9064e+02	-3.6673	-43.601066	0.000537	5.370502	1.819575	0.000215
1918	1.9074e+02	-3.6320	-43.354801	0.000618	6.181144	2.094228	0.000248
1919	1.9084e+02	-3.5919	-43.140832	0.000537	5.370502	1.819575	0.000215
1920	1.9094e+02	-3.5534	-42.959161	0.000456	4.559860	1.544922	0.000183
1921	1.9104e+02	-3.5052	-42.720970	0.000598	5.978483	2.025565	0.000239
1922	1.9114e+02	-3.4796	-42.523151	0.000497	4.965181	1.682249	0.000199
1923	1.9124e+02	-3.4347	-42.288997	0.000588	5.877153	1.991233	0.000235
1924	1.9134e+02	-3.3817	-42.062917	0.000567	5.674493	1.922570	0.000227
1925	1.9144e+02	-3.3528	-41.816652	0.000618	6.181144	2.094228	0.000248
1926	1.9154e+02	-3.3111	-41.626907	0.000476	4.762521	1.613586	0.000191
1927	1.9164e+02	-3.2662	-41.396790	0.000578	5.775823	1.956902	0.000231
1928	1.9174e+02	-3.2309	-41.174747	0.000557	5.573162	1.888239	0.000223
1929	1.9184e+02	-3.1956	-40.960779	0.000537	5.370502	1.819575	0.000215
1930	1.9194e+02	-3.1571	-40.714514	0.000618	6.181144	2.094228	0.000248
1931	1.9203e+02	-3.1122	-40.516694	0.000497	4.965181	1.682249	0.000199
1932	1.9213e+02	-3.0753	-40.294652	0.000557	5.573162	1.888239	0.000223
1933	1.9223e+02	-3.0208	-40.052424	0.000608	6.079814	2.059897	0.000243
1934	1.9233e+02	-2.9887	-39.814233	0.000598	5.978483	2.025565	0.000239
1935	1.9243e+02	-2.9566	-39.612376	0.000507	5.066511	1.716581	0.000203
1936	1.9253e+02	-2.9101	-39.337851	0.000689	6.890455	2.334549	0.000276
1937	1.9263e+02	-2.8684	-39.107734	0.000578	5.775823	1.956902	0.000231
1938	1.9273e+02	-2.8363	-38.905877	0.000507	5.066511	1.716581	0.000203
1939	1.9283e+02	-2.7946	-38.659612	0.000618	6.181144	2.094228	0.000248
1940	1.9293e+02	-2.7529	-38.481978	0.000446	4.458530	1.510591	0.000179
1941	1.9303e+02	-2.7160	-38.199378	0.000709	7.093116	2.403213	0.000284
1942	1.9313e+02	-2.6710	-37.961187	0.000598	5.978483	2.025565	0.000239
1943	1.9323e+02	-2.6277	-37.706848	0.000638	6.383804	2.162891	0.000256
1944	1.9333e+02	-2.5828	-37.533251	0.000436	4.357200	1.476259	0.000174
1945	1.9343e+02	-2.5652	-37.291023	0.000608	6.079814	2.059897	0.000243
1946	1.9353e+02	-2.5170	-37.044758	0.000618	6.181144	2.094228	0.000248
1947	1.9363e+02	-2.4769	-36.806567	0.000598	5.978483	2.025565	0.000239
1948	1.9373e+02	-2.4336	-36.616821	0.000476	4.762521	1.613586	0.000191
1949	1.9383e+02	-2.3839	-36.289813	0.000821	8.207748	2.780860	0.000329
1950	1.9393e+02	-2.3566	-36.063734	0.000567	5.674493	1.922570	0.000227
1951	1.9403e+02	-2.3149	-35.869951	0.000486	4.863851	1.647917	0.000195
1952	1.9412e+02	-2.2748	-35.619649	0.000628	6.282474	2.128560	0.000252
1953	1.9422e+02	-2.2363	-35.365309	0.000638	6.383804	2.162891	0.000256
1954	1.9432e+02	-2.1866	-35.106932	0.000649	6.485134	2.197223	0.000260
1955	1.9442e+02	-2.1593	-34.888927	0.000547	5.471832	1.853907	0.000219
1956	1.9452e+02	-2.1192	-34.650736	0.000598	5.978483	2.025565	0.000239
1957	1.9462e+02	-2.0759	-34.396396	0.000638	6.383804	2.162891	0.000256
1958	1.9472e+02	-2.0374	-34.150131	0.000618	6.181144	2.094228	0.000248
1959	1.9482e+02	-1.9909	-33.911940	0.000598	5.978483	2.025565	0.000239
1960	1.9492e+02	-1.9588	-33.681823	0.000578	5.775823	1.956902	0.000231
1961	1.9502e+02	-1.9090	-33.419410	0.000659	6.586465	2.231555	0.000264
1962	1.9512e+02	-1.8721	-33.165070	0.000638	6.383804	2.162891	0.000256
1963	1.9522e+02	-1.8336	-32.955139	0.000527	5.269172	1.785244	0.000211
1964	1.9532e+02	-1.7919	-32.664465	0.000730	7.295776	2.471876	0.000292
1965	1.9542e+02	-1.7502	-32.402051	0.000659	6.586465	2.231555	0.000264
1966	1.9552e+02	-1.7069	-32.208269	0.000486	4.863851	1.647917	0.000195
1967	1.9562e+02	-1.6828	-31.941818	0.000669	6.687795	2.265886	0.000268
1968	1.9572e+02	-1.6331	-31.699590	0.000608	6.079814	2.059897	0.000243
1969	1.9582e+02	-1.5994	-31.445250	0.000638	6.383804	2.162891	0.000256
1970	1.9592e+02	-1.5497	-31.182836	0.000659	6.586465	2.231555	0.000264
1971	1.9601e+02	-1.5176	-30.924460	0.000649	6.485134	2.197223	0.000260
1972	1.9611e+02	-1.4727	-30.658009	0.000669	6.687795	2.265886	0.000268
1973	1.9621e+02	-1.4438	-30.399632	0.000649	6.485134	2.197223	0.000260
1974	1.9631e+02	-1.3909	-30.149330	0.000628	6.282474	2.128560	0.000252
1975	1.9641e+02	-1.3524	-29.870767	0.000699	6.991786	2.368881	0.000280
1976	1.9651e+02	-1.3171	-29.624502	0.000618	6.181144	2.094228	0.000248
1977	1.9661e+02	-1.2770	-29.337865	0.000719	7.194446	2.437544	0.000288
1978	1.9671e+02	-1.2353	-29.083526	0.000638	6.383804	2.162891	0.000256
1979	1.9681e+02	-1.2000	-28.833223	0.000628	6.282474	2.128560	0.000252
1980	1.9691e+02	-1.1615	-28.558698	0.000689	6.890455	2.334549	0.000276
1981	1.9701e+02	-1.1214	-28.292247	0.000669	6.687795	2.265886	0.000268
1982	1.9711e+02	-1.0845	-28.045982	0.000618	6.181144	2.094228	0.000248
1983	1.9721e+02	-1.0492	-27.759345	0.000719	7.194446	2.437544	0.000288
1984	1.9731e+02	-0.9962	-27.513080	0.000618	6.181144	2.094228	0.000248
1985	1.9741e+02	-0.9529	-27.246629	0.000669	6.687795	2.265886	0.000268
1986	1.9751e+02	-0.9144	-26.968067	0.000699	6.991786	2.368881	0.000280
1987	1.9761e+02	-0.8791	-26.705653	0.000659	6.586465	2.231555	0.000264
1988	1.9771e+02	-0.8406	-26.410942	0.000740	7.397107	2.506208	0.000296
1989	1.9781e+02	-0.8037	-26.156602	0.000638	6.383804	2.162891	0.000256
1990	1.9791e+02	-0.7668	-25.890151	0.000669	6.687795	2.265886	0.000268
1991	1.9800e+02	-0.7203	-25.684258	0.000517	5.167842	1.750912	0.000207
1992	1.9810e+02	-0.6786	-25.361287	0.000811	8.106418	2.746529	0.000325
1993	1.9820e+02	-0.6385	-25.090799	0.000679	6.789125	2.300218	0.000272
1994	1.9830e+02	-0.5952	-24.796088	0.000740	7.397107	2.506208	0.000296
1995	1.9840e+02	-0.5631	-24.553860	0.000608	6.079814	2.059897	0.000243
1996	1.9850e+02	-0.5214	-24.255112	0.000750	7.498437	2.540539	0.000300
1997	1.9860e+02	-0.4861	-24.020958	0.000588	5.877153	1.991233	0.000235
1998	1.9870e+02	-0.4396	-23.702024	0.000801	8.005088	2.712197	0.000321
1999	1.9880e+02	-0.3930	-23.459796	0.000608	6.079814	2.059897	0.000243
2000	1.9890e+02	-0.3610	-23.189308	0.000679	6.789125	2.300218	0.000272
2001	1.9900e+02	-0.3241	-22.939005	0.000628	6.282474	2.128560	0.000252
2002	1.9910e+02	-0.2839	-22.636220	0.000760	7.599767	2.574871	0.000304
2003	1.9920e+02	-0.2406	-22.313249	0.000811	8.106418	2.746529	0.000325
2004	1.9930e+02	-0.2069	-22.071021	0.000608	6.079814	2.059897	0.000243
2005	1.9940e+02	-0.1572	-21.804570	0.000669	6.687795	2.265886	0.000268
2006	1.9950e+02	-0.1187	-21.505822	0.000750	7.498437	2.540539	0.000300
2007	1.9960e+02	-0.0834	-21.243408	0.000659	6.586465	2.231555	0.000264
2008	1.9970e+02	-0.0465	-20.944660	0.000750	7.498437	2.540539	0.000300
2009	1.9980e+02	-0.0032	-20.682246	0.000750	7.498437	2.540539	0.000264

Center data before PMax,+/-Pr and +/-Vc Calc.

PMax (uC/cm2):	9.78e+01
Pr (uC/cm2):	1.28e+01
-Pr (uC/cm2):	-2.07e+01
PLoss (uC/cm2):	-2.01e+01
-Vc:	-1.87e+00
C (Max-Eff) (nF):	4.90e-01
K (Eff):	1.66e+03
Vert. (+/-Pr) Shift (uC/cm2):	-3.95e+00
Offset (uC/cm2):	6.06e-01

A (Loop Area - uC/cm2·Volts):	1.12e-01



Hysteresis Version: 5.48.1 - Radiant Technologies, Inc., 1999 - 9/12/24

