»»»»»»»»»»»»»»»»»»»»»»»»»»»»»»»»»»»» Hysteresis ««««««««««««««««««««««««««««««««««««
»»»  Executed Version:	5.48.1
»»»  Vision Version:	5.48.4 (R)
»»»  Vision Compiled:	9/18/24
»»»  Driver Version:	5.47.0
»»»  Windows Version:	Windows 8 or 8.1
»»»  Processor Information:	x86 (AMD or Intel) - 32 Processors
»»»  Tester Name:	PMF21124-494 (100V)
»»»  Tester S/N:	PMF21124-494
»»»  Internal Amp Type:	100V RevK 270k
»»»  Internal Amp S/N:	iAB2-596/K     
»»»  Execution Count:	1
»»»»»»»»»»»»»»»»»»»»»»»»»»»»»»»»»»»»»»»»»»««««««««««««««««««««««««««««««««««««««««««

Stored:	6/10/2025 - 15:46:33
Configured:	06/10/25 03:08:08 PM
Executed:	06/10/25 03:45:52 PM

»»»»»»»»»»»»»»»»»»»»»»»»»»»»»»»»»»» Sample Info ««««««««««««««««««««««««««««««««««««
Sample Name:	
Lot Name:	
Wafer Name:	
Die Row/Column:	0/0
Capacitor Number:	0
Sample Area (cm2):	1.00e-04
Sample Thickness (microns):	3.00e-01

Amplifier:	Internal

»»»»»»»»»»»»»»»»»»»»»»»»»»»»»»»»»»» Tester Info «««««««««««««««««««««««««««««««««««
Tester Name:	PMF21124-494 (100V)
Tester Serial Number:	PMF21124-494
Return Signal Amp. Level:	0.19 [Index: 3]

»»»»»»»»»»»»»»»»»»»»»»»»»»»»»»»» Hysteresis Info ««««««««««««««««««««««««««««««««««
Task Name:	Hyst-1091
Volts:	20.00
Field:	666.67 (kV/cm)
DCBias:	0.00
DCField:	0.00 (kV/cm)
Hysteresis Period (ms):	2.00e+02
Preset:	Enabled
Preset Delay (ms):	1.00e+03
Profile:	Standard Bipolar

»»»»»»»»»»»»»»»»»»»»»»»»»»»»»»»»»»»»»» Data «««««««««««««««««««««««««««««««««««««««
Points:	2009

Valid Data

Point	Time (ms)	Drive Voltage	Measured Polarization (uC/cm2)	Capacitance (uF)	Normalized Capacitance (uF/cm2)	Dielectric Constant	Instantaneous Current (mA)
   1	0.0000e+00	-0.0080	-4.331847	0.000243	2.432560	0.824173	0.000097
   2	9.9500e-02	0.0289	-4.234955	0.000243	2.432560	0.824173	0.000097
   3	1.9900e-01	0.0754	-4.033099	0.000507	5.067832	1.717028	0.000203
   4	2.9850e-01	0.1107	-3.851427	0.000456	4.561049	1.545325	0.000183
   5	3.9800e-01	0.1444	-3.657645	0.000487	4.865119	1.648347	0.000195
   6	4.9750e-01	0.1957	-3.500197	0.000395	3.952909	1.339282	0.000158
   7	5.9700e-01	0.2182	-3.282191	0.000547	5.473259	1.854390	0.000219
   8	6.9650e-01	0.2695	-3.096483	0.000466	4.662406	1.579666	0.000187
   9	7.9600e-01	0.3016	-2.947109	0.000375	3.750196	1.270601	0.000150
  10	8.9550e-01	0.3561	-2.733141	0.000537	5.371902	1.820050	0.000215
  11	9.9500e-01	0.3882	-2.563581	0.000426	4.256979	1.442304	0.000170
  12	1.0945e+00	0.4267	-2.385947	0.000446	4.459693	1.510985	0.000179
  13	1.1940e+00	0.4700	-2.220425	0.000416	4.155623	1.407963	0.000166
  14	1.2935e+00	0.5101	-2.026642	0.000487	4.865119	1.648347	0.000195
  15	1.3930e+00	0.5470	-1.820748	0.000517	5.169189	1.751369	0.000207
  16	1.4925e+00	0.5871	-1.683486	0.000345	3.446126	1.167579	0.000138
  17	1.5920e+00	0.6321	-1.433183	0.000628	6.284112	2.129115	0.000252
  18	1.6915e+00	0.6674	-1.263623	0.000426	4.256979	1.442304	0.000170
  19	1.7910e+00	0.7091	-1.073878	0.000476	4.763762	1.614006	0.000191
  20	1.8905e+00	0.7476	-0.888170	0.000466	4.662406	1.579666	0.000187
  21	1.9900e+00	0.7861	-0.710536	0.000446	4.459693	1.510985	0.000179
  22	2.0895e+00	0.8230	-0.504642	0.000517	5.169189	1.751369	0.000207
  23	2.1890e+00	0.8647	-0.306822	0.000497	4.966476	1.682688	0.000199
  24	2.2885e+00	0.9080	-0.113040	0.000487	4.865119	1.648347	0.000195
  25	2.3880e+00	0.9417	0.064594	0.000446	4.459693	1.510985	0.000179
  26	2.4875e+00	0.9818	0.270488	0.000517	5.169189	1.751369	0.000207
  27	2.5870e+00	1.0299	0.440048	0.000426	4.256979	1.442304	0.000170
  28	2.6865e+00	1.0652	0.666127	0.000568	5.675972	1.923071	0.000227
  29	2.7860e+00	1.1037	0.803390	0.000345	3.446126	1.167579	0.000138
  30	2.8855e+00	1.1390	1.025432	0.000557	5.574616	1.888731	0.000223
  31	2.9850e+00	1.1839	1.239401	0.000537	5.371902	1.820050	0.000215
  32	3.0845e+00	1.2192	1.404923	0.000416	4.155623	1.407963	0.000166
  33	3.1840e+00	1.2625	1.606780	0.000507	5.067832	1.717028	0.000203
  34	3.2835e+00	1.2994	1.792488	0.000466	4.662406	1.579666	0.000187
  35	3.3830e+00	1.3524	1.998382	0.000517	5.169189	1.751369	0.000207
  36	3.4825e+00	1.3893	2.224462	0.000568	5.675972	1.923071	0.000227
  37	3.5820e+00	1.4230	2.373836	0.000375	3.750196	1.270601	0.000150
  38	3.6815e+00	1.4615	2.579730	0.000517	5.169189	1.751369	0.000207
  39	3.7810e+00	1.5112	2.793698	0.000537	5.371902	1.820050	0.000215
  40	3.8805e+00	1.5433	2.971332	0.000446	4.459693	1.510985	0.000179
  41	3.9800e+00	1.5818	3.169152	0.000497	4.966476	1.682688	0.000199
  42	4.0795e+00	1.6267	3.346786	0.000446	4.459693	1.510985	0.000179
  43	4.1790e+00	1.6652	3.564791	0.000547	5.473259	1.854390	0.000219
  44	4.2785e+00	1.7005	3.758573	0.000487	4.865119	1.648347	0.000195
  45	4.3780e+00	1.7438	3.944282	0.000466	4.662406	1.579666	0.000187
  46	4.4775e+00	1.7791	4.121916	0.000446	4.459693	1.510985	0.000179
  47	4.5770e+00	1.8304	4.319735	0.000497	4.966476	1.682688	0.000199
  48	4.6765e+00	1.8641	4.501406	0.000456	4.561049	1.545325	0.000183
  49	4.7760e+00	1.8994	4.731523	0.000578	5.777329	1.957412	0.000231
  50	4.8755e+00	1.9395	4.921268	0.000476	4.763762	1.614006	0.000191
  51	4.9750e+00	1.9892	5.098902	0.000446	4.459693	1.510985	0.000179
  52	5.0745e+00	2.0197	5.361316	0.000659	6.588182	2.232137	0.000264
  53	5.1740e+00	2.0598	5.490505	0.000324	3.243413	1.098898	0.000130
  54	5.2735e+00	2.0983	5.704473	0.000537	5.371902	1.820050	0.000215
  55	5.3730e+00	2.1352	5.894218	0.000476	4.763762	1.614006	0.000191
  56	5.4725e+00	2.1834	6.075889	0.000456	4.561049	1.545325	0.000183
  57	5.5720e+00	2.2235	6.281783	0.000517	5.169189	1.751369	0.000207
  58	5.6715e+00	2.2668	6.479603	0.000497	4.966476	1.682688	0.000199
  59	5.7710e+00	2.2973	6.645125	0.000416	4.155623	1.407963	0.000166
  60	5.8705e+00	2.3390	6.867168	0.000557	5.574616	1.888731	0.000223
  61	5.9700e+00	2.3839	7.085173	0.000547	5.473259	1.854390	0.000219
  62	6.0695e+00	2.4144	7.246659	0.000405	4.054266	1.373622	0.000162
  63	6.1690e+00	2.4545	7.420255	0.000436	4.358336	1.476644	0.000174
  64	6.2685e+00	2.4914	7.634224	0.000537	5.371902	1.820050	0.000215
  65	6.3680e+00	2.5395	7.807821	0.000436	4.358336	1.476644	0.000174
  66	6.4675e+00	2.5812	8.037937	0.000578	5.777329	1.957412	0.000231
  67	6.5670e+00	2.6181	8.215571	0.000446	4.459693	1.510985	0.000179
  68	6.6665e+00	2.6662	8.377057	0.000405	4.054266	1.373622	0.000162
  69	6.7660e+00	2.7095	8.599099	0.000557	5.574616	1.888731	0.000223
  70	6.8655e+00	2.7352	8.780770	0.000456	4.561049	1.545325	0.000183
  71	6.9650e+00	2.7753	8.950330	0.000426	4.256979	1.442304	0.000170
  72	7.0645e+00	2.8154	9.172372	0.000557	5.574616	1.888731	0.000223
  73	7.1640e+00	2.8620	9.362118	0.000476	4.763762	1.614006	0.000191
  74	7.2635e+00	2.9021	9.543789	0.000456	4.561049	1.545325	0.000183
  75	7.3630e+00	2.9374	9.773906	0.000578	5.777329	1.957412	0.000231
  76	7.4625e+00	2.9807	9.935391	0.000405	4.054266	1.373622	0.000162
  77	7.5620e+00	3.0160	10.141285	0.000517	5.169189	1.751369	0.000207
  78	7.6615e+00	3.0593	10.294696	0.000385	3.851553	1.304941	0.000154
  79	7.7610e+00	3.1074	10.480404	0.000466	4.662406	1.579666	0.000187
  80	7.8605e+00	3.1379	10.702447	0.000557	5.574616	1.888731	0.000223
  81	7.9600e+00	3.1748	10.884118	0.000456	4.561049	1.545325	0.000183
  82	8.0595e+00	3.2213	11.041566	0.000395	3.952909	1.339282	0.000158
  83	8.1590e+00	3.2646	11.219200	0.000446	4.459693	1.510985	0.000179
  84	8.2585e+00	3.2983	11.425094	0.000517	5.169189	1.751369	0.000207
  85	8.3580e+00	3.3448	11.647137	0.000557	5.574616	1.888731	0.000223
  86	8.4575e+00	3.3737	11.824771	0.000446	4.459693	1.510985	0.000179
  87	8.5570e+00	3.4170	12.022590	0.000497	4.966476	1.682688	0.000199
  88	8.6565e+00	3.4539	12.180039	0.000395	3.952909	1.339282	0.000158
  89	8.7560e+00	3.4924	12.394007	0.000537	5.371902	1.820050	0.000215
  90	8.8555e+00	3.5325	12.531269	0.000345	3.446126	1.167579	0.000138
  91	8.9550e+00	3.5726	12.761386	0.000578	5.777329	1.957412	0.000231
  92	9.0545e+00	3.6143	12.947094	0.000466	4.662406	1.579666	0.000187
  93	9.1540e+00	3.6593	13.120691	0.000436	4.358336	1.476644	0.000174
  94	9.2535e+00	3.6913	13.334659	0.000537	5.371902	1.820050	0.000215
  95	9.3530e+00	3.7347	13.548628	0.000537	5.371902	1.820050	0.000215
  96	9.4525e+00	3.7651	13.681853	0.000334	3.344769	1.133239	0.000134
  97	9.5520e+00	3.8197	13.887747	0.000517	5.169189	1.751369	0.000207
  98	9.6515e+00	3.8486	14.085567	0.000497	4.966476	1.682688	0.000199
  99	9.7510e+00	3.8935	14.243015	0.000395	3.952909	1.339282	0.000158
 100	9.8505e+00	3.9336	14.392389	0.000375	3.750196	1.270601	0.000150
 101	9.9500e+00	3.9705	14.602320	0.000527	5.270546	1.785709	0.000211
 102	1.0050e+01	4.0106	14.755731	0.000385	3.851553	1.304941	0.000154
 103	1.0149e+01	4.0539	15.006034	0.000628	6.284112	2.129115	0.000252
 104	1.0248e+01	4.0924	15.123110	0.000294	2.939343	0.995876	0.000118
 105	1.0348e+01	4.1421	15.324967	0.000507	5.067832	1.717028	0.000203
 106	1.0447e+01	4.1694	15.506638	0.000456	4.561049	1.545325	0.000183
 107	1.0547e+01	4.2079	15.651975	0.000365	3.648839	1.236260	0.000146
 108	1.0646e+01	4.2592	15.817498	0.000416	4.155623	1.407963	0.000166
 109	1.0746e+01	4.2977	16.031466	0.000537	5.371902	1.820050	0.000215
 110	1.0845e+01	4.3282	16.192951	0.000405	4.054266	1.373622	0.000162
 111	1.0945e+01	4.3812	16.382697	0.000476	4.763762	1.614006	0.000191
 112	1.1044e+01	4.4213	16.560331	0.000446	4.459693	1.510985	0.000179
 113	1.1144e+01	4.4614	16.762188	0.000507	5.067832	1.717028	0.000203
 114	1.1243e+01	4.4951	16.927710	0.000416	4.155623	1.407963	0.000166
 115	1.1343e+01	4.5320	17.073047	0.000365	3.648839	1.236260	0.000146
 116	1.1443e+01	4.5705	17.246644	0.000436	4.358336	1.476644	0.000174
 117	1.1542e+01	4.6138	17.436389	0.000476	4.763762	1.614006	0.000191
 118	1.1642e+01	4.6523	17.622097	0.000466	4.662406	1.579666	0.000187
 119	1.1741e+01	4.6844	17.779546	0.000395	3.952909	1.339282	0.000158
 120	1.1841e+01	4.7357	17.920846	0.000355	3.547483	1.201920	0.000142
 121	1.1940e+01	4.7726	18.126739	0.000517	5.169189	1.751369	0.000207
 122	1.2040e+01	4.8191	18.255928	0.000324	3.243413	1.098898	0.000130
 123	1.2139e+01	4.8560	18.486045	0.000578	5.777329	1.957412	0.000231
 124	1.2239e+01	4.8897	18.611196	0.000314	3.142056	1.064557	0.000126
 125	1.2338e+01	4.9330	18.768644	0.000395	3.952909	1.339282	0.000158
 126	1.2438e+01	4.9763	18.982612	0.000537	5.371902	1.820050	0.000215
 127	1.2537e+01	5.0100	19.119875	0.000345	3.446126	1.167579	0.000138
 128	1.2636e+01	5.0517	19.321732	0.000507	5.067832	1.717028	0.000203
 129	1.2736e+01	5.0950	19.463031	0.000355	3.547483	1.201920	0.000142
 130	1.2835e+01	5.1303	19.612405	0.000375	3.750196	1.270601	0.000150
 131	1.2935e+01	5.1737	19.830411	0.000547	5.473259	1.854390	0.000219
 132	1.3034e+01	5.2105	19.967673	0.000345	3.446126	1.167579	0.000138
 133	1.3134e+01	5.2571	20.129159	0.000405	4.054266	1.373622	0.000162
 134	1.3233e+01	5.2843	20.294681	0.000416	4.155623	1.407963	0.000166
 135	1.3333e+01	5.3277	20.500575	0.000517	5.169189	1.751369	0.000207
 136	1.3432e+01	5.3694	20.645912	0.000365	3.648839	1.236260	0.000146
 137	1.3532e+01	5.4127	20.803360	0.000395	3.952909	1.339282	0.000158
 138	1.3632e+01	5.4480	20.944660	0.000355	3.547483	1.201920	0.000142
 139	1.3731e+01	5.4865	21.118257	0.000436	4.358336	1.476644	0.000174
 140	1.3831e+01	5.5170	21.263594	0.000365	3.648839	1.236260	0.000146
 141	1.3930e+01	5.5715	21.465451	0.000507	5.067832	1.717028	0.000203
 142	1.4030e+01	5.6052	21.626936	0.000405	4.054266	1.373622	0.000162
 143	1.4129e+01	5.6565	21.735939	0.000274	2.736630	0.927195	0.000110
 144	1.4229e+01	5.6870	21.966056	0.000578	5.777329	1.957412	0.000231
 145	1.4328e+01	5.7319	22.087170	0.000304	3.040699	1.030217	0.000122
 146	1.4428e+01	5.7656	22.232507	0.000365	3.648839	1.236260	0.000146
 147	1.4527e+01	5.8073	22.402066	0.000426	4.256979	1.442304	0.000170
 148	1.4627e+01	5.8458	22.555477	0.000385	3.851553	1.304941	0.000154
 149	1.4726e+01	5.8859	22.737148	0.000456	4.561049	1.545325	0.000183
 150	1.4825e+01	5.9292	22.886522	0.000375	3.750196	1.270601	0.000150
 151	1.4925e+01	5.9677	23.039934	0.000385	3.851553	1.304941	0.000154
 152	1.5024e+01	6.0095	23.217568	0.000446	4.459693	1.510985	0.000179
 153	1.5124e+01	6.0480	23.370979	0.000385	3.851553	1.304941	0.000154
 154	1.5223e+01	6.0865	23.548613	0.000446	4.459693	1.510985	0.000179
 155	1.5323e+01	6.1250	23.702024	0.000385	3.851553	1.304941	0.000154
 156	1.5422e+01	6.1619	23.839287	0.000345	3.446126	1.167579	0.000138
 157	1.5522e+01	6.2132	23.984623	0.000365	3.648839	1.236260	0.000146
 158	1.5621e+01	6.2533	24.138035	0.000385	3.851553	1.304941	0.000154
 159	1.5721e+01	6.2902	24.323743	0.000466	4.662406	1.579666	0.000187
 160	1.5820e+01	6.3383	24.461005	0.000345	3.446126	1.167579	0.000138
 161	1.5920e+01	6.3672	24.626528	0.000416	4.155623	1.407963	0.000166
 162	1.6020e+01	6.4041	24.783976	0.000395	3.952909	1.339282	0.000158
 163	1.6119e+01	6.4474	24.892979	0.000274	2.736630	0.927195	0.000110
 164	1.6218e+01	6.4811	25.082724	0.000476	4.763762	1.614006	0.000191
 165	1.6318e+01	6.5212	25.232098	0.000375	3.750196	1.270601	0.000150
 166	1.6418e+01	6.5677	25.389547	0.000395	3.952909	1.339282	0.000158
 167	1.6517e+01	6.6046	25.518735	0.000324	3.243413	1.098898	0.000130
 168	1.6616e+01	6.6431	25.708480	0.000476	4.763762	1.614006	0.000191
 169	1.6716e+01	6.6848	25.833632	0.000314	3.142056	1.064557	0.000126
 170	1.6816e+01	6.7233	25.970894	0.000345	3.446126	1.167579	0.000138
 171	1.6915e+01	6.7683	26.144491	0.000436	4.358336	1.476644	0.000174
 172	1.7015e+01	6.8036	26.301939	0.000395	3.952909	1.339282	0.000158
 173	1.7114e+01	6.8388	26.439202	0.000345	3.446126	1.167579	0.000138
 174	1.7213e+01	6.8790	26.568390	0.000324	3.243413	1.098898	0.000130
 175	1.7313e+01	6.9142	26.733913	0.000416	4.155623	1.407963	0.000166
 176	1.7413e+01	6.9640	26.859064	0.000314	3.142056	1.064557	0.000126
 177	1.7512e+01	6.9993	27.016512	0.000395	3.952909	1.339282	0.000158
 178	1.7611e+01	7.0458	27.190109	0.000436	4.358336	1.476644	0.000174
 179	1.7711e+01	7.0843	27.331409	0.000355	3.547483	1.201920	0.000142
 180	1.7811e+01	7.1228	27.492894	0.000405	4.054266	1.373622	0.000162
 181	1.7910e+01	7.1597	27.618046	0.000314	3.142056	1.064557	0.000126
 182	1.8009e+01	7.2030	27.755308	0.000345	3.446126	1.167579	0.000138
 183	1.8109e+01	7.2367	27.908719	0.000385	3.851553	1.304941	0.000154
 184	1.8209e+01	7.2800	28.066168	0.000395	3.952909	1.339282	0.000158
 185	1.8308e+01	7.3233	28.219579	0.000385	3.851553	1.304941	0.000154
 186	1.8407e+01	7.3586	28.377027	0.000395	3.952909	1.339282	0.000158
 187	1.8507e+01	7.4083	28.490067	0.000284	2.837986	0.961536	0.000114
 188	1.8607e+01	7.4356	28.663664	0.000436	4.358336	1.476644	0.000174
 189	1.8706e+01	7.4789	28.817075	0.000385	3.851553	1.304941	0.000154
 190	1.8805e+01	7.5206	28.962412	0.000365	3.648839	1.236260	0.000146
 191	1.8905e+01	7.5688	29.095637	0.000334	3.344769	1.133239	0.000134
 192	1.9005e+01	7.6025	29.281346	0.000466	4.662406	1.579666	0.000187
 193	1.9104e+01	7.6313	29.430720	0.000375	3.750196	1.270601	0.000150
 194	1.9203e+01	7.6811	29.559908	0.000324	3.243413	1.098898	0.000130
 195	1.9303e+01	7.7196	29.693133	0.000334	3.344769	1.133239	0.000134
 196	1.9402e+01	7.7613	29.846545	0.000385	3.851553	1.304941	0.000154
 197	1.9502e+01	7.7837	29.983807	0.000345	3.446126	1.167579	0.000138
 198	1.9602e+01	7.8415	30.153367	0.000426	4.256979	1.442304	0.000170
 199	1.9701e+01	7.8784	30.294667	0.000355	3.547483	1.201920	0.000142
 200	1.9800e+01	7.9153	30.431929	0.000345	3.446126	1.167579	0.000138
 201	1.9900e+01	7.9586	30.565155	0.000334	3.344769	1.133239	0.000134
 202	2.0000e+01	8.0051	30.710492	0.000365	3.648839	1.236260	0.000146
 203	2.0099e+01	8.0372	30.867940	0.000395	3.952909	1.339282	0.000158
 204	2.0198e+01	8.0805	31.017314	0.000375	3.750196	1.270601	0.000150
 205	2.0298e+01	8.1222	31.134391	0.000294	2.939343	0.995876	0.000118
 206	2.0398e+01	8.1623	31.303951	0.000426	4.256979	1.442304	0.000170
 207	2.0497e+01	8.2073	31.425065	0.000304	3.040699	1.030217	0.000122
 208	2.0596e+01	8.2409	31.578476	0.000385	3.851553	1.304941	0.000154
 209	2.0696e+01	8.2794	31.711701	0.000334	3.344769	1.133239	0.000134
 210	2.0796e+01	8.3196	31.853001	0.000355	3.547483	1.201920	0.000142
 211	2.0895e+01	8.3548	32.022561	0.000426	4.256979	1.442304	0.000170
 212	2.0994e+01	8.3950	32.196158	0.000436	4.358336	1.476644	0.000174
 213	2.1094e+01	8.4335	32.337457	0.000355	3.547483	1.201920	0.000142
 214	2.1194e+01	8.4784	32.478757	0.000355	3.547483	1.201920	0.000142
 215	2.1293e+01	8.5217	32.587760	0.000274	2.736630	0.927195	0.000110
 216	2.1392e+01	8.5586	32.765394	0.000446	4.459693	1.510985	0.000179
 217	2.1492e+01	8.5907	32.894582	0.000324	3.243413	1.098898	0.000130
 218	2.1591e+01	8.6404	33.035882	0.000355	3.547483	1.201920	0.000142
 219	2.1691e+01	8.6725	33.185256	0.000375	3.750196	1.270601	0.000150
 220	2.1791e+01	8.7126	33.358853	0.000436	4.358336	1.476644	0.000174
 221	2.1890e+01	8.7495	33.443632	0.000213	2.128490	0.721152	0.000085
 222	2.1989e+01	8.8040	33.621266	0.000446	4.459693	1.510985	0.000179
 223	2.2089e+01	8.8313	33.734306	0.000284	2.837986	0.961536	0.000114
 224	2.2189e+01	8.8762	33.920014	0.000466	4.662406	1.579666	0.000187
 225	2.2288e+01	8.9147	34.049203	0.000324	3.243413	1.098898	0.000130
 226	2.2387e+01	8.9516	34.142057	0.000233	2.331203	0.789833	0.000093
 227	2.2487e+01	8.9901	34.307580	0.000416	4.155623	1.407963	0.000166
 228	2.2587e+01	9.0431	34.465028	0.000395	3.952909	1.339282	0.000158
 229	2.2686e+01	9.0735	34.606328	0.000355	3.547483	1.201920	0.000142
 230	2.2785e+01	9.1185	34.743590	0.000345	3.446126	1.167579	0.000138
 231	2.2885e+01	9.1570	34.860667	0.000294	2.939343	0.995876	0.000118
 232	2.2985e+01	9.1939	34.985818	0.000314	3.142056	1.064557	0.000126
 233	2.3084e+01	9.2259	35.179601	0.000487	4.865119	1.648347	0.000195
 234	2.3183e+01	9.2709	35.349161	0.000426	4.256979	1.442304	0.000170
 235	2.3283e+01	9.3126	35.437978	0.000223	2.229846	0.755492	0.000089
 236	2.3383e+01	9.3623	35.583314	0.000365	3.648839	1.236260	0.000146
 237	2.3482e+01	9.3992	35.700391	0.000294	2.939343	0.995876	0.000118
 238	2.3581e+01	9.4473	35.845728	0.000365	3.648839	1.236260	0.000146
 239	2.3681e+01	9.4682	35.978954	0.000334	3.344769	1.133239	0.000134
 240	2.3780e+01	9.5099	36.136402	0.000395	3.952909	1.339282	0.000158
 241	2.3880e+01	9.5452	36.249442	0.000284	2.837986	0.961536	0.000114
 242	2.3980e+01	9.5965	36.423039	0.000436	4.358336	1.476644	0.000174
 243	2.4079e+01	9.6366	36.560301	0.000345	3.446126	1.167579	0.000138
 244	2.4178e+01	9.6687	36.721787	0.000405	4.054266	1.373622	0.000162
 245	2.4278e+01	9.7200	36.830789	0.000274	2.736630	0.927195	0.000110
 246	2.4378e+01	9.7569	36.980163	0.000375	3.750196	1.270601	0.000150
 247	2.4477e+01	9.7987	37.141649	0.000405	4.054266	1.373622	0.000162
 248	2.4576e+01	9.8307	37.254689	0.000284	2.837986	0.961536	0.000114
 249	2.4676e+01	9.8757	37.400025	0.000365	3.648839	1.236260	0.000146
 250	2.4776e+01	9.9110	37.545362	0.000365	3.648839	1.236260	0.000146
 251	2.4875e+01	9.9446	37.674551	0.000324	3.243413	1.098898	0.000130
 252	2.4974e+01	9.9863	37.799702	0.000314	3.142056	1.064557	0.000126
 253	2.5074e+01	10.0249	37.928890	0.000324	3.243413	1.098898	0.000130
 254	2.5174e+01	10.0698	38.066153	0.000345	3.446126	1.167579	0.000138
 255	2.5273e+01	10.1051	38.247824	0.000456	4.561049	1.545325	0.000183
 256	2.5372e+01	10.1500	38.336641	0.000223	2.229846	0.755492	0.000089
 257	2.5472e+01	10.1805	38.506201	0.000426	4.256979	1.442304	0.000170
 258	2.5572e+01	10.2270	38.647500	0.000355	3.547483	1.201920	0.000142
 259	2.5671e+01	10.2687	38.788800	0.000355	3.547483	1.201920	0.000142
 260	2.5770e+01	10.3072	38.893766	0.000264	2.635273	0.892855	0.000105
 261	2.5870e+01	10.3489	38.998731	0.000264	2.635273	0.892855	0.000105
 262	2.5970e+01	10.3842	39.196551	0.000497	4.966476	1.682688	0.000199
 263	2.6069e+01	10.4275	39.317665	0.000304	3.040699	1.030217	0.000122
 264	2.6169e+01	10.4692	39.467039	0.000375	3.750196	1.270601	0.000150
 265	2.6268e+01	10.5013	39.588153	0.000304	3.040699	1.030217	0.000122
 266	2.6367e+01	10.5446	39.709267	0.000304	3.040699	1.030217	0.000122
 267	2.6467e+01	10.5960	39.830381	0.000304	3.040699	1.030217	0.000122
 268	2.6567e+01	10.6329	40.003978	0.000436	4.358336	1.476644	0.000174
 269	2.6666e+01	10.6649	40.084721	0.000203	2.027133	0.686811	0.000081
 270	2.6765e+01	10.7131	40.266392	0.000456	4.561049	1.545325	0.000183
 271	2.6865e+01	10.7500	40.379432	0.000284	2.837986	0.961536	0.000114
 272	2.6965e+01	10.7917	40.516694	0.000345	3.446126	1.167579	0.000138
 273	2.7064e+01	10.8318	40.670105	0.000385	3.851553	1.304941	0.000154
 274	2.7163e+01	10.8703	40.811405	0.000355	3.547483	1.201920	0.000142
 275	2.7263e+01	10.9104	40.896185	0.000213	2.128490	0.721152	0.000085
 276	2.7363e+01	10.9473	41.053633	0.000395	3.952909	1.339282	0.000158
 277	2.7462e+01	10.9922	41.166673	0.000284	2.837986	0.961536	0.000114
 278	2.7561e+01	11.0307	41.303936	0.000345	3.446126	1.167579	0.000138
 279	2.7661e+01	11.0644	41.461384	0.000395	3.952909	1.339282	0.000158
 280	2.7761e+01	11.1061	41.562312	0.000253	2.533916	0.858514	0.000101
 281	2.7860e+01	11.1430	41.715724	0.000385	3.851553	1.304941	0.000154
 282	2.7959e+01	11.1863	41.836838	0.000304	3.040699	1.030217	0.000122
 283	2.8059e+01	11.2248	41.945840	0.000274	2.736630	0.927195	0.000110
 284	2.8159e+01	11.2665	42.091177	0.000365	3.648839	1.236260	0.000146
 285	2.8258e+01	11.3082	42.236514	0.000365	3.648839	1.236260	0.000146
 286	2.8358e+01	11.3483	42.317257	0.000203	2.027133	0.686811	0.000081
 287	2.8457e+01	11.3884	42.458557	0.000355	3.547483	1.201920	0.000142
 288	2.8556e+01	11.4237	42.587745	0.000324	3.243413	1.098898	0.000130
 289	2.8656e+01	11.4687	42.700785	0.000284	2.837986	0.961536	0.000114
 290	2.8756e+01	11.5120	42.825936	0.000314	3.142056	1.064557	0.000126
 291	2.8855e+01	11.5409	42.963199	0.000345	3.446126	1.167579	0.000138
 292	2.8954e+01	11.5890	43.088350	0.000314	3.142056	1.064557	0.000126
 293	2.9054e+01	11.6259	43.241761	0.000385	3.851553	1.304941	0.000154
 294	2.9154e+01	11.6660	43.342689	0.000253	2.533916	0.858514	0.000101
 295	2.9253e+01	11.7109	43.475915	0.000334	3.344769	1.133239	0.000134
 296	2.9352e+01	11.7382	43.588955	0.000284	2.837986	0.961536	0.000114
 297	2.9452e+01	11.7783	43.685846	0.000243	2.432560	0.824173	0.000097
 298	2.9552e+01	11.8184	43.879628	0.000487	4.865119	1.648347	0.000195
 299	2.9651e+01	11.8681	43.972482	0.000233	2.331203	0.789833	0.000093
 300	2.9750e+01	11.9082	44.077448	0.000264	2.635273	0.892855	0.000105
 301	2.9850e+01	11.9387	44.267193	0.000476	4.763762	1.614006	0.000191
 302	2.9950e+01	11.9804	44.372159	0.000264	2.635273	0.892855	0.000105
 303	3.0049e+01	12.0141	44.525570	0.000385	3.851553	1.304941	0.000154
 304	3.0148e+01	12.0574	44.618424	0.000233	2.331203	0.789833	0.000093
 305	3.0248e+01	12.1071	44.735501	0.000294	2.939343	0.995876	0.000118
 306	3.0348e+01	12.1376	44.868727	0.000334	3.344769	1.133239	0.000134
 307	3.0447e+01	12.1874	44.977729	0.000274	2.736630	0.927195	0.000110
 308	3.0547e+01	12.2194	45.114992	0.000345	3.446126	1.167579	0.000138
 309	3.0646e+01	12.2579	45.219957	0.000264	2.635273	0.892855	0.000105
 310	3.0745e+01	12.3205	45.385480	0.000416	4.155623	1.407963	0.000166
 311	3.0845e+01	12.3414	45.490445	0.000264	2.635273	0.892855	0.000105
 312	3.0945e+01	12.3863	45.591374	0.000253	2.533916	0.858514	0.000101
 313	3.1044e+01	12.4248	45.740748	0.000375	3.750196	1.270601	0.000150
 314	3.1143e+01	12.4633	45.849751	0.000274	2.736630	0.927195	0.000110
 315	3.1243e+01	12.5098	45.982976	0.000334	3.344769	1.133239	0.000134
 316	3.1343e+01	12.5403	46.075830	0.000233	2.331203	0.789833	0.000093
 317	3.1442e+01	12.5836	46.200981	0.000314	3.142056	1.064557	0.000126
 318	3.1541e+01	12.6173	46.301910	0.000253	2.533916	0.858514	0.000101
 319	3.1641e+01	12.6670	46.467432	0.000416	4.155623	1.407963	0.000166
 320	3.1741e+01	12.6959	46.592584	0.000314	3.142056	1.064557	0.000126
 321	3.1840e+01	12.7520	46.705623	0.000284	2.837986	0.961536	0.000114
 322	3.1939e+01	12.7889	46.826737	0.000304	3.040699	1.030217	0.000122
 323	3.2039e+01	12.8194	46.959963	0.000334	3.344769	1.133239	0.000134
 324	3.2139e+01	12.8595	47.077040	0.000294	2.939343	0.995876	0.000118
 325	3.2238e+01	12.8980	47.173931	0.000243	2.432560	0.824173	0.000097
 326	3.2337e+01	12.9381	47.274859	0.000253	2.533916	0.858514	0.000101
 327	3.2437e+01	12.9654	47.400011	0.000314	3.142056	1.064557	0.000126
 328	3.2536e+01	13.0167	47.549385	0.000375	3.750196	1.270601	0.000150
 329	3.2636e+01	13.0552	47.638202	0.000223	2.229846	0.755492	0.000089
 330	3.2736e+01	13.0937	47.759316	0.000304	3.040699	1.030217	0.000122
 331	3.2835e+01	13.1371	47.868318	0.000274	2.736630	0.927195	0.000110
 332	3.2934e+01	13.1708	47.973284	0.000264	2.635273	0.892855	0.000105
 333	3.3034e+01	13.2189	48.074212	0.000253	2.533916	0.858514	0.000101
 334	3.3133e+01	13.2574	48.251846	0.000446	4.459693	1.510985	0.000179
 335	3.3233e+01	13.2959	48.385072	0.000334	3.344769	1.133239	0.000134
 336	3.3333e+01	13.3360	48.494074	0.000274	2.736630	0.927195	0.000110
 337	3.3432e+01	13.3745	48.570780	0.000193	1.925776	0.652471	0.000077
 338	3.3532e+01	13.4146	48.695931	0.000314	3.142056	1.064557	0.000126
 339	3.3631e+01	13.4659	48.825120	0.000324	3.243413	1.098898	0.000130
 340	3.3730e+01	13.4916	48.905862	0.000203	2.027133	0.686811	0.000081
 341	3.3830e+01	13.5365	49.051199	0.000365	3.648839	1.236260	0.000146
 342	3.3929e+01	13.5686	49.152128	0.000253	2.533916	0.858514	0.000101
 343	3.4029e+01	13.6215	49.285353	0.000334	3.344769	1.133239	0.000134
 344	3.4129e+01	13.6472	49.426653	0.000355	3.547483	1.201920	0.000142
 345	3.4228e+01	13.6985	49.531618	0.000264	2.635273	0.892855	0.000105
 346	3.4328e+01	13.7322	49.640621	0.000274	2.736630	0.927195	0.000110
 347	3.4427e+01	13.7788	49.749624	0.000274	2.736630	0.927195	0.000110
 348	3.4526e+01	13.8108	49.842478	0.000233	2.331203	0.789833	0.000093
 349	3.4626e+01	13.8654	49.995889	0.000385	3.851553	1.304941	0.000154
 350	3.4725e+01	13.8943	50.104892	0.000274	2.736630	0.927195	0.000110
 351	3.4825e+01	13.9312	50.193709	0.000223	2.229846	0.755492	0.000089
 352	3.4925e+01	13.9793	50.335008	0.000355	3.547483	1.201920	0.000142
 353	3.5024e+01	14.0114	50.460160	0.000314	3.142056	1.064557	0.000126
 354	3.5123e+01	14.0515	50.565125	0.000264	2.635273	0.892855	0.000105
 355	3.5223e+01	14.0996	50.678165	0.000284	2.837986	0.961536	0.000114
 356	3.5322e+01	14.1317	50.779093	0.000253	2.533916	0.858514	0.000101
 357	3.5422e+01	14.1718	50.892133	0.000284	2.837986	0.961536	0.000114
 358	3.5522e+01	14.2087	51.025359	0.000334	3.344769	1.133239	0.000134
 359	3.5621e+01	14.2472	51.162621	0.000345	3.446126	1.167579	0.000138
 360	3.5721e+01	14.2969	51.235290	0.000182	1.824420	0.618130	0.000073
 361	3.5820e+01	14.3322	51.384664	0.000375	3.750196	1.270601	0.000150
 362	3.5919e+01	14.3707	51.505778	0.000304	3.040699	1.030217	0.000122
 363	3.6019e+01	14.4140	51.570372	0.000162	1.621706	0.549449	0.000065
 364	3.6118e+01	14.4606	51.748006	0.000446	4.459693	1.510985	0.000179
 365	3.6218e+01	14.4910	51.861046	0.000284	2.837986	0.961536	0.000114
 366	3.6318e+01	14.5343	51.970048	0.000274	2.736630	0.927195	0.000110
 367	3.6417e+01	14.5696	52.062902	0.000233	2.331203	0.789833	0.000093
 368	3.6517e+01	14.6065	52.224388	0.000405	4.054266	1.373622	0.000162
 369	3.6616e+01	14.6418	52.309168	0.000213	2.128490	0.721152	0.000085
 370	3.6715e+01	14.6996	52.434319	0.000314	3.142056	1.064557	0.000126
 371	3.6815e+01	14.7269	52.551396	0.000294	2.939343	0.995876	0.000118
 372	3.6914e+01	14.7605	52.692696	0.000355	3.547483	1.201920	0.000142
 373	3.7014e+01	14.8199	52.793624	0.000253	2.533916	0.858514	0.000101
 374	3.7114e+01	14.8472	52.882441	0.000223	2.229846	0.755492	0.000089
 375	3.7213e+01	14.8937	52.995481	0.000284	2.837986	0.961536	0.000114
 376	3.7313e+01	14.9290	53.108521	0.000284	2.837986	0.961536	0.000114
 377	3.7412e+01	14.9659	53.249820	0.000355	3.547483	1.201920	0.000142
 378	3.7511e+01	15.0156	53.354786	0.000264	2.635273	0.892855	0.000105
 379	3.7611e+01	15.0493	53.479937	0.000314	3.142056	1.064557	0.000126
 380	3.7711e+01	15.0926	53.629311	0.000375	3.750196	1.270601	0.000150
 381	3.7810e+01	15.1311	53.718128	0.000223	2.229846	0.755492	0.000089
 382	3.7910e+01	15.1744	53.823094	0.000264	2.635273	0.892855	0.000105
 383	3.8009e+01	15.2065	53.932096	0.000274	2.736630	0.927195	0.000110
 384	3.8108e+01	15.2482	54.069359	0.000345	3.446126	1.167579	0.000138
 385	3.8208e+01	15.2851	54.198547	0.000324	3.243413	1.098898	0.000130
 386	3.8307e+01	15.3333	54.327736	0.000324	3.243413	1.098898	0.000130
 387	3.8407e+01	15.3766	54.432701	0.000264	2.635273	0.892855	0.000105
 388	3.8507e+01	15.4135	54.509407	0.000193	1.925776	0.652471	0.000077
 389	3.8606e+01	15.4552	54.630521	0.000304	3.040699	1.030217	0.000122
 390	3.8706e+01	15.4825	54.779895	0.000375	3.750196	1.270601	0.000150
 391	3.8805e+01	15.5242	54.917157	0.000345	3.446126	1.167579	0.000138
 392	3.8904e+01	15.5627	54.985789	0.000172	1.723063	0.583790	0.000069
 393	3.9004e+01	15.6076	55.119014	0.000334	3.344769	1.133239	0.000134
 394	3.9103e+01	15.6413	55.223980	0.000264	2.635273	0.892855	0.000105
 395	3.9203e+01	15.6894	55.332982	0.000274	2.736630	0.927195	0.000110
 396	3.9303e+01	15.7279	55.437948	0.000264	2.635273	0.892855	0.000105
 397	3.9402e+01	15.7648	55.587322	0.000375	3.750196	1.270601	0.000150
 398	3.9502e+01	15.8097	55.736696	0.000375	3.750196	1.270601	0.000150
 399	3.9601e+01	15.8450	55.789179	0.000132	1.317636	0.446427	0.000053
 400	3.9700e+01	15.8915	55.902219	0.000284	2.837986	0.961536	0.000114
 401	3.9800e+01	15.9397	56.039481	0.000345	3.446126	1.167579	0.000138
 402	3.9900e+01	15.9717	56.136372	0.000243	2.432560	0.824173	0.000097
 403	3.9999e+01	16.0022	56.241338	0.000264	2.635273	0.892855	0.000105
 404	4.0099e+01	16.0552	56.402823	0.000405	4.054266	1.373622	0.000162
 405	4.0198e+01	16.0824	56.507789	0.000264	2.635273	0.892855	0.000105
 406	4.0297e+01	16.1257	56.608717	0.000253	2.533916	0.858514	0.000101
 407	4.0397e+01	16.1659	56.693497	0.000213	2.128490	0.721152	0.000085
 408	4.0496e+01	16.2124	56.822686	0.000324	3.243413	1.098898	0.000130
 409	4.0596e+01	16.2477	56.963985	0.000355	3.547483	1.201920	0.000142
 410	4.0696e+01	16.2862	57.101248	0.000345	3.446126	1.167579	0.000138
 411	4.0795e+01	16.3311	57.214288	0.000284	2.837986	0.961536	0.000114
 412	4.0895e+01	16.3600	57.307142	0.000233	2.331203	0.789833	0.000093
 413	4.0994e+01	16.3953	57.456516	0.000375	3.750196	1.270601	0.000150
 414	4.1093e+01	16.4514	57.553407	0.000243	2.432560	0.824173	0.000097
 415	4.1193e+01	16.4867	57.670484	0.000294	2.939343	0.995876	0.000118
 416	4.1292e+01	16.5220	57.791598	0.000304	3.040699	1.030217	0.000122
 417	4.1392e+01	16.5701	57.888489	0.000243	2.432560	0.824173	0.000097
 418	4.1492e+01	16.5974	58.025752	0.000345	3.446126	1.167579	0.000138
 419	4.1591e+01	16.6455	58.122643	0.000243	2.432560	0.824173	0.000097
 420	4.1691e+01	16.6872	58.223572	0.000253	2.533916	0.858514	0.000101
 421	4.1790e+01	16.7289	58.385057	0.000405	4.054266	1.373622	0.000162
 422	4.1889e+01	16.7658	58.465800	0.000203	2.027133	0.686811	0.000081
 423	4.1989e+01	16.8108	58.619211	0.000385	3.851553	1.304941	0.000154
 424	4.2089e+01	16.8428	58.732251	0.000284	2.837986	0.961536	0.000114
 425	4.2188e+01	16.8781	58.833179	0.000253	2.533916	0.858514	0.000101
 426	4.2288e+01	16.9214	58.950256	0.000294	2.939343	0.995876	0.000118
 427	4.2387e+01	16.9648	59.055222	0.000264	2.635273	0.892855	0.000105
 428	4.2486e+01	17.0049	59.188447	0.000334	3.344769	1.133239	0.000134
 429	4.2586e+01	17.0498	59.301487	0.000284	2.837986	0.961536	0.000114
 430	4.2685e+01	17.0787	59.382230	0.000203	2.027133	0.686811	0.000081
 431	4.2785e+01	17.1172	59.547752	0.000416	4.155623	1.407963	0.000166
 432	4.2885e+01	17.1637	59.656755	0.000274	2.736630	0.927195	0.000110
 433	4.2984e+01	17.2006	59.757683	0.000253	2.533916	0.858514	0.000101
 434	4.3084e+01	17.2407	59.886872	0.000324	3.243413	1.098898	0.000130
 435	4.3183e+01	17.2824	60.020097	0.000334	3.344769	1.133239	0.000134
 436	4.3282e+01	17.3177	60.137174	0.000294	2.939343	0.995876	0.000118
 437	4.3382e+01	17.3690	60.238102	0.000253	2.533916	0.858514	0.000101
 438	4.3481e+01	17.3963	60.347105	0.000274	2.736630	0.927195	0.000110
 439	4.3581e+01	17.4460	60.472256	0.000314	3.142056	1.064557	0.000126
 440	4.3681e+01	17.4829	60.569147	0.000243	2.432560	0.824173	0.000097
 441	4.3780e+01	17.5198	60.657964	0.000223	2.229846	0.755492	0.000089
 442	4.3880e+01	17.5663	60.807338	0.000375	3.750196	1.270601	0.000150
 443	4.3979e+01	17.6000	60.936527	0.000324	3.243413	1.098898	0.000130
 444	4.4078e+01	17.6321	61.029381	0.000233	2.331203	0.789833	0.000093
 445	4.4178e+01	17.6786	61.170681	0.000355	3.547483	1.201920	0.000142
 446	4.4278e+01	17.7236	61.291795	0.000304	3.040699	1.030217	0.000122
 447	4.4377e+01	17.7589	61.352352	0.000152	1.520350	0.515108	0.000061
 448	4.4477e+01	17.8070	61.481540	0.000324	3.243413	1.098898	0.000130
 449	4.4576e+01	17.8343	61.622840	0.000355	3.547483	1.201920	0.000142
 450	4.4675e+01	17.8760	61.707620	0.000213	2.128490	0.721152	0.000085
 451	4.4775e+01	17.9113	61.844882	0.000345	3.446126	1.167579	0.000138
 452	4.4874e+01	17.9530	61.945811	0.000253	2.533916	0.858514	0.000101
 453	4.4974e+01	17.9995	62.066925	0.000304	3.040699	1.030217	0.000122
 454	4.5074e+01	18.0332	62.175928	0.000274	2.736630	0.927195	0.000110
 455	4.5173e+01	18.0813	62.276856	0.000253	2.533916	0.858514	0.000101
 456	4.5273e+01	18.1246	62.426230	0.000375	3.750196	1.270601	0.000150
 457	4.5372e+01	18.1583	62.511010	0.000213	2.128490	0.721152	0.000085
 458	4.5471e+01	18.1984	62.628087	0.000294	2.939343	0.995876	0.000118
 459	4.5571e+01	18.2369	62.737089	0.000274	2.736630	0.927195	0.000110
 460	4.5670e+01	18.2802	62.854166	0.000294	2.939343	0.995876	0.000118
 461	4.5770e+01	18.3075	62.983355	0.000324	3.243413	1.098898	0.000130
 462	4.5870e+01	18.3620	63.084283	0.000253	2.533916	0.858514	0.000101
 463	4.5969e+01	18.4006	63.205397	0.000304	3.040699	1.030217	0.000122
 464	4.6069e+01	18.4278	63.350734	0.000365	3.648839	1.236260	0.000146
 465	4.6168e+01	18.4808	63.435514	0.000213	2.128490	0.721152	0.000085
 466	4.6267e+01	18.5193	63.544517	0.000274	2.736630	0.927195	0.000110
 467	4.6367e+01	18.5578	63.633334	0.000223	2.229846	0.755492	0.000089
 468	4.6467e+01	18.6059	63.750410	0.000294	2.939343	0.995876	0.000118
 469	4.6566e+01	18.6444	63.867487	0.000294	2.939343	0.995876	0.000118
 470	4.6666e+01	18.6717	63.992639	0.000314	3.142056	1.064557	0.000126
 471	4.6765e+01	18.7166	64.113753	0.000304	3.040699	1.030217	0.000122
 472	4.6864e+01	18.7535	64.234867	0.000304	3.040699	1.030217	0.000122
 473	4.6964e+01	18.7920	64.287349	0.000132	1.317636	0.446427	0.000053
 474	4.7063e+01	18.8289	64.412501	0.000314	3.142056	1.064557	0.000126
 475	4.7163e+01	18.8754	64.541689	0.000324	3.243413	1.098898	0.000130
 476	4.7263e+01	18.9203	64.658766	0.000294	2.939343	0.995876	0.000118
 477	4.7362e+01	18.9636	64.763732	0.000264	2.635273	0.892855	0.000105
 478	4.7462e+01	18.9973	64.868697	0.000264	2.635273	0.892855	0.000105
 479	4.7561e+01	19.0406	65.001923	0.000334	3.344769	1.133239	0.000134
 480	4.7660e+01	19.0727	65.127074	0.000314	3.142056	1.064557	0.000126
 481	4.7760e+01	19.1144	65.211854	0.000213	2.128490	0.721152	0.000085
 482	4.7859e+01	19.1561	65.341042	0.000324	3.243413	1.098898	0.000130
 483	4.7959e+01	19.1898	65.437933	0.000243	2.432560	0.824173	0.000097
 484	4.8059e+01	19.2380	65.550973	0.000284	2.837986	0.961536	0.000114
 485	4.8158e+01	19.2765	65.700347	0.000375	3.750196	1.270601	0.000150
 486	4.8258e+01	19.3102	65.760904	0.000152	1.520350	0.515108	0.000061
 487	4.8357e+01	19.3487	65.886055	0.000314	3.142056	1.064557	0.000126
 488	4.8456e+01	19.3920	65.999095	0.000284	2.837986	0.961536	0.000114
 489	4.8556e+01	19.4353	66.124246	0.000314	3.142056	1.064557	0.000126
 490	4.8656e+01	19.4786	66.245360	0.000304	3.040699	1.030217	0.000122
 491	4.8755e+01	19.5123	66.350326	0.000264	2.635273	0.892855	0.000105
 492	4.8855e+01	19.5508	66.463366	0.000284	2.837986	0.961536	0.000114
 493	4.8954e+01	19.5957	66.572368	0.000274	2.736630	0.927195	0.000110
 494	4.9053e+01	19.6246	66.669260	0.000243	2.432560	0.824173	0.000097
 495	4.9153e+01	19.6583	66.806522	0.000345	3.446126	1.167579	0.000138
 496	4.9252e+01	19.7080	66.923599	0.000294	2.939343	0.995876	0.000118
 497	4.9352e+01	19.7513	67.036639	0.000284	2.837986	0.961536	0.000114
 498	4.9452e+01	19.7962	67.109307	0.000182	1.824420	0.618130	0.000073
 499	4.9551e+01	19.8203	67.226384	0.000294	2.939343	0.995876	0.000118
 500	4.9651e+01	19.8716	67.351536	0.000314	3.142056	1.064557	0.000126
 501	4.9750e+01	19.9101	67.468612	0.000294	2.939343	0.995876	0.000118
 502	4.9849e+01	19.9486	67.577615	0.000274	2.736630	0.927195	0.000110
 503	4.9949e+01	19.9903	67.682581	0.000264	2.635273	0.892855	0.000105
 504	5.0048e+01	19.9470	67.662395	0.000051	0.506783	0.171703	-0.000020
 505	5.0148e+01	19.9214	67.577615	0.000213	2.128490	0.721152	-0.000085
 506	5.0248e+01	19.8716	67.492835	0.000213	2.128490	0.721152	-0.000085
 507	5.0347e+01	19.8363	67.408055	0.000213	2.128490	0.721152	-0.000085
 508	5.0447e+01	19.7914	67.339424	0.000172	1.723063	0.583790	-0.000069
 509	5.0546e+01	19.7465	67.242533	0.000243	2.432560	0.824173	-0.000097
 510	5.0645e+01	19.7176	67.230421	0.000030	0.304070	0.103022	-0.000012
 511	5.0745e+01	19.6711	67.129493	0.000253	2.533916	0.858514	-0.000101
 512	5.0844e+01	19.6374	67.064899	0.000162	1.621706	0.549449	-0.000065
 513	5.0944e+01	19.5957	66.980119	0.000213	2.128490	0.721152	-0.000085
 514	5.1044e+01	19.5572	66.915525	0.000162	1.621706	0.549449	-0.000065
 515	5.1143e+01	19.5107	66.778262	0.000345	3.446126	1.167579	-0.000138
 516	5.1242e+01	19.4738	66.750002	0.000071	0.709497	0.240384	-0.000028
 517	5.1342e+01	19.4321	66.661185	0.000223	2.229846	0.755492	-0.000089
 518	5.1441e+01	19.4016	66.580443	0.000203	2.027133	0.686811	-0.000081
 519	5.1541e+01	19.3551	66.523923	0.000142	1.418993	0.480768	-0.000057
 520	5.1641e+01	19.3182	66.439143	0.000213	2.128490	0.721152	-0.000085
 521	5.1740e+01	19.2829	66.358400	0.000203	2.027133	0.686811	-0.000081
 522	5.1840e+01	19.2331	66.261509	0.000243	2.432560	0.824173	-0.000097
 523	5.1939e+01	19.1962	66.136358	0.000314	3.142056	1.064557	-0.000126
 524	5.2038e+01	19.1577	66.104061	0.000081	0.810853	0.274724	-0.000032
 525	5.2138e+01	19.1128	65.982947	0.000304	3.040699	1.030217	-0.000122
 526	5.2237e+01	19.0711	65.930464	0.000132	1.317636	0.446427	-0.000053
 527	5.2337e+01	19.0374	65.821461	0.000274	2.736630	0.927195	-0.000110
 528	5.2437e+01	19.0021	65.773015	0.000122	1.216280	0.412087	-0.000049
 529	5.2536e+01	18.9540	65.672087	0.000253	2.533916	0.858514	-0.000101
 530	5.2636e+01	18.9139	65.579233	0.000233	2.331203	0.789833	-0.000093
 531	5.2735e+01	18.8738	65.490416	0.000223	2.229846	0.755492	-0.000089
 532	5.2834e+01	18.8417	65.409673	0.000203	2.027133	0.686811	-0.000081
 533	5.2934e+01	18.7984	65.324893	0.000213	2.128490	0.721152	-0.000085
 534	5.3033e+01	18.7535	65.280485	0.000111	1.114923	0.377746	-0.000045
 535	5.3133e+01	18.7166	65.171482	0.000274	2.736630	0.927195	-0.000110
 536	5.3233e+01	18.6765	65.082665	0.000223	2.229846	0.755492	-0.000089
 537	5.3332e+01	18.6396	64.997885	0.000213	2.128490	0.721152	-0.000085
 538	5.3431e+01	18.6011	64.900994	0.000243	2.432560	0.824173	-0.000097
 539	5.3531e+01	18.5626	64.775843	0.000314	3.142056	1.064557	-0.000126
 540	5.3630e+01	18.5161	64.711249	0.000162	1.621706	0.549449	-0.000065
 541	5.3730e+01	18.4711	64.642617	0.000172	1.723063	0.583790	-0.000069
 542	5.3830e+01	18.4374	64.569949	0.000182	1.824420	0.618130	-0.000073
 543	5.3929e+01	18.4038	64.477095	0.000233	2.331203	0.789833	-0.000093
 544	5.4029e+01	18.3556	64.384241	0.000233	2.331203	0.789833	-0.000093
 545	5.4128e+01	18.3203	64.311572	0.000182	1.824420	0.618130	-0.000073
 546	5.4227e+01	18.2754	64.198533	0.000284	2.837986	0.961536	-0.000114
 547	5.4327e+01	18.2433	64.142013	0.000142	1.418993	0.480768	-0.000057
 548	5.4426e+01	18.1968	64.045121	0.000243	2.432560	0.824173	-0.000097
 549	5.4526e+01	18.1487	63.956304	0.000223	2.229846	0.755492	-0.000089
 550	5.4626e+01	18.1166	63.851339	0.000264	2.635273	0.892855	-0.000105
 551	5.4725e+01	18.0781	63.770596	0.000203	2.027133	0.686811	-0.000081
 552	5.4825e+01	18.0476	63.681779	0.000223	2.229846	0.755492	-0.000089
 553	5.4924e+01	17.9979	63.592962	0.000223	2.229846	0.755492	-0.000089
 554	5.5023e+01	17.9514	63.500108	0.000233	2.331203	0.789833	-0.000093
 555	5.5123e+01	17.9129	63.403217	0.000243	2.432560	0.824173	-0.000097
 556	5.5222e+01	17.8712	63.306326	0.000243	2.432560	0.824173	-0.000097
 557	5.5322e+01	17.8407	63.221546	0.000213	2.128490	0.721152	-0.000085
 558	5.5422e+01	17.8070	63.152914	0.000172	1.723063	0.583790	-0.000069
 559	5.5521e+01	17.7637	63.051986	0.000253	2.533916	0.858514	-0.000101
 560	5.5620e+01	17.7123	62.951058	0.000253	2.533916	0.858514	-0.000101
 561	5.5720e+01	17.6819	62.882426	0.000172	1.723063	0.583790	-0.000069
 562	5.5819e+01	17.6321	62.789572	0.000233	2.331203	0.789833	-0.000093
 563	5.5919e+01	17.5984	62.676532	0.000284	2.837986	0.961536	-0.000114
 564	5.6019e+01	17.5567	62.607901	0.000172	1.723063	0.583790	-0.000069
 565	5.6118e+01	17.5198	62.539270	0.000172	1.723063	0.583790	-0.000069
 566	5.6218e+01	17.4893	62.414119	0.000314	3.142056	1.064557	-0.000126
 567	5.6317e+01	17.4460	62.329339	0.000213	2.128490	0.721152	-0.000085
 568	5.6416e+01	17.3915	62.248596	0.000203	2.027133	0.686811	-0.000081
 569	5.6516e+01	17.3562	62.139593	0.000274	2.736630	0.927195	-0.000110
 570	5.6615e+01	17.3289	62.054813	0.000213	2.128490	0.721152	-0.000085
 571	5.6715e+01	17.2824	61.970034	0.000213	2.128490	0.721152	-0.000085
 572	5.6815e+01	17.2471	61.869105	0.000253	2.533916	0.858514	-0.000101
 573	5.6914e+01	17.1958	61.788362	0.000203	2.027133	0.686811	-0.000081
 574	5.7014e+01	17.1653	61.683397	0.000264	2.635273	0.892855	-0.000105
 575	5.7113e+01	17.1236	61.586506	0.000243	2.432560	0.824173	-0.000097
 576	5.7212e+01	17.0867	61.517874	0.000172	1.723063	0.583790	-0.000069
 577	5.7312e+01	17.0466	61.441169	0.000193	1.925776	0.652471	-0.000077
 578	5.7411e+01	17.0017	61.324092	0.000294	2.939343	0.995876	-0.000118
 579	5.7511e+01	16.9648	61.227201	0.000243	2.432560	0.824173	-0.000097
 580	5.7611e+01	16.9263	61.154532	0.000182	1.824420	0.618130	-0.000073
 581	5.7710e+01	16.8878	61.045529	0.000274	2.736630	0.927195	-0.000110
 582	5.7809e+01	16.8428	60.940564	0.000264	2.635273	0.892855	-0.000105
 583	5.7909e+01	16.8043	60.863858	0.000193	1.925776	0.652471	-0.000077
 584	5.8008e+01	16.7755	60.787153	0.000193	1.925776	0.652471	-0.000077
 585	5.8108e+01	16.7386	60.698336	0.000223	2.229846	0.755492	-0.000089
 586	5.8208e+01	16.6840	60.601445	0.000243	2.432560	0.824173	-0.000097
 587	5.8307e+01	16.6455	60.476293	0.000314	3.142056	1.064557	-0.000126
 588	5.8407e+01	16.6006	60.371328	0.000264	2.635273	0.892855	-0.000105
 589	5.8506e+01	16.5637	60.314808	0.000142	1.418993	0.480768	-0.000057
 590	5.8605e+01	16.5204	60.201768	0.000284	2.837986	0.961536	-0.000114
 591	5.8705e+01	16.4883	60.137174	0.000162	1.621706	0.549449	-0.000065
 592	5.8804e+01	16.4434	60.052394	0.000213	2.128490	0.721152	-0.000085
 593	5.8904e+01	16.4065	59.927243	0.000314	3.142056	1.064557	-0.000126
 594	5.9004e+01	16.3680	59.834389	0.000233	2.331203	0.789833	-0.000093
 595	5.9103e+01	16.3167	59.761720	0.000182	1.824420	0.618130	-0.000073
 596	5.9203e+01	16.2926	59.656755	0.000264	2.635273	0.892855	-0.000105
 597	5.9302e+01	16.2477	59.567938	0.000223	2.229846	0.755492	-0.000089
 598	5.9401e+01	16.2060	59.503344	0.000162	1.621706	0.549449	-0.000065
 599	5.9501e+01	16.1707	59.362044	0.000355	3.547483	1.201920	-0.000142
 600	5.9600e+01	16.1225	59.297450	0.000162	1.621706	0.549449	-0.000065
 601	5.9700e+01	16.0792	59.192484	0.000264	2.635273	0.892855	-0.000105
 602	5.9800e+01	16.0407	59.083482	0.000274	2.736630	0.927195	-0.000110
 603	5.9899e+01	16.0054	58.978516	0.000264	2.635273	0.892855	-0.000105
 604	5.9998e+01	15.9589	58.917959	0.000152	1.520350	0.515108	-0.000061
 605	6.0098e+01	15.9300	58.812993	0.000264	2.635273	0.892855	-0.000105
 606	6.0197e+01	15.8883	58.740325	0.000182	1.824420	0.618130	-0.000073
 607	6.0297e+01	15.8594	58.599025	0.000355	3.547483	1.201920	-0.000142
 608	6.0397e+01	15.8065	58.518283	0.000203	2.027133	0.686811	-0.000081
 609	6.0496e+01	15.7728	58.433503	0.000213	2.128490	0.721152	-0.000085
 610	6.0596e+01	15.7375	58.328537	0.000264	2.635273	0.892855	-0.000105
 611	6.0695e+01	15.6926	58.247794	0.000203	2.027133	0.686811	-0.000081
 612	6.0794e+01	15.6541	58.150903	0.000243	2.432560	0.824173	-0.000097
 613	6.0894e+01	15.6028	58.021715	0.000324	3.243413	1.098898	-0.000130
 614	6.0993e+01	15.5643	57.961158	0.000152	1.520350	0.515108	-0.000061
 615	6.1093e+01	15.5322	57.831969	0.000324	3.243413	1.098898	-0.000130
 616	6.1193e+01	15.4905	57.722967	0.000274	2.736630	0.927195	-0.000110
 617	6.1292e+01	15.4520	57.650298	0.000182	1.824420	0.618130	-0.000073
 618	6.1392e+01	15.4087	57.533221	0.000294	2.939343	0.995876	-0.000118
 619	6.1491e+01	15.3621	57.468627	0.000162	1.621706	0.549449	-0.000065
 620	6.1590e+01	15.3300	57.339439	0.000324	3.243413	1.098898	-0.000130
 621	6.1690e+01	15.2883	57.238510	0.000253	2.533916	0.858514	-0.000101
 622	6.1789e+01	15.2450	57.141619	0.000243	2.432560	0.824173	-0.000097
 623	6.1889e+01	15.2194	57.036654	0.000264	2.635273	0.892855	-0.000105
 624	6.1989e+01	15.1696	56.931688	0.000264	2.635273	0.892855	-0.000105
 625	6.2088e+01	15.1279	56.830760	0.000253	2.533916	0.858514	-0.000101
 626	6.2188e+01	15.0942	56.754054	0.000193	1.925776	0.652471	-0.000077
 627	6.2287e+01	15.0461	56.608717	0.000365	3.648839	1.236260	-0.000146
 628	6.2386e+01	15.0060	56.491640	0.000294	2.939343	0.995876	-0.000118
 629	6.2486e+01	14.9691	56.423009	0.000172	1.723063	0.583790	-0.000069
 630	6.2586e+01	14.9290	56.322081	0.000253	2.533916	0.858514	-0.000101
 631	6.2685e+01	14.9001	56.196929	0.000314	3.142056	1.064557	-0.000126
 632	6.2785e+01	14.8488	56.100038	0.000243	2.432560	0.824173	-0.000097
 633	6.2884e+01	14.8055	56.011221	0.000223	2.229846	0.755492	-0.000089
 634	6.2983e+01	14.7686	55.894144	0.000294	2.939343	0.995876	-0.000118
 635	6.3083e+01	14.7381	55.801290	0.000233	2.331203	0.789833	-0.000093
 636	6.3182e+01	14.7012	55.688250	0.000284	2.837986	0.961536	-0.000114
 637	6.3282e+01	14.6466	55.591359	0.000243	2.432560	0.824173	-0.000097
 638	6.3382e+01	14.6114	55.490431	0.000253	2.533916	0.858514	-0.000101
 639	6.3481e+01	14.5696	55.381428	0.000274	2.736630	0.927195	-0.000110
 640	6.3581e+01	14.5376	55.304722	0.000193	1.925776	0.652471	-0.000077
 641	6.3680e+01	14.5007	55.187646	0.000294	2.939343	0.995876	-0.000118
 642	6.3779e+01	14.4477	55.070569	0.000294	2.939343	0.995876	-0.000118
 643	6.3879e+01	14.4140	54.961566	0.000274	2.736630	0.927195	-0.000110
 644	6.3978e+01	14.3755	54.868712	0.000233	2.331203	0.789833	-0.000093
 645	6.4078e+01	14.3354	54.775858	0.000233	2.331203	0.789833	-0.000093
 646	6.4177e+01	14.2905	54.642632	0.000334	3.344769	1.133239	-0.000134
 647	6.4277e+01	14.2552	54.553815	0.000223	2.229846	0.755492	-0.000089
 648	6.4376e+01	14.2087	54.420590	0.000334	3.344769	1.133239	-0.000134
 649	6.4476e+01	14.1702	54.368107	0.000132	1.317636	0.446427	-0.000053
 650	6.4576e+01	14.1365	54.198547	0.000426	4.256979	1.442304	-0.000170
 651	6.4675e+01	14.0996	54.121842	0.000193	1.925776	0.652471	-0.000077
 652	6.4775e+01	14.0499	54.008802	0.000284	2.837986	0.961536	-0.000114
 653	6.4874e+01	14.0178	53.928059	0.000203	2.027133	0.686811	-0.000081
 654	6.4974e+01	13.9697	53.827131	0.000253	2.533916	0.858514	-0.000101
 655	6.5073e+01	13.9328	53.693905	0.000334	3.344769	1.133239	-0.000134
 656	6.5172e+01	13.8959	53.584903	0.000274	2.736630	0.927195	-0.000110
 657	6.5272e+01	13.8542	53.508197	0.000193	1.925776	0.652471	-0.000077
 658	6.5371e+01	13.8221	53.370934	0.000345	3.446126	1.167579	-0.000138
 659	6.5471e+01	13.7804	53.261932	0.000274	2.736630	0.927195	-0.000110
 660	6.5570e+01	13.7322	53.193300	0.000172	1.723063	0.583790	-0.000069
 661	6.5670e+01	13.6889	53.023741	0.000426	4.256979	1.442304	-0.000170
 662	6.5769e+01	13.6616	52.959147	0.000162	1.621706	0.549449	-0.000065
 663	6.5869e+01	13.6135	52.842070	0.000294	2.939343	0.995876	-0.000118
 664	6.5969e+01	13.5734	52.700770	0.000355	3.547483	1.201920	-0.000142
 665	6.6068e+01	13.5333	52.595804	0.000264	2.635273	0.892855	-0.000105
 666	6.6168e+01	13.4980	52.502950	0.000233	2.331203	0.789833	-0.000093
 667	6.6267e+01	13.4483	52.393948	0.000274	2.736630	0.927195	-0.000110
 668	6.6367e+01	13.4226	52.293019	0.000253	2.533916	0.858514	-0.000101
 669	6.6466e+01	13.3793	52.196128	0.000243	2.432560	0.824173	-0.000097
 670	6.6566e+01	13.3376	52.050791	0.000365	3.648839	1.236260	-0.000146
 671	6.6665e+01	13.2975	51.953900	0.000243	2.432560	0.824173	-0.000097
 672	6.6764e+01	13.2510	51.844897	0.000274	2.736630	0.927195	-0.000110
 673	6.6864e+01	13.2109	51.756080	0.000223	2.229846	0.755492	-0.000089
 674	6.6963e+01	13.1836	51.618818	0.000345	3.446126	1.167579	-0.000138
 675	6.7063e+01	13.1403	51.509815	0.000274	2.736630	0.927195	-0.000110
 676	6.7162e+01	13.0970	51.360441	0.000375	3.750196	1.270601	-0.000150
 677	6.7262e+01	13.0585	51.303921	0.000142	1.418993	0.480768	-0.000057
 678	6.7362e+01	13.0183	51.138398	0.000416	4.155623	1.407963	-0.000166
 679	6.7461e+01	12.9750	51.049581	0.000223	2.229846	0.755492	-0.000089
 680	6.7561e+01	12.9365	50.993062	0.000142	1.418993	0.480768	-0.000057
 681	6.7660e+01	12.8964	50.875985	0.000294	2.939343	0.995876	-0.000118
 682	6.7760e+01	12.8611	50.678165	0.000497	4.966476	1.682688	-0.000199
 683	6.7859e+01	12.8210	50.605496	0.000182	1.824420	0.618130	-0.000073
 684	6.7959e+01	12.7889	50.516679	0.000223	2.229846	0.755492	-0.000089
 685	6.8058e+01	12.7424	50.387491	0.000324	3.243413	1.098898	-0.000130
 686	6.8157e+01	12.7055	50.278488	0.000274	2.736630	0.927195	-0.000110
 687	6.8257e+01	12.6670	50.149300	0.000324	3.243413	1.098898	-0.000130
 688	6.8356e+01	12.6237	50.092780	0.000142	1.418993	0.480768	-0.000057
 689	6.8456e+01	12.5804	49.963592	0.000324	3.243413	1.098898	-0.000130
 690	6.8555e+01	12.5355	49.862664	0.000253	2.533916	0.858514	-0.000101
 691	6.8655e+01	12.5082	49.713289	0.000375	3.750196	1.270601	-0.000150
 692	6.8754e+01	12.4569	49.592175	0.000304	3.040699	1.030217	-0.000122
 693	6.8854e+01	12.4248	49.487210	0.000264	2.635273	0.892855	-0.000105
 694	6.8954e+01	12.3847	49.366096	0.000304	3.040699	1.030217	-0.000122
 695	6.9053e+01	12.3478	49.273242	0.000233	2.331203	0.789833	-0.000093
 696	6.9153e+01	12.3061	49.144053	0.000324	3.243413	1.098898	-0.000130
 697	6.9252e+01	12.2595	49.047162	0.000243	2.432560	0.824173	-0.000097
 698	6.9352e+01	12.2178	48.978531	0.000172	1.723063	0.583790	-0.000069
 699	6.9451e+01	12.1841	48.821082	0.000395	3.952909	1.339282	-0.000158
 700	6.9550e+01	12.1473	48.708043	0.000284	2.837986	0.961536	-0.000114
 701	6.9650e+01	12.1023	48.603077	0.000264	2.635273	0.892855	-0.000105
 702	6.9749e+01	12.0558	48.477926	0.000314	3.142056	1.064557	-0.000126
 703	6.9849e+01	12.0173	48.381035	0.000243	2.432560	0.824173	-0.000097
 704	6.9948e+01	11.9804	48.304329	0.000193	1.925776	0.652471	-0.000077
 705	7.0048e+01	11.9451	48.154955	0.000375	3.750196	1.270601	-0.000150
 706	7.0147e+01	11.9098	48.037878	0.000294	2.939343	0.995876	-0.000118
 707	7.0247e+01	11.8569	47.904653	0.000334	3.344769	1.133239	-0.000134
 708	7.0347e+01	11.8152	47.791613	0.000284	2.837986	0.961536	-0.000114
 709	7.0446e+01	11.7863	47.731056	0.000152	1.520350	0.515108	-0.000061
 710	7.0546e+01	11.7382	47.573608	0.000395	3.952909	1.339282	-0.000158
 711	7.0645e+01	11.7173	47.464605	0.000274	2.736630	0.927195	-0.000110
 712	7.0745e+01	11.6644	47.355602	0.000274	2.736630	0.927195	-0.000110
 713	7.0844e+01	11.6259	47.270822	0.000213	2.128490	0.721152	-0.000085
 714	7.0944e+01	11.5826	47.125485	0.000365	3.648839	1.236260	-0.000146
 715	7.1043e+01	11.5521	47.016483	0.000274	2.736630	0.927195	-0.000110
 716	7.1142e+01	11.5088	46.919592	0.000243	2.432560	0.824173	-0.000097
 717	7.1242e+01	11.4671	46.798477	0.000304	3.040699	1.030217	-0.000122
 718	7.1341e+01	11.4286	46.681401	0.000294	2.939343	0.995876	-0.000118
 719	7.1441e+01	11.3933	46.588546	0.000233	2.331203	0.789833	-0.000093
 720	7.1540e+01	11.3516	46.455321	0.000334	3.344769	1.133239	-0.000134
 721	7.1640e+01	11.3082	46.342281	0.000284	2.837986	0.961536	-0.000114
 722	7.1740e+01	11.2569	46.245390	0.000243	2.432560	0.824173	-0.000097
 723	7.1839e+01	11.2248	46.136387	0.000274	2.736630	0.927195	-0.000110
 724	7.1939e+01	11.1895	46.015273	0.000304	3.040699	1.030217	-0.000122
 725	7.2038e+01	11.1478	45.845713	0.000426	4.256979	1.442304	-0.000170
 726	7.2138e+01	11.1077	45.740748	0.000264	2.635273	0.892855	-0.000105
 727	7.2237e+01	11.0740	45.664042	0.000193	1.925776	0.652471	-0.000077
 728	7.2337e+01	11.0307	45.542928	0.000304	3.040699	1.030217	-0.000122
 729	7.2436e+01	10.9874	45.433926	0.000274	2.736630	0.927195	-0.000110
 730	7.2535e+01	10.9489	45.284552	0.000375	3.750196	1.270601	-0.000150
 731	7.2635e+01	10.9040	45.211883	0.000182	1.824420	0.618130	-0.000073
 732	7.2734e+01	10.8671	45.106918	0.000264	2.635273	0.892855	-0.000105
 733	7.2834e+01	10.8366	44.981766	0.000314	3.142056	1.064557	-0.000126
 734	7.2933e+01	10.7837	44.848541	0.000334	3.344769	1.133239	-0.000134
 735	7.3033e+01	10.7435	44.771835	0.000193	1.925776	0.652471	-0.000077
 736	7.3132e+01	10.7163	44.610350	0.000405	4.054266	1.373622	-0.000162
 737	7.3232e+01	10.6762	44.509422	0.000253	2.533916	0.858514	-0.000101
 738	7.3332e+01	10.6296	44.392345	0.000294	2.939343	0.995876	-0.000118
 739	7.3431e+01	10.5895	44.226822	0.000416	4.155623	1.407963	-0.000166
 740	7.3531e+01	10.5446	44.166265	0.000152	1.520350	0.515108	-0.000061
 741	7.3630e+01	10.5125	44.024965	0.000355	3.547483	1.201920	-0.000142
 742	7.3730e+01	10.4612	43.940185	0.000213	2.128490	0.721152	-0.000085
 743	7.3829e+01	10.4323	43.790811	0.000375	3.750196	1.270601	-0.000150
 744	7.3928e+01	10.3970	43.693920	0.000243	2.432560	0.824173	-0.000097
 745	7.4028e+01	10.3393	43.564732	0.000324	3.243413	1.098898	-0.000130
 746	7.4127e+01	10.3168	43.471878	0.000233	2.331203	0.789833	-0.000093
 747	7.4227e+01	10.2671	43.362875	0.000274	2.736630	0.927195	-0.000110
 748	7.4326e+01	10.2366	43.229649	0.000334	3.344769	1.133239	-0.000134
 749	7.4426e+01	10.1901	43.104498	0.000314	3.142056	1.064557	-0.000126
 750	7.4525e+01	10.1500	43.019718	0.000213	2.128490	0.721152	-0.000085
 751	7.4625e+01	10.1019	42.890530	0.000324	3.243413	1.098898	-0.000130
 752	7.4725e+01	10.0682	42.765379	0.000314	3.142056	1.064557	-0.000126
 753	7.4824e+01	10.0345	42.644265	0.000304	3.040699	1.030217	-0.000122
 754	7.4924e+01	9.9831	42.515076	0.000324	3.243413	1.098898	-0.000130
 755	7.5023e+01	9.9543	42.426259	0.000223	2.229846	0.755492	-0.000089
 756	7.5123e+01	9.9077	42.297071	0.000324	3.243413	1.098898	-0.000130
 757	7.5222e+01	9.8821	42.175957	0.000304	3.040699	1.030217	-0.000122
 758	7.5322e+01	9.8291	42.075029	0.000253	2.533916	0.858514	-0.000101
 759	7.5421e+01	9.7954	41.957952	0.000294	2.939343	0.995876	-0.000118
 760	7.5520e+01	9.7473	41.820689	0.000345	3.446126	1.167579	-0.000138
 761	7.5620e+01	9.7168	41.707649	0.000284	2.837986	0.961536	-0.000114
 762	7.5719e+01	9.6815	41.602684	0.000264	2.635273	0.892855	-0.000105
 763	7.5819e+01	9.6286	41.457347	0.000365	3.648839	1.236260	-0.000146
 764	7.5918e+01	9.5997	41.376604	0.000203	2.027133	0.686811	-0.000081
 765	7.6018e+01	9.5596	41.235304	0.000355	3.547483	1.201920	-0.000142
 766	7.6118e+01	9.5147	41.138413	0.000243	2.432560	0.824173	-0.000097
 767	7.6217e+01	9.4666	40.993076	0.000365	3.648839	1.236260	-0.000146
 768	7.6317e+01	9.4393	40.867925	0.000314	3.142056	1.064557	-0.000126
 769	7.6416e+01	9.3960	40.746811	0.000304	3.040699	1.030217	-0.000122
 770	7.6516e+01	9.3511	40.637808	0.000274	2.736630	0.927195	-0.000110
 771	7.6615e+01	9.3126	40.520731	0.000294	2.939343	0.995876	-0.000118
 772	7.6715e+01	9.2709	40.387506	0.000334	3.344769	1.133239	-0.000134
 773	7.6814e+01	9.2308	40.274466	0.000284	2.837986	0.961536	-0.000114
 774	7.6913e+01	9.1955	40.173538	0.000253	2.533916	0.858514	-0.000101
 775	7.7013e+01	9.1473	40.008015	0.000416	4.155623	1.407963	-0.000166
 776	7.7112e+01	9.1185	39.899012	0.000274	2.736630	0.927195	-0.000110
 777	7.7212e+01	9.0767	39.777898	0.000304	3.040699	1.030217	-0.000122
 778	7.7311e+01	9.0350	39.648710	0.000324	3.243413	1.098898	-0.000130
 779	7.7411e+01	8.9853	39.495299	0.000385	3.851553	1.304941	-0.000154
 780	7.7510e+01	8.9548	39.390333	0.000264	2.635273	0.892855	-0.000105
 781	7.7610e+01	8.9179	39.289405	0.000253	2.533916	0.858514	-0.000101
 782	7.7710e+01	8.8778	39.156180	0.000334	3.344769	1.133239	-0.000134
 783	7.7809e+01	8.8313	39.014880	0.000355	3.547483	1.201920	-0.000142
 784	7.7909e+01	8.7976	38.930100	0.000213	2.128490	0.721152	-0.000085
 785	7.8008e+01	8.7591	38.776689	0.000385	3.851553	1.304941	-0.000154
 786	7.8108e+01	8.7270	38.635389	0.000355	3.547483	1.201920	-0.000142
 787	7.8207e+01	8.6741	38.542535	0.000233	2.331203	0.789833	-0.000093
 788	7.8306e+01	8.6420	38.364901	0.000446	4.459693	1.510985	-0.000179
 789	7.8406e+01	8.5907	38.231675	0.000334	3.344769	1.133239	-0.000134
 790	7.8505e+01	8.5618	38.134784	0.000243	2.432560	0.824173	-0.000097
 791	7.8605e+01	8.5185	37.985410	0.000375	3.750196	1.270601	-0.000150
 792	7.8704e+01	8.4784	37.860259	0.000314	3.142056	1.064557	-0.000126
 793	7.8804e+01	8.4318	37.718959	0.000355	3.547483	1.201920	-0.000142
 794	7.8903e+01	8.3982	37.634179	0.000213	2.128490	0.721152	-0.000085
 795	7.9003e+01	8.3548	37.496917	0.000345	3.446126	1.167579	-0.000138
 796	7.9103e+01	8.3196	37.371766	0.000314	3.142056	1.064557	-0.000126
 797	7.9202e+01	8.2746	37.242577	0.000324	3.243413	1.098898	-0.000130
 798	7.9302e+01	8.2345	37.085129	0.000395	3.952909	1.339282	-0.000158
 799	7.9401e+01	8.2024	37.008423	0.000193	1.925776	0.652471	-0.000077
 800	7.9501e+01	8.1527	36.834826	0.000436	4.358336	1.476644	-0.000174
 801	7.9600e+01	8.1222	36.677378	0.000395	3.952909	1.339282	-0.000158
 802	7.9700e+01	8.0773	36.548190	0.000324	3.243413	1.098898	-0.000130
 803	7.9799e+01	8.0468	36.398816	0.000375	3.750196	1.270601	-0.000150
 804	7.9898e+01	8.0051	36.318073	0.000203	2.027133	0.686811	-0.000081
 805	7.9998e+01	7.9586	36.160625	0.000395	3.952909	1.339282	-0.000158
 806	8.0097e+01	7.9201	35.999139	0.000405	4.054266	1.373622	-0.000162
 807	8.0197e+01	7.8864	35.886100	0.000284	2.837986	0.961536	-0.000114
 808	8.0296e+01	7.8335	35.764986	0.000304	3.040699	1.030217	-0.000122
 809	8.0396e+01	7.7934	35.668094	0.000243	2.432560	0.824173	-0.000097
 810	8.0496e+01	7.7581	35.542943	0.000314	3.142056	1.064557	-0.000126
 811	8.0595e+01	7.7196	35.381458	0.000405	4.054266	1.373622	-0.000162
 812	8.0695e+01	7.6843	35.240158	0.000355	3.547483	1.201920	-0.000142
 813	8.0794e+01	7.6474	35.123081	0.000294	2.939343	0.995876	-0.000118
 814	8.0894e+01	7.6025	34.953521	0.000426	4.256979	1.442304	-0.000170
 815	8.0993e+01	7.5527	34.824333	0.000324	3.243413	1.098898	-0.000130
 816	8.1093e+01	7.5206	34.691107	0.000334	3.344769	1.133239	-0.000134
 817	8.1192e+01	7.4854	34.565956	0.000314	3.142056	1.064557	-0.000126
 818	8.1291e+01	7.4404	34.436768	0.000324	3.243413	1.098898	-0.000130
 819	8.1391e+01	7.3939	34.279320	0.000395	3.952909	1.339282	-0.000158
 820	8.1490e+01	7.3570	34.133983	0.000365	3.648839	1.236260	-0.000146
 821	8.1590e+01	7.3233	33.976534	0.000395	3.952909	1.339282	-0.000158
 822	8.1689e+01	7.2800	33.887717	0.000223	2.229846	0.755492	-0.000089
 823	8.1789e+01	7.2479	33.750455	0.000345	3.446126	1.167579	-0.000138
 824	8.1888e+01	7.1950	33.629341	0.000304	3.040699	1.030217	-0.000122
 825	8.1988e+01	7.1581	33.471892	0.000395	3.952909	1.339282	-0.000158
 826	8.2088e+01	7.1100	33.342704	0.000324	3.243413	1.098898	-0.000130
 827	8.2187e+01	7.0811	33.213516	0.000324	3.243413	1.098898	-0.000130
 828	8.2287e+01	7.0378	33.060105	0.000385	3.851553	1.304941	-0.000154
 829	8.2386e+01	7.0025	32.926879	0.000334	3.344769	1.133239	-0.000134
 830	8.2486e+01	6.9592	32.825951	0.000253	2.533916	0.858514	-0.000101
 831	8.2585e+01	6.9191	32.620057	0.000517	5.169189	1.751369	-0.000207
 832	8.2684e+01	6.8838	32.462608	0.000395	3.952909	1.339282	-0.000158
 833	8.2784e+01	6.8372	32.353606	0.000274	2.736630	0.927195	-0.000110
 834	8.2883e+01	6.8003	32.216343	0.000345	3.446126	1.167579	-0.000138
 835	8.2983e+01	6.7570	32.038709	0.000446	4.459693	1.510985	-0.000179
 836	8.3082e+01	6.7169	31.937781	0.000253	2.533916	0.858514	-0.000101
 837	8.3182e+01	6.6832	31.796481	0.000355	3.547483	1.201920	-0.000142
 838	8.3281e+01	6.6415	31.683441	0.000284	2.837986	0.961536	-0.000114
 839	8.3381e+01	6.6078	31.477547	0.000517	5.169189	1.751369	-0.000207
 840	8.3481e+01	6.5645	31.348359	0.000324	3.243413	1.098898	-0.000130
 841	8.3580e+01	6.5276	31.190911	0.000395	3.952909	1.339282	-0.000158
 842	8.3680e+01	6.4747	31.069797	0.000304	3.040699	1.030217	-0.000122
 843	8.3779e+01	6.4362	30.936571	0.000334	3.344769	1.133239	-0.000134
 844	8.3879e+01	6.4025	30.775086	0.000405	4.054266	1.373622	-0.000162
 845	8.3978e+01	6.3656	30.641860	0.000334	3.344769	1.133239	-0.000134
 846	8.4078e+01	6.3223	30.488449	0.000385	3.851553	1.304941	-0.000154
 847	8.4177e+01	6.2886	30.347149	0.000355	3.547483	1.201920	-0.000142
 848	8.4276e+01	6.2501	30.209887	0.000345	3.446126	1.167579	-0.000138
 849	8.4376e+01	6.2132	30.080698	0.000324	3.243413	1.098898	-0.000130
 850	8.4475e+01	6.1667	29.915176	0.000416	4.155623	1.407963	-0.000166
 851	8.4575e+01	6.1266	29.777913	0.000345	3.446126	1.167579	-0.000138
 852	8.4674e+01	6.0800	29.640651	0.000345	3.446126	1.167579	-0.000138
 853	8.4774e+01	6.0447	29.483202	0.000395	3.952909	1.339282	-0.000158
 854	8.4874e+01	5.9982	29.325754	0.000395	3.952909	1.339282	-0.000158
 855	8.4973e+01	5.9694	29.220788	0.000264	2.635273	0.892855	-0.000105
 856	8.5073e+01	5.9341	28.990672	0.000578	5.777329	1.957412	-0.000231
 857	8.5172e+01	5.8907	28.889743	0.000253	2.533916	0.858514	-0.000101
 858	8.5272e+01	5.8474	28.760555	0.000324	3.243413	1.098898	-0.000130
 859	8.5371e+01	5.8009	28.615218	0.000365	3.648839	1.236260	-0.000146
 860	8.5471e+01	5.7720	28.473918	0.000355	3.547483	1.201920	-0.000142
 861	8.5570e+01	5.7271	28.296284	0.000446	4.459693	1.510985	-0.000179
 862	8.5669e+01	5.6886	28.163059	0.000334	3.344769	1.133239	-0.000134
 863	8.5769e+01	5.6485	28.017722	0.000365	3.648839	1.236260	-0.000146
 864	8.5868e+01	5.6004	27.872385	0.000365	3.648839	1.236260	-0.000146
 865	8.5968e+01	5.5731	27.731085	0.000355	3.547483	1.201920	-0.000142
 866	8.6067e+01	5.5346	27.557489	0.000436	4.358336	1.476644	-0.000174
 867	8.6167e+01	5.4897	27.440412	0.000294	2.939343	0.995876	-0.000118
 868	8.6266e+01	5.4528	27.270852	0.000426	4.256979	1.442304	-0.000170
 869	8.6366e+01	5.4095	27.169924	0.000253	2.533916	0.858514	-0.000101
 870	8.6466e+01	5.3742	27.008438	0.000405	4.054266	1.373622	-0.000162
 871	8.6565e+01	5.3293	26.822730	0.000466	4.662406	1.579666	-0.000187
 872	8.6665e+01	5.2972	26.701616	0.000304	3.040699	1.030217	-0.000122
 873	8.6764e+01	5.2507	26.528019	0.000436	4.358336	1.476644	-0.000174
 874	8.6864e+01	5.2089	26.366534	0.000405	4.054266	1.373622	-0.000162
 875	8.6963e+01	5.1640	26.233308	0.000334	3.344769	1.133239	-0.000134
 876	8.7063e+01	5.1303	26.087971	0.000365	3.648839	1.236260	-0.000146
 877	8.7162e+01	5.0854	25.910337	0.000446	4.459693	1.510985	-0.000179
 878	8.7261e+01	5.0501	25.773075	0.000345	3.446126	1.167579	-0.000138
 879	8.7361e+01	5.0068	25.595441	0.000446	4.459693	1.510985	-0.000179
 880	8.7460e+01	4.9715	25.478364	0.000294	2.939343	0.995876	-0.000118
 881	8.7560e+01	4.9298	25.337064	0.000355	3.547483	1.201920	-0.000142
 882	8.7659e+01	4.8881	25.155393	0.000456	4.561049	1.545325	-0.000183
 883	8.7759e+01	4.8560	25.018130	0.000345	3.446126	1.167579	-0.000138
 884	8.7859e+01	4.8159	24.884905	0.000334	3.344769	1.133239	-0.000134
 885	8.7958e+01	4.7598	24.711308	0.000436	4.358336	1.476644	-0.000174
 886	8.8058e+01	4.7325	24.557897	0.000385	3.851553	1.304941	-0.000154
 887	8.8157e+01	4.6892	24.440820	0.000294	2.939343	0.995876	-0.000118
 888	8.8257e+01	4.6539	24.251074	0.000476	4.763762	1.614006	-0.000191
 889	8.8356e+01	4.6090	24.109775	0.000355	3.547483	1.201920	-0.000142
 890	8.8456e+01	4.5801	23.907918	0.000507	5.067832	1.717028	-0.000203
 891	8.8555e+01	4.5336	23.819101	0.000223	2.229846	0.755492	-0.000089
 892	8.8654e+01	4.4935	23.653578	0.000416	4.155623	1.407963	-0.000166
 893	8.8754e+01	4.4582	23.504204	0.000375	3.750196	1.270601	-0.000150
 894	8.8853e+01	4.4132	23.330607	0.000436	4.358336	1.476644	-0.000174
 895	8.8953e+01	4.3731	23.193345	0.000345	3.446126	1.167579	-0.000138
 896	8.9052e+01	4.3314	23.068194	0.000314	3.142056	1.064557	-0.000126
 897	8.9152e+01	4.2849	22.878448	0.000476	4.763762	1.614006	-0.000191
 898	8.9251e+01	4.2560	22.721000	0.000395	3.952909	1.339282	-0.000158
 899	8.9351e+01	4.2127	22.587774	0.000334	3.344769	1.133239	-0.000134
 900	8.9451e+01	4.1726	22.418215	0.000426	4.256979	1.442304	-0.000170
 901	8.9550e+01	4.1325	22.256729	0.000405	4.054266	1.373622	-0.000162
 902	8.9650e+01	4.0908	22.066984	0.000476	4.763762	1.614006	-0.000191
 903	8.9749e+01	4.0635	21.937796	0.000324	3.243413	1.098898	-0.000130
 904	8.9849e+01	4.0154	21.800533	0.000345	3.446126	1.167579	-0.000138
 905	8.9948e+01	3.9769	21.610788	0.000476	4.763762	1.614006	-0.000191
 906	9.0047e+01	3.9288	21.449302	0.000405	4.054266	1.373622	-0.000162
 907	9.0147e+01	3.8855	21.308002	0.000355	3.547483	1.201920	-0.000142
 908	9.0246e+01	3.8550	21.126331	0.000456	4.561049	1.545325	-0.000183
 909	9.0346e+01	3.8068	20.976957	0.000375	3.750196	1.270601	-0.000150
 910	9.0445e+01	3.7780	20.819509	0.000395	3.952909	1.339282	-0.000158
 911	9.0545e+01	3.7411	20.666098	0.000385	3.851553	1.304941	-0.000154
 912	9.0644e+01	3.6801	20.480390	0.000466	4.662406	1.579666	-0.000187
 913	9.0744e+01	3.6577	20.318904	0.000405	4.054266	1.373622	-0.000162
 914	9.0844e+01	3.6111	20.181642	0.000345	3.446126	1.167579	-0.000138
 915	9.0943e+01	3.5823	20.044379	0.000345	3.446126	1.167579	-0.000138
 916	9.1043e+01	3.5293	19.850596	0.000487	4.865119	1.648347	-0.000195
 917	9.1142e+01	3.5004	19.689111	0.000405	4.054266	1.373622	-0.000162
 918	9.1242e+01	3.4587	19.563960	0.000314	3.142056	1.064557	-0.000126
 919	9.1341e+01	3.4122	19.390363	0.000436	4.358336	1.476644	-0.000174
 920	9.1441e+01	3.3737	19.261175	0.000324	3.243413	1.098898	-0.000130
 921	9.1540e+01	3.3368	19.063355	0.000497	4.966476	1.682688	-0.000199
 922	9.1639e+01	3.3031	18.909944	0.000385	3.851553	1.304941	-0.000154
 923	9.1739e+01	3.2662	18.704050	0.000517	5.169189	1.751369	-0.000207
 924	9.1838e+01	3.2165	18.570824	0.000334	3.344769	1.133239	-0.000134
 925	9.1938e+01	3.1780	18.393190	0.000446	4.459693	1.510985	-0.000179
 926	9.2037e+01	3.1475	18.259965	0.000334	3.344769	1.133239	-0.000134
 927	9.2137e+01	3.1010	18.098480	0.000405	4.054266	1.373622	-0.000162
 928	9.2237e+01	3.0561	17.904697	0.000487	4.865119	1.648347	-0.000195
 929	9.2336e+01	3.0160	17.731100	0.000436	4.358336	1.476644	-0.000174
 930	9.2436e+01	2.9823	17.561540	0.000426	4.256979	1.442304	-0.000170
 931	9.2535e+01	2.9293	17.452538	0.000274	2.736630	0.927195	-0.000110
 932	9.2635e+01	2.9005	17.291052	0.000405	4.054266	1.373622	-0.000162
 933	9.2734e+01	2.8539	17.097270	0.000487	4.865119	1.648347	-0.000195
 934	9.2834e+01	2.8154	16.943859	0.000385	3.851553	1.304941	-0.000154
 935	9.2933e+01	2.7753	16.758150	0.000466	4.662406	1.579666	-0.000187
 936	9.3032e+01	2.7400	16.572442	0.000466	4.662406	1.579666	-0.000187
 937	9.3132e+01	2.6903	16.423068	0.000375	3.750196	1.270601	-0.000150
 938	9.3231e+01	2.6662	16.253508	0.000426	4.256979	1.442304	-0.000170
 939	9.3331e+01	2.6181	16.063763	0.000476	4.763762	1.614006	-0.000191
 940	9.3430e+01	2.5796	15.934575	0.000324	3.243413	1.098898	-0.000130
 941	9.3530e+01	2.5363	15.724644	0.000527	5.270546	1.785709	-0.000211
 942	9.3629e+01	2.5074	15.563158	0.000405	4.054266	1.373622	-0.000162
 943	9.3729e+01	2.4593	15.385524	0.000446	4.459693	1.510985	-0.000179
 944	9.3829e+01	2.4240	15.224039	0.000405	4.054266	1.373622	-0.000162
 945	9.3928e+01	2.3807	15.046405	0.000446	4.459693	1.510985	-0.000179
 946	9.4028e+01	2.3470	14.897031	0.000375	3.750196	1.270601	-0.000150
 947	9.4127e+01	2.3037	14.719397	0.000446	4.459693	1.510985	-0.000179
 948	9.4227e+01	2.2539	14.521577	0.000497	4.966476	1.682688	-0.000199
 949	9.4326e+01	2.2154	14.356055	0.000416	4.155623	1.407963	-0.000166
 950	9.4425e+01	2.1818	14.190532	0.000416	4.155623	1.407963	-0.000166
 951	9.4525e+01	2.1400	13.984638	0.000517	5.169189	1.751369	-0.000207
 952	9.4624e+01	2.0919	13.790856	0.000487	4.865119	1.648347	-0.000195
 953	9.4724e+01	2.0582	13.649556	0.000355	3.547483	1.201920	-0.000142
 954	9.4823e+01	2.0261	13.471922	0.000446	4.459693	1.510985	-0.000179
 955	9.4923e+01	1.9828	13.302362	0.000426	4.256979	1.442304	-0.000170
 956	9.5022e+01	1.9315	13.092431	0.000527	5.270546	1.785709	-0.000211
 957	9.5122e+01	1.9026	12.926909	0.000416	4.155623	1.407963	-0.000166
 958	9.5222e+01	1.8561	12.729089	0.000497	4.966476	1.682688	-0.000199
 959	9.5321e+01	1.8240	12.563566	0.000416	4.155623	1.407963	-0.000166
 960	9.5421e+01	1.7759	12.385932	0.000446	4.459693	1.510985	-0.000179
 961	9.5520e+01	1.7438	12.180039	0.000517	5.169189	1.751369	-0.000207
 962	9.5620e+01	1.7021	12.010479	0.000426	4.256979	1.442304	-0.000170
 963	9.5719e+01	1.6716	11.853031	0.000395	3.952909	1.339282	-0.000158
 964	9.5819e+01	1.6251	11.687508	0.000416	4.155623	1.407963	-0.000166
 965	9.5918e+01	1.5754	11.445280	0.000608	6.081399	2.060434	-0.000243
 966	9.6017e+01	1.5465	11.291869	0.000385	3.851553	1.304941	-0.000154
 967	9.6117e+01	1.5032	11.134420	0.000395	3.952909	1.339282	-0.000158
 968	9.6216e+01	1.4679	10.928526	0.000517	5.169189	1.751369	-0.000207
 969	9.6316e+01	1.4214	10.726670	0.000507	5.067832	1.717028	-0.000203
 970	9.6415e+01	1.3941	10.565184	0.000405	4.054266	1.373622	-0.000162
 971	9.6515e+01	1.3443	10.407736	0.000395	3.952909	1.339282	-0.000158
 972	9.6615e+01	1.3123	10.165508	0.000608	6.081399	2.060434	-0.000243
 973	9.6714e+01	1.2593	9.983837	0.000456	4.561049	1.545325	-0.000183
 974	9.6814e+01	1.2192	9.794091	0.000476	4.763762	1.614006	-0.000191
 975	9.6913e+01	1.1903	9.616457	0.000446	4.459693	1.510985	-0.000179
 976	9.7013e+01	1.1502	9.434786	0.000456	4.561049	1.545325	-0.000183
 977	9.7112e+01	1.1101	9.245041	0.000476	4.763762	1.614006	-0.000191
 978	9.7212e+01	1.0572	9.083555	0.000405	4.054266	1.373622	-0.000162
 979	9.7311e+01	1.0267	8.885736	0.000497	4.966476	1.682688	-0.000199
 980	9.7410e+01	0.9914	8.740399	0.000365	3.648839	1.236260	-0.000146
 981	9.7510e+01	0.9449	8.502208	0.000598	5.980042	2.026093	-0.000239
 982	9.7609e+01	0.9048	8.308425	0.000487	4.865119	1.648347	-0.000195
 983	9.7709e+01	0.8711	8.118680	0.000476	4.763762	1.614006	-0.000191
 984	9.7808e+01	0.8310	7.932972	0.000466	4.662406	1.579666	-0.000187
 985	9.7908e+01	0.7829	7.710929	0.000557	5.574616	1.888731	-0.000223
 986	9.8007e+01	0.7379	7.557518	0.000385	3.851553	1.304941	-0.000154
 987	9.8107e+01	0.7059	7.383921	0.000436	4.358336	1.476644	-0.000174
 988	9.8207e+01	0.6577	7.186102	0.000497	4.966476	1.682688	-0.000199
 989	9.8306e+01	0.6257	6.984245	0.000507	5.067832	1.717028	-0.000203
 990	9.8406e+01	0.5888	6.798537	0.000466	4.662406	1.579666	-0.000187
 991	9.8505e+01	0.5422	6.588606	0.000527	5.270546	1.785709	-0.000211
 992	9.8605e+01	0.5053	6.378674	0.000527	5.270546	1.785709	-0.000211
 993	9.8704e+01	0.4652	6.192966	0.000466	4.662406	1.579666	-0.000187
 994	9.8803e+01	0.4235	6.031481	0.000405	4.054266	1.373622	-0.000162
 995	9.8903e+01	0.3882	5.833661	0.000497	4.966476	1.682688	-0.000199
 996	9.9002e+01	0.3497	5.591433	0.000608	6.081399	2.060434	-0.000243
 997	9.9102e+01	0.3112	5.409762	0.000456	4.561049	1.545325	-0.000183
 998	9.9201e+01	0.2679	5.236165	0.000436	4.358336	1.476644	-0.000174
 999	9.9301e+01	0.2214	5.010085	0.000568	5.675972	1.923071	-0.000227
1000	9.9400e+01	0.1877	4.828414	0.000456	4.561049	1.545325	-0.000183
1001	9.9500e+01	0.1556	4.675003	0.000385	3.851553	1.304941	-0.000154
1002	9.9600e+01	0.0963	4.432775	0.000608	6.081399	2.060434	-0.000243
1003	9.9699e+01	0.0722	4.255141	0.000446	4.459693	1.510985	-0.000179
1004	9.9799e+01	0.0209	4.065396	0.000476	4.763762	1.614006	-0.000191
1005	9.9898e+01	0.0048	3.895836	0.000426	4.256979	1.442304	-0.000170
1006	9.9998e+01	-0.0401	3.661682	0.000588	5.878686	1.991753	-0.000235
1007	1.0010e+02	-0.0882	3.516345	0.000365	3.648839	1.236260	-0.000146
1008	1.0020e+02	-0.1235	3.330637	0.000466	4.662406	1.579666	-0.000187
1009	1.0030e+02	-0.1652	3.092446	0.000598	5.980042	2.026093	-0.000239
1010	1.0040e+02	-0.1989	2.918849	0.000436	4.358336	1.476644	-0.000174
1011	1.0050e+02	-0.2342	2.704881	0.000537	5.371902	1.820050	-0.000215
1012	1.0059e+02	-0.2791	2.486876	0.000547	5.473259	1.854390	-0.000219
1013	1.0069e+02	-0.3353	2.345576	0.000355	3.547483	1.201920	-0.000142
1014	1.0079e+02	-0.3658	2.135645	0.000527	5.270546	1.785709	-0.000211
1015	1.0089e+02	-0.4011	1.917639	0.000547	5.473259	1.854390	-0.000219
1016	1.0099e+02	-0.4476	1.699634	0.000547	5.473259	1.854390	-0.000219
1017	1.0109e+02	-0.4877	1.509889	0.000476	4.763762	1.614006	-0.000191
1018	1.0119e+02	-0.5182	1.328218	0.000456	4.561049	1.545325	-0.000183
1019	1.0129e+02	-0.5583	1.126361	0.000507	5.067832	1.717028	-0.000203
1020	1.0139e+02	-0.6000	0.944690	0.000456	4.561049	1.545325	-0.000183
1021	1.0149e+02	-0.6385	0.746870	0.000497	4.966476	1.682688	-0.000199
1022	1.0159e+02	-0.6834	0.504642	0.000608	6.081399	2.060434	-0.000243
1023	1.0169e+02	-0.7203	0.371416	0.000334	3.344769	1.133239	-0.000134
1024	1.0179e+02	-0.7588	0.165523	0.000517	5.169189	1.751369	-0.000207
1025	1.0189e+02	-0.7989	-0.020186	0.000466	4.662406	1.579666	-0.000187
1026	1.0199e+02	-0.8438	-0.226080	0.000517	5.169189	1.751369	-0.000207
1027	1.0209e+02	-0.8791	-0.440048	0.000537	5.371902	1.820050	-0.000215
1028	1.0219e+02	-0.9160	-0.649979	0.000527	5.270546	1.785709	-0.000211
1029	1.0229e+02	-0.9641	-0.859910	0.000527	5.270546	1.785709	-0.000211
1030	1.0239e+02	-1.0075	-1.065804	0.000517	5.169189	1.751369	-0.000207
1031	1.0248e+02	-1.0395	-1.235364	0.000426	4.256979	1.442304	-0.000170
1032	1.0258e+02	-1.0732	-1.404923	0.000426	4.256979	1.442304	-0.000170
1033	1.0268e+02	-1.1214	-1.643114	0.000598	5.980042	2.026093	-0.000239
1034	1.0278e+02	-1.1599	-1.844971	0.000507	5.067832	1.717028	-0.000203
1035	1.0288e+02	-1.2176	-1.998382	0.000385	3.851553	1.304941	-0.000154
1036	1.0298e+02	-1.2497	-2.216388	0.000547	5.473259	1.854390	-0.000219
1037	1.0308e+02	-1.2754	-2.357687	0.000355	3.547483	1.201920	-0.000142
1038	1.0318e+02	-1.3251	-2.583767	0.000568	5.675972	1.923071	-0.000227
1039	1.0328e+02	-1.3572	-2.809846	0.000568	5.675972	1.923071	-0.000227
1040	1.0338e+02	-1.4069	-2.987480	0.000446	4.459693	1.510985	-0.000179
1041	1.0348e+02	-1.4374	-3.169152	0.000456	4.561049	1.545325	-0.000183
1042	1.0358e+02	-1.4727	-3.387157	0.000547	5.473259	1.854390	-0.000219
1043	1.0368e+02	-1.5176	-3.601125	0.000537	5.371902	1.820050	-0.000215
1044	1.0378e+02	-1.5593	-3.738388	0.000345	3.446126	1.167579	-0.000138
1045	1.0388e+02	-1.5914	-3.960430	0.000557	5.574616	1.888731	-0.000223
1046	1.0398e+02	-1.6379	-4.134027	0.000436	4.358336	1.476644	-0.000174
1047	1.0408e+02	-1.6716	-4.335884	0.000507	5.067832	1.717028	-0.000203
1048	1.0418e+02	-1.7085	-4.501406	0.000416	4.155623	1.407963	-0.000166
1049	1.0428e+02	-1.7550	-4.723449	0.000557	5.574616	1.888731	-0.000223
1050	1.0438e+02	-1.7983	-4.897046	0.000436	4.358336	1.476644	-0.000174
1051	1.0447e+02	-1.8352	-5.078717	0.000456	4.561049	1.545325	-0.000183
1052	1.0457e+02	-1.8850	-5.260388	0.000456	4.561049	1.545325	-0.000183
1053	1.0467e+02	-1.9187	-5.450133	0.000476	4.763762	1.614006	-0.000191
1054	1.0477e+02	-1.9604	-5.639879	0.000476	4.763762	1.614006	-0.000191
1055	1.0487e+02	-1.9941	-5.773104	0.000334	3.344769	1.133239	-0.000134
1056	1.0497e+02	-2.0310	-5.999184	0.000568	5.675972	1.923071	-0.000227
1057	1.0507e+02	-2.0759	-6.233338	0.000588	5.878686	1.991753	-0.000235
1058	1.0517e+02	-2.1144	-6.427120	0.000487	4.865119	1.648347	-0.000195
1059	1.0527e+02	-2.1625	-6.560346	0.000334	3.344769	1.133239	-0.000134
1060	1.0537e+02	-2.1946	-6.790462	0.000578	5.777329	1.957412	-0.000231
1061	1.0547e+02	-2.2427	-6.984245	0.000487	4.865119	1.648347	-0.000195
1062	1.0557e+02	-2.2844	-7.182064	0.000497	4.966476	1.682688	-0.000199
1063	1.0567e+02	-2.3181	-7.347587	0.000416	4.155623	1.407963	-0.000166
1064	1.0577e+02	-2.3518	-7.500998	0.000385	3.851553	1.304941	-0.000154
1065	1.0587e+02	-2.3935	-7.690744	0.000476	4.763762	1.614006	-0.000191
1066	1.0597e+02	-2.4304	-7.880489	0.000476	4.763762	1.614006	-0.000191
1067	1.0607e+02	-2.4737	-8.070234	0.000476	4.763762	1.614006	-0.000191
1068	1.0617e+02	-2.5235	-8.239794	0.000426	4.256979	1.442304	-0.000170
1069	1.0627e+02	-2.5539	-8.433577	0.000487	4.865119	1.648347	-0.000195
1070	1.0637e+02	-2.5908	-8.582951	0.000375	3.750196	1.270601	-0.000150
1071	1.0647e+02	-2.6374	-8.784807	0.000507	5.067832	1.717028	-0.000203
1072	1.0656e+02	-2.6775	-8.954367	0.000426	4.256979	1.442304	-0.000170
1073	1.0666e+02	-2.7224	-9.180447	0.000568	5.675972	1.923071	-0.000227
1074	1.0676e+02	-2.7593	-9.358081	0.000446	4.459693	1.510985	-0.000179
1075	1.0686e+02	-2.7978	-9.555900	0.000497	4.966476	1.682688	-0.000199
1076	1.0696e+02	-2.8347	-9.705274	0.000375	3.750196	1.270601	-0.000150
1077	1.0706e+02	-2.8796	-9.886945	0.000456	4.561049	1.545325	-0.000183
1078	1.0716e+02	-2.9213	-10.096876	0.000527	5.270546	1.785709	-0.000211
1079	1.0726e+02	-2.9550	-10.209916	0.000284	2.837986	0.961536	-0.000114
1080	1.0736e+02	-2.9919	-10.456182	0.000618	6.182756	2.094774	-0.000248
1081	1.0746e+02	-3.0464	-10.585370	0.000324	3.243413	1.098898	-0.000130
1082	1.0756e+02	-3.0705	-10.799338	0.000537	5.371902	1.820050	-0.000215
1083	1.0766e+02	-3.1026	-10.968898	0.000426	4.256979	1.442304	-0.000170
1084	1.0776e+02	-3.1587	-11.146532	0.000446	4.459693	1.510985	-0.000179
1085	1.0786e+02	-3.1940	-11.283794	0.000345	3.446126	1.167579	-0.000138
1086	1.0796e+02	-3.2357	-11.497763	0.000537	5.371902	1.820050	-0.000215
1087	1.0806e+02	-3.2758	-11.659248	0.000405	4.054266	1.373622	-0.000162
1088	1.0816e+02	-3.3127	-11.808622	0.000375	3.750196	1.270601	-0.000150
1089	1.0826e+02	-3.3625	-11.990293	0.000456	4.561049	1.545325	-0.000183
1090	1.0836e+02	-3.3913	-12.155816	0.000416	4.155623	1.407963	-0.000166
1091	1.0845e+02	-3.4347	-12.357672	0.000507	5.067832	1.717028	-0.000203
1092	1.0855e+02	-3.4651	-12.507047	0.000375	3.750196	1.270601	-0.000150
1093	1.0865e+02	-3.5101	-12.664495	0.000395	3.952909	1.339282	-0.000158
1094	1.0875e+02	-3.5518	-12.862314	0.000497	4.966476	1.682688	-0.000199
1095	1.0885e+02	-3.5903	-13.068208	0.000517	5.169189	1.751369	-0.000207
1096	1.0895e+02	-3.6336	-13.189322	0.000304	3.040699	1.030217	-0.000122
1097	1.0905e+02	-3.6689	-13.350808	0.000405	4.054266	1.373622	-0.000162
1098	1.0915e+02	-3.7058	-13.528442	0.000446	4.459693	1.510985	-0.000179
1099	1.0925e+02	-3.7459	-13.702039	0.000436	4.358336	1.476644	-0.000174
1100	1.0935e+02	-3.7876	-13.855450	0.000385	3.851553	1.304941	-0.000154
1101	1.0945e+02	-3.8293	-14.057307	0.000507	5.067832	1.717028	-0.000203
1102	1.0955e+02	-3.8726	-14.214755	0.000395	3.952909	1.339282	-0.000158
1103	1.0965e+02	-3.9047	-14.368166	0.000385	3.851553	1.304941	-0.000154
1104	1.0975e+02	-3.9448	-14.549837	0.000456	4.561049	1.545325	-0.000183
1105	1.0985e+02	-3.9929	-14.743620	0.000487	4.865119	1.648347	-0.000195
1106	1.0995e+02	-4.0395	-14.901068	0.000395	3.952909	1.339282	-0.000158
1107	1.1005e+02	-4.0667	-15.054479	0.000385	3.851553	1.304941	-0.000154
1108	1.1015e+02	-4.1020	-15.207890	0.000385	3.851553	1.304941	-0.000154
1109	1.1025e+02	-4.1485	-15.381487	0.000436	4.358336	1.476644	-0.000174
1110	1.1035e+02	-4.1774	-15.571233	0.000476	4.763762	1.614006	-0.000191
1111	1.1044e+02	-4.2223	-15.740792	0.000426	4.256979	1.442304	-0.000170
1112	1.1054e+02	-4.2657	-15.890166	0.000375	3.750196	1.270601	-0.000150
1113	1.1064e+02	-4.3058	-16.047615	0.000395	3.952909	1.339282	-0.000158
1114	1.1074e+02	-4.3507	-16.245434	0.000497	4.966476	1.682688	-0.000199
1115	1.1084e+02	-4.3892	-16.406920	0.000405	4.054266	1.373622	-0.000162
1116	1.1094e+02	-4.4309	-16.552257	0.000365	3.648839	1.236260	-0.000146
1117	1.1104e+02	-4.4630	-16.746039	0.000487	4.865119	1.648347	-0.000195
1118	1.1114e+02	-4.5127	-16.871190	0.000314	3.142056	1.064557	-0.000126
1119	1.1124e+02	-4.5592	-17.040750	0.000426	4.256979	1.442304	-0.000170
1120	1.1134e+02	-4.5897	-17.173975	0.000334	3.344769	1.133239	-0.000134
1121	1.1144e+02	-4.6282	-17.331424	0.000395	3.952909	1.339282	-0.000158
1122	1.1154e+02	-4.6587	-17.513095	0.000456	4.561049	1.545325	-0.000183
1123	1.1164e+02	-4.7084	-17.686692	0.000436	4.358336	1.476644	-0.000174
1124	1.1174e+02	-4.7453	-17.860289	0.000436	4.358336	1.476644	-0.000174
1125	1.1184e+02	-4.7822	-18.021774	0.000405	4.054266	1.373622	-0.000162
1126	1.1194e+02	-4.8287	-18.154999	0.000334	3.344769	1.133239	-0.000134
1127	1.1204e+02	-4.8640	-18.356856	0.000507	5.067832	1.717028	-0.000203
1128	1.1214e+02	-4.8977	-18.526416	0.000426	4.256979	1.442304	-0.000170
1129	1.1224e+02	-4.9458	-18.651567	0.000314	3.142056	1.064557	-0.000126
1130	1.1234e+02	-4.9860	-18.861498	0.000527	5.270546	1.785709	-0.000211
1131	1.1244e+02	-5.0325	-18.994724	0.000334	3.344769	1.133239	-0.000134
1132	1.1253e+02	-5.0710	-19.136023	0.000355	3.547483	1.201920	-0.000142
1133	1.1263e+02	-5.1111	-19.349992	0.000537	5.371902	1.820050	-0.000215
1134	1.1273e+02	-5.1416	-19.458994	0.000274	2.736630	0.927195	-0.000110
1135	1.1283e+02	-5.1849	-19.644703	0.000466	4.662406	1.579666	-0.000187
1136	1.1293e+02	-5.2330	-19.822336	0.000446	4.459693	1.510985	-0.000179
1137	1.1303e+02	-5.2651	-19.939413	0.000294	2.939343	0.995876	-0.000118
1138	1.1313e+02	-5.3020	-20.117047	0.000446	4.459693	1.510985	-0.000179
1139	1.1323e+02	-5.3421	-20.286607	0.000426	4.256979	1.442304	-0.000170
1140	1.1333e+02	-5.3790	-20.431944	0.000365	3.648839	1.236260	-0.000146
1141	1.1343e+02	-5.4287	-20.581318	0.000375	3.750196	1.270601	-0.000150
1142	1.1353e+02	-5.4576	-20.750878	0.000426	4.256979	1.442304	-0.000170
1143	1.1363e+02	-5.5041	-20.888140	0.000345	3.446126	1.167579	-0.000138
1144	1.1373e+02	-5.5410	-21.041551	0.000385	3.851553	1.304941	-0.000154
1145	1.1383e+02	-5.5843	-21.255520	0.000537	5.371902	1.820050	-0.000215
1146	1.1393e+02	-5.6180	-21.376634	0.000304	3.040699	1.030217	-0.000122
1147	1.1403e+02	-5.6662	-21.505822	0.000324	3.243413	1.098898	-0.000130
1148	1.1413e+02	-5.6982	-21.707679	0.000507	5.067832	1.717028	-0.000203
1149	1.1423e+02	-5.7496	-21.840904	0.000334	3.344769	1.133239	-0.000134
1150	1.1433e+02	-5.7736	-22.030650	0.000476	4.763762	1.614006	-0.000191
1151	1.1442e+02	-5.8202	-22.184061	0.000385	3.851553	1.304941	-0.000154
1152	1.1452e+02	-5.8651	-22.309212	0.000314	3.142056	1.064557	-0.000126
1153	1.1462e+02	-5.9068	-22.486846	0.000446	4.459693	1.510985	-0.000179
1154	1.1472e+02	-5.9421	-22.636220	0.000375	3.750196	1.270601	-0.000150
1155	1.1482e+02	-5.9886	-22.769446	0.000334	3.344769	1.133239	-0.000134
1156	1.1492e+02	-6.0223	-22.934968	0.000416	4.155623	1.407963	-0.000166
1157	1.1502e+02	-6.0608	-23.056082	0.000304	3.040699	1.030217	-0.000122
1158	1.1512e+02	-6.1009	-23.193345	0.000345	3.446126	1.167579	-0.000138
1159	1.1522e+02	-6.1394	-23.391164	0.000497	4.966476	1.682688	-0.000199
1160	1.1532e+02	-6.1923	-23.504204	0.000284	2.837986	0.961536	-0.000114
1161	1.1542e+02	-6.2196	-23.673764	0.000426	4.256979	1.442304	-0.000170
1162	1.1552e+02	-6.2597	-23.823138	0.000375	3.750196	1.270601	-0.000150
1163	1.1562e+02	-6.3078	-23.984623	0.000405	4.054266	1.373622	-0.000162
1164	1.1572e+02	-6.3335	-24.146109	0.000405	4.054266	1.373622	-0.000162
1165	1.1582e+02	-6.3848	-24.263186	0.000294	2.939343	0.995876	-0.000118
1166	1.1592e+02	-6.4217	-24.444857	0.000456	4.561049	1.545325	-0.000183
1167	1.1602e+02	-6.4554	-24.614417	0.000426	4.256979	1.442304	-0.000170
1168	1.1612e+02	-6.4971	-24.727456	0.000284	2.837986	0.961536	-0.000114
1169	1.1622e+02	-6.5356	-24.884905	0.000395	3.952909	1.339282	-0.000158
1170	1.1632e+02	-6.5806	-25.030242	0.000365	3.648839	1.236260	-0.000146
1171	1.1642e+02	-6.6159	-25.211913	0.000456	4.561049	1.545325	-0.000183
1172	1.1651e+02	-6.6528	-25.345138	0.000334	3.344769	1.133239	-0.000134
1173	1.1661e+02	-6.6945	-25.490475	0.000365	3.648839	1.236260	-0.000146
1174	1.1671e+02	-6.7346	-25.627738	0.000345	3.446126	1.167579	-0.000138
1175	1.1681e+02	-6.7859	-25.829594	0.000507	5.067832	1.717028	-0.000203
1176	1.1691e+02	-6.8212	-25.974931	0.000365	3.648839	1.236260	-0.000146
1177	1.1701e+02	-6.8645	-26.100083	0.000314	3.142056	1.064557	-0.000126
1178	1.1711e+02	-6.8982	-26.205048	0.000264	2.635273	0.892855	-0.000105
1179	1.1721e+02	-6.9367	-26.378645	0.000436	4.358336	1.476644	-0.000174
1180	1.1731e+02	-6.9688	-26.519945	0.000355	3.547483	1.201920	-0.000142
1181	1.1741e+02	-7.0089	-26.689504	0.000426	4.256979	1.442304	-0.000170
1182	1.1751e+02	-7.0506	-26.822730	0.000334	3.344769	1.133239	-0.000134
1183	1.1761e+02	-7.0971	-26.972104	0.000375	3.750196	1.270601	-0.000150
1184	1.1771e+02	-7.1340	-27.113404	0.000355	3.547483	1.201920	-0.000142
1185	1.1781e+02	-7.1838	-27.278926	0.000416	4.155623	1.407963	-0.000166
1186	1.1791e+02	-7.2190	-27.428300	0.000375	3.750196	1.270601	-0.000150
1187	1.1801e+02	-7.2575	-27.581711	0.000385	3.851553	1.304941	-0.000154
1188	1.1811e+02	-7.2896	-27.723011	0.000355	3.547483	1.201920	-0.000142
1189	1.1821e+02	-7.3297	-27.811828	0.000223	2.229846	0.755492	-0.000089
1190	1.1831e+02	-7.3698	-27.977351	0.000416	4.155623	1.407963	-0.000166
1191	1.1841e+02	-7.4132	-28.114613	0.000345	3.446126	1.167579	-0.000138
1192	1.1850e+02	-7.4533	-28.308396	0.000487	4.865119	1.648347	-0.000195
1193	1.1860e+02	-7.4870	-28.445658	0.000345	3.446126	1.167579	-0.000138
1194	1.1870e+02	-7.5206	-28.582921	0.000345	3.446126	1.167579	-0.000138
1195	1.1880e+02	-7.5832	-28.716147	0.000334	3.344769	1.133239	-0.000134
1196	1.1890e+02	-7.6121	-28.853409	0.000345	3.446126	1.167579	-0.000138
1197	1.1900e+02	-7.6586	-29.063340	0.000527	5.270546	1.785709	-0.000211
1198	1.1910e+02	-7.6891	-29.152157	0.000223	2.229846	0.755492	-0.000089
1199	1.1920e+02	-7.7420	-29.277308	0.000314	3.142056	1.064557	-0.000126
1200	1.1930e+02	-7.7677	-29.402460	0.000314	3.142056	1.064557	-0.000126
1201	1.1940e+02	-7.8158	-29.555871	0.000385	3.851553	1.304941	-0.000154
1202	1.1950e+02	-7.8559	-29.681022	0.000314	3.142056	1.064557	-0.000126
1203	1.1960e+02	-7.8896	-29.890953	0.000527	5.270546	1.785709	-0.000211
1204	1.1970e+02	-7.9393	-29.947473	0.000142	1.418993	0.480768	-0.000057
1205	1.1980e+02	-7.9570	-30.092810	0.000365	3.648839	1.236260	-0.000146
1206	1.1990e+02	-8.0147	-30.286592	0.000487	4.865119	1.648347	-0.000195
1207	1.2000e+02	-8.0693	-30.387521	0.000253	2.533916	0.858514	-0.000101
1208	1.2010e+02	-8.0821	-30.504598	0.000294	2.939343	0.995876	-0.000118
1209	1.2020e+02	-8.1399	-30.649935	0.000365	3.648839	1.236260	-0.000146
1210	1.2030e+02	-8.1704	-30.795271	0.000365	3.648839	1.236260	-0.000146
1211	1.2039e+02	-8.2153	-30.924460	0.000324	3.243413	1.098898	-0.000130
1212	1.2049e+02	-8.2409	-31.073834	0.000375	3.750196	1.270601	-0.000150
1213	1.2059e+02	-8.2875	-31.239356	0.000416	4.155623	1.407963	-0.000166
1214	1.2069e+02	-8.3276	-31.356433	0.000294	2.939343	0.995876	-0.000118
1215	1.2079e+02	-8.3853	-31.457362	0.000253	2.533916	0.858514	-0.000101
1216	1.2089e+02	-8.4094	-31.626921	0.000426	4.256979	1.442304	-0.000170
1217	1.2099e+02	-8.4447	-31.739961	0.000284	2.837986	0.961536	-0.000114
1218	1.2109e+02	-8.4928	-31.881261	0.000355	3.547483	1.201920	-0.000142
1219	1.2119e+02	-8.5361	-32.038709	0.000395	3.952909	1.339282	-0.000158
1220	1.2129e+02	-8.5682	-32.155786	0.000294	2.939343	0.995876	-0.000118
1221	1.2139e+02	-8.6083	-32.272863	0.000294	2.939343	0.995876	-0.000118
1222	1.2149e+02	-8.6372	-32.418200	0.000365	3.648839	1.236260	-0.000146
1223	1.2159e+02	-8.6933	-32.559500	0.000355	3.547483	1.201920	-0.000142
1224	1.2169e+02	-8.7367	-32.708874	0.000375	3.750196	1.270601	-0.000150
1225	1.2179e+02	-8.7687	-32.821914	0.000284	2.837986	0.961536	-0.000114
1226	1.2189e+02	-8.8040	-32.959176	0.000345	3.446126	1.167579	-0.000138
1227	1.2199e+02	-8.8441	-33.112587	0.000385	3.851553	1.304941	-0.000154
1228	1.2209e+02	-8.8858	-33.217553	0.000264	2.635273	0.892855	-0.000105
1229	1.2219e+02	-8.9308	-33.306370	0.000223	2.229846	0.755492	-0.000089
1230	1.2229e+02	-8.9612	-33.467855	0.000405	4.054266	1.373622	-0.000162
1231	1.2239e+02	-9.0158	-33.593006	0.000314	3.142056	1.064557	-0.000126
1232	1.2248e+02	-9.0495	-33.730269	0.000345	3.446126	1.167579	-0.000138
1233	1.2258e+02	-9.0848	-33.879643	0.000375	3.750196	1.270601	-0.000150
1234	1.2268e+02	-9.1377	-34.000757	0.000304	3.040699	1.030217	-0.000122
1235	1.2278e+02	-9.1730	-34.129946	0.000324	3.243413	1.098898	-0.000130
1236	1.2288e+02	-9.2035	-34.271245	0.000355	3.547483	1.201920	-0.000142
1237	1.2298e+02	-9.2532	-34.376211	0.000264	2.635273	0.892855	-0.000105
1238	1.2308e+02	-9.2917	-34.541733	0.000416	4.155623	1.407963	-0.000166
1239	1.2318e+02	-9.3206	-34.622476	0.000203	2.027133	0.686811	-0.000081
1240	1.2328e+02	-9.3687	-34.783962	0.000405	4.054266	1.373622	-0.000162
1241	1.2338e+02	-9.4168	-34.909113	0.000314	3.142056	1.064557	-0.000126
1242	1.2348e+02	-9.4441	-35.042338	0.000334	3.344769	1.133239	-0.000134
1243	1.2358e+02	-9.4922	-35.195749	0.000385	3.851553	1.304941	-0.000154
1244	1.2368e+02	-9.5307	-35.292641	0.000243	2.432560	0.824173	-0.000097
1245	1.2378e+02	-9.5644	-35.446052	0.000385	3.851553	1.304941	-0.000154
1246	1.2388e+02	-9.6013	-35.546980	0.000253	2.533916	0.858514	-0.000101
1247	1.2398e+02	-9.6382	-35.647909	0.000253	2.533916	0.858514	-0.000101
1248	1.2408e+02	-9.6815	-35.793245	0.000365	3.648839	1.236260	-0.000146
1249	1.2418e+02	-9.7345	-35.878025	0.000213	2.128490	0.721152	-0.000085
1250	1.2428e+02	-9.7714	-36.067771	0.000476	4.763762	1.614006	-0.000191
1251	1.2438e+02	-9.7987	-36.136402	0.000172	1.723063	0.583790	-0.000069
1252	1.2447e+02	-9.8420	-36.265590	0.000324	3.243413	1.098898	-0.000130
1253	1.2457e+02	-9.8917	-36.423039	0.000395	3.952909	1.339282	-0.000158
1254	1.2467e+02	-9.9270	-36.540116	0.000294	2.939343	0.995876	-0.000118
1255	1.2477e+02	-9.9655	-36.641044	0.000253	2.533916	0.858514	-0.000101
1256	1.2487e+02	-10.0024	-36.774269	0.000334	3.344769	1.133239	-0.000134
1257	1.2497e+02	-10.0473	-36.899421	0.000314	3.142056	1.064557	-0.000126
1258	1.2507e+02	-10.0842	-37.036683	0.000345	3.446126	1.167579	-0.000138
1259	1.2517e+02	-10.1211	-37.161834	0.000314	3.142056	1.064557	-0.000126
1260	1.2527e+02	-10.1644	-37.286986	0.000314	3.142056	1.064557	-0.000126
1261	1.2537e+02	-10.2013	-37.391951	0.000264	2.635273	0.892855	-0.000105
1262	1.2547e+02	-10.2446	-37.541325	0.000375	3.750196	1.270601	-0.000150
1263	1.2557e+02	-10.2879	-37.678588	0.000345	3.446126	1.167579	-0.000138
1264	1.2567e+02	-10.3136	-37.795665	0.000294	2.939343	0.995876	-0.000118
1265	1.2577e+02	-10.3649	-37.880445	0.000213	2.128490	0.721152	-0.000085
1266	1.2587e+02	-10.4067	-38.062116	0.000456	4.561049	1.545325	-0.000183
1267	1.2597e+02	-10.4420	-38.159007	0.000243	2.432560	0.824173	-0.000097
1268	1.2607e+02	-10.4788	-38.251861	0.000233	2.331203	0.789833	-0.000093
1269	1.2617e+02	-10.5254	-38.409309	0.000395	3.952909	1.339282	-0.000158
1270	1.2627e+02	-10.5591	-38.498126	0.000223	2.229846	0.755492	-0.000089
1271	1.2636e+02	-10.5992	-38.691909	0.000487	4.865119	1.648347	-0.000195
1272	1.2646e+02	-10.6409	-38.768614	0.000193	1.925776	0.652471	-0.000077
1273	1.2656e+02	-10.6778	-38.861469	0.000233	2.331203	0.789833	-0.000093
1274	1.2666e+02	-10.7179	-38.982583	0.000304	3.040699	1.030217	-0.000122
1275	1.2676e+02	-10.7676	-39.095622	0.000284	2.837986	0.961536	-0.000114
1276	1.2686e+02	-10.8061	-39.257108	0.000405	4.054266	1.373622	-0.000162
1277	1.2696e+02	-10.8542	-39.337851	0.000203	2.027133	0.686811	-0.000081
1278	1.2706e+02	-10.8815	-39.487225	0.000375	3.750196	1.270601	-0.000150
1279	1.2716e+02	-10.9232	-39.604302	0.000294	2.939343	0.995876	-0.000118
1280	1.2726e+02	-10.9553	-39.729453	0.000314	3.142056	1.064557	-0.000126
1281	1.2736e+02	-10.9922	-39.838455	0.000274	2.736630	0.927195	-0.000110
1282	1.2746e+02	-11.0403	-39.943421	0.000264	2.635273	0.892855	-0.000105
1283	1.2756e+02	-11.0820	-40.112981	0.000426	4.256979	1.442304	-0.000170
1284	1.2766e+02	-11.1157	-40.242169	0.000324	3.243413	1.098898	-0.000130
1285	1.2776e+02	-11.1590	-40.343097	0.000253	2.533916	0.858514	-0.000101
1286	1.2786e+02	-11.1975	-40.460174	0.000294	2.939343	0.995876	-0.000118
1287	1.2796e+02	-11.2344	-40.585326	0.000314	3.142056	1.064557	-0.000126
1288	1.2806e+02	-11.2778	-40.686254	0.000253	2.533916	0.858514	-0.000101
1289	1.2816e+02	-11.3227	-40.807368	0.000304	3.040699	1.030217	-0.000122
1290	1.2826e+02	-11.3516	-40.928482	0.000304	3.040699	1.030217	-0.000122
1291	1.2835e+02	-11.4013	-41.069782	0.000355	3.547483	1.201920	-0.000142
1292	1.2845e+02	-11.4398	-41.170710	0.000253	2.533916	0.858514	-0.000101
1293	1.2855e+02	-11.4735	-41.332196	0.000405	4.054266	1.373622	-0.000162
1294	1.2865e+02	-11.5232	-41.404864	0.000182	1.824420	0.618130	-0.000073
1295	1.2875e+02	-11.5633	-41.542127	0.000345	3.446126	1.167579	-0.000138
1296	1.2885e+02	-11.6018	-41.695538	0.000385	3.851553	1.304941	-0.000154
1297	1.2895e+02	-11.6387	-41.808578	0.000284	2.837986	0.961536	-0.000114
1298	1.2905e+02	-11.6740	-41.929692	0.000304	3.040699	1.030217	-0.000122
1299	1.2915e+02	-11.7141	-42.018509	0.000223	2.229846	0.755492	-0.000089
1300	1.2925e+02	-11.7622	-42.147697	0.000324	3.243413	1.098898	-0.000130
1301	1.2935e+02	-11.8039	-42.256700	0.000274	2.736630	0.927195	-0.000110
1302	1.2945e+02	-11.8328	-42.410111	0.000385	3.851553	1.304941	-0.000154
1303	1.2955e+02	-11.8793	-42.498928	0.000223	2.229846	0.755492	-0.000089
1304	1.2965e+02	-11.9146	-42.664450	0.000416	4.155623	1.407963	-0.000166
1305	1.2975e+02	-11.9483	-42.749230	0.000213	2.128490	0.721152	-0.000085
1306	1.2985e+02	-11.9965	-42.878419	0.000324	3.243413	1.098898	-0.000130
1307	1.2995e+02	-12.0350	-43.015681	0.000345	3.446126	1.167579	-0.000138
1308	1.3005e+02	-12.0783	-43.156981	0.000355	3.547483	1.201920	-0.000142
1309	1.3015e+02	-12.1152	-43.298281	0.000355	3.547483	1.201920	-0.000142
1310	1.3025e+02	-12.1521	-43.407283	0.000274	2.736630	0.927195	-0.000110
1311	1.3034e+02	-12.1938	-43.463803	0.000142	1.418993	0.480768	-0.000057
1312	1.3044e+02	-12.2403	-43.633363	0.000426	4.256979	1.442304	-0.000170
1313	1.3054e+02	-12.2676	-43.750440	0.000294	2.939343	0.995876	-0.000118
1314	1.3064e+02	-12.3141	-43.871554	0.000304	3.040699	1.030217	-0.000122
1315	1.3074e+02	-12.3542	-43.984594	0.000284	2.837986	0.961536	-0.000114
1316	1.3084e+02	-12.3911	-44.109745	0.000314	3.142056	1.064557	-0.000126
1317	1.3094e+02	-12.4440	-44.218748	0.000274	2.736630	0.927195	-0.000110
1318	1.3104e+02	-12.4825	-44.299490	0.000203	2.027133	0.686811	-0.000081
1319	1.3114e+02	-12.5162	-44.452902	0.000385	3.851553	1.304941	-0.000154
1320	1.3124e+02	-12.5563	-44.578053	0.000314	3.142056	1.064557	-0.000126
1321	1.3134e+02	-12.5964	-44.658796	0.000203	2.027133	0.686811	-0.000081
1322	1.3144e+02	-12.6333	-44.812207	0.000385	3.851553	1.304941	-0.000154
1323	1.3154e+02	-12.6766	-44.957544	0.000365	3.648839	1.236260	-0.000146
1324	1.3164e+02	-12.7151	-45.062509	0.000264	2.635273	0.892855	-0.000105
1325	1.3174e+02	-12.7504	-45.191697	0.000324	3.243413	1.098898	-0.000130
1326	1.3184e+02	-12.7873	-45.300700	0.000274	2.736630	0.927195	-0.000110
1327	1.3194e+02	-12.8339	-45.361257	0.000152	1.520350	0.515108	-0.000061
1328	1.3204e+02	-12.8740	-45.534854	0.000436	4.358336	1.476644	-0.000174
1329	1.3214e+02	-12.9061	-45.647894	0.000284	2.837986	0.961536	-0.000114
1330	1.3224e+02	-12.9542	-45.748822	0.000253	2.533916	0.858514	-0.000101
1331	1.3234e+02	-12.9959	-45.837639	0.000223	2.229846	0.755492	-0.000089
1332	1.3243e+02	-13.0360	-45.970865	0.000334	3.344769	1.133239	-0.000134
1333	1.3253e+02	-13.0697	-46.091979	0.000304	3.040699	1.030217	-0.000122
1334	1.3263e+02	-13.1114	-46.241353	0.000375	3.750196	1.270601	-0.000150
1335	1.3273e+02	-13.1451	-46.334207	0.000233	2.331203	0.789833	-0.000093
1336	1.3283e+02	-13.1804	-46.447247	0.000284	2.837986	0.961536	-0.000114
1337	1.3293e+02	-13.2317	-46.544138	0.000243	2.432560	0.824173	-0.000097
1338	1.3303e+02	-13.2718	-46.677363	0.000334	3.344769	1.133239	-0.000134
1339	1.3313e+02	-13.3039	-46.846923	0.000426	4.256979	1.442304	-0.000170
1340	1.3323e+02	-13.3504	-46.919592	0.000182	1.824420	0.618130	-0.000073
1341	1.3333e+02	-13.3986	-47.064928	0.000365	3.648839	1.236260	-0.000146
1342	1.3343e+02	-13.4322	-47.194117	0.000324	3.243413	1.098898	-0.000130
1343	1.3353e+02	-13.4627	-47.295045	0.000253	2.533916	0.858514	-0.000101
1344	1.3363e+02	-13.5125	-47.420196	0.000314	3.142056	1.064557	-0.000126
1345	1.3373e+02	-13.5558	-47.541310	0.000304	3.040699	1.030217	-0.000122
1346	1.3383e+02	-13.5879	-47.646276	0.000264	2.635273	0.892855	-0.000105
1347	1.3393e+02	-13.6328	-47.763353	0.000294	2.939343	0.995876	-0.000118
1348	1.3403e+02	-13.6681	-47.856207	0.000233	2.331203	0.789833	-0.000093
1349	1.3413e+02	-13.7098	-48.037878	0.000456	4.561049	1.545325	-0.000183
1350	1.3423e+02	-13.7403	-48.142844	0.000264	2.635273	0.892855	-0.000105
1351	1.3432e+02	-13.7932	-48.235698	0.000233	2.331203	0.789833	-0.000093
1352	1.3442e+02	-13.8333	-48.360849	0.000314	3.142056	1.064557	-0.000126
1353	1.3452e+02	-13.8638	-48.457740	0.000243	2.432560	0.824173	-0.000097
1354	1.3462e+02	-13.9071	-48.627300	0.000426	4.256979	1.442304	-0.000170
1355	1.3472e+02	-13.9552	-48.756488	0.000324	3.243413	1.098898	-0.000130
1356	1.3482e+02	-13.9841	-48.845305	0.000223	2.229846	0.755492	-0.000089
1357	1.3492e+02	-14.0274	-48.962382	0.000294	2.939343	0.995876	-0.000118
1358	1.3502e+02	-14.0611	-49.063311	0.000253	2.533916	0.858514	-0.000101
1359	1.3512e+02	-14.1044	-49.180388	0.000294	2.939343	0.995876	-0.000118
1360	1.3522e+02	-14.1429	-49.317650	0.000345	3.446126	1.167579	-0.000138
1361	1.3532e+02	-14.1959	-49.406467	0.000223	2.229846	0.755492	-0.000089
1362	1.3542e+02	-14.2279	-49.515470	0.000274	2.736630	0.927195	-0.000110
1363	1.3552e+02	-14.2680	-49.676955	0.000405	4.054266	1.373622	-0.000162
1364	1.3562e+02	-14.3017	-49.769809	0.000233	2.331203	0.789833	-0.000093
1365	1.3572e+02	-14.3483	-49.907072	0.000345	3.446126	1.167579	-0.000138
1366	1.3582e+02	-14.3916	-49.983778	0.000193	1.925776	0.652471	-0.000077
1367	1.3592e+02	-14.4253	-50.100855	0.000294	2.939343	0.995876	-0.000118
1368	1.3602e+02	-14.4734	-50.201783	0.000253	2.533916	0.858514	-0.000101
1369	1.3612e+02	-14.5103	-50.351157	0.000375	3.750196	1.270601	-0.000150
1370	1.3622e+02	-14.5376	-50.456122	0.000264	2.635273	0.892855	-0.000105
1371	1.3631e+02	-14.5841	-50.585311	0.000324	3.243413	1.098898	-0.000130
1372	1.3641e+02	-14.6226	-50.662016	0.000193	1.925776	0.652471	-0.000077
1373	1.3651e+02	-14.6723	-50.799279	0.000345	3.446126	1.167579	-0.000138
1374	1.3661e+02	-14.7076	-50.867910	0.000172	1.723063	0.583790	-0.000069
1375	1.3671e+02	-14.7461	-51.033433	0.000416	4.155623	1.407963	-0.000166
1376	1.3681e+02	-14.7926	-51.170695	0.000345	3.446126	1.167579	-0.000138
1377	1.3691e+02	-14.8199	-51.247401	0.000193	1.925776	0.652471	-0.000077
1378	1.3701e+02	-14.8632	-51.380627	0.000334	3.344769	1.133239	-0.000134
1379	1.3711e+02	-14.9017	-51.469444	0.000223	2.229846	0.755492	-0.000089
1380	1.3721e+02	-14.9386	-51.582483	0.000284	2.837986	0.961536	-0.000114
1381	1.3731e+02	-14.9835	-51.691486	0.000274	2.736630	0.927195	-0.000110
1382	1.3741e+02	-15.0333	-51.800489	0.000274	2.736630	0.927195	-0.000110
1383	1.3751e+02	-15.0718	-51.929677	0.000324	3.243413	1.098898	-0.000130
1384	1.3761e+02	-15.0958	-52.026568	0.000243	2.432560	0.824173	-0.000097
1385	1.3771e+02	-15.1359	-52.151719	0.000314	3.142056	1.064557	-0.000126
1386	1.3781e+02	-15.1857	-52.228425	0.000193	1.925776	0.652471	-0.000077
1387	1.3791e+02	-15.2306	-52.389910	0.000405	4.054266	1.373622	-0.000162
1388	1.3801e+02	-15.2546	-52.482765	0.000233	2.331203	0.789833	-0.000093
1389	1.3811e+02	-15.3076	-52.611953	0.000324	3.243413	1.098898	-0.000130
1390	1.3821e+02	-15.3429	-52.680584	0.000172	1.723063	0.583790	-0.000069
1391	1.3831e+02	-15.3958	-52.842070	0.000405	4.054266	1.373622	-0.000162
1392	1.3840e+02	-15.4295	-52.963184	0.000304	3.040699	1.030217	-0.000122
1393	1.3850e+02	-15.4552	-53.064112	0.000253	2.533916	0.858514	-0.000101
1394	1.3860e+02	-15.4985	-53.161003	0.000243	2.432560	0.824173	-0.000097
1395	1.3870e+02	-15.5514	-53.290192	0.000324	3.243413	1.098898	-0.000130
1396	1.3880e+02	-15.5803	-53.423417	0.000334	3.344769	1.133239	-0.000134
1397	1.3890e+02	-15.6252	-53.516271	0.000233	2.331203	0.789833	-0.000093
1398	1.3900e+02	-15.6605	-53.645460	0.000324	3.243413	1.098898	-0.000130
1399	1.3910e+02	-15.6990	-53.722165	0.000193	1.925776	0.652471	-0.000077
1400	1.3920e+02	-15.7439	-53.859428	0.000345	3.446126	1.167579	-0.000138
1401	1.3930e+02	-15.7857	-53.996690	0.000345	3.446126	1.167579	-0.000138
1402	1.3940e+02	-15.8209	-54.053210	0.000142	1.418993	0.480768	-0.000057
1403	1.3950e+02	-15.8659	-54.174324	0.000304	3.040699	1.030217	-0.000122
1404	1.3960e+02	-15.9012	-54.327736	0.000385	3.851553	1.304941	-0.000154
1405	1.3970e+02	-15.9429	-54.428664	0.000253	2.533916	0.858514	-0.000101
1406	1.3980e+02	-15.9814	-54.537667	0.000274	2.736630	0.927195	-0.000110
1407	1.3990e+02	-16.0199	-54.654744	0.000294	2.939343	0.995876	-0.000118
1408	1.4000e+02	-16.0536	-54.747598	0.000233	2.331203	0.789833	-0.000093
1409	1.4010e+02	-16.0985	-54.888897	0.000355	3.547483	1.201920	-0.000142
1410	1.4020e+02	-16.1370	-54.997900	0.000274	2.736630	0.927195	-0.000110
1411	1.4029e+02	-16.1819	-55.123051	0.000314	3.142056	1.064557	-0.000126
1412	1.4039e+02	-16.2220	-55.232054	0.000274	2.736630	0.927195	-0.000110
1413	1.4049e+02	-16.2621	-55.328945	0.000243	2.432560	0.824173	-0.000097
1414	1.4059e+02	-16.3038	-55.474282	0.000365	3.648839	1.236260	-0.000146
1415	1.4069e+02	-16.3327	-55.571173	0.000243	2.432560	0.824173	-0.000097
1416	1.4079e+02	-16.3744	-55.639805	0.000172	1.723063	0.583790	-0.000069
1417	1.4089e+02	-16.4177	-55.781104	0.000355	3.547483	1.201920	-0.000142
1418	1.4099e+02	-16.4642	-55.890107	0.000274	2.736630	0.927195	-0.000110
1419	1.4109e+02	-16.4947	-56.003147	0.000284	2.837986	0.961536	-0.000114
1420	1.4119e+02	-16.5412	-56.144447	0.000355	3.547483	1.201920	-0.000142
1421	1.4129e+02	-16.5830	-56.249412	0.000264	2.635273	0.892855	-0.000105
1422	1.4139e+02	-16.6215	-56.354378	0.000264	2.635273	0.892855	-0.000105
1423	1.4149e+02	-16.6535	-56.475492	0.000304	3.040699	1.030217	-0.000122
1424	1.4159e+02	-16.7017	-56.592569	0.000294	2.939343	0.995876	-0.000118
1425	1.4169e+02	-16.7289	-56.737906	0.000365	3.648839	1.236260	-0.000146
1426	1.4179e+02	-16.7803	-56.826723	0.000223	2.229846	0.755492	-0.000089
1427	1.4189e+02	-16.8124	-56.895354	0.000172	1.723063	0.583790	-0.000069
1428	1.4199e+02	-16.8589	-57.060877	0.000416	4.155623	1.407963	-0.000166
1429	1.4209e+02	-16.8990	-57.145656	0.000213	2.128490	0.721152	-0.000085
1430	1.4219e+02	-16.9343	-57.295030	0.000375	3.750196	1.270601	-0.000150
1431	1.4228e+02	-16.9744	-57.428256	0.000334	3.344769	1.133239	-0.000134
1432	1.4238e+02	-17.0065	-57.508999	0.000203	2.027133	0.686811	-0.000081
1433	1.4248e+02	-17.0626	-57.630113	0.000304	3.040699	1.030217	-0.000122
1434	1.4258e+02	-17.1027	-57.747190	0.000294	2.939343	0.995876	-0.000118
1435	1.4268e+02	-17.1284	-57.831969	0.000213	2.128490	0.721152	-0.000085
1436	1.4278e+02	-17.1894	-57.953084	0.000304	3.040699	1.030217	-0.000122
1437	1.4288e+02	-17.2198	-58.090346	0.000345	3.446126	1.167579	-0.000138
1438	1.4298e+02	-17.2631	-58.219534	0.000324	3.243413	1.098898	-0.000130
1439	1.4308e+02	-17.3017	-58.356797	0.000345	3.446126	1.167579	-0.000138
1440	1.4318e+02	-17.3353	-58.481948	0.000314	3.142056	1.064557	-0.000126
1441	1.4328e+02	-17.3835	-58.615174	0.000334	3.344769	1.133239	-0.000134
1442	1.4338e+02	-17.4188	-58.752436	0.000345	3.446126	1.167579	-0.000138
1443	1.4348e+02	-17.4589	-58.817031	0.000162	1.621706	0.549449	-0.000065
1444	1.4358e+02	-17.4861	-58.934108	0.000294	2.939343	0.995876	-0.000118
1445	1.4368e+02	-17.5359	-59.063296	0.000324	3.243413	1.098898	-0.000130
1446	1.4378e+02	-17.5792	-59.204596	0.000355	3.547483	1.201920	-0.000142
1447	1.4388e+02	-17.6145	-59.281301	0.000193	1.925776	0.652471	-0.000077
1448	1.4398e+02	-17.6594	-59.410490	0.000324	3.243413	1.098898	-0.000130
1449	1.4408e+02	-17.6915	-59.503344	0.000233	2.331203	0.789833	-0.000093
1450	1.4418e+02	-17.7412	-59.636569	0.000334	3.344769	1.133239	-0.000134
1451	1.4428e+02	-17.7813	-59.781906	0.000365	3.648839	1.236260	-0.000146
1452	1.4437e+02	-17.8150	-59.911094	0.000324	3.243413	1.098898	-0.000130
1453	1.4447e+02	-17.8567	-60.064506	0.000385	3.851553	1.304941	-0.000154
1454	1.4457e+02	-17.8936	-60.173508	0.000274	2.736630	0.927195	-0.000110
1455	1.4467e+02	-17.9337	-60.282511	0.000274	2.736630	0.927195	-0.000110
1456	1.4477e+02	-17.9738	-60.399588	0.000294	2.939343	0.995876	-0.000118
1457	1.4487e+02	-18.0123	-60.552999	0.000385	3.851553	1.304941	-0.000154
1458	1.4497e+02	-18.0508	-60.682187	0.000324	3.243413	1.098898	-0.000130
1459	1.4507e+02	-18.0893	-60.843673	0.000405	4.054266	1.373622	-0.000162
1460	1.4517e+02	-18.1294	-60.960750	0.000294	2.939343	0.995876	-0.000118
1461	1.4527e+02	-18.1744	-61.110124	0.000375	3.750196	1.270601	-0.000150
1462	1.4537e+02	-18.2161	-61.207015	0.000243	2.432560	0.824173	-0.000097
1463	1.4547e+02	-18.2530	-61.320055	0.000284	2.837986	0.961536	-0.000114
1464	1.4557e+02	-18.2931	-61.481540	0.000405	4.054266	1.373622	-0.000162
1465	1.4567e+02	-18.3460	-61.614766	0.000334	3.344769	1.133239	-0.000134
1466	1.4577e+02	-18.3685	-61.752028	0.000345	3.446126	1.167579	-0.000138
1467	1.4587e+02	-18.4102	-61.861031	0.000274	2.736630	0.927195	-0.000110
1468	1.4597e+02	-18.4567	-62.002331	0.000355	3.547483	1.201920	-0.000142
1469	1.4607e+02	-18.4904	-62.135556	0.000334	3.344769	1.133239	-0.000134
1470	1.4617e+02	-18.5353	-62.280893	0.000365	3.648839	1.236260	-0.000146
1471	1.4626e+02	-18.5722	-62.442378	0.000405	4.054266	1.373622	-0.000162
1472	1.4636e+02	-18.6075	-62.543307	0.000253	2.533916	0.858514	-0.000101
1473	1.4646e+02	-18.6540	-62.684607	0.000355	3.547483	1.201920	-0.000142
1474	1.4656e+02	-18.6909	-62.862241	0.000446	4.459693	1.510985	-0.000179
1475	1.4666e+02	-18.7358	-62.959132	0.000243	2.432560	0.824173	-0.000097
1476	1.4676e+02	-18.7711	-63.072172	0.000284	2.837986	0.961536	-0.000114
1477	1.4686e+02	-18.8177	-63.217509	0.000365	3.648839	1.236260	-0.000146
1478	1.4696e+02	-18.8449	-63.383031	0.000416	4.155623	1.407963	-0.000166
1479	1.4706e+02	-18.8947	-63.516257	0.000334	3.344769	1.133239	-0.000134
1480	1.4716e+02	-18.9267	-63.673705	0.000395	3.952909	1.339282	-0.000158
1481	1.4726e+02	-18.9701	-63.794819	0.000304	3.040699	1.030217	-0.000122
1482	1.4736e+02	-19.0070	-63.924007	0.000324	3.243413	1.098898	-0.000130
1483	1.4746e+02	-19.0519	-64.089530	0.000416	4.155623	1.407963	-0.000166
1484	1.4756e+02	-19.0920	-64.166235	0.000193	1.925776	0.652471	-0.000077
1485	1.4766e+02	-19.1257	-64.376166	0.000527	5.270546	1.785709	-0.000211
1486	1.4776e+02	-19.1658	-64.469021	0.000233	2.331203	0.789833	-0.000093
1487	1.4786e+02	-19.2139	-64.634543	0.000416	4.155623	1.407963	-0.000166
1488	1.4796e+02	-19.2492	-64.783917	0.000375	3.750196	1.270601	-0.000150
1489	1.4806e+02	-19.2813	-64.941365	0.000395	3.952909	1.339282	-0.000158
1490	1.4816e+02	-19.3294	-65.062480	0.000304	3.040699	1.030217	-0.000122
1491	1.4825e+02	-19.3695	-65.219928	0.000395	3.952909	1.339282	-0.000158
1492	1.4835e+02	-19.3984	-65.385450	0.000416	4.155623	1.407963	-0.000166
1493	1.4845e+02	-19.4529	-65.534824	0.000375	3.750196	1.270601	-0.000150
1494	1.4855e+02	-19.4770	-65.664013	0.000324	3.243413	1.098898	-0.000130
1495	1.4865e+02	-19.5203	-65.821461	0.000395	3.952909	1.339282	-0.000158
1496	1.4875e+02	-19.5716	-65.986984	0.000416	4.155623	1.407963	-0.000166
1497	1.4885e+02	-19.6134	-66.128283	0.000355	3.547483	1.201920	-0.000142
1498	1.4895e+02	-19.6438	-66.289769	0.000405	4.054266	1.373622	-0.000162
1499	1.4905e+02	-19.6887	-66.447217	0.000395	3.952909	1.339282	-0.000158
1500	1.4915e+02	-19.7160	-66.564294	0.000294	2.939343	0.995876	-0.000118
1501	1.4925e+02	-19.7674	-66.774225	0.000527	5.270546	1.785709	-0.000211
1502	1.4935e+02	-19.8107	-66.891302	0.000294	2.939343	0.995876	-0.000118
1503	1.4945e+02	-19.8540	-67.040676	0.000375	3.750196	1.270601	-0.000150
1504	1.4955e+02	-19.8829	-67.218310	0.000446	4.459693	1.510985	-0.000179
1505	1.4965e+02	-19.9310	-67.355573	0.000345	3.446126	1.167579	-0.000138
1506	1.4975e+02	-19.9631	-67.521095	0.000416	4.155623	1.407963	-0.000166
1507	1.4985e+02	-20.0016	-67.666432	0.000365	3.648839	1.236260	-0.000146
1508	1.4995e+02	-19.9759	-67.682581	-0.000041	-0.405427	-0.137362	-0.000016
1509	1.5005e+02	-19.9230	-67.650284	0.000081	0.810853	0.274724	0.000032
1510	1.5015e+02	-19.8861	-67.617986	0.000081	0.810853	0.274724	0.000032
1511	1.5025e+02	-19.8412	-67.597801	0.000051	0.506783	0.171703	0.000020
1512	1.5034e+02	-19.8155	-67.561467	0.000091	0.912210	0.309065	0.000037
1513	1.5044e+02	-19.7738	-67.545318	0.000041	0.405427	0.137362	0.000016
1514	1.5054e+02	-19.7321	-67.521095	0.000061	0.608140	0.206043	0.000024
1515	1.5064e+02	-19.6904	-67.484761	0.000091	0.912210	0.309065	0.000037
1516	1.5074e+02	-19.6470	-67.460538	0.000061	0.608140	0.206043	0.000024
1517	1.5084e+02	-19.6150	-67.440353	0.000051	0.506783	0.171703	0.000020
1518	1.5094e+02	-19.5636	-67.412093	0.000071	0.709497	0.240384	0.000028
1519	1.5104e+02	-19.5267	-67.343461	0.000172	1.723063	0.583790	0.000069
1520	1.5114e+02	-19.4850	-67.315201	0.000071	0.709497	0.240384	0.000028
1521	1.5124e+02	-19.4449	-67.270793	0.000111	1.114923	0.377746	0.000045
1522	1.5134e+02	-19.4032	-67.234459	0.000091	0.912210	0.309065	0.000037
1523	1.5144e+02	-19.3663	-67.161790	0.000182	1.824420	0.618130	0.000073
1524	1.5154e+02	-19.3246	-67.129493	0.000081	0.810853	0.274724	0.000032
1525	1.5164e+02	-19.2925	-67.072973	0.000142	1.418993	0.480768	0.000057
1526	1.5174e+02	-19.2524	-67.032602	0.000101	1.013566	0.343406	0.000041
1527	1.5184e+02	-19.2043	-66.939748	0.000233	2.331203	0.789833	0.000093
1528	1.5194e+02	-19.1674	-66.899376	0.000101	1.013566	0.343406	0.000041
1529	1.5204e+02	-19.1273	-66.875154	0.000061	0.608140	0.206043	0.000024
1530	1.5214e+02	-19.0888	-66.802485	0.000182	1.824420	0.618130	0.000073
1531	1.5224e+02	-19.0422	-66.754039	0.000122	1.216280	0.412087	0.000049
1532	1.5233e+02	-19.0134	-66.697520	0.000142	1.418993	0.480768	0.000057
1533	1.5243e+02	-18.9636	-66.620814	0.000193	1.925776	0.652471	0.000077
1534	1.5253e+02	-18.9348	-66.584480	0.000091	0.912210	0.309065	0.000037
1535	1.5263e+02	-18.8898	-66.483551	0.000253	2.533916	0.858514	0.000101
1536	1.5273e+02	-18.8465	-66.443180	0.000101	1.013566	0.343406	0.000041
1537	1.5283e+02	-18.8080	-66.370512	0.000182	1.824420	0.618130	0.000073
1538	1.5293e+02	-18.7711	-66.334177	0.000091	0.912210	0.309065	0.000037
1539	1.5303e+02	-18.7294	-66.217100	0.000294	2.939343	0.995876	0.000118
1540	1.5313e+02	-18.6893	-66.192878	0.000061	0.608140	0.206043	0.000024
1541	1.5323e+02	-18.6492	-66.116172	0.000193	1.925776	0.652471	0.000077
1542	1.5333e+02	-18.6075	-66.039466	0.000193	1.925776	0.652471	0.000077
1543	1.5343e+02	-18.5738	-66.003132	0.000091	0.912210	0.309065	0.000037
1544	1.5353e+02	-18.5209	-65.918352	0.000213	2.128490	0.721152	0.000085
1545	1.5363e+02	-18.4984	-65.809350	0.000274	2.736630	0.927195	0.000110
1546	1.5373e+02	-18.4583	-65.768978	0.000101	1.013566	0.343406	0.000041
1547	1.5383e+02	-18.4182	-65.672087	0.000243	2.432560	0.824173	0.000097
1548	1.5393e+02	-18.3701	-65.627679	0.000111	1.114923	0.377746	0.000045
1549	1.5403e+02	-18.3348	-65.542899	0.000213	2.128490	0.721152	0.000085
1550	1.5413e+02	-18.3027	-65.458119	0.000213	2.128490	0.721152	0.000085
1551	1.5422e+02	-18.2514	-65.393525	0.000162	1.621706	0.549449	0.000065
1552	1.5432e+02	-18.2177	-65.353153	0.000101	1.013566	0.343406	0.000041
1553	1.5442e+02	-18.1695	-65.240114	0.000284	2.837986	0.961536	0.000114
1554	1.5452e+02	-18.1359	-65.143222	0.000243	2.432560	0.824173	0.000097
1555	1.5462e+02	-18.0957	-65.123037	0.000051	0.506783	0.171703	0.000020
1556	1.5472e+02	-18.0540	-64.973663	0.000375	3.750196	1.270601	0.000150
1557	1.5482e+02	-18.0091	-64.933291	0.000101	1.013566	0.343406	0.000041
1558	1.5492e+02	-17.9674	-64.876771	0.000142	1.418993	0.480768	0.000057
1559	1.5502e+02	-17.9401	-64.800066	0.000193	1.925776	0.652471	0.000077
1560	1.5512e+02	-17.8856	-64.731434	0.000172	1.723063	0.583790	0.000069
1561	1.5522e+02	-17.8567	-64.658766	0.000182	1.824420	0.618130	0.000073
1562	1.5532e+02	-17.8166	-64.557838	0.000253	2.533916	0.858514	0.000101
1563	1.5542e+02	-17.7749	-64.469021	0.000223	2.229846	0.755492	0.000089
1564	1.5552e+02	-17.7316	-64.396352	0.000182	1.824420	0.618130	0.000073
1565	1.5562e+02	-17.6963	-64.311572	0.000213	2.128490	0.721152	0.000085
1566	1.5572e+02	-17.6562	-64.214681	0.000243	2.432560	0.824173	0.000097
1567	1.5582e+02	-17.6161	-64.166235	0.000122	1.216280	0.412087	0.000049
1568	1.5592e+02	-17.5712	-64.117790	0.000122	1.216280	0.412087	0.000049
1569	1.5602e+02	-17.5391	-63.988601	0.000324	3.243413	1.098898	0.000130
1570	1.5612e+02	-17.4926	-63.948230	0.000101	1.013566	0.343406	0.000041
1571	1.5622e+02	-17.4573	-63.823079	0.000314	3.142056	1.064557	0.000126
1572	1.5631e+02	-17.4156	-63.742336	0.000203	2.027133	0.686811	0.000081
1573	1.5641e+02	-17.3722	-63.669668	0.000182	1.824420	0.618130	0.000073
1574	1.5651e+02	-17.3434	-63.588925	0.000203	2.027133	0.686811	0.000081
1575	1.5661e+02	-17.2968	-63.528368	0.000152	1.520350	0.515108	0.000061
1576	1.5671e+02	-17.2615	-63.447625	0.000203	2.027133	0.686811	0.000081
1577	1.5681e+02	-17.2230	-63.346697	0.000253	2.533916	0.858514	0.000101
1578	1.5691e+02	-17.1781	-63.265954	0.000203	2.027133	0.686811	0.000081
1579	1.5701e+02	-17.1364	-63.177137	0.000223	2.229846	0.755492	0.000089
1580	1.5711e+02	-17.0899	-63.088320	0.000223	2.229846	0.755492	0.000089
1581	1.5721e+02	-17.0578	-62.991429	0.000243	2.432560	0.824173	0.000097
1582	1.5731e+02	-17.0225	-62.930872	0.000152	1.520350	0.515108	0.000061
1583	1.5741e+02	-16.9792	-62.854166	0.000193	1.925776	0.652471	0.000077
1584	1.5751e+02	-16.9407	-62.761312	0.000233	2.331203	0.789833	0.000093
1585	1.5761e+02	-16.8974	-62.676532	0.000213	2.128490	0.721152	0.000085
1586	1.5771e+02	-16.8589	-62.615975	0.000152	1.520350	0.515108	0.000061
1587	1.5781e+02	-16.8188	-62.502935	0.000284	2.837986	0.961536	0.000114
1588	1.5791e+02	-16.7835	-62.438341	0.000162	1.621706	0.549449	0.000065
1589	1.5801e+02	-16.7386	-62.301079	0.000345	3.446126	1.167579	0.000138
1590	1.5811e+02	-16.7017	-62.204187	0.000243	2.432560	0.824173	0.000097
1591	1.5821e+02	-16.6535	-62.119408	0.000213	2.128490	0.721152	0.000085
1592	1.5830e+02	-16.6102	-62.062888	0.000142	1.418993	0.480768	0.000057
1593	1.5840e+02	-16.5830	-61.949848	0.000284	2.837986	0.961536	0.000114
1594	1.5850e+02	-16.5477	-61.913514	0.000091	0.912210	0.309065	0.000037
1595	1.5860e+02	-16.4963	-61.780288	0.000334	3.344769	1.133239	0.000134
1596	1.5870e+02	-16.4546	-61.687434	0.000233	2.331203	0.789833	0.000093
1597	1.5880e+02	-16.4145	-61.626877	0.000152	1.520350	0.515108	0.000061
1598	1.5890e+02	-16.3824	-61.546134	0.000203	2.027133	0.686811	0.000081
1599	1.5900e+02	-16.3407	-61.465392	0.000203	2.027133	0.686811	0.000081
1600	1.5910e+02	-16.2942	-61.348315	0.000294	2.939343	0.995876	0.000118
1601	1.5920e+02	-16.2589	-61.263535	0.000213	2.128490	0.721152	0.000085
1602	1.5930e+02	-16.2236	-61.174718	0.000223	2.229846	0.755492	0.000089
1603	1.5940e+02	-16.1851	-61.134346	0.000101	1.013566	0.343406	0.000041
1604	1.5950e+02	-16.1338	-60.972861	0.000405	4.054266	1.373622	0.000162
1605	1.5960e+02	-16.0937	-60.875970	0.000243	2.432560	0.824173	0.000097
1606	1.5970e+02	-16.0648	-60.831561	0.000111	1.114923	0.377746	0.000045
1607	1.5980e+02	-16.0135	-60.742744	0.000223	2.229846	0.755492	0.000089
1608	1.5990e+02	-15.9782	-60.633742	0.000274	2.736630	0.927195	0.000110
1609	1.6000e+02	-15.9397	-60.540888	0.000233	2.331203	0.789833	0.000093
1610	1.6010e+02	-15.9092	-60.439959	0.000253	2.533916	0.858514	0.000101
1611	1.6019e+02	-15.8627	-60.334994	0.000264	2.635273	0.892855	0.000105
1612	1.6029e+02	-15.8161	-60.266362	0.000172	1.723063	0.583790	0.000069
1613	1.6039e+02	-15.7792	-60.197731	0.000172	1.723063	0.583790	0.000069
1614	1.6049e+02	-15.7455	-60.112951	0.000213	2.128490	0.721152	0.000085
1615	1.6059e+02	-15.7038	-60.003948	0.000274	2.736630	0.927195	0.000110
1616	1.6069e+02	-15.6669	-59.878797	0.000314	3.142056	1.064557	0.000126
1617	1.6079e+02	-15.6220	-59.834389	0.000111	1.114923	0.377746	0.000045
1618	1.6089e+02	-15.5787	-59.717312	0.000294	2.939343	0.995876	0.000118
1619	1.6099e+02	-15.5370	-59.612346	0.000264	2.635273	0.892855	0.000105
1620	1.6109e+02	-15.4969	-59.511418	0.000253	2.533916	0.858514	0.000101
1621	1.6119e+02	-15.4680	-59.471047	0.000101	1.013566	0.343406	0.000041
1622	1.6129e+02	-15.4199	-59.362044	0.000274	2.736630	0.927195	0.000110
1623	1.6139e+02	-15.3846	-59.281301	0.000203	2.027133	0.686811	0.000081
1624	1.6149e+02	-15.3381	-59.196521	0.000213	2.128490	0.721152	0.000085
1625	1.6159e+02	-15.3012	-59.087519	0.000274	2.736630	0.927195	0.000110
1626	1.6169e+02	-15.2675	-58.998702	0.000223	2.229846	0.755492	0.000089
1627	1.6179e+02	-15.2290	-58.913922	0.000213	2.128490	0.721152	0.000085
1628	1.6189e+02	-15.1793	-58.821068	0.000233	2.331203	0.789833	0.000093
1629	1.6199e+02	-15.1520	-58.728214	0.000233	2.331203	0.789833	0.000093
1630	1.6209e+02	-15.1022	-58.647471	0.000203	2.027133	0.686811	0.000081
1631	1.6219e+02	-15.0589	-58.586914	0.000152	1.520350	0.515108	0.000061
1632	1.6228e+02	-15.0236	-58.473874	0.000284	2.837986	0.961536	0.000114
1633	1.6238e+02	-14.9916	-58.356797	0.000294	2.939343	0.995876	0.000118
1634	1.6248e+02	-14.9418	-58.288166	0.000172	1.723063	0.583790	0.000069
1635	1.6258e+02	-14.9065	-58.223572	0.000162	1.621706	0.549449	0.000065
1636	1.6268e+02	-14.8648	-58.090346	0.000334	3.344769	1.133239	0.000134
1637	1.6278e+02	-14.8295	-58.037863	0.000132	1.317636	0.446427	0.000053
1638	1.6288e+02	-14.7846	-57.969232	0.000172	1.723063	0.583790	0.000069
1639	1.6298e+02	-14.7429	-57.836007	0.000334	3.344769	1.133239	0.000134
1640	1.6308e+02	-14.7092	-57.735078	0.000253	2.533916	0.858514	0.000101
1641	1.6318e+02	-14.6595	-57.662410	0.000182	1.824420	0.618130	0.000073
1642	1.6328e+02	-14.6242	-57.565518	0.000243	2.432560	0.824173	0.000097
1643	1.6338e+02	-14.5696	-57.440367	0.000314	3.142056	1.064557	0.000126
1644	1.6348e+02	-14.5568	-57.416144	0.000061	0.608140	0.206043	0.000024
1645	1.6358e+02	-14.5135	-57.299068	0.000294	2.939343	0.995876	0.000118
1646	1.6368e+02	-14.4654	-57.210251	0.000223	2.229846	0.755492	0.000089
1647	1.6378e+02	-14.4204	-57.081062	0.000324	3.243413	1.098898	0.000130
1648	1.6388e+02	-14.3803	-57.044728	0.000091	0.912210	0.309065	0.000037
1649	1.6398e+02	-14.3547	-56.923614	0.000304	3.040699	1.030217	0.000122
1650	1.6408e+02	-14.3033	-56.802500	0.000304	3.040699	1.030217	0.000122
1651	1.6418e+02	-14.2584	-56.737906	0.000162	1.621706	0.549449	0.000065
1652	1.6427e+02	-14.2215	-56.653126	0.000213	2.128490	0.721152	0.000085
1653	1.6437e+02	-14.1878	-56.584495	0.000172	1.723063	0.583790	0.000069
1654	1.6447e+02	-14.1525	-56.479529	0.000264	2.635273	0.892855	0.000105
1655	1.6457e+02	-14.1028	-56.342266	0.000345	3.446126	1.167579	0.000138
1656	1.6467e+02	-14.0804	-56.265561	0.000193	1.925776	0.652471	0.000077
1657	1.6477e+02	-14.0226	-56.184818	0.000203	2.027133	0.686811	0.000081
1658	1.6487e+02	-13.9873	-56.108112	0.000193	1.925776	0.652471	0.000077
1659	1.6497e+02	-13.9488	-55.962776	0.000365	3.648839	1.236260	0.000146
1660	1.6507e+02	-13.9087	-55.898181	0.000162	1.621706	0.549449	0.000065
1661	1.6517e+02	-13.8718	-55.793216	0.000264	2.635273	0.892855	0.000105
1662	1.6527e+02	-13.8301	-55.696325	0.000243	2.432560	0.824173	0.000097
1663	1.6537e+02	-13.7948	-55.631730	0.000162	1.621706	0.549449	0.000065
1664	1.6547e+02	-13.7370	-55.542913	0.000223	2.229846	0.755492	0.000089
1665	1.6557e+02	-13.7162	-55.470245	0.000182	1.824420	0.618130	0.000073
1666	1.6567e+02	-13.6761	-55.308760	0.000405	4.054266	1.373622	0.000162
1667	1.6577e+02	-13.6296	-55.276463	0.000081	0.810853	0.274724	0.000032
1668	1.6587e+02	-13.5911	-55.187646	0.000223	2.229846	0.755492	0.000089
1669	1.6597e+02	-13.5526	-55.098829	0.000223	2.229846	0.755492	0.000089
1670	1.6607e+02	-13.5092	-54.985789	0.000284	2.837986	0.961536	0.000114
1671	1.6616e+02	-13.4740	-54.892935	0.000233	2.331203	0.789833	0.000093
1672	1.6626e+02	-13.4306	-54.751635	0.000355	3.547483	1.201920	0.000142
1673	1.6636e+02	-13.3969	-54.703189	0.000122	1.216280	0.412087	0.000049
1674	1.6646e+02	-13.3456	-54.594187	0.000274	2.736630	0.927195	0.000110
1675	1.6656e+02	-13.3183	-54.509407	0.000213	2.128490	0.721152	0.000085
1676	1.6666e+02	-13.2750	-54.404441	0.000264	2.635273	0.892855	0.000105
1677	1.6676e+02	-13.2269	-54.303513	0.000253	2.533916	0.858514	0.000101
1678	1.6686e+02	-13.1916	-54.226807	0.000193	1.925776	0.652471	0.000077
1679	1.6696e+02	-13.1451	-54.133953	0.000233	2.331203	0.789833	0.000093
1680	1.6706e+02	-13.1114	-54.057248	0.000193	1.925776	0.652471	0.000077
1681	1.6716e+02	-13.0777	-53.883651	0.000436	4.358336	1.476644	0.000174
1682	1.6726e+02	-13.0328	-53.835205	0.000122	1.216280	0.412087	0.000049
1683	1.6736e+02	-12.9959	-53.738314	0.000243	2.432560	0.824173	0.000097
1684	1.6746e+02	-12.9478	-53.637385	0.000253	2.533916	0.858514	0.000101
1685	1.6756e+02	-12.9093	-53.552606	0.000213	2.128490	0.721152	0.000085
1686	1.6766e+02	-12.8804	-53.471863	0.000203	2.027133	0.686811	0.000081
1687	1.6776e+02	-12.8274	-53.366897	0.000264	2.635273	0.892855	0.000105
1688	1.6786e+02	-12.7938	-53.257895	0.000274	2.736630	0.927195	0.000110
1689	1.6796e+02	-12.7553	-53.152929	0.000264	2.635273	0.892855	0.000105
1690	1.6806e+02	-12.7200	-53.100446	0.000132	1.317636	0.446427	0.000053
1691	1.6816e+02	-12.6718	-52.987407	0.000284	2.837986	0.961536	0.000114
1692	1.6825e+02	-12.6430	-52.898590	0.000223	2.229846	0.755492	0.000089
1693	1.6835e+02	-12.5964	-52.765364	0.000334	3.344769	1.133239	0.000134
1694	1.6845e+02	-12.5627	-52.724993	0.000101	1.013566	0.343406	0.000041
1695	1.6855e+02	-12.5146	-52.603879	0.000304	3.040699	1.030217	0.000122
1696	1.6865e+02	-12.4761	-52.523136	0.000203	2.027133	0.686811	0.000081
1697	1.6875e+02	-12.4328	-52.389910	0.000334	3.344769	1.133239	0.000134
1698	1.6885e+02	-12.3943	-52.284945	0.000264	2.635273	0.892855	0.000105
1699	1.6895e+02	-12.3542	-52.208239	0.000193	1.925776	0.652471	0.000077
1700	1.6905e+02	-12.3205	-52.107311	0.000253	2.533916	0.858514	0.000101
1701	1.6915e+02	-12.2740	-52.030605	0.000193	1.925776	0.652471	0.000077
1702	1.6925e+02	-12.2403	-51.897380	0.000334	3.344769	1.133239	0.000134
1703	1.6935e+02	-12.1922	-51.828749	0.000172	1.723063	0.583790	0.000069
1704	1.6945e+02	-12.1601	-51.735894	0.000233	2.331203	0.789833	0.000093
1705	1.6955e+02	-12.1264	-51.578446	0.000395	3.952909	1.339282	0.000158
1706	1.6965e+02	-12.0783	-51.513852	0.000162	1.621706	0.549449	0.000065
1707	1.6975e+02	-12.0398	-51.396775	0.000294	2.939343	0.995876	0.000118
1708	1.6985e+02	-11.9981	-51.291810	0.000264	2.635273	0.892855	0.000105
1709	1.6995e+02	-11.9563	-51.178770	0.000284	2.837986	0.961536	0.000114
1710	1.7005e+02	-11.9259	-51.098027	0.000203	2.027133	0.686811	0.000081
1711	1.7015e+02	-11.8809	-51.033433	0.000162	1.621706	0.549449	0.000065
1712	1.7024e+02	-11.8232	-50.904245	0.000324	3.243413	1.098898	0.000130
1713	1.7034e+02	-11.7991	-50.771019	0.000334	3.344769	1.133239	0.000134
1714	1.7044e+02	-11.7654	-50.666054	0.000264	2.635273	0.892855	0.000105
1715	1.7054e+02	-11.7205	-50.553014	0.000284	2.837986	0.961536	0.000114
1716	1.7064e+02	-11.6804	-50.480345	0.000182	1.824420	0.618130	0.000073
1717	1.7074e+02	-11.6371	-50.351157	0.000324	3.243413	1.098898	0.000130
1718	1.7084e+02	-11.6018	-50.258303	0.000233	2.331203	0.789833	0.000093
1719	1.7094e+02	-11.5665	-50.169486	0.000223	2.229846	0.755492	0.000089
1720	1.7104e+02	-11.5216	-50.084706	0.000213	2.128490	0.721152	0.000085
1721	1.7114e+02	-11.4847	-49.963592	0.000304	3.040699	1.030217	0.000122
1722	1.7124e+02	-11.4366	-49.822292	0.000355	3.547483	1.201920	0.000142
1723	1.7134e+02	-11.3965	-49.753661	0.000172	1.723063	0.583790	0.000069
1724	1.7144e+02	-11.3612	-49.620435	0.000334	3.344769	1.133239	0.000134
1725	1.7154e+02	-11.3211	-49.539693	0.000203	2.027133	0.686811	0.000081
1726	1.7164e+02	-11.2794	-49.402430	0.000345	3.446126	1.167579	0.000138
1727	1.7174e+02	-11.2360	-49.317650	0.000213	2.128490	0.721152	0.000085
1728	1.7184e+02	-11.1959	-49.192499	0.000314	3.142056	1.064557	0.000126
1729	1.7194e+02	-11.1639	-49.103682	0.000223	2.229846	0.755492	0.000089
1730	1.7204e+02	-11.1077	-49.010828	0.000233	2.331203	0.789833	0.000093
1731	1.7213e+02	-11.0836	-48.897788	0.000284	2.837986	0.961536	0.000114
1732	1.7223e+02	-11.0403	-48.813008	0.000213	2.128490	0.721152	0.000085
1733	1.7233e+02	-11.0098	-48.663634	0.000375	3.750196	1.270601	0.000150
1734	1.7243e+02	-10.9553	-48.546557	0.000294	2.939343	0.995876	0.000118
1735	1.7253e+02	-10.9248	-48.445629	0.000253	2.533916	0.858514	0.000101
1736	1.7263e+02	-10.8751	-48.340663	0.000264	2.635273	0.892855	0.000105
1737	1.7273e+02	-10.8430	-48.231661	0.000274	2.736630	0.927195	0.000110
1738	1.7283e+02	-10.8077	-48.118621	0.000284	2.837986	0.961536	0.000114
1739	1.7293e+02	-10.7660	-48.041915	0.000193	1.925776	0.652471	0.000077
1740	1.7303e+02	-10.7195	-47.936950	0.000264	2.635273	0.892855	0.000105
1741	1.7313e+02	-10.6858	-47.795650	0.000355	3.547483	1.201920	0.000142
1742	1.7323e+02	-10.6441	-47.690684	0.000264	2.635273	0.892855	0.000105
1743	1.7333e+02	-10.6008	-47.593793	0.000243	2.432560	0.824173	0.000097
1744	1.7343e+02	-10.5607	-47.464605	0.000324	3.243413	1.098898	0.000130
1745	1.7353e+02	-10.5238	-47.351565	0.000284	2.837986	0.961536	0.000114
1746	1.7363e+02	-10.4837	-47.222377	0.000324	3.243413	1.098898	0.000130
1747	1.7373e+02	-10.4468	-47.157783	0.000162	1.621706	0.549449	0.000065
1748	1.7383e+02	-10.4018	-47.028594	0.000324	3.243413	1.098898	0.000130
1749	1.7393e+02	-10.3666	-46.915554	0.000284	2.837986	0.961536	0.000114
1750	1.7403e+02	-10.3264	-46.822700	0.000233	2.331203	0.789833	0.000093
1751	1.7413e+02	-10.2799	-46.701586	0.000304	3.040699	1.030217	0.000122
1752	1.7422e+02	-10.2446	-46.596621	0.000264	2.635273	0.892855	0.000105
1753	1.7432e+02	-10.1997	-46.499729	0.000243	2.432560	0.824173	0.000097
1754	1.7442e+02	-10.1773	-46.346318	0.000385	3.851553	1.304941	0.000154
1755	1.7452e+02	-10.1323	-46.209056	0.000345	3.446126	1.167579	0.000138
1756	1.7462e+02	-10.0826	-46.124276	0.000213	2.128490	0.721152	0.000085
1757	1.7472e+02	-10.0377	-46.035459	0.000223	2.229846	0.755492	0.000089
1758	1.7482e+02	-9.9976	-45.914345	0.000304	3.040699	1.030217	0.000122
1759	1.7492e+02	-9.9687	-45.813416	0.000253	2.533916	0.858514	0.000101
1760	1.7502e+02	-9.9190	-45.684228	0.000324	3.243413	1.098898	0.000130
1761	1.7512e+02	-9.8901	-45.579262	0.000264	2.635273	0.892855	0.000105
1762	1.7522e+02	-9.8468	-45.442000	0.000345	3.446126	1.167579	0.000138
1763	1.7532e+02	-9.8019	-45.353183	0.000223	2.229846	0.755492	0.000089
1764	1.7542e+02	-9.7618	-45.207846	0.000365	3.648839	1.236260	0.000146
1765	1.7552e+02	-9.7281	-45.110955	0.000243	2.432560	0.824173	0.000097
1766	1.7562e+02	-9.6848	-44.981766	0.000324	3.243413	1.098898	0.000130
1767	1.7572e+02	-9.6366	-44.892949	0.000223	2.229846	0.755492	0.000089
1768	1.7582e+02	-9.6110	-44.735501	0.000395	3.952909	1.339282	0.000158
1769	1.7592e+02	-9.5741	-44.634573	0.000253	2.533916	0.858514	0.000101
1770	1.7602e+02	-9.5195	-44.541719	0.000233	2.331203	0.789833	0.000093
1771	1.7612e+02	-9.4906	-44.388307	0.000385	3.851553	1.304941	0.000154
1772	1.7621e+02	-9.4409	-44.311602	0.000193	1.925776	0.652471	0.000077
1773	1.7631e+02	-9.4008	-44.158191	0.000385	3.851553	1.304941	0.000154
1774	1.7641e+02	-9.3639	-44.093597	0.000162	1.621706	0.549449	0.000065
1775	1.7651e+02	-9.3270	-43.956334	0.000345	3.446126	1.167579	0.000138
1776	1.7661e+02	-9.2837	-43.815034	0.000355	3.547483	1.201920	0.000142
1777	1.7671e+02	-9.2484	-43.734291	0.000203	2.027133	0.686811	0.000081
1778	1.7681e+02	-9.2067	-43.584917	0.000375	3.750196	1.270601	0.000150
1779	1.7691e+02	-9.1618	-43.475915	0.000274	2.736630	0.927195	0.000110
1780	1.7701e+02	-9.1249	-43.374986	0.000253	2.533916	0.858514	0.000101
1781	1.7711e+02	-9.0944	-43.274058	0.000253	2.533916	0.858514	0.000101
1782	1.7721e+02	-9.0559	-43.120647	0.000385	3.851553	1.304941	0.000154
1783	1.7731e+02	-9.0126	-42.999533	0.000304	3.040699	1.030217	0.000122
1784	1.7741e+02	-8.9645	-42.902641	0.000243	2.432560	0.824173	0.000097
1785	1.7751e+02	-8.9308	-42.773453	0.000324	3.243413	1.098898	0.000130
1786	1.7761e+02	-8.8939	-42.668488	0.000264	2.635273	0.892855	0.000105
1787	1.7771e+02	-8.8457	-42.551411	0.000294	2.939343	0.995876	0.000118
1788	1.7781e+02	-8.8072	-42.402037	0.000375	3.750196	1.270601	0.000150
1789	1.7791e+02	-8.7687	-42.305145	0.000243	2.432560	0.824173	0.000097
1790	1.7801e+02	-8.7238	-42.212291	0.000233	2.331203	0.789833	0.000093
1791	1.7810e+02	-8.6805	-42.083103	0.000324	3.243413	1.098898	0.000130
1792	1.7820e+02	-8.6484	-41.982175	0.000253	2.533916	0.858514	0.000101
1793	1.7830e+02	-8.6083	-41.812615	0.000426	4.256979	1.442304	0.000170
1794	1.7840e+02	-8.5762	-41.703612	0.000274	2.736630	0.927195	0.000110
1795	1.7850e+02	-8.5297	-41.598647	0.000264	2.635273	0.892855	0.000105
1796	1.7860e+02	-8.4848	-41.485607	0.000284	2.837986	0.961536	0.000114
1797	1.7870e+02	-8.4431	-41.372567	0.000284	2.837986	0.961536	0.000114
1798	1.7880e+02	-8.4142	-41.259527	0.000284	2.837986	0.961536	0.000114
1799	1.7890e+02	-8.3677	-41.146487	0.000284	2.837986	0.961536	0.000114
1800	1.7900e+02	-8.3372	-40.997113	0.000375	3.750196	1.270601	0.000150
1801	1.7910e+02	-8.2907	-40.875999	0.000304	3.040699	1.030217	0.000122
1802	1.7920e+02	-8.2425	-40.775071	0.000253	2.533916	0.858514	0.000101
1803	1.7930e+02	-8.2089	-40.641845	0.000334	3.344769	1.133239	0.000134
1804	1.7940e+02	-8.1784	-40.565140	0.000193	1.925776	0.652471	0.000077
1805	1.7950e+02	-8.1383	-40.419803	0.000365	3.648839	1.236260	0.000146
1806	1.7960e+02	-8.1014	-40.306763	0.000284	2.837986	0.961536	0.000114
1807	1.7970e+02	-8.0549	-40.169501	0.000345	3.446126	1.167579	0.000138
1808	1.7980e+02	-8.0180	-40.080684	0.000223	2.229846	0.755492	0.000089
1809	1.7990e+02	-7.9666	-39.979755	0.000253	2.533916	0.858514	0.000101
1810	1.8000e+02	-7.9281	-39.822307	0.000395	3.952909	1.339282	0.000158
1811	1.8009e+02	-7.8864	-39.693119	0.000324	3.243413	1.098898	0.000130
1812	1.8019e+02	-7.8527	-39.563930	0.000324	3.243413	1.098898	0.000130
1813	1.8029e+02	-7.8190	-39.499336	0.000162	1.621706	0.549449	0.000065
1814	1.8039e+02	-7.7677	-39.353999	0.000365	3.648839	1.236260	0.000146
1815	1.8049e+02	-7.7276	-39.176365	0.000446	4.459693	1.510985	0.000179
1816	1.8059e+02	-7.7035	-39.095622	0.000203	2.027133	0.686811	0.000081
1817	1.8069e+02	-7.6634	-38.978546	0.000294	2.939343	0.995876	0.000118
1818	1.8079e+02	-7.6089	-38.857431	0.000304	3.040699	1.030217	0.000122
1819	1.8089e+02	-7.5752	-38.756503	0.000253	2.533916	0.858514	0.000101
1820	1.8099e+02	-7.5319	-38.582906	0.000436	4.358336	1.476644	0.000174
1821	1.8109e+02	-7.4902	-38.506201	0.000193	1.925776	0.652471	0.000077
1822	1.8119e+02	-7.4549	-38.409309	0.000243	2.432560	0.824173	0.000097
1823	1.8129e+02	-7.4100	-38.223601	0.000466	4.662406	1.579666	0.000187
1824	1.8139e+02	-7.3811	-38.146896	0.000193	1.925776	0.652471	0.000077
1825	1.8149e+02	-7.3378	-38.009633	0.000345	3.446126	1.167579	0.000138
1826	1.8159e+02	-7.2912	-37.872370	0.000345	3.446126	1.167579	0.000138
1827	1.8169e+02	-7.2511	-37.718959	0.000385	3.851553	1.304941	0.000154
1828	1.8179e+02	-7.2158	-37.609957	0.000274	2.736630	0.927195	0.000110
1829	1.8189e+02	-7.1822	-37.480768	0.000324	3.243413	1.098898	0.000130
1830	1.8199e+02	-7.1324	-37.408100	0.000182	1.824420	0.618130	0.000073
1831	1.8209e+02	-7.1019	-37.250651	0.000395	3.952909	1.339282	0.000158
1832	1.8218e+02	-7.0490	-37.056869	0.000487	4.865119	1.648347	0.000195
1833	1.8228e+02	-7.0089	-37.056869	0.000000	0.000000	0.000000	0.000000
1834	1.8238e+02	-6.9784	-36.907495	0.000375	3.750196	1.270601	0.000150
1835	1.8248e+02	-6.9447	-36.786381	0.000304	3.040699	1.030217	0.000122
1836	1.8258e+02	-6.8982	-36.641044	0.000365	3.648839	1.236260	0.000146
1837	1.8268e+02	-6.8549	-36.523967	0.000294	2.939343	0.995876	0.000118
1838	1.8278e+02	-6.8100	-36.402853	0.000304	3.040699	1.030217	0.000122
1839	1.8288e+02	-6.7747	-36.265590	0.000345	3.446126	1.167579	0.000138
1840	1.8298e+02	-6.7378	-36.160625	0.000264	2.635273	0.892855	0.000105
1841	1.8308e+02	-6.6961	-35.978954	0.000456	4.561049	1.545325	0.000183
1842	1.8318e+02	-6.6608	-35.882062	0.000243	2.432560	0.824173	0.000097
1843	1.8328e+02	-6.6239	-35.756911	0.000314	3.142056	1.064557	0.000126
1844	1.8338e+02	-6.5790	-35.668094	0.000223	2.229846	0.755492	0.000089
1845	1.8348e+02	-6.5292	-35.490460	0.000446	4.459693	1.510985	0.000179
1846	1.8358e+02	-6.4923	-35.361272	0.000324	3.243413	1.098898	0.000130
1847	1.8368e+02	-6.4618	-35.264381	0.000243	2.432560	0.824173	0.000097
1848	1.8378e+02	-6.4298	-35.135192	0.000324	3.243413	1.098898	0.000130
1849	1.8388e+02	-6.3768	-34.993893	0.000355	3.547483	1.201920	0.000142
1850	1.8398e+02	-6.3415	-34.860667	0.000334	3.344769	1.133239	0.000134
1851	1.8407e+02	-6.3046	-34.771850	0.000223	2.229846	0.755492	0.000089
1852	1.8417e+02	-6.2613	-34.622476	0.000375	3.750196	1.270601	0.000150
1853	1.8427e+02	-6.2212	-34.497325	0.000314	3.142056	1.064557	0.000126
1854	1.8437e+02	-6.1795	-34.356025	0.000355	3.547483	1.201920	0.000142
1855	1.8447e+02	-6.1426	-34.259134	0.000243	2.432560	0.824173	0.000097
1856	1.8457e+02	-6.1057	-34.101686	0.000395	3.952909	1.339282	0.000158
1857	1.8467e+02	-6.0640	-33.976534	0.000314	3.142056	1.064557	0.000126
1858	1.8477e+02	-6.0303	-33.875606	0.000253	2.533916	0.858514	0.000101
1859	1.8487e+02	-5.9806	-33.726232	0.000375	3.750196	1.270601	0.000150
1860	1.8497e+02	-5.9437	-33.588969	0.000345	3.446126	1.167579	0.000138
1861	1.8507e+02	-5.9148	-33.447670	0.000355	3.547483	1.201920	0.000142
1862	1.8517e+02	-5.8731	-33.302333	0.000365	3.648839	1.236260	0.000146
1863	1.8527e+02	-5.8202	-33.169107	0.000334	3.344769	1.133239	0.000134
1864	1.8537e+02	-5.7752	-33.027807	0.000355	3.547483	1.201920	0.000142
1865	1.8547e+02	-5.7448	-32.918805	0.000274	2.736630	0.927195	0.000110
1866	1.8557e+02	-5.6966	-32.761357	0.000395	3.952909	1.339282	0.000158
1867	1.8567e+02	-5.6629	-32.636205	0.000314	3.142056	1.064557	0.000126
1868	1.8577e+02	-5.6212	-32.531240	0.000264	2.635273	0.892855	0.000105
1869	1.8587e+02	-5.5827	-32.369754	0.000405	4.054266	1.373622	0.000162
1870	1.8597e+02	-5.5362	-32.240566	0.000324	3.243413	1.098898	0.000130
1871	1.8606e+02	-5.4993	-32.095229	0.000365	3.648839	1.236260	0.000146
1872	1.8616e+02	-5.4640	-31.937781	0.000395	3.952909	1.339282	0.000158
1873	1.8626e+02	-5.4335	-31.853001	0.000213	2.128490	0.721152	0.000085
1874	1.8636e+02	-5.3886	-31.691516	0.000405	4.054266	1.373622	0.000162
1875	1.8646e+02	-5.3357	-31.534067	0.000395	3.952909	1.339282	0.000158
1876	1.8656e+02	-5.2988	-31.376619	0.000395	3.952909	1.339282	0.000158
1877	1.8666e+02	-5.2667	-31.259542	0.000294	2.939343	0.995876	0.000118
1878	1.8676e+02	-5.2154	-31.114205	0.000365	3.648839	1.236260	0.000146
1879	1.8686e+02	-5.1945	-30.980980	0.000334	3.344769	1.133239	0.000134
1880	1.8696e+02	-5.1544	-30.839680	0.000355	3.547483	1.201920	0.000142
1881	1.8706e+02	-5.0966	-30.690306	0.000375	3.750196	1.270601	0.000150
1882	1.8716e+02	-5.0726	-30.516709	0.000436	4.358336	1.476644	0.000174
1883	1.8726e+02	-5.0309	-30.403669	0.000284	2.837986	0.961536	0.000114
1884	1.8736e+02	-4.9860	-30.266407	0.000345	3.446126	1.167579	0.000138
1885	1.8746e+02	-4.9426	-30.088773	0.000446	4.459693	1.510985	0.000179
1886	1.8756e+02	-4.9122	-30.024178	0.000162	1.621706	0.549449	0.000065
1887	1.8766e+02	-4.8528	-29.862693	0.000405	4.054266	1.373622	0.000162
1888	1.8776e+02	-4.8207	-29.705245	0.000395	3.952909	1.339282	0.000158
1889	1.8786e+02	-4.7886	-29.511462	0.000487	4.865119	1.648347	0.000195
1890	1.8796e+02	-4.7485	-29.349977	0.000405	4.054266	1.373622	0.000162
1891	1.8806e+02	-4.7020	-29.269234	0.000203	2.027133	0.686811	0.000081
1892	1.8815e+02	-4.6715	-29.079489	0.000476	4.763762	1.614006	0.000191
1893	1.8825e+02	-4.6282	-28.934152	0.000365	3.648839	1.236260	0.000146
1894	1.8835e+02	-4.5865	-28.792852	0.000355	3.547483	1.201920	0.000142
1895	1.8845e+02	-4.5432	-28.667701	0.000314	3.142056	1.064557	0.000126
1896	1.8855e+02	-4.5079	-28.546587	0.000304	3.040699	1.030217	0.000122
1897	1.8865e+02	-4.4630	-28.377027	0.000426	4.256979	1.442304	0.000170
1898	1.8875e+02	-4.4373	-28.223616	0.000385	3.851553	1.304941	0.000154
1899	1.8885e+02	-4.3860	-28.041945	0.000456	4.561049	1.545325	0.000183
1900	1.8895e+02	-4.3443	-27.912756	0.000324	3.243413	1.098898	0.000130
1901	1.8905e+02	-4.3026	-27.771457	0.000355	3.547483	1.201920	0.000142
1902	1.8915e+02	-4.2785	-27.622083	0.000375	3.750196	1.270601	0.000150
1903	1.8925e+02	-4.2239	-27.476746	0.000365	3.648839	1.236260	0.000146
1904	1.8935e+02	-4.1983	-27.311223	0.000416	4.155623	1.407963	0.000166
1905	1.8945e+02	-4.1502	-27.153775	0.000395	3.952909	1.339282	0.000158
1906	1.8955e+02	-4.1036	-26.984215	0.000426	4.256979	1.442304	0.000170
1907	1.8965e+02	-4.0651	-26.871175	0.000284	2.837986	0.961536	0.000114
1908	1.8975e+02	-4.0346	-26.697579	0.000436	4.358336	1.476644	0.000174
1909	1.8985e+02	-3.9897	-26.540130	0.000395	3.952909	1.339282	0.000158
1910	1.8995e+02	-3.9528	-26.406905	0.000334	3.344769	1.133239	0.000134
1911	1.9004e+02	-3.9159	-26.241382	0.000416	4.155623	1.407963	0.000166
1912	1.9014e+02	-3.8774	-26.051637	0.000476	4.763762	1.614006	0.000191
1913	1.9024e+02	-3.8277	-25.938597	0.000284	2.837986	0.961536	0.000114
1914	1.9034e+02	-3.7956	-25.781149	0.000395	3.952909	1.339282	0.000158
1915	1.9044e+02	-3.7491	-25.647923	0.000334	3.344769	1.133239	0.000134
1916	1.9054e+02	-3.7042	-25.478364	0.000426	4.256979	1.442304	0.000170
1917	1.9064e+02	-3.6673	-25.288618	0.000476	4.763762	1.614006	0.000191
1918	1.9074e+02	-3.6224	-25.131170	0.000395	3.952909	1.339282	0.000158
1919	1.9084e+02	-3.5823	-24.989870	0.000355	3.547483	1.201920	0.000142
1920	1.9094e+02	-3.5502	-24.820311	0.000426	4.256979	1.442304	0.000170
1921	1.9104e+02	-3.5181	-24.674974	0.000365	3.648839	1.236260	0.000146
1922	1.9114e+02	-3.4667	-24.485228	0.000476	4.763762	1.614006	0.000191
1923	1.9124e+02	-3.4298	-24.343929	0.000355	3.547483	1.201920	0.000142
1924	1.9134e+02	-3.3881	-24.170332	0.000436	4.358336	1.476644	0.000174
1925	1.9144e+02	-3.3448	-23.992698	0.000446	4.459693	1.510985	0.000179
1926	1.9154e+02	-3.3063	-23.819101	0.000436	4.358336	1.476644	0.000174
1927	1.9164e+02	-3.2678	-23.702024	0.000294	2.939343	0.995876	0.000118
1928	1.9174e+02	-3.2213	-23.544576	0.000395	3.952909	1.339282	0.000158
1929	1.9184e+02	-3.1956	-23.375016	0.000426	4.256979	1.442304	0.000170
1930	1.9194e+02	-3.1523	-23.205456	0.000426	4.256979	1.442304	0.000170
1931	1.9203e+02	-3.1106	-23.052045	0.000385	3.851553	1.304941	0.000154
1932	1.9213e+02	-3.0721	-22.874411	0.000446	4.459693	1.510985	0.000179
1933	1.9223e+02	-3.0336	-22.684666	0.000476	4.763762	1.614006	0.000191
1934	1.9233e+02	-2.9919	-22.523180	0.000405	4.054266	1.373622	0.000162
1935	1.9243e+02	-2.9598	-22.381881	0.000355	3.547483	1.201920	0.000142
1936	1.9253e+02	-2.9133	-22.163875	0.000547	5.473259	1.854390	0.000219
1937	1.9263e+02	-2.8668	-22.014501	0.000375	3.750196	1.270601	0.000150
1938	1.9273e+02	-2.8427	-21.877239	0.000345	3.446126	1.167579	0.000138
1939	1.9283e+02	-2.7978	-21.679419	0.000497	4.966476	1.682688	0.000199
1940	1.9293e+02	-2.7545	-21.505822	0.000436	4.358336	1.476644	0.000174
1941	1.9303e+02	-2.7112	-21.376634	0.000324	3.243413	1.098898	0.000130
1942	1.9313e+02	-2.6743	-21.174777	0.000507	5.067832	1.717028	0.000203
1943	1.9323e+02	-2.6293	-21.013292	0.000405	4.054266	1.373622	0.000162
1944	1.9333e+02	-2.5989	-20.839695	0.000436	4.358336	1.476644	0.000174
1945	1.9343e+02	-2.5491	-20.658024	0.000456	4.561049	1.545325	0.000183
1946	1.9353e+02	-2.5202	-20.508650	0.000375	3.750196	1.270601	0.000150
1947	1.9363e+02	-2.4705	-20.314867	0.000487	4.865119	1.648347	0.000195
1948	1.9373e+02	-2.4352	-20.141270	0.000436	4.358336	1.476644	0.000174
1949	1.9383e+02	-2.4047	-19.979785	0.000405	4.054266	1.373622	0.000162
1950	1.9393e+02	-2.3422	-19.806188	0.000436	4.358336	1.476644	0.000174
1951	1.9403e+02	-2.3117	-19.664888	0.000355	3.547483	1.201920	0.000142
1952	1.9412e+02	-2.2764	-19.475143	0.000476	4.763762	1.614006	0.000191
1953	1.9422e+02	-2.2363	-19.293472	0.000456	4.561049	1.545325	0.000183
1954	1.9432e+02	-2.1946	-19.131986	0.000405	4.054266	1.373622	0.000162
1955	1.9442e+02	-2.1609	-18.938204	0.000487	4.865119	1.648347	0.000195
1956	1.9452e+02	-2.1224	-18.817090	0.000304	3.040699	1.030217	0.000122
1957	1.9462e+02	-2.0727	-18.574862	0.000608	6.081399	2.060434	0.000243
1958	1.9472e+02	-2.0374	-18.441636	0.000334	3.344769	1.133239	0.000134
1959	1.9482e+02	-1.9941	-18.219594	0.000557	5.574616	1.888731	0.000223
1960	1.9492e+02	-1.9572	-18.074257	0.000365	3.648839	1.236260	0.000146
1961	1.9502e+02	-1.9155	-17.916808	0.000395	3.952909	1.339282	0.000158
1962	1.9512e+02	-1.8705	-17.698803	0.000547	5.473259	1.854390	0.000219
1963	1.9522e+02	-1.8401	-17.565578	0.000334	3.344769	1.133239	0.000134
1964	1.9532e+02	-1.7951	-17.371795	0.000487	4.865119	1.648347	0.000195
1965	1.9542e+02	-1.7631	-17.178013	0.000487	4.865119	1.648347	0.000195
1966	1.9552e+02	-1.7181	-17.020564	0.000395	3.952909	1.339282	0.000158
1967	1.9562e+02	-1.6796	-16.826782	0.000487	4.865119	1.648347	0.000195
1968	1.9572e+02	-1.6411	-16.649148	0.000446	4.459693	1.510985	0.000179
1969	1.9582e+02	-1.5978	-16.435180	0.000537	5.371902	1.820050	0.000215
1970	1.9592e+02	-1.5673	-16.305991	0.000324	3.243413	1.098898	0.000130
1971	1.9601e+02	-1.5288	-16.168729	0.000345	3.446126	1.167579	0.000138
1972	1.9611e+02	-1.4855	-15.926500	0.000608	6.081399	2.060434	0.000243
1973	1.9621e+02	-1.4406	-15.752904	0.000436	4.358336	1.476644	0.000174
1974	1.9631e+02	-1.3957	-15.583344	0.000426	4.256979	1.442304	0.000170
1975	1.9641e+02	-1.3668	-15.365339	0.000547	5.473259	1.854390	0.000219
1976	1.9651e+02	-1.3171	-15.220002	0.000365	3.648839	1.236260	0.000146
1977	1.9661e+02	-1.2770	-15.038331	0.000456	4.561049	1.545325	0.000183
1978	1.9671e+02	-1.2401	-14.856660	0.000456	4.561049	1.545325	0.000183
1979	1.9681e+02	-1.2032	-14.691137	0.000416	4.155623	1.407963	0.000166
1980	1.9691e+02	-1.1663	-14.452946	0.000598	5.980042	2.026093	0.000239
1981	1.9701e+02	-1.1262	-14.271275	0.000456	4.561049	1.545325	0.000183
1982	1.9711e+02	-1.0877	-14.089604	0.000456	4.561049	1.545325	0.000183
1983	1.9721e+02	-1.0315	-13.916007	0.000436	4.358336	1.476644	0.000174
1984	1.9731e+02	-0.9930	-13.734336	0.000456	4.561049	1.545325	0.000183
1985	1.9741e+02	-0.9545	-13.540553	0.000487	4.865119	1.648347	0.000195
1986	1.9751e+02	-0.9224	-13.358882	0.000456	4.561049	1.545325	0.000183
1987	1.9761e+02	-0.8743	-13.173174	0.000466	4.662406	1.579666	0.000187
1988	1.9771e+02	-0.8438	-12.959206	0.000537	5.371902	1.820050	0.000215
1989	1.9781e+02	-0.7989	-12.789646	0.000426	4.256979	1.442304	0.000170
1990	1.9791e+02	-0.7476	-12.551455	0.000598	5.980042	2.026093	0.000239
1991	1.9800e+02	-0.7171	-12.394007	0.000395	3.952909	1.339282	0.000158
1992	1.9810e+02	-0.6818	-12.204261	0.000476	4.763762	1.614006	0.000191
1993	1.9820e+02	-0.6417	-12.026627	0.000446	4.459693	1.510985	0.000179
1994	1.9830e+02	-0.6160	-11.836882	0.000476	4.763762	1.614006	0.000191
1995	1.9840e+02	-0.5631	-11.614840	0.000557	5.574616	1.888731	0.000223
1996	1.9850e+02	-0.5198	-11.473540	0.000355	3.547483	1.201920	0.000142
1997	1.9860e+02	-0.4829	-11.243423	0.000578	5.777329	1.957412	0.000231
1998	1.9870e+02	-0.4508	-11.045603	0.000497	4.966476	1.682688	0.000199
1999	1.9880e+02	-0.4043	-10.880081	0.000416	4.155623	1.407963	0.000166
2000	1.9890e+02	-0.3658	-10.690335	0.000476	4.763762	1.614006	0.000191
2001	1.9900e+02	-0.3385	-10.500590	0.000476	4.763762	1.614006	0.000191
2002	1.9910e+02	-0.2839	-10.302770	0.000497	4.966476	1.682688	0.000199
2003	1.9920e+02	-0.2422	-10.121099	0.000456	4.561049	1.545325	0.000183
2004	1.9930e+02	-0.2037	-9.911168	0.000527	5.270546	1.785709	0.000211
2005	1.9940e+02	-0.1717	-9.681051	0.000578	5.777329	1.957412	0.000231
2006	1.9950e+02	-0.1235	-9.515529	0.000416	4.155623	1.407963	0.000166
2007	1.9960e+02	-0.0882	-9.325784	0.000476	4.763762	1.614006	0.000191
2008	1.9970e+02	-0.0401	-9.136038	0.000476	4.763762	1.614006	0.000191
2009	1.9980e+02	-0.0112	-8.926107	0.000476	4.763762	1.614006	0.000211

Center data before PMax,+/-Pr and +/-Vc Calc.

PMax (uC/cm2):	6.77e+01
Pr (uC/cm2):	3.87e+00
-Pr (uC/cm2):	-8.93e+00
PLoss (uC/cm2):	-4.59e+00
Vc:	9.29e-01
-Vc:	-7.95e-01
C (Max-Eff) (nF):	3.39e-01
K (Eff):	1.15e+03
Vert. (+/-Pr) Shift (uC/cm2):	-2.53e+00
Horiz. Shift (+/-Vc):	6.74e-02
Offset (uC/cm2):	4.31e+00

A (Loop Area - uC/cm2·Volts):	-7.03e-03



Hysteresis Version: 5.48.1 - Radiant Technologies, Inc., 1999 - 9/12/24

