»»»»»»»»»»»»»»»»»»»»»»»»»»»»»»»»»»»» Hysteresis ««««««««««««««««««««««««««««««««««««
»»»  Executed Version:	5.48.1
»»»  Vision Version:	5.48.4 (R)
»»»  Vision Compiled:	9/18/24
»»»  Driver Version:	5.47.0
»»»  Windows Version:	Windows 8 or 8.1
»»»  Processor Information:	x86 (AMD or Intel) - 32 Processors
»»»  Tester Name:	PMF21124-494 (100V)
»»»  Tester S/N:	PMF21124-494
»»»  Internal Amp Type:	100V RevK 270k
»»»  Internal Amp S/N:	iAB2-596/K     
»»»  Execution Count:	1
»»»»»»»»»»»»»»»»»»»»»»»»»»»»»»»»»»»»»»»»»»««««««««««««««««««««««««««««««««««««««««««

Stored:	6/12/2025 - 15:52:7
Configured:	06/12/25 03:03:03 PM
Executed:	06/12/25 03:51:40 PM

»»»»»»»»»»»»»»»»»»»»»»»»»»»»»»»»»»» Sample Info ««««««««««««««««««««««««««««««««««««
Sample Name:	
Lot Name:	
Wafer Name:	
Die Row/Column:	0/0
Capacitor Number:	0
Sample Area (cm2):	1.00e-04
Sample Thickness (microns):	3.00e-01

Amplifier:	Internal

»»»»»»»»»»»»»»»»»»»»»»»»»»»»»»»»»»» Tester Info «««««««««««««««««««««««««««««««««««
Tester Name:	PMF21124-494 (100V)
Tester Serial Number:	PMF21124-494
Return Signal Amp. Level:	1.79 [Index: 2]

»»»»»»»»»»»»»»»»»»»»»»»»»»»»»»»» Hysteresis Info ««««««««««««««««««««««««««««««««««
Task Name:	Hyst-1570
Volts:	20.00
Field:	666.67 (kV/cm)
DCBias:	0.00
DCField:	0.00 (kV/cm)
Hysteresis Period (ms):	1.00e+00
Preset:	Enabled
Preset Delay (ms):	1.00e+03
Profile:	Standard Bipolar

»»»»»»»»»»»»»»»»»»»»»»»»»»»»»»»»»»»»»» Data «««««««««««««««««««««««««««««««««««««««
Points:	2001

Valid Data

Point	Time (ms)	Drive Voltage	Measured Polarization (uC/cm2)	Capacitance (uF)	Normalized Capacitance (uF/cm2)	Dielectric Constant	Instantaneous Current (mA)
   1	0.0000e+00	0.0578	-1.801799	0.000002	0.020884	0.007076	-0.000171
   2	5.0000e-04	0.0578	-1.802654	0.000002	0.020884	0.007076	-0.000171
   3	1.0000e-03	0.0995	-1.798378	0.000010	0.104420	0.035379	0.000855
   4	1.5000e-03	0.1588	-1.793674	0.000011	0.114862	0.038916	0.000941
   5	2.0000e-03	0.1941	-1.786832	0.000017	0.167072	0.056606	0.001368
   6	2.5000e-03	0.2454	-1.776569	0.000025	0.250608	0.084908	0.002053
   7	3.0000e-03	0.2487	-1.765023	0.000028	0.281934	0.095522	0.002309
   8	3.5000e-03	0.3321	-1.745780	0.000047	0.469891	0.159203	0.003849
   9	4.0000e-03	0.3417	-1.726965	0.000046	0.459449	0.155665	0.003763
  10	4.5000e-03	0.3674	-1.706011	0.000051	0.511659	0.173355	0.004191
  11	5.0000e-03	0.4668	-1.686340	0.000048	0.480333	0.162741	0.003934
  12	5.5000e-03	0.5005	-1.654268	0.000078	0.783151	0.265339	0.006414
  13	6.0000e-03	0.5262	-1.623907	0.000074	0.741383	0.251187	0.006072
  14	6.5000e-03	0.5519	-1.595256	0.000070	0.699615	0.237036	0.005730
  15	7.0000e-03	0.6176	-1.556770	0.000094	0.939782	0.318407	0.007697
  16	7.5000e-03	0.6465	-1.524270	0.000079	0.793593	0.268877	0.006500
  17	8.0000e-03	0.6850	-1.479370	0.000110	1.096412	0.371474	0.008980
  18	8.5000e-03	0.7347	-1.434041	0.000111	1.106854	0.375012	0.009066
  19	9.0000e-03	0.7732	-1.389996	0.000108	1.075528	0.364399	0.008809
  20	9.5000e-03	0.8069	-1.339536	0.000123	1.232158	0.417466	0.010092
  21	1.0000e-02	0.8470	-1.287794	0.000126	1.263484	0.428080	0.010349
  22	1.0500e-02	0.8791	-1.224933	0.000153	1.534976	0.520064	0.012572
  23	1.1000e-02	0.9545	-1.172762	0.000127	1.273926	0.431618	0.010434
  24	1.1500e-02	0.9481	-1.104342	-0.000167	-1.670723	-0.566056	0.013684
  25	1.2000e-02	1.0075	-1.041909	0.000152	1.524534	0.516526	0.012487
  26	1.2500e-02	1.0460	-0.966647	0.000184	1.837795	0.622662	0.015052
  27	1.3000e-02	1.1085	-0.889247	0.000189	1.890005	0.640351	0.015480
  28	1.3500e-02	1.1101	-0.812702	0.000187	1.869121	0.633275	0.015309
  29	1.4000e-02	1.1631	-0.731025	0.000199	1.994425	0.675730	0.016335
  30	1.4500e-02	1.2048	-0.646356	0.000207	2.067519	0.700495	0.016934
  31	1.5000e-02	1.2529	-0.568100	0.000191	1.910889	0.647427	0.015651
  32	1.5500e-02	1.2850	-0.479154	0.000217	2.171940	0.735873	0.017789
  33	1.6000e-02	1.3203	-0.388925	0.000220	2.203266	0.746487	0.018046
  34	1.6500e-02	1.3363	-0.270473	0.000289	2.892439	0.979985	0.023690
  35	1.7000e-02	1.4133	-0.150738	0.000292	2.923765	0.990598	0.023947
  36	1.7500e-02	1.4358	-0.032286	0.000289	2.892439	0.979985	0.023690
  37	1.8000e-02	1.4615	0.087022	0.000291	2.913323	0.987060	0.023861
  38	1.8500e-02	1.5160	0.202053	0.000281	2.808903	0.951682	0.023006
  39	1.9000e-02	1.5930	0.320078	0.000288	2.881997	0.976447	0.023605
  40	1.9500e-02	1.5914	0.445372	-0.000306	-3.059511	-1.036590	0.025059
  41	2.0000e-02	1.6508	0.576225	0.000320	3.195257	1.082582	0.026171
  42	2.0500e-02	1.6732	0.699809	0.000302	3.017743	1.022439	0.024717
  43	2.1000e-02	1.6973	0.824675	0.000305	3.049069	1.033053	0.024973
  44	2.1500e-02	1.7663	0.947831	0.000301	3.007301	1.018901	0.024631
  45	2.2000e-02	1.7967	1.080823	0.000325	3.247467	1.100272	0.026598
  46	2.2500e-02	1.8513	1.208255	0.000311	3.111721	1.054280	0.025486
  47	2.3000e-02	1.9090	1.342102	0.000327	3.268351	1.107347	0.026769
  48	2.3500e-02	1.9138	1.474238	0.000323	3.226583	1.093196	0.026427
  49	2.4000e-02	1.9636	1.597822	0.000302	3.017743	1.022439	0.024717
  50	2.4500e-02	1.9941	1.679071	0.000198	1.983983	0.672192	0.016250
  51	2.5000e-02	2.0294	1.769300	0.000220	2.203266	0.746487	0.018046
  52	2.5500e-02	2.0727	1.862522	0.000228	2.276360	0.771252	0.018644
  53	2.6000e-02	2.1144	1.957027	0.000231	2.307686	0.781865	0.018901
  54	2.6500e-02	2.1577	2.048967	0.000225	2.245034	0.760638	0.018388
  55	2.7000e-02	2.2138	2.152879	0.000254	2.537410	0.859698	0.020783
  56	2.7500e-02	2.2203	2.251233	0.000240	2.401664	0.813706	0.019671
  57	2.8000e-02	2.2668	2.353863	0.000251	2.506084	0.849084	0.020526
  58	2.8500e-02	2.3213	2.462908	0.000266	2.662714	0.902152	0.021809
  59	2.9000e-02	2.3390	2.570242	0.000262	2.620946	0.888001	0.021467
  60	2.9500e-02	2.3903	2.674155	0.000254	2.537410	0.859698	0.020783
  61	3.0000e-02	2.4288	2.784482	0.000269	2.694040	0.912766	0.022065
  62	3.0500e-02	2.4850	2.890533	0.000259	2.589620	0.877387	0.021210
  63	3.1000e-02	2.5042	2.984183	0.000229	2.286802	0.774789	0.018730
  64	3.1500e-02	2.5491	3.077833	0.000229	2.286802	0.774789	0.018730
  65	3.2000e-02	2.6133	3.173621	0.000234	2.339012	0.792479	0.019158
  66	3.2500e-02	2.6390	3.266843	0.000228	2.276360	0.771252	0.018644
  67	3.3000e-02	2.6871	3.366052	0.000242	2.422548	0.820781	0.019842
  68	3.3500e-02	2.7224	3.638877	0.000666	6.662007	2.257149	0.054565
  69	3.4000e-02	2.7545	3.897163	0.000631	6.306978	2.136862	0.051657
  70	3.4500e-02	2.7898	4.119528	0.000543	5.429849	1.839683	0.044473
  71	3.5000e-02	2.8571	4.333768	0.000523	5.231451	1.772463	0.042848
  72	3.5500e-02	2.9005	4.546298	0.000519	5.189682	1.758312	0.042506
  73	3.6000e-02	2.9341	4.744716	0.000485	4.845096	1.641563	0.039684
  74	3.6500e-02	2.9807	4.933727	0.000462	4.615372	1.563730	0.037802
  75	3.7000e-02	2.9775	5.101356	-0.000409	-4.093271	-1.386838	0.033526
  76	3.7500e-02	3.0288	5.268130	0.000407	4.072387	1.379762	0.033355
  77	3.8000e-02	3.0673	5.425496	0.000384	3.842662	1.301929	0.031473
  78	3.8500e-02	3.1379	5.593552	0.000410	4.103713	1.390375	0.033611
  79	3.9000e-02	3.1780	5.759471	0.000405	4.051503	1.372686	0.033184
  80	3.9500e-02	3.1940	5.930093	0.000417	4.166365	1.411603	0.034124
  81	4.0000e-02	3.2534	6.094729	0.000402	4.020177	1.362073	0.032927
  82	4.0500e-02	3.2518	6.274332	-0.000439	-4.385647	-1.485897	0.035921
  83	4.1000e-02	3.3143	6.443244	0.000412	4.124597	1.397451	0.033782
  84	4.1500e-02	3.3609	6.612583	0.000414	4.135039	1.400989	0.033868
  85	4.2000e-02	3.4042	6.774226	0.000395	3.947082	1.337308	0.032328
  86	4.2500e-02	3.4218	6.936723	0.000397	3.967966	1.344383	0.032500
  87	4.3000e-02	3.4603	7.087247	0.000368	3.675590	1.245324	0.030105
  88	4.3500e-02	3.5357	7.238627	0.000370	3.696474	1.252399	0.030276
  89	4.4000e-02	3.5614	7.390861	0.000372	3.717358	1.259475	0.030447
  90	4.4500e-02	3.6304	7.537109	0.000357	3.571170	1.209945	0.029250
  91	4.5000e-02	3.6368	7.685068	0.000361	3.612938	1.224096	0.029592
  92	4.5500e-02	3.6801	7.818914	0.000327	3.268351	1.107347	0.026769
  93	4.6000e-02	3.7475	7.952333	0.000326	3.257909	1.103810	0.026684
  94	4.6500e-02	3.7667	8.094733	0.000348	3.477192	1.178104	0.028480
  95	4.7000e-02	3.8020	8.223448	0.000314	3.143047	1.064893	0.025743
  96	4.7500e-02	3.8502	8.359433	0.000332	3.320561	1.125037	0.027197
  97	4.8000e-02	3.9031	8.500121	0.000344	3.435424	1.163953	0.028138
  98	4.8500e-02	3.9159	8.623277	0.000301	3.007301	1.018901	0.024631
  99	4.9000e-02	3.9480	8.669461	0.000113	1.127738	0.382088	0.009237
 100	4.9500e-02	4.0362	8.756697	0.000213	2.130171	0.721722	0.017447
 101	5.0000e-02	4.0475	8.894820	0.000337	3.372771	1.142726	0.027625
 102	5.0500e-02	4.1004	9.029949	0.000330	3.299677	1.117961	0.027026
 103	5.1000e-02	4.0972	9.161658	-0.000322	-3.216141	-1.089658	0.026342
 104	5.1500e-02	4.1566	9.292511	0.000320	3.195257	1.082582	0.026171
 105	5.2000e-02	4.2239	9.422937	0.000318	3.184815	1.079045	0.026085
 106	5.2500e-02	4.2384	9.553790	0.000320	3.195257	1.082582	0.026171
 107	5.3000e-02	4.2801	9.682505	0.000314	3.143047	1.064893	0.025743
 108	5.3500e-02	4.3090	9.807799	0.000306	3.059511	1.036590	0.025059
 109	5.4000e-02	4.3731	9.936515	0.000314	3.143047	1.064893	0.025743
 110	5.4500e-02	4.4036	10.055822	0.000291	2.913323	0.987060	0.023861
 111	5.5000e-02	4.4437	10.178978	0.000301	3.007301	1.018901	0.024631
 112	5.5500e-02	4.4886	10.308976	0.000317	3.174373	1.075507	0.026000
 113	5.6000e-02	4.5255	10.443678	0.000329	3.289235	1.114423	0.026940
 114	5.6500e-02	4.5512	10.569828	0.000308	3.080395	1.043666	0.025230
 115	5.7000e-02	4.5929	10.680583	0.000270	2.704482	0.916303	0.022151
 116	5.7500e-02	4.6523	10.800318	0.000292	2.923765	0.990598	0.023947
 117	5.8000e-02	4.6763	10.909362	0.000266	2.662714	0.902152	0.021809
 118	5.8500e-02	4.7405	11.035939	0.000309	3.090837	1.047204	0.025315
 119	5.9000e-02	4.7549	11.149688	0.000278	2.777577	0.941068	0.022750
 120	5.9500e-02	4.7999	11.268567	0.000290	2.902881	0.983523	0.023776
 121	6.0000e-02	4.8432	11.379750	0.000271	2.714924	0.919841	0.022237
 122	6.0500e-02	4.8656	11.492643	0.000276	2.756692	0.933993	0.022579
 123	6.1000e-02	4.8993	11.606819	0.000279	2.788019	0.944606	0.022835
 124	6.1500e-02	4.9715	11.726554	0.000292	2.923765	0.990598	0.023947
 125	6.2000e-02	5.0036	11.848000	0.000297	2.965533	1.004750	0.024289
 126	6.2500e-02	5.0485	11.969445	0.000297	2.965533	1.004750	0.024289
 127	6.3000e-02	5.0838	12.082338	0.000276	2.756692	0.933993	0.022579
 128	6.3500e-02	5.1400	12.203356	0.000296	2.955091	1.001212	0.024204
 129	6.4000e-02	5.1576	12.315822	0.000275	2.746250	0.930455	0.022493
 130	6.4500e-02	5.1833	12.432136	0.000284	2.840229	0.962296	0.023263
 131	6.5000e-02	5.2442	12.548022	0.000283	2.829787	0.958758	0.023177
 132	6.5500e-02	5.2988	12.671178	0.000301	3.007301	1.018901	0.024631
 133	6.6000e-02	5.3277	12.788348	0.000286	2.861113	0.969371	0.023434
 134	6.6500e-02	5.3710	12.907227	0.000290	2.902881	0.983523	0.023776
 135	6.7000e-02	5.3742	13.032522	0.000306	3.059511	1.036590	0.025059
 136	6.7500e-02	5.4367	13.152257	0.000292	2.923765	0.990598	0.023947
 137	6.8000e-02	5.4897	13.263439	0.000271	2.714924	0.919841	0.022237
 138	6.8500e-02	5.5137	13.375905	0.000275	2.746250	0.930455	0.022493
 139	6.9000e-02	5.5635	13.421233	0.000111	1.106854	0.375012	0.009066
 140	6.9500e-02	5.6196	13.461430	0.000098	0.981550	0.332558	0.008039
 141	7.0000e-02	5.6260	13.493502	0.000078	0.783151	0.265339	0.006414
 142	7.0500e-02	5.6758	13.537547	0.000108	1.075528	0.364399	0.008809
 143	7.1000e-02	5.7175	13.579882	0.000103	1.033760	0.350247	0.008467
 144	7.1500e-02	5.7672	13.682084	0.000250	2.495642	0.845546	0.020440
 145	7.2000e-02	5.8009	13.817642	0.000331	3.310119	1.121499	0.027111
 146	7.2500e-02	5.8571	13.961751	0.000352	3.518960	1.192256	0.028822
 147	7.3000e-02	5.8667	14.099447	0.000336	3.362329	1.139188	0.027539
 148	7.3500e-02	5.9132	14.231583	0.000323	3.226583	1.093196	0.026427
 149	7.4000e-02	5.9517	14.371416	0.000341	3.414540	1.156877	0.027967
 150	7.4500e-02	6.0159	14.509539	0.000337	3.372771	1.142726	0.027625
 151	7.5000e-02	6.0367	14.644241	0.000329	3.289235	1.114423	0.026940
 152	7.5500e-02	6.0720	14.772957	0.000314	3.143047	1.064893	0.025743
 153	7.6000e-02	6.1041	14.892692	0.000292	2.923765	0.990598	0.023947
 154	7.6500e-02	6.1715	15.009861	0.000286	2.861113	0.969371	0.023434
 155	7.7000e-02	6.2100	15.130451	0.000294	2.944649	0.997674	0.024118
 156	7.7500e-02	6.2517	15.247621	0.000286	2.861113	0.969371	0.023434
 157	7.8000e-02	6.2886	15.363935	0.000284	2.840229	0.962296	0.023263
 158	7.8500e-02	6.3014	15.487518	0.000302	3.017743	1.022439	0.024717
 159	7.9000e-02	6.3399	15.607253	0.000292	2.923765	0.990598	0.023947
 160	7.9500e-02	6.3865	15.722285	0.000281	2.808903	0.951682	0.023006
 161	8.0000e-02	6.4474	15.838171	0.000283	2.829787	0.958758	0.023177
 162	8.0500e-02	6.4859	15.957051	0.000290	2.902881	0.983523	0.023776
 163	8.1000e-02	6.4715	16.016063	-0.000144	-1.440998	-0.488223	0.011802
 164	8.1500e-02	6.5693	16.109286	0.000228	2.276360	0.771252	0.018644
 165	8.2000e-02	6.6159	16.225600	0.000284	2.840229	0.962296	0.023263
 166	8.2500e-02	6.6351	16.344052	0.000289	2.892439	0.979985	0.023690
 167	8.3000e-02	6.6592	16.457373	0.000277	2.767134	0.937531	0.022664
 168	8.3500e-02	6.7137	16.574542	0.000286	2.861113	0.969371	0.023434
 169	8.4000e-02	6.7538	16.687007	0.000275	2.746250	0.930455	0.022493
 170	8.4500e-02	6.7779	16.801611	0.000280	2.798461	0.948144	0.022921
 171	8.5000e-02	6.8228	16.916214	0.000280	2.798461	0.948144	0.022921
 172	8.5500e-02	6.8918	17.026114	0.000268	2.683598	0.909228	0.021980
 173	8.6000e-02	6.9223	17.139007	0.000276	2.756692	0.933993	0.022579
 174	8.6500e-02	6.9592	17.254894	0.000283	2.829787	0.958758	0.023177
 175	8.7000e-02	7.0041	17.360945	0.000259	2.589620	0.877387	0.021210
 176	8.7500e-02	7.0474	17.473838	0.000276	2.756692	0.933993	0.022579
 177	8.8000e-02	7.0586	17.585448	0.000273	2.725366	0.923379	0.022322
 178	8.8500e-02	7.1228	17.687223	0.000249	2.485200	0.842009	0.020355
 179	8.9000e-02	7.1822	17.792419	0.000257	2.568736	0.870311	0.021039
 180	8.9500e-02	7.2126	17.895904	0.000253	2.526968	0.856160	0.020697
 181	9.0000e-02	7.2335	18.000672	0.000256	2.558294	0.866774	0.020954
 182	9.0500e-02	7.2961	18.105868	0.000257	2.568736	0.870311	0.021039
 183	9.1000e-02	7.3153	18.213202	0.000262	2.620946	0.888001	0.021467
 184	9.1500e-02	7.3586	18.321391	0.000264	2.641830	0.895076	0.021638
 185	9.2000e-02	7.4051	18.426159	0.000256	2.558294	0.866774	0.020954
 186	9.2500e-02	7.4372	18.524513	0.000240	2.401664	0.813706	0.019671
 187	9.3000e-02	7.4773	18.629281	0.000256	2.558294	0.866774	0.020954
 188	9.3500e-02	7.5142	18.736188	0.000261	2.610504	0.884463	0.021381
 189	9.4000e-02	7.5656	18.841811	0.000258	2.579178	0.873849	0.021125
 190	9.4500e-02	7.5993	18.944869	0.000252	2.516526	0.852622	0.020612
 191	9.5000e-02	7.6490	19.051775	0.000261	2.610504	0.884463	0.021381
 192	9.5500e-02	7.6955	19.158254	0.000260	2.600062	0.880925	0.021296
 193	9.6000e-02	7.7228	19.266871	0.000265	2.652272	0.898614	0.021723
 194	9.6500e-02	7.7517	19.364369	0.000238	2.380780	0.806630	0.019500
 195	9.7000e-02	7.8014	19.465289	0.000246	2.464316	0.834933	0.020184
 196	9.7500e-02	7.8607	19.562787	0.000238	2.380780	0.806630	0.019500
 197	9.8000e-02	7.8880	19.672687	0.000268	2.683598	0.909228	0.021980
 198	9.8500e-02	7.9089	19.772751	0.000244	2.443432	0.827857	0.020013
 199	9.9000e-02	7.9843	19.866829	0.000230	2.297244	0.778327	0.018816
 200	9.9500e-02	8.0067	19.966466	0.000243	2.432990	0.824319	0.019927
 201	1.0000e-01	8.0468	20.060115	0.000229	2.286802	0.774789	0.018730
 202	1.0050e-01	8.0918	20.158042	0.000239	2.391222	0.810168	0.019585
 203	1.0100e-01	8.1126	20.255540	0.000238	2.380780	0.806630	0.019500
 204	1.0150e-01	8.1704	20.347480	0.000225	2.245034	0.760638	0.018388
 205	1.0200e-01	8.2137	20.438136	0.000221	2.213708	0.750024	0.018131
 206	1.0250e-01	8.2442	20.548464	0.000269	2.694040	0.912766	0.022065
 207	1.0300e-01	8.2827	20.643824	0.000233	2.328570	0.788941	0.019072
 208	1.0350e-01	8.3500	20.740040	0.000235	2.349454	0.796017	0.019243
 209	1.0400e-01	8.3741	20.823427	0.000204	2.036193	0.689881	0.016677
 210	1.0450e-01	8.3837	20.917932	0.000231	2.307686	0.781865	0.018901
 211	1.0500e-01	8.4399	21.020989	0.000252	2.516526	0.852622	0.020612
 212	1.0550e-01	8.4784	21.120626	0.000243	2.432990	0.824319	0.019927
 213	1.0600e-01	8.5040	21.230953	0.000269	2.694040	0.912766	0.022065
 214	1.0650e-01	8.5474	21.336149	0.000257	2.568736	0.870311	0.021039
 215	1.0700e-01	8.5987	21.443056	0.000261	2.610504	0.884463	0.021381
 216	1.0750e-01	8.6436	21.542265	0.000242	2.422548	0.820781	0.019842
 217	1.0800e-01	8.6805	21.645750	0.000253	2.526968	0.856160	0.020697
 218	1.0850e-01	8.7238	21.744959	0.000242	2.422548	0.820781	0.019842
 219	1.0900e-01	8.7302	21.839037	0.000230	2.297244	0.778327	0.018816
 220	1.0950e-01	8.7992	21.929266	0.000220	2.203266	0.746487	0.018046
 221	1.1000e-01	8.8377	22.020350	0.000222	2.224150	0.753562	0.018217
 222	1.1050e-01	8.8923	22.109723	0.000218	2.182382	0.739411	0.017875
 223	1.1100e-01	8.9308	22.205939	0.000235	2.349454	0.796017	0.019243
 224	1.1150e-01	8.9532	22.306859	0.000246	2.464316	0.834933	0.020184
 225	1.1200e-01	9.0238	22.398798	0.000225	2.245034	0.760638	0.018388
 226	1.1250e-01	9.0800	22.493303	0.000231	2.307686	0.781865	0.018901
 227	1.1300e-01	9.0896	22.587808	0.000231	2.307686	0.781865	0.018901
 228	1.1350e-01	9.1169	22.683597	0.000234	2.339012	0.792479	0.019158
 229	1.1400e-01	9.1554	22.777246	0.000229	2.286802	0.774789	0.018730
 230	1.1450e-01	9.2340	22.875600	0.000240	2.401664	0.813706	0.019671
 231	1.1500e-01	9.2548	22.976947	0.000247	2.474758	0.838471	0.020269
 232	1.1550e-01	9.2965	23.076584	0.000243	2.432990	0.824319	0.019927
 233	1.1600e-01	9.3046	23.170662	0.000230	2.297244	0.778327	0.018816
 234	1.1650e-01	9.3896	23.265167	0.000231	2.307686	0.781865	0.018901
 235	1.1700e-01	9.4249	23.361810	0.000236	2.359896	0.799554	0.019329
 236	1.1750e-01	9.4457	23.458454	0.000236	2.359896	0.799554	0.019329
 237	1.1800e-01	9.4762	23.543123	0.000207	2.067519	0.700495	0.016934
 238	1.1850e-01	9.5227	23.636346	0.000228	2.276360	0.771252	0.018644
 239	1.1900e-01	9.5612	23.732134	0.000234	2.339012	0.792479	0.019158
 240	1.1950e-01	9.5933	23.828777	0.000236	2.359896	0.799554	0.019329
 241	1.2000e-01	9.6254	23.924565	0.000234	2.339012	0.792479	0.019158
 242	1.2050e-01	9.6864	24.010518	0.000210	2.098845	0.711108	0.017191
 243	1.2100e-01	9.7088	24.108872	0.000240	2.401664	0.813706	0.019671
 244	1.2150e-01	9.7585	24.197818	0.000217	2.171940	0.735873	0.017789
 245	1.2200e-01	9.7906	24.283343	0.000209	2.088403	0.707570	0.017105
 246	1.2250e-01	9.8532	24.376565	0.000228	2.276360	0.771252	0.018644
 247	1.2300e-01	9.8821	24.457814	0.000198	1.983983	0.672192	0.016250
 248	1.2350e-01	9.9334	24.549753	0.000225	2.245034	0.760638	0.018388
 249	1.2400e-01	9.9655	24.632713	0.000203	2.025751	0.686343	0.016592
 250	1.2450e-01	9.9944	24.726362	0.000229	2.286802	0.774789	0.018730
 251	1.2500e-01	10.0441	24.816164	0.000219	2.192824	0.742949	0.017960
 252	1.2550e-01	10.1002	24.905110	0.000217	2.171940	0.735873	0.017789
 253	1.2600e-01	10.1516	24.995339	0.000220	2.203266	0.746487	0.018046
 254	1.2650e-01	10.1516	25.085995	-0.000221	-2.213708	-0.750024	0.018131
 255	1.2700e-01	10.2077	25.174514	0.000216	2.161498	0.732335	0.017704
 256	1.2750e-01	10.2623	25.270729	0.000235	2.349454	0.796017	0.019243
 257	1.2800e-01	10.2960	25.356682	0.000210	2.098845	0.711108	0.017191
 258	1.2850e-01	10.3232	25.452898	0.000235	2.349454	0.796017	0.019243
 259	1.2900e-01	10.3313	25.547403	0.000231	2.307686	0.781865	0.018901
 260	1.2950e-01	10.4002	25.635494	0.000215	2.151055	0.728797	0.017618
 261	1.3000e-01	10.4484	25.738551	0.000252	2.516526	0.852622	0.020612
 262	1.3050e-01	10.4997	25.826215	0.000214	2.140613	0.725259	0.017533
 263	1.3100e-01	10.5430	25.921147	0.000232	2.318128	0.785403	0.018987
 264	1.3150e-01	10.5655	26.018218	0.000237	2.370338	0.803092	0.019414
 265	1.3200e-01	10.6040	26.117855	0.000243	2.432990	0.824319	0.019927
 266	1.3250e-01	10.6665	26.206801	0.000217	2.171940	0.735873	0.017789
 267	1.3300e-01	10.6906	26.300023	0.000228	2.276360	0.771252	0.018644
 268	1.3350e-01	10.7291	26.398377	0.000240	2.401664	0.813706	0.019671
 269	1.3400e-01	10.7612	26.491600	0.000228	2.276360	0.771252	0.018644
 270	1.3450e-01	10.8222	26.586532	0.000232	2.318128	0.785403	0.018987
 271	1.3500e-01	10.8382	26.687880	0.000247	2.474758	0.838471	0.020269
 272	1.3550e-01	10.8959	26.777253	0.000218	2.182382	0.739411	0.017875
 273	1.3600e-01	10.9248	26.870476	0.000228	2.276360	0.771252	0.018644
 274	1.3650e-01	10.9553	26.959849	0.000218	2.182382	0.739411	0.017875
 275	1.3700e-01	11.0227	27.054354	0.000231	2.307686	0.781865	0.018901
 276	1.3750e-01	11.0788	27.143300	0.000217	2.171940	0.735873	0.017789
 277	1.3800e-01	11.0965	27.239089	0.000234	2.339012	0.792479	0.019158
 278	1.3850e-01	11.1542	27.336587	0.000238	2.380780	0.806630	0.019500
 279	1.3900e-01	11.1639	27.420829	0.000206	2.057077	0.696957	0.016848
 280	1.3950e-01	11.2216	27.505499	0.000207	2.067519	0.700495	0.016934
 281	1.4000e-01	11.2216	27.600860	-0.000233	-2.328570	-0.788941	0.019072
 282	1.4050e-01	11.2922	27.687667	0.000212	2.119729	0.718184	0.017362
 283	1.4100e-01	11.3355	27.776614	0.000217	2.171940	0.735873	0.017789
 284	1.4150e-01	11.3227	27.867698	-0.000222	-2.224150	-0.753562	0.018217
 285	1.4200e-01	11.3772	27.948947	0.000198	1.983983	0.672192	0.016250
 286	1.4250e-01	11.4542	28.043024	0.000230	2.297244	0.778327	0.018816
 287	1.4300e-01	11.4655	28.129832	0.000212	2.119729	0.718184	0.017362
 288	1.4350e-01	11.5280	28.215785	0.000210	2.098845	0.711108	0.017191
 289	1.4400e-01	11.5826	28.302593	0.000212	2.119729	0.718184	0.017362
 290	1.4450e-01	11.5890	28.381276	0.000192	1.921331	0.650965	0.015737
 291	1.4500e-01	11.6339	28.468084	0.000212	2.119729	0.718184	0.017362
 292	1.4550e-01	11.7141	28.556602	0.000216	2.161498	0.732335	0.017704
 293	1.4600e-01	11.7173	28.637423	0.000197	1.973541	0.668654	0.016164
 294	1.4650e-01	11.7815	28.718244	0.000197	1.973541	0.668654	0.016164
 295	1.4700e-01	11.8007	28.818309	0.000244	2.443432	0.827857	0.020013
 296	1.4750e-01	11.8441	28.903406	0.000208	2.077961	0.704032	0.017019
 297	1.4800e-01	11.8617	28.992352	0.000217	2.171940	0.735873	0.017789
 298	1.4850e-01	11.9227	29.081298	0.000217	2.171940	0.735873	0.017789
 299	1.4900e-01	11.9515	29.171527	0.000220	2.203266	0.746487	0.018046
 300	1.4950e-01	12.0077	29.254914	0.000204	2.036193	0.689881	0.016677
 301	1.5000e-01	12.0301	29.345998	0.000222	2.224150	0.753562	0.018217
 302	1.5050e-01	12.0382	29.430240	0.000206	2.057077	0.696957	0.016848
 303	1.5100e-01	12.1168	29.518331	0.000215	2.151055	0.728797	0.017618
 304	1.5150e-01	12.1473	29.607277	0.000217	2.171940	0.735873	0.017789
 305	1.5200e-01	12.2066	29.689809	0.000202	2.015309	0.682805	0.016506
 306	1.5250e-01	12.2387	29.776189	0.000211	2.109287	0.714646	0.017276
 307	1.5300e-01	12.2628	29.862997	0.000212	2.119729	0.718184	0.017362
 308	1.5350e-01	12.3221	29.948095	0.000208	2.077961	0.704032	0.017019
 309	1.5400e-01	12.3446	30.037041	0.000217	2.171940	0.735873	0.017789
 310	1.5450e-01	12.4007	30.121283	0.000206	2.057077	0.696957	0.016848
 311	1.5500e-01	12.4360	30.206808	0.000209	2.088403	0.707570	0.017105
 312	1.5550e-01	12.5323	30.290195	0.000204	2.036193	0.689881	0.016677
 313	1.5600e-01	12.5162	30.374009	-0.000205	-2.046635	-0.693419	0.016763
 314	1.5650e-01	12.5435	30.459107	0.000208	2.077961	0.704032	0.017019
 315	1.5700e-01	12.6093	30.542921	0.000205	2.046635	0.693419	0.016763
 316	1.5750e-01	12.6365	30.631867	0.000217	2.171940	0.735873	0.017789
 317	1.5800e-01	12.6590	30.714827	0.000203	2.025751	0.686343	0.016592
 318	1.5850e-01	12.7232	30.803345	0.000216	2.161498	0.732335	0.017704
 319	1.5900e-01	12.7954	30.886732	0.000204	2.036193	0.689881	0.016677
 320	1.5950e-01	12.7938	30.973968	-0.000213	-2.130171	-0.721722	0.017447
 321	1.6000e-01	12.8499	31.052223	0.000191	1.910889	0.647427	0.015651
 322	1.6050e-01	12.8820	31.142024	0.000219	2.192824	0.742949	0.017960
 323	1.6100e-01	12.8996	31.225839	0.000205	2.046635	0.693419	0.016763
 324	1.6150e-01	12.9269	31.315640	0.000219	2.192824	0.742949	0.017960
 325	1.6200e-01	13.0055	31.398600	0.000203	2.025751	0.686343	0.016592
 326	1.6250e-01	13.0440	31.480704	0.000200	2.004867	0.679267	0.016421
 327	1.6300e-01	13.1050	31.565373	0.000207	2.067519	0.700495	0.016934
 328	1.6350e-01	13.1355	31.660734	0.000233	2.328570	0.788941	0.019072
 329	1.6400e-01	13.1371	31.747114	0.000211	2.109287	0.714646	0.017276
 330	1.6450e-01	13.1980	31.827508	0.000196	1.963099	0.665116	0.016079
 331	1.6500e-01	13.2606	31.910039	0.000202	2.015309	0.682805	0.016506
 332	1.6550e-01	13.2750	31.995564	0.000209	2.088403	0.707570	0.017105
 333	1.6600e-01	13.3215	32.082372	0.000212	2.119729	0.718184	0.017362
 334	1.6650e-01	13.3649	32.166615	0.000206	2.057077	0.696957	0.016848
 335	1.6700e-01	13.4098	32.249146	0.000202	2.015309	0.682805	0.016506
 336	1.6750e-01	13.4483	32.332961	0.000205	2.046635	0.693419	0.016763
 337	1.6800e-01	13.4916	32.417203	0.000206	2.057077	0.696957	0.016848
 338	1.6850e-01	13.5253	32.509142	0.000225	2.245034	0.760638	0.018388
 339	1.6900e-01	13.5670	32.589964	0.000197	1.973541	0.668654	0.016164
 340	1.6950e-01	13.5879	32.671212	0.000198	1.983983	0.672192	0.016250
 341	1.7000e-01	13.6280	32.751178	0.000195	1.952657	0.661578	0.015993
 342	1.7050e-01	13.6873	32.836276	0.000208	2.077961	0.704032	0.017019
 343	1.7100e-01	13.7162	32.914959	0.000192	1.921331	0.650965	0.015737
 344	1.7150e-01	13.7354	32.993642	0.000192	1.921331	0.650965	0.015737
 345	1.7200e-01	13.8076	33.062490	0.000168	1.681165	0.569594	0.013770
 346	1.7250e-01	13.8253	33.143738	0.000198	1.983983	0.672192	0.016250
 347	1.7300e-01	13.8622	33.216435	0.000178	1.775143	0.601435	0.014539
 348	1.7350e-01	13.9103	33.296828	0.000196	1.963099	0.665116	0.016079
 349	1.7400e-01	13.9392	33.381070	0.000206	2.057077	0.696957	0.016848
 350	1.7450e-01	14.0210	33.461892	0.000197	1.973541	0.668654	0.016164
 351	1.7500e-01	14.0370	33.549555	0.000214	2.140613	0.725259	0.017533
 352	1.7550e-01	14.1028	33.637218	0.000214	2.140613	0.725259	0.017533
 353	1.7600e-01	14.1189	33.713335	0.000186	1.858679	0.629737	0.015223
 354	1.7650e-01	14.1493	33.796295	0.000203	2.025751	0.686343	0.016592
 355	1.7700e-01	14.1782	33.882247	0.000210	2.098845	0.711108	0.017191
 356	1.7750e-01	14.2311	33.962641	0.000196	1.963099	0.665116	0.016079
 357	1.7800e-01	14.2921	34.047311	0.000207	2.067519	0.700495	0.016934
 358	1.7850e-01	14.3017	34.130270	0.000203	2.025751	0.686343	0.016592
 359	1.7900e-01	14.3611	34.218361	0.000215	2.151055	0.728797	0.017618
 360	1.7950e-01	14.4012	34.301748	0.000204	2.036193	0.689881	0.016677
 361	1.8000e-01	14.4606	34.382996	0.000198	1.983983	0.672192	0.016250
 362	1.8050e-01	14.4814	34.465528	0.000202	2.015309	0.682805	0.016506
 363	1.8100e-01	14.5183	34.547205	0.000199	1.994425	0.675730	0.016335
 364	1.8150e-01	14.5568	34.632302	0.000208	2.077961	0.704032	0.017019
 365	1.8200e-01	14.6114	34.717399	0.000208	2.077961	0.704032	0.017019
 366	1.8250e-01	14.6499	34.797793	0.000196	1.963099	0.665116	0.016079
 367	1.8300e-01	14.6980	34.882890	0.000208	2.077961	0.704032	0.017019
 368	1.8350e-01	14.7365	34.962856	0.000195	1.952657	0.661578	0.015993
 369	1.8400e-01	14.7477	35.041112	0.000191	1.910889	0.647427	0.015651
 370	1.8450e-01	14.7798	35.124926	0.000205	2.046635	0.693419	0.016763
 371	1.8500e-01	14.8263	35.206603	0.000199	1.994425	0.675730	0.016335
 372	1.8550e-01	14.8889	35.281009	0.000182	1.816911	0.615586	0.014881
 373	1.8600e-01	14.9129	35.359265	0.000191	1.910889	0.647427	0.015651
 374	1.8650e-01	14.9723	35.443935	0.000207	2.067519	0.700495	0.016934
 375	1.8700e-01	15.0076	35.520907	0.000188	1.879563	0.636813	0.015395
 376	1.8750e-01	15.0236	35.595742	0.000183	1.827353	0.619124	0.014967
 377	1.8800e-01	15.0605	35.671859	0.000186	1.858679	0.629737	0.015223
 378	1.8850e-01	15.1119	35.756956	0.000208	2.077961	0.704032	0.017019
 379	1.8900e-01	15.1728	35.840771	0.000205	2.046635	0.693419	0.016763
 380	1.8950e-01	15.1873	35.914750	0.000181	1.806469	0.612048	0.014796
 381	1.9000e-01	15.2402	35.998565	0.000205	2.046635	0.693419	0.016763
 382	1.9050e-01	15.2707	36.077675	0.000193	1.931773	0.654502	0.015822
 383	1.9100e-01	15.3397	36.152937	0.000184	1.837795	0.622662	0.015052
 384	1.9150e-01	15.3686	36.234186	0.000198	1.983983	0.672192	0.016250
 385	1.9200e-01	15.3750	36.318856	0.000207	2.067519	0.700495	0.016934
 386	1.9250e-01	15.4311	36.393690	0.000183	1.827353	0.619124	0.014967
 387	1.9300e-01	15.4825	36.473229	0.000194	1.942215	0.658040	0.015908
 388	1.9350e-01	15.5226	36.551484	0.000191	1.910889	0.647427	0.015651
 389	1.9400e-01	15.5803	36.633161	0.000199	1.994425	0.675730	0.016335
 390	1.9450e-01	15.5819	36.705857	0.000178	1.775143	0.601435	0.014539
 391	1.9500e-01	15.6220	36.783257	0.000189	1.890005	0.640351	0.015480
 392	1.9550e-01	15.6718	36.859374	0.000186	1.858679	0.629737	0.015223
 393	1.9600e-01	15.7167	36.941051	0.000199	1.994425	0.675730	0.016335
 394	1.9650e-01	15.7504	37.014175	0.000179	1.785585	0.604973	0.014625
 395	1.9700e-01	15.8209	37.095424	0.000198	1.983983	0.672192	0.016250
 396	1.9750e-01	15.8370	37.166837	0.000174	1.743817	0.590821	0.014283
 397	1.9800e-01	15.8787	37.255783	0.000217	2.171940	0.735873	0.017789
 398	1.9850e-01	15.9364	37.333183	0.000189	1.890005	0.640351	0.015480
 399	1.9900e-01	15.9733	37.411439	0.000191	1.910889	0.647427	0.015651
 400	1.9950e-01	16.0086	37.481142	0.000170	1.702049	0.576670	0.013941
 401	2.0000e-01	16.0086	37.564528	-0.000204	-2.036193	-0.689881	0.016677
 402	2.0050e-01	16.1161	37.640646	0.000186	1.858679	0.629737	0.015223
 403	2.0100e-01	16.1177	37.717191	0.000187	1.869121	0.633275	0.015309
 404	2.0150e-01	16.1739	37.795018	0.000190	1.900447	0.643889	0.015566
 405	2.0200e-01	16.1723	37.876695	-0.000199	-1.994425	-0.675730	0.016335
 406	2.0250e-01	16.2284	37.945970	0.000169	1.691607	0.573132	0.013855
 407	2.0300e-01	16.2862	38.008831	0.000153	1.534976	0.520064	0.012572
 408	2.0350e-01	16.3311	38.086231	0.000189	1.890005	0.640351	0.015480
 409	2.0400e-01	16.3648	38.172612	0.000211	2.109287	0.714646	0.017276
 410	2.0450e-01	16.3872	38.251295	0.000192	1.921331	0.650965	0.015737
 411	2.0500e-01	16.4225	38.327412	0.000186	1.858679	0.629737	0.015223
 412	2.0550e-01	16.4915	38.404812	0.000189	1.890005	0.640351	0.015480
 413	2.0600e-01	16.5348	38.481785	0.000188	1.879563	0.636813	0.015395
 414	2.0650e-01	16.5685	38.558757	0.000188	1.879563	0.636813	0.015395
 415	2.0700e-01	16.6118	38.640861	0.000200	2.004867	0.679267	0.016421
 416	2.0750e-01	16.6487	38.718689	0.000190	1.900447	0.643889	0.015566
 417	2.0800e-01	16.7145	38.792668	0.000181	1.806469	0.612048	0.014796
 418	2.0850e-01	16.7338	38.864509	0.000175	1.754259	0.594359	0.014368
 419	2.0900e-01	16.7305	38.945330	-0.000197	-1.973541	-0.668654	0.016164
 420	2.0950e-01	16.8108	39.013323	0.000166	1.660281	0.562518	0.013598
 421	2.1000e-01	16.8284	39.096282	0.000203	2.025751	0.686343	0.016592
 422	2.1050e-01	16.8829	39.172827	0.000187	1.869121	0.633275	0.015309
 423	2.1100e-01	16.9182	39.244668	0.000175	1.754259	0.594359	0.014368
 424	2.1150e-01	16.9872	39.323351	0.000192	1.921331	0.650965	0.015737
 425	2.1200e-01	17.0001	39.400751	0.000189	1.890005	0.640351	0.015480
 426	2.1250e-01	17.0434	39.472592	0.000175	1.754259	0.594359	0.014368
 427	2.1300e-01	17.0738	39.542723	0.000171	1.712491	0.580208	0.014026
 428	2.1350e-01	17.1204	39.615847	0.000179	1.785585	0.604973	0.014625
 429	2.1400e-01	17.1476	39.691537	0.000185	1.848237	0.626200	0.015138
 430	2.1450e-01	17.1942	39.770647	0.000193	1.931773	0.654502	0.015822
 431	2.1500e-01	17.2311	39.836502	0.000161	1.608071	0.544829	0.013171
 432	2.1550e-01	17.2631	39.915612	0.000193	1.931773	0.654502	0.015822
 433	2.1600e-01	17.3289	39.992157	0.000187	1.869121	0.633275	0.015309
 434	2.1650e-01	17.3514	40.072551	0.000196	1.963099	0.665116	0.016079
 435	2.1700e-01	17.4123	40.149951	0.000189	1.890005	0.640351	0.015480
 436	2.1750e-01	17.4476	40.229062	0.000193	1.931773	0.654502	0.015822
 437	2.1800e-01	17.4829	40.303041	0.000181	1.806469	0.612048	0.014796
 438	2.1850e-01	17.5278	40.383434	0.000196	1.963099	0.665116	0.016079
 439	2.1900e-01	17.5551	40.468532	0.000208	2.077961	0.704032	0.017019
 440	2.1950e-01	17.6177	40.541228	0.000178	1.775143	0.601435	0.014539
 441	2.2000e-01	17.6642	40.616490	0.000184	1.837795	0.622662	0.015052
 442	2.2050e-01	17.6802	40.691752	0.000184	1.837795	0.622662	0.015052
 443	2.2100e-01	17.7284	40.770007	0.000191	1.910889	0.647427	0.015651
 444	2.2150e-01	17.7717	40.840993	0.000173	1.733375	0.587283	0.014197
 445	2.2200e-01	17.8086	40.918821	0.000190	1.900447	0.643889	0.015566
 446	2.2250e-01	17.8327	40.993228	0.000182	1.816911	0.615586	0.014881
 447	2.2300e-01	17.8728	41.068918	0.000185	1.848237	0.626200	0.015138
 448	2.2350e-01	17.9257	41.135199	0.000162	1.618513	0.548367	0.013256
 449	2.2400e-01	17.9578	41.216876	0.000199	1.994425	0.675730	0.016335
 450	2.2450e-01	18.0123	41.289572	0.000178	1.775143	0.601435	0.014539
 451	2.2500e-01	18.0412	41.365262	0.000185	1.848237	0.626200	0.015138
 452	2.2550e-01	18.0733	41.440096	0.000183	1.827353	0.619124	0.014967
 453	2.2600e-01	18.1102	41.508944	0.000168	1.681165	0.569594	0.013770
 454	2.2650e-01	18.1599	41.590193	0.000198	1.983983	0.672192	0.016250
 455	2.2700e-01	18.1968	41.662461	0.000176	1.764701	0.597897	0.014454
 456	2.2750e-01	18.2481	41.733447	0.000173	1.733375	0.587283	0.014197
 457	2.2800e-01	18.3075	41.807854	0.000182	1.816911	0.615586	0.014881
 458	2.2850e-01	18.3155	41.879695	0.000175	1.754259	0.594359	0.014368
 459	2.2900e-01	18.3572	41.958806	0.000193	1.931773	0.654502	0.015822
 460	2.2950e-01	18.3829	42.028936	0.000171	1.712491	0.580208	0.014026
 461	2.3000e-01	18.4647	42.104626	0.000185	1.848237	0.626200	0.015138
 462	2.3050e-01	18.4856	42.178605	0.000181	1.806469	0.612048	0.014796
 463	2.3100e-01	18.5161	42.250019	0.000174	1.743817	0.590821	0.014283
 464	2.3150e-01	18.5722	42.321432	0.000174	1.743817	0.590821	0.014283
 465	2.3200e-01	18.5915	42.389852	0.000167	1.670723	0.566056	0.013684
 466	2.3250e-01	18.6620	42.463831	0.000181	1.806469	0.612048	0.014796
 467	2.3300e-01	18.6893	42.539093	0.000184	1.837795	0.622662	0.015052
 468	2.3350e-01	18.7118	42.611362	0.000176	1.764701	0.597897	0.014454
 469	2.3400e-01	18.7631	42.688762	0.000189	1.890005	0.640351	0.015480
 470	2.3450e-01	18.8096	42.756755	0.000166	1.660281	0.562518	0.013598
 471	2.3500e-01	18.8337	42.820043	0.000155	1.545419	0.523602	0.012658
 472	2.3550e-01	18.8818	42.845273	0.000062	0.616079	0.208733	0.005046
 473	2.3600e-01	18.9091	42.864088	0.000046	0.459449	0.155665	0.003763
 474	2.3650e-01	18.9684	42.887608	0.000057	0.574311	0.194582	0.004704
 475	2.3700e-01	19.0214	42.941916	0.000133	1.326136	0.449307	0.010862
 476	2.3750e-01	19.0551	42.969712	0.000068	0.678731	0.229960	0.005559
 477	2.3800e-01	19.1000	43.002211	0.000079	0.793593	0.268877	0.006500
 478	2.3850e-01	19.1337	43.031718	0.000072	0.720499	0.244112	0.005901
 479	2.3900e-01	19.1481	43.063362	0.000077	0.772709	0.261801	0.006329
 480	2.3950e-01	19.1962	43.098855	0.000087	0.866687	0.293642	0.007099
 481	2.4000e-01	19.2348	43.142473	0.000107	1.065086	0.360861	0.008724
 482	2.4050e-01	19.2749	43.180959	0.000094	0.939782	0.318407	0.007697
 483	2.4100e-01	19.3198	43.216024	0.000086	0.856245	0.290104	0.007013
 484	2.4150e-01	19.3519	43.264773	0.000119	1.190390	0.403315	0.009750
 485	2.4200e-01	19.3920	43.305398	0.000099	0.991992	0.336096	0.008125
 486	2.4250e-01	19.3952	43.357568	0.000127	1.273926	0.431618	0.010434
 487	2.4300e-01	19.4850	43.408028	0.000123	1.232158	0.417466	0.010092
 488	2.4350e-01	19.5235	43.458060	0.000122	1.221716	0.413929	0.010006
 489	2.4400e-01	19.5636	43.507237	0.000120	1.200832	0.406853	0.009835
 490	2.4450e-01	19.5989	43.664603	0.000384	3.842662	1.301929	0.031473
 491	2.4500e-01	19.6390	43.780062	0.000282	2.819345	0.955220	0.023092
 492	2.4550e-01	19.6759	43.829666	0.000121	1.211274	0.410391	0.009921
 493	2.4600e-01	19.7369	43.874567	0.000110	1.096412	0.371474	0.008980
 494	2.4650e-01	19.7641	43.924172	0.000121	1.211274	0.410391	0.009921
 495	2.4700e-01	19.7946	43.977625	0.000131	1.305252	0.442231	0.010691
 496	2.4750e-01	19.8363	44.042624	0.000159	1.587187	0.537753	0.013000
 497	2.4800e-01	19.8797	44.091373	0.000119	1.190390	0.403315	0.009750
 498	2.4850e-01	19.9310	44.146109	0.000134	1.336578	0.452845	0.010947
 499	2.4900e-01	19.9695	44.202128	0.000137	1.367904	0.463458	0.011204
 500	2.4950e-01	20.0080	44.256009	0.000132	1.315694	0.445769	0.010776
 501	2.5000e-01	20.0272	44.314166	0.000142	1.420114	0.481148	0.011631
 502	2.5050e-01	19.9903	44.367619	-0.000131	-1.305252	-0.442231	0.010691
 503	2.5100e-01	19.9567	44.412520	-0.000110	-1.096412	-0.371474	0.008980
 504	2.5150e-01	19.9069	44.456993	-0.000109	-1.085970	-0.367937	0.008895
 505	2.5200e-01	19.8636	44.498472	-0.000101	-1.012876	-0.343172	0.008296
 506	2.5250e-01	19.8251	44.529689	-0.000076	-0.762267	-0.258263	0.006243
 507	2.5300e-01	19.7930	44.555774	-0.000064	-0.636963	-0.215809	0.005217
 508	2.5350e-01	19.7321	44.594260	-0.000094	-0.939782	-0.318407	0.007697
 509	2.5400e-01	19.6952	44.609655	-0.000038	-0.375913	-0.127363	0.003079
 510	2.5450e-01	19.6406	44.618207	-0.000021	-0.208840	-0.070757	0.001711
 511	2.5500e-01	19.6069	44.624622	-0.000016	-0.156630	-0.053068	0.001283
 512	2.5550e-01	19.5748	44.630608	-0.000015	-0.146188	-0.049530	0.001197
 513	2.5600e-01	19.5123	44.629753	0.000002	0.020884	0.007076	-0.000171
 514	2.5650e-01	19.4866	44.621201	0.000021	0.208840	0.070757	-0.001711
 515	2.5700e-01	19.4513	44.616924	0.000010	0.104420	0.035379	-0.000855
 516	2.5750e-01	19.4096	44.609227	0.000019	0.187956	0.063681	-0.001539
 517	2.5800e-01	19.4176	44.595971	-0.000032	-0.323703	-0.109673	-0.002651
 518	2.5850e-01	19.3647	44.565182	0.000075	0.751825	0.254725	-0.006158
 519	2.5900e-01	19.2877	44.505314	0.000146	1.461882	0.495299	-0.011974
 520	2.5950e-01	19.2604	44.471532	0.000082	0.824919	0.279490	-0.006756
 521	2.6000e-01	19.2267	44.451861	0.000048	0.480333	0.162741	-0.003934
 522	2.6050e-01	19.1802	44.437749	0.000034	0.344587	0.116749	-0.002822
 523	2.6100e-01	19.1160	44.412947	0.000061	0.605637	0.205195	-0.004960
 524	2.6150e-01	19.0856	44.387290	0.000063	0.626521	0.212271	-0.005132
 525	2.6200e-01	19.0487	44.363343	0.000058	0.584753	0.198120	-0.004789
 526	2.6250e-01	19.0246	44.333837	0.000072	0.720499	0.244112	-0.005901
 527	2.6300e-01	18.9829	44.306896	0.000066	0.657847	0.222885	-0.005388
 528	2.6350e-01	18.9492	44.270976	0.000088	0.877129	0.297179	-0.007184
 529	2.6400e-01	18.8706	44.240187	0.000075	0.751825	0.254725	-0.006158
 530	2.6450e-01	18.8529	44.210253	0.000073	0.730941	0.247650	-0.005987
 531	2.6500e-01	18.8096	44.173477	0.000090	0.898013	0.304255	-0.007355
 532	2.6550e-01	18.7647	44.134563	0.000095	0.950224	0.321944	-0.007783
 533	2.6600e-01	18.7423	44.099070	0.000087	0.866687	0.293642	-0.007099
 534	2.6650e-01	18.7086	44.059729	0.000096	0.960666	0.325482	-0.007868
 535	2.6700e-01	18.6765	44.024663	0.000086	0.856245	0.290104	-0.007013
 536	2.6750e-01	18.6267	43.977625	0.000115	1.148622	0.389164	-0.009408
 537	2.6800e-01	18.5834	43.937856	0.000097	0.971108	0.329020	-0.007954
 538	2.6850e-01	18.5209	43.890817	0.000115	1.148622	0.389164	-0.009408
 539	2.6900e-01	18.4936	43.841640	0.000120	1.200832	0.406853	-0.009835
 540	2.6950e-01	18.4567	43.799733	0.000102	1.023318	0.346709	-0.008381
 541	2.7000e-01	18.4262	43.753549	0.000113	1.127738	0.382088	-0.009237
 542	2.7050e-01	18.3765	43.706083	0.000116	1.159064	0.392701	-0.009493
 543	2.7100e-01	18.3268	43.657333	0.000119	1.190390	0.403315	-0.009750
 544	2.7150e-01	18.2947	43.607729	0.000121	1.211274	0.410391	-0.009921
 545	2.7200e-01	18.2562	43.549999	0.000141	1.409672	0.477610	-0.011546
 546	2.7250e-01	18.2385	43.466185	0.000205	2.046635	0.693419	-0.016763
 547	2.7300e-01	18.2080	43.425988	0.000098	0.981550	0.332558	-0.008039
 548	2.7350e-01	18.1359	43.369114	0.000139	1.388788	0.470534	-0.011375
 549	2.7400e-01	18.0813	43.319509	0.000121	1.211274	0.410391	-0.009921
 550	2.7450e-01	18.0396	43.263490	0.000137	1.367904	0.463458	-0.011204
 551	2.7500e-01	18.0252	43.180959	0.000202	2.015309	0.682805	-0.016506
 552	2.7550e-01	17.9915	43.121519	0.000145	1.451440	0.491761	-0.011888
 553	2.7600e-01	17.9385	43.071487	0.000122	1.221716	0.413929	-0.010006
 554	2.7650e-01	17.9064	43.015895	0.000136	1.357462	0.459921	-0.011118
 555	2.7700e-01	17.8712	42.965008	0.000124	1.242600	0.421004	-0.010177
 556	2.7750e-01	17.8262	42.905140	0.000146	1.461882	0.495299	-0.011974
 557	2.7800e-01	17.7524	42.848266	0.000139	1.388788	0.470534	-0.011375
 558	2.7850e-01	17.7364	42.781129	0.000164	1.639397	0.555443	-0.013427
 559	2.7900e-01	17.6786	42.728104	0.000129	1.294810	0.438694	-0.010605
 560	2.7950e-01	17.6578	42.669519	0.000143	1.430556	0.484686	-0.011717
 561	2.8000e-01	17.6450	42.607941	0.000150	1.503650	0.509451	-0.012316
 562	2.8050e-01	17.5904	42.549784	0.000142	1.420114	0.481148	-0.011631
 563	2.8100e-01	17.5343	42.483074	0.000163	1.628955	0.551905	-0.013342
 564	2.8150e-01	17.5038	42.426200	0.000139	1.388788	0.470534	-0.011375
 565	2.8200e-01	17.4541	42.361201	0.000159	1.587187	0.537753	-0.013000
 566	2.8250e-01	17.4043	42.303472	0.000141	1.409672	0.477610	-0.011546
 567	2.8300e-01	17.3963	42.238473	0.000159	1.587187	0.537753	-0.013000
 568	2.8350e-01	17.3402	42.175184	0.000155	1.545419	0.523602	-0.012658
 569	2.8400e-01	17.2744	42.112323	0.000153	1.534976	0.520064	-0.012572
 570	2.8450e-01	17.2840	42.049462	-0.000153	-1.534976	-0.520064	-0.012572
 571	2.8500e-01	17.2038	41.987029	0.000152	1.524534	0.516526	-0.012487
 572	2.8550e-01	17.1637	41.926734	0.000147	1.472324	0.498837	-0.012059
 573	2.8600e-01	17.1300	41.862162	0.000158	1.576745	0.534216	-0.012914
 574	2.8650e-01	17.0947	41.796308	0.000161	1.608071	0.544829	-0.013171
 575	2.8700e-01	17.0899	41.728743	0.000165	1.649839	0.558980	-0.013513
 576	2.8750e-01	17.0321	41.666310	0.000152	1.524534	0.516526	-0.012487
 577	2.8800e-01	16.9840	41.595752	0.000172	1.722933	0.583745	-0.014112
 578	2.8850e-01	16.9263	41.536312	0.000145	1.451440	0.491761	-0.011888
 579	2.8900e-01	16.9295	41.467892	-0.000167	-1.670723	-0.566056	-0.013684
 580	2.8950e-01	16.8573	41.409735	0.000142	1.420114	0.481148	-0.011631
 581	2.9000e-01	16.8059	41.343881	0.000161	1.608071	0.544829	-0.013171
 582	2.9050e-01	16.7755	41.277599	0.000162	1.618513	0.548367	-0.013256
 583	2.9100e-01	16.7418	41.211317	0.000162	1.618513	0.548367	-0.013256
 584	2.9150e-01	16.6776	41.143324	0.000166	1.660281	0.562518	-0.013598
 585	2.9200e-01	16.6439	41.081319	0.000151	1.514092	0.512988	-0.012401
 586	2.9250e-01	16.6086	41.011188	0.000171	1.712491	0.580208	-0.014026
 587	2.9300e-01	16.5926	40.945761	0.000160	1.597629	0.541291	-0.013085
 588	2.9350e-01	16.5348	40.877341	0.000167	1.670723	0.566056	-0.013684
 589	2.9400e-01	16.5027	40.813625	0.000156	1.555861	0.527140	-0.012743
 590	2.9450e-01	16.4338	40.742639	0.000173	1.733375	0.587283	-0.014197
 591	2.9500e-01	16.4209	40.679351	0.000155	1.545419	0.523602	-0.012658
 592	2.9550e-01	16.3648	40.610931	0.000167	1.670723	0.566056	-0.013684
 593	2.9600e-01	16.3375	40.541228	0.000170	1.702049	0.576670	-0.013941
 594	2.9650e-01	16.3038	40.475801	0.000160	1.597629	0.541291	-0.013085
 595	2.9700e-01	16.2573	40.408237	0.000165	1.649839	0.558980	-0.013513
 596	2.9750e-01	16.2156	40.340244	0.000166	1.660281	0.562518	-0.013598
 597	2.9800e-01	16.1642	40.268403	0.000175	1.754259	0.594359	-0.014368
 598	2.9850e-01	16.1338	40.198273	0.000171	1.712491	0.580208	-0.014026
 599	2.9900e-01	16.1081	40.128142	0.000171	1.712491	0.580208	-0.014026
 600	2.9950e-01	16.0808	40.061860	0.000162	1.618513	0.548367	-0.013256
 601	3.0000e-01	16.0135	39.993012	0.000168	1.681165	0.569594	-0.013770
 602	3.0050e-01	15.9766	39.925448	0.000165	1.649839	0.558980	-0.013513
 603	3.0100e-01	15.9140	39.853607	0.000175	1.754259	0.594359	-0.014368
 604	3.0150e-01	15.8931	39.789035	0.000158	1.576745	0.534216	-0.012914
 605	3.0200e-01	15.8402	39.717194	0.000175	1.754259	0.594359	-0.014368
 606	3.0250e-01	15.8402	39.643643	0.000180	1.796027	0.608510	-0.014710
 607	3.0300e-01	15.8145	39.579499	0.000157	1.566303	0.530678	-0.012829
 608	3.0350e-01	15.7327	39.503381	0.000186	1.858679	0.629737	-0.015223
 609	3.0400e-01	15.7103	39.437100	0.000162	1.618513	0.548367	-0.013256
 610	3.0450e-01	15.6685	39.365686	0.000174	1.743817	0.590821	-0.014283
 611	3.0500e-01	15.6300	39.297694	0.000166	1.660281	0.562518	-0.013598
 612	3.0550e-01	15.5803	39.226280	0.000174	1.743817	0.590821	-0.014283
 613	3.0600e-01	15.5193	39.158288	0.000166	1.660281	0.562518	-0.013598
 614	3.0650e-01	15.5081	39.081743	0.000187	1.869121	0.633275	-0.015309
 615	3.0700e-01	15.4423	39.021875	0.000146	1.461882	0.495299	-0.011974
 616	3.0750e-01	15.4006	38.948751	0.000179	1.785585	0.604973	-0.014625
 617	3.0800e-01	15.3605	38.876910	0.000175	1.754259	0.594359	-0.014368
 618	3.0850e-01	15.3284	38.808063	0.000168	1.681165	0.569594	-0.013770
 619	3.0900e-01	15.2867	38.734939	0.000179	1.785585	0.604973	-0.014625
 620	3.0950e-01	15.2546	38.666519	0.000167	1.670723	0.566056	-0.013684
 621	3.1000e-01	15.2081	38.595105	0.000174	1.743817	0.590821	-0.014283
 622	3.1050e-01	15.1793	38.527968	0.000164	1.639397	0.555443	-0.013427
 623	3.1100e-01	15.1343	38.455700	0.000176	1.764701	0.597897	-0.014454
 624	3.1150e-01	15.0942	38.380437	0.000184	1.837795	0.622662	-0.015052
 625	3.1200e-01	15.0605	38.320570	0.000146	1.461882	0.495299	-0.011974
 626	3.1250e-01	15.0124	38.244025	0.000187	1.869121	0.633275	-0.015309
 627	3.1300e-01	14.9996	38.171756	0.000176	1.764701	0.597897	-0.014454
 628	3.1350e-01	14.9338	38.103336	0.000167	1.670723	0.566056	-0.013684
 629	3.1400e-01	14.8889	38.031068	0.000176	1.764701	0.597897	-0.014454
 630	3.1450e-01	14.8552	37.962648	0.000167	1.670723	0.566056	-0.013684
 631	3.1500e-01	14.8279	37.886530	0.000186	1.858679	0.629737	-0.015223
 632	3.1550e-01	14.7878	37.816400	0.000171	1.712491	0.580208	-0.014026
 633	3.1600e-01	14.7397	37.748407	0.000166	1.660281	0.562518	-0.013598
 634	3.1650e-01	14.6964	37.674856	0.000180	1.796027	0.608510	-0.014710
 635	3.1700e-01	14.6499	37.599166	0.000185	1.848237	0.626200	-0.015138
 636	3.1750e-01	14.6354	37.525187	0.000181	1.806469	0.612048	-0.014796
 637	3.1800e-01	14.5664	37.450780	0.000182	1.816911	0.615586	-0.014881
 638	3.1850e-01	14.5360	37.380222	0.000172	1.722933	0.583745	-0.014112
 639	3.1900e-01	14.4878	37.307526	0.000178	1.775143	0.601435	-0.014539
 640	3.1950e-01	14.4445	37.231836	0.000185	1.848237	0.626200	-0.015138
 641	3.2000e-01	14.4221	37.159567	0.000176	1.764701	0.597897	-0.014454
 642	3.2050e-01	14.4108	37.085161	0.000182	1.816911	0.615586	-0.014881
 643	3.2100e-01	14.3242	37.014602	0.000172	1.722933	0.583745	-0.014112
 644	3.2150e-01	14.2857	36.940623	0.000181	1.806469	0.612048	-0.014796
 645	3.2200e-01	14.2520	36.866216	0.000182	1.816911	0.615586	-0.014881
 646	3.2250e-01	14.1991	36.795658	0.000172	1.722933	0.583745	-0.014112
 647	3.2300e-01	14.1878	36.718258	0.000189	1.890005	0.640351	-0.015480
 648	3.2350e-01	14.1108	36.647700	0.000172	1.722933	0.583745	-0.014112
 649	3.2400e-01	14.0964	36.569444	0.000191	1.910889	0.647427	-0.015651
 650	3.2450e-01	14.0499	36.498031	0.000174	1.743817	0.590821	-0.014283
 651	3.2500e-01	14.0098	36.423624	0.000182	1.816911	0.615586	-0.014881
 652	3.2550e-01	13.9665	36.356059	0.000165	1.649839	0.558980	-0.013513
 653	3.2600e-01	13.9360	36.277376	0.000192	1.921331	0.650965	-0.015737
 654	3.2650e-01	13.8798	36.203825	0.000180	1.796027	0.608510	-0.014710
 655	3.2700e-01	13.8509	36.127708	0.000186	1.858679	0.629737	-0.015223
 656	3.2750e-01	13.7964	36.052873	0.000183	1.827353	0.619124	-0.014967
 657	3.2800e-01	13.7804	35.984881	0.000166	1.660281	0.562518	-0.013598
 658	3.2850e-01	13.7306	35.907908	0.000188	1.879563	0.636813	-0.015395
 659	3.2900e-01	13.7130	35.826659	0.000198	1.983983	0.672192	-0.016250
 660	3.2950e-01	13.6472	35.753963	0.000178	1.775143	0.601435	-0.014539
 661	3.3000e-01	13.6231	35.679984	0.000181	1.806469	0.612048	-0.014796
 662	3.3050e-01	13.5766	35.609426	0.000172	1.722933	0.583745	-0.014112
 663	3.3100e-01	13.5125	35.535447	0.000181	1.806469	0.612048	-0.014796
 664	3.3150e-01	13.4916	35.454625	0.000197	1.973541	0.668654	-0.016164
 665	3.3200e-01	13.4723	35.375087	0.000194	1.942215	0.658040	-0.015908
 666	3.3250e-01	13.4034	35.304956	0.000171	1.712491	0.580208	-0.014026
 667	3.3300e-01	13.3969	35.232260	0.000178	1.775143	0.601435	-0.014539
 668	3.3350e-01	13.3456	35.159136	0.000179	1.785585	0.604973	-0.014625
 669	3.3400e-01	13.2782	35.085157	0.000181	1.806469	0.612048	-0.014796
 670	3.3450e-01	13.2381	35.006046	0.000193	1.931773	0.654502	-0.015822
 671	3.3500e-01	13.2157	34.926936	0.000193	1.931773	0.654502	-0.015822
 672	3.3550e-01	13.1627	34.849963	0.000188	1.879563	0.636813	-0.015395
 673	3.3600e-01	13.1483	34.775556	0.000182	1.816911	0.615586	-0.014881
 674	3.3650e-01	13.0937	34.698584	0.000188	1.879563	0.636813	-0.015395
 675	3.3700e-01	13.0793	34.628881	0.000170	1.702049	0.576670	-0.013941
 676	3.3750e-01	13.0167	34.549770	0.000193	1.931773	0.654502	-0.015822
 677	3.3800e-01	12.9847	34.475791	0.000181	1.806469	0.612048	-0.014796
 678	3.3850e-01	12.9221	34.405661	0.000171	1.712491	0.580208	-0.014026
 679	3.3900e-01	12.9365	34.325695	-0.000195	-1.952657	-0.661578	-0.015993
 680	3.3950e-01	12.8740	34.253426	0.000176	1.764701	0.597897	-0.014454
 681	3.4000e-01	12.8258	34.172605	0.000197	1.973541	0.668654	-0.016164
 682	3.4050e-01	12.7905	34.099908	0.000178	1.775143	0.601435	-0.014539
 683	3.4100e-01	12.7424	34.025502	0.000182	1.816911	0.615586	-0.014881
 684	3.4150e-01	12.6959	33.950240	0.000184	1.837795	0.622662	-0.015052
 685	3.4200e-01	12.6622	33.875833	0.000182	1.816911	0.615586	-0.014881
 686	3.4250e-01	12.5996	33.797577	0.000191	1.910889	0.647427	-0.015651
 687	3.4300e-01	12.5996	33.720177	0.000189	1.890005	0.640351	-0.015480
 688	3.4350e-01	12.5387	33.647053	0.000179	1.785585	0.604973	-0.014625
 689	3.4400e-01	12.5082	33.563666	0.000204	2.036193	0.689881	-0.016677
 690	3.4450e-01	12.4440	33.487977	0.000185	1.848237	0.626200	-0.015138
 691	3.4500e-01	12.3991	33.417846	0.000171	1.712491	0.580208	-0.014026
 692	3.4550e-01	12.3847	33.345577	0.000176	1.764701	0.597897	-0.014454
 693	3.4600e-01	12.3382	33.266039	0.000194	1.942215	0.658040	-0.015908
 694	3.4650e-01	12.3109	33.187784	0.000191	1.910889	0.647427	-0.015651
 695	3.4700e-01	12.2788	33.111666	0.000186	1.858679	0.629737	-0.015223
 696	3.4750e-01	12.2387	33.040253	0.000174	1.743817	0.590821	-0.014283
 697	3.4800e-01	12.1954	32.959859	0.000196	1.963099	0.665116	-0.016079
 698	3.4850e-01	12.1280	32.887163	0.000178	1.775143	0.601435	-0.014539
 699	3.4900e-01	12.0959	32.806770	0.000196	1.963099	0.665116	-0.016079
 700	3.4950e-01	12.0398	32.733646	0.000179	1.785585	0.604973	-0.014625
 701	3.5000e-01	12.0269	32.658384	0.000184	1.837795	0.622662	-0.015052
 702	3.5050e-01	12.0221	32.574569	0.000205	2.046635	0.693419	-0.016763
 703	3.5100e-01	11.9515	32.499307	0.000184	1.837795	0.622662	-0.015052
 704	3.5150e-01	11.8954	32.421052	0.000191	1.910889	0.647427	-0.015651
 705	3.5200e-01	11.8521	32.344079	0.000188	1.879563	0.636813	-0.015395
 706	3.5250e-01	11.7975	32.267962	0.000186	1.858679	0.629737	-0.015223
 707	3.5300e-01	11.7542	32.189706	0.000191	1.910889	0.647427	-0.015651
 708	3.5350e-01	11.7285	32.111451	0.000191	1.910889	0.647427	-0.015651
 709	3.5400e-01	11.7141	32.028919	0.000202	2.015309	0.682805	-0.016506
 710	3.5450e-01	11.6676	31.950664	0.000191	1.910889	0.647427	-0.015651
 711	3.5500e-01	11.6259	31.872836	0.000190	1.900447	0.643889	-0.015566
 712	3.5550e-01	11.5874	31.794581	0.000191	1.910889	0.647427	-0.015651
 713	3.5600e-01	11.5441	31.714187	0.000196	1.963099	0.665116	-0.016079
 714	3.5650e-01	11.5168	31.635932	0.000191	1.910889	0.647427	-0.015651
 715	3.5700e-01	11.4687	31.553828	0.000200	2.004867	0.679267	-0.016421
 716	3.5750e-01	11.4093	31.472579	0.000198	1.983983	0.672192	-0.016250
 717	3.5800e-01	11.3580	31.407580	0.000159	1.587187	0.537753	-0.013000
 718	3.5850e-01	11.3483	31.311364	0.000235	2.349454	0.796017	-0.019243
 719	3.5900e-01	11.3259	31.238240	0.000179	1.785585	0.604973	-0.014625
 720	3.5950e-01	11.2729	31.159557	0.000192	1.921331	0.650965	-0.015737
 721	3.6000e-01	11.2168	31.075315	0.000206	2.057077	0.696957	-0.016848
 722	3.6050e-01	11.1895	30.997487	0.000190	1.900447	0.643889	-0.015566
 723	3.6100e-01	11.1334	30.920087	0.000189	1.890005	0.640351	-0.015480
 724	3.6150e-01	11.0917	30.841831	0.000191	1.910889	0.647427	-0.015651
 725	3.6200e-01	11.0580	30.754596	0.000213	2.130171	0.721722	-0.017447
 726	3.6250e-01	11.0131	30.676341	0.000191	1.910889	0.647427	-0.015651
 727	3.6300e-01	10.9826	30.603644	0.000178	1.775143	0.601435	-0.014539
 728	3.6350e-01	10.9473	30.523251	0.000196	1.963099	0.665116	-0.016079
 729	3.6400e-01	10.9184	30.441574	0.000199	1.994425	0.675730	-0.016335
 730	3.6450e-01	10.8623	30.359043	0.000202	2.015309	0.682805	-0.016506
 731	3.6500e-01	10.8013	30.285491	0.000180	1.796027	0.608510	-0.014710
 732	3.6550e-01	10.7772	30.196117	0.000218	2.182382	0.739411	-0.017875
 733	3.6600e-01	10.7291	30.115724	0.000196	1.963099	0.665116	-0.016079
 734	3.6650e-01	10.6938	30.031054	0.000207	2.067519	0.700495	-0.016934
 735	3.6700e-01	10.6409	29.951943	0.000193	1.931773	0.654502	-0.015822
 736	3.6750e-01	10.6152	29.870694	0.000198	1.983983	0.672192	-0.016250
 737	3.6800e-01	10.5863	29.787308	0.000204	2.036193	0.689881	-0.016677
 738	3.6850e-01	10.5382	29.703921	0.000204	2.036193	0.689881	-0.016677
 739	3.6900e-01	10.4901	29.622244	0.000199	1.994425	0.675730	-0.016335
 740	3.6950e-01	10.4821	29.540140	0.000200	2.004867	0.679267	-0.016421
 741	3.7000e-01	10.3938	29.461457	0.000192	1.921331	0.650965	-0.015737
 742	3.7050e-01	10.3810	29.384057	0.000189	1.890005	0.640351	-0.015480
 743	3.7100e-01	10.3393	29.296821	0.000213	2.130171	0.721722	-0.017447
 744	3.7150e-01	10.2783	29.218994	0.000190	1.900447	0.643889	-0.015566
 745	3.7200e-01	10.2543	29.140311	0.000192	1.921331	0.650965	-0.015737
 746	3.7250e-01	10.2077	29.054785	0.000209	2.088403	0.707570	-0.017105
 747	3.7300e-01	10.1773	28.979951	0.000183	1.827353	0.619124	-0.014967
 748	3.7350e-01	10.1307	28.894426	0.000209	2.088403	0.707570	-0.017105
 749	3.7400e-01	10.0970	28.814888	0.000194	1.942215	0.658040	-0.015908
 750	3.7450e-01	10.0746	28.737488	0.000189	1.890005	0.640351	-0.015480
 751	3.7500e-01	10.0232	28.653245	0.000206	2.057077	0.696957	-0.016848
 752	3.7550e-01	9.9896	28.571997	0.000198	1.983983	0.672192	-0.016250
 753	3.7600e-01	9.9318	28.489892	0.000200	2.004867	0.679267	-0.016421
 754	3.7650e-01	9.8981	28.409071	0.000197	1.973541	0.668654	-0.016164
 755	3.7700e-01	9.8965	28.322263	0.000212	2.119729	0.718184	-0.017362
 756	3.7750e-01	9.8163	28.246146	0.000186	1.858679	0.629737	-0.015223
 757	3.7800e-01	9.7778	28.168746	0.000189	1.890005	0.640351	-0.015480
 758	3.7850e-01	9.7537	28.079372	0.000218	2.182382	0.739411	-0.017875
 759	3.7900e-01	9.7056	27.995985	0.000204	2.036193	0.689881	-0.016677
 760	3.7950e-01	9.6559	27.919868	0.000186	1.858679	0.629737	-0.015223
 761	3.8000e-01	9.5821	27.837336	0.000202	2.015309	0.682805	-0.016506
 762	3.8050e-01	9.5612	27.751811	0.000209	2.088403	0.707570	-0.017105
 763	3.8100e-01	9.5324	27.672273	0.000194	1.942215	0.658040	-0.015908
 764	3.8150e-01	9.4890	27.591024	0.000198	1.983983	0.672192	-0.016250
 765	3.8200e-01	9.4618	27.516190	0.000183	1.827353	0.619124	-0.014967
 766	3.8250e-01	9.4265	27.430237	0.000210	2.098845	0.711108	-0.017191
 767	3.8300e-01	9.3864	27.344712	0.000209	2.088403	0.707570	-0.017105
 768	3.8350e-01	9.3350	27.269022	0.000185	1.848237	0.626200	-0.015138
 769	3.8400e-01	9.3046	27.181359	0.000214	2.140613	0.725259	-0.017533
 770	3.8450e-01	9.2644	27.092841	0.000216	2.161498	0.732335	-0.017704
 771	3.8500e-01	9.2051	27.004750	0.000215	2.151055	0.728797	-0.017618
 772	3.8550e-01	9.2099	26.916231	-0.000216	-2.161498	-0.732335	-0.017704
 773	3.8600e-01	9.1329	26.829424	0.000212	2.119729	0.718184	-0.017362
 774	3.8650e-01	9.1056	26.739195	0.000220	2.203266	0.746487	-0.018046
 775	3.8700e-01	9.0334	26.654525	0.000207	2.067519	0.700495	-0.016934
 776	3.8750e-01	9.0206	26.577552	0.000188	1.879563	0.636813	-0.015395
 777	3.8800e-01	8.9901	26.495876	0.000199	1.994425	0.675730	-0.016335
 778	3.8850e-01	8.9564	26.417193	0.000192	1.921331	0.650965	-0.015737
 779	3.8900e-01	8.9003	26.338937	0.000191	1.910889	0.647427	-0.015651
 780	3.8950e-01	8.8441	26.261537	0.000189	1.890005	0.640351	-0.015480
 781	3.9000e-01	8.8329	26.179433	0.000200	2.004867	0.679267	-0.016421
 782	3.9050e-01	8.8104	26.093480	0.000210	2.098845	0.711108	-0.017191
 783	3.9100e-01	8.7062	26.007100	0.000211	2.109287	0.714646	-0.017276
 784	3.9150e-01	8.7399	25.925851	-0.000198	-1.983983	-0.672192	-0.016250
 785	3.9200e-01	8.6725	25.838188	0.000214	2.140613	0.725259	-0.017533
 786	3.9250e-01	8.6083	25.754374	0.000205	2.046635	0.693419	-0.016763
 787	3.9300e-01	8.5875	25.672270	0.000200	2.004867	0.679267	-0.016421
 788	3.9350e-01	8.5361	25.590593	0.000199	1.994425	0.675730	-0.016335
 789	3.9400e-01	8.5185	25.509772	0.000197	1.973541	0.668654	-0.016164
 790	3.9450e-01	8.4302	25.428096	0.000199	1.994425	0.675730	-0.016335
 791	3.9500e-01	8.4190	25.339577	0.000216	2.161498	0.732335	-0.017704
 792	3.9550e-01	8.3901	25.253624	0.000210	2.098845	0.711108	-0.017191
 793	3.9600e-01	8.3260	25.167672	0.000210	2.098845	0.711108	-0.017191
 794	3.9650e-01	8.2955	25.079153	0.000216	2.161498	0.732335	-0.017704
 795	3.9700e-01	8.2313	24.993628	0.000209	2.088403	0.707570	-0.017105
 796	3.9750e-01	8.2089	24.905965	0.000214	2.140613	0.725259	-0.017533
 797	3.9800e-01	8.1848	24.821723	0.000206	2.057077	0.696957	-0.016848
 798	3.9850e-01	8.1479	24.736625	0.000208	2.077961	0.704032	-0.017019
 799	3.9900e-01	8.0869	24.645969	0.000221	2.213708	0.750024	-0.018131
 800	3.9950e-01	8.0966	24.562582	-0.000204	-2.036193	-0.689881	-0.016677
 801	4.0000e-01	8.0115	24.475774	0.000212	2.119729	0.718184	-0.017362
 802	4.0050e-01	7.9843	24.389394	0.000211	2.109287	0.714646	-0.017276
 803	4.0100e-01	7.9201	24.305152	0.000206	2.057077	0.696957	-0.016848
 804	4.0150e-01	7.8912	24.215350	0.000219	2.192824	0.742949	-0.017960
 805	4.0200e-01	7.8463	24.127687	0.000214	2.140613	0.725259	-0.017533
 806	4.0250e-01	7.8607	24.040452	-0.000213	-2.130171	-0.721722	-0.017447
 807	4.0300e-01	7.7950	23.947657	0.000227	2.265918	0.767714	-0.018559
 808	4.0350e-01	7.6955	23.864270	0.000204	2.036193	0.689881	-0.016677
 809	4.0400e-01	7.7164	23.777890	-0.000211	-2.109287	-0.714646	-0.017276
 810	4.0450e-01	7.6506	23.694075	0.000205	2.046635	0.693419	-0.016763
 811	4.0500e-01	7.6217	23.603846	0.000220	2.203266	0.746487	-0.018046
 812	4.0550e-01	7.5479	23.518321	0.000209	2.088403	0.707570	-0.017105
 813	4.0600e-01	7.5383	23.432368	0.000210	2.098845	0.711108	-0.017191
 814	4.0650e-01	7.4725	23.345988	0.000211	2.109287	0.714646	-0.017276
 815	4.0700e-01	7.4436	23.263884	0.000200	2.004867	0.679267	-0.016421
 816	4.0750e-01	7.4196	23.174083	0.000219	2.192824	0.742949	-0.017960
 817	4.0800e-01	7.3522	23.090696	0.000204	2.036193	0.689881	-0.016677
 818	4.0850e-01	7.3313	22.997046	0.000229	2.286802	0.774789	-0.018730
 819	4.0900e-01	7.3025	22.913659	0.000204	2.036193	0.689881	-0.016677
 820	4.0950e-01	7.2255	22.821719	0.000225	2.245034	0.760638	-0.018388
 821	4.1000e-01	7.1741	22.735339	0.000211	2.109287	0.714646	-0.017276
 822	4.1050e-01	7.1565	22.646821	0.000216	2.161498	0.732335	-0.017704
 823	4.1100e-01	7.1212	22.562579	0.000206	2.057077	0.696957	-0.016848
 824	4.1150e-01	7.0907	22.477053	0.000209	2.088403	0.707570	-0.017105
 825	4.1200e-01	7.0474	22.383831	0.000228	2.276360	0.771252	-0.018644
 826	4.1250e-01	7.0265	22.299589	0.000206	2.057077	0.696957	-0.016848
 827	4.1300e-01	6.9848	22.208505	0.000222	2.224150	0.753562	-0.018217
 828	4.1350e-01	6.9351	22.123835	0.000207	2.067519	0.700495	-0.016934
 829	4.1400e-01	6.8822	22.031896	0.000225	2.245034	0.760638	-0.018388
 830	4.1450e-01	6.8757	21.943377	0.000216	2.161498	0.732335	-0.017704
 831	4.1500e-01	6.8324	21.855286	0.000215	2.151055	0.728797	-0.017618
 832	4.1550e-01	6.7923	21.762492	0.000227	2.265918	0.767714	-0.018559
 833	4.1600e-01	6.7153	21.679532	0.000203	2.025751	0.686343	-0.016592
 834	4.1650e-01	6.6977	21.584172	0.000233	2.328570	0.788941	-0.019072
 835	4.1700e-01	6.6640	21.495226	0.000217	2.171940	0.735873	-0.017789
 836	4.1750e-01	6.6062	21.402004	0.000228	2.276360	0.771252	-0.018644
 837	4.1800e-01	6.5629	21.310919	0.000222	2.224150	0.753562	-0.018217
 838	4.1850e-01	6.5228	21.218552	0.000226	2.255476	0.764176	-0.018473
 839	4.1900e-01	6.4971	21.128751	0.000219	2.192824	0.742949	-0.017960
 840	4.1950e-01	6.4971	21.035956	0.000227	2.265918	0.767714	-0.018559
 841	4.2000e-01	6.3977	20.955563	0.000196	1.963099	0.665116	-0.016079
 842	4.2050e-01	6.3752	20.858492	0.000237	2.370338	0.803092	-0.019414
 843	4.2100e-01	6.3784	20.768691	-0.000219	-2.192824	-0.742949	-0.017960
 844	4.2150e-01	6.3143	20.672475	0.000235	2.349454	0.796017	-0.019243
 845	4.2200e-01	6.2629	20.582674	0.000219	2.192824	0.742949	-0.017960
 846	4.2250e-01	6.2004	20.493300	0.000218	2.182382	0.739411	-0.017875
 847	4.2300e-01	6.1747	20.400933	0.000226	2.255476	0.764176	-0.018473
 848	4.2350e-01	6.1201	20.310276	0.000221	2.213708	0.750024	-0.018131
 849	4.2400e-01	6.0464	20.214916	0.000233	2.328570	0.788941	-0.019072
 850	4.2450e-01	6.0800	20.125970	-0.000217	-2.171940	-0.735873	-0.017789
 851	4.2500e-01	6.0159	20.033603	0.000226	2.255476	0.764176	-0.018473
 852	4.2550e-01	5.9950	19.937387	0.000235	2.349454	0.796017	-0.019243
 853	4.2600e-01	5.9180	19.839033	0.000240	2.401664	0.813706	-0.019671
 854	4.2650e-01	5.9052	19.747094	0.000225	2.245034	0.760638	-0.018388
 855	4.2700e-01	5.8587	19.651306	0.000234	2.339012	0.792479	-0.019158
 856	4.2750e-01	5.8041	19.559366	0.000225	2.245034	0.760638	-0.018388
 857	4.2800e-01	5.7881	19.458447	0.000246	2.464316	0.834933	-0.020184
 858	4.2850e-01	5.7560	19.372922	0.000209	2.088403	0.707570	-0.017105
 859	4.2900e-01	5.6854	19.275423	0.000238	2.380780	0.806630	-0.019500
 860	4.2950e-01	5.6613	19.174931	0.000245	2.453874	0.831395	-0.020098
 861	4.3000e-01	5.6228	19.084275	0.000221	2.213708	0.750024	-0.018131
 862	4.3050e-01	5.5891	18.989342	0.000232	2.318128	0.785403	-0.018987
 863	4.3100e-01	5.5571	18.895264	0.000230	2.297244	0.778327	-0.018816
 864	4.3150e-01	5.4817	18.799049	0.000235	2.349454	0.796017	-0.019243
 865	4.3200e-01	5.4448	18.701978	0.000237	2.370338	0.803092	-0.019414
 866	4.3250e-01	5.4319	18.603624	0.000240	2.401664	0.813706	-0.019671
 867	4.3300e-01	5.3806	18.509546	0.000230	2.297244	0.778327	-0.018816
 868	4.3350e-01	5.3373	18.411192	0.000240	2.401664	0.813706	-0.019671
 869	4.3400e-01	5.2924	18.318398	0.000227	2.265918	0.767714	-0.018559
 870	4.3450e-01	5.2779	18.216623	0.000249	2.485200	0.842009	-0.020355
 871	4.3500e-01	5.2009	18.117841	0.000241	2.412106	0.817244	-0.019756
 872	4.3550e-01	5.1993	18.019060	0.000241	2.412106	0.817244	-0.019756
 873	4.3600e-01	5.1496	17.921561	0.000238	2.380780	0.806630	-0.019500
 874	4.3650e-01	5.1063	17.821070	0.000245	2.453874	0.831395	-0.020098
 875	4.3700e-01	5.0341	17.725281	0.000234	2.339012	0.792479	-0.019158
 876	4.3750e-01	5.0357	17.630349	-0.000232	-2.318128	-0.785403	-0.018987
 877	4.3800e-01	4.9507	17.527291	0.000252	2.516526	0.852622	-0.020612
 878	4.3850e-01	4.9378	17.434069	0.000228	2.276360	0.771252	-0.018644
 879	4.3900e-01	4.9138	17.333149	0.000246	2.464316	0.834933	-0.020184
 880	4.3950e-01	4.8737	17.239072	0.000230	2.297244	0.778327	-0.018816
 881	4.4000e-01	4.8255	17.140718	0.000240	2.401664	0.813706	-0.019671
 882	4.4050e-01	4.7822	17.045357	0.000233	2.328570	0.788941	-0.019072
 883	4.4100e-01	4.7229	16.947003	0.000240	2.401664	0.813706	-0.019671
 884	4.4150e-01	4.7052	16.842663	0.000255	2.547852	0.863236	-0.020868
 885	4.4200e-01	4.6667	16.740888	0.000249	2.485200	0.842009	-0.020355
 886	4.4250e-01	4.6394	16.639969	0.000246	2.464316	0.834933	-0.020184
 887	4.4300e-01	4.5689	16.538621	0.000247	2.474758	0.838471	-0.020269
 888	4.4350e-01	4.5239	16.450103	0.000216	2.161498	0.732335	-0.017704
 889	4.4400e-01	4.4774	16.334644	0.000282	2.819345	0.955220	-0.023092
 890	4.4450e-01	4.4389	16.234152	0.000245	2.453874	0.831395	-0.020098
 891	4.4500e-01	4.4132	16.127673	0.000260	2.600062	0.880925	-0.021296
 892	4.4550e-01	4.3683	16.028037	0.000243	2.432990	0.824319	-0.019927
 893	4.4600e-01	4.3571	15.921558	0.000260	2.600062	0.880925	-0.021296
 894	4.4650e-01	4.2913	15.821494	0.000244	2.443432	0.827857	-0.020013
 895	4.4700e-01	4.2560	15.719291	0.000250	2.495642	0.845546	-0.020440
 896	4.4750e-01	4.2095	15.622648	0.000236	2.359896	0.799554	-0.019329
 897	4.4800e-01	4.1726	15.524294	0.000240	2.401664	0.813706	-0.019671
 898	4.4850e-01	4.1133	15.422947	0.000247	2.474758	0.838471	-0.020269
 899	4.4900e-01	4.0715	15.324593	0.000240	2.401664	0.813706	-0.019671
 900	4.4950e-01	4.0571	15.224956	0.000243	2.432990	0.824319	-0.019927
 901	4.5000e-01	4.0314	15.124037	0.000246	2.464316	0.834933	-0.020184
 902	4.5050e-01	3.9641	15.022690	0.000247	2.474758	0.838471	-0.020269
 903	4.5100e-01	3.9368	14.916639	0.000259	2.589620	0.877387	-0.021210
 904	4.5150e-01	3.8855	14.814009	0.000251	2.506084	0.849084	-0.020526
 905	4.5200e-01	3.8550	14.711806	0.000250	2.495642	0.845546	-0.020440
 906	4.5250e-01	3.8133	14.615590	0.000235	2.349454	0.796017	-0.019243
 907	4.5300e-01	3.7587	14.510395	0.000257	2.568736	0.870311	-0.021039
 908	4.5350e-01	3.7539	14.409475	0.000246	2.464316	0.834933	-0.020184
 909	4.5400e-01	3.7266	14.308983	0.000245	2.453874	0.831395	-0.020098
 910	4.5450e-01	3.6256	14.202932	0.000259	2.589620	0.877387	-0.021210
 911	4.5500e-01	3.6127	14.103295	0.000243	2.432990	0.824319	-0.019927
 912	4.5550e-01	3.5518	14.001521	0.000249	2.485200	0.842009	-0.020355
 913	4.5600e-01	3.5502	13.898890	0.000251	2.506084	0.849084	-0.020526
 914	4.5650e-01	3.4796	13.796688	0.000250	2.495642	0.845546	-0.020440
 915	4.5700e-01	3.4571	13.696196	0.000245	2.453874	0.831395	-0.020098
 916	4.5750e-01	3.4202	13.590573	0.000258	2.579178	0.873849	-0.021125
 917	4.5800e-01	3.3721	13.483239	0.000262	2.620946	0.888001	-0.021467
 918	4.5850e-01	3.3352	13.387878	0.000233	2.328570	0.788941	-0.019072
 919	4.5900e-01	3.2919	13.290380	0.000238	2.380780	0.806630	-0.019500
 920	4.5950e-01	3.2406	13.180908	0.000267	2.673156	0.905690	-0.021894
 921	4.6000e-01	3.2422	13.078278	-0.000251	-2.506084	-0.849084	-0.020526
 922	4.6050e-01	3.1716	12.973509	0.000256	2.558294	0.866774	-0.020954
 923	4.6100e-01	3.1411	12.873873	0.000243	2.432990	0.824319	-0.019927
 924	4.6150e-01	3.1186	12.763973	0.000268	2.683598	0.909228	-0.021980
 925	4.6200e-01	3.0561	12.656211	0.000263	2.631388	0.891538	-0.021552
 926	4.6250e-01	2.9999	12.551871	0.000255	2.547852	0.863236	-0.020868
 927	4.6300e-01	2.9614	12.446675	0.000257	2.568736	0.870311	-0.021039
 928	4.6350e-01	2.9197	12.340196	0.000260	2.600062	0.880925	-0.021296
 929	4.6400e-01	2.9037	12.227731	0.000275	2.746250	0.930455	-0.022493
 930	4.6450e-01	2.8555	12.126384	0.000247	2.474758	0.838471	-0.020269
 931	4.6500e-01	2.8411	12.016912	0.000267	2.673156	0.905690	-0.021894
 932	4.6550e-01	2.7769	11.905729	0.000271	2.714924	0.919841	-0.022237
 933	4.6600e-01	2.7240	11.802244	0.000253	2.526968	0.856160	-0.020697
 934	4.6650e-01	2.7176	11.689351	0.000276	2.756692	0.933993	-0.022579
 935	4.6700e-01	2.6678	11.578596	0.000270	2.704482	0.916303	-0.022151
 936	4.6750e-01	2.6277	11.477676	0.000246	2.464316	0.834933	-0.020184
 937	4.6800e-01	2.5652	11.372480	0.000257	2.568736	0.870311	-0.021039
 938	4.6850e-01	2.5219	11.259587	0.000276	2.756692	0.933993	-0.022579
 939	4.6900e-01	2.4753	11.150115	0.000267	2.673156	0.905690	-0.021894
 940	4.6950e-01	2.4545	11.046630	0.000253	2.526968	0.856160	-0.020697
 941	4.7000e-01	2.4208	10.938441	0.000264	2.641830	0.895076	-0.021638
 942	4.7050e-01	2.3775	10.825120	0.000277	2.767134	0.937531	-0.022664
 943	4.7100e-01	2.3277	10.713510	0.000273	2.725366	0.923379	-0.022322
 944	4.7150e-01	2.3037	10.606603	0.000261	2.610504	0.884463	-0.021381
 945	4.7200e-01	2.2539	10.496704	0.000268	2.683598	0.909228	-0.021980
 946	4.7250e-01	2.2363	10.388087	0.000265	2.652272	0.898614	-0.021723
 947	4.7300e-01	2.1593	10.276049	0.000274	2.735808	0.926917	-0.022408
 948	4.7350e-01	2.1497	10.160590	0.000282	2.819345	0.955220	-0.023092
 949	4.7400e-01	2.0951	10.053256	0.000262	2.620946	0.888001	-0.021467
 950	4.7450e-01	2.0245	9.943784	0.000267	2.673156	0.905690	-0.021894
 951	4.7500e-01	2.0342	9.830464	-0.000277	-2.767134	-0.937531	-0.022664
 952	4.7550e-01	1.9812	9.718853	0.000273	2.725366	0.923379	-0.022322
 953	4.7600e-01	1.9267	9.610237	0.000265	2.652272	0.898614	-0.021723
 954	4.7650e-01	1.8689	9.507607	0.000251	2.506084	0.849084	-0.020526
 955	4.7700e-01	1.8561	9.391720	0.000283	2.829787	0.958758	-0.023177
 956	4.7750e-01	1.7823	9.277972	0.000278	2.777577	0.941068	-0.022750
 957	4.7800e-01	1.7711	9.167644	0.000269	2.694040	0.912766	-0.022065
 958	4.7850e-01	1.7406	9.051758	0.000283	2.829787	0.958758	-0.023177
 959	4.7900e-01	1.6925	8.943996	0.000263	2.631388	0.891538	-0.021552
 960	4.7950e-01	1.6443	8.833241	0.000270	2.704482	0.916303	-0.022151
 961	4.8000e-01	1.6411	8.722914	0.000269	2.694040	0.912766	-0.022065
 962	4.8050e-01	1.6010	8.613014	0.000268	2.683598	0.909228	-0.021980
 963	4.8100e-01	1.5401	8.500549	0.000275	2.746250	0.930455	-0.022493
 964	4.8150e-01	1.4935	8.382524	0.000288	2.881997	0.976447	-0.023605
 965	4.8200e-01	1.4454	8.268776	0.000278	2.777577	0.941068	-0.022750
 966	4.8250e-01	1.4214	8.156311	0.000275	2.746250	0.930455	-0.022493
 967	4.8300e-01	1.3283	8.040424	0.000283	2.829787	0.958758	-0.023177
 968	4.8350e-01	1.3556	7.925821	-0.000280	-2.798461	-0.948144	-0.022921
 969	4.8400e-01	1.3171	7.814638	0.000271	2.714924	0.919841	-0.022237
 970	4.8450e-01	1.2513	7.703028	0.000273	2.725366	0.923379	-0.022322
 971	4.8500e-01	1.1968	7.582010	0.000296	2.955091	1.001212	-0.024204
 972	4.8550e-01	1.1567	7.465268	0.000285	2.850671	0.965833	-0.023348
 973	4.8600e-01	1.1358	7.348527	0.000285	2.850671	0.965833	-0.023348
 974	4.8650e-01	1.1021	7.232640	0.000283	2.829787	0.958758	-0.023177
 975	4.8700e-01	1.0444	7.114188	0.000289	2.892439	0.979985	-0.023690
 976	4.8750e-01	1.0107	7.000012	0.000279	2.788019	0.944606	-0.022835
 977	4.8800e-01	0.9930	6.883270	0.000285	2.850671	0.965833	-0.023348
 978	4.8850e-01	0.9096	6.759687	0.000302	3.017743	1.022439	-0.024717
 979	4.8900e-01	0.8903	6.642517	0.000286	2.861113	0.969371	-0.023434
 980	4.8950e-01	0.8374	6.527914	0.000280	2.798461	0.948144	-0.022921
 981	4.9000e-01	0.8101	6.407751	0.000293	2.934207	0.994136	-0.024033
 982	4.9050e-01	0.7684	6.289299	0.000289	2.892439	0.979985	-0.023690
 983	4.9100e-01	0.7299	6.170847	0.000289	2.892439	0.979985	-0.023690
 984	4.9150e-01	0.6962	6.047690	0.000301	3.007301	1.018901	-0.024631
 985	4.9200e-01	0.6481	5.929238	0.000289	2.892439	0.979985	-0.023690
 986	4.9250e-01	0.6048	5.803944	0.000306	3.059511	1.036590	-0.025059
 987	4.9300e-01	0.5936	5.683781	0.000293	2.934207	0.994136	-0.024033
 988	4.9350e-01	0.5294	5.557204	0.000309	3.090837	1.047204	-0.025315
 989	4.9400e-01	0.4652	5.431910	0.000306	3.059511	1.036590	-0.025059
 990	4.9450e-01	0.4492	5.313030	0.000290	2.902881	0.983523	-0.023776
 991	4.9500e-01	0.4267	5.189019	0.000303	3.028185	1.025977	-0.024802
 992	4.9550e-01	0.3449	5.065863	0.000301	3.007301	1.018901	-0.024631
 993	4.9600e-01	0.3176	4.947838	0.000288	2.881997	0.976447	-0.023605
 994	4.9650e-01	0.2888	4.822116	0.000307	3.069953	1.040128	-0.025144
 995	4.9700e-01	0.2647	4.697677	0.000304	3.038627	1.029515	-0.024888
 996	4.9750e-01	0.2102	4.576232	0.000297	2.965533	1.004750	-0.024289
 997	4.9800e-01	0.1765	4.449655	0.000309	3.090837	1.047204	-0.025315
 998	4.9850e-01	0.1396	4.323933	0.000307	3.069953	1.040128	-0.025144
 999	4.9900e-01	0.1043	4.198211	0.000307	3.069953	1.040128	-0.025144
1000	4.9950e-01	0.0626	4.077621	0.000294	2.944649	0.997674	-0.024118
1001	5.0000e-01	0.0561	3.952327	0.000306	3.059511	1.036590	-0.025059
1002	5.0050e-01	-0.0241	3.825750	0.000309	3.090837	1.047204	-0.025315
1003	5.0100e-01	-0.0545	3.556346	0.000658	6.578471	2.228846	-0.053881
1004	5.0150e-01	-0.1075	3.297205	0.000633	6.327862	2.143938	-0.051828
1005	5.0200e-01	-0.1315	3.037636	0.000634	6.338304	2.147476	-0.051914
1006	5.0250e-01	-0.1957	2.802015	0.000575	5.753551	1.949356	-0.047124
1007	5.0300e-01	-0.2390	2.600603	0.000492	4.918190	1.666328	-0.040282
1008	5.0350e-01	-0.2551	2.409455	0.000467	4.667582	1.581419	-0.038230
1009	5.0400e-01	-0.3257	2.214457	0.000476	4.761560	1.613260	-0.038999
1010	5.0450e-01	-0.3321	2.013901	0.000490	4.897306	1.659252	-0.040111
1011	5.0500e-01	-0.3786	1.817621	0.000479	4.792886	1.623874	-0.039256
1012	5.0550e-01	-0.4299	1.644861	0.000422	4.218575	1.429292	-0.034552
1013	5.0600e-01	-0.4315	1.461837	0.000447	4.469183	1.514200	-0.036605
1014	5.0650e-01	-0.4989	1.278813	0.000447	4.469183	1.514200	-0.036605
1015	5.0700e-01	-0.5470	1.104770	0.000425	4.249901	1.439905	-0.034809
1016	5.0750e-01	-0.5952	0.940989	0.000400	3.999293	1.354997	-0.032756
1017	5.0800e-01	-0.6593	0.776354	0.000402	4.020177	1.362073	-0.032927
1018	5.0850e-01	-0.6561	0.564252	-0.000518	-5.179240	-1.754774	-0.042420
1019	5.0900e-01	-0.7027	0.410734	0.000375	3.748684	1.270089	-0.030703
1020	5.0950e-01	-0.7363	0.327347	0.000204	2.036193	0.689881	-0.016677
1021	5.1000e-01	-0.7604	0.246098	0.000198	1.983983	0.672192	-0.016250
1022	5.1050e-01	-0.8278	0.157580	0.000216	2.161498	0.732335	-0.017704
1023	5.1100e-01	-0.8518	0.066923	0.000221	2.213708	0.750024	-0.018131
1024	5.1150e-01	-0.8855	-0.021595	0.000216	2.161498	0.732335	-0.017704
1025	5.1200e-01	-0.9513	-0.116956	0.000233	2.328570	0.788941	-0.019072
1026	5.1250e-01	-0.9690	-0.217875	0.000246	2.464316	0.834933	-0.020184
1027	5.1300e-01	-1.0347	-0.323926	0.000259	2.589620	0.877387	-0.021210
1028	5.1350e-01	-1.0572	-0.432543	0.000265	2.652272	0.898614	-0.021723
1029	5.1400e-01	-1.1438	-0.539877	0.000262	2.620946	0.888001	-0.021467
1030	5.1450e-01	-1.1502	-0.646356	0.000260	2.600062	0.880925	-0.021296
1031	5.1500e-01	-1.2128	-0.757966	0.000273	2.725366	0.923379	-0.022322
1032	5.1550e-01	-1.2224	-0.872569	0.000280	2.798461	0.948144	-0.022921
1033	5.1600e-01	-1.2497	-0.979476	0.000261	2.610504	0.884463	-0.021381
1034	5.1650e-01	-1.2962	-1.091514	0.000274	2.735808	0.926917	-0.022408
1035	5.1700e-01	-1.3283	-1.203979	0.000275	2.746250	0.930455	-0.022493
1036	5.1750e-01	-1.3668	-1.328418	0.000304	3.038627	1.029515	-0.024888
1037	5.1800e-01	-1.4486	-1.444732	0.000284	2.840229	0.962296	-0.023263
1038	5.1850e-01	-1.4470	-1.569171	-0.000304	-3.038627	-1.029515	-0.024888
1039	5.1900e-01	-1.4935	-1.685913	0.000285	2.850671	0.965833	-0.023348
1040	5.1950e-01	-1.5240	-1.805220	0.000291	2.913323	0.987060	-0.023861
1041	5.2000e-01	-1.5577	-1.920679	0.000282	2.819345	0.955220	-0.023092
1042	5.2050e-01	-1.6155	-2.046401	0.000307	3.069953	1.040128	-0.025144
1043	5.2100e-01	-1.6379	-2.168702	0.000299	2.986417	1.011825	-0.024460
1044	5.2150e-01	-1.7053	-2.297844	0.000315	3.153489	1.068431	-0.025829
1045	5.2200e-01	-1.7213	-2.414586	0.000285	2.850671	0.965833	-0.023348
1046	5.2250e-01	-1.7919	-2.536032	0.000297	2.965533	1.004750	-0.024289
1047	5.2300e-01	-1.8144	-2.666030	0.000317	3.174373	1.075507	-0.026000
1048	5.2350e-01	-1.8657	-2.787048	0.000296	2.955091	1.001212	-0.024204
1049	5.2400e-01	-1.8994	-2.916191	0.000315	3.153489	1.068431	-0.025829
1050	5.2450e-01	-1.9395	-3.043195	0.000310	3.101279	1.050742	-0.025401
1051	5.2500e-01	-1.9604	-3.169345	0.000308	3.080395	1.043666	-0.025230
1052	5.2550e-01	-2.0165	-3.319441	0.000367	3.665148	1.241786	-0.030019
1053	5.2600e-01	-2.0598	-3.594404	0.000671	6.714217	2.274838	-0.054993
1054	5.2650e-01	-2.0919	-3.860815	0.000651	6.505377	2.204081	-0.053282
1055	5.2700e-01	-2.1400	-4.108410	0.000605	6.045928	2.048416	-0.049519
1056	5.2750e-01	-2.2058	-4.320512	0.000518	5.179240	1.754774	-0.042420
1057	5.2800e-01	-2.2475	-4.509095	0.000460	4.604929	1.560192	-0.037717
1058	5.2850e-01	-2.2636	-4.704947	0.000478	4.782444	1.620336	-0.039170
1059	5.2900e-01	-2.2860	-4.886260	0.000443	4.427415	1.500049	-0.036263
1060	5.2950e-01	-2.3277	-5.079547	0.000472	4.719792	1.599109	-0.038657
1061	5.3000e-01	-2.4031	-5.260860	0.000443	4.427415	1.500049	-0.036263
1062	5.3050e-01	-2.4176	-5.437042	0.000430	4.302111	1.457595	-0.035236
1063	5.3100e-01	-2.4769	-5.598256	0.000394	3.936640	1.333770	-0.032243
1064	5.3150e-01	-2.5411	-5.733813	0.000331	3.310119	1.121499	-0.027111
1065	5.3200e-01	-2.5427	-5.885620	0.000371	3.706916	1.255937	-0.030361
1066	5.3250e-01	-2.5924	-6.028447	0.000349	3.487634	1.181642	-0.028565
1067	5.3300e-01	-2.5956	-6.170847	0.000348	3.477192	1.178104	-0.028480
1068	5.3350e-01	-2.6534	-6.307687	0.000334	3.341445	1.132112	-0.027368
1069	5.3400e-01	-2.6871	-6.441961	0.000328	3.278793	1.110885	-0.026855
1070	5.3450e-01	-2.7561	-6.580084	0.000337	3.372771	1.142726	-0.027625
1071	5.3500e-01	-2.7866	-6.704095	0.000303	3.028185	1.025977	-0.024802
1072	5.3550e-01	-2.8138	-6.819554	0.000282	2.819345	0.955220	-0.023092
1073	5.3600e-01	-2.8748	-6.937151	0.000287	2.871555	0.972909	-0.023519
1074	5.3650e-01	-2.8876	-7.050472	0.000277	2.767134	0.937531	-0.022664
1075	5.3700e-01	-2.9454	-7.176194	0.000307	3.069953	1.040128	-0.025144
1076	5.3750e-01	-2.9710	-7.309185	0.000325	3.247467	1.100272	-0.026598
1077	5.3800e-01	-3.0079	-7.428065	0.000290	2.902881	0.983523	-0.023776
1078	5.3850e-01	-3.0432	-7.563194	0.000330	3.299677	1.117961	-0.027026
1079	5.3900e-01	-3.0962	-7.686778	0.000302	3.017743	1.022439	-0.024717
1080	5.3950e-01	-3.1507	-7.809934	0.000301	3.007301	1.018901	-0.024631
1081	5.4000e-01	-3.1716	-7.959603	0.000365	3.654706	1.238248	-0.029934
1082	5.4050e-01	-3.2229	-8.098581	0.000339	3.393656	1.149802	-0.027796
1083	5.4100e-01	-3.2422	-8.217033	0.000289	2.892439	0.979985	-0.023690
1084	5.4150e-01	-3.3192	-8.327788	0.000270	2.704482	0.916303	-0.022151
1085	5.4200e-01	-3.3432	-8.443675	0.000283	2.829787	0.958758	-0.023177
1086	5.4250e-01	-3.3994	-8.566403	0.000300	2.996859	1.015363	-0.024546
1087	5.4300e-01	-3.4411	-8.698967	0.000324	3.237025	1.096734	-0.026513
1088	5.4350e-01	-3.4716	-8.837090	0.000337	3.372771	1.142726	-0.027625
1089	5.4400e-01	-3.4988	-8.949983	0.000276	2.756692	0.933993	-0.022579
1090	5.4450e-01	-3.5405	-9.063732	0.000278	2.777577	0.941068	-0.022750
1091	5.4500e-01	-3.5710	-9.179190	0.000282	2.819345	0.955220	-0.023092
1092	5.4550e-01	-3.6208	-9.296360	0.000286	2.861113	0.969371	-0.023434
1093	5.4600e-01	-3.6593	-9.419088	0.000300	2.996859	1.015363	-0.024546
1094	5.4650e-01	-3.7106	-9.542672	0.000302	3.017743	1.022439	-0.024717
1095	5.4700e-01	-3.7475	-9.662835	0.000293	2.934207	0.994136	-0.024033
1096	5.4750e-01	-3.7667	-9.787701	0.000305	3.049069	1.033053	-0.024973
1097	5.4800e-01	-3.8068	-9.923258	0.000331	3.310119	1.121499	-0.027111
1098	5.4850e-01	-3.8662	-10.047697	0.000304	3.038627	1.029515	-0.024888
1099	5.4900e-01	-3.8742	-10.200787	0.000374	3.738242	1.266551	-0.030618
1100	5.4950e-01	-3.9368	-10.362429	0.000395	3.947082	1.337308	-0.032328
1101	5.5000e-01	-3.9801	-10.515519	0.000374	3.738242	1.266551	-0.030618
1102	5.5050e-01	-4.0346	-10.667754	0.000372	3.717358	1.259475	-0.030447
1103	5.5100e-01	-4.0523	-10.807587	0.000341	3.414540	1.156877	-0.027967
1104	5.5150e-01	-4.0828	-10.952552	0.000354	3.539844	1.199332	-0.028993
1105	5.5200e-01	-4.1566	-11.064163	0.000273	2.725366	0.923379	-0.022322
1106	5.5250e-01	-4.1534	-11.177056	-0.000276	-2.756692	-0.933993	-0.022579
1107	5.5300e-01	-4.2255	-11.292514	0.000282	2.819345	0.955220	-0.023092
1108	5.5350e-01	-4.2673	-11.399421	0.000261	2.610504	0.884463	-0.021381
1109	5.5400e-01	-4.2705	-11.497775	0.000240	2.401664	0.813706	-0.019671
1110	5.5450e-01	-4.3443	-11.618365	0.000294	2.944649	0.997674	-0.024118
1111	5.5500e-01	-4.3603	-11.738100	0.000292	2.923765	0.990598	-0.023947
1112	5.5550e-01	-4.4165	-11.850138	0.000274	2.735808	0.926917	-0.022408
1113	5.5600e-01	-4.4517	-11.951057	0.000246	2.464316	0.834933	-0.020184
1114	5.5650e-01	-4.4935	-12.057964	0.000261	2.610504	0.884463	-0.021381
1115	5.5700e-01	-4.5448	-12.157600	0.000243	2.432990	0.824319	-0.019927
1116	5.5750e-01	-4.5737	-12.259803	0.000250	2.495642	0.845546	-0.020440
1117	5.5800e-01	-4.6378	-12.391939	0.000323	3.226583	1.093196	-0.026427
1118	5.5850e-01	-4.6667	-12.505687	0.000278	2.777577	0.941068	-0.022750
1119	5.5900e-01	-4.6988	-12.637396	0.000322	3.216141	1.089658	-0.026342
1120	5.5950e-01	-4.7213	-12.756276	0.000290	2.902881	0.983523	-0.023776
1121	5.6000e-01	-4.7758	-12.856340	0.000244	2.443432	0.827857	-0.020013
1122	5.6050e-01	-4.8079	-12.973509	0.000286	2.861113	0.969371	-0.023434
1123	5.6100e-01	-4.8833	-13.089823	0.000284	2.840229	0.962296	-0.023263
1124	5.6150e-01	-4.9154	-13.200151	0.000269	2.694040	0.912766	-0.022065
1125	5.6200e-01	-4.9539	-13.311761	0.000273	2.725366	0.923379	-0.022322
1126	5.6250e-01	-4.9763	-13.434917	0.000301	3.007301	1.018901	-0.024631
1127	5.6300e-01	-5.0325	-13.545244	0.000269	2.694040	0.912766	-0.022065
1128	5.6350e-01	-5.0437	-13.658565	0.000277	2.767134	0.937531	-0.022664
1129	5.6400e-01	-5.0918	-13.756919	0.000240	2.401664	0.813706	-0.019671
1130	5.6450e-01	-5.1175	-13.861687	0.000256	2.558294	0.866774	-0.020954
1131	5.6500e-01	-5.2009	-13.966883	0.000257	2.568736	0.870311	-0.021039
1132	5.6550e-01	-5.2282	-14.063099	0.000235	2.349454	0.796017	-0.019243
1133	5.6600e-01	-5.2539	-14.161452	0.000240	2.401664	0.813706	-0.019671
1134	5.6650e-01	-5.3148	-14.258096	0.000236	2.359896	0.799554	-0.019329
1135	5.6700e-01	-5.3389	-14.355167	0.000237	2.370338	0.803092	-0.019414
1136	5.6750e-01	-5.3854	-14.454376	0.000242	2.422548	0.820781	-0.019842
1137	5.6800e-01	-5.4416	-14.554868	0.000245	2.453874	0.831395	-0.020098
1138	5.6850e-01	-5.4704	-14.651511	0.000236	2.359896	0.799554	-0.019329
1139	5.6900e-01	-5.5041	-14.748154	0.000236	2.359896	0.799554	-0.019329
1140	5.6950e-01	-5.5298	-14.856343	0.000264	2.641830	0.895076	-0.021638
1141	5.7000e-01	-5.5988	-14.953842	0.000238	2.380780	0.806630	-0.019500
1142	5.7050e-01	-5.6260	-15.056472	0.000251	2.506084	0.849084	-0.020526
1143	5.7100e-01	-5.6822	-15.157819	0.000247	2.474758	0.838471	-0.020269
1144	5.7150e-01	-5.6838	-15.261732	0.000254	2.537410	0.859698	-0.020783
1145	5.7200e-01	-5.7255	-15.364362	0.000251	2.506084	0.849084	-0.020526
1146	5.7250e-01	-5.7608	-15.453308	0.000217	2.171940	0.735873	-0.017789
1147	5.7300e-01	-5.8250	-15.551662	0.000240	2.401664	0.813706	-0.019671
1148	5.7350e-01	-5.8699	-15.651726	0.000244	2.443432	0.827857	-0.020013
1149	5.7400e-01	-5.9052	-15.753501	0.000249	2.485200	0.842009	-0.020355
1150	5.7450e-01	-5.9453	-15.855704	0.000250	2.495642	0.845546	-0.020440
1151	5.7500e-01	-6.0014	-15.951492	0.000234	2.339012	0.792479	-0.019158
1152	5.7550e-01	-6.0062	-16.051984	0.000245	2.453874	0.831395	-0.020098
1153	5.7600e-01	-6.0447	-16.156324	0.000255	2.547852	0.863236	-0.020868
1154	5.7650e-01	-6.1201	-16.254251	0.000239	2.391222	0.810168	-0.019585
1155	5.7700e-01	-6.1506	-16.350466	0.000235	2.349454	0.796017	-0.019243
1156	5.7750e-01	-6.1811	-16.450531	0.000244	2.443432	0.827857	-0.020013
1157	5.7800e-01	-6.2004	-16.537766	0.000213	2.130171	0.721722	-0.017447
1158	5.7850e-01	-6.2854	-16.639541	0.000249	2.485200	0.842009	-0.020355
1159	5.7900e-01	-6.3255	-16.733191	0.000229	2.286802	0.774789	-0.018730
1160	5.7950e-01	-6.3319	-16.835821	0.000251	2.506084	0.849084	-0.020526
1161	5.8000e-01	-6.3608	-16.934175	0.000240	2.401664	0.813706	-0.019671
1162	5.8050e-01	-6.4266	-17.028680	0.000231	2.307686	0.781865	-0.018901
1163	5.8100e-01	-6.4217	-17.128317	-0.000243	-2.432990	-0.824319	-0.019927
1164	5.8150e-01	-6.4731	-17.226670	0.000240	2.401664	0.813706	-0.019671
1165	5.8200e-01	-6.5292	-17.320320	0.000229	2.286802	0.774789	-0.018730
1166	5.8250e-01	-6.6078	-17.429792	0.000267	2.673156	0.905690	-0.021894
1167	5.8300e-01	-6.6383	-17.544824	0.000281	2.808903	0.951682	-0.023006
1168	5.8350e-01	-6.6672	-17.652158	0.000262	2.620946	0.888001	-0.021467
1169	5.8400e-01	-6.6929	-17.751794	0.000243	2.432990	0.824319	-0.019927
1170	5.8450e-01	-6.7458	-17.850148	0.000240	2.401664	0.813706	-0.019671
1171	5.8500e-01	-6.8052	-17.948929	0.000241	2.412106	0.817244	-0.019756
1172	5.8550e-01	-6.8421	-18.047283	0.000240	2.401664	0.813706	-0.019671
1173	5.8600e-01	-6.8212	-18.149913	-0.000251	-2.506084	-0.849084	-0.020526
1174	5.8650e-01	-6.8966	-18.246984	0.000237	2.370338	0.803092	-0.019414
1175	5.8700e-01	-6.9207	-18.352180	0.000257	2.568736	0.870311	-0.021039
1176	5.8750e-01	-7.0073	-18.454810	0.000251	2.506084	0.849084	-0.020526
1177	5.8800e-01	-7.0217	-18.560434	0.000258	2.579178	0.873849	-0.021125
1178	5.8850e-01	-7.0602	-18.662636	0.000250	2.495642	0.845546	-0.020440
1179	5.8900e-01	-7.0666	-18.764838	0.000250	2.495642	0.845546	-0.020440
1180	5.8950e-01	-7.1629	-18.864903	0.000244	2.443432	0.827857	-0.020013
1181	5.9000e-01	-7.1886	-18.963257	0.000240	2.401664	0.813706	-0.019671
1182	5.9050e-01	-7.2207	-19.062466	0.000242	2.422548	0.820781	-0.019842
1183	5.9100e-01	-7.2608	-19.157826	0.000233	2.328570	0.788941	-0.019072
1184	5.9150e-01	-7.2752	-19.249338	0.000223	2.234592	0.757100	-0.018302
1185	5.9200e-01	-7.3265	-19.349830	0.000245	2.453874	0.831395	-0.020098
1186	5.9250e-01	-7.3763	-19.447328	0.000238	2.380780	0.806630	-0.019500
1187	5.9300e-01	-7.4485	-19.556373	0.000266	2.662714	0.902152	-0.021809
1188	5.9350e-01	-7.4468	-19.658148	-0.000249	-2.485200	-0.842009	-0.020355
1189	5.9400e-01	-7.4950	-19.761205	0.000252	2.516526	0.852622	-0.020612
1190	5.9450e-01	-7.5142	-19.861270	0.000244	2.443432	0.827857	-0.020013
1191	5.9500e-01	-7.5752	-19.967748	0.000260	2.600062	0.880925	-0.021296
1192	5.9550e-01	-7.5864	-20.066530	0.000241	2.412106	0.817244	-0.019756
1193	5.9600e-01	-7.6506	-20.164456	0.000239	2.391222	0.810168	-0.019585
1194	5.9650e-01	-7.6939	-20.258534	0.000230	2.297244	0.778327	-0.018816
1195	5.9700e-01	-7.7420	-20.356460	0.000239	2.391222	0.810168	-0.019585
1196	5.9750e-01	-7.7982	-20.451393	0.000232	2.318128	0.785403	-0.018987
1197	5.9800e-01	-7.8174	-20.551029	0.000243	2.432990	0.824319	-0.019927
1198	5.9850e-01	-7.8688	-20.649383	0.000240	2.401664	0.813706	-0.019671
1199	5.9900e-01	-7.8944	-20.744744	0.000233	2.328570	0.788941	-0.019072
1200	5.9950e-01	-7.9297	-20.842670	0.000239	2.391222	0.810168	-0.019585
1201	6.0000e-01	-7.9730	-20.933326	0.000221	2.213708	0.750024	-0.018131
1202	6.0050e-01	-8.0244	-21.028687	0.000233	2.328570	0.788941	-0.019072
1203	6.0100e-01	-8.0581	-21.124475	0.000234	2.339012	0.792479	-0.019158
1204	6.0150e-01	-8.1126	-21.215131	0.000221	2.213708	0.750024	-0.018131
1205	6.0200e-01	-8.1495	-21.312630	0.000238	2.380780	0.806630	-0.019500
1206	6.0250e-01	-8.1639	-21.407563	0.000232	2.318128	0.785403	-0.018987
1207	6.0300e-01	-8.2185	-21.500357	0.000227	2.265918	0.767714	-0.018559
1208	6.0350e-01	-8.2442	-21.595718	0.000233	2.328570	0.788941	-0.019072
1209	6.0400e-01	-8.2859	-21.692789	0.000237	2.370338	0.803092	-0.019414
1210	6.0450e-01	-8.3372	-21.785583	0.000227	2.265918	0.767714	-0.018559
1211	6.0500e-01	-8.3998	-21.879661	0.000230	2.297244	0.778327	-0.018816
1212	6.0550e-01	-8.4158	-21.975449	0.000234	2.339012	0.792479	-0.019158
1213	6.0600e-01	-8.4575	-22.075941	0.000245	2.453874	0.831395	-0.020098
1214	6.0650e-01	-8.4912	-22.175150	0.000242	2.422548	0.820781	-0.019842
1215	6.0700e-01	-8.5281	-22.275214	0.000244	2.443432	0.827857	-0.020013
1216	6.0750e-01	-8.5842	-22.373568	0.000240	2.401664	0.813706	-0.019671
1217	6.0800e-01	-8.6516	-22.471494	0.000239	2.391222	0.810168	-0.019585
1218	6.0850e-01	-8.6452	-22.568565	-0.000237	-2.370338	-0.803092	-0.019414
1219	6.0900e-01	-8.6998	-22.657939	0.000218	2.182382	0.739411	-0.017875
1220	6.0950e-01	-8.7527	-22.751589	0.000229	2.286802	0.774789	-0.018730
1221	6.1000e-01	-8.7832	-22.837114	0.000209	2.088403	0.707570	-0.017105
1222	6.1050e-01	-8.8201	-22.924777	0.000214	2.140613	0.725259	-0.017533
1223	6.1100e-01	-8.8602	-23.017999	0.000228	2.276360	0.771252	-0.018644
1224	6.1150e-01	-8.8923	-23.104807	0.000212	2.119729	0.718184	-0.017362
1225	6.1200e-01	-8.9500	-23.194181	0.000218	2.182382	0.739411	-0.017875
1226	6.1250e-01	-8.9500	-23.274575	0.000196	1.963099	0.665116	-0.016079
1227	6.1300e-01	-9.0078	-23.367369	0.000227	2.265918	0.767714	-0.018559
1228	6.1350e-01	-9.0687	-23.456743	0.000218	2.182382	0.739411	-0.017875
1229	6.1400e-01	-9.1008	-23.545689	0.000217	2.171940	0.735873	-0.017789
1230	6.1450e-01	-9.1345	-23.636346	0.000221	2.213708	0.750024	-0.018131
1231	6.1500e-01	-9.1906	-23.728713	0.000226	2.255476	0.764176	-0.018473
1232	6.1550e-01	-9.2019	-23.811244	0.000202	2.015309	0.682805	-0.016506
1233	6.1600e-01	-9.2468	-23.900190	0.000217	2.171940	0.735873	-0.017789
1234	6.1650e-01	-9.2997	-23.990419	0.000220	2.203266	0.746487	-0.018046
1235	6.1700e-01	-9.3350	-24.084069	0.000229	2.286802	0.774789	-0.018730
1236	6.1750e-01	-9.4088	-24.172160	0.000215	2.151055	0.728797	-0.017618
1237	6.1800e-01	-9.4345	-24.256830	0.000207	2.067519	0.700495	-0.016934
1238	6.1850e-01	-9.4746	-24.348342	0.000223	2.234592	0.757100	-0.018302
1239	6.1900e-01	-9.4906	-24.432584	0.000206	2.057077	0.696957	-0.016848
1240	6.1950e-01	-9.5420	-24.525379	0.000227	2.265918	0.767714	-0.018559
1241	6.2000e-01	-9.5869	-24.611331	0.000210	2.098845	0.711108	-0.017191
1242	6.2050e-01	-9.5965	-24.697284	0.000210	2.098845	0.711108	-0.017191
1243	6.2100e-01	-9.6430	-24.785375	0.000215	2.151055	0.728797	-0.017618
1244	6.2150e-01	-9.6944	-24.870045	0.000207	2.067519	0.700495	-0.016934
1245	6.2200e-01	-9.7249	-24.955570	0.000209	2.088403	0.707570	-0.017105
1246	6.2250e-01	-9.7730	-25.046226	0.000221	2.213708	0.750024	-0.018131
1247	6.2300e-01	-9.8323	-25.128330	0.000200	2.004867	0.679267	-0.016421
1248	6.2350e-01	-9.8644	-25.220697	0.000226	2.255476	0.764176	-0.018473
1249	6.2400e-01	-9.8805	-25.307933	0.000213	2.130171	0.721722	-0.017447
1250	6.2450e-01	-9.9527	-25.388326	0.000196	1.963099	0.665116	-0.016079
1251	6.2500e-01	-9.9735	-25.477272	0.000217	2.171940	0.735873	-0.017789
1252	6.2550e-01	-10.0168	-25.567501	0.000220	2.203266	0.746487	-0.018046
1253	6.2600e-01	-10.0810	-25.656020	0.000216	2.161498	0.732335	-0.017704
1254	6.2650e-01	-10.1051	-25.739834	0.000205	2.046635	0.693419	-0.016763
1255	6.2700e-01	-10.1484	-25.829636	0.000219	2.192824	0.742949	-0.017960
1256	6.2750e-01	-10.1981	-25.914733	0.000208	2.077961	0.704032	-0.017019
1257	6.2800e-01	-10.2286	-25.999831	0.000208	2.077961	0.704032	-0.017019
1258	6.2850e-01	-10.2719	-26.090915	0.000222	2.224150	0.753562	-0.018217
1259	6.2900e-01	-10.2831	-26.174302	0.000204	2.036193	0.689881	-0.016677
1260	6.2950e-01	-10.3377	-26.260682	0.000211	2.109287	0.714646	-0.017276
1261	6.3000e-01	-10.3762	-26.342786	0.000200	2.004867	0.679267	-0.016421
1262	6.3050e-01	-10.4291	-26.432160	0.000218	2.182382	0.739411	-0.017875
1263	6.3100e-01	-10.4355	-26.518112	0.000210	2.098845	0.711108	-0.017191
1264	6.3150e-01	-10.5238	-26.595513	0.000189	1.890005	0.640351	-0.015480
1265	6.3200e-01	-10.4981	-26.684886	-0.000218	-2.182382	-0.739411	-0.017875
1266	6.3250e-01	-10.5607	-26.769556	0.000207	2.067519	0.700495	-0.016934
1267	6.3300e-01	-10.6296	-26.858930	0.000218	2.182382	0.739411	-0.017875
1268	6.3350e-01	-10.6585	-26.939323	0.000196	1.963099	0.665116	-0.016079
1269	6.3400e-01	-10.7339	-27.025704	0.000211	2.109287	0.714646	-0.017276
1270	6.3450e-01	-10.7083	-27.114650	-0.000217	-2.171940	-0.735873	-0.017789
1271	6.3500e-01	-10.7740	-27.197181	0.000202	2.015309	0.682805	-0.016506
1272	6.3550e-01	-10.8013	-27.283562	0.000211	2.109287	0.714646	-0.017276
1273	6.3600e-01	-10.8719	-27.366521	0.000203	2.025751	0.686343	-0.016592
1274	6.3650e-01	-10.9088	-27.449908	0.000204	2.036193	0.689881	-0.016677
1275	6.3700e-01	-10.9569	-27.527308	0.000189	1.890005	0.640351	-0.015480
1276	6.3750e-01	-10.9553	-27.617109	-0.000219	-2.192824	-0.742949	-0.017960
1277	6.3800e-01	-11.0050	-27.698786	0.000199	1.994425	0.675730	-0.016335
1278	6.3850e-01	-11.0692	-27.787732	0.000217	2.171940	0.735873	-0.017789
1279	6.3900e-01	-11.1093	-27.867270	0.000194	1.942215	0.658040	-0.015908
1280	6.3950e-01	-11.1414	-27.945526	0.000191	1.910889	0.647427	-0.015651
1281	6.4000e-01	-11.1927	-28.037465	0.000225	2.245034	0.760638	-0.018388
1282	6.4050e-01	-11.2088	-28.112299	0.000183	1.827353	0.619124	-0.014967
1283	6.4100e-01	-11.2521	-28.196542	0.000206	2.057077	0.696957	-0.016848
1284	6.4150e-01	-11.3179	-28.274369	0.000190	1.900447	0.643889	-0.015566
1285	6.4200e-01	-11.3628	-28.362888	0.000216	2.161498	0.732335	-0.017704
1286	6.4250e-01	-11.3836	-28.439005	0.000186	1.858679	0.629737	-0.015223
1287	6.4300e-01	-11.4270	-28.521537	0.000202	2.015309	0.682805	-0.016506
1288	6.4350e-01	-11.4735	-28.603213	0.000199	1.994425	0.675730	-0.016335
1289	6.4400e-01	-11.4911	-28.685745	0.000202	2.015309	0.682805	-0.016506
1290	6.4450e-01	-11.5665	-28.769132	0.000204	2.036193	0.689881	-0.016677
1291	6.4500e-01	-11.5890	-28.852091	0.000203	2.025751	0.686343	-0.016592
1292	6.4550e-01	-11.6275	-28.927353	0.000184	1.837795	0.622662	-0.015052
1293	6.4600e-01	-11.6612	-29.011595	0.000206	2.057077	0.696957	-0.016848
1294	6.4650e-01	-11.6997	-29.090706	0.000193	1.931773	0.654502	-0.015822
1295	6.4700e-01	-11.7318	-29.165968	0.000184	1.837795	0.622662	-0.015052
1296	6.4750e-01	-11.7783	-29.248927	0.000203	2.025751	0.686343	-0.016592
1297	6.4800e-01	-11.8168	-29.331459	0.000202	2.015309	0.682805	-0.016506
1298	6.4850e-01	-11.8585	-29.409714	0.000191	1.910889	0.647427	-0.015651
1299	6.4900e-01	-11.9178	-29.484977	0.000184	1.837795	0.622662	-0.015052
1300	6.4950e-01	-11.9323	-29.566225	0.000198	1.983983	0.672192	-0.016250
1301	6.5000e-01	-11.9868	-29.648329	0.000200	2.004867	0.679267	-0.016421
1302	6.5050e-01	-12.0366	-29.729151	0.000197	1.973541	0.668654	-0.016164
1303	6.5100e-01	-12.0398	-29.810827	0.000199	1.994425	0.675730	-0.016335
1304	6.5150e-01	-12.0879	-29.895497	0.000207	2.067519	0.700495	-0.016934
1305	6.5200e-01	-12.1505	-29.978028	0.000202	2.015309	0.682805	-0.016506
1306	6.5250e-01	-12.1809	-30.055429	0.000189	1.890005	0.640351	-0.015480
1307	6.5300e-01	-12.2034	-30.138816	0.000204	2.036193	0.689881	-0.016677
1308	6.5350e-01	-12.2579	-30.220920	0.000200	2.004867	0.679267	-0.016421
1309	6.5400e-01	-12.3125	-30.300030	0.000193	1.931773	0.654502	-0.015822
1310	6.5450e-01	-12.3430	-30.377430	0.000189	1.890005	0.640351	-0.015480
1311	6.5500e-01	-12.3815	-30.459962	0.000202	2.015309	0.682805	-0.016506
1312	6.5550e-01	-12.4039	-30.535224	0.000184	1.837795	0.622662	-0.015052
1313	6.5600e-01	-12.4569	-30.611769	0.000187	1.869121	0.633275	-0.015309
1314	6.5650e-01	-12.4890	-30.690452	0.000192	1.921331	0.650965	-0.015737
1315	6.5700e-01	-12.5371	-30.776405	0.000210	2.098845	0.711108	-0.017191
1316	6.5750e-01	-12.6093	-30.854233	0.000190	1.900447	0.643889	-0.015566
1317	6.5800e-01	-12.6221	-30.934626	0.000196	1.963099	0.665116	-0.016079
1318	6.5850e-01	-12.6349	-31.012026	0.000189	1.890005	0.640351	-0.015480
1319	6.5900e-01	-12.6959	-31.093703	0.000199	1.994425	0.675730	-0.016335
1320	6.5950e-01	-12.7216	-31.174952	0.000198	1.983983	0.672192	-0.016250
1321	6.6000e-01	-12.7665	-31.257056	0.000200	2.004867	0.679267	-0.016421
1322	6.6050e-01	-12.8242	-31.325476	0.000167	1.670723	0.566056	-0.013684
1323	6.6100e-01	-12.8740	-31.407152	0.000199	1.994425	0.675730	-0.016335
1324	6.6150e-01	-12.8483	-31.489256	-0.000200	-2.004867	-0.679267	-0.016421
1325	6.6200e-01	-12.9606	-31.567939	0.000192	1.921331	0.650965	-0.015737
1326	6.6250e-01	-12.9606	-31.642774	0.000183	1.827353	0.619124	-0.014967
1327	6.6300e-01	-13.0119	-31.726161	0.000204	2.036193	0.689881	-0.016677
1328	6.6350e-01	-13.0007	-31.803988	-0.000190	-1.900447	-0.643889	-0.015566
1329	6.6400e-01	-13.0954	-31.881816	0.000190	1.900447	0.643889	-0.015566
1330	6.6450e-01	-13.1563	-31.960072	0.000191	1.910889	0.647427	-0.015651
1331	6.6500e-01	-13.1868	-32.039182	0.000193	1.931773	0.654502	-0.015822
1332	6.6550e-01	-13.2076	-32.114872	0.000185	1.848237	0.626200	-0.015138
1333	6.6600e-01	-13.2542	-32.196121	0.000198	1.983983	0.672192	-0.016250
1334	6.6650e-01	-13.2895	-32.273949	0.000190	1.900447	0.643889	-0.015566
1335	6.6700e-01	-13.3215	-32.347500	0.000180	1.796027	0.608510	-0.014710
1336	6.6750e-01	-13.4034	-32.426611	0.000193	1.931773	0.654502	-0.015822
1337	6.6800e-01	-13.4371	-32.504011	0.000189	1.890005	0.640351	-0.015480
1338	6.6850e-01	-13.4403	-32.580128	0.000186	1.858679	0.629737	-0.015223
1339	6.6900e-01	-13.4964	-32.654963	0.000183	1.827353	0.619124	-0.014967
1340	6.6950e-01	-13.5461	-32.734073	0.000193	1.931773	0.654502	-0.015822
1341	6.7000e-01	-13.5991	-32.800783	0.000163	1.628955	0.551905	-0.013342
1342	6.7050e-01	-13.5991	-32.880749	0.000195	1.952657	0.661578	-0.015993
1343	6.7100e-01	-13.6568	-32.953445	0.000178	1.775143	0.601435	-0.014539
1344	6.7150e-01	-13.6937	-33.029990	0.000187	1.869121	0.633275	-0.015309
1345	6.7200e-01	-13.7659	-33.102686	0.000178	1.775143	0.601435	-0.014539
1346	6.7250e-01	-13.7788	-33.174527	0.000175	1.754259	0.594359	-0.014368
1347	6.7300e-01	-13.8221	-33.248507	0.000181	1.806469	0.612048	-0.014796
1348	6.7350e-01	-13.8429	-33.328472	0.000195	1.952657	0.661578	-0.015993
1349	6.7400e-01	-13.8814	-33.402452	0.000181	1.806469	0.612048	-0.014796
1350	6.7450e-01	-13.9392	-33.476003	0.000180	1.796027	0.608510	-0.014710
1351	6.7500e-01	-13.9681	-33.549555	0.000180	1.796027	0.608510	-0.014710
1352	6.7550e-01	-14.0114	-33.625672	0.000186	1.858679	0.629737	-0.015223
1353	6.7600e-01	-14.0723	-33.703500	0.000190	1.900447	0.643889	-0.015566
1354	6.7650e-01	-14.0707	-33.781755	-0.000191	-1.910889	-0.647427	-0.015651
1355	6.7700e-01	-14.1156	-33.852741	0.000173	1.733375	0.587283	-0.014197
1356	6.7750e-01	-14.1991	-33.930141	0.000189	1.890005	0.640351	-0.015480
1357	6.7800e-01	-14.2183	-34.003693	0.000180	1.796027	0.608510	-0.014710
1358	6.7850e-01	-14.2664	-34.075961	0.000176	1.764701	0.597897	-0.014454
1359	6.7900e-01	-14.2953	-34.153789	0.000190	1.900447	0.643889	-0.015566
1360	6.7950e-01	-14.3194	-34.226486	0.000178	1.775143	0.601435	-0.014539
1361	6.8000e-01	-14.3659	-34.299609	0.000179	1.785585	0.604973	-0.014625
1362	6.8050e-01	-14.4413	-34.375299	0.000185	1.848237	0.626200	-0.015138
1363	6.8100e-01	-14.4557	-34.450561	0.000184	1.837795	0.622662	-0.015052
1364	6.8150e-01	-14.5103	-34.521547	0.000173	1.733375	0.587283	-0.014197
1365	6.8200e-01	-14.5376	-34.599802	0.000191	1.910889	0.647427	-0.015651
1366	6.8250e-01	-14.5648	-34.675920	0.000186	1.858679	0.629737	-0.015223
1367	6.8300e-01	-14.6130	-34.747333	0.000174	1.743817	0.590821	-0.014283
1368	6.8350e-01	-14.6466	-34.824306	0.000188	1.879563	0.636813	-0.015395
1369	6.8400e-01	-14.7413	-34.902989	0.000192	1.921331	0.650965	-0.015737
1370	6.8450e-01	-14.7333	-34.973975	-0.000173	-1.733375	-0.587283	-0.014197
1371	6.8500e-01	-14.7910	-35.048381	0.000182	1.816911	0.615586	-0.014881
1372	6.8550e-01	-14.8359	-35.121933	0.000180	1.796027	0.608510	-0.014710
1373	6.8600e-01	-14.8472	-35.206603	0.000207	2.067519	0.700495	-0.016934
1374	6.8650e-01	-14.8761	-35.274167	0.000165	1.649839	0.558980	-0.013513
1375	6.8700e-01	-14.9354	-35.351568	0.000189	1.890005	0.640351	-0.015480
1376	6.8750e-01	-14.9996	-35.419132	0.000165	1.649839	0.558980	-0.013513
1377	6.8800e-01	-15.0268	-35.502947	0.000205	2.046635	0.693419	-0.016763
1378	6.8850e-01	-15.0846	-35.575216	0.000176	1.764701	0.597897	-0.014454
1379	6.8900e-01	-15.0846	-35.648340	0.000179	1.785585	0.604973	-0.014625
1380	6.8950e-01	-15.1295	-35.722746	0.000182	1.816911	0.615586	-0.014881
1381	6.9000e-01	-15.1664	-35.794587	0.000175	1.754259	0.594359	-0.014368
1382	6.9050e-01	-15.2306	-35.871132	0.000187	1.869121	0.633275	-0.015309
1383	6.9100e-01	-15.2739	-35.943829	0.000178	1.775143	0.601435	-0.014539
1384	6.9150e-01	-15.3012	-36.014387	0.000172	1.722933	0.583745	-0.014112
1385	6.9200e-01	-15.3333	-36.089649	0.000184	1.837795	0.622662	-0.015052
1386	6.9250e-01	-15.3557	-36.162345	0.000178	1.775143	0.601435	-0.014539
1387	6.9300e-01	-15.3782	-36.235041	0.000178	1.775143	0.601435	-0.014539
1388	6.9350e-01	-15.4680	-36.309876	0.000183	1.827353	0.619124	-0.014967
1389	6.9400e-01	-15.5145	-36.381289	0.000174	1.743817	0.590821	-0.014283
1390	6.9450e-01	-15.5723	-36.454841	0.000180	1.796027	0.608510	-0.014710
1391	6.9500e-01	-15.5819	-36.531813	0.000188	1.879563	0.636813	-0.015395
1392	6.9550e-01	-15.6204	-36.602372	0.000172	1.722933	0.583745	-0.014112
1393	6.9600e-01	-15.6653	-36.673785	0.000174	1.743817	0.590821	-0.014283
1394	6.9650e-01	-15.7054	-36.749475	0.000185	1.848237	0.626200	-0.015138
1395	6.9700e-01	-15.7728	-36.821743	0.000176	1.764701	0.597897	-0.014454
1396	6.9750e-01	-15.7824	-36.890591	0.000168	1.681165	0.569594	-0.013770
1397	6.9800e-01	-15.7937	-36.963715	0.000179	1.785585	0.604973	-0.014625
1398	6.9850e-01	-15.8434	-37.033845	0.000171	1.712491	0.580208	-0.014026
1399	6.9900e-01	-15.9236	-37.104831	0.000173	1.733375	0.587283	-0.014197
1400	6.9950e-01	-15.9300	-37.180093	0.000184	1.837795	0.622662	-0.015052
1401	7.0000e-01	-15.9942	-37.260487	0.000196	1.963099	0.665116	-0.016079
1402	7.0050e-01	-16.0118	-37.324203	0.000156	1.555861	0.527140	-0.012743
1403	7.0100e-01	-16.0616	-37.394761	0.000172	1.722933	0.583745	-0.014112
1404	7.0150e-01	-16.0744	-37.469596	0.000183	1.827353	0.619124	-0.014967
1405	7.0200e-01	-16.1145	-37.548279	0.000192	1.921331	0.650965	-0.015737
1406	7.0250e-01	-16.1851	-37.621830	0.000180	1.796027	0.608510	-0.014710
1407	7.0300e-01	-16.2108	-37.694954	0.000179	1.785585	0.604973	-0.014625
1408	7.0350e-01	-16.2846	-37.768933	0.000181	1.806469	0.612048	-0.014796
1409	7.0400e-01	-16.2990	-37.840774	0.000175	1.754259	0.594359	-0.014368
1410	7.0450e-01	-16.3263	-37.914754	0.000181	1.806469	0.612048	-0.014796
1411	7.0500e-01	-16.3584	-37.984456	0.000170	1.702049	0.576670	-0.013941
1412	7.0550e-01	-16.4482	-38.051166	0.000163	1.628955	0.551905	-0.013342
1413	7.0600e-01	-16.4771	-38.127283	0.000186	1.858679	0.629737	-0.015223
1414	7.0650e-01	-16.4867	-38.199552	0.000176	1.764701	0.597897	-0.014454
1415	7.0700e-01	-16.5252	-38.269255	0.000170	1.702049	0.576670	-0.013941
1416	7.0750e-01	-16.6038	-38.339813	0.000172	1.722933	0.583745	-0.014112
1417	7.0800e-01	-16.6343	-38.412937	0.000179	1.785585	0.604973	-0.014625
1418	7.0850e-01	-16.6792	-38.485633	0.000178	1.775143	0.601435	-0.014539
1419	7.0900e-01	-16.7113	-38.554053	0.000167	1.670723	0.566056	-0.013684
1420	7.0950e-01	-16.7514	-38.628460	0.000182	1.816911	0.615586	-0.014881
1421	7.1000e-01	-16.7674	-38.697735	0.000169	1.691607	0.573132	-0.013855
1422	7.1050e-01	-16.8140	-38.766583	0.000168	1.681165	0.569594	-0.013770
1423	7.1100e-01	-16.8444	-38.838424	0.000175	1.754259	0.594359	-0.014368
1424	7.1150e-01	-16.8894	-38.914114	0.000185	1.848237	0.626200	-0.015138
1425	7.1200e-01	-16.9712	-38.983817	0.000170	1.702049	0.576670	-0.013941
1426	7.1250e-01	-16.9728	-39.052664	0.000168	1.681165	0.569594	-0.013770
1427	7.1300e-01	-17.0001	-39.124505	0.000175	1.754259	0.594359	-0.014368
1428	7.1350e-01	-17.0755	-39.195919	0.000174	1.743817	0.590821	-0.014283
1429	7.1400e-01	-17.1172	-39.268188	0.000176	1.764701	0.597897	-0.014454
1430	7.1450e-01	-17.1749	-39.338318	0.000171	1.712491	0.580208	-0.014026
1431	7.1500e-01	-17.1573	-39.411442	-0.000179	-1.785585	-0.604973	-0.014625
1432	7.1550e-01	-17.2118	-39.479434	0.000166	1.660281	0.562518	-0.013598
1433	7.1600e-01	-17.2535	-39.552558	0.000179	1.785585	0.604973	-0.014625
1434	7.1650e-01	-17.2904	-39.623972	0.000174	1.743817	0.590821	-0.014283
1435	7.1700e-01	-17.3530	-39.689398	0.000160	1.597629	0.541291	-0.013085
1436	7.1750e-01	-17.3915	-39.758674	0.000169	1.691607	0.573132	-0.013855
1437	7.1800e-01	-17.3979	-39.833508	0.000183	1.827353	0.619124	-0.014967
1438	7.1850e-01	-17.4428	-39.901073	0.000165	1.649839	0.558980	-0.013513
1439	7.1900e-01	-17.4942	-39.971203	0.000171	1.712491	0.580208	-0.014026
1440	7.1950e-01	-17.5503	-40.038768	0.000165	1.649839	0.558980	-0.013513
1441	7.2000e-01	-17.5696	-40.109754	0.000173	1.733375	0.587283	-0.014197
1442	7.2050e-01	-17.6321	-40.181595	0.000175	1.754259	0.594359	-0.014368
1443	7.2100e-01	-17.6562	-40.245311	0.000156	1.555861	0.527140	-0.012743
1444	7.2150e-01	-17.7139	-40.320146	0.000183	1.827353	0.619124	-0.014967
1445	7.2200e-01	-17.7380	-40.384717	0.000158	1.576745	0.534216	-0.012914
1446	7.2250e-01	-17.7733	-40.452282	0.000165	1.649839	0.558980	-0.013513
1447	7.2300e-01	-17.7829	-40.524978	0.000178	1.775143	0.601435	-0.014539
1448	7.2350e-01	-17.8599	-40.598102	0.000179	1.785585	0.604973	-0.014625
1449	7.2400e-01	-17.9048	-40.664384	0.000162	1.618513	0.548367	-0.013256
1450	7.2450e-01	-17.9498	-40.735370	0.000173	1.733375	0.587283	-0.014197
1451	7.2500e-01	-17.9690	-40.805073	0.000170	1.702049	0.576670	-0.013941
1452	7.2550e-01	-17.9867	-40.877769	0.000178	1.775143	0.601435	-0.014539
1453	7.2600e-01	-18.0909	-40.946189	0.000167	1.670723	0.566056	-0.013684
1454	7.2650e-01	-18.0925	-41.014609	0.000167	1.670723	0.566056	-0.013684
1455	7.2700e-01	-18.1359	-41.089444	0.000183	1.827353	0.619124	-0.014967
1456	7.2750e-01	-18.1776	-41.160002	0.000172	1.722933	0.583745	-0.014112
1457	7.2800e-01	-18.2321	-41.226284	0.000162	1.618513	0.548367	-0.013256
1458	7.2850e-01	-18.2578	-41.302401	0.000186	1.858679	0.629737	-0.015223
1459	7.2900e-01	-18.3123	-41.370393	0.000166	1.660281	0.562518	-0.013598
1460	7.2950e-01	-18.3412	-41.437958	0.000165	1.649839	0.558980	-0.013513
1461	7.3000e-01	-18.3733	-41.511937	0.000181	1.806469	0.612048	-0.014796
1462	7.3050e-01	-18.4278	-41.583351	0.000174	1.743817	0.590821	-0.014283
1463	7.3100e-01	-18.4727	-41.655619	0.000176	1.764701	0.597897	-0.014454
1464	7.3150e-01	-18.5000	-41.721474	0.000161	1.608071	0.544829	-0.013171
1465	7.3200e-01	-18.5417	-41.790749	0.000169	1.691607	0.573132	-0.013855
1466	7.3250e-01	-18.5754	-41.864728	0.000181	1.806469	0.612048	-0.014796
1467	7.3300e-01	-18.6203	-41.932293	0.000165	1.649839	0.558980	-0.013513
1468	7.3350e-01	-18.6251	-42.004562	0.000176	1.764701	0.597897	-0.014454
1469	7.3400e-01	-18.6973	-42.073837	0.000169	1.691607	0.573132	-0.013855
1470	7.3450e-01	-18.7390	-42.140974	0.000164	1.639397	0.555443	-0.013427
1471	7.3500e-01	-18.7711	-42.214953	0.000181	1.806469	0.612048	-0.014796
1472	7.3550e-01	-18.8449	-42.289360	0.000182	1.816911	0.615586	-0.014881
1473	7.3600e-01	-18.8417	-42.356070	-0.000163	-1.628955	-0.551905	-0.013342
1474	7.3650e-01	-18.8866	-42.426200	0.000171	1.712491	0.580208	-0.014026
1475	7.3700e-01	-18.9155	-42.495903	0.000170	1.702049	0.576670	-0.013941
1476	7.3750e-01	-18.9813	-42.569027	0.000179	1.785585	0.604973	-0.014625
1477	7.3800e-01	-19.0166	-42.637875	0.000168	1.681165	0.569594	-0.013770
1478	7.3850e-01	-19.0342	-42.703729	0.000161	1.608071	0.544829	-0.013171
1479	7.3900e-01	-19.1176	-42.772577	0.000168	1.681165	0.569594	-0.013770
1480	7.3950e-01	-19.1449	-42.841852	0.000169	1.691607	0.573132	-0.013855
1481	7.4000e-01	-19.2075	-42.910700	0.000168	1.681165	0.569594	-0.013770
1482	7.4050e-01	-19.1882	-42.987245	-0.000187	-1.869121	-0.633275	-0.015309
1483	7.4100e-01	-19.2716	-43.050105	0.000153	1.534976	0.520064	-0.012572
1484	7.4150e-01	-19.3069	-43.127078	0.000188	1.879563	0.636813	-0.015395
1485	7.4200e-01	-19.3118	-43.198919	0.000175	1.754259	0.594359	-0.014368
1486	7.4250e-01	-19.3679	-43.266911	0.000166	1.660281	0.562518	-0.013598
1487	7.4300e-01	-19.4273	-43.337897	0.000173	1.733375	0.587283	-0.014197
1488	7.4350e-01	-19.4545	-43.408028	0.000171	1.712491	0.580208	-0.014026
1489	7.4400e-01	-19.5219	-43.480724	0.000178	1.775143	0.601435	-0.014539
1490	7.4450e-01	-19.5636	-43.549572	0.000168	1.681165	0.569594	-0.013770
1491	7.4500e-01	-19.6134	-43.625261	0.000185	1.848237	0.626200	-0.015138
1492	7.4550e-01	-19.5845	-43.695820	-0.000172	-1.722933	-0.583745	-0.014112
1493	7.4600e-01	-19.6583	-43.763812	0.000166	1.660281	0.562518	-0.013598
1494	7.4650e-01	-19.6968	-43.835225	0.000174	1.743817	0.590821	-0.014283
1495	7.4700e-01	-19.7208	-43.905784	0.000172	1.722933	0.583745	-0.014112
1496	7.4750e-01	-19.7738	-43.974204	0.000167	1.670723	0.566056	-0.013684
1497	7.4800e-01	-19.8107	-44.041768	0.000165	1.649839	0.558980	-0.013513
1498	7.4850e-01	-19.8620	-44.111471	0.000170	1.702049	0.576670	-0.013941
1499	7.4900e-01	-19.8989	-44.177326	0.000161	1.608071	0.544829	-0.013171
1500	7.4950e-01	-19.9583	-44.257719	0.000196	1.963099	0.665116	-0.016079
1501	7.5000e-01	-19.9711	-44.335119	0.000189	1.890005	0.640351	-0.015480
1502	7.5050e-01	-19.9198	-44.403112	-0.000166	-1.660281	-0.562518	-0.013598
1503	7.5100e-01	-19.8716	-44.453144	-0.000122	-1.221716	-0.413929	-0.010006
1504	7.5150e-01	-19.8620	-44.501038	-0.000117	-1.169506	-0.396239	-0.009579
1505	7.5200e-01	-19.8026	-44.539524	-0.000094	-0.939782	-0.318407	-0.007697
1506	7.5250e-01	-19.7545	-44.566892	-0.000067	-0.668289	-0.226422	-0.005474
1507	7.5300e-01	-19.7144	-44.585708	-0.000046	-0.459449	-0.155665	-0.003763
1508	7.5350e-01	-19.6358	-44.610938	-0.000062	-0.616079	-0.208733	-0.005046
1509	7.5400e-01	-19.6214	-44.623339	-0.000030	-0.302818	-0.102598	-0.002480
1510	7.5450e-01	-19.5620	-44.628898	-0.000014	-0.135746	-0.045992	-0.001112
1511	7.5500e-01	-19.5476	-44.630608	-0.000004	-0.041768	-0.014151	-0.000342
1512	7.5550e-01	-19.5187	-44.626332	0.000010	0.104420	0.035379	0.000855
1513	7.5600e-01	-19.4529	-44.622056	0.000010	0.104420	0.035379	0.000855
1514	7.5650e-01	-19.4241	-44.614786	0.000018	0.177514	0.060143	0.001454
1515	7.5700e-01	-19.3984	-44.597254	0.000043	0.428123	0.145052	0.003507
1516	7.5750e-01	-19.3438	-44.583570	0.000033	0.334145	0.113211	0.002737
1517	7.5800e-01	-19.3005	-44.559623	0.000058	0.584753	0.198120	0.004789
1518	7.5850e-01	-19.3166	-44.541662	-0.000044	-0.438565	-0.148590	0.003592
1519	7.5900e-01	-19.2299	-44.518998	0.000055	0.553427	0.187506	0.004533
1520	7.5950e-01	-19.1706	-44.498472	0.000050	0.501217	0.169817	0.004105
1521	7.6000e-01	-19.1610	-44.465545	0.000080	0.804035	0.272415	0.006585
1522	7.6050e-01	-19.0984	-44.438605	0.000066	0.657847	0.222885	0.005388
1523	7.6100e-01	-19.0615	-44.408671	0.000073	0.730941	0.247650	0.005987
1524	7.6150e-01	-19.0310	-44.378310	0.000074	0.741383	0.251187	0.006072
1525	7.6200e-01	-19.0021	-44.339396	0.000095	0.950224	0.321944	0.007783
1526	7.6250e-01	-18.9829	-44.303048	0.000089	0.887571	0.300717	0.007270
1527	7.6300e-01	-18.9476	-44.268837	0.000084	0.835361	0.283028	0.006842
1528	7.6350e-01	-18.8866	-44.223937	0.000110	1.096412	0.371474	0.008980
1529	7.6400e-01	-18.8257	-44.192720	0.000076	0.762267	0.258263	0.006243
1530	7.6450e-01	-18.8112	-44.144399	0.000118	1.179948	0.399777	0.009664
1531	7.6500e-01	-18.7551	-44.100353	0.000108	1.075528	0.364399	0.008809
1532	7.6550e-01	-18.7086	-44.057591	0.000104	1.044202	0.353785	0.008553
1533	7.6600e-01	-18.6877	-44.013118	0.000109	1.085970	0.367937	0.008895
1534	7.6650e-01	-18.6364	-43.968645	0.000109	1.085970	0.367937	0.008895
1535	7.6700e-01	-18.5995	-43.917330	0.000125	1.253042	0.424542	0.010263
1536	7.6750e-01	-18.5562	-43.872429	0.000110	1.096412	0.371474	0.008980
1537	7.6800e-01	-18.5321	-43.823252	0.000120	1.200832	0.406853	0.009835
1538	7.6850e-01	-18.4647	-43.770226	0.000129	1.294810	0.438694	0.010605
1539	7.6900e-01	-18.4022	-43.719339	0.000124	1.242600	0.421004	0.010177
1540	7.6950e-01	-18.4086	-43.665886	-0.000131	-1.305252	-0.442231	0.010691
1541	7.7000e-01	-18.3524	-43.612005	0.000132	1.315694	0.445769	0.010776
1542	7.7050e-01	-18.3219	-43.558124	0.000132	1.315694	0.445769	0.010776
1543	7.7100e-01	-18.2834	-43.506382	0.000126	1.263484	0.428080	0.010349
1544	7.7150e-01	-18.2369	-43.449935	0.000138	1.378346	0.466996	0.011289
1545	7.7200e-01	-18.2369	-43.401186	-0.000119	-1.190390	-0.403315	0.009750
1546	7.7250e-01	-18.1487	-43.343456	0.000141	1.409672	0.477610	0.011546
1547	7.7300e-01	-18.1038	-43.289148	0.000133	1.326136	0.449307	0.010862
1548	7.7350e-01	-18.0717	-43.231846	0.000140	1.399230	0.474072	0.011460
1549	7.7400e-01	-18.0316	-43.178393	0.000131	1.305252	0.442231	0.010691
1550	7.7450e-01	-17.9818	-43.120236	0.000142	1.420114	0.481148	0.011631
1551	7.7500e-01	-17.9385	-43.065928	0.000133	1.326136	0.449307	0.010862
1552	7.7550e-01	-17.9081	-43.004350	0.000150	1.503650	0.509451	0.012316
1553	7.7600e-01	-17.8856	-42.947903	0.000138	1.378346	0.466996	0.011289
1554	7.7650e-01	-17.8343	-42.887180	0.000148	1.482766	0.502375	0.012145
1555	7.7700e-01	-17.8230	-42.831589	0.000136	1.357462	0.459921	0.011118
1556	7.7750e-01	-17.7797	-42.772149	0.000145	1.451440	0.491761	0.011888
1557	7.7800e-01	-17.6642	-42.711426	0.000148	1.482766	0.502375	0.012145
1558	7.7850e-01	-17.6466	-42.654980	0.000138	1.378346	0.466996	0.011289
1559	7.7900e-01	-17.6161	-42.595540	0.000145	1.451440	0.491761	0.011888
1560	7.7950e-01	-17.6032	-42.533107	0.000152	1.524534	0.516526	0.012487
1561	7.8000e-01	-17.5583	-42.477943	0.000135	1.347020	0.456383	0.011033
1562	7.8050e-01	-17.5038	-42.413371	0.000158	1.576745	0.534216	0.012914
1563	7.8100e-01	-17.4621	-42.356070	0.000140	1.399230	0.474072	0.011460
1564	7.8150e-01	-17.4332	-42.294919	0.000149	1.493208	0.505913	0.012230
1565	7.8200e-01	-17.3963	-42.234196	0.000148	1.482766	0.502375	0.012145
1566	7.8250e-01	-17.3402	-42.177322	0.000139	1.388788	0.470534	0.011375
1567	7.8300e-01	-17.3241	-42.117455	0.000146	1.461882	0.495299	0.011974
1568	7.8350e-01	-17.2744	-42.061863	0.000136	1.357462	0.459921	0.011118
1569	7.8400e-01	-17.2503	-41.998575	0.000155	1.545419	0.523602	0.012658
1570	7.8450e-01	-17.1910	-41.938280	0.000147	1.472324	0.498837	0.012059
1571	7.8500e-01	-17.1589	-41.877557	0.000148	1.482766	0.502375	0.012145
1572	7.8550e-01	-17.0995	-41.817689	0.000146	1.461882	0.495299	0.011974
1573	7.8600e-01	-17.0642	-41.759105	0.000143	1.430556	0.484686	0.011717
1574	7.8650e-01	-17.0514	-41.693250	0.000161	1.608071	0.544829	0.013171
1575	7.8700e-01	-17.0049	-41.627396	0.000161	1.608071	0.544829	0.013171
1576	7.8750e-01	-16.9503	-41.571377	0.000137	1.367904	0.463458	0.011204
1577	7.8800e-01	-16.9022	-41.509799	0.000150	1.503650	0.509451	0.012316
1578	7.8850e-01	-16.8589	-41.446938	0.000153	1.534976	0.520064	0.012572
1579	7.8900e-01	-16.8605	-41.384933	-0.000151	-1.514092	-0.512988	0.012401
1580	7.8950e-01	-16.7915	-41.325065	0.000146	1.461882	0.495299	0.011974
1581	7.9000e-01	-16.7690	-41.259211	0.000161	1.608071	0.544829	0.013171
1582	7.9050e-01	-16.6969	-41.201481	0.000141	1.409672	0.477610	0.011546
1583	7.9100e-01	-16.6888	-41.126219	0.000184	1.837795	0.622662	0.015052
1584	7.9150e-01	-16.6375	-41.061648	0.000158	1.576745	0.534216	0.012914
1585	7.9200e-01	-16.6070	-41.006057	0.000136	1.357462	0.459921	0.011118
1586	7.9250e-01	-16.5412	-40.949610	0.000138	1.378346	0.466996	0.011289
1587	7.9300e-01	-16.5043	-40.891881	0.000141	1.409672	0.477610	0.011546
1588	7.9350e-01	-16.4867	-40.834151	0.000141	1.409672	0.477610	0.011546
1589	7.9400e-01	-16.4289	-40.771290	0.000153	1.534976	0.520064	0.012572
1590	7.9450e-01	-16.3760	-40.715271	0.000137	1.367904	0.463458	0.011204
1591	7.9500e-01	-16.3680	-40.651128	0.000157	1.566303	0.530678	0.012829
1592	7.9550e-01	-16.3150	-40.579287	0.000175	1.754259	0.594359	0.014368
1593	7.9600e-01	-16.2589	-40.522840	0.000138	1.378346	0.466996	0.011289
1594	7.9650e-01	-16.2380	-40.464255	0.000143	1.430556	0.484686	0.011717
1595	7.9700e-01	-16.2108	-40.398829	0.000160	1.597629	0.541291	0.013085
1596	7.9750e-01	-16.1370	-40.335540	0.000155	1.545419	0.523602	0.012658
1597	7.9800e-01	-16.1065	-40.274817	0.000148	1.482766	0.502375	0.012145
1598	7.9850e-01	-16.1113	-40.212812	-0.000151	-1.514092	-0.512988	0.012401
1599	7.9900e-01	-16.0552	-40.150806	0.000151	1.514092	0.512988	0.012401
1600	7.9950e-01	-16.0118	-40.090939	0.000146	1.461882	0.495299	0.011974
1601	8.0000e-01	-15.9573	-40.024229	0.000163	1.628955	0.551905	0.013342
1602	8.0050e-01	-15.8899	-39.961796	0.000152	1.524534	0.516526	0.012487
1603	8.0100e-01	-15.8530	-39.897652	0.000157	1.566303	0.530678	0.012829
1604	8.0150e-01	-15.8322	-39.842061	0.000136	1.357462	0.459921	0.011118
1605	8.0200e-01	-15.7937	-39.771930	0.000171	1.712491	0.580208	0.014026
1606	8.0250e-01	-15.7471	-39.703510	0.000167	1.670723	0.566056	0.013684
1607	8.0300e-01	-15.7070	-39.628676	0.000183	1.827353	0.619124	0.014967
1608	8.0350e-01	-15.6734	-39.559400	0.000169	1.691607	0.573132	0.013855
1609	8.0400e-01	-15.6509	-39.477296	0.000200	2.004867	0.679267	0.016421
1610	8.0450e-01	-15.5996	-39.396903	0.000196	1.963099	0.665116	0.016079
1611	8.0500e-01	-15.5562	-39.320785	0.000186	1.858679	0.629737	0.015223
1612	8.0550e-01	-15.5306	-39.241675	0.000193	1.931773	0.654502	0.015822
1613	8.0600e-01	-15.4760	-39.169406	0.000176	1.764701	0.597897	0.014454
1614	8.0650e-01	-15.4183	-39.099703	0.000170	1.702049	0.576670	0.013941
1615	8.0700e-01	-15.3814	-39.028290	0.000174	1.743817	0.590821	0.014283
1616	8.0750e-01	-15.3349	-38.971416	0.000139	1.388788	0.470534	0.011375
1617	8.0800e-01	-15.3317	-38.901713	0.000170	1.702049	0.576670	0.013941
1618	8.0850e-01	-15.2627	-38.838424	0.000155	1.545419	0.523602	0.012658
1619	8.0900e-01	-15.2178	-38.769149	0.000169	1.691607	0.573132	0.013855
1620	8.0950e-01	-15.1809	-38.703295	0.000161	1.608071	0.544829	0.013171
1621	8.1000e-01	-15.1728	-38.631453	0.000175	1.754259	0.594359	0.014368
1622	8.1050e-01	-15.1247	-38.562606	0.000168	1.681165	0.569594	0.013770
1623	8.1100e-01	-15.0477	-38.492475	0.000171	1.712491	0.580208	0.014026
1624	8.1150e-01	-15.0060	-38.427049	0.000160	1.597629	0.541291	0.013085
1625	8.1200e-01	-14.9835	-38.359911	0.000164	1.639397	0.555443	0.013427
1626	8.1250e-01	-14.9338	-38.301327	0.000143	1.430556	0.484686	0.011717
1627	8.1300e-01	-14.9129	-38.231196	0.000171	1.712491	0.580208	0.014026
1628	8.1350e-01	-14.8552	-38.161921	0.000169	1.691607	0.573132	0.013855
1629	8.1400e-01	-14.8504	-38.089225	0.000178	1.775143	0.601435	0.014539
1630	8.1450e-01	-14.7686	-38.024653	0.000158	1.576745	0.534216	0.012914
1631	8.1500e-01	-14.7493	-37.953667	0.000173	1.733375	0.587283	0.014197
1632	8.1550e-01	-14.7012	-37.887386	0.000162	1.618513	0.548367	0.013256
1633	8.1600e-01	-14.6627	-37.812123	0.000184	1.837795	0.622662	0.015052
1634	8.1650e-01	-14.6130	-37.747980	0.000157	1.566303	0.530678	0.012829
1635	8.1700e-01	-14.5889	-37.681270	0.000163	1.628955	0.551905	0.013342
1636	8.1750e-01	-14.5488	-37.614561	0.000163	1.628955	0.551905	0.013342
1637	8.1800e-01	-14.5424	-37.550417	0.000157	1.566303	0.530678	0.012829
1638	8.1850e-01	-14.4557	-37.491832	0.000143	1.430556	0.484686	0.011717
1639	8.1900e-01	-14.4092	-37.422557	0.000169	1.691607	0.573132	0.013855
1640	8.1950e-01	-14.3964	-37.355420	0.000164	1.639397	0.555443	0.013427
1641	8.2000e-01	-14.3434	-37.282296	0.000179	1.785585	0.604973	0.014625
1642	8.2050e-01	-14.3178	-37.207889	0.000182	1.816911	0.615586	0.014881
1643	8.2100e-01	-14.2745	-37.142890	0.000159	1.587187	0.537753	0.013000
1644	8.2150e-01	-14.2376	-37.069338	0.000180	1.796027	0.608510	0.014710
1645	8.2200e-01	-14.1670	-36.999635	0.000170	1.702049	0.576670	0.013941
1646	8.2250e-01	-14.1397	-36.929933	0.000170	1.702049	0.576670	0.013941
1647	8.2300e-01	-14.1140	-36.859802	0.000171	1.712491	0.580208	0.014026
1648	8.2350e-01	-14.0322	-36.791810	0.000166	1.660281	0.562518	0.013598
1649	8.2400e-01	-14.0515	-36.717403	-0.000182	-1.816911	-0.615586	0.014881
1650	8.2450e-01	-13.9905	-36.653259	0.000157	1.566303	0.530678	0.012829
1651	8.2500e-01	-13.9392	-36.587405	0.000161	1.608071	0.544829	0.013171
1652	8.2550e-01	-13.8991	-36.526682	0.000148	1.482766	0.502375	0.012145
1653	8.2600e-01	-13.8622	-36.458689	0.000166	1.660281	0.562518	0.013598
1654	8.2650e-01	-13.7916	-36.389842	0.000168	1.681165	0.569594	0.013770
1655	8.2700e-01	-13.8076	-36.315007	-0.000183	-1.827353	-0.619124	0.014967
1656	8.2750e-01	-13.7386	-36.247015	0.000166	1.660281	0.562518	0.013598
1657	8.2800e-01	-13.7386	-36.171325	-0.000185	-1.848237	-0.626200	0.015138
1658	8.2850e-01	-13.6633	-36.083662	0.000214	2.140613	0.725259	0.017533
1659	8.2900e-01	-13.6472	-36.004551	0.000193	1.931773	0.654502	0.015822
1660	8.2950e-01	-13.5943	-35.929289	0.000184	1.837795	0.622662	0.015052
1661	8.3000e-01	-13.5445	-35.852317	0.000188	1.879563	0.636813	0.015395
1662	8.3050e-01	-13.5205	-35.773634	0.000192	1.921331	0.650965	0.015737
1663	8.3100e-01	-13.4707	-35.700082	0.000180	1.796027	0.608510	0.014710
1664	8.3150e-01	-13.4082	-35.625675	0.000182	1.816911	0.615586	0.014881
1665	8.3200e-01	-13.3937	-35.549558	0.000186	1.858679	0.629737	0.015223
1666	8.3250e-01	-13.3697	-35.470020	0.000194	1.942215	0.658040	0.015908
1667	8.3300e-01	-13.2959	-35.397751	0.000176	1.764701	0.597897	0.014454
1668	8.3350e-01	-13.2750	-35.319068	0.000192	1.921331	0.650965	0.015737
1669	8.3400e-01	-13.2413	-35.252359	0.000163	1.628955	0.551905	0.013342
1670	8.3450e-01	-13.1691	-35.183939	0.000167	1.670723	0.566056	0.013684
1671	8.3500e-01	-13.1419	-35.109532	0.000182	1.816911	0.615586	0.014881
1672	8.3550e-01	-13.1018	-35.036408	0.000179	1.785585	0.604973	0.014625
1673	8.3600e-01	-13.0745	-34.961146	0.000184	1.837795	0.622662	0.015052
1674	8.3650e-01	-13.0119	-34.898712	0.000152	1.524534	0.516526	0.012487
1675	8.3700e-01	-12.9911	-34.830720	0.000166	1.660281	0.562518	0.013598
1676	8.3750e-01	-12.9317	-34.762728	0.000166	1.660281	0.562518	0.013598
1677	8.3800e-01	-12.9157	-34.692169	0.000172	1.722933	0.583745	0.014112
1678	8.3850e-01	-12.8740	-34.620328	0.000175	1.754259	0.594359	0.014368
1679	8.3900e-01	-12.8836	-34.546777	-0.000180	-1.796027	-0.608510	0.014710
1680	8.3950e-01	-12.8034	-34.476219	0.000172	1.722933	0.583745	0.014112
1681	8.4000e-01	-12.7761	-34.406943	0.000169	1.691607	0.573132	0.013855
1682	8.4050e-01	-12.7328	-34.329543	0.000189	1.890005	0.640351	0.015480
1683	8.4100e-01	-12.6654	-34.257275	0.000176	1.764701	0.597897	0.014454
1684	8.4150e-01	-12.6478	-34.188427	0.000168	1.681165	0.569594	0.013770
1685	8.4200e-01	-12.5820	-34.137112	0.000125	1.253042	0.424542	0.010263
1686	8.4250e-01	-12.5355	-34.080238	0.000139	1.388788	0.470534	0.011375
1687	8.4300e-01	-12.4761	-34.026785	0.000131	1.305252	0.442231	0.010691
1688	8.4350e-01	-12.4745	-33.966062	0.000148	1.482766	0.502375	0.012145
1689	8.4400e-01	-12.4312	-33.909615	0.000138	1.378346	0.466996	0.011289
1690	8.4450e-01	-12.4103	-33.851031	0.000143	1.430556	0.484686	0.011717
1691	8.4500e-01	-12.3349	-33.792874	0.000142	1.420114	0.481148	0.011631
1692	8.4550e-01	-12.2948	-33.730013	0.000153	1.534976	0.520064	0.012572
1693	8.4600e-01	-12.2692	-33.670145	0.000146	1.461882	0.495299	0.011974
1694	8.4650e-01	-12.2387	-33.611988	0.000142	1.420114	0.481148	0.011631
1695	8.4700e-01	-12.1874	-33.550410	0.000150	1.503650	0.509451	0.012316
1696	8.4750e-01	-12.1392	-33.484128	0.000162	1.618513	0.548367	0.013256
1697	8.4800e-01	-12.1087	-33.426826	0.000140	1.399230	0.474072	0.011460
1698	8.4850e-01	-12.0590	-33.358406	0.000167	1.670723	0.566056	0.013684
1699	8.4900e-01	-12.0285	-33.292552	0.000161	1.608071	0.544829	0.013171
1700	8.4950e-01	-12.0045	-33.228836	0.000156	1.555861	0.527140	0.012743
1701	8.5000e-01	-11.9419	-33.161699	0.000164	1.639397	0.555443	0.013427
1702	8.5050e-01	-11.9130	-33.091568	0.000171	1.712491	0.580208	0.014026
1703	8.5100e-01	-11.8729	-33.029562	0.000151	1.514092	0.512988	0.012401
1704	8.5150e-01	-11.8408	-32.959004	0.000172	1.722933	0.583745	0.014112
1705	8.5200e-01	-11.7767	-32.890157	0.000168	1.681165	0.569594	0.013770
1706	8.5250e-01	-11.7638	-32.823875	0.000162	1.618513	0.548367	0.013256
1707	8.5300e-01	-11.7221	-32.755882	0.000166	1.660281	0.562518	0.013598
1708	8.5350e-01	-11.6596	-32.688317	0.000165	1.649839	0.558980	0.013513
1709	8.5400e-01	-11.6355	-32.624174	0.000157	1.566303	0.530678	0.012829
1710	8.5450e-01	-11.5842	-32.551050	0.000179	1.785585	0.604973	0.014625
1711	8.5500e-01	-11.5537	-32.481347	0.000170	1.702049	0.576670	0.013941
1712	8.5550e-01	-11.5007	-32.415493	0.000161	1.608071	0.544829	0.013171
1713	8.5600e-01	-11.4590	-32.343651	0.000175	1.754259	0.594359	0.014368
1714	8.5650e-01	-11.4125	-32.277370	0.000162	1.618513	0.548367	0.013256
1715	8.5700e-01	-11.4109	-32.205528	0.000175	1.754259	0.594359	0.014368
1716	8.5750e-01	-11.3532	-32.134543	0.000173	1.733375	0.587283	0.014197
1717	8.5800e-01	-11.3291	-32.063129	0.000174	1.743817	0.590821	0.014283
1718	8.5850e-01	-11.2585	-31.991716	0.000174	1.743817	0.590821	0.014283
1719	8.5900e-01	-11.2168	-31.922441	0.000169	1.691607	0.573132	0.013855
1720	8.5950e-01	-11.1815	-31.848889	0.000180	1.796027	0.608510	0.014710
1721	8.6000e-01	-11.1446	-31.777903	0.000173	1.733375	0.587283	0.014197
1722	8.6050e-01	-11.1478	-31.699648	-0.000191	-1.910889	-0.647427	0.015651
1723	8.6100e-01	-11.0724	-31.630800	0.000168	1.681165	0.569594	0.013770
1724	8.6150e-01	-11.0147	-31.558959	0.000175	1.754259	0.594359	0.014368
1725	8.6200e-01	-10.9970	-31.487973	0.000173	1.733375	0.587283	0.014197
1726	8.6250e-01	-10.9377	-31.415277	0.000178	1.775143	0.601435	0.014539
1727	8.6300e-01	-10.9040	-31.343864	0.000174	1.743817	0.590821	0.014283
1728	8.6350e-01	-10.8735	-31.269884	0.000181	1.806469	0.612048	0.014796
1729	8.6400e-01	-10.8446	-31.200609	0.000169	1.691607	0.573132	0.013855
1730	8.6450e-01	-10.8045	-31.123637	0.000188	1.879563	0.636813	0.015395
1731	8.6500e-01	-10.7403	-31.048375	0.000184	1.837795	0.622662	0.015052
1732	8.6550e-01	-10.7211	-30.977389	0.000173	1.733375	0.587283	0.014197
1733	8.6600e-01	-10.6457	-30.908969	0.000167	1.670723	0.566056	0.013684
1734	8.6650e-01	-10.6168	-30.833707	0.000184	1.837795	0.622662	0.015052
1735	8.6700e-01	-10.5911	-30.755451	0.000191	1.910889	0.647427	0.015651
1736	8.6750e-01	-10.5607	-30.685321	0.000171	1.712491	0.580208	0.014026
1737	8.6800e-01	-10.5045	-30.606638	0.000192	1.921331	0.650965	0.015737
1738	8.6850e-01	-10.4724	-30.531803	0.000183	1.827353	0.619124	0.014967
1739	8.6900e-01	-10.4259	-30.461245	0.000172	1.722933	0.583745	0.014112
1740	8.6950e-01	-10.3890	-30.385555	0.000185	1.848237	0.626200	0.015138
1741	8.7000e-01	-10.3714	-30.312859	0.000178	1.775143	0.601435	0.014539
1742	8.7050e-01	-10.2992	-30.243156	0.000170	1.702049	0.576670	0.013941
1743	8.7100e-01	-10.2366	-30.166184	0.000188	1.879563	0.636813	0.015395
1744	8.7150e-01	-10.2109	-30.087501	0.000192	1.921331	0.650965	0.015737
1745	8.7200e-01	-10.1676	-30.011811	0.000185	1.848237	0.626200	0.015138
1746	8.7250e-01	-10.1259	-29.940397	0.000174	1.743817	0.590821	0.014283
1747	8.7300e-01	-10.1243	-29.869412	0.000173	1.733375	0.587283	0.014197
1748	8.7350e-01	-10.0714	-29.787735	0.000199	1.994425	0.675730	0.016335
1749	8.7400e-01	-10.0393	-29.714611	0.000179	1.785585	0.604973	0.014625
1750	8.7450e-01	-9.9751	-29.638066	0.000187	1.869121	0.633275	0.015309
1751	8.7500e-01	-9.9639	-29.559811	0.000191	1.910889	0.647427	0.015651
1752	8.7550e-01	-9.9093	-29.487542	0.000176	1.764701	0.597897	0.014454
1753	8.7600e-01	-9.8981	-29.414846	0.000178	1.775143	0.601435	0.014539
1754	8.7650e-01	-9.8083	-29.343005	0.000175	1.754259	0.594359	0.014368
1755	8.7700e-01	-9.7730	-29.260046	0.000203	2.025751	0.686343	0.016592
1756	8.7750e-01	-9.7634	-29.182645	0.000189	1.890005	0.640351	0.015480
1757	8.7800e-01	-9.7200	-29.106956	0.000185	1.848237	0.626200	0.015138
1758	8.7850e-01	-9.6751	-29.031266	0.000185	1.848237	0.626200	0.015138
1759	8.7900e-01	-9.6238	-28.960280	0.000173	1.733375	0.587283	0.014197
1760	8.7950e-01	-9.6110	-28.886729	0.000180	1.796027	0.608510	0.014710
1761	8.8000e-01	-9.5324	-28.809329	0.000189	1.890005	0.640351	0.015480
1762	8.8050e-01	-9.4922	-28.730218	0.000193	1.931773	0.654502	0.015822
1763	8.8100e-01	-9.4650	-28.652818	0.000189	1.890005	0.640351	0.015480
1764	8.8150e-01	-9.4489	-28.580977	0.000175	1.754259	0.594359	0.014368
1765	8.8200e-01	-9.3864	-28.502721	0.000191	1.910889	0.647427	0.015651
1766	8.8250e-01	-9.3431	-28.427459	0.000184	1.837795	0.622662	0.015052
1767	8.8300e-01	-9.2885	-28.350059	0.000189	1.890005	0.640351	0.015480
1768	8.8350e-01	-9.2404	-28.270948	0.000193	1.931773	0.654502	0.015822
1769	8.8400e-01	-9.2259	-28.193976	0.000188	1.879563	0.636813	0.015395
1770	8.8450e-01	-9.1906	-28.117003	0.000188	1.879563	0.636813	0.015395
1771	8.8500e-01	-9.1361	-28.037037	0.000195	1.952657	0.661578	0.015993
1772	8.8550e-01	-9.1169	-27.967334	0.000170	1.702049	0.576670	0.013941
1773	8.8600e-01	-9.0623	-27.905756	0.000150	1.503650	0.509451	0.012316
1774	8.8650e-01	-9.0142	-27.853586	0.000127	1.273926	0.431618	0.010434
1775	8.8700e-01	-8.9821	-27.803982	0.000121	1.211274	0.410391	0.009921
1776	8.8750e-01	-8.9420	-27.753522	0.000123	1.232158	0.417466	0.010092
1777	8.8800e-01	-8.9131	-27.690661	0.000153	1.534976	0.520064	0.012572
1778	8.8850e-01	-8.8602	-27.632931	0.000141	1.409672	0.477610	0.011546
1779	8.8900e-01	-8.8457	-27.576485	0.000138	1.378346	0.466996	0.011289
1780	8.8950e-01	-8.7784	-27.514907	0.000150	1.503650	0.509451	0.012316
1781	8.9000e-01	-8.7639	-27.449908	0.000159	1.587187	0.537753	0.013000
1782	8.9050e-01	-8.7158	-27.388757	0.000149	1.493208	0.505913	0.012230
1783	8.9100e-01	-8.6773	-27.323331	0.000160	1.597629	0.541291	0.013085
1784	8.9150e-01	-8.6308	-27.263463	0.000146	1.461882	0.495299	0.011974
1785	8.9200e-01	-8.6163	-27.200602	0.000153	1.534976	0.520064	0.012572
1786	8.9250e-01	-8.5441	-27.130044	0.000172	1.722933	0.583745	0.014112
1787	8.9300e-01	-8.4976	-27.066328	0.000156	1.555861	0.527140	0.012743
1788	8.9350e-01	-8.4736	-26.999618	0.000163	1.628955	0.551905	0.013342
1789	8.9400e-01	-8.4431	-26.930343	0.000169	1.691607	0.573132	0.013855
1790	8.9450e-01	-8.3773	-26.863206	0.000164	1.639397	0.555443	0.013427
1791	8.9500e-01	-8.3597	-26.788799	0.000182	1.816911	0.615586	0.014881
1792	8.9550e-01	-8.3019	-26.719951	0.000168	1.681165	0.569594	0.013770
1793	8.9600e-01	-8.2538	-26.647255	0.000178	1.775143	0.601435	0.014539
1794	8.9650e-01	-8.2425	-26.574987	0.000176	1.764701	0.597897	0.014454
1795	8.9700e-01	-8.1896	-26.504856	0.000171	1.712491	0.580208	0.014026
1796	8.9750e-01	-8.1270	-26.437719	0.000164	1.639397	0.555443	0.013427
1797	8.9800e-01	-8.1078	-26.364167	0.000180	1.796027	0.608510	0.014710
1798	8.9850e-01	-8.0565	-26.288478	0.000185	1.848237	0.626200	0.015138
1799	8.9900e-01	-7.9971	-26.216209	0.000176	1.764701	0.597897	0.014454
1800	8.9950e-01	-8.0131	-26.140947	-0.000184	-1.837795	-0.622662	0.015052
1801	9.0000e-01	-7.9474	-26.070389	0.000172	1.722933	0.583745	0.014112
1802	9.0050e-01	-7.9025	-25.993844	0.000187	1.869121	0.633275	0.015309
1803	9.0100e-01	-7.9008	-25.916871	0.000188	1.879563	0.636813	0.015395
1804	9.0150e-01	-7.8447	-25.838188	0.000192	1.921331	0.650965	0.015737
1805	9.0200e-01	-7.7741	-25.763781	0.000182	1.816911	0.615586	0.014881
1806	9.0250e-01	-7.7244	-25.689375	0.000182	1.816911	0.615586	0.014881
1807	9.0300e-01	-7.7132	-25.616678	0.000178	1.775143	0.601435	0.014539
1808	9.0350e-01	-7.6618	-25.529870	0.000212	2.119729	0.718184	0.017362
1809	9.0400e-01	-7.6249	-25.454181	0.000185	1.848237	0.626200	0.015138
1810	9.0450e-01	-7.5752	-25.373787	0.000196	1.963099	0.665116	0.016079
1811	9.0500e-01	-7.5736	-25.298097	0.000185	1.848237	0.626200	0.015138
1812	9.0550e-01	-7.4966	-25.218559	0.000194	1.942215	0.658040	0.015908
1813	9.0600e-01	-7.4693	-25.142014	0.000187	1.869121	0.633275	0.015309
1814	9.0650e-01	-7.4228	-25.061621	0.000196	1.963099	0.665116	0.016079
1815	9.0700e-01	-7.3955	-24.985503	0.000186	1.858679	0.629737	0.015223
1816	9.0750e-01	-7.3747	-24.906393	0.000193	1.931773	0.654502	0.015822
1817	9.0800e-01	-7.3025	-24.825999	0.000196	1.963099	0.665116	0.016079
1818	9.0850e-01	-7.2640	-24.749454	0.000187	1.869121	0.633275	0.015309
1819	9.0900e-01	-7.2335	-24.671626	0.000190	1.900447	0.643889	0.015566
1820	9.0950e-01	-7.1645	-24.593371	0.000191	1.910889	0.647427	0.015651
1821	9.1000e-01	-7.1838	-24.511267	-0.000200	-2.004867	-0.679267	0.016421
1822	9.1050e-01	-7.1132	-24.430446	0.000197	1.973541	0.668654	0.016164
1823	9.1100e-01	-7.0586	-24.347059	0.000204	2.036193	0.689881	0.016677
1824	9.1150e-01	-7.0201	-24.266238	0.000197	1.973541	0.668654	0.016164
1825	9.1200e-01	-6.9896	-24.180713	0.000209	2.088403	0.707570	0.017105
1826	9.1250e-01	-6.9511	-24.102457	0.000191	1.910889	0.647427	0.015651
1827	9.1300e-01	-6.9062	-24.014366	0.000215	2.151055	0.728797	0.017618
1828	9.1350e-01	-6.8757	-23.927986	0.000211	2.109287	0.714646	0.017276
1829	9.1400e-01	-6.8180	-23.850158	0.000190	1.900447	0.643889	0.015566
1830	9.1450e-01	-6.7843	-23.768909	0.000198	1.983983	0.672192	0.016250
1831	9.1500e-01	-6.7298	-23.682957	0.000210	2.098845	0.711108	0.017191
1832	9.1550e-01	-6.7073	-23.599997	0.000203	2.025751	0.686343	0.016592
1833	9.1600e-01	-6.6560	-23.514472	0.000209	2.088403	0.707570	0.017105
1834	9.1650e-01	-6.6030	-23.427237	0.000213	2.130171	0.721722	0.017447
1835	9.1700e-01	-6.5838	-23.341284	0.000210	2.098845	0.711108	0.017191
1836	9.1750e-01	-6.5453	-23.260891	0.000196	1.963099	0.665116	0.016079
1837	9.1800e-01	-6.5308	-23.177504	0.000204	2.036193	0.689881	0.016677
1838	9.1850e-01	-6.4586	-23.089413	0.000215	2.151055	0.728797	0.017618
1839	9.1900e-01	-6.4153	-23.001750	0.000214	2.140613	0.725259	0.017533
1840	9.1950e-01	-6.4025	-22.914942	0.000212	2.119729	0.718184	0.017362
1841	9.2000e-01	-6.3576	-22.827706	0.000213	2.130171	0.721722	0.017447
1842	9.2050e-01	-6.3030	-22.742609	0.000208	2.077961	0.704032	0.017019
1843	9.2100e-01	-6.2790	-22.658367	0.000206	2.057077	0.696957	0.016848
1844	9.2150e-01	-6.2389	-22.574552	0.000205	2.046635	0.693419	0.016763
1845	9.2200e-01	-6.1972	-22.487317	0.000213	2.130171	0.721722	0.017447
1846	9.2250e-01	-6.1490	-22.400509	0.000212	2.119729	0.718184	0.017362
1847	9.2300e-01	-6.1057	-22.317122	0.000204	2.036193	0.689881	0.016677
1848	9.2350e-01	-6.0816	-22.229458	0.000214	2.140613	0.725259	0.017533
1849	9.2400e-01	-6.0447	-22.145644	0.000205	2.046635	0.693419	0.016763
1850	9.2450e-01	-6.0046	-22.066106	0.000194	1.942215	0.658040	0.015908
1851	9.2500e-01	-5.9453	-21.975877	0.000220	2.203266	0.746487	0.018046
1852	9.2550e-01	-5.9228	-21.886075	0.000219	2.192824	0.742949	0.017960
1853	9.2600e-01	-5.8731	-21.800550	0.000209	2.088403	0.707570	0.017105
1854	9.2650e-01	-5.8362	-21.714170	0.000211	2.109287	0.714646	0.017276
1855	9.2700e-01	-5.8089	-21.629928	0.000206	2.057077	0.696957	0.016848
1856	9.2750e-01	-5.7592	-21.544830	0.000208	2.077961	0.704032	0.017019
1857	9.2800e-01	-5.7014	-21.460161	0.000207	2.067519	0.700495	0.016934
1858	9.2850e-01	-5.6581	-21.365228	0.000232	2.318128	0.785403	0.018987
1859	9.2900e-01	-5.6052	-21.273716	0.000223	2.234592	0.757100	0.018302
1860	9.2950e-01	-5.5988	-21.192895	0.000197	1.973541	0.668654	0.016164
1861	9.3000e-01	-5.5442	-21.103521	0.000218	2.182382	0.739411	0.017875
1862	9.3050e-01	-5.4865	-21.010726	0.000227	2.265918	0.767714	0.018559
1863	9.3100e-01	-5.4544	-20.920070	0.000221	2.213708	0.750024	0.018131
1864	9.3150e-01	-5.4528	-20.829841	0.000220	2.203266	0.746487	0.018046
1865	9.3200e-01	-5.3854	-20.748165	0.000199	1.994425	0.675730	0.016335
1866	9.3250e-01	-5.3212	-20.653659	0.000231	2.307686	0.781865	0.018901
1867	9.3300e-01	-5.3068	-20.571555	0.000200	2.004867	0.679267	0.016421
1868	9.3350e-01	-5.2555	-20.481326	0.000220	2.203266	0.746487	0.018046
1869	9.3400e-01	-5.2282	-20.386821	0.000231	2.307686	0.781865	0.018901
1870	9.3450e-01	-5.1624	-20.299586	0.000213	2.130171	0.721722	0.017447
1871	9.3500e-01	-5.1351	-20.208074	0.000223	2.234592	0.757100	0.018302
1872	9.3550e-01	-5.0870	-20.116990	0.000222	2.224150	0.753562	0.018217
1873	9.3600e-01	-5.0726	-20.030609	0.000211	2.109287	0.714646	0.017276
1874	9.3650e-01	-5.0196	-19.935676	0.000232	2.318128	0.785403	0.018987
1875	9.3700e-01	-4.9908	-19.841599	0.000230	2.297244	0.778327	0.018816
1876	9.3750e-01	-4.9475	-19.754791	0.000212	2.119729	0.718184	0.017362
1877	9.3800e-01	-4.8769	-19.660286	0.000231	2.307686	0.781865	0.018901
1878	9.3850e-01	-4.8913	-19.572195	-0.000215	-2.151055	-0.728797	0.017618
1879	9.3900e-01	-4.8271	-19.479828	0.000226	2.255476	0.764176	0.018473
1880	9.3950e-01	-4.7918	-19.391737	0.000215	2.151055	0.728797	0.017618
1881	9.4000e-01	-4.7437	-19.303646	0.000215	2.151055	0.728797	0.017618
1882	9.4050e-01	-4.7197	-19.212562	0.000222	2.224150	0.753562	0.018217
1883	9.4100e-01	-4.6555	-19.125754	0.000212	2.119729	0.718184	0.017362
1884	9.4150e-01	-4.6330	-19.029539	0.000235	2.349454	0.796017	0.019243
1885	9.4200e-01	-4.5753	-18.938882	0.000221	2.213708	0.750024	0.018131
1886	9.4250e-01	-4.5624	-18.848225	0.000221	2.213708	0.750024	0.018131
1887	9.4300e-01	-4.5287	-18.760990	0.000213	2.130171	0.721722	0.017447
1888	9.4350e-01	-4.4758	-18.664774	0.000235	2.349454	0.796017	0.019243
1889	9.4400e-01	-4.4453	-18.577111	0.000214	2.140613	0.725259	0.017533
1890	9.4450e-01	-4.3956	-18.484316	0.000227	2.265918	0.767714	0.018559
1891	9.4500e-01	-4.3282	-18.388101	0.000235	2.349454	0.796017	0.019243
1892	9.4550e-01	-4.3058	-18.300010	0.000215	2.151055	0.728797	0.017618
1893	9.4600e-01	-4.2721	-18.203794	0.000235	2.349454	0.796017	0.019243
1894	9.4650e-01	-4.2111	-18.114848	0.000217	2.171940	0.735873	0.017789
1895	9.4700e-01	-4.2079	-18.021198	0.000229	2.286802	0.774789	0.018730
1896	9.4750e-01	-4.1453	-17.926265	0.000232	2.318128	0.785403	0.018987
1897	9.4800e-01	-4.1036	-17.835609	0.000221	2.213708	0.750024	0.018131
1898	9.4850e-01	-4.0715	-17.741959	0.000229	2.286802	0.774789	0.018730
1899	9.4900e-01	-4.0523	-17.638901	0.000252	2.516526	0.852622	0.020612
1900	9.4950e-01	-3.9801	-17.551238	0.000214	2.140613	0.725259	0.017533
1901	9.5000e-01	-3.9496	-17.455878	0.000233	2.328570	0.788941	0.019072
1902	9.5050e-01	-3.9095	-17.357096	0.000241	2.412106	0.817244	0.019756
1903	9.5100e-01	-3.8774	-17.265584	0.000223	2.234592	0.757100	0.018302
1904	9.5150e-01	-3.8197	-17.169796	0.000234	2.339012	0.792479	0.019158
1905	9.5200e-01	-3.7940	-17.072298	0.000238	2.380780	0.806630	0.019500
1906	9.5250e-01	-3.7635	-16.978648	0.000229	2.286802	0.774789	0.018730
1907	9.5300e-01	-3.7202	-16.885425	0.000228	2.276360	0.771252	0.018644
1908	9.5350e-01	-3.6753	-16.792203	0.000228	2.276360	0.771252	0.018644
1909	9.5400e-01	-3.6272	-16.699836	0.000226	2.255476	0.764176	0.018473
1910	9.5450e-01	-3.5903	-16.606186	0.000229	2.286802	0.774789	0.018730
1911	9.5500e-01	-3.5598	-16.510826	0.000233	2.328570	0.788941	0.019072
1912	9.5550e-01	-3.5004	-16.419741	0.000222	2.224150	0.753562	0.018217
1913	9.5600e-01	-3.4667	-16.317539	0.000250	2.495642	0.845546	0.020440
1914	9.5650e-01	-3.4331	-16.227738	0.000219	2.192824	0.742949	0.017960
1915	9.5700e-01	-3.3913	-16.133660	0.000230	2.297244	0.778327	0.018816
1916	9.5750e-01	-3.3192	-16.039155	0.000231	2.307686	0.781865	0.018901
1917	9.5800e-01	-3.3304	-15.947216	-0.000225	-2.245034	-0.760638	0.018388
1918	9.5850e-01	-3.2951	-15.849289	0.000239	2.391222	0.810168	0.019585
1919	9.5900e-01	-3.2277	-15.756067	0.000228	2.276360	0.771252	0.018644
1920	9.5950e-01	-3.1892	-15.661134	0.000232	2.318128	0.785403	0.018987
1921	9.6000e-01	-3.1716	-15.563208	0.000239	2.391222	0.810168	0.019585
1922	9.6050e-01	-3.1299	-15.469130	0.000230	2.297244	0.778327	0.018816
1923	9.6100e-01	-3.0689	-15.369494	0.000243	2.432990	0.824319	0.019927
1924	9.6150e-01	-3.0031	-15.271140	0.000240	2.401664	0.813706	0.019671
1925	9.6200e-01	-3.0063	-15.176635	-0.000231	-2.307686	-0.781865	0.018901
1926	9.6250e-01	-2.9069	-15.076143	0.000245	2.453874	0.831395	0.020098
1927	9.6300e-01	-2.9149	-14.975223	-0.000246	-2.464316	-0.834933	0.020184
1928	9.6350e-01	-2.8636	-14.882856	0.000226	2.255476	0.764176	0.018473
1929	9.6400e-01	-2.8636	-14.781081	-0.000249	-2.485200	-0.842009	0.020355
1930	9.6450e-01	-2.7866	-14.684866	0.000235	2.349454	0.796017	0.019243
1931	9.6500e-01	-2.7609	-14.585657	0.000242	2.422548	0.820781	0.019842
1932	9.6550e-01	-2.7063	-14.486875	0.000241	2.412106	0.817244	0.019756
1933	9.6600e-01	-2.6871	-14.386383	0.000245	2.453874	0.831395	0.020098
1934	9.6650e-01	-2.6358	-14.282043	0.000255	2.547852	0.863236	0.020868
1935	9.6700e-01	-2.5732	-14.186255	0.000234	2.339012	0.792479	0.019158
1936	9.6750e-01	-2.5251	-14.078065	0.000264	2.641830	0.895076	0.021638
1937	9.6800e-01	-2.5443	-13.978856	-0.000242	-2.422548	-0.820781	0.019842
1938	9.6850e-01	-2.4689	-13.875799	0.000252	2.516526	0.852622	0.020612
1939	9.6900e-01	-2.4705	-13.771458	-0.000255	-2.547852	-0.863236	0.020868
1940	9.6950e-01	-2.3759	-13.674387	0.000237	2.370338	0.803092	0.019414
1941	9.7000e-01	-2.3566	-13.569619	0.000256	2.558294	0.866774	0.020954
1942	9.7050e-01	-2.2892	-13.468272	0.000247	2.474758	0.838471	0.020269
1943	9.7100e-01	-2.2908	-13.360510	-0.000263	-2.631388	-0.891538	0.021552
1944	9.7150e-01	-2.1978	-13.258735	0.000249	2.485200	0.842009	0.020355
1945	9.7200e-01	-2.2138	-13.153967	-0.000256	-2.558294	-0.866774	0.020954
1946	9.7250e-01	-2.1513	-13.046633	0.000262	2.620946	0.888001	0.021467
1947	9.7300e-01	-2.1176	-12.947852	0.000241	2.412106	0.817244	0.019756
1948	9.7350e-01	-2.0582	-12.839663	0.000264	2.641830	0.895076	0.021638
1949	9.7400e-01	-2.0454	-12.736605	0.000252	2.516526	0.852622	0.020612
1950	9.7450e-01	-2.0181	-12.633120	0.000253	2.526968	0.856160	0.020697
1951	9.7500e-01	-1.9636	-12.533483	0.000243	2.432990	0.824319	0.019927
1952	9.7550e-01	-1.9058	-12.423156	0.000269	2.694040	0.912766	0.022065
1953	9.7600e-01	-1.8593	-12.321808	0.000247	2.474758	0.838471	0.020269
1954	9.7650e-01	-1.8272	-12.215757	0.000259	2.589620	0.877387	0.021210
1955	9.7700e-01	-1.7967	-12.108851	0.000261	2.610504	0.884463	0.021381
1956	9.7750e-01	-1.7663	-11.997669	0.000271	2.714924	0.919841	0.022237
1957	9.7800e-01	-1.7278	-11.895038	0.000251	2.506084	0.849084	0.020526
1958	9.7850e-01	-1.7069	-11.789415	0.000258	2.579178	0.873849	0.021125
1959	9.7900e-01	-1.6251	-11.683364	0.000259	2.589620	0.877387	0.021210
1960	9.7950e-01	-1.5930	-11.579879	0.000253	2.526968	0.856160	0.020697
1961	9.8000e-01	-1.5417	-11.469124	0.000270	2.704482	0.916303	0.022151
1962	9.8050e-01	-1.5080	-11.368204	0.000246	2.464316	0.834933	0.020184
1963	9.8100e-01	-1.4679	-11.254883	0.000277	2.767134	0.937531	0.022664
1964	9.8150e-01	-1.4342	-11.153109	0.000249	2.485200	0.842009	0.020355
1965	9.8200e-01	-1.3764	-11.049196	0.000254	2.537410	0.859698	0.020783
1966	9.8250e-01	-1.3572	-10.940579	0.000265	2.652272	0.898614	0.021723
1967	9.8300e-01	-1.3026	-10.828113	0.000275	2.746250	0.930455	0.022493
1968	9.8350e-01	-1.2545	-10.723345	0.000256	2.558294	0.866774	0.020954
1969	9.8400e-01	-1.2625	-10.610025	-0.000277	-2.767134	-0.937531	0.022664
1970	9.8450e-01	-1.2144	-10.504829	0.000257	2.568736	0.870311	0.021039
1971	9.8500e-01	-1.1470	-10.391080	0.000278	2.777577	0.941068	0.022750
1972	9.8550e-01	-1.1037	-10.285885	0.000257	2.568736	0.870311	0.021039
1973	9.8600e-01	-1.0652	-10.181972	0.000254	2.537410	0.859698	0.020783
1974	9.8650e-01	-1.0219	-10.066085	0.000283	2.829787	0.958758	0.023177
1975	9.8700e-01	-0.9786	-9.959606	0.000260	2.600062	0.880925	0.021296
1976	9.8750e-01	-0.9401	-9.850562	0.000266	2.662714	0.902152	0.021809
1977	9.8800e-01	-0.9080	-9.738097	0.000275	2.746250	0.930455	0.022493
1978	9.8850e-01	-0.8823	-9.622210	0.000283	2.829787	0.958758	0.023177
1979	9.8900e-01	-0.8262	-9.511883	0.000269	2.694040	0.912766	0.022065
1980	9.8950e-01	-0.7893	-9.398990	0.000276	2.756692	0.933993	0.022579
1981	9.9000e-01	-0.7556	-9.283959	0.000281	2.808903	0.951682	0.023006
1982	9.9050e-01	-0.6898	-9.163796	0.000293	2.934207	0.994136	0.024033
1983	9.9100e-01	-0.6658	-9.044488	0.000291	2.913323	0.987060	0.023861
1984	9.9150e-01	-0.6609	-8.930312	0.000279	2.788019	0.944606	0.022835
1985	9.9200e-01	-0.6112	-8.818702	0.000273	2.725366	0.923379	0.022322
1986	9.9250e-01	-0.5342	-8.698967	0.000292	2.923765	0.990598	0.023947
1987	9.9300e-01	-0.4957	-8.580515	0.000289	2.892439	0.979985	0.023690
1988	9.9350e-01	-0.4829	-8.459069	0.000297	2.965533	1.004750	0.024289
1989	9.9400e-01	-0.4364	-8.342328	0.000285	2.850671	0.965833	0.023348
1990	9.9450e-01	-0.3834	-8.229435	0.000276	2.756692	0.933993	0.022579
1991	9.9500e-01	-0.3674	-8.102002	0.000311	3.111721	1.054280	0.025486
1992	9.9550e-01	-0.3112	-7.991247	0.000270	2.704482	0.916303	0.022151
1993	9.9600e-01	-0.2823	-7.868946	0.000299	2.986417	1.011825	0.024460
1994	9.9650e-01	-0.2759	-7.755198	0.000278	2.777577	0.941068	0.022750
1995	9.9700e-01	-0.1829	-7.633325	0.000298	2.975975	1.008288	0.024375
1996	9.9750e-01	-0.1620	-7.509741	0.000302	3.017743	1.022439	0.024717
1997	9.9800e-01	-0.1428	-7.392572	0.000286	2.861113	0.969371	0.023434
1998	9.9850e-01	-0.0706	-7.268561	0.000303	3.028185	1.025977	0.024802
1999	9.9900e-01	-0.0241	-7.148826	0.000292	2.923765	0.990598	0.023947
2000	9.9950e-01	0.0096	-7.024814	0.000303	3.028185	1.025977	0.024802
2001	1.0000e+00	0.0578	-6.902941	0.000303	3.028185	1.025977	0.024375

Center data before PMax,+/-Pr and +/-Vc Calc.

PMax (uC/cm2):	4.43e+01
Pr (uC/cm2):	3.86e+00
-Pr (uC/cm2):	-6.90e+00
PLoss (uC/cm2):	-5.10e+00
Vc:	1.44e+00
-Vc:	-8.77e-01
C (Max-Eff) (nF):	2.21e-01
K (Eff):	7.50e+02
Vert. (+/-Pr) Shift (uC/cm2):	-1.52e+00
Horiz. Shift (+/-Vc):	2.83e-01
Offset (uC/cm2):	1.80e+00

A (Loop Area - uC/cm2·Volts):	2.07e-01



Hysteresis Version: 5.48.1 - Radiant Technologies, Inc., 1999 - 9/12/24

