»»»»»»»»»»»»»»»»»»»»»»»»»»»»»»»»»»»» Hysteresis ««««««««««««««««««««««««««««««««««««
»»»  Executed Version:	5.48.1
»»»  Vision Version:	5.48.4 (R)
»»»  Vision Compiled:	9/18/24
»»»  Driver Version:	5.47.0
»»»  Windows Version:	Windows 8 or 8.1
»»»  Processor Information:	x86 (AMD or Intel) - 32 Processors
»»»  Tester Name:	PMF21124-494 (100V)
»»»  Tester S/N:	PMF21124-494
»»»  Internal Amp Type:	100V RevK 270k
»»»  Internal Amp S/N:	iAB2-596/K     
»»»  Execution Count:	1
»»»»»»»»»»»»»»»»»»»»»»»»»»»»»»»»»»»»»»»»»»««««««««««««««««««««««««««««««««««««««««««

Stored:	6/12/2025 - 15:44:17
Configured:	06/12/25 03:03:03 PM
Executed:	06/12/25 03:43:46 PM

»»»»»»»»»»»»»»»»»»»»»»»»»»»»»»»»»»» Sample Info ««««««««««««««««««««««««««««««««««««
Sample Name:	
Lot Name:	
Wafer Name:	
Die Row/Column:	0/0
Capacitor Number:	0
Sample Area (cm2):	1.00e-04
Sample Thickness (microns):	3.00e-01

Amplifier:	Internal

»»»»»»»»»»»»»»»»»»»»»»»»»»»»»»»»»»» Tester Info «««««««««««««««««««««««««««««««««««
Tester Name:	PMF21124-494 (100V)
Tester Serial Number:	PMF21124-494
Return Signal Amp. Level:	1.79 [Index: 2]

»»»»»»»»»»»»»»»»»»»»»»»»»»»»»»»» Hysteresis Info ««««««««««««««««««««««««««««««««««
Task Name:	Hyst-1570
Volts:	20.00
Field:	666.67 (kV/cm)
DCBias:	0.00
DCField:	0.00 (kV/cm)
Hysteresis Period (ms):	1.00e+00
Preset:	Enabled
Preset Delay (ms):	1.00e+03
Profile:	Standard Bipolar

»»»»»»»»»»»»»»»»»»»»»»»»»»»»»»»»»»»»»» Data «««««««««««««««««««««««««««««««««««««««
Points:	2001

Valid Data

Point	Time (ms)	Drive Voltage	Measured Polarization (uC/cm2)	Capacitance (uF)	Normalized Capacitance (uF/cm2)	Dielectric Constant	Instantaneous Current (mA)
   1	0.0000e+00	0.0449	-1.316658	0.000009	0.094207	0.031918	0.000770
   2	5.0000e-04	0.0481	-1.312810	0.000009	0.094207	0.031918	0.000770
   3	1.0000e-03	0.1283	-1.301264	0.000028	0.282622	0.095755	0.002309
   4	1.5000e-03	0.1797	-1.279027	0.000054	0.544309	0.184417	0.004447
   5	2.0000e-03	0.2310	-1.243107	0.000088	0.879268	0.297904	0.007184
   6	2.5000e-03	0.2358	-1.189226	0.000132	1.318903	0.446856	0.010776
   7	3.0000e-03	0.3160	-1.134917	0.000133	1.329370	0.450403	0.010862
   8	3.5000e-03	0.3305	-1.075050	0.000147	1.465447	0.496507	0.011974
   9	4.0000e-03	0.3577	-1.008340	0.000163	1.632927	0.553251	0.013342
  10	4.5000e-03	0.4315	-0.940348	0.000166	1.664329	0.563890	0.013598
  11	5.0000e-03	0.4460	-0.865941	0.000182	1.821342	0.617087	0.014881
  12	5.5000e-03	0.4732	-0.782982	0.000203	2.030691	0.688017	0.016592
  13	6.0000e-03	0.5053	-0.697029	0.000210	2.103964	0.712842	0.017191
  14	6.5000e-03	0.5390	-0.614498	0.000202	2.020224	0.684470	0.016506
  15	7.0000e-03	0.6080	-0.533676	0.000198	1.978354	0.670284	0.016164
  16	7.5000e-03	0.6385	-0.443875	0.000220	2.198171	0.744760	0.017960
  17	8.0000e-03	0.6577	-0.349797	0.000230	2.302846	0.780225	0.018816
  18	8.5000e-03	0.7540	-0.259569	0.000221	2.208638	0.748307	0.018046
  19	9.0000e-03	0.7636	-0.165491	0.000230	2.302846	0.780225	0.018816
  20	9.5000e-03	0.8101	-0.071841	0.000229	2.292378	0.776679	0.018730
  21	1.0000e-02	0.8438	0.027796	0.000244	2.438923	0.826329	0.019927
  22	1.0500e-02	0.8711	0.127860	0.000245	2.449390	0.829876	0.020013
  23	1.1000e-02	0.9208	0.230062	0.000250	2.501728	0.847608	0.020440
  24	1.1500e-02	0.9754	0.331410	0.000248	2.480793	0.840515	0.020269
  25	1.2000e-02	0.9994	0.437888	0.000261	2.606403	0.883073	0.021296
  26	1.2500e-02	1.0508	0.538380	0.000246	2.459858	0.833422	0.020098
  27	1.3000e-02	1.0572	0.638872	0.000246	2.459858	0.833422	0.020098
  28	1.3500e-02	1.1149	0.745778	0.000262	2.616870	0.886620	0.021381
  29	1.4000e-02	1.1599	0.845415	0.000244	2.438923	0.826329	0.019927
  30	1.4500e-02	1.1903	0.952749	0.000263	2.627338	0.890166	0.021467
  31	1.5000e-02	1.2513	1.054096	0.000248	2.480793	0.840515	0.020269
  32	1.5500e-02	1.2850	1.151167	0.000238	2.376118	0.805051	0.019414
  33	1.6000e-02	1.3058	1.258501	0.000263	2.627338	0.890166	0.021467
  34	1.6500e-02	1.3812	1.355572	0.000238	2.376118	0.805051	0.019414
  35	1.7000e-02	1.4486	1.459913	0.000255	2.554065	0.865341	0.020868
  36	1.7500e-02	1.4294	1.567247	-0.000263	-2.627338	-0.890166	0.021467
  37	1.8000e-02	1.4807	1.675863	0.000266	2.658740	0.900805	0.021723
  38	1.8500e-02	1.5272	1.783197	0.000263	2.627338	0.890166	0.021467
  39	1.9000e-02	1.5609	1.889248	0.000260	2.595935	0.879527	0.021210
  40	1.9500e-02	1.5577	2.002569	-0.000277	-2.773882	-0.939817	0.022664
  41	2.0000e-02	1.6090	2.106054	0.000253	2.533130	0.858248	0.020697
  42	2.0500e-02	1.6748	2.218092	0.000274	2.742480	0.929177	0.022408
  43	2.1000e-02	1.7647	2.321150	0.000252	2.522663	0.854701	0.020612
  44	2.1500e-02	1.7903	2.425063	0.000254	2.543598	0.861794	0.020783
  45	2.2000e-02	1.8160	2.538384	0.000277	2.773882	0.939817	0.022664
  46	2.2500e-02	1.8385	2.636737	0.000241	2.407520	0.815690	0.019671
  47	2.3000e-02	1.8753	2.744071	0.000263	2.627338	0.890166	0.021467
  48	2.3500e-02	1.9058	2.848840	0.000256	2.564533	0.868887	0.020954
  49	2.4000e-02	1.9668	2.950614	0.000249	2.491260	0.844062	0.020355
  50	2.4500e-02	1.9925	3.060942	0.000270	2.700610	0.914991	0.022065
  51	2.5000e-02	2.0598	3.156302	0.000233	2.334248	0.790865	0.019072
  52	2.5500e-02	2.0855	3.269195	0.000276	2.763415	0.936270	0.022579
  53	2.6000e-02	2.1224	3.370970	0.000249	2.491260	0.844062	0.020355
  54	2.6500e-02	2.1769	3.462909	0.000225	2.250508	0.762493	0.018388
  55	2.7000e-02	2.2074	3.578368	0.000283	2.826220	0.957549	0.023092
  56	2.7500e-02	2.2235	3.672873	0.000231	2.313313	0.783772	0.018901
  57	2.8000e-02	2.2764	3.778069	0.000258	2.575000	0.872434	0.021039
  58	2.8500e-02	2.3165	3.878561	0.000246	2.459858	0.833422	0.020098
  59	2.9000e-02	2.3598	3.981619	0.000252	2.522663	0.854701	0.020612
  60	2.9500e-02	2.3903	4.079117	0.000239	2.386585	0.808597	0.019500
  61	3.0000e-02	2.4096	4.183030	0.000254	2.543598	0.861794	0.020783
  62	3.0500e-02	2.4994	4.280529	0.000239	2.386585	0.808597	0.019500
  63	3.1000e-02	2.5267	4.378883	0.000241	2.407520	0.815690	0.019671
  64	3.1500e-02	2.5604	4.476809	0.000240	2.397053	0.812144	0.019585
  65	3.2000e-02	2.5780	4.581577	0.000256	2.564533	0.868887	0.020954
  66	3.2500e-02	2.6229	4.675655	0.000230	2.302846	0.780225	0.018816
  67	3.3000e-02	2.6598	4.778285	0.000251	2.512195	0.851155	0.020526
  68	3.3500e-02	2.7144	4.873645	0.000233	2.334248	0.790865	0.019072
  69	3.4000e-02	2.7849	4.979696	0.000260	2.595935	0.879527	0.021210
  70	3.4500e-02	2.7882	5.078478	0.000242	2.417988	0.819236	0.019756
  71	3.5000e-02	2.8251	5.181963	0.000253	2.533130	0.858248	0.020697
  72	3.5500e-02	2.8716	5.278606	0.000237	2.365651	0.801504	0.019329
  73	3.6000e-02	2.9438	5.382092	0.000253	2.533130	0.858248	0.020697
  74	3.6500e-02	2.9791	5.474886	0.000227	2.271443	0.769586	0.018559
  75	3.7000e-02	2.9839	5.574523	0.000244	2.438923	0.826329	0.019927
  76	3.7500e-02	3.0047	5.678436	0.000254	2.543598	0.861794	0.020783
  77	3.8000e-02	3.0865	5.769520	0.000223	2.229573	0.755400	0.018217
  78	3.8500e-02	3.1266	5.876854	0.000263	2.627338	0.890166	0.021467
  79	3.9000e-02	3.1587	5.974353	0.000239	2.386585	0.808597	0.019500
  80	3.9500e-02	3.1972	6.075700	0.000248	2.480793	0.840515	0.020269
  81	4.0000e-02	3.2357	6.175337	0.000244	2.438923	0.826329	0.019927
  82	4.0500e-02	3.2839	6.274546	0.000243	2.428455	0.822783	0.019842
  83	4.1000e-02	3.3240	6.368623	0.000230	2.302846	0.780225	0.018816
  84	4.1500e-02	3.3577	6.471253	0.000251	2.512195	0.851155	0.020526
  85	4.2000e-02	3.3978	6.565758	0.000231	2.313313	0.783772	0.018901
  86	4.2500e-02	3.4539	6.673092	0.000263	2.627338	0.890166	0.021467
  87	4.3000e-02	3.4828	6.768880	0.000234	2.344716	0.794411	0.019158
  88	4.3500e-02	3.5373	6.864669	0.000234	2.344716	0.794411	0.019158
  89	4.4000e-02	3.5678	6.964733	0.000245	2.449390	0.829876	0.020013
  90	4.4500e-02	3.6015	7.063942	0.000243	2.428455	0.822783	0.019842
  91	4.5000e-02	3.6304	7.158447	0.000231	2.313313	0.783772	0.018901
  92	4.5500e-02	3.6641	7.258084	0.000244	2.438923	0.826329	0.019927
  93	4.6000e-02	3.7186	7.356438	0.000241	2.407520	0.815690	0.019671
  94	4.6500e-02	3.7716	7.447522	0.000223	2.229573	0.755400	0.018217
  95	4.7000e-02	3.8133	7.539461	0.000225	2.250508	0.762493	0.018388
  96	4.7500e-02	3.8036	7.640808	-0.000248	-2.480793	-0.840515	0.020269
  97	4.8000e-02	3.8774	7.730610	0.000220	2.198171	0.744760	0.017960
  98	4.8500e-02	3.9288	7.820411	0.000220	2.198171	0.744760	0.017960
  99	4.9000e-02	3.9769	7.914916	0.000231	2.313313	0.783772	0.018901
 100	4.9500e-02	3.9897	8.014553	0.000244	2.438923	0.826329	0.019927
 101	5.0000e-02	4.0379	8.109058	0.000231	2.313313	0.783772	0.018901
 102	5.0500e-02	4.0892	8.210833	0.000249	2.491260	0.844062	0.020355
 103	5.1000e-02	4.1373	8.306193	0.000233	2.334248	0.790865	0.019072
 104	5.1500e-02	4.1389	8.398560	0.000226	2.260976	0.766039	0.018473
 105	5.2000e-02	4.1662	8.491783	0.000228	2.281911	0.773132	0.018644
 106	5.2500e-02	4.2432	8.586288	0.000231	2.313313	0.783772	0.018901
 107	5.3000e-02	4.3282	8.673951	0.000215	2.145833	0.727028	0.017533
 108	5.3500e-02	4.3154	8.774443	-0.000246	-2.459858	-0.833422	0.020098
 109	5.4000e-02	4.3587	8.871086	0.000237	2.365651	0.801504	0.019329
 110	5.4500e-02	4.3972	8.970723	0.000244	2.438923	0.826329	0.019927
 111	5.5000e-02	4.4341	9.056676	0.000210	2.103964	0.712842	0.017191
 112	5.5500e-02	4.4694	9.154602	0.000240	2.397053	0.812144	0.019585
 113	5.6000e-02	4.5047	9.245686	0.000223	2.229573	0.755400	0.018217
 114	5.6500e-02	4.5689	9.338481	0.000227	2.271443	0.769586	0.018559
 115	5.7000e-02	4.6074	9.429993	0.000224	2.240041	0.758946	0.018302
 116	5.7500e-02	4.6298	9.522787	0.000227	2.271443	0.769586	0.018559
 117	5.8000e-02	4.6763	9.616865	0.000230	2.302846	0.780225	0.018816
 118	5.8500e-02	4.7341	9.703673	0.000212	2.124898	0.719935	0.017362
 119	5.9000e-02	4.7902	9.801171	0.000239	2.386585	0.808597	0.019500
 120	5.9500e-02	4.8191	9.883703	0.000202	2.020224	0.684470	0.016506
 121	6.0000e-02	4.8255	9.981202	0.000239	2.386585	0.808597	0.019500
 122	6.0500e-02	4.8817	10.070575	0.000219	2.187703	0.741214	0.017875
 123	6.1000e-02	4.8993	10.166791	0.000236	2.355183	0.797958	0.019243
 124	6.1500e-02	4.9378	10.265145	0.000241	2.407520	0.815690	0.019671
 125	6.2000e-02	4.9908	10.354518	0.000219	2.187703	0.741214	0.017875
 126	6.2500e-02	5.0469	10.443464	0.000218	2.177236	0.737667	0.017789
 127	6.3000e-02	5.0774	10.529417	0.000210	2.103964	0.712842	0.017191
 128	6.3500e-02	5.1223	10.626060	0.000237	2.365651	0.801504	0.019329
 129	6.4000e-02	5.1720	10.717145	0.000223	2.229573	0.755400	0.018217
 130	6.4500e-02	5.1945	10.807374	0.000221	2.208638	0.748307	0.018046
 131	6.5000e-02	5.2523	10.898030	0.000222	2.219106	0.751853	0.018131
 132	6.5500e-02	5.2859	10.991680	0.000229	2.292378	0.776679	0.018730
 133	6.6000e-02	5.3068	11.085758	0.000230	2.302846	0.780225	0.018816
 134	6.6500e-02	5.3822	11.175131	0.000219	2.187703	0.741214	0.017875
 135	6.7000e-02	5.4159	11.262367	0.000214	2.135366	0.723482	0.017447
 136	6.7500e-02	5.4432	11.347037	0.000207	2.072561	0.702203	0.016934
 137	6.8000e-02	5.4945	11.444108	0.000238	2.376118	0.805051	0.019414
 138	6.8500e-02	5.5330	11.536902	0.000227	2.271443	0.769586	0.018559
 139	6.9000e-02	5.5715	11.621144	0.000206	2.062094	0.698656	0.016848
 140	6.9500e-02	5.6004	11.710518	0.000219	2.187703	0.741214	0.017875
 141	7.0000e-02	5.6533	11.799464	0.000218	2.177236	0.737667	0.017789
 142	7.0500e-02	5.6758	11.893969	0.000231	2.313313	0.783772	0.018901
 143	7.1000e-02	5.7095	11.976501	0.000202	2.020224	0.684470	0.016506
 144	7.1500e-02	5.7640	12.065875	0.000219	2.187703	0.741214	0.017875
 145	7.2000e-02	5.8218	12.150972	0.000208	2.083029	0.705749	0.017019
 146	7.2500e-02	5.8506	12.238208	0.000214	2.135366	0.723482	0.017447
 147	7.3000e-02	5.8940	12.330147	0.000225	2.250508	0.762493	0.018388
 148	7.3500e-02	5.9276	12.424652	0.000231	2.313313	0.783772	0.018901
 149	7.4000e-02	5.9533	12.508895	0.000206	2.062094	0.698656	0.016848
 150	7.4500e-02	6.0030	12.598268	0.000219	2.187703	0.741214	0.017875
 151	7.5000e-02	6.0271	12.694484	0.000236	2.355183	0.797958	0.019243
 152	7.5500e-02	6.0592	12.783002	0.000217	2.166768	0.734121	0.017704
 153	7.6000e-02	6.1089	12.865962	0.000203	2.030691	0.688017	0.016592
 154	7.6500e-02	6.1538	12.958329	0.000226	2.260976	0.766039	0.018473
 155	7.7000e-02	6.2052	13.046420	0.000216	2.156301	0.730575	0.017618
 156	7.7500e-02	6.2677	13.131517	0.000208	2.083029	0.705749	0.017019
 157	7.8000e-02	6.3078	13.226877	0.000233	2.334248	0.790865	0.019072
 158	7.8500e-02	6.3271	13.310692	0.000205	2.051626	0.695110	0.016763
 159	7.9000e-02	6.3688	13.399638	0.000218	2.177236	0.737667	0.017789
 160	7.9500e-02	6.3913	13.488156	0.000217	2.166768	0.734121	0.017704
 161	8.0000e-02	6.4217	13.571971	0.000205	2.051626	0.695110	0.016763
 162	8.0500e-02	6.4779	13.664338	0.000226	2.260976	0.766039	0.018473
 163	8.1000e-02	6.4875	13.752856	0.000217	2.166768	0.734121	0.017704
 164	8.1500e-02	6.5758	13.833678	0.000198	1.978354	0.670284	0.016164
 165	8.2000e-02	6.6062	13.926045	0.000226	2.260976	0.766039	0.018473
 166	8.2500e-02	6.6447	14.013708	0.000215	2.145833	0.727028	0.017533
 167	8.3000e-02	6.6495	14.107358	0.000229	2.292378	0.776679	0.018730
 168	8.3500e-02	6.7169	14.192883	0.000209	2.093496	0.709296	0.017105
 169	8.4000e-02	6.7426	14.284395	0.000224	2.240041	0.758946	0.018302
 170	8.4500e-02	6.8036	14.374196	0.000220	2.198171	0.744760	0.017960
 171	8.5000e-02	6.8581	14.451169	0.000188	1.884146	0.638366	0.015395
 172	8.5500e-02	6.9158	14.540970	0.000220	2.198171	0.744760	0.017960
 173	8.6000e-02	6.8950	14.629488	-0.000217	-2.166768	-0.734121	0.017704
 174	8.6500e-02	6.9399	14.723566	0.000230	2.302846	0.780225	0.018816
 175	8.7000e-02	6.9929	14.812512	0.000218	2.177236	0.737667	0.017789
 176	8.7500e-02	7.0153	14.902741	0.000221	2.208638	0.748307	0.018046
 177	8.8000e-02	7.0843	14.997246	0.000231	2.313313	0.783772	0.018901
 178	8.8500e-02	7.1404	15.084482	0.000214	2.135366	0.723482	0.017447
 179	8.9000e-02	7.1838	15.173000	0.000217	2.166768	0.734121	0.017704
 180	8.9500e-02	7.1934	15.270071	0.000238	2.376118	0.805051	0.019414
 181	9.0000e-02	7.2431	15.347043	0.000188	1.884146	0.638366	0.015395
 182	9.0500e-02	7.2816	15.434279	0.000214	2.135366	0.723482	0.017447
 183	9.1000e-02	7.3185	15.518521	0.000206	2.062094	0.698656	0.016848
 184	9.1500e-02	7.3442	15.598915	0.000197	1.967886	0.666738	0.016079
 185	9.2000e-02	7.3987	15.682302	0.000204	2.041159	0.691563	0.016677
 186	9.2500e-02	7.4372	15.767827	0.000209	2.093496	0.709296	0.017105
 187	9.3000e-02	7.4934	15.855062	0.000214	2.135366	0.723482	0.017447
 188	9.3500e-02	7.5158	15.939732	0.000207	2.072561	0.702203	0.016934
 189	9.4000e-02	7.5527	16.032099	0.000226	2.260976	0.766039	0.018473
 190	9.4500e-02	7.6169	16.116769	0.000207	2.072561	0.702203	0.016934
 191	9.5000e-02	7.6763	16.203577	0.000212	2.124898	0.719935	0.017362
 192	9.5500e-02	7.6827	16.292095	0.000217	2.166768	0.734121	0.017704
 193	9.6000e-02	7.6875	16.378476	0.000211	2.114431	0.716389	0.017276
 194	9.6500e-02	7.7773	16.468277	0.000220	2.198171	0.744760	0.017960
 195	9.7000e-02	7.8062	16.557651	0.000219	2.187703	0.741214	0.017875
 196	9.7500e-02	7.8399	16.637189	0.000195	1.946951	0.659645	0.015908
 197	9.8000e-02	7.8656	16.724424	0.000214	2.135366	0.723482	0.017447
 198	9.8500e-02	7.9105	16.814653	0.000221	2.208638	0.748307	0.018046
 199	9.9000e-02	7.9538	16.888633	0.000181	1.810874	0.613541	0.014796
 200	9.9500e-02	7.9827	16.975013	0.000211	2.114431	0.716389	0.017276
 201	1.0000e-01	8.0532	17.053268	0.000192	1.915549	0.649006	0.015651
 202	1.0050e-01	8.0853	17.137511	0.000206	2.062094	0.698656	0.016848
 203	1.0100e-01	8.1174	17.220470	0.000203	2.030691	0.688017	0.016592
 204	1.0150e-01	8.1543	17.305140	0.000207	2.072561	0.702203	0.016934
 205	1.0200e-01	8.2233	17.391092	0.000210	2.103964	0.712842	0.017191
 206	1.0250e-01	8.2393	17.477473	0.000211	2.114431	0.716389	0.017276
 207	1.0300e-01	8.2746	17.565991	0.000217	2.166768	0.734121	0.017704
 208	1.0350e-01	8.2987	17.652371	0.000211	2.114431	0.716389	0.017276
 209	1.0400e-01	8.3725	17.749870	0.000239	2.386585	0.808597	0.019500
 210	1.0450e-01	8.4126	17.831546	0.000200	1.999289	0.677377	0.016335
 211	1.0500e-01	8.4511	17.915361	0.000205	2.051626	0.695110	0.016763
 212	1.0550e-01	8.4703	18.007300	0.000225	2.250508	0.762493	0.018388
 213	1.0600e-01	8.5313	18.096674	0.000219	2.187703	0.741214	0.017875
 214	1.0650e-01	8.5409	18.180916	0.000206	2.062094	0.698656	0.016848
 215	1.0700e-01	8.6228	18.266014	0.000208	2.083029	0.705749	0.017019
 216	1.0750e-01	8.6532	18.356670	0.000222	2.219106	0.751853	0.018131
 217	1.0800e-01	8.6885	18.442623	0.000210	2.103964	0.712842	0.017191
 218	1.0850e-01	8.7190	18.523016	0.000197	1.967886	0.666738	0.016079
 219	1.0900e-01	8.7623	18.606403	0.000204	2.041159	0.691563	0.016677
 220	1.0950e-01	8.7735	18.687225	0.000198	1.978354	0.670284	0.016164
 221	1.1000e-01	8.8489	18.768046	0.000198	1.978354	0.670284	0.016164
 222	1.1050e-01	8.8746	18.854426	0.000211	2.114431	0.716389	0.017276
 223	1.1100e-01	8.9115	18.934392	0.000196	1.957419	0.663191	0.015993
 224	1.1150e-01	8.9580	19.027187	0.000227	2.271443	0.769586	0.018559
 225	1.1200e-01	9.0094	19.113995	0.000212	2.124898	0.719935	0.017362
 226	1.1250e-01	9.0623	19.199520	0.000209	2.093496	0.709296	0.017105
 227	1.1300e-01	9.1056	19.287183	0.000215	2.145833	0.727028	0.017533
 228	1.1350e-01	9.1233	19.368004	0.000198	1.978354	0.670284	0.016164
 229	1.1400e-01	9.1810	19.448397	0.000197	1.967886	0.666738	0.016079
 230	1.1450e-01	9.1842	19.532212	0.000205	2.051626	0.695110	0.016763
 231	1.1500e-01	9.2388	19.609185	0.000188	1.884146	0.638366	0.015395
 232	1.1550e-01	9.2997	19.684447	0.000184	1.842277	0.624180	0.015052
 233	1.1600e-01	9.3495	19.760992	0.000187	1.873679	0.634820	0.015309
 234	1.1650e-01	9.3511	19.836681	0.000185	1.852744	0.627727	0.015138
 235	1.1700e-01	9.3880	19.917930	0.000199	1.988821	0.673831	0.016250
 236	1.1750e-01	9.4537	20.003027	0.000208	2.083029	0.705749	0.017019
 237	1.1800e-01	9.4762	20.091546	0.000217	2.166768	0.734121	0.017704
 238	1.1850e-01	9.4858	20.168946	0.000189	1.894614	0.641913	0.015480
 239	1.1900e-01	9.5709	20.257465	0.000217	2.166768	0.734121	0.017704
 240	1.1950e-01	9.6142	20.333154	0.000185	1.852744	0.627727	0.015138
 241	1.2000e-01	9.6479	20.413975	0.000198	1.978354	0.670284	0.016164
 242	1.2050e-01	9.6783	20.501639	0.000215	2.145833	0.727028	0.017533
 243	1.2100e-01	9.7136	20.588446	0.000212	2.124898	0.719935	0.017362
 244	1.2150e-01	9.7666	20.676110	0.000215	2.145833	0.727028	0.017533
 245	1.2200e-01	9.8083	20.759069	0.000203	2.030691	0.688017	0.016592
 246	1.2250e-01	9.8339	20.841601	0.000202	2.020224	0.684470	0.016506
 247	1.2300e-01	9.8901	20.918146	0.000187	1.873679	0.634820	0.015309
 248	1.2350e-01	9.9414	20.997684	0.000195	1.946951	0.659645	0.015908
 249	1.2400e-01	9.9847	21.074229	0.000187	1.873679	0.634820	0.015309
 250	1.2450e-01	10.0168	21.158471	0.000206	2.062094	0.698656	0.016848
 251	1.2500e-01	10.0361	21.244424	0.000210	2.103964	0.712842	0.017191
 252	1.2550e-01	10.0842	21.335080	0.000222	2.219106	0.751853	0.018131
 253	1.2600e-01	10.1291	21.414191	0.000194	1.936484	0.656098	0.015822
 254	1.2650e-01	10.1789	21.495867	0.000200	1.999289	0.677377	0.016335
 255	1.2700e-01	10.2077	21.572412	0.000187	1.873679	0.634820	0.015309
 256	1.2750e-01	10.2527	21.645109	0.000178	1.779472	0.602901	0.014539
 257	1.2800e-01	10.2783	21.725502	0.000197	1.967886	0.666738	0.016079
 258	1.2850e-01	10.3024	21.801619	0.000186	1.863211	0.631273	0.015223
 259	1.2900e-01	10.3666	21.888000	0.000211	2.114431	0.716389	0.017276
 260	1.2950e-01	10.4115	21.964545	0.000187	1.873679	0.634820	0.015309
 261	1.3000e-01	10.4403	22.046649	0.000201	2.009756	0.680924	0.016421
 262	1.3050e-01	10.4692	22.126187	0.000195	1.946951	0.659645	0.015908
 263	1.3100e-01	10.5174	22.206153	0.000196	1.957419	0.663191	0.015993
 264	1.3150e-01	10.5703	22.289967	0.000205	2.051626	0.695110	0.016763
 265	1.3200e-01	10.6264	22.371216	0.000199	1.988821	0.673831	0.016250
 266	1.3250e-01	10.6778	22.447761	0.000187	1.873679	0.634820	0.015309
 267	1.3300e-01	10.6954	22.526444	0.000193	1.926016	0.652552	0.015737
 268	1.3350e-01	10.7355	22.612825	0.000211	2.114431	0.716389	0.017276
 269	1.3400e-01	10.7788	22.694073	0.000199	1.988821	0.673831	0.016250
 270	1.3450e-01	10.7917	22.782164	0.000216	2.156301	0.730575	0.017618
 271	1.3500e-01	10.8478	22.855716	0.000180	1.800407	0.609994	0.014710
 272	1.3550e-01	10.8462	22.934826	-0.000194	-1.936484	-0.656098	0.015822
 273	1.3600e-01	10.9184	23.021207	0.000211	2.114431	0.716389	0.017276
 274	1.3650e-01	10.9569	23.101600	0.000197	1.967886	0.666738	0.016079
 275	1.3700e-01	11.0435	23.179428	0.000191	1.905081	0.645459	0.015566
 276	1.3750e-01	11.0500	23.258539	0.000194	1.936484	0.656098	0.015822
 277	1.3800e-01	11.0997	23.342353	0.000205	2.051626	0.695110	0.016763
 278	1.3850e-01	11.0997	23.431299	-0.000218	-2.177236	-0.737667	0.017789
 279	1.3900e-01	11.1671	23.513403	0.000201	2.009756	0.680924	0.016421
 280	1.3950e-01	11.2056	23.597218	0.000205	2.051626	0.695110	0.016763
 281	1.4000e-01	11.2826	23.678467	0.000199	1.988821	0.673831	0.016250
 282	1.4050e-01	11.3066	23.763137	0.000207	2.072561	0.702203	0.016934
 283	1.4100e-01	11.3002	23.849089	-0.000210	-2.103964	-0.712842	0.017191
 284	1.4150e-01	11.3580	23.927345	0.000192	1.915549	0.649006	0.015651
 285	1.4200e-01	11.4398	24.006455	0.000194	1.936484	0.656098	0.015822
 286	1.4250e-01	11.4430	24.088132	0.000200	1.999289	0.677377	0.016335
 287	1.4300e-01	11.4895	24.168525	0.000197	1.967886	0.666738	0.016079
 288	1.4350e-01	11.5152	24.250202	0.000200	1.999289	0.677377	0.016335
 289	1.4400e-01	11.5745	24.328885	0.000193	1.926016	0.652552	0.015737
 290	1.4450e-01	11.5890	24.415265	0.000211	2.114431	0.716389	0.017276
 291	1.4500e-01	11.6371	24.496514	0.000199	1.988821	0.673831	0.016250
 292	1.4550e-01	11.6965	24.573914	0.000189	1.894614	0.641913	0.015480
 293	1.4600e-01	11.7398	24.655590	0.000200	1.999289	0.677377	0.016335
 294	1.4650e-01	11.7863	24.727432	0.000176	1.758537	0.595808	0.014368
 295	1.4700e-01	11.7815	24.807825	-0.000197	-1.967886	-0.666738	0.016079
 296	1.4750e-01	11.8633	24.887363	0.000195	1.946951	0.659645	0.015908
 297	1.4800e-01	11.8890	24.969040	0.000200	1.999289	0.677377	0.016335
 298	1.4850e-01	11.9307	25.039598	0.000173	1.727134	0.585169	0.014112
 299	1.4900e-01	11.9708	25.125123	0.000209	2.093496	0.709296	0.017105
 300	1.4950e-01	12.0189	25.199530	0.000182	1.821342	0.617087	0.014881
 301	1.5000e-01	12.0366	25.273509	0.000181	1.810874	0.613541	0.014796
 302	1.5050e-01	12.0606	25.357751	0.000206	2.062094	0.698656	0.016848
 303	1.5100e-01	12.1184	25.437289	0.000195	1.946951	0.659645	0.015908
 304	1.5150e-01	12.1697	25.509131	0.000176	1.758537	0.595808	0.014368
 305	1.5200e-01	12.1858	25.586103	0.000188	1.884146	0.638366	0.015395
 306	1.5250e-01	12.2563	25.664358	0.000192	1.915549	0.649006	0.015651
 307	1.5300e-01	12.2740	25.746035	0.000200	1.999289	0.677377	0.016335
 308	1.5350e-01	12.2932	25.821297	0.000184	1.842277	0.624180	0.015052
 309	1.5400e-01	12.3333	25.896987	0.000185	1.852744	0.627727	0.015138
 310	1.5450e-01	12.3879	25.975242	0.000192	1.915549	0.649006	0.015651
 311	1.5500e-01	12.4184	26.053497	0.000192	1.915549	0.649006	0.015651
 312	1.5550e-01	12.4809	26.132608	0.000194	1.936484	0.656098	0.015822
 313	1.5600e-01	12.5146	26.211719	0.000194	1.936484	0.656098	0.015822
 314	1.5650e-01	12.5948	26.287409	0.000185	1.852744	0.627727	0.015138
 315	1.5700e-01	12.6077	26.366092	0.000193	1.926016	0.652552	0.015737
 316	1.5750e-01	12.6189	26.442636	0.000187	1.873679	0.634820	0.015309
 317	1.5800e-01	12.6879	26.515333	0.000178	1.779472	0.602901	0.014539
 318	1.5850e-01	12.7280	26.594016	0.000193	1.926016	0.652552	0.015737
 319	1.5900e-01	12.7633	26.669706	0.000185	1.852744	0.627727	0.015138
 320	1.5950e-01	12.7922	26.748816	0.000194	1.936484	0.656098	0.015822
 321	1.6000e-01	12.8355	26.821085	0.000177	1.769004	0.599355	0.014454
 322	1.6050e-01	12.8852	26.893781	0.000178	1.779472	0.602901	0.014539
 323	1.6100e-01	12.9173	26.976313	0.000202	2.020224	0.684470	0.016506
 324	1.6150e-01	12.9494	27.055851	0.000195	1.946951	0.659645	0.015908
 325	1.6200e-01	13.0007	27.127692	0.000176	1.758537	0.595808	0.014368
 326	1.6250e-01	13.0392	27.208941	0.000199	1.988821	0.673831	0.016250
 327	1.6300e-01	13.0745	27.280782	0.000176	1.758537	0.595808	0.014368
 328	1.6350e-01	13.1290	27.356472	0.000185	1.852744	0.627727	0.015138
 329	1.6400e-01	13.1788	27.436438	0.000196	1.957419	0.663191	0.015993
 330	1.6450e-01	13.2125	27.509562	0.000179	1.789939	0.606448	0.014625
 331	1.6500e-01	13.2253	27.586106	0.000187	1.873679	0.634820	0.015309
 332	1.6550e-01	13.2542	27.655809	0.000171	1.706199	0.578076	0.013941
 333	1.6600e-01	13.3039	27.731499	0.000185	1.852744	0.627727	0.015138
 334	1.6650e-01	13.3440	27.813603	0.000201	2.009756	0.680924	0.016421
 335	1.6700e-01	13.4018	27.892286	0.000193	1.926016	0.652552	0.015737
 336	1.6750e-01	13.4499	27.967121	0.000183	1.831809	0.620634	0.014967
 337	1.6800e-01	13.5028	28.040672	0.000180	1.800407	0.609994	0.014710
 338	1.6850e-01	13.5189	28.121493	0.000198	1.978354	0.670284	0.016164
 339	1.6900e-01	13.5718	28.201459	0.000196	1.957419	0.663191	0.015993
 340	1.6950e-01	13.6151	28.265175	0.000156	1.559655	0.528425	0.012743
 341	1.7000e-01	13.6472	28.341720	0.000187	1.873679	0.634820	0.015309
 342	1.7050e-01	13.6841	28.425963	0.000206	2.062094	0.698656	0.016848
 343	1.7100e-01	13.6937	28.502080	0.000186	1.863211	0.631273	0.015223
 344	1.7150e-01	13.7723	28.571783	0.000171	1.706199	0.578076	0.013941
 345	1.7200e-01	13.8044	28.649183	0.000189	1.894614	0.641913	0.015480
 346	1.7250e-01	13.8509	28.727011	0.000191	1.905081	0.645459	0.015566
 347	1.7300e-01	13.8782	28.802700	0.000185	1.852744	0.627727	0.015138
 348	1.7350e-01	13.9360	28.877535	0.000183	1.831809	0.620634	0.014967
 349	1.7400e-01	13.9921	28.946382	0.000169	1.685264	0.570983	0.013770
 350	1.7450e-01	14.0001	29.023783	0.000189	1.894614	0.641913	0.015480
 351	1.7500e-01	14.0402	29.098189	0.000182	1.821342	0.617087	0.014881
 352	1.7550e-01	14.1028	29.175590	0.000189	1.894614	0.641913	0.015480
 353	1.7600e-01	14.1124	29.249569	0.000181	1.810874	0.613541	0.014796
 354	1.7650e-01	14.1702	29.317989	0.000167	1.674797	0.567437	0.013684
 355	1.7700e-01	14.1975	29.397100	0.000194	1.936484	0.656098	0.015822
 356	1.7750e-01	14.2985	29.464237	0.000164	1.643394	0.556797	0.013427
 357	1.7800e-01	14.2648	29.549334	-0.000208	-2.083029	-0.705749	0.017019
 358	1.7850e-01	14.3146	29.622886	0.000180	1.800407	0.609994	0.014710
 359	1.7900e-01	14.3739	29.691306	0.000167	1.674797	0.567437	0.013684
 360	1.7950e-01	14.3916	29.766995	0.000185	1.852744	0.627727	0.015138
 361	1.8000e-01	14.4638	29.844823	0.000191	1.905081	0.645459	0.015566
 362	1.8050e-01	14.5023	29.915381	0.000173	1.727134	0.585169	0.014112
 363	1.8100e-01	14.5327	29.994492	0.000194	1.936484	0.656098	0.015822
 364	1.8150e-01	14.5327	30.072320	-0.000191	-1.905081	-0.645459	0.015566
 365	1.8200e-01	14.6001	30.137746	0.000160	1.601524	0.542611	0.013085
 366	1.8250e-01	14.6531	30.214291	0.000187	1.873679	0.634820	0.015309
 367	1.8300e-01	14.6868	30.291264	0.000188	1.884146	0.638366	0.015395
 368	1.8350e-01	14.7076	30.363960	0.000178	1.779472	0.602901	0.014539
 369	1.8400e-01	14.7557	30.438367	0.000182	1.821342	0.617087	0.014881
 370	1.8450e-01	14.8007	30.506787	0.000167	1.674797	0.567437	0.013684
 371	1.8500e-01	14.8408	30.577773	0.000174	1.737602	0.588715	0.014197
 372	1.8550e-01	14.8873	30.654745	0.000188	1.884146	0.638366	0.015395
 373	1.8600e-01	14.9081	30.729580	0.000183	1.831809	0.620634	0.014967
 374	1.8650e-01	14.9659	30.799710	0.000172	1.716667	0.581622	0.014026
 375	1.8700e-01	14.9980	30.868558	0.000169	1.685264	0.570983	0.013770
 376	1.8750e-01	15.0349	30.939971	0.000175	1.748069	0.592262	0.014283
 377	1.8800e-01	15.0798	31.007964	0.000166	1.664329	0.563890	0.013598
 378	1.8850e-01	15.1648	31.081088	0.000179	1.789939	0.606448	0.014625
 379	1.8900e-01	15.1793	31.152074	0.000174	1.737602	0.588715	0.014197
 380	1.8950e-01	15.2065	31.228619	0.000187	1.873679	0.634820	0.015309
 381	1.9000e-01	15.2338	31.297894	0.000170	1.695732	0.574529	0.013855
 382	1.9050e-01	15.3300	31.363748	0.000161	1.611992	0.546158	0.013171
 383	1.9100e-01	15.3028	31.443286	-0.000195	-1.946951	-0.659645	0.015908
 384	1.9150e-01	15.3605	31.515127	0.000176	1.758537	0.595808	0.014368
 385	1.9200e-01	15.4407	31.580127	0.000159	1.591057	0.539065	0.013000
 386	1.9250e-01	15.4472	31.660948	0.000198	1.978354	0.670284	0.016164
 387	1.9300e-01	15.4825	31.732789	0.000176	1.758537	0.595808	0.014368
 388	1.9350e-01	15.5258	31.800781	0.000166	1.664329	0.563890	0.013598
 389	1.9400e-01	15.5980	31.868774	0.000166	1.664329	0.563890	0.013598
 390	1.9450e-01	15.6076	31.938477	0.000171	1.706199	0.578076	0.013941
 391	1.9500e-01	15.6493	32.011173	0.000178	1.779472	0.602901	0.014539
 392	1.9550e-01	15.6766	32.091566	0.000197	1.967886	0.666738	0.016079
 393	1.9600e-01	15.7167	32.156565	0.000159	1.591057	0.539065	0.013000
 394	1.9650e-01	15.7504	32.231400	0.000183	1.831809	0.620634	0.014967
 395	1.9700e-01	15.8065	32.298537	0.000164	1.643394	0.556797	0.013427
 396	1.9750e-01	15.8418	32.371233	0.000178	1.779472	0.602901	0.014539
 397	1.9800e-01	15.8723	32.442219	0.000174	1.737602	0.588715	0.014197
 398	1.9850e-01	15.9076	32.515343	0.000179	1.789939	0.606448	0.014625
 399	1.9900e-01	15.9830	32.585901	0.000173	1.727134	0.585169	0.014112
 400	1.9950e-01	15.9589	32.662446	-0.000187	-1.873679	-0.634820	0.015309
 401	2.0000e-01	16.0520	32.727873	0.000160	1.601524	0.542611	0.013085
 402	2.0050e-01	16.0680	32.803990	0.000186	1.863211	0.631273	0.015223
 403	2.0100e-01	16.1338	32.872838	0.000169	1.685264	0.570983	0.013770
 404	2.0150e-01	16.1803	32.944679	0.000176	1.758537	0.595808	0.014368
 405	2.0200e-01	16.1883	33.024217	0.000195	1.946951	0.659645	0.015908
 406	2.0250e-01	16.2605	33.084085	0.000147	1.465447	0.496507	0.011974
 407	2.0300e-01	16.2958	33.150367	0.000162	1.622459	0.549704	0.013256
 408	2.0350e-01	16.3199	33.221352	0.000174	1.737602	0.588715	0.014197
 409	2.0400e-01	16.3535	33.294904	0.000180	1.800407	0.609994	0.014710
 410	2.0450e-01	16.3953	33.359475	0.000158	1.580590	0.535518	0.012914
 411	2.0500e-01	16.4386	33.433454	0.000181	1.810874	0.613541	0.014796
 412	2.0550e-01	16.4562	33.503157	0.000171	1.706199	0.578076	0.013941
 413	2.0600e-01	16.5027	33.574143	0.000174	1.737602	0.588715	0.014197
 414	2.0650e-01	16.5669	33.647267	0.000179	1.789939	0.606448	0.014625
 415	2.0700e-01	16.5862	33.712694	0.000160	1.601524	0.542611	0.013085
 416	2.0750e-01	16.6439	33.782824	0.000172	1.716667	0.581622	0.014026
 417	2.0800e-01	16.6953	33.856376	0.000180	1.800407	0.609994	0.014710
 418	2.0850e-01	16.7466	33.917954	0.000151	1.507317	0.510693	0.012316
 419	2.0900e-01	16.7610	33.986802	0.000169	1.685264	0.570983	0.013770
 420	2.0950e-01	16.7947	34.062919	0.000186	1.863211	0.631273	0.015223
 421	2.1000e-01	16.8653	34.121504	0.000143	1.434045	0.485868	0.011717
 422	2.1050e-01	16.8878	34.192489	0.000174	1.737602	0.588715	0.014197
 423	2.1100e-01	16.9231	34.262620	0.000172	1.716667	0.581622	0.014026
 424	2.1150e-01	16.9808	34.329757	0.000164	1.643394	0.556797	0.013427
 425	2.1200e-01	16.9904	34.405874	0.000186	1.863211	0.631273	0.015223
 426	2.1250e-01	17.0321	34.472584	0.000163	1.632927	0.553251	0.013342
 427	2.1300e-01	17.0883	34.541859	0.000170	1.695732	0.574529	0.013855
 428	2.1350e-01	17.1268	34.608996	0.000164	1.643394	0.556797	0.013427
 429	2.1400e-01	17.1637	34.679982	0.000174	1.737602	0.588715	0.014197
 430	2.1450e-01	17.1974	34.749257	0.000170	1.695732	0.574529	0.013855
 431	2.1500e-01	17.2423	34.819388	0.000172	1.716667	0.581622	0.014026
 432	2.1550e-01	17.2968	34.885670	0.000162	1.622459	0.549704	0.013256
 433	2.1600e-01	17.3321	34.949386	0.000156	1.559655	0.528425	0.012743
 434	2.1650e-01	17.3610	35.017378	0.000166	1.664329	0.563890	0.013598
 435	2.1700e-01	17.3899	35.086226	0.000169	1.685264	0.570983	0.013770
 436	2.1750e-01	17.4460	35.158922	0.000178	1.779472	0.602901	0.014539
 437	2.1800e-01	17.4797	35.227343	0.000167	1.674797	0.567437	0.013684
 438	2.1850e-01	17.5070	35.293197	0.000161	1.611992	0.546158	0.013171
 439	2.1900e-01	17.5712	35.356913	0.000156	1.559655	0.528425	0.012743
 440	2.1950e-01	17.6129	35.421912	0.000159	1.591057	0.539065	0.013000
 441	2.2000e-01	17.6498	35.487766	0.000161	1.611992	0.546158	0.013171
 442	2.2050e-01	17.6690	35.559180	0.000175	1.748069	0.592262	0.014283
 443	2.2100e-01	17.7236	35.627600	0.000167	1.674797	0.567437	0.013684
 444	2.2150e-01	17.7765	35.695592	0.000166	1.664329	0.563890	0.013598
 445	2.2200e-01	17.7942	35.769144	0.000180	1.800407	0.609994	0.014710
 446	2.2250e-01	17.8471	35.832860	0.000156	1.559655	0.528425	0.012743
 447	2.2300e-01	17.9161	35.899142	0.000162	1.622459	0.549704	0.013256
 448	2.2350e-01	17.9273	35.968417	0.000170	1.695732	0.574529	0.013855
 449	2.2400e-01	17.9594	36.038548	0.000172	1.716667	0.581622	0.014026
 450	2.2450e-01	17.9915	36.100553	0.000152	1.517785	0.514239	0.012401
 451	2.2500e-01	18.0284	36.174105	0.000180	1.800407	0.609994	0.014710
 452	2.2550e-01	18.0605	36.236538	0.000153	1.528252	0.517786	0.012487
 453	2.2600e-01	18.1246	36.304958	0.000167	1.674797	0.567437	0.013684
 454	2.2650e-01	18.1583	36.371668	0.000163	1.632927	0.553251	0.013342
 455	2.2700e-01	18.1984	36.439233	0.000165	1.653862	0.560344	0.013513
 456	2.2750e-01	18.2369	36.506370	0.000164	1.643394	0.556797	0.013427
 457	2.2800e-01	18.2850	36.567520	0.000150	1.496850	0.507146	0.012230
 458	2.2850e-01	18.3332	36.636368	0.000169	1.685264	0.570983	0.013770
 459	2.2900e-01	18.3428	36.712057	0.000185	1.852744	0.627727	0.015138
 460	2.2950e-01	18.4182	36.775346	0.000155	1.549187	0.524879	0.012658
 461	2.3000e-01	18.4503	36.841628	0.000162	1.622459	0.549704	0.013256
 462	2.3050e-01	18.4872	36.907055	0.000160	1.601524	0.542611	0.013085
 463	2.3100e-01	18.5449	36.973336	0.000162	1.622459	0.549704	0.013256
 464	2.3150e-01	18.5513	37.034487	0.000150	1.496850	0.507146	0.012230
 465	2.3200e-01	18.5706	37.107611	0.000179	1.789939	0.606448	0.014625
 466	2.3250e-01	18.6171	37.169189	0.000151	1.507317	0.510693	0.012316
 467	2.3300e-01	18.7150	37.235898	0.000163	1.632927	0.553251	0.013342
 468	2.3350e-01	18.7054	37.303036	-0.000164	-1.643394	-0.556797	0.013427
 469	2.3400e-01	18.7711	37.367607	0.000158	1.580590	0.535518	0.012914
 470	2.3450e-01	18.7904	37.434317	0.000163	1.632927	0.553251	0.013342
 471	2.3500e-01	18.8433	37.495467	0.000150	1.496850	0.507146	0.012230
 472	2.3550e-01	18.8674	37.565598	0.000172	1.716667	0.581622	0.014026
 473	2.3600e-01	18.9396	37.624182	0.000143	1.434045	0.485868	0.011717
 474	2.3650e-01	18.9620	37.699017	0.000183	1.831809	0.620634	0.014967
 475	2.3700e-01	19.0182	37.765726	0.000163	1.632927	0.553251	0.013342
 476	2.3750e-01	19.0278	37.832863	0.000164	1.643394	0.556797	0.013427
 477	2.3800e-01	19.1000	37.894441	0.000151	1.507317	0.510693	0.012316
 478	2.3850e-01	19.1481	37.953881	0.000145	1.454980	0.492960	0.011888
 479	2.3900e-01	19.1738	38.020591	0.000163	1.632927	0.553251	0.013342
 480	2.3950e-01	19.1946	38.087728	0.000164	1.643394	0.556797	0.013427
 481	2.4000e-01	19.2364	38.160852	0.000179	1.789939	0.606448	0.014625
 482	2.4050e-01	19.2973	38.217726	0.000139	1.392175	0.471682	0.011375
 483	2.4100e-01	19.3470	38.284863	0.000164	1.643394	0.556797	0.013427
 484	2.4150e-01	19.3775	38.348579	0.000156	1.559655	0.528425	0.012743
 485	2.4200e-01	19.4000	38.421276	0.000178	1.779472	0.602901	0.014539
 486	2.4250e-01	19.4128	38.493117	0.000176	1.758537	0.595808	0.014368
 487	2.4300e-01	19.5011	38.545287	0.000128	1.277033	0.432670	0.010434
 488	2.4350e-01	19.5187	38.614562	0.000170	1.695732	0.574529	0.013855
 489	2.4400e-01	19.5877	38.675285	0.000149	1.486382	0.503600	0.012145
 490	2.4450e-01	19.6134	38.742850	0.000165	1.653862	0.560344	0.013513
 491	2.4500e-01	19.6342	38.804428	0.000151	1.507317	0.510693	0.012316
 492	2.4550e-01	19.6679	38.875414	0.000174	1.737602	0.588715	0.014197
 493	2.4600e-01	19.7048	38.940840	0.000160	1.601524	0.542611	0.013085
 494	2.4650e-01	19.7690	39.001991	0.000150	1.496850	0.507146	0.012230
 495	2.4700e-01	19.8091	39.063996	0.000152	1.517785	0.514239	0.012401
 496	2.4750e-01	19.8476	39.126430	0.000153	1.528252	0.517786	0.012487
 497	2.4800e-01	19.8764	39.191856	0.000160	1.601524	0.542611	0.013085
 498	2.4850e-01	19.9101	39.261559	0.000171	1.706199	0.578076	0.013941
 499	2.4900e-01	19.9551	39.317578	0.000137	1.371240	0.464589	0.011204
 500	2.4950e-01	20.0064	39.388992	0.000175	1.748069	0.592262	0.014283
 501	2.5000e-01	20.0337	39.456984	0.000166	1.664329	0.563890	0.013598
 502	2.5050e-01	20.0000	39.491622	-0.000085	-0.847866	-0.287265	0.006928
 503	2.5100e-01	19.9246	39.493332	-0.000004	-0.041870	-0.014186	0.000342
 504	2.5150e-01	19.8973	39.467675	0.000063	0.628049	0.212789	-0.005132
 505	2.5200e-01	19.8668	39.425767	0.000103	1.025813	0.347555	-0.008381
 506	2.5250e-01	19.8347	39.377018	0.000119	1.193293	0.404299	-0.009750
 507	2.5300e-01	19.7577	39.326131	0.000125	1.245630	0.422031	-0.010177
 508	2.5350e-01	19.7192	39.279947	0.000113	1.130488	0.383020	-0.009237
 509	2.5400e-01	19.7128	39.224356	0.000136	1.360772	0.461042	-0.011118
 510	2.5450e-01	19.6631	39.162778	0.000151	1.507317	0.510693	-0.012316
 511	2.5500e-01	19.6230	39.110180	0.000129	1.287500	0.436217	-0.010520
 512	2.5550e-01	19.5797	39.061858	0.000118	1.182825	0.400752	-0.009664
 513	2.5600e-01	19.5363	39.004129	0.000141	1.413110	0.478775	-0.011546
 514	2.5650e-01	19.4834	38.951103	0.000130	1.297968	0.439763	-0.010605
 515	2.5700e-01	19.4754	38.894229	0.000139	1.392175	0.471682	-0.011375
 516	2.5750e-01	19.4273	38.836072	0.000142	1.423577	0.482321	-0.011631
 517	2.5800e-01	19.3968	38.774922	0.000150	1.496850	0.507146	-0.012230
 518	2.5850e-01	19.3198	38.730876	0.000108	1.078150	0.365287	-0.008809
 519	2.5900e-01	19.3021	38.673147	0.000141	1.413110	0.478775	-0.011546
 520	2.5950e-01	19.2620	38.623970	0.000120	1.203760	0.407845	-0.009835
 521	2.6000e-01	19.2267	38.564958	0.000144	1.444512	0.489414	-0.011802
 522	2.6050e-01	19.2171	38.502524	0.000153	1.528252	0.517786	-0.012487
 523	2.6100e-01	19.1545	38.452065	0.000124	1.235163	0.418484	-0.010092
 524	2.6150e-01	19.0968	38.396046	0.000137	1.371240	0.464589	-0.011204
 525	2.6200e-01	19.0438	38.337033	0.000144	1.444512	0.489414	-0.011802
 526	2.6250e-01	19.0246	38.282297	0.000134	1.339837	0.453949	-0.010947
 527	2.6300e-01	18.9813	38.218581	0.000156	1.559655	0.528425	-0.012743
 528	2.6350e-01	18.9027	38.174536	0.000108	1.078150	0.365287	-0.008809
 529	2.6400e-01	18.8818	38.116379	0.000142	1.423577	0.482321	-0.011631
 530	2.6450e-01	18.8545	38.050525	0.000161	1.611992	0.546158	-0.013171
 531	2.6500e-01	18.8193	37.993223	0.000140	1.402642	0.475228	-0.011460
 532	2.6550e-01	18.7840	37.934638	0.000143	1.434045	0.485868	-0.011717
 533	2.6600e-01	18.7615	37.876481	0.000142	1.423577	0.482321	-0.011631
 534	2.6650e-01	18.6813	37.822173	0.000133	1.329370	0.450403	-0.010862
 535	2.6700e-01	18.6556	37.755463	0.000163	1.632927	0.553251	-0.013342
 536	2.6750e-01	18.6300	37.694313	0.000150	1.496850	0.507146	-0.012230
 537	2.6800e-01	18.5947	37.644281	0.000122	1.224695	0.414938	-0.010006
 538	2.6850e-01	18.5578	37.575433	0.000169	1.685264	0.570983	-0.013770
 539	2.6900e-01	18.5241	37.521980	0.000131	1.308435	0.443310	-0.010691
 540	2.6950e-01	18.4567	37.475369	0.000114	1.140955	0.386566	-0.009322
 541	2.7000e-01	18.4310	37.412080	0.000155	1.549187	0.524879	-0.012658
 542	2.7050e-01	18.3749	37.348791	0.000155	1.549187	0.524879	-0.012658
 543	2.7100e-01	18.3364	37.291917	0.000139	1.392175	0.471682	-0.011375
 544	2.7150e-01	18.3139	37.227346	0.000158	1.580590	0.535518	-0.012914
 545	2.7200e-01	18.2642	37.170472	0.000139	1.392175	0.471682	-0.011375
 546	2.7250e-01	18.2096	37.109321	0.000150	1.496850	0.507146	-0.012230
 547	2.7300e-01	18.1727	37.053302	0.000137	1.371240	0.464589	-0.011204
 548	2.7350e-01	18.1375	36.998139	0.000135	1.350305	0.457496	-0.011033
 549	2.7400e-01	18.0925	36.938271	0.000147	1.465447	0.496507	-0.011974
 550	2.7450e-01	18.0797	36.878404	0.000147	1.465447	0.496507	-0.011974
 551	2.7500e-01	18.0444	36.812977	0.000160	1.601524	0.542611	-0.013085
 552	2.7550e-01	17.9722	36.759951	0.000130	1.297968	0.439763	-0.010605
 553	2.7600e-01	17.9385	36.697946	0.000152	1.517785	0.514239	-0.012401
 554	2.7650e-01	17.9016	36.639789	0.000142	1.423577	0.482321	-0.011631
 555	2.7700e-01	17.8615	36.579494	0.000148	1.475915	0.500053	-0.012059
 556	2.7750e-01	17.7974	36.519198	0.000148	1.475915	0.500053	-0.012059
 557	2.7800e-01	17.7524	36.458476	0.000149	1.486382	0.503600	-0.012145
 558	2.7850e-01	17.7444	36.393477	0.000159	1.591057	0.539065	-0.013000
 559	2.7900e-01	17.6851	36.339596	0.000132	1.318903	0.446856	-0.010776
 560	2.7950e-01	17.6530	36.280156	0.000145	1.454980	0.492960	-0.011888
 561	2.8000e-01	17.6097	36.213874	0.000162	1.622459	0.549704	-0.013256
 562	2.8050e-01	17.5680	36.149730	0.000157	1.570122	0.531972	-0.012829
 563	2.8100e-01	17.5343	36.093711	0.000137	1.371240	0.464589	-0.011204
 564	2.8150e-01	17.4974	36.032133	0.000151	1.507317	0.510693	-0.012316
 565	2.8200e-01	17.4332	35.974831	0.000140	1.402642	0.475228	-0.011460
 566	2.8250e-01	17.4172	35.915819	0.000144	1.444512	0.489414	-0.011802
 567	2.8300e-01	17.3819	35.846544	0.000170	1.695732	0.574529	-0.013855
 568	2.8350e-01	17.3385	35.790525	0.000137	1.371240	0.464589	-0.011204
 569	2.8400e-01	17.2872	35.729375	0.000150	1.496850	0.507146	-0.012230
 570	2.8450e-01	17.2615	35.668224	0.000150	1.496850	0.507146	-0.012230
 571	2.8500e-01	17.2086	35.605791	0.000153	1.528252	0.517786	-0.012487
 572	2.8550e-01	17.1910	35.542930	0.000154	1.538720	0.521332	-0.012572
 573	2.8600e-01	17.1348	35.485201	0.000141	1.413110	0.478775	-0.011546
 574	2.8650e-01	17.0755	35.421057	0.000157	1.570122	0.531972	-0.012829
 575	2.8700e-01	17.0450	35.361189	0.000147	1.465447	0.496507	-0.011974
 576	2.8750e-01	17.0273	35.300894	0.000148	1.475915	0.500053	-0.012059
 577	2.8800e-01	16.9840	35.234612	0.000162	1.622459	0.549704	-0.013256
 578	2.8850e-01	16.9311	35.175172	0.000145	1.454980	0.492960	-0.011888
 579	2.8900e-01	16.9166	35.113167	0.000152	1.517785	0.514239	-0.012401
 580	2.8950e-01	16.8364	35.053299	0.000147	1.465447	0.496507	-0.011974
 581	2.9000e-01	16.8108	34.986162	0.000164	1.643394	0.556797	-0.013427
 582	2.9050e-01	16.7995	34.925011	0.000150	1.496850	0.507146	-0.012230
 583	2.9100e-01	16.7498	34.864716	0.000148	1.475915	0.500053	-0.012059
 584	2.9150e-01	16.6920	34.808697	0.000137	1.371240	0.464589	-0.011204
 585	2.9200e-01	16.6696	34.735146	0.000180	1.800407	0.609994	-0.014710
 586	2.9250e-01	16.6150	34.676561	0.000143	1.434045	0.485868	-0.011717
 587	2.9300e-01	16.5878	34.612417	0.000157	1.570122	0.531972	-0.012829
 588	2.9350e-01	16.5156	34.552122	0.000148	1.475915	0.500053	-0.012059
 589	2.9400e-01	16.4963	34.492255	0.000147	1.465447	0.496507	-0.011974
 590	2.9450e-01	16.4626	34.422552	0.000171	1.706199	0.578076	-0.013941
 591	2.9500e-01	16.4145	34.363539	0.000144	1.444512	0.489414	-0.011802
 592	2.9550e-01	16.3584	34.299823	0.000156	1.559655	0.528425	-0.012743
 593	2.9600e-01	16.3231	34.237390	0.000153	1.528252	0.517786	-0.012487
 594	2.9650e-01	16.2830	34.175384	0.000152	1.517785	0.514239	-0.012401
 595	2.9700e-01	16.2605	34.110813	0.000158	1.580590	0.535518	-0.012914
 596	2.9750e-01	16.2348	34.042820	0.000166	1.664329	0.563890	-0.013598
 597	2.9800e-01	16.1771	33.982098	0.000149	1.486382	0.503600	-0.012145
 598	2.9850e-01	16.1578	33.906408	0.000185	1.852744	0.627727	-0.015138
 599	2.9900e-01	16.1017	33.852100	0.000133	1.329370	0.450403	-0.010862
 600	2.9950e-01	16.0760	33.792660	0.000145	1.454980	0.492960	-0.011888
 601	3.0000e-01	15.9862	33.728088	0.000158	1.580590	0.535518	-0.012914
 602	3.0050e-01	15.9605	33.663089	0.000159	1.591057	0.539065	-0.013000
 603	3.0100e-01	15.9493	33.599801	0.000155	1.549187	0.524879	-0.012658
 604	3.0150e-01	15.8947	33.532236	0.000165	1.653862	0.560344	-0.013513
 605	3.0200e-01	15.8675	33.467237	0.000159	1.591057	0.539065	-0.013000
 606	3.0250e-01	15.8097	33.409080	0.000142	1.423577	0.482321	-0.011631
 607	3.0300e-01	15.7776	33.347074	0.000152	1.517785	0.514239	-0.012401
 608	3.0350e-01	15.7584	33.275661	0.000175	1.748069	0.592262	-0.014283
 609	3.0400e-01	15.7054	33.212372	0.000155	1.549187	0.524879	-0.012658
 610	3.0450e-01	15.6685	33.151222	0.000150	1.496850	0.507146	-0.012230
 611	3.0500e-01	15.6220	33.076387	0.000183	1.831809	0.620634	-0.014967
 612	3.0550e-01	15.5643	33.021651	0.000134	1.339837	0.453949	-0.010947
 613	3.0600e-01	15.5290	32.960073	0.000151	1.507317	0.510693	-0.012316
 614	3.0650e-01	15.5193	32.883528	0.000187	1.873679	0.634820	-0.015309
 615	3.0700e-01	15.4568	32.825371	0.000142	1.423577	0.482321	-0.011631
 616	3.0750e-01	15.4472	32.754386	0.000174	1.737602	0.588715	-0.014197
 617	3.0800e-01	15.3669	32.697511	0.000139	1.392175	0.471682	-0.011375
 618	3.0850e-01	15.3333	32.625670	0.000176	1.758537	0.595808	-0.014368
 619	3.0900e-01	15.2899	32.561099	0.000158	1.580590	0.535518	-0.012914
 620	3.0950e-01	15.2402	32.497383	0.000156	1.559655	0.528425	-0.012743
 621	3.1000e-01	15.2001	32.436660	0.000149	1.486382	0.503600	-0.012145
 622	3.1050e-01	15.1440	32.369095	0.000165	1.653862	0.560344	-0.013513
 623	3.1100e-01	15.1327	32.304951	0.000157	1.570122	0.531972	-0.012829
 624	3.1150e-01	15.0718	32.237387	0.000165	1.653862	0.560344	-0.013513
 625	3.1200e-01	15.0477	32.169394	0.000166	1.664329	0.563890	-0.013598
 626	3.1250e-01	15.0349	32.100119	0.000170	1.695732	0.574529	-0.013855
 627	3.1300e-01	14.9964	32.036830	0.000155	1.549187	0.524879	-0.012658
 628	3.1350e-01	14.9338	31.970121	0.000163	1.632927	0.553251	-0.013342
 629	3.1400e-01	14.8889	31.910253	0.000147	1.465447	0.496507	-0.011974
 630	3.1450e-01	14.8600	31.835846	0.000182	1.821342	0.617087	-0.014881
 631	3.1500e-01	14.8151	31.778545	0.000140	1.402642	0.475228	-0.011460
 632	3.1550e-01	14.7670	31.707559	0.000174	1.737602	0.588715	-0.014197
 633	3.1600e-01	14.7670	31.633580	0.000181	1.810874	0.613541	-0.014796
 634	3.1650e-01	14.6835	31.568581	0.000159	1.591057	0.539065	-0.013000
 635	3.1700e-01	14.6338	31.510851	0.000141	1.413110	0.478775	-0.011546
 636	3.1750e-01	14.6146	31.438583	0.000177	1.769004	0.599355	-0.014454
 637	3.1800e-01	14.5761	31.375722	0.000154	1.538720	0.521332	-0.012572
 638	3.1850e-01	14.5440	31.300887	0.000183	1.831809	0.620634	-0.014967
 639	3.1900e-01	14.4958	31.242730	0.000142	1.423577	0.482321	-0.011631
 640	3.1950e-01	14.4670	31.176876	0.000161	1.611992	0.546158	-0.013171
 641	3.2000e-01	14.4076	31.107601	0.000170	1.695732	0.574529	-0.013855
 642	3.2050e-01	14.3723	31.040036	0.000165	1.653862	0.560344	-0.013513
 643	3.2100e-01	14.3049	30.973754	0.000162	1.622459	0.549704	-0.013256
 644	3.2150e-01	14.3098	30.910465	-0.000155	-1.549187	-0.524879	-0.012658
 645	3.2200e-01	14.2520	30.837769	0.000178	1.779472	0.602901	-0.014539
 646	3.2250e-01	14.2376	30.769349	0.000167	1.674797	0.567437	-0.013684
 647	3.2300e-01	14.1541	30.710764	0.000143	1.434045	0.485868	-0.011717
 648	3.2350e-01	14.1461	30.634647	0.000186	1.863211	0.631273	-0.015223
 649	3.2400e-01	14.0755	30.569648	0.000159	1.591057	0.539065	-0.013000
 650	3.2450e-01	14.0322	30.506359	0.000155	1.549187	0.524879	-0.012658
 651	3.2500e-01	14.0050	30.430242	0.000186	1.863211	0.631273	-0.015223
 652	3.2550e-01	13.9681	30.362250	0.000166	1.664329	0.563890	-0.013598
 653	3.2600e-01	13.9344	30.302382	0.000147	1.465447	0.496507	-0.011974
 654	3.2650e-01	13.9071	30.235245	0.000164	1.643394	0.556797	-0.013427
 655	3.2700e-01	13.8750	30.161693	0.000180	1.800407	0.609994	-0.014710
 656	3.2750e-01	13.8205	30.094556	0.000164	1.643394	0.556797	-0.013427
 657	3.2800e-01	13.7627	30.024426	0.000172	1.716667	0.581622	-0.014026
 658	3.2850e-01	13.7242	29.958999	0.000160	1.601524	0.542611	-0.013085
 659	3.2900e-01	13.6985	29.897849	0.000150	1.496850	0.507146	-0.012230
 660	3.2950e-01	13.6649	29.821731	0.000186	1.863211	0.631273	-0.015223
 661	3.3000e-01	13.6167	29.753311	0.000167	1.674797	0.567437	-0.013684
 662	3.3050e-01	13.5959	29.678905	0.000182	1.821342	0.617087	-0.014881
 663	3.3100e-01	13.5526	29.607919	0.000174	1.737602	0.588715	-0.014197
 664	3.3150e-01	13.4852	29.545913	0.000152	1.517785	0.514239	-0.012401
 665	3.3200e-01	13.4643	29.479204	0.000163	1.632927	0.553251	-0.013342
 666	3.3250e-01	13.4258	29.403086	0.000186	1.863211	0.631273	-0.015223
 667	3.3300e-01	13.3665	29.338087	0.000159	1.591057	0.539065	-0.013000
 668	3.3350e-01	13.3392	29.270522	0.000165	1.653862	0.560344	-0.013513
 669	3.3400e-01	13.3039	29.209800	0.000149	1.486382	0.503600	-0.012145
 670	3.3450e-01	13.2702	29.136676	0.000179	1.789939	0.606448	-0.014625
 671	3.3500e-01	13.2333	29.064835	0.000176	1.758537	0.595808	-0.014368
 672	3.3550e-01	13.1563	28.995987	0.000169	1.685264	0.570983	-0.013770
 673	3.3600e-01	13.1579	28.927567	-0.000167	-1.674797	-0.567437	-0.013684
 674	3.3650e-01	13.0921	28.858719	0.000169	1.685264	0.570983	-0.013770
 675	3.3700e-01	13.0649	28.793720	0.000159	1.591057	0.539065	-0.013000
 676	3.3750e-01	12.9975	28.727011	0.000163	1.632927	0.553251	-0.013342
 677	3.3800e-01	12.9943	28.647045	0.000196	1.957419	0.663191	-0.015993
 678	3.3850e-01	12.9237	28.585039	0.000152	1.517785	0.514239	-0.012401
 679	3.3900e-01	12.9237	28.499086	0.000210	2.103964	0.712842	-0.017191
 680	3.3950e-01	12.8435	28.444350	0.000134	1.339837	0.453949	-0.010947
 681	3.4000e-01	12.8146	28.381917	0.000153	1.528252	0.517786	-0.012487
 682	3.4050e-01	12.7809	28.307938	0.000181	1.810874	0.613541	-0.014796
 683	3.4100e-01	12.7360	28.231821	0.000186	1.863211	0.631273	-0.015223
 684	3.4150e-01	12.6863	28.173664	0.000142	1.423577	0.482321	-0.011631
 685	3.4200e-01	12.6398	28.100540	0.000179	1.789939	0.606448	-0.014625
 686	3.4250e-01	12.6173	28.022712	0.000191	1.905081	0.645459	-0.015566
 687	3.4300e-01	12.5515	27.961134	0.000151	1.507317	0.510693	-0.012316
 688	3.4350e-01	12.5515	27.882878	0.000192	1.915549	0.649006	-0.015651
 689	3.4400e-01	12.5162	27.811037	0.000176	1.758537	0.595808	-0.014368
 690	3.4450e-01	12.4633	27.743900	0.000164	1.643394	0.556797	-0.013427
 691	3.4500e-01	12.4071	27.681467	0.000153	1.528252	0.517786	-0.012487
 692	3.4550e-01	12.3847	27.607488	0.000181	1.810874	0.613541	-0.014796
 693	3.4600e-01	12.3157	27.535219	0.000177	1.769004	0.599355	-0.014454
 694	3.4650e-01	12.2980	27.459957	0.000184	1.842277	0.624180	-0.015052
 695	3.4700e-01	12.2644	27.389826	0.000172	1.716667	0.581622	-0.014026
 696	3.4750e-01	12.2082	27.311571	0.000192	1.915549	0.649006	-0.015651
 697	3.4800e-01	12.1537	27.252986	0.000143	1.434045	0.485868	-0.011717
 698	3.4850e-01	12.1505	27.173448	0.000195	1.946951	0.659645	-0.015908
 699	3.4900e-01	12.1168	27.103745	0.000171	1.706199	0.578076	-0.013941
 700	3.4950e-01	12.0462	27.033187	0.000173	1.727134	0.585169	-0.014112
 701	3.5000e-01	12.0125	26.963912	0.000170	1.695732	0.574529	-0.013855
 702	3.5050e-01	11.9692	26.888222	0.000185	1.852744	0.627727	-0.015138
 703	3.5100e-01	11.9114	26.820230	0.000166	1.664329	0.563890	-0.013598
 704	3.5150e-01	11.8842	26.747533	0.000178	1.779472	0.602901	-0.014539
 705	3.5200e-01	11.8505	26.679541	0.000166	1.664329	0.563890	-0.013598
 706	3.5250e-01	11.8055	26.607272	0.000177	1.769004	0.599355	-0.014454
 707	3.5300e-01	11.7767	26.537142	0.000172	1.716667	0.581622	-0.014026
 708	3.5350e-01	11.7590	26.461024	0.000186	1.863211	0.631273	-0.015223
 709	3.5400e-01	11.6916	26.389183	0.000176	1.758537	0.595808	-0.014368
 710	3.5450e-01	11.6499	26.316487	0.000178	1.779472	0.602901	-0.014539
 711	3.5500e-01	11.6162	26.248067	0.000167	1.674797	0.567437	-0.013684
 712	3.5550e-01	11.5858	26.168529	0.000195	1.946951	0.659645	-0.015908
 713	3.5600e-01	11.5296	26.103957	0.000158	1.580590	0.535518	-0.012914
 714	3.5650e-01	11.4991	26.027412	0.000187	1.873679	0.634820	-0.015309
 715	3.5700e-01	11.4590	25.957709	0.000171	1.706199	0.578076	-0.013941
 716	3.5750e-01	11.4302	25.879882	0.000191	1.905081	0.645459	-0.015566
 717	3.5800e-01	11.3804	25.808041	0.000176	1.758537	0.595808	-0.014368
 718	3.5850e-01	11.3371	25.740048	0.000166	1.664329	0.563890	-0.013598
 719	3.5900e-01	11.3355	25.659227	0.000198	1.978354	0.670284	-0.016164
 720	3.5950e-01	11.2729	25.591662	0.000165	1.653862	0.560344	-0.013513
 721	3.6000e-01	11.2168	25.524097	0.000165	1.653862	0.560344	-0.013513
 722	3.6050e-01	11.1783	25.442421	0.000200	1.999289	0.677377	-0.016335
 723	3.6100e-01	11.1510	25.368014	0.000182	1.821342	0.617087	-0.014881
 724	3.6150e-01	11.0885	25.293607	0.000182	1.821342	0.617087	-0.014881
 725	3.6200e-01	11.0692	25.219628	0.000181	1.810874	0.613541	-0.014796
 726	3.6250e-01	11.0307	25.147360	0.000177	1.769004	0.599355	-0.014454
 727	3.6300e-01	10.9681	25.074663	0.000178	1.779472	0.602901	-0.014539
 728	3.6350e-01	10.9200	25.006243	0.000167	1.674797	0.567437	-0.013684
 729	3.6400e-01	10.9072	24.925850	0.000197	1.967886	0.666738	-0.016079
 730	3.6450e-01	10.8767	24.850588	0.000184	1.842277	0.624180	-0.015052
 731	3.6500e-01	10.8093	24.778319	0.000177	1.769004	0.599355	-0.014454
 732	3.6550e-01	10.8013	24.700491	0.000191	1.905081	0.645459	-0.015566
 733	3.6600e-01	10.7644	24.632071	0.000167	1.674797	0.567437	-0.013684
 734	3.6650e-01	10.7099	24.555954	0.000186	1.863211	0.631273	-0.015223
 735	3.6700e-01	10.6633	24.475133	0.000198	1.978354	0.670284	-0.016164
 736	3.6750e-01	10.5944	24.409278	0.000161	1.611992	0.546158	-0.013171
 737	3.6800e-01	10.5639	24.337865	0.000175	1.748069	0.592262	-0.014283
 738	3.6850e-01	10.5623	24.245498	0.000226	2.260976	0.766039	-0.018473
 739	3.6900e-01	10.4949	24.178361	0.000164	1.643394	0.556797	-0.013427
 740	3.6950e-01	10.4644	24.104381	0.000181	1.810874	0.613541	-0.014796
 741	3.7000e-01	10.4083	24.026554	0.000191	1.905081	0.645459	-0.015566
 742	3.7050e-01	10.3698	23.949581	0.000188	1.884146	0.638366	-0.015395
 743	3.7100e-01	10.3184	23.879451	0.000172	1.716667	0.581622	-0.014026
 744	3.7150e-01	10.2847	23.810175	0.000170	1.695732	0.574529	-0.013855
 745	3.7200e-01	10.2270	23.728071	0.000201	2.009756	0.680924	-0.016421
 746	3.7250e-01	10.2190	23.655803	0.000177	1.769004	0.599355	-0.014454
 747	3.7300e-01	10.1708	23.582251	0.000180	1.800407	0.609994	-0.014710
 748	3.7350e-01	10.1195	23.506134	0.000186	1.863211	0.631273	-0.015223
 749	3.7400e-01	10.0922	23.432155	0.000181	1.810874	0.613541	-0.014796
 750	3.7450e-01	10.0585	23.360314	0.000176	1.758537	0.595808	-0.014368
 751	3.7500e-01	10.0329	23.274788	0.000209	2.093496	0.709296	-0.017105
 752	3.7550e-01	9.9880	23.203375	0.000175	1.748069	0.592262	-0.014283
 753	3.7600e-01	9.9478	23.122981	0.000197	1.967886	0.666738	-0.016079
 754	3.7650e-01	9.9142	23.046437	0.000187	1.873679	0.634820	-0.015309
 755	3.7700e-01	9.8500	22.974168	0.000177	1.769004	0.599355	-0.014454
 756	3.7750e-01	9.8259	22.890781	0.000204	2.041159	0.691563	-0.016677
 757	3.7800e-01	9.7569	22.815947	0.000183	1.831809	0.620634	-0.014967
 758	3.7850e-01	9.7425	22.747526	0.000167	1.674797	0.567437	-0.013684
 759	3.7900e-01	9.7249	22.656870	0.000222	2.219106	0.751853	-0.018131
 760	3.7950e-01	9.6543	22.586739	0.000172	1.716667	0.581622	-0.014026
 761	3.8000e-01	9.6142	22.504635	0.000201	2.009756	0.680924	-0.016421
 762	3.8050e-01	9.5741	22.438353	0.000162	1.622459	0.549704	-0.013256
 763	3.8100e-01	9.5211	22.363519	0.000183	1.831809	0.620634	-0.014967
 764	3.8150e-01	9.5099	22.277566	0.000210	2.103964	0.712842	-0.017191
 765	3.8200e-01	9.4425	22.206581	0.000174	1.737602	0.588715	-0.014197
 766	3.8250e-01	9.4120	22.128325	0.000192	1.915549	0.649006	-0.015651
 767	3.8300e-01	9.3783	22.044938	0.000204	2.041159	0.691563	-0.016677
 768	3.8350e-01	9.3302	21.974380	0.000173	1.727134	0.585169	-0.014112
 769	3.8400e-01	9.2917	21.894842	0.000195	1.946951	0.659645	-0.015908
 770	3.8450e-01	9.2564	21.815303	0.000195	1.946951	0.659645	-0.015908
 771	3.8500e-01	9.1906	21.749449	0.000161	1.611992	0.546158	-0.013171
 772	3.8550e-01	9.1730	21.672477	0.000188	1.884146	0.638366	-0.015395
 773	3.8600e-01	9.1393	21.585669	0.000212	2.124898	0.719935	-0.017362
 774	3.8650e-01	9.0992	21.501426	0.000206	2.062094	0.698656	-0.016848
 775	3.8700e-01	9.0495	21.436855	0.000158	1.580590	0.535518	-0.012914
 776	3.8750e-01	8.9965	21.361593	0.000184	1.842277	0.624180	-0.015052
 777	3.8800e-01	8.9869	21.275213	0.000211	2.114431	0.716389	-0.017276
 778	3.8850e-01	8.9468	21.194391	0.000198	1.978354	0.670284	-0.016164
 779	3.8900e-01	8.9003	21.121268	0.000179	1.789939	0.606448	-0.014625
 780	3.8950e-01	8.8489	21.043867	0.000189	1.894614	0.641913	-0.015480
 781	3.9000e-01	8.8104	20.968178	0.000185	1.852744	0.627727	-0.015138
 782	3.9050e-01	8.7944	20.886929	0.000199	1.988821	0.673831	-0.016250
 783	3.9100e-01	8.7206	20.810812	0.000186	1.863211	0.631273	-0.015223
 784	3.9150e-01	8.7094	20.723148	0.000215	2.145833	0.727028	-0.017533
 785	3.9200e-01	8.6548	20.648742	0.000182	1.821342	0.617087	-0.014881
 786	3.9250e-01	8.6244	20.567920	0.000198	1.978354	0.670284	-0.016164
 787	3.9300e-01	8.5586	20.499500	0.000167	1.674797	0.567437	-0.013684
 788	3.9350e-01	8.5297	20.408844	0.000222	2.219106	0.751853	-0.018131
 789	3.9400e-01	8.4864	20.333154	0.000185	1.852744	0.627727	-0.015138
 790	3.9450e-01	8.4511	20.254899	0.000192	1.915549	0.649006	-0.015651
 791	3.9500e-01	8.4046	20.174933	0.000196	1.957419	0.663191	-0.015993
 792	3.9550e-01	8.3709	20.094112	0.000198	1.978354	0.670284	-0.016164
 793	3.9600e-01	8.3629	20.013290	0.000198	1.978354	0.670284	-0.016164
 794	3.9650e-01	8.3244	19.927338	0.000210	2.103964	0.712842	-0.017191
 795	3.9700e-01	8.2602	19.848227	0.000194	1.936484	0.656098	-0.015822
 796	3.9750e-01	8.2201	19.775958	0.000177	1.769004	0.599355	-0.014454
 797	3.9800e-01	8.1688	19.686157	0.000220	2.198171	0.744760	-0.017960
 798	3.9850e-01	8.1655	19.610895	0.000184	1.842277	0.624180	-0.015052
 799	3.9900e-01	8.1094	19.527936	0.000203	2.030691	0.688017	-0.016592
 800	3.9950e-01	8.0901	19.441555	0.000211	2.114431	0.716389	-0.017276
 801	4.0000e-01	7.9939	19.375274	0.000162	1.622459	0.549704	-0.013256
 802	4.0050e-01	7.9714	19.291459	0.000205	2.051626	0.695110	-0.016763
 803	4.0100e-01	7.9217	19.208927	0.000202	2.020224	0.684470	-0.016506
 804	4.0150e-01	7.8976	19.131100	0.000191	1.905081	0.645459	-0.015566
 805	4.0200e-01	7.8591	19.050706	0.000197	1.967886	0.666738	-0.016079
 806	4.0250e-01	7.8174	18.969457	0.000199	1.988821	0.673831	-0.016250
 807	4.0300e-01	7.7773	18.888636	0.000198	1.978354	0.670284	-0.016164
 808	4.0350e-01	7.7388	18.806532	0.000201	2.009756	0.680924	-0.016421
 809	4.0400e-01	7.7035	18.718869	0.000215	2.145833	0.727028	-0.017533
 810	4.0450e-01	7.6345	18.658146	0.000149	1.486382	0.503600	-0.012145
 811	4.0500e-01	7.6121	18.565779	0.000226	2.260976	0.766039	-0.018473
 812	4.0550e-01	7.5832	18.478543	0.000214	2.135366	0.723482	-0.017447
 813	4.0600e-01	7.5303	18.404564	0.000181	1.810874	0.613541	-0.014796
 814	4.0650e-01	7.4998	18.318612	0.000210	2.103964	0.712842	-0.017191
 815	4.0700e-01	7.4757	18.232231	0.000211	2.114431	0.716389	-0.017276
 816	4.0750e-01	7.4340	18.149700	0.000202	2.020224	0.684470	-0.016506
 817	4.0800e-01	7.3859	18.068023	0.000200	1.999289	0.677377	-0.016335
 818	4.0850e-01	7.3442	17.980360	0.000215	2.145833	0.727028	-0.017533
 819	4.0900e-01	7.2944	17.902960	0.000189	1.894614	0.641913	-0.015480
 820	4.0950e-01	7.2255	17.822994	0.000196	1.957419	0.663191	-0.015993
 821	4.1000e-01	7.2094	17.728061	0.000232	2.323781	0.787318	-0.018987
 822	4.1050e-01	7.1565	17.661351	0.000163	1.632927	0.553251	-0.013342
 823	4.1100e-01	7.1388	17.570267	0.000223	2.229573	0.755400	-0.018217
 824	4.1150e-01	7.0891	17.488163	0.000201	2.009756	0.680924	-0.016421
 825	4.1200e-01	7.0474	17.408625	0.000195	1.946951	0.659645	-0.015908
 826	4.1250e-01	7.0378	17.315830	0.000227	2.271443	0.769586	-0.018559
 827	4.1300e-01	6.9672	17.237147	0.000193	1.926016	0.652552	-0.015737
 828	4.1350e-01	6.9624	17.148629	0.000217	2.166768	0.734121	-0.017704
 829	4.1400e-01	6.8773	17.064814	0.000205	2.051626	0.695110	-0.016763
 830	4.1450e-01	6.8517	16.992546	0.000177	1.769004	0.599355	-0.014454
 831	4.1500e-01	6.8116	16.902744	0.000220	2.198171	0.744760	-0.017960
 832	4.1550e-01	6.7955	16.818502	0.000206	2.062094	0.698656	-0.016848
 833	4.1600e-01	6.7282	16.733405	0.000208	2.083029	0.705749	-0.017019
 834	4.1650e-01	6.6897	16.653439	0.000196	1.957419	0.663191	-0.015993
 835	4.1700e-01	6.6495	16.568341	0.000208	2.083029	0.705749	-0.017019
 836	4.1750e-01	6.6062	16.487948	0.000197	1.967886	0.666738	-0.016079
 837	4.1800e-01	6.5437	16.403706	0.000206	2.062094	0.698656	-0.016848
 838	4.1850e-01	6.5517	16.318180	-0.000209	-2.093496	-0.709296	-0.017105
 839	4.1900e-01	6.4955	16.233511	0.000207	2.072561	0.702203	-0.016934
 840	4.1950e-01	6.4827	16.133446	0.000245	2.449390	0.829876	-0.020013
 841	4.2000e-01	6.3945	16.072724	0.000149	1.486382	0.503600	-0.012145
 842	4.2050e-01	6.3720	15.982067	0.000222	2.219106	0.751853	-0.018131
 843	4.2100e-01	6.3367	15.893121	0.000218	2.177236	0.737667	-0.017789
 844	4.2150e-01	6.3287	15.811017	0.000201	2.009756	0.680924	-0.016421
 845	4.2200e-01	6.2517	15.734900	0.000186	1.863211	0.631273	-0.015223
 846	4.2250e-01	6.2437	15.642533	0.000226	2.260976	0.766039	-0.018473
 847	4.2300e-01	6.1779	15.562567	0.000196	1.957419	0.663191	-0.015993
 848	4.2350e-01	6.1201	15.482601	0.000196	1.957419	0.663191	-0.015993
 849	4.2400e-01	6.0881	15.388951	0.000229	2.292378	0.776679	-0.018730
 850	4.2450e-01	6.0383	15.312406	0.000187	1.873679	0.634820	-0.015309
 851	4.2500e-01	5.9822	15.226881	0.000209	2.093496	0.709296	-0.017105
 852	4.2550e-01	5.9934	15.141783	-0.000208	-2.083029	-0.705749	-0.017019
 853	4.2600e-01	5.9325	15.053693	0.000216	2.156301	0.730575	-0.017618
 854	4.2650e-01	5.9084	14.968595	0.000208	2.083029	0.705749	-0.017019
 855	4.2700e-01	5.8763	14.880504	0.000216	2.156301	0.730575	-0.017618
 856	4.2750e-01	5.8442	14.785144	0.000233	2.334248	0.790865	-0.019072
 857	4.2800e-01	5.7672	14.700902	0.000206	2.062094	0.698656	-0.016848
 858	4.2850e-01	5.7640	14.614094	0.000212	2.124898	0.719935	-0.017362
 859	4.2900e-01	5.6710	14.530707	0.000204	2.041159	0.691563	-0.016677
 860	4.2950e-01	5.6517	14.441333	0.000219	2.187703	0.741214	-0.017875
 861	4.3000e-01	5.6068	14.355808	0.000209	2.093496	0.709296	-0.017105
 862	4.3050e-01	5.5619	14.274132	0.000200	1.999289	0.677377	-0.016335
 863	4.3100e-01	5.5266	14.181337	0.000227	2.271443	0.769586	-0.018559
 864	4.3150e-01	5.4817	14.098378	0.000203	2.030691	0.688017	-0.016592
 865	4.3200e-01	5.4416	14.013280	0.000208	2.083029	0.705749	-0.017019
 866	4.3250e-01	5.4159	13.914926	0.000241	2.407520	0.815690	-0.019671
 867	4.3300e-01	5.3726	13.840520	0.000182	1.821342	0.617087	-0.014881
 868	4.3350e-01	5.3597	13.740883	0.000244	2.438923	0.826329	-0.019927
 869	4.3400e-01	5.2811	13.652792	0.000216	2.156301	0.730575	-0.017618
 870	4.3450e-01	5.2362	13.573681	0.000194	1.936484	0.656098	-0.015822
 871	4.3500e-01	5.2362	13.477038	0.000237	2.365651	0.801504	-0.019329
 872	4.3550e-01	5.1897	13.390658	0.000211	2.114431	0.716389	-0.017276
 873	4.3600e-01	5.1255	13.305560	0.000208	2.083029	0.705749	-0.017019
 874	4.3650e-01	5.1031	13.221318	0.000206	2.062094	0.698656	-0.016848
 875	4.3700e-01	5.0549	13.128524	0.000227	2.271443	0.769586	-0.018559
 876	4.3750e-01	4.9795	13.047275	0.000199	1.988821	0.673831	-0.016250
 877	4.3800e-01	4.9844	12.947638	-0.000244	-2.438923	-0.826329	-0.019927
 878	4.3850e-01	4.9378	12.861258	0.000211	2.114431	0.716389	-0.017276
 879	4.3900e-01	4.8945	12.767608	0.000229	2.292378	0.776679	-0.018730
 880	4.3950e-01	4.8608	12.677379	0.000221	2.208638	0.748307	-0.018046
 881	4.4000e-01	4.8047	12.589288	0.000216	2.156301	0.730575	-0.017618
 882	4.4050e-01	4.7822	12.497349	0.000225	2.250508	0.762493	-0.018388
 883	4.4100e-01	4.7229	12.406692	0.000222	2.219106	0.751853	-0.018131
 884	4.4150e-01	4.6763	12.323733	0.000203	2.030691	0.688017	-0.016592
 885	4.4200e-01	4.6731	12.230938	0.000227	2.271443	0.769586	-0.018559
 886	4.4250e-01	4.6170	12.134295	0.000237	2.365651	0.801504	-0.019329
 887	4.4300e-01	4.5560	12.052618	0.000200	1.999289	0.677377	-0.016335
 888	4.4350e-01	4.5255	11.953837	0.000242	2.417988	0.819236	-0.019756
 889	4.4400e-01	4.5143	11.865318	0.000217	2.166768	0.734121	-0.017704
 890	4.4450e-01	4.4405	11.772951	0.000226	2.260976	0.766039	-0.018473
 891	4.4500e-01	4.3972	11.691703	0.000199	1.988821	0.673831	-0.016250
 892	4.4550e-01	4.4229	11.588645	-0.000252	-2.522663	-0.854701	-0.020612
 893	4.4600e-01	4.3571	11.497561	0.000223	2.229573	0.755400	-0.018217
 894	4.4650e-01	4.2881	11.407332	0.000221	2.208638	0.748307	-0.018046
 895	4.4700e-01	4.2400	11.329504	0.000191	1.905081	0.645459	-0.015566
 896	4.4750e-01	4.2304	11.231578	0.000240	2.397053	0.812144	-0.019585
 897	4.4800e-01	4.1790	11.140921	0.000222	2.219106	0.751853	-0.018131
 898	4.4850e-01	4.1309	11.041712	0.000243	2.428455	0.822783	-0.019842
 899	4.4900e-01	4.1116	10.954477	0.000214	2.135366	0.723482	-0.017447
 900	4.4950e-01	4.0491	10.854840	0.000244	2.438923	0.826329	-0.019927
 901	4.5000e-01	4.0090	10.768032	0.000212	2.124898	0.719935	-0.017362
 902	4.5050e-01	3.9609	10.673527	0.000231	2.313313	0.783772	-0.018901
 903	4.5100e-01	3.9480	10.578594	0.000232	2.323781	0.787318	-0.018987
 904	4.5150e-01	3.9031	10.488365	0.000221	2.208638	0.748307	-0.018046
 905	4.5200e-01	3.8646	10.390011	0.000241	2.407520	0.815690	-0.019671
 906	4.5250e-01	3.8213	10.296789	0.000228	2.281911	0.773132	-0.018644
 907	4.5300e-01	3.7748	10.207415	0.000219	2.187703	0.741214	-0.017875
 908	4.5350e-01	3.7347	10.117186	0.000221	2.208638	0.748307	-0.018046
 909	4.5400e-01	3.7330	10.011991	0.000258	2.575000	0.872434	-0.021039
 910	4.5450e-01	3.6817	9.921762	0.000221	2.208638	0.748307	-0.018046
 911	4.5500e-01	3.6352	9.829395	0.000226	2.260976	0.766039	-0.018473
 912	4.5550e-01	3.5774	9.732324	0.000238	2.376118	0.805051	-0.019414
 913	4.5600e-01	3.5309	9.642522	0.000220	2.198171	0.744760	-0.017960
 914	4.5650e-01	3.5277	9.539465	0.000252	2.522663	0.854701	-0.020612
 915	4.5700e-01	3.4218	9.458216	0.000199	1.988821	0.673831	-0.016250
 916	4.5750e-01	3.4186	9.362000	0.000236	2.355183	0.797958	-0.019243
 917	4.5800e-01	3.3705	9.264074	0.000240	2.397053	0.812144	-0.019585
 918	4.5850e-01	3.3561	9.164010	0.000245	2.449390	0.829876	-0.020013
 919	4.5900e-01	3.2871	9.072925	0.000223	2.229573	0.755400	-0.018217
 920	4.5950e-01	3.2566	8.977993	0.000232	2.323781	0.787318	-0.018987
 921	4.6000e-01	3.2357	8.871086	0.000262	2.616870	0.886620	-0.021381
 922	4.6050e-01	3.1652	8.780857	0.000221	2.208638	0.748307	-0.018046
 923	4.6100e-01	3.1523	8.684642	0.000236	2.355183	0.797958	-0.019243
 924	4.6150e-01	3.0978	8.593985	0.000222	2.219106	0.751853	-0.018131
 925	4.6200e-01	3.0545	8.497769	0.000236	2.355183	0.797958	-0.019243
 926	4.6250e-01	3.0063	8.401981	0.000234	2.344716	0.794411	-0.019158
 927	4.6300e-01	2.9871	8.301489	0.000246	2.459858	0.833422	-0.020098
 928	4.6350e-01	2.9406	8.212116	0.000219	2.187703	0.741214	-0.017875
 929	4.6400e-01	2.8652	8.116328	0.000234	2.344716	0.794411	-0.019158
 930	4.6450e-01	2.8443	8.020540	0.000234	2.344716	0.794411	-0.019158
 931	4.6500e-01	2.8267	7.917054	0.000253	2.533130	0.858248	-0.020697
 932	4.6550e-01	2.7801	7.822549	0.000231	2.313313	0.783772	-0.018901
 933	4.6600e-01	2.7497	7.722912	0.000244	2.438923	0.826329	-0.019927
 934	4.6650e-01	2.7144	7.621138	0.000249	2.491260	0.844062	-0.020355
 935	4.6700e-01	2.6550	7.529626	0.000224	2.240041	0.758946	-0.018302
 936	4.6750e-01	2.6245	7.418871	0.000271	2.711077	0.918538	-0.022151
 937	4.6800e-01	2.5491	7.334629	0.000206	2.062094	0.698656	-0.016848
 938	4.6850e-01	2.5555	7.227722	-0.000262	-2.616870	-0.886620	-0.021381
 939	4.6900e-01	2.4946	7.124237	0.000253	2.533130	0.858248	-0.020697
 940	4.6950e-01	2.4689	7.034436	0.000220	2.198171	0.744760	-0.017960
 941	4.7000e-01	2.3951	6.938220	0.000236	2.355183	0.797958	-0.019243
 942	4.7050e-01	2.3983	6.836873	-0.000248	-2.480793	-0.840515	-0.020269
 943	4.7100e-01	2.3261	6.750065	0.000212	2.124898	0.719935	-0.017362
 944	4.7150e-01	2.2668	6.644014	0.000260	2.595935	0.879527	-0.021210
 945	4.7200e-01	2.2523	6.546515	0.000239	2.386585	0.808597	-0.019500
 946	4.7250e-01	2.2395	6.431057	0.000283	2.826220	0.957549	-0.023092
 947	4.7300e-01	2.1705	6.335696	0.000233	2.334248	0.790865	-0.019072
 948	4.7350e-01	2.1240	6.242474	0.000228	2.281911	0.773132	-0.018644
 949	4.7400e-01	2.0614	6.144120	0.000241	2.407520	0.815690	-0.019671
 950	4.7450e-01	2.0550	6.039779	0.000255	2.554065	0.865341	-0.020868
 951	4.7500e-01	2.0486	5.934156	0.000259	2.585468	0.875980	-0.021125
 952	4.7550e-01	1.9668	5.838796	0.000233	2.334248	0.790865	-0.019072
 953	4.7600e-01	1.9331	5.736165	0.000251	2.512195	0.851155	-0.020526
 954	4.7650e-01	1.8802	5.640377	0.000234	2.344716	0.794411	-0.019158
 955	4.7700e-01	1.8625	5.533471	0.000262	2.616870	0.886620	-0.021381
 956	4.7750e-01	1.8096	5.438538	0.000232	2.323781	0.787318	-0.018987
 957	4.7800e-01	1.7967	5.330777	0.000264	2.637805	0.893713	-0.021552
 958	4.7850e-01	1.7614	5.218311	0.000275	2.752947	0.932724	-0.022493
 959	4.7900e-01	1.6909	5.130220	0.000216	2.156301	0.730575	-0.017618
 960	4.7950e-01	1.6620	5.019893	0.000270	2.700610	0.914991	-0.022065
 961	4.8000e-01	1.6139	4.922395	0.000239	2.386585	0.808597	-0.019500
 962	4.8050e-01	1.5850	4.817199	0.000258	2.575000	0.872434	-0.021039
 963	4.8100e-01	1.5417	4.712858	0.000255	2.554065	0.865341	-0.020868
 964	4.8150e-01	1.4967	4.609800	0.000252	2.522663	0.854701	-0.020612
 965	4.8200e-01	1.4310	4.512302	0.000239	2.386585	0.808597	-0.019500
 966	4.8250e-01	1.4246	4.404113	0.000265	2.648272	0.897259	-0.021638
 967	4.8300e-01	1.3748	4.304476	0.000244	2.438923	0.826329	-0.019927
 968	4.8350e-01	1.3331	4.200991	0.000253	2.533130	0.858248	-0.020697
 969	4.8400e-01	1.3123	4.090663	0.000270	2.700610	0.914991	-0.022065
 970	4.8450e-01	1.2449	3.994875	0.000234	2.344716	0.794411	-0.019158
 971	4.8500e-01	1.2048	3.882837	0.000274	2.742480	0.929177	-0.022408
 972	4.8550e-01	1.1839	3.791326	0.000224	2.240041	0.758946	-0.018302
 973	4.8600e-01	1.1133	3.687840	0.000253	2.533130	0.858248	-0.020697
 974	4.8650e-01	1.1053	3.576658	0.000272	2.721545	0.922084	-0.022237
 975	4.8700e-01	1.0331	3.474883	0.000249	2.491260	0.844062	-0.020355
 976	4.8750e-01	1.0187	3.366694	0.000265	2.648272	0.897259	-0.021638
 977	4.8800e-01	0.9577	3.266629	0.000245	2.449390	0.829876	-0.020013
 978	4.8850e-01	0.9305	3.158013	0.000266	2.658740	0.900805	-0.021723
 979	4.8900e-01	0.9032	3.047258	0.000271	2.711077	0.918538	-0.022151
 980	4.8950e-01	0.8631	2.945055	0.000250	2.501728	0.847608	-0.020440
 981	4.9000e-01	0.7941	2.847984	0.000238	2.376118	0.805051	-0.019414
 982	4.9050e-01	0.7893	2.732953	0.000282	2.815752	0.954003	-0.023006
 983	4.9100e-01	0.7139	2.627757	0.000258	2.575000	0.872434	-0.021039
 984	4.9150e-01	0.6770	2.525127	0.000251	2.512195	0.851155	-0.020526
 985	4.9200e-01	0.6449	2.415655	0.000268	2.679675	0.907898	-0.021894
 986	4.9250e-01	0.5855	2.311742	0.000254	2.543598	0.861794	-0.020783
 987	4.9300e-01	0.5871	2.200132	-0.000273	-2.732012	-0.925631	-0.022322
 988	4.9350e-01	0.5150	2.094936	0.000258	2.575000	0.872434	-0.021039
 989	4.9400e-01	0.4700	1.982471	0.000275	2.752947	0.932724	-0.022493
 990	4.9450e-01	0.4636	1.876847	0.000259	2.585468	0.875980	-0.021125
 991	4.9500e-01	0.4444	1.764810	0.000274	2.742480	0.929177	-0.022408
 992	4.9550e-01	0.3369	1.666456	0.000241	2.407520	0.815690	-0.019671
 993	4.9600e-01	0.3160	1.563398	0.000252	2.522663	0.854701	-0.020612
 994	4.9650e-01	0.3096	1.445373	0.000289	2.889025	0.978828	-0.023605
 995	4.9700e-01	0.2695	1.329915	0.000283	2.826220	0.957549	-0.023092
 996	4.9750e-01	0.2406	1.215739	0.000279	2.794817	0.946910	-0.022835
 997	4.9800e-01	0.1717	1.112681	0.000252	2.522663	0.854701	-0.020612
 998	4.9850e-01	0.1315	1.000643	0.000274	2.742480	0.929177	-0.022408
 999	4.9900e-01	0.0802	0.885184	0.000283	2.826220	0.957549	-0.023092
1000	4.9950e-01	0.0610	0.778706	0.000261	2.606403	0.883073	-0.021296
1001	5.0000e-01	0.0658	0.651273	-0.000312	-3.119309	-1.056851	-0.025486
1002	5.0050e-01	-0.0401	0.567459	0.000205	2.051626	0.695110	-0.016763
1003	5.0100e-01	-0.0337	0.457559	-0.000269	-2.690142	-0.911445	-0.021980
1004	5.0150e-01	-0.0995	0.357067	0.000246	2.459858	0.833422	-0.020098
1005	5.0200e-01	-0.1556	0.254009	0.000252	2.522663	0.854701	-0.020612
1006	5.0250e-01	-0.1861	0.140689	0.000277	2.773882	0.939817	-0.022664
1007	5.0300e-01	-0.2246	0.031217	0.000268	2.679675	0.907898	-0.021894
1008	5.0350e-01	-0.2487	-0.077400	0.000266	2.658740	0.900805	-0.021723
1009	5.0400e-01	-0.2984	-0.191576	0.000279	2.794817	0.946910	-0.022835
1010	5.0450e-01	-0.3160	-0.295061	0.000253	2.533130	0.858248	-0.020697
1011	5.0500e-01	-0.4091	-0.397692	0.000251	2.512195	0.851155	-0.020526
1012	5.0550e-01	-0.4203	-0.514006	0.000285	2.847155	0.964642	-0.023263
1013	5.0600e-01	-0.4700	-0.623478	0.000268	2.679675	0.907898	-0.021894
1014	5.0650e-01	-0.5037	-0.729529	0.000260	2.595935	0.879527	-0.021210
1015	5.0700e-01	-0.5310	-0.839001	0.000268	2.679675	0.907898	-0.021894
1016	5.0750e-01	-0.6016	-0.943769	0.000256	2.564533	0.868887	-0.020954
1017	5.0800e-01	-0.5936	-1.060511	-0.000286	-2.857622	-0.968189	-0.023348
1018	5.0850e-01	-0.6433	-1.167417	0.000262	2.616870	0.886620	-0.021381
1019	5.0900e-01	-0.6738	-1.280310	0.000276	2.763415	0.936270	-0.022579
1020	5.0950e-01	-0.7219	-1.389782	0.000268	2.679675	0.907898	-0.021894
1021	5.1000e-01	-0.7781	-1.502675	0.000276	2.763415	0.936270	-0.022579
1022	5.1050e-01	-0.8021	-1.617706	0.000282	2.815752	0.954003	-0.023006
1023	5.1100e-01	-0.8438	-1.728461	0.000271	2.711077	0.918538	-0.022151
1024	5.1150e-01	-0.8936	-1.831519	0.000252	2.522663	0.854701	-0.020612
1025	5.1200e-01	-0.9401	-1.939708	0.000265	2.648272	0.897259	-0.021638
1026	5.1250e-01	-0.9754	-2.058160	0.000290	2.899492	0.982374	-0.023690
1027	5.1300e-01	-1.0251	-2.157797	0.000244	2.438923	0.826329	-0.019927
1028	5.1350e-01	-1.0444	-2.274966	0.000287	2.868090	0.971735	-0.023434
1029	5.1400e-01	-1.0989	-2.381873	0.000262	2.616870	0.886620	-0.021381
1030	5.1450e-01	-1.1438	-2.487496	0.000259	2.585468	0.875980	-0.021125
1031	5.1500e-01	-1.1647	-2.598679	0.000272	2.721545	0.922084	-0.022237
1032	5.1550e-01	-1.2032	-2.709861	0.000272	2.721545	0.922084	-0.022237
1033	5.1600e-01	-1.2866	-2.811636	0.000249	2.491260	0.844062	-0.020355
1034	5.1650e-01	-1.2930	-2.921964	0.000270	2.700610	0.914991	-0.022065
1035	5.1700e-01	-1.3091	-3.042126	0.000294	2.941362	0.996560	-0.024033
1036	5.1750e-01	-1.3973	-3.135776	0.000229	2.292378	0.776679	-0.018730
1037	5.1800e-01	-1.4246	-3.245676	0.000269	2.690142	0.911445	-0.021980
1038	5.1850e-01	-1.4422	-3.363700	0.000289	2.889025	0.978828	-0.023605
1039	5.1900e-01	-1.4887	-3.465475	0.000249	2.491260	0.844062	-0.020355
1040	5.1950e-01	-1.5320	-3.570243	0.000256	2.564533	0.868887	-0.020954
1041	5.2000e-01	-1.5657	-3.678433	0.000265	2.648272	0.897259	-0.021638
1042	5.2050e-01	-1.5994	-3.787905	0.000268	2.679675	0.907898	-0.021894
1043	5.2100e-01	-1.6556	-3.893528	0.000259	2.585468	0.875980	-0.021125
1044	5.2150e-01	-1.6748	-3.998296	0.000256	2.564533	0.868887	-0.020954
1045	5.2200e-01	-1.7342	-4.107768	0.000268	2.679675	0.907898	-0.021894
1046	5.2250e-01	-1.7631	-4.210398	0.000251	2.512195	0.851155	-0.020526
1047	5.2300e-01	-1.8032	-4.309608	0.000243	2.428455	0.822783	-0.019842
1048	5.2350e-01	-1.8593	-4.422073	0.000275	2.752947	0.932724	-0.022493
1049	5.2400e-01	-1.8914	-4.527696	0.000259	2.585468	0.875980	-0.021125
1050	5.2450e-01	-1.9331	-4.640162	0.000275	2.752947	0.932724	-0.022493
1051	5.2500e-01	-1.9636	-4.741937	0.000249	2.491260	0.844062	-0.020355
1052	5.2550e-01	-1.9973	-4.850126	0.000265	2.648272	0.897259	-0.021638
1053	5.2600e-01	-2.0502	-4.953184	0.000252	2.522663	0.854701	-0.020612
1054	5.2650e-01	-2.1096	-5.051110	0.000240	2.397053	0.812144	-0.019585
1055	5.2700e-01	-2.1513	-5.160582	0.000268	2.679675	0.907898	-0.021894
1056	5.2750e-01	-2.1769	-5.271764	0.000272	2.721545	0.922084	-0.022237
1057	5.2800e-01	-2.2219	-5.371829	0.000245	2.449390	0.829876	-0.020013
1058	5.2850e-01	-2.2475	-5.474031	0.000250	2.501728	0.847608	-0.020440
1059	5.2900e-01	-2.3261	-5.575378	0.000248	2.480793	0.840515	-0.020269
1060	5.2950e-01	-2.2892	-5.687416	-0.000274	-2.742480	-0.929177	-0.022408
1061	5.3000e-01	-2.3839	-5.778928	0.000224	2.240041	0.758946	-0.018302
1062	5.3050e-01	-2.4160	-5.886690	0.000264	2.637805	0.893713	-0.021552
1063	5.3100e-01	-2.4593	-5.984616	0.000240	2.397053	0.812144	-0.019585
1064	5.3150e-01	-2.4994	-6.094088	0.000268	2.679675	0.907898	-0.021894
1065	5.3200e-01	-2.5491	-6.189448	0.000233	2.334248	0.790865	-0.019072
1066	5.3250e-01	-2.5732	-6.294216	0.000256	2.564533	0.868887	-0.020954
1067	5.3300e-01	-2.6229	-6.392998	0.000242	2.417988	0.819236	-0.019756
1068	5.3350e-01	-2.6598	-6.496911	0.000254	2.543598	0.861794	-0.020783
1069	5.3400e-01	-2.7224	-6.593982	0.000238	2.376118	0.805051	-0.019414
1070	5.3450e-01	-2.7448	-6.698750	0.000256	2.564533	0.868887	-0.020954
1071	5.3500e-01	-2.7866	-6.806511	0.000264	2.637805	0.893713	-0.021552
1072	5.3550e-01	-2.8459	-6.898023	0.000224	2.240041	0.758946	-0.018302
1073	5.3600e-01	-2.8636	-7.001509	0.000253	2.533130	0.858248	-0.020697
1074	5.3650e-01	-2.8940	-7.098152	0.000237	2.365651	0.801504	-0.019329
1075	5.3700e-01	-2.9534	-7.190519	0.000226	2.260976	0.766039	-0.018473
1076	5.3750e-01	-2.9919	-7.294432	0.000254	2.543598	0.861794	-0.020783
1077	5.3800e-01	-3.0176	-7.395779	0.000248	2.480793	0.840515	-0.020269
1078	5.3850e-01	-3.0785	-7.480021	0.000206	2.062094	0.698656	-0.016848
1079	5.3900e-01	-3.0753	-7.589066	-0.000267	-2.669207	-0.904352	-0.021809
1080	5.3950e-01	-3.1395	-7.686992	0.000240	2.397053	0.812144	-0.019585
1081	5.4000e-01	-3.1668	-7.785773	0.000242	2.417988	0.819236	-0.019756
1082	5.4050e-01	-3.1876	-7.893535	0.000264	2.637805	0.893713	-0.021552
1083	5.4100e-01	-3.2774	-7.978205	0.000207	2.072561	0.702203	-0.016934
1084	5.4150e-01	-3.2967	-8.073565	0.000233	2.334248	0.790865	-0.019072
1085	5.4200e-01	-3.3256	-8.177478	0.000254	2.543598	0.861794	-0.020783
1086	5.4250e-01	-3.3913	-8.266852	0.000219	2.187703	0.741214	-0.017875
1087	5.4300e-01	-3.4347	-8.366916	0.000245	2.449390	0.829876	-0.020013
1088	5.4350e-01	-3.4491	-8.471684	0.000256	2.564533	0.868887	-0.020954
1089	5.4400e-01	-3.5373	-8.562341	0.000222	2.219106	0.751853	-0.018131
1090	5.4450e-01	-3.5566	-8.657274	0.000232	2.323781	0.787318	-0.018987
1091	5.4500e-01	-3.5951	-8.749213	0.000225	2.250508	0.762493	-0.018388
1092	5.4550e-01	-3.6208	-8.847995	0.000242	2.417988	0.819236	-0.019756
1093	5.4600e-01	-3.6817	-8.936513	0.000217	2.166768	0.734121	-0.017704
1094	5.4650e-01	-3.6913	-9.026314	0.000220	2.198171	0.744760	-0.017960
1095	5.4700e-01	-3.7411	-9.122958	0.000237	2.365651	0.801504	-0.019329
1096	5.4750e-01	-3.8004	-9.213614	0.000222	2.219106	0.751853	-0.018131
1097	5.4800e-01	-3.8293	-9.310685	0.000238	2.376118	0.805051	-0.019414
1098	5.4850e-01	-3.8726	-9.399204	0.000217	2.166768	0.734121	-0.017704
1099	5.4900e-01	-3.9175	-9.497985	0.000242	2.417988	0.819236	-0.019756
1100	5.4950e-01	-3.8919	-9.601043	-0.000252	-2.522663	-0.854701	-0.020612
1101	5.5000e-01	-3.9994	-9.692127	0.000223	2.229573	0.755400	-0.018217
1102	5.5050e-01	-4.0507	-9.778507	0.000211	2.114431	0.716389	-0.017276
1103	5.5100e-01	-4.0523	-9.875150	0.000237	2.365651	0.801504	-0.019329
1104	5.5150e-01	-4.1197	-9.958110	0.000203	2.030691	0.688017	-0.016592
1105	5.5200e-01	-4.1245	-10.054753	0.000237	2.365651	0.801504	-0.019329
1106	5.5250e-01	-4.1678	-10.147975	0.000228	2.281911	0.773132	-0.018644
1107	5.5300e-01	-4.2255	-10.234356	0.000211	2.114431	0.716389	-0.017276
1108	5.5350e-01	-4.2592	-10.329289	0.000232	2.323781	0.787318	-0.018987
1109	5.5400e-01	-4.3090	-10.415241	0.000210	2.103964	0.712842	-0.017191
1110	5.5450e-01	-4.3202	-10.511457	0.000236	2.355183	0.797958	-0.019243
1111	5.5500e-01	-4.3892	-10.596127	0.000207	2.072561	0.702203	-0.016934
1112	5.5550e-01	-4.4004	-10.693625	0.000239	2.386585	0.808597	-0.019500
1113	5.5600e-01	-4.4389	-10.781288	0.000215	2.145833	0.727028	-0.017533
1114	5.5650e-01	-4.4983	-10.874938	0.000229	2.292378	0.776679	-0.018730
1115	5.5700e-01	-4.5400	-10.960891	0.000210	2.103964	0.712842	-0.017191
1116	5.5750e-01	-4.5640	-11.053258	0.000226	2.260976	0.766039	-0.018473
1117	5.5800e-01	-4.6202	-11.136217	0.000203	2.030691	0.688017	-0.016592
1118	5.5850e-01	-4.6635	-11.237137	0.000247	2.470325	0.836969	-0.020184
1119	5.5900e-01	-4.7116	-11.324800	0.000215	2.145833	0.727028	-0.017533
1120	5.5950e-01	-4.7485	-11.406477	0.000200	1.999289	0.677377	-0.016335
1121	5.6000e-01	-4.7934	-11.504403	0.000240	2.397053	0.812144	-0.019585
1122	5.6050e-01	-4.8223	-11.590783	0.000211	2.114431	0.716389	-0.017276
1123	5.6100e-01	-4.8833	-11.680584	0.000220	2.198171	0.744760	-0.017960
1124	5.6150e-01	-4.9090	-11.773379	0.000227	2.271443	0.769586	-0.018559
1125	5.6200e-01	-4.9635	-11.856766	0.000204	2.041159	0.691563	-0.016677
1126	5.6250e-01	-4.9763	-11.949988	0.000228	2.281911	0.773132	-0.018644
1127	5.6300e-01	-5.0132	-12.036796	0.000212	2.124898	0.719935	-0.017362
1128	5.6350e-01	-5.0774	-12.116762	0.000196	1.957419	0.663191	-0.015993
1129	5.6400e-01	-5.0790	-12.213405	0.000237	2.365651	0.801504	-0.019329
1130	5.6450e-01	-5.1303	-12.301069	0.000215	2.145833	0.727028	-0.017533
1131	5.6500e-01	-5.1400	-12.392580	0.000224	2.240041	0.758946	-0.018302
1132	5.6550e-01	-5.2314	-12.474685	0.000201	2.009756	0.680924	-0.016421
1133	5.6600e-01	-5.2635	-12.561065	0.000211	2.114431	0.716389	-0.017276
1134	5.6650e-01	-5.3180	-12.646162	0.000208	2.083029	0.705749	-0.017019
1135	5.6700e-01	-5.3469	-12.726983	0.000198	1.978354	0.670284	-0.016164
1136	5.6750e-01	-5.3806	-12.813791	0.000212	2.124898	0.719935	-0.017362
1137	5.6800e-01	-5.4079	-12.897178	0.000204	2.041159	0.691563	-0.016677
1138	5.6850e-01	-5.4656	-12.980993	0.000205	2.051626	0.695110	-0.016763
1139	5.6900e-01	-5.5089	-13.074643	0.000229	2.292378	0.776679	-0.018730
1140	5.6950e-01	-5.5779	-13.153753	0.000194	1.936484	0.656098	-0.015822
1141	5.7000e-01	-5.5875	-13.252107	0.000241	2.407520	0.815690	-0.019671
1142	5.7050e-01	-5.6244	-13.343619	0.000224	2.240041	0.758946	-0.018302
1143	5.7100e-01	-5.6581	-13.435131	0.000224	2.240041	0.758946	-0.018302
1144	5.7150e-01	-5.6870	-13.524505	0.000219	2.187703	0.741214	-0.017875
1145	5.7200e-01	-5.7303	-13.610030	0.000209	2.093496	0.709296	-0.017105
1146	5.7250e-01	-5.8137	-13.684864	0.000183	1.831809	0.620634	-0.014967
1147	5.7300e-01	-5.8169	-13.772955	0.000216	2.156301	0.730575	-0.017618
1148	5.7350e-01	-5.8490	-13.859763	0.000212	2.124898	0.719935	-0.017362
1149	5.7400e-01	-5.8763	-13.947426	0.000215	2.145833	0.727028	-0.017533
1150	5.7450e-01	-5.9373	-14.021833	0.000182	1.821342	0.617087	-0.014881
1151	5.7500e-01	-5.9806	-14.103937	0.000201	2.009756	0.680924	-0.016421
1152	5.7550e-01	-6.0271	-14.190745	0.000212	2.124898	0.719935	-0.017362
1153	5.7600e-01	-6.0528	-14.280974	0.000221	2.208638	0.748307	-0.018046
1154	5.7650e-01	-6.0736	-14.373341	0.000226	2.260976	0.766039	-0.018473
1155	5.7700e-01	-6.1522	-14.453307	0.000196	1.957419	0.663191	-0.015993
1156	5.7750e-01	-6.1827	-14.535411	0.000201	2.009756	0.680924	-0.016421
1157	5.7800e-01	-6.2148	-14.605969	0.000173	1.727134	0.585169	-0.014112
1158	5.7850e-01	-6.2758	-14.699191	0.000228	2.281911	0.773132	-0.018644
1159	5.7900e-01	-6.3094	-14.773598	0.000182	1.821342	0.617087	-0.014881
1160	5.7950e-01	-6.2902	-14.866820	-0.000228	-2.281911	-0.773132	-0.018644
1161	5.8000e-01	-6.3881	-14.940372	0.000180	1.800407	0.609994	-0.014710
1162	5.8050e-01	-6.4602	-15.022904	0.000202	2.020224	0.684470	-0.016506
1163	5.8100e-01	-6.4153	-15.114843	-0.000225	-2.250508	-0.762493	-0.018388
1164	5.8150e-01	-6.5116	-15.190105	0.000184	1.842277	0.624180	-0.015052
1165	5.8200e-01	-6.5437	-15.270499	0.000197	1.967886	0.666738	-0.016079
1166	5.8250e-01	-6.5918	-15.352603	0.000201	2.009756	0.680924	-0.016421
1167	5.8300e-01	-6.6046	-15.435134	0.000202	2.020224	0.684470	-0.016506
1168	5.8350e-01	-6.6752	-15.515528	0.000197	1.967886	0.666738	-0.016079
1169	5.8400e-01	-6.7041	-15.597204	0.000200	1.999289	0.677377	-0.016335
1170	5.8450e-01	-6.7378	-15.675887	0.000193	1.926016	0.652552	-0.015737
1171	5.8500e-01	-6.7667	-15.766544	0.000222	2.219106	0.751853	-0.018131
1172	5.8550e-01	-6.8116	-15.849503	0.000203	2.030691	0.688017	-0.016592
1173	5.8600e-01	-6.8629	-15.927331	0.000191	1.905081	0.645459	-0.015566
1174	5.8650e-01	-6.9030	-16.017560	0.000221	2.208638	0.748307	-0.018046
1175	5.8700e-01	-6.9527	-16.100092	0.000202	2.020224	0.684470	-0.016506
1176	5.8750e-01	-6.9945	-16.178775	0.000193	1.926016	0.652552	-0.015737
1177	5.8800e-01	-6.9896	-16.264300	-0.000209	-2.093496	-0.709296	-0.017105
1178	5.8850e-01	-7.0506	-16.343410	0.000194	1.936484	0.656098	-0.015822
1179	5.8900e-01	-7.0763	-16.424659	0.000199	1.988821	0.673831	-0.016250
1180	5.8950e-01	-7.1420	-16.509329	0.000207	2.072561	0.702203	-0.016934
1181	5.9000e-01	-7.1854	-16.584163	0.000183	1.831809	0.620634	-0.014967
1182	5.9050e-01	-7.2447	-16.668406	0.000206	2.062094	0.698656	-0.016848
1183	5.9100e-01	-7.2608	-16.745806	0.000189	1.894614	0.641913	-0.015480
1184	5.9150e-01	-7.2864	-16.826627	0.000198	1.978354	0.670284	-0.016164
1185	5.9200e-01	-7.3506	-16.899323	0.000178	1.779472	0.602901	-0.014539
1186	5.9250e-01	-7.3682	-16.984421	0.000208	2.083029	0.705749	-0.017019
1187	5.9300e-01	-7.4164	-17.062248	0.000191	1.905081	0.645459	-0.015566
1188	5.9350e-01	-7.4452	-17.145635	0.000204	2.041159	0.691563	-0.016677
1189	5.9400e-01	-7.4934	-17.220897	0.000184	1.842277	0.624180	-0.015052
1190	5.9450e-01	-7.5062	-17.305567	0.000207	2.072561	0.702203	-0.016934
1191	5.9500e-01	-7.5736	-17.380829	0.000184	1.842277	0.624180	-0.015052
1192	5.9550e-01	-7.6474	-17.453953	0.000179	1.789939	0.606448	-0.014625
1193	5.9600e-01	-7.6746	-17.534774	0.000198	1.978354	0.670284	-0.016164
1194	5.9650e-01	-7.6955	-17.615596	0.000198	1.978354	0.670284	-0.016164
1195	5.9700e-01	-7.7324	-17.697700	0.000201	2.009756	0.680924	-0.016421
1196	5.9750e-01	-7.7869	-17.771679	0.000181	1.810874	0.613541	-0.014796
1197	5.9800e-01	-7.8062	-17.854638	0.000203	2.030691	0.688017	-0.016592
1198	5.9850e-01	-7.8880	-17.930328	0.000185	1.852744	0.627727	-0.015138
1199	5.9900e-01	-7.9281	-18.012432	0.000201	2.009756	0.680924	-0.016421
1200	5.9950e-01	-7.9393	-18.089832	0.000189	1.894614	0.641913	-0.015480
1201	6.0000e-01	-7.9762	-18.162528	0.000178	1.779472	0.602901	-0.014539
1202	6.0050e-01	-8.0147	-18.248053	0.000209	2.093496	0.709296	-0.017105
1203	6.0100e-01	-8.0565	-18.322888	0.000183	1.831809	0.620634	-0.014967
1204	6.0150e-01	-8.1046	-18.401998	0.000194	1.936484	0.656098	-0.015822
1205	6.0200e-01	-8.1383	-18.481964	0.000196	1.957419	0.663191	-0.015993
1206	6.0250e-01	-8.1960	-18.559792	0.000191	1.905081	0.645459	-0.015566
1207	6.0300e-01	-8.2089	-18.638048	0.000192	1.915549	0.649006	-0.015651
1208	6.0350e-01	-8.2361	-18.717158	0.000194	1.936484	0.656098	-0.015822
1209	6.0400e-01	-8.3051	-18.788144	0.000174	1.737602	0.588715	-0.014197
1210	6.0450e-01	-8.3468	-18.863406	0.000184	1.842277	0.624180	-0.015052
1211	6.0500e-01	-8.3709	-18.948504	0.000208	2.083029	0.705749	-0.017019
1212	6.0550e-01	-8.4383	-19.025904	0.000189	1.894614	0.641913	-0.015480
1213	6.0600e-01	-8.4447	-19.110146	0.000206	2.062094	0.698656	-0.016848
1214	6.0650e-01	-8.4864	-19.187118	0.000188	1.884146	0.638366	-0.015395
1215	6.0700e-01	-8.5313	-19.267084	0.000196	1.957419	0.663191	-0.015993
1216	6.0750e-01	-8.5538	-19.344057	0.000188	1.884146	0.638366	-0.015395
1217	6.0800e-01	-8.6195	-19.414615	0.000173	1.727134	0.585169	-0.014112
1218	6.0850e-01	-8.6789	-19.483890	0.000170	1.695732	0.574529	-0.013855
1219	6.0900e-01	-8.7030	-19.557870	0.000181	1.810874	0.613541	-0.014796
1220	6.0950e-01	-8.7174	-19.638691	0.000198	1.978354	0.670284	-0.016164
1221	6.1000e-01	-8.7639	-19.722505	0.000205	2.051626	0.695110	-0.016763
1222	6.1050e-01	-8.7992	-19.798195	0.000185	1.852744	0.627727	-0.015138
1223	6.1100e-01	-8.8698	-19.872174	0.000181	1.810874	0.613541	-0.014796
1224	6.1150e-01	-8.8891	-19.946581	0.000182	1.821342	0.617087	-0.014881
1225	6.1200e-01	-8.9468	-20.017994	0.000175	1.748069	0.592262	-0.014283
1226	6.1250e-01	-8.9789	-20.091974	0.000181	1.810874	0.613541	-0.014796
1227	6.1300e-01	-9.0254	-20.162104	0.000172	1.716667	0.581622	-0.014026
1228	6.1350e-01	-9.0928	-20.235228	0.000179	1.789939	0.606448	-0.014625
1229	6.1400e-01	-9.0816	-20.306214	-0.000174	-1.737602	-0.588715	-0.014197
1230	6.1450e-01	-9.1233	-20.382331	0.000186	1.863211	0.631273	-0.015223
1231	6.1500e-01	-9.1971	-20.458021	0.000185	1.852744	0.627727	-0.015138
1232	6.1550e-01	-9.2356	-20.532428	0.000182	1.821342	0.617087	-0.014881
1233	6.1600e-01	-9.2468	-20.610683	0.000192	1.915549	0.649006	-0.015651
1234	6.1650e-01	-9.2981	-20.685517	0.000183	1.831809	0.620634	-0.014967
1235	6.1700e-01	-9.3270	-20.756931	0.000175	1.748069	0.592262	-0.014283
1236	6.1750e-01	-9.3703	-20.826634	0.000171	1.706199	0.578076	-0.013941
1237	6.1800e-01	-9.4168	-20.899330	0.000178	1.779472	0.602901	-0.014539
1238	6.1850e-01	-9.4505	-20.967750	0.000167	1.674797	0.567437	-0.013684
1239	6.1900e-01	-9.4794	-21.044295	0.000187	1.873679	0.634820	-0.015309
1240	6.1950e-01	-9.5452	-21.119985	0.000185	1.852744	0.627727	-0.015138
1241	6.2000e-01	-9.5757	-21.193536	0.000180	1.800407	0.609994	-0.014710
1242	6.2050e-01	-9.6174	-21.268798	0.000184	1.842277	0.624180	-0.015052
1243	6.2100e-01	-9.6655	-21.342777	0.000181	1.810874	0.613541	-0.014796
1244	6.2150e-01	-9.7441	-21.421033	0.000192	1.915549	0.649006	-0.015651
1245	6.2200e-01	-9.7618	-21.501426	0.000197	1.967886	0.666738	-0.016079
1246	6.2250e-01	-9.7874	-21.575833	0.000182	1.821342	0.617087	-0.014881
1247	6.2300e-01	-9.7826	-21.646819	-0.000174	-1.737602	-0.588715	-0.014197
1248	6.2350e-01	-9.8628	-21.719088	0.000177	1.769004	0.599355	-0.014454
1249	6.2400e-01	-9.9013	-21.788791	0.000171	1.706199	0.578076	-0.013941
1250	6.2450e-01	-9.9382	-21.860632	0.000176	1.758537	0.595808	-0.014368
1251	6.2500e-01	-9.9896	-21.929052	0.000167	1.674797	0.567437	-0.013684
1252	6.2550e-01	-10.0281	-21.998327	0.000170	1.695732	0.574529	-0.013855
1253	6.2600e-01	-10.0874	-22.068458	0.000172	1.716667	0.581622	-0.014026
1254	6.2650e-01	-10.1307	-22.139016	0.000173	1.727134	0.585169	-0.014112
1255	6.2700e-01	-10.1323	-22.212567	0.000180	1.800407	0.609994	-0.014710
1256	6.2750e-01	-10.1805	-22.283553	0.000174	1.737602	0.588715	-0.014197
1257	6.2800e-01	-10.2238	-22.349407	0.000161	1.611992	0.546158	-0.013171
1258	6.2850e-01	-10.2735	-22.409275	0.000147	1.465447	0.496507	-0.011974
1259	6.2900e-01	-10.3248	-22.473419	0.000157	1.570122	0.531972	-0.012829
1260	6.2950e-01	-10.3553	-22.540556	0.000164	1.643394	0.556797	-0.013427
1261	6.3000e-01	-10.3569	-22.608121	0.000165	1.653862	0.560344	-0.013513
1262	6.3050e-01	-10.4195	-22.685521	0.000189	1.894614	0.641913	-0.015480
1263	6.3100e-01	-10.4805	-22.762493	0.000188	1.884146	0.638366	-0.015395
1264	6.3150e-01	-10.5238	-22.833907	0.000175	1.748069	0.592262	-0.014283
1265	6.3200e-01	-10.5238	-22.910024	0.000186	1.863211	0.631273	-0.015223
1266	6.3250e-01	-10.5879	-22.974596	0.000158	1.580590	0.535518	-0.012914
1267	6.3300e-01	-10.5992	-23.046437	0.000176	1.758537	0.595808	-0.014368
1268	6.3350e-01	-10.6409	-23.111863	0.000160	1.601524	0.542611	-0.013085
1269	6.3400e-01	-10.6922	-23.193112	0.000199	1.988821	0.673831	-0.016250
1270	6.3450e-01	-10.7211	-23.266664	0.000180	1.800407	0.609994	-0.014710
1271	6.3500e-01	-10.7917	-23.338932	0.000177	1.769004	0.599355	-0.014454
1272	6.3550e-01	-10.8254	-23.410346	0.000175	1.748069	0.592262	-0.014283
1273	6.3600e-01	-10.8446	-23.483470	0.000179	1.789939	0.606448	-0.014625
1274	6.3650e-01	-10.8815	-23.554028	0.000173	1.727134	0.585169	-0.014112
1275	6.3700e-01	-10.9617	-23.622020	0.000166	1.664329	0.563890	-0.013598
1276	6.3750e-01	-10.9746	-23.697282	0.000184	1.842277	0.624180	-0.015052
1277	6.3800e-01	-11.0275	-23.777676	0.000197	1.967886	0.666738	-0.016079
1278	6.3850e-01	-11.0933	-23.852083	0.000182	1.821342	0.617087	-0.014881
1279	6.3900e-01	-11.1366	-23.924779	0.000178	1.779472	0.602901	-0.014539
1280	6.3950e-01	-11.1302	-24.000896	-0.000186	-1.863211	-0.631273	-0.015223
1281	6.4000e-01	-11.1671	-24.075303	0.000182	1.821342	0.617087	-0.014881
1282	6.4050e-01	-11.2649	-24.139447	0.000157	1.570122	0.531972	-0.012829
1283	6.4100e-01	-11.2457	-24.211288	-0.000176	-1.758537	-0.595808	-0.014368
1284	6.4150e-01	-11.3227	-24.272866	0.000151	1.507317	0.510693	-0.012316
1285	6.4200e-01	-11.3163	-24.331878	-0.000144	-1.444512	-0.489414	-0.011802
1286	6.4250e-01	-11.3740	-24.387469	0.000136	1.360772	0.461042	-0.011118
1287	6.4300e-01	-11.4366	-24.461449	0.000181	1.810874	0.613541	-0.014796
1288	6.4350e-01	-11.4959	-24.526020	0.000158	1.580590	0.535518	-0.012914
1289	6.4400e-01	-11.5152	-24.593157	0.000164	1.643394	0.556797	-0.013427
1290	6.4450e-01	-11.5344	-24.672268	0.000194	1.936484	0.656098	-0.015822
1291	6.4500e-01	-11.6082	-24.739405	0.000164	1.643394	0.556797	-0.013427
1292	6.4550e-01	-11.6291	-24.813384	0.000181	1.810874	0.613541	-0.014796
1293	6.4600e-01	-11.6884	-24.884798	0.000175	1.748069	0.592262	-0.014283
1294	6.4650e-01	-11.6900	-24.955356	0.000173	1.727134	0.585169	-0.014112
1295	6.4700e-01	-11.7574	-25.025059	0.000171	1.706199	0.578076	-0.013941
1296	6.4750e-01	-11.7735	-25.090913	0.000161	1.611992	0.546158	-0.013171
1297	6.4800e-01	-11.8376	-25.162326	0.000175	1.748069	0.592262	-0.014283
1298	6.4850e-01	-11.8729	-25.234167	0.000176	1.758537	0.595808	-0.014368
1299	6.4900e-01	-11.9178	-25.304726	0.000173	1.727134	0.585169	-0.014112
1300	6.4950e-01	-11.9275	-25.386402	0.000200	1.999289	0.677377	-0.016335
1301	6.5000e-01	-11.9676	-25.455250	0.000169	1.685264	0.570983	-0.013770
1302	6.5050e-01	-12.0478	-25.538209	0.000203	2.030691	0.688017	-0.016592
1303	6.5100e-01	-12.0606	-25.616037	0.000191	1.905081	0.645459	-0.015566
1304	6.5150e-01	-12.1120	-25.689161	0.000179	1.789939	0.606448	-0.014625
1305	6.5200e-01	-12.1264	-25.741331	0.000128	1.277033	0.432670	-0.010434
1306	6.5250e-01	-12.2002	-25.794784	0.000131	1.308435	0.443310	-0.010691
1307	6.5300e-01	-12.2146	-25.851658	0.000139	1.392175	0.471682	-0.011375
1308	6.5350e-01	-12.2579	-25.906822	0.000135	1.350305	0.457496	-0.011033
1309	6.5400e-01	-12.3029	-25.983367	0.000187	1.873679	0.634820	-0.015309
1310	6.5450e-01	-12.3398	-26.065043	0.000200	1.999289	0.677377	-0.016335
1311	6.5500e-01	-12.3783	-26.128760	0.000156	1.559655	0.528425	-0.012743
1312	6.5550e-01	-12.4344	-26.198462	0.000171	1.706199	0.578076	-0.013941
1313	6.5600e-01	-12.4713	-26.262179	0.000156	1.559655	0.528425	-0.012743
1314	6.5650e-01	-12.5210	-26.344283	0.000201	2.009756	0.680924	-0.016421
1315	6.5700e-01	-12.5178	-26.428097	-0.000205	-2.051626	-0.695110	-0.016763
1316	6.5750e-01	-12.5644	-26.503787	0.000185	1.852744	0.627727	-0.015138
1317	6.5800e-01	-12.6205	-26.573062	0.000170	1.695732	0.574529	-0.013855
1318	6.5850e-01	-12.6670	-26.644903	0.000176	1.758537	0.595808	-0.014368
1319	6.5900e-01	-12.6975	-26.713323	0.000167	1.674797	0.567437	-0.013684
1320	6.5950e-01	-12.7537	-26.788158	0.000183	1.831809	0.620634	-0.014967
1321	6.6000e-01	-12.7761	-26.857433	0.000170	1.695732	0.574529	-0.013855
1322	6.6050e-01	-12.8499	-26.935261	0.000191	1.905081	0.645459	-0.015566
1323	6.6100e-01	-12.8178	-27.013944	-0.000193	-1.926016	-0.652552	-0.015737
1324	6.6150e-01	-12.8900	-27.078943	0.000159	1.591057	0.539065	-0.013000
1325	6.6200e-01	-12.9526	-27.155915	0.000188	1.884146	0.638366	-0.015395
1326	6.6250e-01	-12.9734	-27.222625	0.000163	1.632927	0.553251	-0.013342
1327	6.6300e-01	-13.0456	-27.294466	0.000176	1.758537	0.595808	-0.014368
1328	6.6350e-01	-13.0488	-27.371866	0.000189	1.894614	0.641913	-0.015480
1329	6.6400e-01	-13.1098	-27.439859	0.000166	1.664329	0.563890	-0.013598
1330	6.6450e-01	-13.1483	-27.510844	0.000174	1.737602	0.588715	-0.014197
1331	6.6500e-01	-13.1788	-27.586534	0.000185	1.852744	0.627727	-0.015138
1332	6.6550e-01	-13.2221	-27.658803	0.000177	1.769004	0.599355	-0.014454
1333	6.6600e-01	-13.2638	-27.732782	0.000181	1.810874	0.613541	-0.014796
1334	6.6650e-01	-13.2622	-27.803340	-0.000173	-1.727134	-0.585169	-0.014112
1335	6.6700e-01	-13.3344	-27.876464	0.000179	1.789939	0.606448	-0.014625
1336	6.6750e-01	-13.3825	-27.947877	0.000175	1.748069	0.592262	-0.014283
1337	6.6800e-01	-13.4547	-28.018008	0.000172	1.716667	0.581622	-0.014026
1338	6.6850e-01	-13.4627	-28.090277	0.000177	1.769004	0.599355	-0.014454
1339	6.6900e-01	-13.4932	-28.165111	0.000183	1.831809	0.620634	-0.014967
1340	6.6950e-01	-13.5269	-28.233104	0.000166	1.664329	0.563890	-0.013598
1341	6.7000e-01	-13.5879	-28.306655	0.000180	1.800407	0.609994	-0.014710
1342	6.7050e-01	-13.6247	-28.372509	0.000161	1.611992	0.546158	-0.013171
1343	6.7100e-01	-13.6681	-28.444778	0.000177	1.769004	0.599355	-0.014454
1344	6.7150e-01	-13.7098	-28.516191	0.000175	1.748069	0.592262	-0.014283
1345	6.7200e-01	-13.7595	-28.585039	0.000169	1.685264	0.570983	-0.013770
1346	6.7250e-01	-13.7964	-28.650466	0.000160	1.601524	0.542611	-0.013085
1347	6.7300e-01	-13.8397	-28.716748	0.000162	1.622459	0.549704	-0.013256
1348	6.7350e-01	-13.8477	-28.788589	0.000176	1.758537	0.595808	-0.014368
1349	6.7400e-01	-13.9087	-28.860430	0.000176	1.758537	0.595808	-0.014368
1350	6.7450e-01	-13.9777	-28.929705	0.000170	1.695732	0.574529	-0.013855
1351	6.7500e-01	-13.9873	-28.993421	0.000156	1.559655	0.528425	-0.012743
1352	6.7550e-01	-14.0306	-29.056710	0.000155	1.549187	0.524879	-0.012658
1353	6.7600e-01	-14.0771	-29.128551	0.000176	1.758537	0.595808	-0.014368
1354	6.7650e-01	-14.1076	-29.196971	0.000167	1.674797	0.567437	-0.013684
1355	6.7700e-01	-14.1349	-29.265819	0.000169	1.685264	0.570983	-0.013770
1356	6.7750e-01	-14.1702	-29.335949	0.000172	1.716667	0.581622	-0.014026
1357	6.7800e-01	-14.2215	-29.402231	0.000162	1.622459	0.549704	-0.013256
1358	6.7850e-01	-14.2520	-29.478776	0.000187	1.873679	0.634820	-0.015309
1359	6.7900e-01	-14.2953	-29.551900	0.000179	1.789939	0.606448	-0.014625
1360	6.7950e-01	-14.3643	-29.618182	0.000162	1.622459	0.549704	-0.013256
1361	6.8000e-01	-14.3771	-29.687457	0.000170	1.695732	0.574529	-0.013855
1362	6.8050e-01	-14.4204	-29.756732	0.000170	1.695732	0.574529	-0.013855
1363	6.8100e-01	-14.4525	-29.825580	0.000169	1.685264	0.570983	-0.013770
1364	6.8150e-01	-14.5055	-29.890579	0.000159	1.591057	0.539065	-0.013000
1365	6.8200e-01	-14.5520	-29.958999	0.000167	1.674797	0.567437	-0.013684
1366	6.8250e-01	-14.5937	-30.026992	0.000166	1.664329	0.563890	-0.013598
1367	6.8300e-01	-14.6210	-30.094556	0.000165	1.653862	0.560344	-0.013513
1368	6.8350e-01	-14.6964	-30.162549	0.000166	1.664329	0.563890	-0.013598
1369	6.8400e-01	-14.7092	-30.228403	0.000161	1.611992	0.546158	-0.013171
1370	6.8450e-01	-14.7573	-30.294685	0.000162	1.622459	0.549704	-0.013256
1371	6.8500e-01	-14.7798	-30.357973	0.000155	1.549187	0.524879	-0.012658
1372	6.8550e-01	-14.8183	-30.427676	0.000171	1.706199	0.578076	-0.013941
1373	6.8600e-01	-14.8809	-30.495241	0.000165	1.653862	0.560344	-0.013513
1374	6.8650e-01	-14.9081	-30.564089	0.000169	1.685264	0.570983	-0.013770
1375	6.8700e-01	-14.9434	-30.633364	0.000170	1.695732	0.574529	-0.013855
1376	6.8750e-01	-14.9819	-30.697508	0.000157	1.570122	0.531972	-0.012829
1377	6.8800e-01	-15.0525	-30.766356	0.000169	1.685264	0.570983	-0.013770
1378	6.8850e-01	-15.0621	-30.837341	0.000174	1.737602	0.588715	-0.014197
1379	6.8900e-01	-15.0878	-30.904051	0.000163	1.632927	0.553251	-0.013342
1380	6.8950e-01	-15.1055	-30.976320	0.000177	1.769004	0.599355	-0.014454
1381	6.9000e-01	-15.1809	-31.037042	0.000149	1.486382	0.503600	-0.012145
1382	6.9050e-01	-15.2097	-31.105035	0.000166	1.664329	0.563890	-0.013598
1383	6.9100e-01	-15.2450	-31.176876	0.000176	1.758537	0.595808	-0.014368
1384	6.9150e-01	-15.2867	-31.236743	0.000147	1.465447	0.496507	-0.011974
1385	6.9200e-01	-15.3381	-31.304736	0.000166	1.664329	0.563890	-0.013598
1386	6.9250e-01	-15.3878	-31.376577	0.000176	1.758537	0.595808	-0.014368
1387	6.9300e-01	-15.4472	-31.442859	0.000162	1.622459	0.549704	-0.013256
1388	6.9350e-01	-15.4391	-31.507858	-0.000159	-1.591057	-0.539065	-0.013000
1389	6.9400e-01	-15.5081	-31.565587	0.000141	1.413110	0.478775	-0.011546
1390	6.9450e-01	-15.5466	-31.627165	0.000151	1.507317	0.510693	-0.012316
1391	6.9500e-01	-15.5514	-31.687460	0.000148	1.475915	0.500053	-0.012059
1392	6.9550e-01	-15.6365	-31.745618	0.000142	1.423577	0.482321	-0.011631
1393	6.9600e-01	-15.6461	-31.806340	0.000149	1.486382	0.503600	-0.012145
1394	6.9650e-01	-15.6798	-31.871339	0.000159	1.591057	0.539065	-0.013000
1395	6.9700e-01	-15.7375	-31.942753	0.000175	1.748069	0.592262	-0.014283
1396	6.9750e-01	-15.8001	-32.006469	0.000156	1.559655	0.528425	-0.012743
1397	6.9800e-01	-15.8434	-32.076172	0.000171	1.706199	0.578076	-0.013941
1398	6.9850e-01	-15.8546	-32.149296	0.000179	1.789939	0.606448	-0.014625
1399	6.9900e-01	-15.9060	-32.223703	0.000182	1.821342	0.617087	-0.014881
1400	6.9950e-01	-15.9685	-32.296826	0.000179	1.789939	0.606448	-0.014625
1401	7.0000e-01	-15.9750	-32.366957	0.000172	1.716667	0.581622	-0.014026
1402	7.0050e-01	-16.0231	-32.424686	0.000141	1.413110	0.478775	-0.011546
1403	7.0100e-01	-16.0536	-32.487975	0.000155	1.549187	0.524879	-0.012658
1404	7.0150e-01	-16.0872	-32.542711	0.000134	1.339837	0.453949	-0.010947
1405	7.0200e-01	-16.1306	-32.609848	0.000164	1.643394	0.556797	-0.013427
1406	7.0250e-01	-16.1803	-32.662018	0.000128	1.277033	0.432670	-0.010434
1407	7.0300e-01	-16.2701	-32.720603	0.000143	1.434045	0.485868	-0.011717
1408	7.0350e-01	-16.2493	-32.790734	-0.000172	-1.716667	-0.581622	-0.014026
1409	7.0400e-01	-16.2990	-32.854450	0.000156	1.559655	0.528425	-0.012743
1410	7.0450e-01	-16.3183	-32.928429	0.000181	1.810874	0.613541	-0.014796
1411	7.0500e-01	-16.3937	-32.991718	0.000155	1.549187	0.524879	-0.012658
1412	7.0550e-01	-16.4129	-33.061420	0.000171	1.706199	0.578076	-0.013941
1413	7.0600e-01	-16.4835	-33.128985	0.000165	1.653862	0.560344	-0.013513
1414	7.0650e-01	-16.5204	-33.201682	0.000178	1.779472	0.602901	-0.014539
1415	7.0700e-01	-16.5348	-33.270529	0.000169	1.685264	0.570983	-0.013770
1416	7.0750e-01	-16.5653	-33.344508	0.000181	1.810874	0.613541	-0.014796
1417	7.0800e-01	-16.6407	-33.405659	0.000150	1.496850	0.507146	-0.012230
1418	7.0850e-01	-16.6295	-33.469375	-0.000156	-1.559655	-0.528425	-0.012743
1419	7.0900e-01	-16.7113	-33.536512	0.000164	1.643394	0.556797	-0.013427
1420	7.0950e-01	-16.7225	-33.594669	0.000142	1.423577	0.482321	-0.011631
1421	7.1000e-01	-16.7706	-33.663944	0.000170	1.695732	0.574529	-0.013855
1422	7.1050e-01	-16.8140	-33.735358	0.000175	1.748069	0.592262	-0.014283
1423	7.1100e-01	-16.8685	-33.799929	0.000158	1.580590	0.535518	-0.012914
1424	7.1150e-01	-16.8910	-33.861935	0.000152	1.517785	0.514239	-0.012401
1425	7.1200e-01	-16.9519	-33.927789	0.000161	1.611992	0.546158	-0.013171
1426	7.1250e-01	-16.9760	-33.991505	0.000156	1.559655	0.528425	-0.012743
1427	7.1300e-01	-17.0337	-34.059070	0.000165	1.653862	0.560344	-0.013513
1428	7.1350e-01	-17.0450	-34.131339	0.000177	1.769004	0.599355	-0.014454
1429	7.1400e-01	-17.0771	-34.209594	0.000192	1.915549	0.649006	-0.015651
1430	7.1450e-01	-17.1444	-34.279725	0.000172	1.716667	0.581622	-0.014026
1431	7.1500e-01	-17.1621	-34.347717	0.000166	1.664329	0.563890	-0.013598
1432	7.1550e-01	-17.2134	-34.413999	0.000162	1.622459	0.549704	-0.013256
1433	7.1600e-01	-17.2792	-34.480709	0.000163	1.632927	0.553251	-0.013342
1434	7.1650e-01	-17.2888	-34.553405	0.000178	1.779472	0.602901	-0.014539
1435	7.1700e-01	-17.3450	-34.626529	0.000179	1.789939	0.606448	-0.014625
1436	7.1750e-01	-17.3514	-34.694094	0.000165	1.653862	0.560344	-0.013513
1437	7.1800e-01	-17.4091	-34.756099	0.000152	1.517785	0.514239	-0.012401
1438	7.1850e-01	-17.4685	-34.825802	0.000171	1.706199	0.578076	-0.013941
1439	7.1900e-01	-17.5134	-34.899782	0.000181	1.810874	0.613541	-0.014796
1440	7.1950e-01	-17.5391	-34.968202	0.000167	1.674797	0.567437	-0.013684
1441	7.2000e-01	-17.6081	-35.035766	0.000165	1.653862	0.560344	-0.013513
1442	7.2050e-01	-17.6257	-35.101193	0.000160	1.601524	0.542611	-0.013085
1443	7.2100e-01	-17.6594	-35.166192	0.000159	1.591057	0.539065	-0.013000
1444	7.2150e-01	-17.7220	-35.231619	0.000160	1.601524	0.542611	-0.013085
1445	7.2200e-01	-17.7348	-35.299184	0.000165	1.653862	0.560344	-0.013513
1446	7.2250e-01	-17.7990	-35.366748	0.000165	1.653862	0.560344	-0.013513
1447	7.2300e-01	-17.8038	-35.436024	0.000170	1.695732	0.574529	-0.013855
1448	7.2350e-01	-17.8359	-35.501023	0.000159	1.591057	0.539065	-0.013000
1449	7.2400e-01	-17.8808	-35.568587	0.000165	1.653862	0.560344	-0.013513
1450	7.2450e-01	-17.9466	-35.635725	0.000164	1.643394	0.556797	-0.013427
1451	7.2500e-01	-17.9417	-35.709704	-0.000181	-1.810874	-0.613541	-0.014796
1452	7.2550e-01	-18.0348	-35.778551	0.000169	1.685264	0.570983	-0.013770
1453	7.2600e-01	-18.0540	-35.853814	0.000184	1.842277	0.624180	-0.015052
1454	7.2650e-01	-18.1070	-35.915819	0.000152	1.517785	0.514239	-0.012401
1455	7.2700e-01	-18.1391	-35.981246	0.000160	1.601524	0.542611	-0.013085
1456	7.2750e-01	-18.1888	-36.047528	0.000162	1.622459	0.549704	-0.013256
1457	7.2800e-01	-18.2032	-36.130487	0.000203	2.030691	0.688017	-0.016592
1458	7.2850e-01	-18.2433	-36.208743	0.000192	1.915549	0.649006	-0.015651
1459	7.2900e-01	-18.2995	-36.284005	0.000184	1.842277	0.624180	-0.015052
1460	7.2950e-01	-18.3508	-36.351997	0.000166	1.664329	0.563890	-0.013598
1461	7.3000e-01	-18.3588	-36.431108	0.000194	1.936484	0.656098	-0.015822
1462	7.3050e-01	-18.3973	-36.497390	0.000162	1.622459	0.549704	-0.013256
1463	7.3100e-01	-18.4487	-36.563244	0.000161	1.611992	0.546158	-0.013171
1464	7.3150e-01	-18.4920	-36.643637	0.000197	1.967886	0.666738	-0.016079
1465	7.3200e-01	-18.5562	-36.716334	0.000178	1.779472	0.602901	-0.014539
1466	7.3250e-01	-18.5882	-36.793306	0.000188	1.884146	0.638366	-0.015395
1467	7.3300e-01	-18.6011	-36.869424	0.000186	1.863211	0.631273	-0.015223
1468	7.3350e-01	-18.6797	-36.943403	0.000181	1.810874	0.613541	-0.014796
1469	7.3400e-01	-18.6813	-37.019948	0.000187	1.873679	0.634820	-0.015309
1470	7.3450e-01	-18.7455	-37.092644	0.000178	1.779472	0.602901	-0.014539
1471	7.3500e-01	-18.7695	-37.160636	0.000166	1.664329	0.563890	-0.013598
1472	7.3550e-01	-18.8337	-37.228201	0.000165	1.653862	0.560344	-0.013513
1473	7.3600e-01	-18.8610	-37.308595	0.000197	1.967886	0.666738	-0.016079
1474	7.3650e-01	-18.8786	-37.377870	0.000170	1.695732	0.574529	-0.013855
1475	7.3700e-01	-18.9476	-37.449283	0.000175	1.748069	0.592262	-0.014283
1476	7.3750e-01	-18.9829	-37.522835	0.000180	1.800407	0.609994	-0.014710
1477	7.3800e-01	-19.0342	-37.592966	0.000172	1.716667	0.581622	-0.014026
1478	7.3850e-01	-19.0727	-37.661813	0.000169	1.685264	0.570983	-0.013770
1479	7.3900e-01	-19.0904	-37.742634	0.000198	1.978354	0.670284	-0.016164
1480	7.3950e-01	-19.1385	-37.812337	0.000171	1.706199	0.578076	-0.013941
1481	7.4000e-01	-19.1706	-37.889737	0.000189	1.894614	0.641913	-0.015480
1482	7.4050e-01	-19.2123	-37.962006	0.000177	1.769004	0.599355	-0.014454
1483	7.4100e-01	-19.2540	-38.045393	0.000204	2.041159	0.691563	-0.016677
1484	7.4150e-01	-19.3005	-38.118089	0.000178	1.779472	0.602901	-0.014539
1485	7.4200e-01	-19.3262	-38.200621	0.000202	2.020224	0.684470	-0.016506
1486	7.4250e-01	-19.3888	-38.270752	0.000172	1.716667	0.581622	-0.014026
1487	7.4300e-01	-19.4192	-38.348579	0.000191	1.905081	0.645459	-0.015566
1488	7.4350e-01	-19.4561	-38.422559	0.000181	1.810874	0.613541	-0.014796
1489	7.4400e-01	-19.5059	-38.490123	0.000165	1.653862	0.560344	-0.013513
1490	7.4450e-01	-19.5171	-38.570089	0.000196	1.957419	0.663191	-0.015993
1491	7.4500e-01	-19.5797	-38.645779	0.000185	1.852744	0.627727	-0.015138
1492	7.4550e-01	-19.6502	-38.719758	0.000181	1.810874	0.613541	-0.014796
1493	7.4600e-01	-19.6839	-38.793737	0.000181	1.810874	0.613541	-0.014796
1494	7.4650e-01	-19.7112	-38.873703	0.000196	1.957419	0.663191	-0.015993
1495	7.4700e-01	-19.7449	-38.948965	0.000184	1.842277	0.624180	-0.015052
1496	7.4750e-01	-19.7786	-39.026793	0.000191	1.905081	0.645459	-0.015566
1497	7.4800e-01	-19.8412	-39.102483	0.000185	1.852744	0.627727	-0.015138
1498	7.4850e-01	-19.8732	-39.188008	0.000209	2.093496	0.709296	-0.017105
1499	7.4900e-01	-19.8973	-39.261987	0.000181	1.810874	0.613541	-0.014796
1500	7.4950e-01	-19.9807	-39.337249	0.000184	1.842277	0.624180	-0.015052
1501	7.5000e-01	-19.9759	-39.412083	-0.000183	-1.831809	-0.620634	-0.014967
1502	7.5050e-01	-19.9117	-39.472379	-0.000148	-1.475915	-0.500053	-0.012059
1503	7.5100e-01	-19.8460	-39.493332	-0.000051	-0.512907	-0.173777	-0.004191
1504	7.5150e-01	-19.8492	-39.490766	-0.000006	-0.062805	-0.021279	0.000513
1505	7.5200e-01	-19.8010	-39.478365	0.000030	0.303557	0.102848	0.002480
1506	7.5250e-01	-19.7465	-39.451853	0.000065	0.648984	0.219882	0.005303
1507	7.5300e-01	-19.7176	-39.421064	0.000075	0.753659	0.255346	0.006158
1508	7.5350e-01	-19.6470	-39.397117	0.000059	0.586179	0.198603	0.004789
1509	7.5400e-01	-19.6134	-39.363762	0.000082	0.816463	0.276625	0.006671
1510	7.5450e-01	-19.5909	-39.316723	0.000115	1.151423	0.390113	0.009408
1511	7.5500e-01	-19.5668	-39.284223	0.000080	0.795528	0.269532	0.006500
1512	7.5550e-01	-19.5283	-39.235047	0.000120	1.203760	0.407845	0.009835
1513	7.5600e-01	-19.4626	-39.196988	0.000093	0.931606	0.315637	0.007612
1514	7.5650e-01	-19.4176	-39.152515	0.000109	1.088618	0.368834	0.008895
1515	7.5700e-01	-19.3647	-39.117877	0.000085	0.847866	0.287265	0.006928
1516	7.5750e-01	-19.3519	-39.069128	0.000119	1.193293	0.404299	0.009750
1517	7.5800e-01	-19.3230	-39.022517	0.000114	1.140955	0.386566	0.009322
1518	7.5850e-01	-19.3166	-38.970774	0.000127	1.266565	0.429124	0.010349
1519	7.5900e-01	-19.2235	-38.933998	0.000090	0.900203	0.304997	0.007355
1520	7.5950e-01	-19.1979	-38.889953	0.000108	1.078150	0.365287	0.008809
1521	7.6000e-01	-19.1529	-38.840776	0.000120	1.203760	0.407845	0.009835
1522	7.6050e-01	-19.1128	-38.792454	0.000118	1.182825	0.400752	0.009664
1523	7.6100e-01	-19.1064	-38.736436	0.000137	1.371240	0.464589	0.011204
1524	7.6150e-01	-19.0455	-38.691107	0.000111	1.109553	0.375927	0.009066
1525	7.6200e-01	-19.0198	-38.641503	0.000121	1.214228	0.411391	0.009921
1526	7.6250e-01	-18.9717	-38.588905	0.000129	1.287500	0.436217	0.010520
1527	7.6300e-01	-18.8979	-38.542294	0.000114	1.140955	0.386566	0.009322
1528	7.6350e-01	-18.8513	-38.491406	0.000125	1.245630	0.422031	0.010177
1529	7.6400e-01	-18.8449	-38.434532	0.000139	1.392175	0.471682	0.011375
1530	7.6450e-01	-18.7824	-38.387493	0.000115	1.151423	0.390113	0.009408
1531	7.6500e-01	-18.7695	-38.335323	0.000128	1.277033	0.432670	0.010434
1532	7.6550e-01	-18.7054	-38.289567	0.000112	1.120020	0.379473	0.009151
1533	7.6600e-01	-18.6893	-38.239107	0.000124	1.235163	0.418484	0.010092
1534	7.6650e-01	-18.6396	-38.194634	0.000109	1.088618	0.368834	0.008895
1535	7.6700e-01	-18.5915	-38.140753	0.000132	1.318903	0.446856	0.010776
1536	7.6750e-01	-18.5578	-38.092004	0.000119	1.193293	0.404299	0.009750
1537	7.6800e-01	-18.5305	-38.032992	0.000144	1.444512	0.489414	0.011802
1538	7.6850e-01	-18.4792	-37.978684	0.000133	1.329370	0.450403	0.010862
1539	7.6900e-01	-18.4342	-37.926941	0.000127	1.266565	0.429124	0.010349
1540	7.6950e-01	-18.3893	-37.873488	0.000131	1.308435	0.443310	0.010691
1541	7.7000e-01	-18.3412	-37.823883	0.000121	1.214228	0.411391	0.009921
1542	7.7050e-01	-18.3219	-37.770430	0.000131	1.308435	0.443310	0.010691
1543	7.7100e-01	-18.2883	-37.720825	0.000121	1.214228	0.411391	0.009921
1544	7.7150e-01	-18.2594	-37.663096	0.000141	1.413110	0.478775	0.011546
1545	7.7200e-01	-18.1936	-37.609215	0.000132	1.318903	0.446856	0.010776
1546	7.7250e-01	-18.1551	-37.555762	0.000131	1.308435	0.443310	0.010691
1547	7.7300e-01	-18.1038	-37.507013	0.000119	1.193293	0.404299	0.009750
1548	7.7350e-01	-18.0621	-37.452704	0.000133	1.329370	0.450403	0.010862
1549	7.7400e-01	-18.0300	-37.398824	0.000132	1.318903	0.446856	0.010776
1550	7.7450e-01	-18.0043	-37.341949	0.000139	1.392175	0.471682	0.011375
1551	7.7500e-01	-17.9690	-37.291062	0.000125	1.245630	0.422031	0.010177
1552	7.7550e-01	-17.9257	-37.235043	0.000137	1.371240	0.464589	0.011204
1553	7.7600e-01	-17.8840	-37.182445	0.000129	1.287500	0.436217	0.010520
1554	7.7650e-01	-17.8375	-37.126426	0.000137	1.371240	0.464589	0.011204
1555	7.7700e-01	-17.7942	-37.069552	0.000139	1.392175	0.471682	0.011375
1556	7.7750e-01	-17.7781	-37.013106	0.000138	1.381707	0.468135	0.011289
1557	7.7800e-01	-17.7220	-36.954093	0.000144	1.444512	0.489414	0.011802
1558	7.7850e-01	-17.6995	-36.897647	0.000138	1.381707	0.468135	0.011289
1559	7.7900e-01	-17.6530	-36.844621	0.000130	1.297968	0.439763	0.010605
1560	7.7950e-01	-17.6065	-36.794589	0.000122	1.224695	0.414938	0.010006
1561	7.8000e-01	-17.5551	-36.735577	0.000144	1.444512	0.489414	0.011802
1562	7.8050e-01	-17.5278	-36.682124	0.000131	1.308435	0.443310	0.010691
1563	7.8100e-01	-17.4813	-36.625250	0.000139	1.392175	0.471682	0.011375
1564	7.8150e-01	-17.4139	-36.574790	0.000124	1.235163	0.418484	0.010092
1565	7.8200e-01	-17.3947	-36.515350	0.000145	1.454980	0.492960	0.011888
1566	7.8250e-01	-17.3562	-36.457193	0.000142	1.423577	0.482321	0.011631
1567	7.8300e-01	-17.3353	-36.403312	0.000132	1.318903	0.446856	0.010776
1568	7.8350e-01	-17.2776	-36.346438	0.000139	1.392175	0.471682	0.011375
1569	7.8400e-01	-17.2760	-36.288281	0.000142	1.423577	0.482321	0.011631
1570	7.8450e-01	-17.2166	-36.229696	0.000143	1.434045	0.485868	0.011717
1571	7.8500e-01	-17.1476	-36.173677	0.000137	1.371240	0.464589	0.011204
1572	7.8550e-01	-17.1252	-36.120652	0.000130	1.297968	0.439763	0.010605
1573	7.8600e-01	-17.0706	-36.068481	0.000128	1.277033	0.432670	0.010434
1574	7.8650e-01	-17.0321	-36.010324	0.000142	1.423577	0.482321	0.011631
1575	7.8700e-01	-17.0145	-35.957299	0.000130	1.297968	0.439763	0.010605
1576	7.8750e-01	-16.9632	-35.899569	0.000141	1.413110	0.478775	0.011546
1577	7.8800e-01	-16.9150	-35.841840	0.000141	1.413110	0.478775	0.011546
1578	7.8850e-01	-16.8781	-35.771709	0.000172	1.716667	0.581622	0.014026
1579	7.8900e-01	-16.8460	-35.724243	0.000116	1.161890	0.393659	0.009493
1580	7.8950e-01	-16.8075	-35.668224	0.000137	1.371240	0.464589	0.011204
1581	7.9000e-01	-16.7546	-35.606218	0.000152	1.517785	0.514239	0.012401
1582	7.9050e-01	-16.7113	-35.548061	0.000142	1.423577	0.482321	0.011631
1583	7.9100e-01	-16.6744	-35.487766	0.000148	1.475915	0.500053	0.012059
1584	7.9150e-01	-16.6054	-35.430037	0.000141	1.413110	0.478775	0.011546
1585	7.9200e-01	-16.5894	-35.369742	0.000148	1.475915	0.500053	0.012059
1586	7.9250e-01	-16.5445	-35.305170	0.000158	1.580590	0.535518	0.012914
1587	7.9300e-01	-16.5156	-35.253855	0.000126	1.256098	0.425577	0.010263
1588	7.9350e-01	-16.5027	-35.193560	0.000148	1.475915	0.500053	0.012059
1589	7.9400e-01	-16.4322	-35.139252	0.000133	1.329370	0.450403	0.010862
1590	7.9450e-01	-16.3760	-35.079812	0.000145	1.454980	0.492960	0.011888
1591	7.9500e-01	-16.3487	-35.021655	0.000142	1.423577	0.482321	0.011631
1592	7.9550e-01	-16.3102	-34.965208	0.000138	1.381707	0.468135	0.011289
1593	7.9600e-01	-16.2637	-34.909189	0.000137	1.371240	0.464589	0.011204
1594	7.9650e-01	-16.2461	-34.842480	0.000163	1.632927	0.553251	0.013342
1595	7.9700e-01	-16.1771	-34.784323	0.000142	1.423577	0.482321	0.011631
1596	7.9750e-01	-16.1354	-34.726593	0.000141	1.413110	0.478775	0.011546
1597	7.9800e-01	-16.1017	-34.669719	0.000139	1.392175	0.471682	0.011375
1598	7.9850e-01	-16.1097	-34.599161	-0.000173	-1.727134	-0.585169	0.014112
1599	7.9900e-01	-16.0279	-34.550412	0.000119	1.193293	0.404299	0.009750
1600	7.9950e-01	-15.9990	-34.493965	0.000138	1.381707	0.468135	0.011289
1601	8.0000e-01	-15.9733	-34.431104	0.000154	1.538720	0.521332	0.012572
1602	8.0050e-01	-15.8947	-34.375941	0.000135	1.350305	0.457496	0.011033
1603	8.0100e-01	-15.8370	-34.312652	0.000155	1.549187	0.524879	0.012658
1604	8.0150e-01	-15.8242	-34.248081	0.000158	1.580590	0.535518	0.012914
1605	8.0200e-01	-15.7985	-34.193772	0.000133	1.329370	0.450403	0.010862
1606	8.0250e-01	-15.7760	-34.130484	0.000155	1.549187	0.524879	0.012658
1607	8.0300e-01	-15.7135	-34.071899	0.000143	1.434045	0.485868	0.011717
1608	8.0350e-01	-15.6942	-34.009893	0.000152	1.517785	0.514239	0.012401
1609	8.0400e-01	-15.6332	-33.953019	0.000139	1.392175	0.471682	0.011375
1610	8.0450e-01	-15.5755	-33.897428	0.000136	1.360772	0.461042	0.011118
1611	8.0500e-01	-15.5803	-33.834995	-0.000153	-1.528252	-0.517786	0.012487
1612	8.0550e-01	-15.5161	-33.778120	0.000139	1.392175	0.471682	0.011375
1613	8.0600e-01	-15.4744	-33.711839	0.000162	1.622459	0.549704	0.013256
1614	8.0650e-01	-15.4183	-33.658813	0.000130	1.297968	0.439763	0.010605
1615	8.0700e-01	-15.3830	-33.596380	0.000153	1.528252	0.517786	0.012487
1616	8.0750e-01	-15.3284	-33.540361	0.000137	1.371240	0.464589	0.011204
1617	8.0800e-01	-15.3092	-33.478355	0.000152	1.517785	0.514239	0.012401
1618	8.0850e-01	-15.2819	-33.414639	0.000156	1.559655	0.528425	0.012743
1619	8.0900e-01	-15.2402	-33.355199	0.000145	1.454980	0.492960	0.011888
1620	8.0950e-01	-15.1809	-33.289772	0.000160	1.601524	0.542611	0.013085
1621	8.1000e-01	-15.1568	-33.234181	0.000136	1.360772	0.461042	0.011118
1622	8.1050e-01	-15.0910	-33.178162	0.000137	1.371240	0.464589	0.011204
1623	8.1100e-01	-15.0798	-33.112736	0.000160	1.601524	0.542611	0.013085
1624	8.1150e-01	-15.0413	-33.053296	0.000145	1.454980	0.492960	0.011888
1625	8.1200e-01	-14.9996	-32.993000	0.000148	1.475915	0.500053	0.012059
1626	8.1250e-01	-14.9675	-32.936554	0.000138	1.381707	0.468135	0.011289
1627	8.1300e-01	-14.9370	-32.877542	0.000144	1.444512	0.489414	0.011802
1628	8.1350e-01	-14.8953	-32.814253	0.000155	1.549187	0.524879	0.012658
1629	8.1400e-01	-14.8408	-32.756096	0.000142	1.423577	0.482321	0.011631
1630	8.1450e-01	-14.7814	-32.697511	0.000143	1.434045	0.485868	0.011717
1631	8.1500e-01	-14.7509	-32.635933	0.000151	1.507317	0.510693	0.012316
1632	8.1550e-01	-14.6932	-32.574783	0.000150	1.496850	0.507146	0.012230
1633	8.1600e-01	-14.6643	-32.512777	0.000152	1.517785	0.514239	0.012401
1634	8.1650e-01	-14.6306	-32.448206	0.000158	1.580590	0.535518	0.012914
1635	8.1700e-01	-14.6194	-32.389621	0.000143	1.434045	0.485868	0.011717
1636	8.1750e-01	-14.5680	-32.326760	0.000154	1.538720	0.521332	0.012572
1637	8.1800e-01	-14.5119	-32.269886	0.000139	1.392175	0.471682	0.011375
1638	8.1850e-01	-14.4846	-32.208736	0.000150	1.496850	0.507146	0.012230
1639	8.1900e-01	-14.4285	-32.147158	0.000151	1.507317	0.510693	0.012316
1640	8.1950e-01	-14.3948	-32.085580	0.000151	1.507317	0.510693	0.012316
1641	8.2000e-01	-14.3483	-32.030416	0.000135	1.350305	0.457496	0.011033
1642	8.2050e-01	-14.3210	-31.963279	0.000164	1.643394	0.556797	0.013427
1643	8.2100e-01	-14.2889	-31.899563	0.000156	1.559655	0.528425	0.012743
1644	8.2150e-01	-14.2328	-31.837557	0.000152	1.517785	0.514239	0.012401
1645	8.2200e-01	-14.1959	-31.778545	0.000144	1.444512	0.489414	0.011802
1646	8.2250e-01	-14.1237	-31.717822	0.000149	1.486382	0.503600	0.012145
1647	8.2300e-01	-14.1253	-31.653250	-0.000158	-1.580590	-0.535518	0.012914
1648	8.2350e-01	-14.0916	-31.590390	0.000154	1.538720	0.521332	0.012572
1649	8.2400e-01	-14.0611	-31.529239	0.000150	1.496850	0.507146	0.012230
1650	8.2450e-01	-13.9969	-31.468089	0.000150	1.496850	0.507146	0.012230
1651	8.2500e-01	-13.9697	-31.402234	0.000161	1.611992	0.546158	0.013171
1652	8.2550e-01	-13.9167	-31.341084	0.000150	1.496850	0.507146	0.012230
1653	8.2600e-01	-13.8558	-31.284210	0.000139	1.392175	0.471682	0.011375
1654	8.2650e-01	-13.8060	-31.223059	0.000150	1.496850	0.507146	0.012230
1655	8.2700e-01	-13.7723	-31.155067	0.000166	1.664329	0.563890	0.013598
1656	8.2750e-01	-13.7467	-31.095627	0.000145	1.454980	0.492960	0.011888
1657	8.2800e-01	-13.7034	-31.030628	0.000159	1.591057	0.539065	0.013000
1658	8.2850e-01	-13.6633	-30.969050	0.000151	1.507317	0.510693	0.012316
1659	8.2900e-01	-13.6745	-30.901485	-0.000165	-1.653862	-0.560344	0.013513
1660	8.2950e-01	-13.5622	-30.846749	0.000134	1.339837	0.453949	0.010947
1661	8.3000e-01	-13.5461	-30.772342	0.000182	1.821342	0.617087	0.014881
1662	8.3050e-01	-13.4996	-30.716323	0.000137	1.371240	0.464589	0.011204
1663	8.3100e-01	-13.4515	-30.653035	0.000155	1.549187	0.524879	0.012658
1664	8.3150e-01	-13.4467	-30.597871	0.000135	1.350305	0.457496	0.011033
1665	8.3200e-01	-13.4146	-30.526885	0.000174	1.737602	0.588715	0.014197
1666	8.3250e-01	-13.3552	-30.458038	0.000169	1.685264	0.570983	0.013770
1667	8.3300e-01	-13.3023	-30.399453	0.000143	1.434045	0.485868	0.011717
1668	8.3350e-01	-13.2718	-30.338730	0.000149	1.486382	0.503600	0.012145
1669	8.3400e-01	-13.2381	-30.268600	0.000172	1.716667	0.581622	0.014026
1670	8.3450e-01	-13.2076	-30.202746	0.000161	1.611992	0.546158	0.013171
1671	8.3500e-01	-13.1387	-30.144588	0.000142	1.423577	0.482321	0.011631
1672	8.3550e-01	-13.1242	-30.079589	0.000159	1.591057	0.539065	0.013000
1673	8.3600e-01	-13.0649	-30.017584	0.000152	1.517785	0.514239	0.012401
1674	8.3650e-01	-13.0424	-29.948736	0.000169	1.685264	0.570983	0.013770
1675	8.3700e-01	-12.9895	-29.891434	0.000140	1.402642	0.475228	0.011460
1676	8.3750e-01	-12.9413	-29.828573	0.000154	1.538720	0.521332	0.012572
1677	8.3800e-01	-12.9397	-29.749890	0.000193	1.926016	0.652552	0.015737
1678	8.3850e-01	-12.8740	-29.689595	0.000148	1.475915	0.500053	0.012059
1679	8.3900e-01	-12.8339	-29.616899	0.000178	1.779472	0.602901	0.014539
1680	8.3950e-01	-12.8034	-29.556604	0.000148	1.475915	0.500053	0.012059
1681	8.4000e-01	-12.7520	-29.498447	0.000142	1.423577	0.482321	0.011631
1682	8.4050e-01	-12.6863	-29.440717	0.000141	1.413110	0.478775	0.011546
1683	8.4100e-01	-12.6702	-29.376146	0.000158	1.580590	0.535518	0.012914
1684	8.4150e-01	-12.6301	-29.313285	0.000154	1.538720	0.521332	0.012572
1685	8.4200e-01	-12.6221	-29.240161	0.000179	1.789939	0.606448	0.014625
1686	8.4250e-01	-12.5788	-29.173879	0.000162	1.622459	0.549704	0.013256
1687	8.4300e-01	-12.5034	-29.114867	0.000144	1.444512	0.489414	0.011802
1688	8.4350e-01	-12.4729	-29.049868	0.000159	1.591057	0.539065	0.013000
1689	8.4400e-01	-12.4344	-28.985296	0.000158	1.580590	0.535518	0.012914
1690	8.4450e-01	-12.3927	-28.917304	0.000166	1.664329	0.563890	0.013598
1691	8.4500e-01	-12.3446	-28.857009	0.000148	1.475915	0.500053	0.012059
1692	8.4550e-01	-12.3317	-28.792437	0.000158	1.580590	0.535518	0.012914
1693	8.4600e-01	-12.2740	-28.730859	0.000151	1.507317	0.510693	0.012316
1694	8.4650e-01	-12.2307	-28.660729	0.000172	1.716667	0.581622	0.014026
1695	8.4700e-01	-12.1713	-28.600434	0.000148	1.475915	0.500053	0.012059
1696	8.4750e-01	-12.1232	-28.535007	0.000160	1.601524	0.542611	0.013085
1697	8.4800e-01	-12.1007	-28.469153	0.000161	1.611992	0.546158	0.013171
1698	8.4850e-01	-12.0526	-28.403726	0.000160	1.601524	0.542611	0.013085
1699	8.4900e-01	-12.0237	-28.329747	0.000181	1.810874	0.613541	0.014796
1700	8.4950e-01	-12.0061	-28.261754	0.000166	1.664329	0.563890	0.013598
1701	8.5000e-01	-11.9692	-28.202742	0.000144	1.444512	0.489414	0.011802
1702	8.5050e-01	-11.9211	-28.137315	0.000160	1.601524	0.542611	0.013085
1703	8.5100e-01	-11.8793	-28.067185	0.000172	1.716667	0.581622	0.014026
1704	8.5150e-01	-11.8280	-28.004752	0.000153	1.528252	0.517786	0.012487
1705	8.5200e-01	-11.8184	-27.932483	0.000177	1.769004	0.599355	0.014454
1706	8.5250e-01	-11.7334	-27.871760	0.000149	1.486382	0.503600	0.012145
1707	8.5300e-01	-11.7093	-27.806333	0.000160	1.601524	0.542611	0.013085
1708	8.5350e-01	-11.6708	-27.737058	0.000170	1.695732	0.574529	0.013855
1709	8.5400e-01	-11.6291	-27.676335	0.000149	1.486382	0.503600	0.012145
1710	8.5450e-01	-11.6050	-27.607060	0.000170	1.695732	0.574529	0.013855
1711	8.5500e-01	-11.5681	-27.539923	0.000164	1.643394	0.556797	0.013427
1712	8.5550e-01	-11.5007	-27.478773	0.000150	1.496850	0.507146	0.012230
1713	8.5600e-01	-11.4735	-27.408214	0.000173	1.727134	0.585169	0.014112
1714	8.5650e-01	-11.4366	-27.342788	0.000160	1.601524	0.542611	0.013085
1715	8.5700e-01	-11.3884	-27.278216	0.000158	1.580590	0.535518	0.012914
1716	8.5750e-01	-11.3564	-27.214072	0.000157	1.570122	0.531972	0.012829
1717	8.5800e-01	-11.2938	-27.149501	0.000158	1.580590	0.535518	0.012914
1718	8.5850e-01	-11.2745	-27.076805	0.000178	1.779472	0.602901	0.014539
1719	8.5900e-01	-11.2521	-27.007529	0.000170	1.695732	0.574529	0.013855
1720	8.5950e-01	-11.1991	-26.938682	0.000169	1.685264	0.570983	0.013770
1721	8.6000e-01	-11.1510	-26.872828	0.000161	1.611992	0.546158	0.013171
1722	8.6050e-01	-11.1125	-26.810822	0.000152	1.517785	0.514239	0.012401
1723	8.6100e-01	-11.0981	-26.736415	0.000182	1.821342	0.617087	0.014881
1724	8.6150e-01	-11.0243	-26.672699	0.000156	1.559655	0.528425	0.012743
1725	8.6200e-01	-11.0066	-26.600430	0.000177	1.769004	0.599355	0.014454
1726	8.6250e-01	-10.9601	-26.529444	0.000174	1.737602	0.588715	0.014197
1727	8.6300e-01	-10.9216	-26.466156	0.000155	1.549187	0.524879	0.012658
1728	8.6350e-01	-10.8639	-26.397736	0.000167	1.674797	0.567437	0.013684
1729	8.6400e-01	-10.8366	-26.337868	0.000147	1.465447	0.496507	0.011974
1730	8.6450e-01	-10.8093	-26.261323	0.000187	1.873679	0.634820	0.015309
1731	8.6500e-01	-10.7307	-26.201028	0.000148	1.475915	0.500053	0.012059
1732	8.6550e-01	-10.7275	-26.126194	0.000183	1.831809	0.620634	0.014967
1733	8.6600e-01	-10.6633	-26.059057	0.000164	1.643394	0.556797	0.013427
1734	8.6650e-01	-10.6345	-25.985505	0.000180	1.800407	0.609994	0.014710
1735	8.6700e-01	-10.6136	-25.924782	0.000149	1.486382	0.503600	0.012145
1736	8.6750e-01	-10.5382	-25.856362	0.000167	1.674797	0.567437	0.013684
1737	8.6800e-01	-10.4933	-25.791363	0.000159	1.591057	0.539065	0.013000
1738	8.6850e-01	-10.4500	-25.720377	0.000174	1.737602	0.588715	0.014197
1739	8.6900e-01	-10.4163	-25.650247	0.000172	1.716667	0.581622	0.014026
1740	8.6950e-01	-10.4099	-25.583965	0.000162	1.622459	0.549704	0.013256
1741	8.7000e-01	-10.3409	-25.509131	0.000183	1.831809	0.620634	0.014967
1742	8.7050e-01	-10.3232	-25.439855	0.000170	1.695732	0.574529	0.013855
1743	8.7100e-01	-10.2559	-25.375711	0.000157	1.570122	0.531972	0.012829
1744	8.7150e-01	-10.2286	-25.308147	0.000165	1.653862	0.560344	0.013513
1745	8.7200e-01	-10.1933	-25.235450	0.000178	1.779472	0.602901	0.014539
1746	8.7250e-01	-10.1724	-25.170451	0.000159	1.591057	0.539065	0.013000
1747	8.7300e-01	-10.1259	-25.099893	0.000173	1.727134	0.585169	0.014112
1748	8.7350e-01	-10.0762	-25.029335	0.000173	1.727134	0.585169	0.014112
1749	8.7400e-01	-10.0216	-24.957922	0.000175	1.748069	0.592262	0.014283
1750	8.7450e-01	-9.9976	-24.879238	0.000193	1.926016	0.652552	0.015737
1751	8.7500e-01	-9.9511	-24.820226	0.000144	1.444512	0.489414	0.011802
1752	8.7550e-01	-9.9270	-24.739405	0.000198	1.978354	0.670284	0.016164
1753	8.7600e-01	-9.8741	-24.676544	0.000154	1.538720	0.521332	0.012572
1754	8.7650e-01	-9.7987	-24.617959	0.000143	1.434045	0.485868	0.011717
1755	8.7700e-01	-9.7906	-24.538849	0.000194	1.936484	0.656098	0.015822
1756	8.7750e-01	-9.7618	-24.465725	0.000179	1.789939	0.606448	0.014625
1757	8.7800e-01	-9.7168	-24.402436	0.000155	1.549187	0.524879	0.012658
1758	8.7850e-01	-9.6607	-24.331023	0.000175	1.748069	0.592262	0.014283
1759	8.7900e-01	-9.6174	-24.265596	0.000160	1.601524	0.542611	0.013085
1760	8.7950e-01	-9.6126	-24.183920	0.000200	1.999289	0.677377	0.016335
1761	8.8000e-01	-9.5436	-24.120204	0.000156	1.559655	0.528425	0.012743
1762	8.8050e-01	-9.5051	-24.046652	0.000180	1.800407	0.609994	0.014710
1763	8.8100e-01	-9.4858	-23.972245	0.000182	1.821342	0.617087	0.014881
1764	8.8150e-01	-9.4393	-23.903825	0.000167	1.674797	0.567437	0.013684
1765	8.8200e-01	-9.4152	-23.830701	0.000179	1.789939	0.606448	0.014625
1766	8.8250e-01	-9.3463	-23.763564	0.000164	1.643394	0.556797	0.013427
1767	8.8300e-01	-9.3190	-23.685309	0.000192	1.915549	0.649006	0.015651
1768	8.8350e-01	-9.2725	-23.623731	0.000151	1.507317	0.510693	0.012316
1769	8.8400e-01	-9.2243	-23.552745	0.000174	1.737602	0.588715	0.014197
1770	8.8450e-01	-9.2131	-23.476200	0.000187	1.873679	0.634820	0.015309
1771	8.8500e-01	-9.1425	-23.409918	0.000162	1.622459	0.549704	0.013256
1772	8.8550e-01	-9.0880	-23.337649	0.000177	1.769004	0.599355	0.014454
1773	8.8600e-01	-9.0784	-23.261960	0.000185	1.852744	0.627727	0.015138
1774	8.8650e-01	-9.0062	-23.196533	0.000160	1.601524	0.542611	0.013085
1775	8.8700e-01	-8.9741	-23.124692	0.000176	1.758537	0.595808	0.014368
1776	8.8750e-01	-8.9532	-23.049430	0.000184	1.842277	0.624180	0.015052
1777	8.8800e-01	-8.9019	-22.978017	0.000175	1.748069	0.592262	0.014283
1778	8.8850e-01	-8.8858	-22.907886	0.000172	1.716667	0.581622	0.014026
1779	8.8900e-01	-8.8393	-22.838183	0.000171	1.706199	0.578076	0.013941
1780	8.8950e-01	-8.8024	-22.756934	0.000199	1.988821	0.673831	0.016250
1781	8.9000e-01	-8.7559	-22.686804	0.000172	1.716667	0.581622	0.014026
1782	8.9050e-01	-8.7062	-22.615818	0.000174	1.737602	0.588715	0.014197
1783	8.9100e-01	-8.6949	-22.542266	0.000180	1.800407	0.609994	0.014710
1784	8.9150e-01	-8.6324	-22.482399	0.000147	1.465447	0.496507	0.011974
1785	8.9200e-01	-8.6099	-22.402005	0.000197	1.967886	0.666738	0.016079
1786	8.9250e-01	-8.5361	-22.333585	0.000167	1.674797	0.567437	0.013684
1787	8.9300e-01	-8.5185	-22.258323	0.000184	1.842277	0.624180	0.015052
1788	8.9350e-01	-8.4527	-22.197600	0.000149	1.486382	0.503600	0.012145
1789	8.9400e-01	-8.4110	-22.116352	0.000199	1.988821	0.673831	0.016250
1790	8.9450e-01	-8.4126	-22.040662	-0.000185	-1.852744	-0.627727	0.015138
1791	8.9500e-01	-8.3725	-21.960696	0.000196	1.957419	0.663191	0.015993
1792	8.9550e-01	-8.2923	-21.900828	0.000147	1.465447	0.496507	0.011974
1793	8.9600e-01	-8.2987	-21.817869	-0.000203	-2.030691	-0.688017	0.016592
1794	8.9650e-01	-8.2490	-21.746456	0.000175	1.748069	0.592262	0.014283
1795	8.9700e-01	-8.1992	-21.676753	0.000171	1.706199	0.578076	0.013941
1796	8.9750e-01	-8.1335	-21.604484	0.000177	1.769004	0.599355	0.014454
1797	8.9800e-01	-8.0853	-21.529222	0.000184	1.842277	0.624180	0.015052
1798	8.9850e-01	-8.0500	-21.452677	0.000187	1.873679	0.634820	0.015309
1799	8.9900e-01	-7.9987	-21.385112	0.000165	1.653862	0.560344	0.013513
1800	8.9950e-01	-7.9666	-21.303436	0.000200	1.999289	0.677377	0.016335
1801	9.0000e-01	-7.9265	-21.238865	0.000158	1.580590	0.535518	0.012914
1802	9.0050e-01	-7.9137	-21.151629	0.000214	2.135366	0.723482	0.017447
1803	9.0100e-01	-7.8896	-21.075939	0.000185	1.852744	0.627727	0.015138
1804	9.0150e-01	-7.8271	-21.016072	0.000147	1.465447	0.496507	0.011974
1805	9.0200e-01	-7.7982	-20.942520	0.000180	1.800407	0.609994	0.014710
1806	9.0250e-01	-7.7500	-20.866403	0.000186	1.863211	0.631273	0.015223
1807	9.0300e-01	-7.6891	-20.789430	0.000188	1.884146	0.638366	0.015395
1808	9.0350e-01	-7.6490	-20.714596	0.000183	1.831809	0.620634	0.014967
1809	9.0400e-01	-7.6249	-20.629926	0.000207	2.072561	0.702203	0.016934
1810	9.0450e-01	-7.5848	-20.556375	0.000180	1.800407	0.609994	0.014710
1811	9.0500e-01	-7.5383	-20.489237	0.000164	1.643394	0.556797	0.013427
1812	9.0550e-01	-7.4902	-20.419962	0.000170	1.695732	0.574529	0.013855
1813	9.0600e-01	-7.5078	-20.339569	-0.000197	-1.967886	-0.666738	0.016079
1814	9.0650e-01	-7.4533	-20.262168	0.000189	1.894614	0.641913	0.015480
1815	9.0700e-01	-7.4180	-20.179637	0.000202	2.020224	0.684470	0.016506
1816	9.0750e-01	-7.3426	-20.110789	0.000169	1.685264	0.570983	0.013770
1817	9.0800e-01	-7.2977	-20.038520	0.000177	1.769004	0.599355	0.014454
1818	9.0850e-01	-7.2624	-19.964541	0.000181	1.810874	0.613541	0.014796
1819	9.0900e-01	-7.2319	-19.887141	0.000189	1.894614	0.641913	0.015480
1820	9.0950e-01	-7.1886	-19.808458	0.000193	1.926016	0.652552	0.015737
1821	9.1000e-01	-7.1693	-19.731058	0.000189	1.894614	0.641913	0.015480
1822	9.1050e-01	-7.0939	-19.658362	0.000178	1.779472	0.602901	0.014539
1823	9.1100e-01	-7.0699	-19.580534	0.000191	1.905081	0.645459	0.015566
1824	9.1150e-01	-7.0057	-19.503989	0.000187	1.873679	0.634820	0.015309
1825	9.1200e-01	-6.9736	-19.432575	0.000175	1.748069	0.592262	0.014283
1826	9.1250e-01	-6.9640	-19.339353	0.000228	2.281911	0.773132	0.018644
1827	9.1300e-01	-6.8950	-19.274782	0.000158	1.580590	0.535518	0.012914
1828	9.1350e-01	-6.8870	-19.191822	0.000203	2.030691	0.688017	0.016592
1829	9.1400e-01	-6.8565	-19.116988	0.000183	1.831809	0.620634	0.014967
1830	9.1450e-01	-6.8132	-19.031463	0.000209	2.093496	0.709296	0.017105
1831	9.1500e-01	-6.7506	-18.960477	0.000174	1.737602	0.588715	0.014197
1832	9.1550e-01	-6.7265	-18.891629	0.000169	1.685264	0.570983	0.013770
1833	9.1600e-01	-6.6832	-18.806532	0.000208	2.083029	0.705749	0.017019
1834	9.1650e-01	-6.6255	-18.740678	0.000161	1.611992	0.546158	0.013171
1835	9.1700e-01	-6.5886	-18.653870	0.000212	2.124898	0.719935	0.017362
1836	9.1750e-01	-6.5405	-18.577325	0.000187	1.873679	0.634820	0.015309
1837	9.1800e-01	-6.5244	-18.490517	0.000212	2.124898	0.719935	0.017362
1838	9.1850e-01	-6.4217	-18.425090	0.000160	1.601524	0.542611	0.013085
1839	9.1900e-01	-6.4105	-18.343414	0.000200	1.999289	0.677377	0.016335
1840	9.1950e-01	-6.4282	-18.243349	-0.000245	-2.449390	-0.829876	0.020013
1841	9.2000e-01	-6.3463	-18.187758	0.000136	1.360772	0.461042	0.011118
1842	9.2050e-01	-6.3239	-18.109503	0.000192	1.915549	0.649006	0.015651
1843	9.2100e-01	-6.2581	-18.034241	0.000184	1.842277	0.624180	0.015052
1844	9.2150e-01	-6.2469	-17.947860	0.000211	2.114431	0.716389	0.017276
1845	9.2200e-01	-6.1955	-17.886710	0.000150	1.496850	0.507146	0.012230
1846	9.2250e-01	-6.1554	-17.795626	0.000223	2.229573	0.755400	0.018217
1847	9.2300e-01	-6.1234	-17.721219	0.000182	1.821342	0.617087	0.014881
1848	9.2350e-01	-6.1041	-17.640398	0.000198	1.978354	0.670284	0.016164
1849	9.2400e-01	-6.0271	-17.562142	0.000192	1.915549	0.649006	0.015651
1850	9.2450e-01	-6.0111	-17.480038	0.000201	2.009756	0.680924	0.016421
1851	9.2500e-01	-5.9742	-17.407342	0.000178	1.779472	0.602901	0.014539
1852	9.2550e-01	-5.9196	-17.321389	0.000210	2.103964	0.712842	0.017191
1853	9.2600e-01	-5.8956	-17.236292	0.000208	2.083029	0.705749	0.017019
1854	9.2650e-01	-5.8186	-17.164023	0.000177	1.769004	0.599355	0.014454
1855	9.2700e-01	-5.7817	-17.084485	0.000195	1.946951	0.659645	0.015908
1856	9.2750e-01	-5.7448	-17.002809	0.000200	1.999289	0.677377	0.016335
1857	9.2800e-01	-5.7191	-16.920277	0.000202	2.020224	0.684470	0.016506
1858	9.2850e-01	-5.6838	-16.846298	0.000181	1.810874	0.613541	0.014796
1859	9.2900e-01	-5.6373	-16.762483	0.000205	2.051626	0.695110	0.016763
1860	9.2950e-01	-5.5908	-16.680379	0.000201	2.009756	0.680924	0.016421
1861	9.3000e-01	-5.5378	-16.605117	0.000184	1.842277	0.624180	0.015052
1862	9.3050e-01	-5.4849	-16.522158	0.000203	2.030691	0.688017	0.016592
1863	9.3100e-01	-5.4801	-16.443902	0.000192	1.915549	0.649006	0.015651
1864	9.3150e-01	-5.4207	-16.364792	0.000194	1.936484	0.656098	0.015822
1865	9.3200e-01	-5.3613	-16.286109	0.000193	1.926016	0.652552	0.015737
1866	9.3250e-01	-5.3277	-16.197590	0.000217	2.166768	0.734121	0.017704
1867	9.3300e-01	-5.2795	-16.127032	0.000173	1.727134	0.585169	0.014112
1868	9.3350e-01	-5.3036	-16.026968	-0.000245	-2.449390	-0.829876	0.020013
1869	9.3400e-01	-5.2442	-15.949140	0.000191	1.905081	0.645459	0.015566
1870	9.3450e-01	-5.1833	-15.872167	0.000188	1.884146	0.638366	0.015395
1871	9.3500e-01	-5.1560	-15.794340	0.000191	1.905081	0.645459	0.015566
1872	9.3550e-01	-5.0999	-15.698551	0.000234	2.344716	0.794411	0.019158
1873	9.3600e-01	-5.0710	-15.615592	0.000203	2.030691	0.688017	0.016592
1874	9.3650e-01	-5.0581	-15.542041	0.000180	1.800407	0.609994	0.014710
1875	9.3700e-01	-4.9811	-15.457371	0.000207	2.072561	0.702203	0.016934
1876	9.3750e-01	-4.9603	-15.375694	0.000200	1.999289	0.677377	0.016335
1877	9.3800e-01	-4.9314	-15.291025	0.000207	2.072561	0.702203	0.016934
1878	9.3850e-01	-4.8785	-15.208493	0.000202	2.020224	0.684470	0.016506
1879	9.3900e-01	-4.8255	-15.131093	0.000189	1.894614	0.641913	0.015480
1880	9.3950e-01	-4.7918	-15.046851	0.000206	2.062094	0.698656	0.016848
1881	9.4000e-01	-4.7229	-14.968595	0.000192	1.915549	0.649006	0.015651
1882	9.4050e-01	-4.7084	-14.882215	0.000211	2.114431	0.716389	0.017276
1883	9.4100e-01	-4.6667	-14.794552	0.000215	2.145833	0.727028	0.017533
1884	9.4150e-01	-4.6378	-14.704323	0.000221	2.208638	0.748307	0.018046
1885	9.4200e-01	-4.5993	-14.624357	0.000196	1.957419	0.663191	0.015993
1886	9.4250e-01	-4.5384	-14.548667	0.000185	1.852744	0.627727	0.015138
1887	9.4300e-01	-4.5031	-14.463142	0.000209	2.093496	0.709296	0.017105
1888	9.4350e-01	-4.4935	-14.371203	0.000225	2.250508	0.762493	0.018388
1889	9.4400e-01	-4.4373	-14.285678	0.000209	2.093496	0.709296	0.017105
1890	9.4450e-01	-4.4068	-14.209560	0.000186	1.863211	0.631273	0.015223
1891	9.4500e-01	-4.3250	-14.132160	0.000189	1.894614	0.641913	0.015480
1892	9.4550e-01	-4.3106	-14.031668	0.000246	2.459858	0.833422	0.020098
1893	9.4600e-01	-4.2913	-13.938018	0.000229	2.292378	0.776679	0.018730
1894	9.4650e-01	-4.2512	-13.860190	0.000191	1.905081	0.645459	0.015566
1895	9.4700e-01	-4.2175	-13.774238	0.000210	2.103964	0.712842	0.017191
1896	9.4750e-01	-4.1437	-13.691278	0.000203	2.030691	0.688017	0.016592
1897	9.4800e-01	-4.1133	-13.605326	0.000210	2.103964	0.712842	0.017191
1898	9.4850e-01	-4.0924	-13.524077	0.000199	1.988821	0.673831	0.016250
1899	9.4900e-01	-4.0395	-13.441118	0.000203	2.030691	0.688017	0.016592
1900	9.4950e-01	-4.0090	-13.347040	0.000230	2.302846	0.780225	0.018816
1901	9.5000e-01	-3.9544	-13.269212	0.000191	1.905081	0.645459	0.015566
1902	9.5050e-01	-3.9127	-13.174707	0.000231	2.313313	0.783772	0.018901
1903	9.5100e-01	-3.8470	-13.098162	0.000187	1.873679	0.634820	0.015309
1904	9.5150e-01	-3.8405	-13.002374	0.000234	2.344716	0.794411	0.019158
1905	9.5200e-01	-3.7812	-12.922836	0.000195	1.946951	0.659645	0.015908
1906	9.5250e-01	-3.7699	-12.832179	0.000222	2.219106	0.751853	0.018131
1907	9.5300e-01	-3.6962	-12.752641	0.000195	1.946951	0.659645	0.015908
1908	9.5350e-01	-3.6737	-12.653432	0.000243	2.428455	0.822783	0.019842
1909	9.5400e-01	-3.6528	-12.563631	0.000220	2.198171	0.744760	0.017960
1910	9.5450e-01	-3.6111	-12.477678	0.000210	2.103964	0.712842	0.017191
1911	9.5500e-01	-3.5662	-12.396429	0.000199	1.988821	0.673831	0.016250
1912	9.5550e-01	-3.5405	-12.292089	0.000255	2.554065	0.865341	0.020868
1913	9.5600e-01	-3.4716	-12.212550	0.000195	1.946951	0.659645	0.015908
1914	9.5650e-01	-3.4170	-12.123177	0.000219	2.187703	0.741214	0.017875
1915	9.5700e-01	-3.3994	-12.037224	0.000210	2.103964	0.712842	0.017191
1916	9.5750e-01	-3.3448	-11.947850	0.000219	2.187703	0.741214	0.017875
1917	9.5800e-01	-3.2919	-11.861897	0.000210	2.103964	0.712842	0.017191
1918	9.5850e-01	-3.3095	-11.749860	-0.000274	-2.742480	-0.929177	0.022408
1919	9.5900e-01	-3.2373	-11.674598	0.000184	1.842277	0.624180	0.015052
1920	9.5950e-01	-3.1908	-11.584369	0.000221	2.208638	0.748307	0.018046
1921	9.6000e-01	-3.1892	-11.477890	0.000261	2.606403	0.883073	0.021296
1922	9.6050e-01	-3.1283	-11.402628	0.000184	1.842277	0.624180	0.015052
1923	9.6100e-01	-3.0721	-11.317531	0.000208	2.083029	0.705749	0.017019
1924	9.6150e-01	-3.0272	-11.229440	0.000216	2.156301	0.730575	0.017618
1925	9.6200e-01	-2.9935	-11.135362	0.000230	2.302846	0.780225	0.018816
1926	9.6250e-01	-2.9085	-11.057962	0.000189	1.894614	0.641913	0.015480
1927	9.6300e-01	-2.9021	-10.963884	0.000230	2.302846	0.780225	0.018816
1928	9.6350e-01	-2.8732	-10.865531	0.000241	2.407520	0.815690	0.019671
1929	9.6400e-01	-2.8459	-10.771881	0.000229	2.292378	0.776679	0.018730
1930	9.6450e-01	-2.7721	-10.679514	0.000226	2.260976	0.766039	0.018473
1931	9.6500e-01	-2.7481	-10.592278	0.000214	2.135366	0.723482	0.017447
1932	9.6550e-01	-2.7224	-10.495635	0.000237	2.365651	0.801504	0.019329
1933	9.6600e-01	-2.6694	-10.406261	0.000219	2.187703	0.741214	0.017875
1934	9.6650e-01	-2.6133	-10.314322	0.000225	2.250508	0.762493	0.018388
1935	9.6700e-01	-2.5716	-10.218534	0.000234	2.344716	0.794411	0.019158
1936	9.6750e-01	-2.5716	-10.120607	-0.000240	-2.397053	-0.812144	0.019585
1937	9.6800e-01	-2.5235	-10.031661	0.000218	2.177236	0.737667	0.017789
1938	9.6850e-01	-2.4737	-9.941860	0.000220	2.198171	0.744760	0.017960
1939	9.6900e-01	-2.4625	-9.850348	0.000224	2.240041	0.758946	0.018302
1940	9.6950e-01	-2.3983	-9.745580	0.000256	2.564533	0.868887	0.020954
1941	9.7000e-01	-2.3518	-9.653213	0.000226	2.260976	0.766039	0.018473
1942	9.7050e-01	-2.3310	-9.565122	0.000216	2.156301	0.730575	0.017618
1943	9.7100e-01	-2.2620	-9.469334	0.000234	2.344716	0.794411	0.019158
1944	9.7150e-01	-2.2170	-9.379105	0.000221	2.208638	0.748307	0.018046
1945	9.7200e-01	-2.2026	-9.273482	0.000259	2.585468	0.875980	0.021125
1946	9.7250e-01	-2.1625	-9.178121	0.000233	2.334248	0.790865	0.019072
1947	9.7300e-01	-2.1160	-9.078912	0.000243	2.428455	0.822783	0.019842
1948	9.7350e-01	-2.0646	-8.990821	0.000216	2.156301	0.730575	0.017618
1949	9.7400e-01	-1.9989	-8.900165	0.000222	2.219106	0.751853	0.018131
1950	9.7450e-01	-1.9780	-8.800956	0.000243	2.428455	0.822783	0.019842
1951	9.7500e-01	-1.9828	-8.686780	-0.000279	-2.794817	-0.946910	0.022835
1952	9.7550e-01	-1.9090	-8.601682	0.000208	2.083029	0.705749	0.017019
1953	9.7600e-01	-1.8561	-8.510598	0.000223	2.229573	0.755400	0.018217
1954	9.7650e-01	-1.8272	-8.408396	0.000250	2.501728	0.847608	0.020440
1955	9.7700e-01	-1.7919	-8.306621	0.000249	2.491260	0.844062	0.020355
1956	9.7750e-01	-1.7679	-8.204419	0.000250	2.501728	0.847608	0.020440
1957	9.7800e-01	-1.7262	-8.107348	0.000238	2.376118	0.805051	0.019414
1958	9.7850e-01	-1.6828	-8.003007	0.000255	2.554065	0.865341	0.020868
1959	9.7900e-01	-1.6283	-7.913633	0.000219	2.187703	0.741214	0.017875
1960	9.7950e-01	-1.5882	-7.821694	0.000225	2.250508	0.762493	0.018388
1961	9.8000e-01	-1.5721	-7.707946	0.000278	2.784350	0.943363	0.022750
1962	9.8050e-01	-1.4951	-7.611730	0.000236	2.355183	0.797958	0.019243
1963	9.8100e-01	-1.4294	-7.524494	0.000214	2.135366	0.723482	0.017447
1964	9.8150e-01	-1.4294	-7.423147	-0.000248	-2.480793	-0.840515	0.020269
1965	9.8200e-01	-1.3828	-7.317096	0.000260	2.595935	0.879527	0.021210
1966	9.8250e-01	-1.3395	-7.221308	0.000234	2.344716	0.794411	0.019158
1967	9.8300e-01	-1.3091	-7.117395	0.000254	2.543598	0.861794	0.020783
1968	9.8350e-01	-1.2673	-7.019469	0.000240	2.397053	0.812144	0.019585
1969	9.8400e-01	-1.2401	-6.920687	0.000242	2.417988	0.819236	0.019756
1970	9.8450e-01	-1.1952	-6.814636	0.000260	2.595935	0.879527	0.021210
1971	9.8500e-01	-1.1631	-6.715427	0.000243	2.428455	0.822783	0.019842
1972	9.8550e-01	-1.0796	-6.621350	0.000230	2.302846	0.780225	0.018816
1973	9.8600e-01	-1.0636	-6.514443	0.000262	2.616870	0.886620	0.021381
1974	9.8650e-01	-0.9898	-6.415662	0.000242	2.417988	0.819236	0.019756
1975	9.8700e-01	-1.0059	-6.304479	-0.000272	-2.721545	-0.922084	0.022237
1976	9.8750e-01	-0.9722	-6.198856	0.000259	2.585468	0.875980	0.021125
1977	9.8800e-01	-0.9064	-6.098792	0.000245	2.449390	0.829876	0.020013
1978	9.8850e-01	-0.8695	-5.996589	0.000250	2.501728	0.847608	0.020440
1979	9.8900e-01	-0.8021	-5.894814	0.000249	2.491260	0.844062	0.020355
1980	9.8950e-01	-0.7861	-5.793040	0.000249	2.491260	0.844062	0.020355
1981	9.9000e-01	-0.7748	-5.679291	0.000278	2.784350	0.943363	0.022750
1982	9.9050e-01	-0.7331	-5.572813	0.000261	2.606403	0.883073	0.021296
1983	9.9100e-01	-0.6754	-5.470610	0.000250	2.501728	0.847608	0.020440
1984	9.9150e-01	-0.6449	-5.360283	0.000270	2.700610	0.914991	0.022065
1985	9.9200e-01	-0.5711	-5.272620	0.000215	2.145833	0.727028	0.017533
1986	9.9250e-01	-0.5486	-5.160582	0.000274	2.742480	0.929177	0.022408
1987	9.9300e-01	-0.5262	-5.053248	0.000263	2.627338	0.890166	0.021467
1988	9.9350e-01	-0.4716	-4.958743	0.000231	2.313313	0.783772	0.018901
1989	9.9400e-01	-0.4299	-4.845422	0.000277	2.773882	0.939817	0.022664
1990	9.9450e-01	-0.3882	-4.739799	0.000259	2.585468	0.875980	0.021125
1991	9.9500e-01	-0.3626	-4.631609	0.000265	2.648272	0.897259	0.021638
1992	9.9550e-01	-0.2856	-4.538815	0.000227	2.271443	0.769586	0.018559
1993	9.9600e-01	-0.2711	-4.422501	0.000285	2.847155	0.964642	0.023263
1994	9.9650e-01	-0.2342	-4.322436	0.000245	2.449390	0.829876	0.020013
1995	9.9700e-01	-0.1957	-4.214247	0.000265	2.648272	0.897259	0.021638
1996	9.9750e-01	-0.1765	-4.099644	0.000281	2.805285	0.950456	0.022921
1997	9.9800e-01	-0.1299	-3.991027	0.000266	2.658740	0.900805	0.021723
1998	9.9850e-01	-0.0690	-3.893101	0.000240	2.397053	0.812144	0.019585
1999	9.9900e-01	-0.0401	-3.784911	0.000265	2.648272	0.897259	0.021638
2000	9.9950e-01	-0.0225	-3.663038	0.000298	2.983232	1.010746	0.024375
2001	1.0000e+00	0.0353	-3.561691	0.000298	2.983232	1.010746	0.020269

Center data before PMax,+/-Pr and +/-Vc Calc.

PMax (uC/cm2):	3.95e+01
Pr (uC/cm2):	5.99e-01
-Pr (uC/cm2):	-3.56e+00
PLoss (uC/cm2):	-2.25e+00
Vc:	8.34e-01
-Vc:	-2.32e-01
C (Max-Eff) (nF):	1.97e-01
K (Eff):	6.67e+02
Vert. (+/-Pr) Shift (uC/cm2):	-1.48e+00
Horiz. Shift (+/-Vc):	3.01e-01
Offset (uC/cm2):	1.32e+00

A (Loop Area - uC/cm2·Volts):	4.93e-02



Hysteresis Version: 5.48.1 - Radiant Technologies, Inc., 1999 - 9/12/24

