»»»»»»»»»»»»»»»»»»»»»»»»»»»»»»»»»»»» Hysteresis ««««««««««««««««««««««««««««««««««««
»»»  Executed Version:	5.48.1
»»»  Vision Version:	5.48.4 (R)
»»»  Vision Compiled:	9/18/24
»»»  Driver Version:	5.47.0
»»»  Windows Version:	Windows 8 or 8.1
»»»  Processor Information:	x86 (AMD or Intel) - 32 Processors
»»»  Tester Name:	PMF21124-494 (100V)
»»»  Tester S/N:	PMF21124-494
»»»  Internal Amp Type:	100V RevK 270k
»»»  Internal Amp S/N:	iAB2-596/K     
»»»  Execution Count:	1
»»»»»»»»»»»»»»»»»»»»»»»»»»»»»»»»»»»»»»»»»»««««««««««««««««««««««««««««««««««««««««««

Stored:	6/10/2025 - 16:10:46
Configured:	06/10/25 03:08:08 PM
Executed:	06/10/25 04:09:58 PM

»»»»»»»»»»»»»»»»»»»»»»»»»»»»»»»»»»» Sample Info ««««««««««««««««««««««««««««««««««««
Sample Name:	
Lot Name:	
Wafer Name:	
Die Row/Column:	0/0
Capacitor Number:	0
Sample Area (cm2):	1.00e-04
Sample Thickness (microns):	3.00e-01

Amplifier:	Internal

»»»»»»»»»»»»»»»»»»»»»»»»»»»»»»»»»»» Tester Info «««««««««««««««««««««««««««««««««««
Tester Name:	PMF21124-494 (100V)
Tester Serial Number:	PMF21124-494
Return Signal Amp. Level:	0.19 [Index: 3]

»»»»»»»»»»»»»»»»»»»»»»»»»»»»»»»» Hysteresis Info ««««««««««««««««««««««««««««««««««
Task Name:	Hyst-1091
Volts:	20.00
Field:	666.67 (kV/cm)
DCBias:	0.00
DCField:	0.00 (kV/cm)
Hysteresis Period (ms):	2.00e+02
Preset:	Enabled
Preset Delay (ms):	1.00e+03
Profile:	Standard Bipolar

»»»»»»»»»»»»»»»»»»»»»»»»»»»»»»»»»»»»»» Data «««««««««««««««««««««««««««««««««««««««
Points:	2009

Valid Data

Point	Time (ms)	Drive Voltage	Measured Polarization (uC/cm2)	Capacitance (uF)	Normalized Capacitance (uF/cm2)	Dielectric Constant	Instantaneous Current (mA)
   1	0.0000e+00	0.0000	-78.433473	0.000345	3.446195	1.167603	0.000138
   2	9.9500e-02	0.0257	-78.296211	0.000345	3.446195	1.167603	0.000138
   3	1.9900e-01	0.0818	-78.009574	0.000720	7.196466	2.438229	0.000288
   4	2.9850e-01	0.1043	-77.731012	0.000699	6.993749	2.369546	0.000280
   5	3.9800e-01	0.1572	-77.456486	0.000689	6.892390	2.335205	0.000276
   6	4.9750e-01	0.1957	-77.210221	0.000618	6.182880	2.094816	0.000248
   7	5.9700e-01	0.2310	-76.927621	0.000710	7.095108	2.403888	0.000284
   8	6.9650e-01	0.2695	-76.649059	0.000699	6.993749	2.369546	0.000280
   9	7.9600e-01	0.3096	-76.382608	0.000669	6.689673	2.266523	0.000268
  10	8.9550e-01	0.3481	-76.156529	0.000568	5.676086	1.923110	0.000227
  11	9.9500e-01	0.3898	-75.833558	0.000811	8.108694	2.747300	0.000325
  12	1.0945e+00	0.4347	-75.615552	0.000547	5.473369	1.854428	0.000219
  13	1.1940e+00	0.4700	-75.308730	0.000770	7.703260	2.609935	0.000308
  14	1.2935e+00	0.5134	-75.005945	0.000760	7.601901	2.575594	0.000304
  15	1.3930e+00	0.5503	-74.787940	0.000547	5.473369	1.854428	0.000219
  16	1.4925e+00	0.5888	-74.481117	0.000770	7.703260	2.609935	0.000308
  17	1.5920e+00	0.6273	-74.218703	0.000659	6.588314	2.232181	0.000264
  18	1.6915e+00	0.6642	-73.944178	0.000689	6.892390	2.335205	0.000276
  19	1.7910e+00	0.7107	-73.617170	0.000821	8.210053	2.781641	0.000329
  20	1.8905e+00	0.7428	-73.391091	0.000568	5.676086	1.923110	0.000227
  21	1.9900e+00	0.7925	-73.096380	0.000740	7.399184	2.506911	0.000296
  22	2.0895e+00	0.8230	-72.838003	0.000649	6.486956	2.197840	0.000260
  23	2.1890e+00	0.8615	-72.543292	0.000740	7.399184	2.506911	0.000296
  24	2.2885e+00	0.9080	-72.252618	0.000730	7.297825	2.472570	0.000292
  25	2.3880e+00	0.9481	-71.982130	0.000679	6.791032	2.300864	0.000272
  26	2.4875e+00	0.9882	-71.683382	0.000750	7.500542	2.541253	0.000300
  27	2.5870e+00	1.0331	-71.408857	0.000689	6.892390	2.335205	0.000276
  28	2.6865e+00	1.0684	-71.146443	0.000659	6.588314	2.232181	0.000264
  29	2.7860e+00	1.1053	-70.871918	0.000689	6.892390	2.335205	0.000276
  30	2.8855e+00	1.1534	-70.597393	0.000689	6.892390	2.335205	0.000276
  31	2.9850e+00	1.1823	-70.302682	0.000740	7.399184	2.506911	0.000296
  32	3.0845e+00	1.2304	-70.040268	0.000659	6.588314	2.232181	0.000264
  33	3.1840e+00	1.2641	-69.697111	0.000862	8.615488	2.919006	0.000345
  34	3.2835e+00	1.3171	-69.475069	0.000557	5.574727	1.888769	0.000223
  35	3.3830e+00	1.3379	-69.176321	0.000750	7.500542	2.541253	0.000300
  36	3.4825e+00	1.3877	-68.897759	0.000699	6.993749	2.369546	0.000280
  37	3.5820e+00	1.4246	-68.643419	0.000639	6.385597	2.163499	0.000256
  38	3.6815e+00	1.4695	-68.348708	0.000740	7.399184	2.506911	0.000296
  39	3.7810e+00	1.5096	-68.074183	0.000689	6.892390	2.335205	0.000276
  40	3.8805e+00	1.5481	-67.811769	0.000659	6.588314	2.232181	0.000264
  41	3.9800e+00	1.5770	-67.537244	0.000689	6.892390	2.335205	0.000276
  42	4.0795e+00	1.6219	-67.214273	0.000811	8.108694	2.747300	0.000325
  43	4.1790e+00	1.6684	-66.951859	0.000659	6.588314	2.232181	0.000264
  44	4.2785e+00	1.7053	-66.661185	0.000730	7.297825	2.472570	0.000292
  45	4.3780e+00	1.7502	-66.378586	0.000710	7.095108	2.403888	0.000284
  46	4.4775e+00	1.7823	-66.095986	0.000710	7.095108	2.403888	0.000284
  47	4.5770e+00	1.8368	-65.817424	0.000699	6.993749	2.369546	0.000280
  48	4.6765e+00	1.8481	-65.538862	0.000699	6.993749	2.369546	0.000280
  49	4.7760e+00	1.9090	-65.232039	0.000770	7.703260	2.609935	0.000308
  50	4.8755e+00	1.9443	-64.985774	0.000618	6.182880	2.094816	0.000248
  51	4.9750e+00	1.9828	-64.695100	0.000730	7.297825	2.472570	0.000292
  52	5.0745e+00	2.0197	-64.376166	0.000801	8.007336	2.712959	0.000321
  53	5.1740e+00	2.0582	-64.129901	0.000618	6.182880	2.094816	0.000248
  54	5.2735e+00	2.0983	-63.847302	0.000710	7.095108	2.403888	0.000284
  55	5.3730e+00	2.1497	-63.564702	0.000710	7.095108	2.403888	0.000284
  56	5.4725e+00	2.1882	-63.306326	0.000649	6.486956	2.197840	0.000260
  57	5.5720e+00	2.2235	-62.991429	0.000791	7.905977	2.678618	0.000316
  58	5.6715e+00	2.2652	-62.729015	0.000659	6.588314	2.232181	0.000264
  59	5.7710e+00	2.3053	-62.470638	0.000649	6.486956	2.197840	0.000260
  60	5.8705e+00	2.3438	-62.143630	0.000821	8.210053	2.781641	0.000329
  61	5.9700e+00	2.3839	-61.852957	0.000730	7.297825	2.472570	0.000292
  62	6.0695e+00	2.4256	-61.582469	0.000679	6.791032	2.300864	0.000272
  63	6.1690e+00	2.4625	-61.299869	0.000710	7.095108	2.403888	0.000284
  64	6.2685e+00	2.5026	-61.049567	0.000628	6.284238	2.129158	0.000252
  65	6.3680e+00	2.5491	-60.787153	0.000659	6.588314	2.232181	0.000264
  66	6.4675e+00	2.5748	-60.496479	0.000730	7.297825	2.472570	0.000292
  67	6.5670e+00	2.6197	-60.278474	0.000547	5.473369	1.854428	0.000219
  68	6.6665e+00	2.6646	-59.979726	0.000750	7.500542	2.541253	0.000300
  69	6.7660e+00	2.6951	-59.689052	0.000730	7.297825	2.472570	0.000292
  70	6.8655e+00	2.7368	-59.390304	0.000750	7.500542	2.541253	0.000300
  71	6.9650e+00	2.7898	-59.103667	0.000720	7.196466	2.438229	0.000288
  72	7.0645e+00	2.8315	-58.808956	0.000740	7.399184	2.506911	0.000296
  73	7.1640e+00	2.8459	-58.498097	0.000780	7.804618	2.644276	0.000312
  74	7.2635e+00	2.8988	-58.227609	0.000679	6.791032	2.300864	0.000272
  75	7.3630e+00	2.9422	-57.965195	0.000659	6.588314	2.232181	0.000264
  76	7.4625e+00	2.9839	-57.650298	0.000791	7.905977	2.678618	0.000316
  77	7.5620e+00	3.0208	-57.404033	0.000618	6.182880	2.094816	0.000248
  78	7.6615e+00	3.0545	-57.101248	0.000760	7.601901	2.575594	0.000304
  79	7.7610e+00	3.1042	-56.842871	0.000649	6.486956	2.197840	0.000260
  80	7.8605e+00	3.1395	-56.556235	0.000720	7.196466	2.438229	0.000288
  81	7.9600e+00	3.1860	-56.305932	0.000628	6.284238	2.129158	0.000252
  82	8.0595e+00	3.2165	-56.075815	0.000578	5.777445	1.957451	0.000231
  83	8.1590e+00	3.2646	-55.785142	0.000730	7.297825	2.472570	0.000292
  84	8.2585e+00	3.3015	-55.526765	0.000649	6.486956	2.197840	0.000260
  85	8.3580e+00	3.3368	-55.215905	0.000780	7.804618	2.644276	0.000312
  86	8.4575e+00	3.3817	-54.929269	0.000720	7.196466	2.438229	0.000288
  87	8.5570e+00	3.4202	-54.646669	0.000710	7.095108	2.403888	0.000284
  88	8.6565e+00	3.4571	-54.404441	0.000608	6.081521	2.060475	0.000243
  89	8.7560e+00	3.4956	-54.129916	0.000689	6.892390	2.335205	0.000276
  90	8.8555e+00	3.5293	-53.843279	0.000720	7.196466	2.438229	0.000288
  91	8.9550e+00	3.5790	-53.548568	0.000740	7.399184	2.506911	0.000296
  92	9.0545e+00	3.6175	-53.318452	0.000578	5.777445	1.957451	0.000231
  93	9.1540e+00	3.6609	-53.027778	0.000730	7.297825	2.472570	0.000292
  94	9.2535e+00	3.6962	-52.761327	0.000669	6.689673	2.266523	0.000268
  95	9.3530e+00	3.7379	-52.498913	0.000659	6.588314	2.232181	0.000264
  96	9.4525e+00	3.7780	-52.224388	0.000689	6.892390	2.335205	0.000276
  97	9.5520e+00	3.8213	-51.921603	0.000760	7.601901	2.575594	0.000304
  98	9.6515e+00	3.8630	-51.679375	0.000608	6.081521	2.060475	0.000243
  99	9.7510e+00	3.9031	-51.412924	0.000669	6.689673	2.266523	0.000268
 100	9.8505e+00	3.9288	-51.158584	0.000639	6.385597	2.163499	0.000256
 101	9.9500e+00	3.9833	-50.835613	0.000811	8.108694	2.747300	0.000325
 102	1.0050e+01	4.0090	-50.589348	0.000618	6.182880	2.094816	0.000248
 103	1.0149e+01	4.0587	-50.298674	0.000730	7.297825	2.472570	0.000292
 104	1.0248e+01	4.1004	-50.052409	0.000618	6.182880	2.094816	0.000248
 105	1.0348e+01	4.1341	-49.810181	0.000608	6.081521	2.060475	0.000243
 106	1.0447e+01	4.1710	-49.511433	0.000750	7.500542	2.541253	0.000300
 107	1.0547e+01	4.2191	-49.261130	0.000628	6.284238	2.129158	0.000252
 108	1.0646e+01	4.2528	-48.994679	0.000669	6.689673	2.266523	0.000268
 109	1.0746e+01	4.2977	-48.716117	0.000699	6.993749	2.369546	0.000280
 110	1.0845e+01	4.3394	-48.445629	0.000679	6.791032	2.300864	0.000272
 111	1.0945e+01	4.3763	-48.187252	0.000649	6.486956	2.197840	0.000260
 112	1.1044e+01	4.4213	-47.940987	0.000618	6.182880	2.094816	0.000248
 113	1.1144e+01	4.4566	-47.646276	0.000740	7.399184	2.506911	0.000296
 114	1.1243e+01	4.4951	-47.379825	0.000669	6.689673	2.266523	0.000268
 115	1.1343e+01	4.5400	-47.133560	0.000618	6.182880	2.094816	0.000248
 116	1.1443e+01	4.5705	-46.838849	0.000740	7.399184	2.506911	0.000296
 117	1.1542e+01	4.6170	-46.657178	0.000456	4.561141	1.545356	0.000183
 118	1.1642e+01	4.6683	-46.342281	0.000791	7.905977	2.678618	0.000316
 119	1.1741e+01	4.6844	-46.120239	0.000557	5.574727	1.888769	0.000223
 120	1.1841e+01	4.7309	-45.853788	0.000669	6.689673	2.266523	0.000268
 121	1.1940e+01	4.7630	-45.579262	0.000689	6.892390	2.335205	0.000276
 122	1.2040e+01	4.8143	-45.341071	0.000598	5.980162	2.026134	0.000239
 123	1.2139e+01	4.8544	-45.050398	0.000730	7.297825	2.472570	0.000292
 124	1.2239e+01	4.8961	-44.779910	0.000679	6.791032	2.300864	0.000272
 125	1.2338e+01	4.9282	-44.586127	0.000487	4.865217	1.648380	0.000195
 126	1.2438e+01	4.9779	-44.283342	0.000760	7.601901	2.575594	0.000304
 127	1.2537e+01	5.0116	-44.053225	0.000578	5.777445	1.957451	0.000231
 128	1.2636e+01	5.0549	-43.790811	0.000659	6.588314	2.232181	0.000264
 129	1.2736e+01	5.0870	-43.512249	0.000699	6.993749	2.369546	0.000280
 130	1.2835e+01	5.1271	-43.261947	0.000628	6.284238	2.129158	0.000252
 131	1.2935e+01	5.1753	-42.991458	0.000679	6.791032	2.300864	0.000272
 132	1.3034e+01	5.2122	-42.749230	0.000608	6.081521	2.060475	0.000243
 133	1.3134e+01	5.2555	-42.494891	0.000639	6.385597	2.163499	0.000256
 134	1.3233e+01	5.2892	-42.252663	0.000608	6.081521	2.060475	0.000243
 135	1.3333e+01	5.3341	-41.982175	0.000679	6.791032	2.300864	0.000272
 136	1.3432e+01	5.3774	-41.707649	0.000689	6.892390	2.335205	0.000276
 137	1.3532e+01	5.4095	-41.505793	0.000507	5.067934	1.717063	0.000203
 138	1.3632e+01	5.4528	-41.251453	0.000639	6.385597	2.163499	0.000256
 139	1.3731e+01	5.4977	-40.968853	0.000710	7.095108	2.403888	0.000284
 140	1.3831e+01	5.5266	-40.783145	0.000466	4.662499	1.579698	0.000187
 141	1.3930e+01	5.5731	-40.512657	0.000679	6.791032	2.300864	0.000272
 142	1.4030e+01	5.6100	-40.242169	0.000679	6.791032	2.300864	0.000272
 143	1.4129e+01	5.6517	-39.999941	0.000608	6.081521	2.060475	0.000243
 144	1.4229e+01	5.7079	-39.769824	0.000578	5.777445	1.957451	0.000231
 145	1.4328e+01	5.7367	-39.519522	0.000628	6.284238	2.129158	0.000252
 146	1.4428e+01	5.7688	-39.224811	0.000740	7.399184	2.506911	0.000296
 147	1.4527e+01	5.8089	-39.035065	0.000476	4.763858	1.614039	0.000191
 148	1.4627e+01	5.8426	-38.768614	0.000669	6.689673	2.266523	0.000268
 149	1.4726e+01	5.8907	-38.542535	0.000568	5.676086	1.923110	0.000227
 150	1.4825e+01	5.9357	-38.340678	0.000507	5.067934	1.717063	0.000203
 151	1.4925e+01	5.9742	-38.078264	0.000659	6.588314	2.232181	0.000264
 152	1.5024e+01	6.0111	-37.860259	0.000547	5.473369	1.854428	0.000219
 153	1.5124e+01	6.0447	-37.569585	0.000730	7.297825	2.472570	0.000292
 154	1.5223e+01	6.0881	-37.335431	0.000588	5.878804	1.991793	0.000235
 155	1.5323e+01	6.1298	-37.085129	0.000628	6.284238	2.129158	0.000252
 156	1.5422e+01	6.1651	-36.826752	0.000649	6.486956	2.197840	0.000260
 157	1.5522e+01	6.2132	-36.600673	0.000568	5.676086	1.923110	0.000227
 158	1.5621e+01	6.2469	-36.378630	0.000557	5.574727	1.888769	0.000223
 159	1.5721e+01	6.2854	-36.096031	0.000710	7.095108	2.403888	0.000284
 160	1.5820e+01	6.3255	-35.865914	0.000578	5.777445	1.957451	0.000231
 161	1.5920e+01	6.3688	-35.647909	0.000547	5.473369	1.854428	0.000219
 162	1.6020e+01	6.3993	-35.429903	0.000547	5.473369	1.854428	0.000219
 163	1.6119e+01	6.4442	-35.199786	0.000578	5.777445	1.957451	0.000231
 164	1.6218e+01	6.4827	-34.969670	0.000578	5.777445	1.957451	0.000231
 165	1.6318e+01	6.5196	-34.751664	0.000547	5.473369	1.854428	0.000219
 166	1.6418e+01	6.5597	-34.444842	0.000770	7.703260	2.609935	0.000308
 167	1.6517e+01	6.5982	-34.210688	0.000588	5.878804	1.991793	0.000235
 168	1.6616e+01	6.6511	-33.984609	0.000568	5.676086	1.923110	0.000227
 169	1.6716e+01	6.6784	-33.770640	0.000537	5.372010	1.820086	0.000215
 170	1.6816e+01	6.7265	-33.556672	0.000537	5.372010	1.820086	0.000215
 171	1.6915e+01	6.7650	-33.326556	0.000578	5.777445	1.957451	0.000231
 172	1.7015e+01	6.8116	-33.072216	0.000639	6.385597	2.163499	0.000256
 173	1.7114e+01	6.8388	-32.842099	0.000578	5.777445	1.957451	0.000231
 174	1.7213e+01	6.8838	-32.595834	0.000618	6.182880	2.094816	0.000248
 175	1.7313e+01	6.9239	-32.377829	0.000547	5.473369	1.854428	0.000219
 176	1.7413e+01	6.9624	-32.151749	0.000568	5.676086	1.923110	0.000227
 177	1.7512e+01	7.0089	-31.897409	0.000639	6.385597	2.163499	0.000256
 178	1.7611e+01	7.0490	-31.663256	0.000588	5.878804	1.991793	0.000235
 179	1.7711e+01	7.0811	-31.425065	0.000598	5.980162	2.026134	0.000239
 180	1.7811e+01	7.1292	-31.194948	0.000578	5.777445	1.957451	0.000231
 181	1.7910e+01	7.1725	-30.964831	0.000578	5.777445	1.957451	0.000231
 182	1.8009e+01	7.2014	-30.783160	0.000456	4.561141	1.545356	0.000183
 183	1.8109e+01	7.2415	-30.528820	0.000639	6.385597	2.163499	0.000256
 184	1.8209e+01	7.2736	-30.306778	0.000557	5.574727	1.888769	0.000223
 185	1.8308e+01	7.3233	-30.060513	0.000618	6.182880	2.094816	0.000248
 186	1.8407e+01	7.3586	-29.802136	0.000649	6.486956	2.197840	0.000260
 187	1.8507e+01	7.3987	-29.576056	0.000568	5.676086	1.923110	0.000227
 188	1.8607e+01	7.4436	-29.333828	0.000608	6.081521	2.060475	0.000243
 189	1.8706e+01	7.4741	-29.136009	0.000497	4.966575	1.682721	0.000199
 190	1.8805e+01	7.5142	-28.909929	0.000568	5.676086	1.923110	0.000227
 191	1.8905e+01	7.5640	-28.695961	0.000537	5.372010	1.820086	0.000215
 192	1.9005e+01	7.6089	-28.461807	0.000588	5.878804	1.991793	0.000235
 193	1.9104e+01	7.6426	-28.219579	0.000608	6.081521	2.060475	0.000243
 194	1.9203e+01	7.6859	-28.013685	0.000517	5.169293	1.751404	0.000207
 195	1.9303e+01	7.7228	-27.787605	0.000568	5.676086	1.923110	0.000227
 196	1.9402e+01	7.7661	-27.573637	0.000537	5.372010	1.820086	0.000215
 197	1.9502e+01	7.8078	-27.359669	0.000537	5.372010	1.820086	0.000215
 198	1.9602e+01	7.8287	-27.109366	0.000628	6.284238	2.129158	0.000252
 199	1.9701e+01	7.8800	-26.891361	0.000547	5.473369	1.854428	0.000219
 200	1.9800e+01	7.9217	-26.657207	0.000588	5.878804	1.991793	0.000235
 201	1.9900e+01	7.9650	-26.431128	0.000568	5.676086	1.923110	0.000227
 202	2.0000e+01	8.0003	-26.213122	0.000547	5.473369	1.854428	0.000219
 203	2.0099e+01	8.0436	-25.966857	0.000618	6.182880	2.094816	0.000248
 204	2.0198e+01	8.0789	-25.773075	0.000487	4.865217	1.648380	0.000195
 205	2.0298e+01	8.1158	-25.559106	0.000537	5.372010	1.820086	0.000215
 206	2.0398e+01	8.1639	-25.333027	0.000568	5.676086	1.923110	0.000227
 207	2.0497e+01	8.1960	-25.098873	0.000588	5.878804	1.991793	0.000235
 208	2.0596e+01	8.2361	-24.872793	0.000568	5.676086	1.923110	0.000227
 209	2.0696e+01	8.2746	-24.622491	0.000628	6.284238	2.129158	0.000252
 210	2.0796e+01	8.3228	-24.420634	0.000507	5.067934	1.717063	0.000203
 211	2.0895e+01	8.3629	-24.202629	0.000547	5.473369	1.854428	0.000219
 212	2.0994e+01	8.3933	-23.976549	0.000568	5.676086	1.923110	0.000227
 213	2.1094e+01	8.4367	-23.750470	0.000568	5.676086	1.923110	0.000227
 214	2.1194e+01	8.4752	-23.528427	0.000557	5.574727	1.888769	0.000223
 215	2.1293e+01	8.5249	-23.302347	0.000568	5.676086	1.923110	0.000227
 216	2.1392e+01	8.5522	-23.128751	0.000436	4.358423	1.476674	0.000174
 217	2.1492e+01	8.5939	-22.870374	0.000649	6.486956	2.197840	0.000260
 218	2.1591e+01	8.6324	-22.648331	0.000557	5.574727	1.888769	0.000223
 219	2.1691e+01	8.6741	-22.458586	0.000476	4.763858	1.614039	0.000191
 220	2.1791e+01	8.7158	-22.192135	0.000669	6.689673	2.266523	0.000268
 221	2.1890e+01	8.7559	-21.990278	0.000507	5.067934	1.717063	0.000203
 222	2.1989e+01	8.8008	-21.772273	0.000547	5.473369	1.854428	0.000219
 223	2.2089e+01	8.8409	-21.554268	0.000547	5.473369	1.854428	0.000219
 224	2.2189e+01	8.8810	-21.308002	0.000618	6.182880	2.094816	0.000248
 225	2.2288e+01	8.9099	-21.106146	0.000507	5.067934	1.717063	0.000203
 226	2.2387e+01	8.9580	-20.871992	0.000588	5.878804	1.991793	0.000235
 227	2.2487e+01	8.9981	-20.633801	0.000598	5.980162	2.026134	0.000239
 228	2.2587e+01	9.0302	-20.415795	0.000547	5.473369	1.854428	0.000219
 229	2.2686e+01	9.0784	-20.185679	0.000578	5.777445	1.957451	0.000231
 230	2.2785e+01	9.1169	-19.983822	0.000507	5.067934	1.717063	0.000203
 231	2.2885e+01	9.1570	-19.725445	0.000649	6.486956	2.197840	0.000260
 232	2.2985e+01	9.2035	-19.507440	0.000547	5.473369	1.854428	0.000219
 233	2.3084e+01	9.2436	-19.309620	0.000497	4.966575	1.682721	0.000199
 234	2.3183e+01	9.2773	-19.031058	0.000699	6.993749	2.369546	0.000280
 235	2.3283e+01	9.3174	-18.833238	0.000497	4.966575	1.682721	0.000199
 236	2.3383e+01	9.3575	-18.570824	0.000659	6.588314	2.232181	0.000264
 237	2.3482e+01	9.3960	-18.356856	0.000537	5.372010	1.820086	0.000215
 238	2.3581e+01	9.4329	-18.171148	0.000466	4.662499	1.579698	0.000187
 239	2.3681e+01	9.4762	-17.856251	0.000791	7.905977	2.678618	0.000316
 240	2.3780e+01	9.5051	-17.674580	0.000456	4.561141	1.545356	0.000183
 241	2.3880e+01	9.5596	-17.383906	0.000730	7.297825	2.472570	0.000292
 242	2.3980e+01	9.5933	-17.190124	0.000487	4.865217	1.648380	0.000195
 243	2.4079e+01	9.6318	-16.943859	0.000618	6.182880	2.094816	0.000248
 244	2.4178e+01	9.6687	-16.693556	0.000628	6.284238	2.129158	0.000252
 245	2.4278e+01	9.7088	-16.431142	0.000659	6.588314	2.232181	0.000264
 246	2.4378e+01	9.7505	-16.213137	0.000547	5.473369	1.854428	0.000219
 247	2.4477e+01	9.8051	-15.970909	0.000608	6.081521	2.060475	0.000243
 248	2.4576e+01	9.8420	-15.732718	0.000598	5.980162	2.026134	0.000239
 249	2.4676e+01	9.8757	-15.490490	0.000608	6.081521	2.060475	0.000243
 250	2.4776e+01	9.9142	-15.244225	0.000618	6.182880	2.094816	0.000248
 251	2.4875e+01	9.9478	-15.010071	0.000588	5.878804	1.991793	0.000235
 252	2.4974e+01	9.9960	-14.779954	0.000578	5.777445	1.957451	0.000231
 253	2.5074e+01	10.0297	-14.501392	0.000699	6.993749	2.369546	0.000280
 254	2.5174e+01	10.0634	-14.275312	0.000568	5.676086	1.923110	0.000227
 255	2.5273e+01	10.1147	-13.960415	0.000791	7.905977	2.678618	0.000316
 256	2.5372e+01	10.1500	-13.742410	0.000547	5.473369	1.854428	0.000219
 257	2.5472e+01	10.1901	-13.492108	0.000628	6.284238	2.129158	0.000252
 258	2.5572e+01	10.2302	-13.245842	0.000618	6.182880	2.094816	0.000248
 259	2.5671e+01	10.2655	-12.991503	0.000639	6.385597	2.163499	0.000256
 260	2.5770e+01	10.3120	-12.716978	0.000689	6.892390	2.335205	0.000276
 261	2.5870e+01	10.3489	-12.470712	0.000618	6.182880	2.094816	0.000248
 262	2.5970e+01	10.3906	-12.224447	0.000618	6.182880	2.094816	0.000248
 263	2.6069e+01	10.4307	-11.986256	0.000598	5.980162	2.026134	0.000239
 264	2.6169e+01	10.4788	-11.756139	0.000578	5.777445	1.957451	0.000231
 265	2.6268e+01	10.5045	-11.465465	0.000730	7.297825	2.472570	0.000292
 266	2.6367e+01	10.5430	-11.235349	0.000578	5.777445	1.957451	0.000231
 267	2.6467e+01	10.5879	-11.005232	0.000578	5.777445	1.957451	0.000231
 268	2.6567e+01	10.6296	-10.742818	0.000659	6.588314	2.232181	0.000264
 269	2.6666e+01	10.6665	-10.476367	0.000669	6.689673	2.266523	0.000268
 270	2.6765e+01	10.7083	-10.213953	0.000659	6.588314	2.232181	0.000264
 271	2.6865e+01	10.7403	-9.995948	0.000547	5.473369	1.854428	0.000219
 272	2.6965e+01	10.7933	-9.749683	0.000618	6.182880	2.094816	0.000248
 273	2.7064e+01	10.8302	-9.483232	0.000669	6.689673	2.266523	0.000268
 274	2.7163e+01	10.8767	-9.196595	0.000720	7.196466	2.438229	0.000288
 275	2.7263e+01	10.9024	-8.958404	0.000598	5.980162	2.026134	0.000239
 276	2.7363e+01	10.9377	-8.695990	0.000659	6.588314	2.232181	0.000264
 277	2.7462e+01	10.9970	-8.429539	0.000669	6.689673	2.266523	0.000268
 278	2.7561e+01	11.0323	-8.146940	0.000710	7.095108	2.403888	0.000284
 279	2.7661e+01	11.0644	-7.884526	0.000659	6.588314	2.232181	0.000264
 280	2.7761e+01	11.1013	-7.589815	0.000740	7.399184	2.506911	0.000296
 281	2.7860e+01	11.1462	-7.327401	0.000659	6.588314	2.232181	0.000264
 282	2.7959e+01	11.1879	-7.089210	0.000598	5.980162	2.026134	0.000239
 283	2.8059e+01	11.2216	-6.758165	0.000831	8.311412	2.815983	0.000333
 284	2.8159e+01	11.2601	-6.487677	0.000679	6.791032	2.300864	0.000272
 285	2.8258e+01	11.3114	-6.217189	0.000679	6.791032	2.300864	0.000272
 286	2.8358e+01	11.3532	-5.942664	0.000689	6.892390	2.335205	0.000276
 287	2.8457e+01	11.3820	-5.680250	0.000659	6.588314	2.232181	0.000264
 288	2.8556e+01	11.4366	-5.377465	0.000760	7.601901	2.575594	0.000304
 289	2.8656e+01	11.4799	-5.139274	0.000598	5.980162	2.026134	0.000239
 290	2.8756e+01	11.5088	-4.856674	0.000710	7.095108	2.403888	0.000284
 291	2.8855e+01	11.5537	-4.553889	0.000760	7.601901	2.575594	0.000304
 292	2.8954e+01	11.5970	-4.311661	0.000608	6.081521	2.060475	0.000243
 293	2.9054e+01	11.6355	-4.037136	0.000689	6.892390	2.335205	0.000276
 294	2.9154e+01	11.6644	-3.730313	0.000770	7.703260	2.609935	0.000308
 295	2.9253e+01	11.7029	-3.419454	0.000780	7.804618	2.644276	0.000312
 296	2.9352e+01	11.7446	-3.185300	0.000588	5.878804	1.991793	0.000235
 297	2.9452e+01	11.7911	-2.870404	0.000791	7.905977	2.678618	0.000316
 298	2.9552e+01	11.8312	-2.632213	0.000598	5.980162	2.026134	0.000239
 299	2.9651e+01	11.8729	-2.389984	0.000608	6.081521	2.060475	0.000243
 300	2.9750e+01	11.9130	-2.075088	0.000791	7.905977	2.678618	0.000316
 301	2.9850e+01	11.9499	-1.780377	0.000740	7.399184	2.506911	0.000296
 302	2.9950e+01	11.9868	-1.449332	0.000831	8.311412	2.815983	0.000333
 303	3.0049e+01	12.0285	-1.166732	0.000710	7.095108	2.403888	0.000284
 304	3.0148e+01	12.0702	-0.896244	0.000679	6.791032	2.300864	0.000272
 305	3.0248e+01	12.1087	-0.613645	0.000710	7.095108	2.403888	0.000284
 306	3.0348e+01	12.1424	-0.266451	0.000872	8.716847	2.953348	0.000349
 307	3.0447e+01	12.1906	0.012111	0.000699	6.993749	2.369546	0.000280
 308	3.0547e+01	12.2275	0.262414	0.000628	6.284238	2.129158	0.000252
 309	3.0646e+01	12.2660	0.605570	0.000862	8.615488	2.919006	0.000345
 310	3.0745e+01	12.3045	0.867984	0.000659	6.588314	2.232181	0.000264
 311	3.0845e+01	12.3446	1.170769	0.000760	7.601901	2.575594	0.000304
 312	3.0945e+01	12.3831	1.449332	0.000699	6.993749	2.369546	0.000280
 313	3.1044e+01	12.4216	1.719820	0.000679	6.791032	2.300864	0.000272
 314	3.1143e+01	12.4649	1.958011	0.000598	5.980162	2.026134	0.000239
 315	3.1243e+01	12.5050	2.268870	0.000780	7.804618	2.644276	0.000312
 316	3.1343e+01	12.5435	2.494950	0.000568	5.676086	1.923110	0.000227
 317	3.1442e+01	12.5836	2.765438	0.000679	6.791032	2.300864	0.000272
 318	3.1541e+01	12.6173	3.023815	0.000649	6.486956	2.197840	0.000260
 319	3.1641e+01	12.6638	3.262006	0.000598	5.980162	2.026134	0.000239
 320	3.1741e+01	12.7087	3.540568	0.000699	6.993749	2.369546	0.000280
 321	3.1840e+01	12.7504	3.726276	0.000466	4.662499	1.579698	0.000187
 322	3.1939e+01	12.7841	3.988690	0.000659	6.588314	2.232181	0.000264
 323	3.2039e+01	12.8178	4.243030	0.000639	6.385597	2.163499	0.000256
 324	3.2139e+01	12.8595	4.428738	0.000466	4.662499	1.579698	0.000187
 325	3.2238e+01	12.8932	4.679040	0.000628	6.284238	2.129158	0.000252
 326	3.2337e+01	12.9365	4.921268	0.000608	6.081521	2.060475	0.000243
 327	3.2437e+01	12.9927	5.155422	0.000588	5.878804	1.991793	0.000235
 328	3.2536e+01	13.0280	5.421873	0.000669	6.689673	2.266523	0.000268
 329	3.2636e+01	13.0601	5.635841	0.000537	5.372010	1.820086	0.000215
 330	3.2736e+01	13.1018	5.958812	0.000811	8.108694	2.747300	0.000325
 331	3.2835e+01	13.1451	6.148558	0.000476	4.763858	1.614039	0.000191
 332	3.2934e+01	13.1820	6.362526	0.000537	5.372010	1.820086	0.000215
 333	3.3034e+01	13.2157	6.612828	0.000628	6.284238	2.129158	0.000252
 334	3.3133e+01	13.2638	6.851019	0.000598	5.980162	2.026134	0.000239
 335	3.3233e+01	13.2943	7.069025	0.000547	5.473369	1.854428	0.000219
 336	3.3333e+01	13.3440	7.335476	0.000669	6.689673	2.266523	0.000268
 337	3.3432e+01	13.3761	7.601927	0.000669	6.689673	2.266523	0.000268
 338	3.3532e+01	13.4242	7.852229	0.000628	6.284238	2.129158	0.000252
 339	3.3631e+01	13.4563	8.106569	0.000639	6.385597	2.163499	0.000256
 340	3.3730e+01	13.5028	8.381094	0.000689	6.892390	2.335205	0.000276
 341	3.3830e+01	13.5349	8.655619	0.000689	6.892390	2.335205	0.000276
 342	3.3929e+01	13.5814	8.938219	0.000710	7.095108	2.403888	0.000284
 343	3.4029e+01	13.6167	9.192558	0.000639	6.385597	2.163499	0.000256
 344	3.4129e+01	13.6552	9.426712	0.000588	5.878804	1.991793	0.000235
 345	3.4228e+01	13.7066	9.693163	0.000669	6.689673	2.266523	0.000268
 346	3.4328e+01	13.7354	9.943465	0.000628	6.284238	2.129158	0.000252
 347	3.4427e+01	13.7723	10.318919	0.000943	9.426357	3.193736	0.000377
 348	3.4526e+01	13.8157	10.670150	0.000882	8.818205	2.987689	0.000353
 349	3.4626e+01	13.8638	10.993121	0.000811	8.108694	2.747300	0.000325
 350	3.4725e+01	13.8959	11.275720	0.000710	7.095108	2.403888	0.000284
 351	3.4825e+01	13.9440	11.546208	0.000679	6.791032	2.300864	0.000272
 352	3.4925e+01	13.9761	11.836882	0.000730	7.297825	2.472570	0.000292
 353	3.5024e+01	14.0210	12.111407	0.000689	6.892390	2.335205	0.000276
 354	3.5123e+01	14.0515	12.349598	0.000598	5.980162	2.026134	0.000239
 355	3.5223e+01	14.0884	12.616049	0.000669	6.689673	2.266523	0.000268
 356	3.5322e+01	14.1365	12.878463	0.000659	6.588314	2.232181	0.000264
 357	3.5422e+01	14.1702	13.140877	0.000659	6.588314	2.232181	0.000264
 358	3.5522e+01	14.2167	13.419439	0.000699	6.993749	2.369546	0.000280
 359	3.5621e+01	14.2488	13.742410	0.000811	8.108694	2.747300	0.000325
 360	3.5721e+01	14.2969	14.089604	0.000872	8.716847	2.953348	0.000349
 361	3.5820e+01	14.3322	14.404500	0.000791	7.905977	2.678618	0.000316
 362	3.5919e+01	14.3723	14.703248	0.000750	7.500542	2.541253	0.000300
 363	3.6019e+01	14.4140	15.058516	0.000892	8.919564	3.022030	0.000357
 364	3.6118e+01	14.4557	15.345153	0.000720	7.196466	2.438229	0.000288
 365	3.6218e+01	14.4958	15.680235	0.000841	8.412771	2.850324	0.000337
 366	3.6318e+01	14.5408	15.958798	0.000699	6.993749	2.369546	0.000280
 367	3.6417e+01	14.5648	16.213137	0.000639	6.385597	2.163499	0.000256
 368	3.6517e+01	14.6130	16.528034	0.000791	7.905977	2.678618	0.000316
 369	3.6616e+01	14.6354	16.802559	0.000689	6.892390	2.335205	0.000276
 370	3.6715e+01	14.6964	17.101307	0.000750	7.500542	2.541253	0.000300
 371	3.6815e+01	14.7333	17.367758	0.000669	6.689673	2.266523	0.000268
 372	3.6914e+01	14.7622	17.630172	0.000659	6.588314	2.232181	0.000264
 373	3.7014e+01	14.8199	17.916808	0.000720	7.196466	2.438229	0.000288
 374	3.7114e+01	14.8600	18.215556	0.000750	7.500542	2.541253	0.000300
 375	3.7213e+01	14.8873	18.477970	0.000659	6.588314	2.232181	0.000264
 376	3.7313e+01	14.9306	18.792867	0.000791	7.905977	2.678618	0.000316
 377	3.7412e+01	14.9707	19.095652	0.000760	7.601901	2.575594	0.000304
 378	3.7511e+01	15.0140	19.394400	0.000750	7.500542	2.541253	0.000300
 379	3.7611e+01	15.0605	19.644703	0.000628	6.284238	2.129158	0.000252
 380	3.7711e+01	15.0942	19.907116	0.000659	6.588314	2.232181	0.000264
 381	3.7810e+01	15.1295	20.185679	0.000699	6.993749	2.369546	0.000280
 382	3.7910e+01	15.1712	20.472315	0.000720	7.196466	2.438229	0.000288
 383	3.8009e+01	15.2113	20.730692	0.000649	6.486956	2.197840	0.000260
 384	3.8108e+01	15.2434	21.069811	0.000851	8.514129	2.884665	0.000341
 385	3.8208e+01	15.2932	21.340300	0.000679	6.791032	2.300864	0.000272
 386	3.8307e+01	15.3317	21.590602	0.000628	6.284238	2.129158	0.000252
 387	3.8407e+01	15.3878	21.889350	0.000750	7.500542	2.541253	0.000300
 388	3.8507e+01	15.4135	22.139652	0.000628	6.284238	2.129158	0.000252
 389	3.8606e+01	15.4488	22.442438	0.000760	7.601901	2.575594	0.000304
 390	3.8706e+01	15.5017	22.716963	0.000689	6.892390	2.335205	0.000276
 391	3.8805e+01	15.5354	22.995525	0.000699	6.993749	2.369546	0.000280
 392	3.8904e+01	15.5659	23.294273	0.000750	7.500542	2.541253	0.000300
 393	3.9004e+01	15.6028	23.584947	0.000730	7.297825	2.472570	0.000292
 394	3.9103e+01	15.6541	23.831212	0.000618	6.182880	2.094816	0.000248
 395	3.9203e+01	15.6894	24.121886	0.000730	7.297825	2.472570	0.000292
 396	3.9303e+01	15.7263	24.465043	0.000862	8.615488	2.919006	0.000345
 397	3.9402e+01	15.7696	24.747642	0.000710	7.095108	2.403888	0.000284
 398	3.9502e+01	15.8145	24.985833	0.000598	5.980162	2.026134	0.000239
 399	3.9601e+01	15.8482	25.320915	0.000841	8.412771	2.850324	0.000337
 400	3.9700e+01	15.8899	25.623701	0.000760	7.601901	2.575594	0.000304
 401	3.9800e+01	15.9381	25.962820	0.000851	8.514129	2.884665	0.000341
 402	3.9900e+01	15.9653	26.217159	0.000639	6.385597	2.163499	0.000256
 403	3.9999e+01	16.0070	26.483610	0.000669	6.689673	2.266523	0.000268
 404	4.0099e+01	16.0439	26.871175	0.000973	9.730433	3.296760	0.000390
 405	4.0198e+01	16.0824	27.177998	0.000770	7.703260	2.609935	0.000308
 406	4.0297e+01	16.1322	27.444449	0.000669	6.689673	2.266523	0.000268
 407	4.0397e+01	16.1723	27.799717	0.000892	8.919564	3.022030	0.000357
 408	4.0496e+01	16.2092	28.154985	0.000892	8.919564	3.022030	0.000357
 409	4.0596e+01	16.2413	28.486030	0.000831	8.311412	2.815983	0.000333
 410	4.0696e+01	16.2814	28.845335	0.000902	9.020923	3.056371	0.000361
 411	4.0795e+01	16.3183	29.228863	0.000963	9.629075	3.262419	0.000385
 412	4.0895e+01	16.3552	29.632576	0.001014	10.135868	3.434125	0.000406
 413	4.0994e+01	16.4081	29.999956	0.000922	9.223640	3.125054	0.000369
 414	4.1093e+01	16.4418	30.395595	0.000993	9.933151	3.365443	0.000398
 415	4.1193e+01	16.4867	30.726640	0.000831	8.311412	2.815983	0.000333
 416	4.1292e+01	16.5300	31.122279	0.000993	9.933151	3.365443	0.000398
 417	4.1392e+01	16.5573	31.489659	0.000922	9.223640	3.125054	0.000369
 418	4.1492e+01	16.5958	31.881261	0.000983	9.831792	3.331101	0.000394
 419	4.1591e+01	16.6471	32.309197	0.001074	10.744020	3.640173	0.000430
 420	4.1691e+01	16.6792	32.672540	0.000912	9.122281	3.090713	0.000365
 421	4.1790e+01	16.7273	33.031845	0.000902	9.020923	3.056371	0.000361
 422	4.1889e+01	16.7739	33.375001	0.000862	8.615488	2.919006	0.000345
 423	4.1989e+01	16.8043	33.782752	0.001024	10.237227	3.468466	0.000410
 424	4.2089e+01	16.8460	34.105723	0.000811	8.108694	2.747300	0.000325
 425	4.2188e+01	16.8926	34.420619	0.000791	7.905977	2.678618	0.000316
 426	4.2288e+01	16.9247	34.783962	0.000912	9.122281	3.090713	0.000365
 427	4.2387e+01	16.9616	35.151341	0.000922	9.223640	3.125054	0.000369
 428	4.2486e+01	16.9952	35.530832	0.000953	9.527716	3.228078	0.000381
 429	4.2586e+01	17.0418	35.938582	0.001024	10.237227	3.468466	0.000410
 430	4.2685e+01	17.0771	36.394779	0.001145	11.453531	3.880561	0.000458
 431	4.2785e+01	17.1252	36.855012	0.001155	11.554890	3.914903	0.000463
 432	4.2885e+01	17.1573	37.226429	0.000932	9.324999	3.159395	0.000373
 433	4.2984e+01	17.2006	37.731071	0.001267	12.669835	4.292656	0.000507
 434	4.3084e+01	17.2471	38.247824	0.001297	12.973911	4.395680	0.000519
 435	4.3183e+01	17.2824	38.736317	0.001226	12.264400	4.155291	0.000491
 436	4.3282e+01	17.3257	39.140031	0.001014	10.135868	3.434125	0.000406
 437	4.3382e+01	17.3610	39.463002	0.000811	8.108694	2.747300	0.000325
 438	4.3481e+01	17.4075	39.830381	0.000922	9.223640	3.125054	0.000369
 439	4.3581e+01	17.4412	40.185649	0.000892	8.919564	3.022030	0.000357
 440	4.3681e+01	17.4845	40.504583	0.000801	8.007336	2.712959	0.000321
 441	4.3780e+01	17.5262	40.835628	0.000831	8.311412	2.815983	0.000333
 442	4.3880e+01	17.5647	41.118227	0.000710	7.095108	2.403888	0.000284
 443	4.3979e+01	17.6032	41.453310	0.000841	8.412771	2.850324	0.000337
 444	4.4078e+01	17.6385	41.752058	0.000750	7.500542	2.541253	0.000300
 445	4.4178e+01	17.6802	42.050806	0.000750	7.500542	2.541253	0.000300
 446	4.4278e+01	17.7252	42.389925	0.000851	8.514129	2.884665	0.000341
 447	4.4377e+01	17.7556	42.708859	0.000801	8.007336	2.712959	0.000321
 448	4.4477e+01	17.8070	43.003570	0.000740	7.399184	2.506911	0.000296
 449	4.4576e+01	17.8455	43.326541	0.000811	8.108694	2.747300	0.000325
 450	4.4675e+01	17.8792	43.613177	0.000720	7.196466	2.438229	0.000288
 451	4.4775e+01	17.9225	44.016891	0.001014	10.135868	3.434125	0.000406
 452	4.4874e+01	17.9626	44.384270	0.000922	9.223640	3.125054	0.000369
 453	4.4974e+01	17.9963	44.763761	0.000953	9.527716	3.228078	0.000381
 454	4.5074e+01	18.0396	45.147289	0.000963	9.629075	3.262419	0.000385
 455	4.5173e+01	18.0893	45.603485	0.001145	11.453531	3.880561	0.000458
 456	4.5273e+01	18.1166	46.047570	0.001115	11.149455	3.777538	0.000446
 457	4.5372e+01	18.1663	46.459358	0.001034	10.338585	3.502808	0.000414
 458	4.5471e+01	18.1968	46.939777	0.001206	12.061683	4.086609	0.000483
 459	4.5571e+01	18.2481	47.533236	0.001490	14.899726	5.048164	0.000596
 460	4.5670e+01	18.2754	48.110547	0.001449	14.494291	4.910799	0.000580
 461	4.5770e+01	18.3235	48.675746	0.001419	14.190215	4.807775	0.000568
 462	4.5870e+01	18.3540	49.253056	0.001449	14.494291	4.910799	0.000580
 463	4.5969e+01	18.4054	49.785958	0.001338	13.379346	4.533045	0.000536
 464	4.6069e+01	18.4407	50.234080	0.001125	11.250814	3.811879	0.000450
 465	4.6168e+01	18.4808	50.706425	0.001186	11.858966	4.017926	0.000475
 466	4.6267e+01	18.5241	51.089953	0.000963	9.629075	3.262419	0.000385
 467	4.6367e+01	18.5513	51.477518	0.000973	9.730433	3.296760	0.000390
 468	4.6467e+01	18.5995	51.873157	0.000993	9.933151	3.365443	0.000398
 469	4.6566e+01	18.6396	52.268796	0.000993	9.933151	3.365443	0.000398
 470	4.6666e+01	18.6733	52.620027	0.000882	8.818205	2.987689	0.000353
 471	4.6765e+01	18.7134	53.031815	0.001034	10.338585	3.502808	0.000414
 472	4.6864e+01	18.7583	53.427454	0.000993	9.933151	3.365443	0.000398
 473	4.6964e+01	18.8016	53.802908	0.000943	9.426357	3.193736	0.000377
 474	4.7063e+01	18.8353	54.190473	0.000973	9.730433	3.296760	0.000390
 475	4.7163e+01	18.8834	54.565927	0.000943	9.426357	3.193736	0.000377
 476	4.7263e+01	18.9171	55.066531	0.001257	12.568476	4.258315	0.000503
 477	4.7362e+01	18.9508	55.425837	0.000902	9.020923	3.056371	0.000361
 478	4.7462e+01	18.9941	55.805327	0.000953	9.527716	3.228078	0.000381
 479	4.7561e+01	19.0390	56.269598	0.001166	11.656248	3.949244	0.000467
 480	4.7660e+01	19.0807	56.737906	0.001176	11.757607	3.983585	0.000471
 481	4.7760e+01	19.1257	57.089136	0.000882	8.818205	2.987689	0.000353
 482	4.7859e+01	19.1545	57.440367	0.000882	8.818205	2.987689	0.000353
 483	4.7959e+01	19.1962	57.949046	0.001277	12.771194	4.326998	0.000511
 484	4.8059e+01	19.2428	58.381020	0.001085	10.845379	3.674514	0.000434
 485	4.8158e+01	19.2765	58.756474	0.000943	9.426357	3.193736	0.000377
 486	4.8258e+01	19.3182	59.232856	0.001196	11.960324	4.052268	0.000479
 487	4.8357e+01	19.3599	59.717312	0.001216	12.163042	4.120950	0.000487
 488	4.8456e+01	19.3968	60.161397	0.001115	11.149455	3.777538	0.000446
 489	4.8556e+01	19.4401	60.666039	0.001267	12.669835	4.292656	0.000507
 490	4.8656e+01	19.4706	61.118198	0.001135	11.352172	3.846220	0.000454
 491	4.8755e+01	19.5171	61.606691	0.001226	12.264400	4.155291	0.000491
 492	4.8855e+01	19.5460	62.188039	0.001460	14.595650	4.945140	0.000584
 493	4.8954e+01	19.5893	62.773424	0.001470	14.697009	4.979481	0.000588
 494	4.9053e+01	19.6310	63.419365	0.001622	16.217389	5.494600	0.000649
 495	4.9153e+01	19.6679	63.948230	0.001328	13.277987	4.498704	0.000532
 496	4.9252e+01	19.7160	64.537652	0.001480	14.798367	5.013823	0.000592
 497	4.9352e+01	19.7545	65.187631	0.001632	16.318748	5.528941	0.000653
 498	4.9452e+01	19.7946	65.869907	0.001713	17.129617	5.803671	0.000686
 499	4.9551e+01	19.8315	66.463366	0.001490	14.899726	5.048164	0.000596
 500	4.9651e+01	19.8684	67.052787	0.001480	14.798367	5.013823	0.000592
 501	4.9750e+01	19.9037	67.589727	0.001348	13.480705	4.567386	0.000540
 502	4.9849e+01	19.9534	68.090331	0.001257	12.568476	4.258315	0.000503
 503	4.9949e+01	19.9919	68.695902	0.001520	15.203802	5.151188	0.000609
 504	5.0048e+01	19.9486	69.018873	-0.000811	-8.108694	-2.747300	0.000325
 505	5.0148e+01	19.9117	69.321658	-0.000760	-7.601901	-2.575594	0.000304
 506	5.0248e+01	19.8764	69.604257	-0.000710	-7.095108	-2.403888	0.000284
 507	5.0347e+01	19.8347	69.862634	-0.000649	-6.486956	-2.197840	0.000260
 508	5.0447e+01	19.7962	70.125048	-0.000659	-6.588314	-2.232181	0.000264
 509	5.0546e+01	19.7609	70.359202	-0.000588	-5.878804	-1.991793	0.000235
 510	5.0645e+01	19.7240	70.544910	-0.000466	-4.662499	-1.579698	0.000187
 511	5.0745e+01	19.6711	70.815398	-0.000679	-6.791032	-2.300864	0.000272
 512	5.0844e+01	19.6294	71.049552	-0.000588	-5.878804	-1.991793	0.000235
 513	5.0944e+01	19.5973	71.239297	-0.000476	-4.763858	-1.614039	0.000191
 514	5.1044e+01	19.5508	71.469414	-0.000578	-5.777445	-1.957451	0.000231
 515	5.1143e+01	19.5155	71.699531	-0.000578	-5.777445	-1.957451	0.000231
 516	5.1242e+01	19.4722	72.046724	-0.000872	-8.716847	-2.953348	0.000349
 517	5.1342e+01	19.4449	72.349510	-0.000760	-7.601901	-2.575594	0.000304
 518	5.1441e+01	19.3984	72.615961	-0.000669	-6.689673	-2.266523	0.000268
 519	5.1541e+01	19.3551	72.858189	-0.000608	-6.081521	-2.060475	0.000243
 520	5.1641e+01	19.3214	73.051971	-0.000487	-4.865217	-1.648380	0.000195
 521	5.1740e+01	19.2749	73.282088	-0.000578	-5.777445	-1.957451	0.000231
 522	5.1840e+01	19.2396	73.601022	-0.000801	-8.007336	-2.712959	0.000321
 523	5.1939e+01	19.2027	73.867473	-0.000669	-6.689673	-2.266523	0.000268
 524	5.2038e+01	19.1529	74.190443	-0.000811	-8.108694	-2.747300	0.000325
 525	5.2138e+01	19.1128	74.448820	-0.000649	-6.486956	-2.197840	0.000260
 526	5.2237e+01	19.0872	74.800051	-0.000882	-8.818205	-2.987689	0.000353
 527	5.2337e+01	19.0438	75.147245	-0.000872	-8.716847	-2.953348	0.000349
 528	5.2437e+01	18.9941	75.550958	-0.001014	-10.135868	-3.434125	0.000406
 529	5.2536e+01	18.9524	75.942560	-0.000983	-9.831792	-3.331101	0.000394
 530	5.2636e+01	18.9155	76.273605	-0.000831	-8.311412	-2.815983	0.000333
 531	5.2735e+01	18.8738	76.980104	-0.001774	-17.737769	-6.009719	0.000710
 532	5.2834e+01	18.8321	77.634120	-0.001642	-16.420106	-5.563283	0.000657
 533	5.2934e+01	18.7984	78.086279	-0.001135	-11.352172	-3.846220	0.000454
 534	5.3033e+01	18.7631	78.494030	-0.001024	-10.237227	-3.468466	0.000410
 535	5.3133e+01	18.7198	78.986561	-0.001237	-12.365759	-4.189633	0.000495
 536	5.3233e+01	18.6813	79.636540	-0.001632	-16.318748	-5.528941	0.000653
 537	5.3332e+01	18.6412	80.112922	-0.001196	-11.960324	-4.052268	0.000479
 538	5.3431e+01	18.5979	80.661972	-0.001378	-13.784781	-4.670410	0.000552
 539	5.3531e+01	18.5546	81.089908	-0.001074	-10.744020	-3.640173	0.000430
 540	5.3630e+01	18.5241	81.529956	-0.001105	-11.048096	-3.743196	0.000442
 541	5.3730e+01	18.4743	81.828704	-0.000750	-7.500542	-2.541253	0.000300
 542	5.3830e+01	18.4358	82.074970	-0.000618	-6.182880	-2.094816	0.000248
 543	5.3929e+01	18.4054	82.369680	-0.000740	-7.399184	-2.506911	0.000296
 544	5.4029e+01	18.3620	82.894508	-0.001318	-13.176629	-4.464363	0.000527
 545	5.4128e+01	18.3123	83.241702	-0.000872	-8.716847	-2.953348	0.000349
 546	5.4227e+01	18.2818	83.548524	-0.000770	-7.703260	-2.609935	0.000308
 547	5.4327e+01	18.2401	83.855346	-0.000770	-7.703260	-2.609935	0.000308
 548	5.4426e+01	18.1968	84.214651	-0.000902	-9.020923	-3.056371	0.000361
 549	5.4526e+01	18.1567	84.517437	-0.000760	-7.601901	-2.575594	0.000304
 550	5.4626e+01	18.1246	84.836370	-0.000801	-8.007336	-2.712959	0.000321
 551	5.4725e+01	18.0797	85.123007	-0.000720	-7.196466	-2.438229	0.000288
 552	5.4825e+01	18.0396	85.417718	-0.000740	-7.399184	-2.506911	0.000296
 553	5.4924e+01	18.0011	85.680132	-0.000659	-6.588314	-2.232181	0.000264
 554	5.5023e+01	17.9610	85.982917	-0.000760	-7.601901	-2.575594	0.000304
 555	5.5123e+01	17.9225	86.152477	-0.000426	-4.257065	-1.442333	0.000170
 556	5.5222e+01	17.8872	86.499670	-0.000872	-8.716847	-2.953348	0.000349
 557	5.5322e+01	17.8423	86.915495	-0.001044	-10.439944	-3.537149	0.000418
 558	5.5422e+01	17.8054	87.230392	-0.000791	-7.905977	-2.678618	0.000316
 559	5.5521e+01	17.7637	87.787517	-0.001399	-13.987498	-4.739093	0.000560
 560	5.5620e+01	17.7252	88.183156	-0.000993	-9.933151	-3.365443	0.000398
 561	5.5720e+01	17.6819	88.506127	-0.000811	-8.108694	-2.747300	0.000325
 562	5.5819e+01	17.6482	88.821023	-0.000791	-7.905977	-2.678618	0.000316
 563	5.5919e+01	17.6000	89.127846	-0.000770	-7.703260	-2.609935	0.000308
 564	5.6019e+01	17.5760	89.418519	-0.000730	-7.297825	-2.472570	0.000292
 565	5.6118e+01	17.5166	89.648636	-0.000578	-5.777445	-1.957451	0.000231
 566	5.6218e+01	17.4893	90.020053	-0.000932	-9.324999	-3.159395	0.000373
 567	5.6317e+01	17.4412	90.464138	-0.001115	-11.149455	-3.777538	0.000446
 568	5.6416e+01	17.4027	90.803257	-0.000851	-8.514129	-2.884665	0.000341
 569	5.6516e+01	17.3674	91.106042	-0.000760	-7.601901	-2.575594	0.000304
 570	5.6615e+01	17.3209	91.380567	-0.000689	-6.892390	-2.335205	0.000276
 571	5.6715e+01	17.2824	91.675278	-0.000740	-7.399184	-2.506911	0.000296
 572	5.6815e+01	17.2471	91.933655	-0.000649	-6.486956	-2.197840	0.000260
 573	5.6914e+01	17.1990	92.224329	-0.000730	-7.297825	-2.472570	0.000292
 574	5.7014e+01	17.1621	92.357554	-0.000334	-3.344836	-1.133261	0.000134
 575	5.7113e+01	17.1220	92.486743	-0.000324	-3.243478	-1.098920	0.000130
 576	5.7212e+01	17.0915	92.595745	-0.000274	-2.736684	-0.927214	0.000110
 577	5.7312e+01	17.0450	92.680525	-0.000213	-2.128532	-0.721166	0.000085
 578	5.7411e+01	17.0145	92.704748	-0.000061	-0.608152	-0.206048	0.000024
 579	5.7511e+01	16.9535	92.866233	-0.000405	-4.054347	-1.373650	0.000162
 580	5.7611e+01	16.9198	92.926790	-0.000152	-1.520380	-0.515119	0.000061
 581	5.7710e+01	16.8910	93.007533	-0.000203	-2.027174	-0.686825	0.000081
 582	5.7809e+01	16.8428	93.076164	-0.000172	-1.723098	-0.583801	0.000069
 583	5.7909e+01	16.8011	93.148833	-0.000182	-1.824456	-0.618143	0.000073
 584	5.8008e+01	16.7626	93.245724	-0.000243	-2.432608	-0.824190	0.000097
 585	5.8108e+01	16.7338	93.399135	-0.000385	-3.851630	-1.304968	0.000154
 586	5.8208e+01	16.6808	93.528324	-0.000324	-3.243478	-1.098920	0.000130
 587	5.8307e+01	16.6471	93.701920	-0.000436	-4.358423	-1.476674	0.000174
 588	5.8407e+01	16.5958	93.891666	-0.000476	-4.763858	-1.614039	0.000191
 589	5.8506e+01	16.5701	93.984520	-0.000233	-2.331250	-0.789849	0.000093
 590	5.8605e+01	16.5300	94.154080	-0.000426	-4.257065	-1.442333	0.000170
 591	5.8705e+01	16.4835	94.271157	-0.000294	-2.939402	-0.995896	0.000118
 592	5.8804e+01	16.4418	94.384196	-0.000284	-2.838043	-0.961555	0.000114
 593	5.8904e+01	16.4177	94.493199	-0.000274	-2.736684	-0.927214	0.000110
 594	5.9004e+01	16.3632	94.553756	-0.000152	-1.520380	-0.515119	0.000061
 595	5.9103e+01	16.3183	94.634499	-0.000203	-2.027174	-0.686825	0.000081
 596	5.9203e+01	16.2830	94.763687	-0.000324	-3.243478	-1.098920	0.000130
 597	5.9302e+01	16.2461	94.929210	-0.000416	-4.155706	-1.407991	0.000166
 598	5.9401e+01	16.2044	95.090695	-0.000405	-4.054347	-1.373650	0.000162
 599	5.9501e+01	16.1626	95.304663	-0.000537	-5.372010	-1.820086	0.000215
 600	5.9600e+01	16.1193	95.417703	-0.000284	-2.838043	-0.961555	0.000114
 601	5.9700e+01	16.0824	95.607449	-0.000476	-4.763858	-1.614039	0.000191
 602	5.9800e+01	16.0487	95.732600	-0.000314	-3.142119	-1.064579	0.000126
 603	5.9899e+01	16.0102	95.793157	-0.000152	-1.520380	-0.515119	0.000061
 604	5.9998e+01	15.9653	95.857751	-0.000162	-1.621739	-0.549460	0.000065
 605	6.0098e+01	15.9300	95.902159	-0.000111	-1.114945	-0.377754	0.000045
 606	6.0197e+01	15.8803	95.942531	-0.000101	-1.013587	-0.343413	0.000041
 607	6.0297e+01	15.8450	96.007125	-0.000162	-1.621739	-0.549460	0.000065
 608	6.0397e+01	15.8049	96.087868	-0.000203	-2.027174	-0.686825	0.000081
 609	6.0496e+01	15.7680	96.132276	-0.000111	-1.114945	-0.377754	0.000045
 610	6.0596e+01	15.7295	96.188796	-0.000142	-1.419022	-0.480778	0.000057
 611	6.0695e+01	15.6862	96.273576	-0.000213	-2.128532	-0.721166	0.000085
 612	6.0794e+01	15.6493	96.313947	-0.000101	-1.013587	-0.343413	0.000041
 613	6.0894e+01	15.6156	96.386616	-0.000182	-1.824456	-0.618143	0.000073
 614	6.0993e+01	15.5739	96.414876	-0.000071	-0.709511	-0.240389	0.000028
 615	6.1093e+01	15.5274	96.431024	-0.000041	-0.405435	-0.137365	0.000016
 616	6.1193e+01	15.4857	96.523878	-0.000233	-2.331250	-0.789849	0.000093
 617	6.1292e+01	15.4552	96.568287	-0.000111	-1.114945	-0.377754	0.000045
 618	6.1392e+01	15.4071	96.600584	-0.000081	-0.810869	-0.274730	0.000032
 619	6.1491e+01	15.3686	96.620770	-0.000051	-0.506793	-0.171706	0.000020
 620	6.1590e+01	15.3349	96.632881	-0.000030	-0.304076	-0.103024	0.000012
 621	6.1690e+01	15.2915	96.665178	-0.000081	-0.810869	-0.274730	0.000032
 622	6.1789e+01	15.2466	96.693438	-0.000071	-0.709511	-0.240389	0.000028
 623	6.1889e+01	15.2161	96.729772	-0.000091	-0.912228	-0.309071	0.000037
 624	6.1989e+01	15.1728	96.798404	-0.000172	-1.723098	-0.583801	0.000069
 625	6.2088e+01	15.1263	96.814552	-0.000041	-0.405435	-0.137365	0.000016
 626	6.2188e+01	15.0846	96.838775	-0.000061	-0.608152	-0.206048	0.000024
 627	6.2287e+01	15.0573	96.862998	-0.000061	-0.608152	-0.206048	0.000024
 628	6.2386e+01	15.0092	96.903369	-0.000101	-1.013587	-0.343413	0.000041
 629	6.2486e+01	14.9755	96.939703	-0.000091	-0.912228	-0.309071	0.000037
 630	6.2586e+01	14.9306	96.967963	-0.000071	-0.709511	-0.240389	0.000028
 631	6.2685e+01	14.8809	96.988149	-0.000051	-0.506793	-0.171706	0.000020
 632	6.2785e+01	14.8488	97.004298	-0.000041	-0.405435	-0.137365	0.000016
 633	6.2884e+01	14.8231	97.032557	-0.000071	-0.709511	-0.240389	0.000028
 634	6.2983e+01	14.7670	97.109263	-0.000193	-1.925815	-0.652484	0.000077
 635	6.3083e+01	14.7349	97.101189	0.000020	0.202717	0.068683	-0.000008
 636	6.3182e+01	14.6948	97.177894	-0.000193	-1.925815	-0.652484	0.000077
 637	6.3282e+01	14.6563	97.165783	0.000030	0.304076	0.103024	-0.000012
 638	6.3382e+01	14.6162	97.226340	-0.000152	-1.520380	-0.515119	0.000061
 639	6.3481e+01	14.5680	97.266711	-0.000101	-1.013587	-0.343413	0.000041
 640	6.3581e+01	14.5327	97.307083	-0.000101	-1.013587	-0.343413	0.000041
 641	6.3680e+01	14.4910	97.335343	-0.000071	-0.709511	-0.240389	0.000028
 642	6.3779e+01	14.4525	97.359565	-0.000061	-0.608152	-0.206048	0.000024
 643	6.3879e+01	14.4204	97.403974	-0.000111	-1.114945	-0.377754	0.000045
 644	6.3978e+01	14.3723	97.432234	-0.000071	-0.709511	-0.240389	0.000028
 645	6.4078e+01	14.3370	97.464531	-0.000081	-0.810869	-0.274730	0.000032
 646	6.4177e+01	14.2985	97.480680	-0.000041	-0.405435	-0.137365	0.000016
 647	6.4277e+01	14.2520	97.521051	-0.000101	-1.013587	-0.343413	0.000041
 648	6.4376e+01	14.2071	97.569497	-0.000122	-1.216304	-0.412095	0.000049
 649	6.4476e+01	14.1750	97.545274	0.000061	0.608152	0.206048	-0.000024
 650	6.4576e+01	14.1365	97.565459	-0.000051	-0.506793	-0.171706	0.000020
 651	6.4675e+01	14.0900	97.609868	-0.000111	-1.114945	-0.377754	0.000045
 652	6.4775e+01	14.0531	97.621979	-0.000030	-0.304076	-0.103024	0.000012
 653	6.4874e+01	14.0114	97.702722	-0.000203	-2.027174	-0.686825	0.000081
 654	6.4974e+01	13.9745	97.694648	0.000020	0.202717	0.068683	-0.000008
 655	6.5073e+01	13.9392	97.706759	-0.000030	-0.304076	-0.103024	0.000012
 656	6.5172e+01	13.8911	97.722908	-0.000041	-0.405435	-0.137365	0.000016
 657	6.5272e+01	13.8574	97.751168	-0.000071	-0.709511	-0.240389	0.000028
 658	6.5371e+01	13.8140	97.811725	-0.000152	-1.520380	-0.515119	0.000061
 659	6.5471e+01	13.7772	97.839985	-0.000071	-0.709511	-0.240389	0.000028
 660	6.5570e+01	13.7451	97.823836	0.000041	0.405435	0.137365	-0.000016
 661	6.5670e+01	13.6889	97.860170	-0.000091	-0.912228	-0.309071	0.000037
 662	6.5769e+01	13.6440	97.856133	0.000010	0.101359	0.034341	-0.000004
 663	6.5869e+01	13.6119	97.912653	-0.000142	-1.419022	-0.480778	0.000057
 664	6.5969e+01	13.5798	97.993396	-0.000203	-2.027174	-0.686825	0.000081
 665	6.6068e+01	13.5397	98.001470	-0.000020	-0.202717	-0.068683	0.000008
 666	6.6168e+01	13.4964	97.977247	0.000061	0.608152	0.206048	-0.000024
 667	6.6267e+01	13.4627	98.029730	-0.000132	-1.317663	-0.446436	0.000053
 668	6.6367e+01	13.4082	98.062027	-0.000081	-0.810869	-0.274730	0.000032
 669	6.6466e+01	13.3761	98.126621	-0.000162	-1.621739	-0.549460	0.000065
 670	6.6566e+01	13.3280	98.150844	-0.000061	-0.608152	-0.206048	0.000024
 671	6.6665e+01	13.2863	98.154881	-0.000010	-0.101359	-0.034341	0.000004
 672	6.6764e+01	13.2606	98.142770	0.000030	0.304076	0.103024	-0.000012
 673	6.6864e+01	13.2189	98.179104	-0.000091	-0.912228	-0.309071	0.000037
 674	6.6963e+01	13.1724	98.187178	-0.000020	-0.202717	-0.068683	0.000008
 675	6.7063e+01	13.1387	98.191215	-0.000010	-0.101359	-0.034341	0.000004
 676	6.7162e+01	13.1098	98.223513	-0.000081	-0.810869	-0.274730	0.000032
 677	6.7262e+01	13.0601	98.203327	0.000051	0.506793	0.171706	-0.000020
 678	6.7362e+01	13.0216	98.215438	-0.000030	-0.304076	-0.103024	0.000012
 679	6.7461e+01	12.9766	98.199290	0.000041	0.405435	0.137365	-0.000016
 680	6.7561e+01	12.9365	98.207364	-0.000020	-0.202717	-0.068683	0.000008
 681	6.7660e+01	12.8996	98.239661	-0.000081	-0.810869	-0.274730	0.000032
 682	6.7760e+01	12.8611	98.215438	0.000061	0.608152	0.206048	-0.000024
 683	6.7859e+01	12.8226	98.191215	0.000061	0.608152	0.206048	-0.000024
 684	6.7959e+01	12.7761	98.227550	-0.000091	-0.912228	-0.309071	0.000037
 685	6.8058e+01	12.7440	98.175067	0.000132	1.317663	0.446436	-0.000053
 686	6.8157e+01	12.6959	98.187178	-0.000030	-0.304076	-0.103024	0.000012
 687	6.8257e+01	12.6622	98.138733	0.000122	1.216304	0.412095	-0.000049
 688	6.8356e+01	12.6237	98.150844	-0.000030	-0.304076	-0.103024	0.000012
 689	6.8456e+01	12.5836	98.126621	0.000061	0.608152	0.206048	-0.000024
 690	6.8555e+01	12.5451	98.045879	0.000203	2.027174	0.686825	-0.000081
 691	6.8655e+01	12.5034	98.045879	-0.000000	-0.000000	-0.000000	0.000000
 692	6.8754e+01	12.4633	98.029730	0.000041	0.405435	0.137365	-0.000016
 693	6.8854e+01	12.4200	97.985321	0.000111	1.114945	0.377754	-0.000045
 694	6.8954e+01	12.3799	97.993396	-0.000020	-0.202717	-0.068683	0.000008
 695	6.9053e+01	12.3478	97.932839	0.000152	1.520380	0.515119	-0.000061
 696	6.9153e+01	12.3045	97.940913	-0.000020	-0.202717	-0.068683	0.000008
 697	6.9252e+01	12.2563	97.940913	-0.000000	-0.000000	-0.000000	0.000000
 698	6.9352e+01	12.2226	97.856133	0.000213	2.128532	0.721166	-0.000085
 699	6.9451e+01	12.1825	97.844022	0.000030	0.304076	0.103024	-0.000012
 700	6.9550e+01	12.1489	97.856133	-0.000030	-0.304076	-0.103024	0.000012
 701	6.9650e+01	12.1104	97.856133	-0.000000	-0.000000	-0.000000	0.000000
 702	6.9749e+01	12.0654	97.839985	0.000041	0.405435	0.137365	-0.000016
 703	6.9849e+01	12.0350	97.791539	0.000122	1.216304	0.412095	-0.000049
 704	6.9948e+01	11.9900	97.739056	0.000132	1.317663	0.446436	-0.000053
 705	7.0048e+01	11.9403	97.722908	0.000041	0.405435	0.137365	-0.000016
 706	7.0147e+01	11.9034	97.702722	0.000051	0.506793	0.171706	-0.000020
 707	7.0247e+01	11.8617	97.658314	0.000111	1.114945	0.377754	-0.000045
 708	7.0347e+01	11.8232	97.597756	0.000152	1.520380	0.515119	-0.000061
 709	7.0446e+01	11.7975	97.557385	0.000101	1.013587	0.343413	-0.000041
 710	7.0546e+01	11.7542	97.512977	0.000111	1.114945	0.377754	-0.000045
 711	7.0645e+01	11.7061	97.517014	-0.000010	-0.101359	-0.034341	0.000004
 712	7.0745e+01	11.6740	97.468568	0.000122	1.216304	0.412095	-0.000049
 713	7.0844e+01	11.6307	97.432234	0.000091	0.912228	0.309071	-0.000037
 714	7.0944e+01	11.5777	97.363603	0.000172	1.723098	0.583801	-0.000069
 715	7.1043e+01	11.5505	97.315157	0.000122	1.216304	0.412095	-0.000049
 716	7.1142e+01	11.5072	97.214229	0.000253	2.533967	0.858531	-0.000101
 717	7.1242e+01	11.4622	97.198080	0.000041	0.405435	0.137365	-0.000016
 718	7.1341e+01	11.4270	97.129449	0.000172	1.723098	0.583801	-0.000069
 719	7.1441e+01	11.3868	97.137523	-0.000020	-0.202717	-0.068683	0.000008
 720	7.1540e+01	11.3532	97.016409	0.000304	3.040760	1.030238	-0.000122
 721	7.1640e+01	11.3147	96.951815	0.000162	1.621739	0.549460	-0.000065
 722	7.1740e+01	11.2601	96.935666	0.000041	0.405435	0.137365	-0.000016
 723	7.1839e+01	11.2200	96.834738	0.000253	2.533967	0.858531	-0.000101
 724	7.1939e+01	11.1927	96.834738	-0.000000	-0.000000	-0.000000	0.000000
 725	7.2038e+01	11.1526	96.758032	0.000193	1.925815	0.652484	-0.000077
 726	7.2138e+01	11.1125	96.721698	0.000091	0.912228	0.309071	-0.000037
 727	7.2237e+01	11.0692	96.693438	0.000071	0.709511	0.240389	-0.000028
 728	7.2337e+01	11.0243	96.576361	0.000294	2.939402	0.995896	-0.000118
 729	7.2436e+01	10.9890	96.535990	0.000101	1.013587	0.343413	-0.000041
 730	7.2535e+01	10.9521	96.499656	0.000091	0.912228	0.309071	-0.000037
 731	7.2635e+01	10.9056	96.422950	0.000193	1.925815	0.652484	-0.000077
 732	7.2734e+01	10.8751	96.366430	0.000142	1.419022	0.480778	-0.000057
 733	7.2834e+01	10.8318	96.342207	0.000061	0.608152	0.206048	-0.000024
 734	7.2933e+01	10.7981	96.257427	0.000213	2.128532	0.721166	-0.000085
 735	7.3033e+01	10.7435	96.204945	0.000132	1.317663	0.446436	-0.000053
 736	7.3132e+01	10.7131	96.136313	0.000172	1.723098	0.583801	-0.000069
 737	7.3232e+01	10.6730	96.071719	0.000162	1.621739	0.549460	-0.000065
 738	7.3332e+01	10.6329	96.019236	0.000132	1.317663	0.446436	-0.000053
 739	7.3431e+01	10.5976	95.958679	0.000152	1.520380	0.515119	-0.000061
 740	7.3531e+01	10.5478	95.881974	0.000193	1.925815	0.652484	-0.000077
 741	7.3630e+01	10.5206	95.833528	0.000122	1.216304	0.412095	-0.000049
 742	7.3730e+01	10.4724	95.805268	0.000071	0.709511	0.240389	-0.000028
 743	7.3829e+01	10.4403	95.736637	0.000172	1.723098	0.583801	-0.000069
 744	7.3928e+01	10.3906	95.684154	0.000132	1.317663	0.446436	-0.000053
 745	7.4028e+01	10.3585	95.579189	0.000264	2.635326	0.892873	-0.000105
 746	7.4127e+01	10.3136	95.538817	0.000101	1.013587	0.343413	-0.000041
 747	7.4227e+01	10.2735	95.486334	0.000132	1.317663	0.446436	-0.000053
 748	7.4326e+01	10.2302	95.397517	0.000223	2.229891	0.755508	-0.000089
 749	7.4426e+01	10.1885	95.377332	0.000051	0.506793	0.171706	-0.000020
 750	7.4525e+01	10.1500	95.304663	0.000182	1.824456	0.618143	-0.000073
 751	7.4625e+01	10.1067	95.260255	0.000111	1.114945	0.377754	-0.000045
 752	7.4725e+01	10.0762	95.187586	0.000182	1.824456	0.618143	-0.000073
 753	7.4824e+01	10.0216	95.090695	0.000243	2.432608	0.824190	-0.000097
 754	7.4924e+01	9.9944	95.082621	0.000020	0.202717	0.068683	-0.000008
 755	7.5023e+01	9.9527	95.022064	0.000152	1.520380	0.515119	-0.000061
 756	7.5123e+01	9.9126	94.981693	0.000101	1.013587	0.343413	-0.000041
 757	7.5222e+01	9.8628	94.925173	0.000142	1.419022	0.480778	-0.000057
 758	7.5322e+01	9.8259	94.840393	0.000213	2.128532	0.721166	-0.000085
 759	7.5421e+01	9.7842	94.812133	0.000071	0.709511	0.240389	-0.000028
 760	7.5520e+01	9.7441	94.775799	0.000091	0.912228	0.309071	-0.000037
 761	7.5620e+01	9.7072	94.719279	0.000142	1.419022	0.480778	-0.000057
 762	7.5719e+01	9.6655	94.670833	0.000122	1.216304	0.412095	-0.000049
 763	7.5819e+01	9.6382	94.598165	0.000182	1.824456	0.618143	-0.000073
 764	7.5918e+01	9.6029	94.553756	0.000111	1.114945	0.377754	-0.000045
 765	7.6018e+01	9.5564	94.473013	0.000203	2.027174	0.686825	-0.000081
 766	7.6118e+01	9.5211	94.400345	0.000182	1.824456	0.618143	-0.000073
 767	7.6217e+01	9.4714	94.380159	0.000051	0.506793	0.171706	-0.000020
 768	7.6317e+01	9.4329	94.263082	0.000294	2.939402	0.995896	-0.000118
 769	7.6416e+01	9.4040	94.246934	0.000041	0.405435	0.137365	-0.000016
 770	7.6516e+01	9.3543	94.117745	0.000324	3.243478	1.098920	-0.000130
 771	7.6615e+01	9.3078	94.089486	0.000071	0.709511	0.240389	-0.000028
 772	7.6715e+01	9.2789	94.016817	0.000182	1.824456	0.618143	-0.000073
 773	7.6814e+01	9.2404	93.928000	0.000223	2.229891	0.755508	-0.000089
 774	7.6913e+01	9.1971	93.851295	0.000193	1.925815	0.652484	-0.000077
 775	7.7013e+01	9.1425	93.766515	0.000213	2.128532	0.721166	-0.000085
 776	7.7112e+01	9.1201	93.697883	0.000172	1.723098	0.583801	-0.000069
 777	7.7212e+01	9.0719	93.645401	0.000132	1.317663	0.446436	-0.000053
 778	7.7311e+01	9.0382	93.544472	0.000253	2.533967	0.858531	-0.000101
 779	7.7411e+01	9.0046	93.467767	0.000193	1.925815	0.652484	-0.000077
 780	7.7510e+01	8.9484	93.395098	0.000182	1.824456	0.618143	-0.000073
 781	7.7610e+01	8.9195	93.338578	0.000142	1.419022	0.480778	-0.000057
 782	7.7710e+01	8.8794	93.261873	0.000193	1.925815	0.652484	-0.000077
 783	7.7809e+01	8.8297	93.185167	0.000193	1.925815	0.652484	-0.000077
 784	7.7909e+01	8.7976	93.116536	0.000172	1.723098	0.583801	-0.000069
 785	7.8008e+01	8.7623	93.064053	0.000132	1.317663	0.446436	-0.000053
 786	7.8108e+01	8.7206	93.011570	0.000132	1.317663	0.446436	-0.000053
 787	7.8207e+01	8.6757	92.922753	0.000223	2.229891	0.755508	-0.000089
 788	7.8306e+01	8.6292	92.829899	0.000233	2.331250	0.789849	-0.000093
 789	7.8406e+01	8.6019	92.737045	0.000233	2.331250	0.789849	-0.000093
 790	7.8505e+01	8.5586	92.664377	0.000182	1.824456	0.618143	-0.000073
 791	7.8605e+01	8.5137	92.579597	0.000213	2.128532	0.721166	-0.000085
 792	7.8704e+01	8.4880	92.531151	0.000122	1.216304	0.412095	-0.000049
 793	7.8804e+01	8.4302	92.381777	0.000375	3.750271	1.270626	-0.000150
 794	7.8903e+01	8.3933	92.341406	0.000101	1.013587	0.343413	-0.000041
 795	7.9003e+01	8.3661	92.187995	0.000385	3.851630	1.304968	-0.000154
 796	7.9103e+01	8.3115	92.070918	0.000294	2.939402	0.995896	-0.000118
 797	7.9202e+01	8.2746	91.990175	0.000203	2.027174	0.686825	-0.000081
 798	7.9302e+01	8.2393	91.877135	0.000284	2.838043	0.961555	-0.000114
 799	7.9401e+01	8.1912	91.784281	0.000233	2.331250	0.789849	-0.000093
 800	7.9501e+01	8.1527	91.723724	0.000152	1.520380	0.515119	-0.000061
 801	7.9600e+01	8.1303	91.566276	0.000395	3.952989	1.339309	-0.000158
 802	7.9700e+01	8.0821	91.465347	0.000253	2.533967	0.858531	-0.000101
 803	7.9799e+01	8.0276	91.336159	0.000324	3.243478	1.098920	-0.000130
 804	7.9898e+01	8.0019	91.231193	0.000264	2.635326	0.892873	-0.000105
 805	7.9998e+01	7.9570	91.097968	0.000334	3.344836	1.133261	-0.000134
 806	8.0097e+01	7.9265	91.013188	0.000213	2.128532	0.721166	-0.000085
 807	8.0197e+01	7.8768	90.944557	0.000172	1.723098	0.583801	-0.000069
 808	8.0296e+01	7.8335	90.831517	0.000284	2.838043	0.961555	-0.000114
 809	8.0396e+01	7.7982	90.686180	0.000365	3.648913	1.236285	-0.000146
 810	8.0496e+01	7.7597	90.581215	0.000264	2.635326	0.892873	-0.000105
 811	8.0595e+01	7.7276	90.464138	0.000294	2.939402	0.995896	-0.000118
 812	8.0695e+01	7.6763	90.326875	0.000345	3.446195	1.167603	-0.000138
 813	8.0794e+01	7.6361	90.221909	0.000264	2.635326	0.892873	-0.000105
 814	8.0894e+01	7.6041	90.052350	0.000426	4.257065	1.442333	-0.000170
 815	8.0993e+01	7.5640	89.955459	0.000243	2.432608	0.824190	-0.000097
 816	8.1093e+01	7.5206	89.822233	0.000334	3.344836	1.133261	-0.000134
 817	8.1192e+01	7.4757	89.680933	0.000355	3.547554	1.201944	-0.000142
 818	8.1291e+01	7.4420	89.511374	0.000426	4.257065	1.442333	-0.000170
 819	8.1391e+01	7.3907	89.398334	0.000284	2.838043	0.961555	-0.000114
 820	8.1490e+01	7.3650	89.257034	0.000355	3.547554	1.201944	-0.000142
 821	8.1590e+01	7.3249	89.135920	0.000304	3.040760	1.030238	-0.000122
 822	8.1689e+01	7.2816	88.994620	0.000355	3.547554	1.201944	-0.000142
 823	8.1789e+01	7.2463	88.889655	0.000264	2.635326	0.892873	-0.000105
 824	8.1888e+01	7.2030	88.703946	0.000466	4.662499	1.579698	-0.000187
 825	8.1988e+01	7.1533	88.566684	0.000345	3.446195	1.167603	-0.000138
 826	8.2088e+01	7.1196	88.405198	0.000405	4.054347	1.373650	-0.000162
 827	8.2187e+01	7.0779	88.259862	0.000365	3.648913	1.236285	-0.000146
 828	8.2287e+01	7.0394	88.118562	0.000355	3.547554	1.201944	-0.000142
 829	8.2386e+01	7.0025	87.993411	0.000314	3.142119	1.064579	-0.000126
 830	8.2486e+01	6.9560	87.831925	0.000405	4.054347	1.373650	-0.000162
 831	8.2585e+01	6.9239	87.646217	0.000466	4.662499	1.579698	-0.000187
 832	8.2684e+01	6.8838	87.525103	0.000304	3.040760	1.030238	-0.000122
 833	8.2784e+01	6.8517	87.323246	0.000507	5.067934	1.717063	-0.000203
 834	8.2883e+01	6.8068	87.185983	0.000345	3.446195	1.167603	-0.000138
 835	8.2983e+01	6.7667	87.016424	0.000426	4.257065	1.442333	-0.000170
 836	8.3082e+01	6.7201	86.879161	0.000345	3.446195	1.167603	-0.000138
 837	8.3182e+01	6.6832	86.665193	0.000537	5.372010	1.820086	-0.000215
 838	8.3281e+01	6.6511	86.564264	0.000253	2.533967	0.858531	-0.000101
 839	8.3381e+01	6.6078	86.374519	0.000476	4.763858	1.614039	-0.000191
 840	8.3481e+01	6.5581	86.213034	0.000405	4.054347	1.373650	-0.000162
 841	8.3580e+01	6.5260	86.007140	0.000517	5.169293	1.751404	-0.000207
 842	8.3680e+01	6.4891	85.857766	0.000375	3.750271	1.270626	-0.000150
 843	8.3779e+01	6.4442	85.668020	0.000476	4.763858	1.614039	-0.000191
 844	8.3879e+01	6.4041	85.514609	0.000385	3.851630	1.304968	-0.000154
 845	8.3978e+01	6.3656	85.341012	0.000436	4.358423	1.476674	-0.000174
 846	8.4078e+01	6.3271	85.163378	0.000446	4.459782	1.511015	-0.000179
 847	8.4177e+01	6.2918	84.973633	0.000476	4.763858	1.614039	-0.000191
 848	8.4276e+01	6.2517	84.808110	0.000416	4.155706	1.407991	-0.000166
 849	8.4376e+01	6.2052	84.662774	0.000365	3.648913	1.236285	-0.000146
 850	8.4475e+01	6.1554	84.473028	0.000476	4.763858	1.614039	-0.000191
 851	8.4575e+01	6.1266	84.279246	0.000487	4.865217	1.648380	-0.000195
 852	8.4674e+01	6.0816	84.065277	0.000537	5.372010	1.820086	-0.000215
 853	8.4774e+01	6.0544	83.879569	0.000466	4.662499	1.579698	-0.000187
 854	8.4874e+01	6.0046	83.701935	0.000446	4.459782	1.511015	-0.000179
 855	8.4973e+01	5.9645	83.536413	0.000416	4.155706	1.407991	-0.000166
 856	8.5073e+01	5.9292	83.342630	0.000487	4.865217	1.648380	-0.000195
 857	8.5172e+01	5.8988	83.140773	0.000507	5.067934	1.717063	-0.000203
 858	8.5272e+01	5.8426	82.938917	0.000507	5.067934	1.717063	-0.000203
 859	8.5371e+01	5.8041	82.773394	0.000416	4.155706	1.407991	-0.000166
 860	8.5471e+01	5.7688	82.571537	0.000507	5.067934	1.717063	-0.000203
 861	8.5570e+01	5.7303	82.381792	0.000476	4.763858	1.614039	-0.000191
 862	8.5669e+01	5.6998	82.196084	0.000466	4.662499	1.579698	-0.000187
 863	8.5769e+01	5.6485	81.965967	0.000578	5.777445	1.957451	-0.000231
 864	8.5868e+01	5.6020	81.784296	0.000456	4.561141	1.545356	-0.000183
 865	8.5968e+01	5.5635	81.570328	0.000537	5.372010	1.820086	-0.000215
 866	8.6067e+01	5.5298	81.364434	0.000517	5.169293	1.751404	-0.000207
 867	8.6167e+01	5.4849	81.178725	0.000466	4.662499	1.579698	-0.000187
 868	8.6266e+01	5.4464	80.948609	0.000578	5.777445	1.957451	-0.000231
 869	8.6366e+01	5.4159	80.746752	0.000507	5.067934	1.717063	-0.000203
 870	8.6466e+01	5.3710	80.512598	0.000588	5.878804	1.991793	-0.000235
 871	8.6565e+01	5.3325	80.310741	0.000507	5.067934	1.717063	-0.000203
 872	8.6665e+01	5.2956	80.137144	0.000436	4.358423	1.476674	-0.000174
 873	8.6764e+01	5.2571	79.898953	0.000598	5.980162	2.026134	-0.000239
 874	8.6864e+01	5.2025	79.680948	0.000547	5.473369	1.854428	-0.000219
 875	8.6963e+01	5.1720	79.462943	0.000547	5.473369	1.854428	-0.000219
 876	8.7063e+01	5.1368	79.253012	0.000527	5.270651	1.785745	-0.000211
 877	8.7162e+01	5.0902	79.051155	0.000507	5.067934	1.717063	-0.000203
 878	8.7261e+01	5.0533	78.857372	0.000487	4.865217	1.648380	-0.000195
 879	8.7361e+01	5.0068	78.635330	0.000557	5.574727	1.888769	-0.000223
 880	8.7460e+01	4.9715	78.405213	0.000578	5.777445	1.957451	-0.000231
 881	8.7560e+01	4.9282	78.175096	0.000578	5.777445	1.957451	-0.000231
 882	8.7659e+01	4.8929	78.009574	0.000416	4.155706	1.407991	-0.000166
 883	8.7759e+01	4.8560	77.739086	0.000679	6.791032	2.300864	-0.000272
 884	8.7859e+01	4.8143	77.504932	0.000588	5.878804	1.991793	-0.000235
 885	8.7958e+01	4.7646	77.303075	0.000507	5.067934	1.717063	-0.000203
 886	8.8058e+01	4.7325	77.113330	0.000476	4.763858	1.614039	-0.000191
 887	8.8157e+01	4.6940	76.895324	0.000547	5.473369	1.854428	-0.000219
 888	8.8257e+01	4.6539	76.681356	0.000537	5.372010	1.820086	-0.000215
 889	8.8356e+01	4.6154	76.443165	0.000598	5.980162	2.026134	-0.000239
 890	8.8456e+01	4.5737	76.213048	0.000578	5.777445	1.957451	-0.000231
 891	8.8555e+01	4.5336	76.011192	0.000507	5.067934	1.717063	-0.000203
 892	8.8654e+01	4.4999	75.748778	0.000659	6.588314	2.232181	-0.000264
 893	8.8754e+01	4.4517	75.579218	0.000426	4.257065	1.442333	-0.000170
 894	8.8853e+01	4.4197	75.349101	0.000578	5.777445	1.957451	-0.000231
 895	8.8953e+01	4.3731	75.102836	0.000618	6.182880	2.094816	-0.000248
 896	8.9052e+01	4.3411	74.888868	0.000537	5.372010	1.820086	-0.000215
 897	8.9152e+01	4.2961	74.642603	0.000618	6.182880	2.094816	-0.000248
 898	8.9251e+01	4.2576	74.444783	0.000497	4.966575	1.682721	-0.000199
 899	8.9351e+01	4.2207	74.190443	0.000639	6.385597	2.163499	-0.000256
 900	8.9451e+01	4.1710	73.980512	0.000527	5.270651	1.785745	-0.000211
 901	8.9550e+01	4.1405	73.770581	0.000527	5.270651	1.785745	-0.000211
 902	8.9650e+01	4.0956	73.540465	0.000578	5.777445	1.957451	-0.000231
 903	8.9749e+01	4.0491	73.286125	0.000639	6.385597	2.163499	-0.000256
 904	8.9849e+01	4.0202	73.076194	0.000527	5.270651	1.785745	-0.000211
 905	8.9948e+01	3.9737	72.833966	0.000608	6.081521	2.060475	-0.000243
 906	9.0047e+01	3.9240	72.611923	0.000557	5.574727	1.888769	-0.000223
 907	9.0147e+01	3.8935	72.365658	0.000618	6.182880	2.094816	-0.000248
 908	9.0246e+01	3.8534	72.119393	0.000618	6.182880	2.094816	-0.000248
 909	9.0346e+01	3.8165	71.901387	0.000547	5.473369	1.854428	-0.000219
 910	9.0445e+01	3.7748	71.675308	0.000568	5.676086	1.923110	-0.000227
 911	9.0545e+01	3.7379	71.465377	0.000527	5.270651	1.785745	-0.000211
 912	9.0644e+01	3.6913	71.219112	0.000618	6.182880	2.094816	-0.000248
 913	9.0744e+01	3.6512	70.972846	0.000618	6.182880	2.094816	-0.000248
 914	9.0844e+01	3.6159	70.766952	0.000517	5.169293	1.751404	-0.000207
 915	9.0943e+01	3.5758	70.528761	0.000598	5.980162	2.026134	-0.000239
 916	9.1043e+01	3.5293	70.270385	0.000649	6.486956	2.197840	-0.000260
 917	9.1142e+01	3.5020	70.068528	0.000507	5.067934	1.717063	-0.000203
 918	9.1242e+01	3.4587	69.794003	0.000689	6.892390	2.335205	-0.000276
 919	9.1341e+01	3.4250	69.584072	0.000527	5.270651	1.785745	-0.000211
 920	9.1441e+01	3.3849	69.301472	0.000710	7.095108	2.403888	-0.000284
 921	9.1540e+01	3.3368	69.083467	0.000547	5.473369	1.854428	-0.000219
 922	9.1639e+01	3.2999	68.845276	0.000598	5.980162	2.026134	-0.000239
 923	9.1739e+01	3.2710	68.594973	0.000628	6.284238	2.129158	-0.000252
 924	9.1838e+01	3.2213	68.364857	0.000578	5.777445	1.957451	-0.000231
 925	9.1938e+01	3.1892	68.106480	0.000649	6.486956	2.197840	-0.000260
 926	9.2037e+01	3.1347	67.884437	0.000557	5.574727	1.888769	-0.000223
 927	9.2137e+01	3.0946	67.642209	0.000608	6.081521	2.060475	-0.000243
 928	9.2237e+01	3.0561	67.404018	0.000598	5.980162	2.026134	-0.000239
 929	9.2336e+01	3.0095	67.157753	0.000618	6.182880	2.094816	-0.000248
 930	9.2436e+01	2.9823	66.927636	0.000578	5.777445	1.957451	-0.000231
 931	9.2535e+01	2.9390	66.705594	0.000557	5.574727	1.888769	-0.000223
 932	9.2635e+01	2.8988	66.418957	0.000720	7.196466	2.438229	-0.000288
 933	9.2734e+01	2.8555	66.225175	0.000487	4.865217	1.648380	-0.000195
 934	9.2834e+01	2.8202	65.986984	0.000598	5.980162	2.026134	-0.000239
 935	9.2933e+01	2.7769	65.668050	0.000801	8.007336	2.712959	-0.000321
 936	9.3032e+01	2.7384	65.437933	0.000578	5.777445	1.957451	-0.000231
 937	9.3132e+01	2.6935	65.147259	0.000730	7.297825	2.472570	-0.000292
 938	9.3231e+01	2.6566	64.917143	0.000578	5.777445	1.957451	-0.000231
 939	9.3331e+01	2.6277	64.682989	0.000588	5.878804	1.991793	-0.000235
 940	9.3430e+01	2.5748	64.432686	0.000628	6.284238	2.129158	-0.000252
 941	9.3530e+01	2.5491	64.186421	0.000618	6.182880	2.094816	-0.000248
 942	9.3629e+01	2.5042	63.928044	0.000649	6.486956	2.197840	-0.000260
 943	9.3729e+01	2.4513	63.673705	0.000639	6.385597	2.163499	-0.000256
 944	9.3829e+01	2.4256	63.407254	0.000669	6.689673	2.266523	-0.000268
 945	9.3928e+01	2.3807	63.177137	0.000578	5.777445	1.957451	-0.000231
 946	9.4028e+01	2.3374	62.906649	0.000679	6.791032	2.300864	-0.000272
 947	9.4127e+01	2.2989	62.624050	0.000710	7.095108	2.403888	-0.000284
 948	9.4227e+01	2.2732	62.410081	0.000537	5.372010	1.820086	-0.000215
 949	9.4326e+01	2.2251	62.139593	0.000679	6.791032	2.300864	-0.000272
 950	9.4425e+01	2.1898	61.861031	0.000699	6.993749	2.369546	-0.000280
 951	9.4525e+01	2.1400	61.634951	0.000568	5.676086	1.923110	-0.000227
 952	9.4624e+01	2.1080	61.372537	0.000659	6.588314	2.232181	-0.000264
 953	9.4724e+01	2.0614	61.102049	0.000679	6.791032	2.300864	-0.000272
 954	9.4823e+01	2.0245	60.851747	0.000628	6.284238	2.129158	-0.000252
 955	9.4923e+01	1.9957	60.609519	0.000608	6.081521	2.060475	-0.000243
 956	9.5022e+01	1.9507	60.355179	0.000639	6.385597	2.163499	-0.000256
 957	9.5122e+01	1.9010	60.064506	0.000730	7.297825	2.472570	-0.000292
 958	9.5222e+01	1.8705	59.794017	0.000679	6.791032	2.300864	-0.000272
 959	9.5321e+01	1.8320	59.543715	0.000628	6.284238	2.129158	-0.000252
 960	9.5421e+01	1.7823	59.265153	0.000699	6.993749	2.369546	-0.000280
 961	9.5520e+01	1.7374	59.047147	0.000547	5.473369	1.854428	-0.000219
 962	9.5620e+01	1.6973	58.768585	0.000699	6.993749	2.369546	-0.000280
 963	9.5719e+01	1.6668	58.490023	0.000699	6.993749	2.369546	-0.000280
 964	9.5819e+01	1.6283	58.231646	0.000649	6.486956	2.197840	-0.000260
 965	9.5918e+01	1.5882	57.969232	0.000659	6.588314	2.232181	-0.000264
 966	9.6017e+01	1.5529	57.718930	0.000628	6.284238	2.129158	-0.000252
 967	9.6117e+01	1.5064	57.428256	0.000730	7.297825	2.472570	-0.000292
 968	9.6216e+01	1.4599	57.153731	0.000689	6.892390	2.335205	-0.000276
 969	9.6316e+01	1.4262	56.915540	0.000598	5.980162	2.026134	-0.000239
 970	9.6415e+01	1.3861	56.645052	0.000679	6.791032	2.300864	-0.000272
 971	9.6515e+01	1.3411	56.350341	0.000740	7.399184	2.506911	-0.000296
 972	9.6615e+01	1.3139	56.071778	0.000699	6.993749	2.369546	-0.000280
 973	9.6714e+01	1.2625	55.789179	0.000710	7.095108	2.403888	-0.000284
 974	9.6814e+01	1.2176	55.514654	0.000689	6.892390	2.335205	-0.000276
 975	9.6913e+01	1.1919	55.280500	0.000588	5.878804	1.991793	-0.000235
 976	9.7013e+01	1.1438	54.985789	0.000740	7.399184	2.506911	-0.000296
 977	9.7112e+01	1.0957	54.731449	0.000639	6.385597	2.163499	-0.000256
 978	9.7212e+01	1.0748	54.448850	0.000710	7.095108	2.403888	-0.000284
 979	9.7311e+01	1.0251	54.198547	0.000628	6.284238	2.129158	-0.000252
 980	9.7410e+01	0.9866	53.952282	0.000618	6.182880	2.094816	-0.000248
 981	9.7510e+01	0.9417	53.625274	0.000821	8.210053	2.781641	-0.000329
 982	9.7609e+01	0.9048	53.370934	0.000639	6.385597	2.163499	-0.000256
 983	9.7709e+01	0.8599	53.047964	0.000811	8.108694	2.747300	-0.000325
 984	9.7808e+01	0.8310	52.801698	0.000618	6.182880	2.094816	-0.000248
 985	9.7908e+01	0.7845	52.547359	0.000639	6.385597	2.163499	-0.000256
 986	9.8007e+01	0.7476	52.236499	0.000780	7.804618	2.644276	-0.000312
 987	9.8107e+01	0.7027	51.961974	0.000689	6.892390	2.335205	-0.000276
 988	9.8207e+01	0.6706	51.683412	0.000699	6.993749	2.369546	-0.000280
 989	9.8306e+01	0.6224	51.408886	0.000689	6.892390	2.335205	-0.000276
 990	9.8406e+01	0.5968	51.118213	0.000730	7.297825	2.472570	-0.000292
 991	9.8505e+01	0.5486	50.827539	0.000730	7.297825	2.472570	-0.000292
 992	9.8605e+01	0.5085	50.565125	0.000659	6.588314	2.232181	-0.000264
 993	9.8704e+01	0.4668	50.306748	0.000649	6.486956	2.197840	-0.000260
 994	9.8803e+01	0.4299	49.991852	0.000791	7.905977	2.678618	-0.000316
 995	9.8903e+01	0.3786	49.709252	0.000710	7.095108	2.403888	-0.000284
 996	9.9002e+01	0.3497	49.410504	0.000750	7.500542	2.541253	-0.000300
 997	9.9102e+01	0.3096	49.152128	0.000649	6.486956	2.197840	-0.000260
 998	9.9201e+01	0.2791	48.821082	0.000831	8.311412	2.815983	-0.000333
 999	9.9301e+01	0.2326	48.574817	0.000618	6.182880	2.094816	-0.000248
1000	9.9400e+01	0.1797	48.312403	0.000659	6.588314	2.232181	-0.000264
1001	9.9500e+01	0.1524	48.017692	0.000740	7.399184	2.506911	-0.000296
1002	9.9600e+01	0.0995	47.727019	0.000730	7.297825	2.472570	-0.000292
1003	9.9699e+01	0.0642	47.444419	0.000710	7.095108	2.403888	-0.000284
1004	9.9799e+01	0.0385	47.153745	0.000730	7.297825	2.472570	-0.000292
1005	9.9898e+01	0.0016	46.935740	0.000547	5.473369	1.854428	-0.000219
1006	9.9998e+01	-0.0449	46.636992	0.000750	7.500542	2.541253	-0.000300
1007	1.0010e+02	-0.0818	46.338244	0.000750	7.500542	2.541253	-0.000300
1008	1.0020e+02	-0.1235	46.055644	0.000710	7.095108	2.403888	-0.000284
1009	1.0030e+02	-0.1668	45.785156	0.000679	6.791032	2.300864	-0.000272
1010	1.0040e+02	-0.2005	45.506594	0.000699	6.993749	2.369546	-0.000280
1011	1.0050e+02	-0.2487	45.199772	0.000770	7.703260	2.609935	-0.000308
1012	1.0059e+02	-0.2791	44.892949	0.000770	7.703260	2.609935	-0.000308
1013	1.0069e+02	-0.3208	44.610350	0.000710	7.095108	2.403888	-0.000284
1014	1.0079e+02	-0.3577	44.368122	0.000608	6.081521	2.060475	-0.000243
1015	1.0089e+02	-0.3962	44.061299	0.000770	7.703260	2.609935	-0.000308
1016	1.0099e+02	-0.4299	43.770626	0.000730	7.297825	2.472570	-0.000292
1017	1.0109e+02	-0.4749	43.463803	0.000770	7.703260	2.609935	-0.000308
1018	1.0119e+02	-0.5134	43.165055	0.000750	7.500542	2.541253	-0.000300
1019	1.0129e+02	-0.5535	42.886493	0.000699	6.993749	2.369546	-0.000280
1020	1.0139e+02	-0.5952	42.575633	0.000780	7.804618	2.644276	-0.000312
1021	1.0149e+02	-0.6337	42.309183	0.000669	6.689673	2.266523	-0.000268
1022	1.0159e+02	-0.6850	42.026583	0.000710	7.095108	2.403888	-0.000284
1023	1.0169e+02	-0.7171	41.719761	0.000770	7.703260	2.609935	-0.000308
1024	1.0179e+02	-0.7524	41.404864	0.000791	7.905977	2.678618	-0.000316
1025	1.0189e+02	-0.7973	41.118227	0.000720	7.196466	2.438229	-0.000288
1026	1.0199e+02	-0.8390	40.839665	0.000699	6.993749	2.369546	-0.000280
1027	1.0209e+02	-0.8775	40.516694	0.000811	8.108694	2.747300	-0.000325
1028	1.0219e+02	-0.9224	40.250243	0.000669	6.689673	2.266523	-0.000268
1029	1.0229e+02	-0.9738	39.927272	0.000811	8.108694	2.747300	-0.000325
1030	1.0239e+02	-0.9914	39.616413	0.000780	7.804618	2.644276	-0.000312
1031	1.0248e+02	-1.0460	39.281331	0.000841	8.412771	2.850324	-0.000337
1032	1.0258e+02	-1.0748	38.994694	0.000720	7.196466	2.438229	-0.000288
1033	1.0268e+02	-1.1117	38.699983	0.000740	7.399184	2.506911	-0.000296
1034	1.0278e+02	-1.1486	38.360864	0.000851	8.514129	2.884665	-0.000341
1035	1.0288e+02	-1.2032	38.054041	0.000770	7.703260	2.609935	-0.000308
1036	1.0298e+02	-1.2449	37.759331	0.000740	7.399184	2.506911	-0.000296
1037	1.0308e+02	-1.2770	37.444434	0.000791	7.905977	2.678618	-0.000316
1038	1.0318e+02	-1.3155	37.157797	0.000720	7.196466	2.438229	-0.000288
1039	1.0328e+02	-1.3668	36.826752	0.000831	8.311412	2.815983	-0.000333
1040	1.0338e+02	-1.3909	36.536078	0.000730	7.297825	2.472570	-0.000292
1041	1.0348e+02	-1.4374	36.233293	0.000760	7.601901	2.575594	-0.000304
1042	1.0358e+02	-1.4759	35.886100	0.000872	8.716847	2.953348	-0.000349
1043	1.0368e+02	-1.5224	35.587352	0.000750	7.500542	2.541253	-0.000300
1044	1.0378e+02	-1.5481	35.276492	0.000780	7.804618	2.644276	-0.000312
1045	1.0388e+02	-1.5994	34.981781	0.000740	7.399184	2.506911	-0.000296
1046	1.0398e+02	-1.6347	34.687070	0.000740	7.399184	2.506911	-0.000296
1047	1.0408e+02	-1.6796	34.343914	0.000862	8.615488	2.919006	-0.000345
1048	1.0418e+02	-1.7197	34.045166	0.000750	7.500542	2.541253	-0.000300
1049	1.0428e+02	-1.7486	33.738343	0.000770	7.703260	2.609935	-0.000308
1050	1.0438e+02	-1.7919	33.443632	0.000740	7.399184	2.506911	-0.000296
1051	1.0447e+02	-1.8320	33.120662	0.000811	8.108694	2.747300	-0.000325
1052	1.0457e+02	-1.8721	32.805765	0.000791	7.905977	2.678618	-0.000316
1053	1.0467e+02	-1.9187	32.502980	0.000760	7.601901	2.575594	-0.000304
1054	1.0477e+02	-1.9572	32.232492	0.000679	6.791032	2.300864	-0.000272
1055	1.0487e+02	-2.0037	31.917595	0.000791	7.905977	2.678618	-0.000316
1056	1.0497e+02	-2.0422	31.610773	0.000770	7.703260	2.609935	-0.000308
1057	1.0507e+02	-2.0823	31.299913	0.000780	7.804618	2.644276	-0.000312
1058	1.0517e+02	-2.1144	31.013277	0.000720	7.196466	2.438229	-0.000288
1059	1.0527e+02	-2.1577	30.722603	0.000730	7.297825	2.472570	-0.000292
1060	1.0537e+02	-2.1866	30.403669	0.000801	8.007336	2.712959	-0.000321
1061	1.0547e+02	-2.2379	30.141255	0.000659	6.588314	2.232181	-0.000264
1062	1.0557e+02	-2.2716	29.785987	0.000892	8.919564	3.022030	-0.000357
1063	1.0567e+02	-2.3069	29.519537	0.000669	6.689673	2.266523	-0.000268
1064	1.0577e+02	-2.3550	29.196566	0.000811	8.108694	2.747300	-0.000325
1065	1.0587e+02	-2.4015	28.893780	0.000760	7.601901	2.575594	-0.000304
1066	1.0597e+02	-2.4304	28.627330	0.000669	6.689673	2.266523	-0.000268
1067	1.0607e+02	-2.4737	28.332619	0.000740	7.399184	2.506911	-0.000296
1068	1.0617e+02	-2.5202	28.041945	0.000730	7.297825	2.472570	-0.000292
1069	1.0627e+02	-2.5459	27.735123	0.000770	7.703260	2.609935	-0.000308
1070	1.0637e+02	-2.5924	27.472709	0.000659	6.588314	2.232181	-0.000264
1071	1.0647e+02	-2.6325	27.157812	0.000791	7.905977	2.678618	-0.000316
1072	1.0656e+02	-2.6710	26.867138	0.000730	7.297825	2.472570	-0.000292
1073	1.0666e+02	-2.7128	26.592613	0.000689	6.892390	2.335205	-0.000276
1074	1.0676e+02	-2.7481	26.281754	0.000780	7.804618	2.644276	-0.000312
1075	1.0686e+02	-2.7994	25.983006	0.000750	7.500542	2.541253	-0.000300
1076	1.0696e+02	-2.8234	25.692332	0.000730	7.297825	2.472570	-0.000292
1077	1.0706e+02	-2.8620	25.389547	0.000760	7.601901	2.575594	-0.000304
1078	1.0716e+02	-2.9133	25.119059	0.000679	6.791032	2.300864	-0.000272
1079	1.0726e+02	-2.9518	24.808199	0.000780	7.804618	2.644276	-0.000312
1080	1.0736e+02	-2.9903	24.549822	0.000649	6.486956	2.197840	-0.000260
1081	1.0746e+02	-3.0352	24.214740	0.000841	8.412771	2.850324	-0.000337
1082	1.0756e+02	-3.0689	23.952326	0.000659	6.588314	2.232181	-0.000264
1083	1.0766e+02	-3.1138	23.657615	0.000740	7.399184	2.506911	-0.000296
1084	1.0776e+02	-3.1587	23.375016	0.000710	7.095108	2.403888	-0.000284
1085	1.0786e+02	-3.1892	23.112602	0.000659	6.588314	2.232181	-0.000264
1086	1.0796e+02	-3.2373	22.821928	0.000730	7.297825	2.472570	-0.000292
1087	1.0806e+02	-3.2678	22.551440	0.000679	6.791032	2.300864	-0.000272
1088	1.0816e+02	-3.3111	22.200209	0.000882	8.818205	2.987689	-0.000353
1089	1.0826e+02	-3.3561	21.949907	0.000628	6.284238	2.129158	-0.000252
1090	1.0836e+02	-3.3833	21.687493	0.000659	6.588314	2.232181	-0.000264
1091	1.0845e+02	-3.4347	21.388745	0.000750	7.500542	2.541253	-0.000300
1092	1.0855e+02	-3.4667	21.098071	0.000730	7.297825	2.472570	-0.000292
1093	1.0865e+02	-3.5117	20.827583	0.000679	6.791032	2.300864	-0.000272
1094	1.0875e+02	-3.5502	20.573244	0.000639	6.385597	2.163499	-0.000256
1095	1.0885e+02	-3.5903	20.298718	0.000689	6.892390	2.335205	-0.000276
1096	1.0895e+02	-3.6224	19.979785	0.000801	8.007336	2.712959	-0.000321
1097	1.0905e+02	-3.6577	19.697185	0.000710	7.095108	2.403888	-0.000284
1098	1.0915e+02	-3.7170	19.418623	0.000699	6.993749	2.369546	-0.000280
1099	1.0925e+02	-3.7459	19.188506	0.000578	5.777445	1.957451	-0.000231
1100	1.0935e+02	-3.7812	18.885721	0.000760	7.601901	2.575594	-0.000304
1101	1.0945e+02	-3.8325	18.603121	0.000710	7.095108	2.403888	-0.000284
1102	1.0955e+02	-3.8630	18.356856	0.000618	6.182880	2.094816	-0.000248
1103	1.0965e+02	-3.9127	18.041960	0.000791	7.905977	2.678618	-0.000316
1104	1.0975e+02	-3.9464	17.775509	0.000669	6.689673	2.266523	-0.000268
1105	1.0985e+02	-3.9897	17.517132	0.000649	6.486956	2.197840	-0.000260
1106	1.0995e+02	-4.0234	17.238570	0.000699	6.993749	2.369546	-0.000280
1107	1.1005e+02	-4.0699	16.939822	0.000750	7.500542	2.541253	-0.000300
1108	1.1015e+02	-4.1036	16.661259	0.000699	6.993749	2.369546	-0.000280
1109	1.1025e+02	-4.1469	16.414994	0.000618	6.182880	2.094816	-0.000248
1110	1.1035e+02	-4.1967	16.136432	0.000699	6.993749	2.369546	-0.000280
1111	1.1044e+02	-4.2336	15.890166	0.000618	6.182880	2.094816	-0.000248
1112	1.1054e+02	-4.2721	15.664087	0.000568	5.676086	1.923110	-0.000227
1113	1.1064e+02	-4.3090	15.353227	0.000780	7.804618	2.644276	-0.000312
1114	1.1074e+02	-4.3507	15.046405	0.000770	7.703260	2.609935	-0.000308
1115	1.1084e+02	-4.3844	14.844548	0.000507	5.067934	1.717063	-0.000203
1116	1.1094e+02	-4.4213	14.610394	0.000588	5.878804	1.991793	-0.000235
1117	1.1104e+02	-4.4662	14.368166	0.000608	6.081521	2.060475	-0.000243
1118	1.1114e+02	-4.5111	14.202644	0.000416	4.155706	1.407991	-0.000166
1119	1.1124e+02	-4.5512	14.029047	0.000436	4.358423	1.476674	-0.000174
1120	1.1134e+02	-4.5897	13.831227	0.000497	4.966575	1.682721	-0.000199
1121	1.1144e+02	-4.6218	13.568813	0.000659	6.588314	2.232181	-0.000264
1122	1.1154e+02	-4.6683	13.253917	0.000791	7.905977	2.678618	-0.000316
1123	1.1164e+02	-4.7036	12.874426	0.000953	9.527716	3.228078	-0.000381
1124	1.1174e+02	-4.7357	12.563566	0.000780	7.804618	2.644276	-0.000312
1125	1.1184e+02	-4.7822	12.268856	0.000740	7.399184	2.506911	-0.000296
1126	1.1194e+02	-4.8191	12.014516	0.000639	6.385597	2.163499	-0.000256
1127	1.1204e+02	-4.8656	11.808622	0.000517	5.169293	1.751404	-0.000207
1128	1.1214e+02	-4.9073	11.594654	0.000537	5.372010	1.820086	-0.000215
1129	1.1224e+02	-4.9491	11.376649	0.000547	5.473369	1.854428	-0.000219
1130	1.1234e+02	-4.9924	11.142495	0.000588	5.878804	1.991793	-0.000235
1131	1.1244e+02	-5.0229	11.033492	0.000274	2.736684	0.927214	-0.000110
1132	1.1253e+02	-5.0565	10.847784	0.000466	4.662499	1.579698	-0.000187
1133	1.1263e+02	-5.1031	10.577296	0.000679	6.791032	2.300864	-0.000272
1134	1.1273e+02	-5.1432	10.169545	0.001024	10.237227	3.468466	-0.000410
1135	1.1283e+02	-5.1865	9.935391	0.000588	5.878804	1.991793	-0.000235
1136	1.1293e+02	-5.2138	9.628569	0.000770	7.703260	2.609935	-0.000308
1137	1.1303e+02	-5.2683	9.228892	0.001003	10.034509	3.399784	-0.000402
1138	1.1313e+02	-5.3020	8.938219	0.000730	7.297825	2.472570	-0.000292
1139	1.1323e+02	-5.3389	8.615248	0.000811	8.108694	2.747300	-0.000325
1140	1.1333e+02	-5.3838	8.409354	0.000517	5.169293	1.751404	-0.000207
1141	1.1343e+02	-5.4207	8.207497	0.000507	5.067934	1.717063	-0.000203
1142	1.1353e+02	-5.4640	7.945083	0.000659	6.588314	2.232181	-0.000264
1143	1.1363e+02	-5.4897	7.751301	0.000487	4.865217	1.648380	-0.000195
1144	1.1373e+02	-5.5426	7.476775	0.000689	6.892390	2.335205	-0.000276
1145	1.1383e+02	-5.5843	7.145730	0.000831	8.311412	2.815983	-0.000333
1146	1.1393e+02	-5.6148	6.875242	0.000679	6.791032	2.300864	-0.000272
1147	1.1403e+02	-5.6597	6.544197	0.000831	8.311412	2.815983	-0.000333
1148	1.1413e+02	-5.6966	6.350415	0.000487	4.865217	1.648380	-0.000195
1149	1.1423e+02	-5.7367	6.067815	0.000710	7.095108	2.403888	-0.000284
1150	1.1433e+02	-5.7752	5.785216	0.000710	7.095108	2.403888	-0.000284
1151	1.1442e+02	-5.8137	5.542987	0.000608	6.081521	2.060475	-0.000243
1152	1.1452e+02	-5.8603	5.280574	0.000659	6.588314	2.232181	-0.000264
1153	1.1462e+02	-5.9020	5.030271	0.000628	6.284238	2.129158	-0.000252
1154	1.1472e+02	-5.9357	4.775932	0.000639	6.385597	2.163499	-0.000256
1155	1.1482e+02	-5.9790	4.529666	0.000618	6.182880	2.094816	-0.000248
1156	1.1492e+02	-6.0159	4.259178	0.000679	6.791032	2.300864	-0.000272
1157	1.1502e+02	-6.0624	4.004839	0.000639	6.385597	2.163499	-0.000256
1158	1.1512e+02	-6.1009	3.762611	0.000608	6.081521	2.060475	-0.000243
1159	1.1522e+02	-6.1330	3.524419	0.000598	5.980162	2.026134	-0.000239
1160	1.1532e+02	-6.1859	3.290266	0.000588	5.878804	1.991793	-0.000235
1161	1.1542e+02	-6.2244	3.068223	0.000557	5.574727	1.888769	-0.000223
1162	1.1552e+02	-6.2581	2.850218	0.000547	5.473369	1.854428	-0.000219
1163	1.1562e+02	-6.2950	2.563581	0.000720	7.196466	2.438229	-0.000288
1164	1.1572e+02	-6.3351	2.385947	0.000446	4.459782	1.511015	-0.000179
1165	1.1582e+02	-6.3865	2.151793	0.000588	5.878804	1.991793	-0.000235
1166	1.1592e+02	-6.4153	1.881305	0.000679	6.791032	2.300864	-0.000272
1167	1.1602e+02	-6.4490	1.590631	0.000730	7.297825	2.472570	-0.000292
1168	1.1612e+02	-6.4955	1.328218	0.000659	6.588314	2.232181	-0.000264
1169	1.1622e+02	-6.5308	1.077915	0.000628	6.284238	2.129158	-0.000252
1170	1.1632e+02	-6.5693	0.811464	0.000669	6.689673	2.266523	-0.000268
1171	1.1642e+02	-6.6207	0.625756	0.000466	4.662499	1.579698	-0.000187
1172	1.1651e+02	-6.6544	0.444085	0.000456	4.561141	1.545356	-0.000183
1173	1.1661e+02	-6.6864	0.189745	0.000639	6.385597	2.163499	-0.000256
1174	1.1671e+02	-6.7346	-0.028260	0.000547	5.473369	1.854428	-0.000219
1175	1.1681e+02	-6.7747	-0.193783	0.000416	4.155706	1.407991	-0.000166
1176	1.1691e+02	-6.8148	-0.379491	0.000466	4.662499	1.579698	-0.000187
1177	1.1701e+02	-6.8404	-0.524828	0.000365	3.648913	1.236285	-0.000146
1178	1.1711e+02	-6.9062	-0.867984	0.000862	8.615488	2.919006	-0.000345
1179	1.1721e+02	-6.9303	-1.271698	0.001014	10.135868	3.434125	-0.000406
1180	1.1731e+02	-6.9768	-1.530074	0.000649	6.486956	2.197840	-0.000260
1181	1.1741e+02	-7.0217	-1.784414	0.000639	6.385597	2.163499	-0.000256
1182	1.1751e+02	-7.0586	-2.018568	0.000588	5.878804	1.991793	-0.000235
1183	1.1761e+02	-7.0971	-2.285019	0.000669	6.689673	2.266523	-0.000268
1184	1.1771e+02	-7.1260	-2.482838	0.000497	4.966575	1.682721	-0.000199
1185	1.1781e+02	-7.1838	-2.737178	0.000639	6.385597	2.163499	-0.000256
1186	1.1791e+02	-7.2094	-2.995555	0.000649	6.486956	2.197840	-0.000260
1187	1.1801e+02	-7.2559	-3.217597	0.000557	5.574727	1.888769	-0.000223
1188	1.1811e+02	-7.2944	-3.451751	0.000588	5.878804	1.991793	-0.000235
1189	1.1821e+02	-7.3297	-3.685905	0.000588	5.878804	1.991793	-0.000235
1190	1.1831e+02	-7.3602	-3.924096	0.000598	5.980162	2.026134	-0.000239
1191	1.1841e+02	-7.4148	-4.174398	0.000628	6.284238	2.129158	-0.000252
1192	1.1850e+02	-7.4549	-4.376255	0.000507	5.067934	1.717063	-0.000203
1193	1.1860e+02	-7.4982	-4.590223	0.000537	5.372010	1.820086	-0.000215
1194	1.1870e+02	-7.5335	-4.852637	0.000659	6.588314	2.232181	-0.000264
1195	1.1880e+02	-7.5752	-5.094865	0.000608	6.081521	2.060475	-0.000243
1196	1.1890e+02	-7.6169	-5.312871	0.000547	5.473369	1.854428	-0.000219
1197	1.1900e+02	-7.6522	-5.547025	0.000588	5.878804	1.991793	-0.000235
1198	1.1910e+02	-7.6875	-5.793290	0.000618	6.182880	2.094816	-0.000248
1199	1.1920e+02	-7.7324	-6.035518	0.000608	6.081521	2.060475	-0.000243
1200	1.1930e+02	-7.7741	-6.237375	0.000507	5.067934	1.717063	-0.000203
1201	1.1940e+02	-7.8094	-6.507863	0.000679	6.791032	2.300864	-0.000272
1202	1.1950e+02	-7.8431	-6.681460	0.000436	4.358423	1.476674	-0.000174
1203	1.1960e+02	-7.8960	-6.935799	0.000639	6.385597	2.163499	-0.000256
1204	1.1970e+02	-7.9410	-7.161879	0.000568	5.676086	1.923110	-0.000227
1205	1.1980e+02	-7.9666	-7.404107	0.000608	6.081521	2.060475	-0.000243
1206	1.1990e+02	-8.0147	-7.634224	0.000578	5.777445	1.957451	-0.000231
1207	1.2000e+02	-8.0484	-7.856266	0.000557	5.574727	1.888769	-0.000223
1208	1.2010e+02	-8.0950	-8.058123	0.000507	5.067934	1.717063	-0.000203
1209	1.2020e+02	-8.1270	-8.316500	0.000649	6.486956	2.197840	-0.000260
1210	1.2030e+02	-8.1623	-8.514319	0.000497	4.966575	1.682721	-0.000199
1211	1.2039e+02	-8.2185	-8.756547	0.000608	6.081521	2.060475	-0.000243
1212	1.2049e+02	-8.2393	-8.962441	0.000517	5.169293	1.751404	-0.000207
1213	1.2059e+02	-8.2939	-9.212744	0.000628	6.284238	2.129158	-0.000252
1214	1.2069e+02	-8.3276	-9.434786	0.000557	5.574727	1.888769	-0.000223
1215	1.2079e+02	-8.3709	-9.648754	0.000537	5.372010	1.820086	-0.000215
1216	1.2089e+02	-8.4046	-9.890983	0.000608	6.081521	2.060475	-0.000243
1217	1.2099e+02	-8.4431	-10.092839	0.000507	5.067934	1.717063	-0.000203
1218	1.2109e+02	-8.4896	-10.302770	0.000527	5.270651	1.785745	-0.000211
1219	1.2119e+02	-8.5249	-10.524813	0.000557	5.574727	1.888769	-0.000223
1220	1.2129e+02	-8.5538	-10.783190	0.000649	6.486956	2.197840	-0.000260
1221	1.2139e+02	-8.6099	-10.993121	0.000527	5.270651	1.785745	-0.000211
1222	1.2149e+02	-8.6468	-11.194977	0.000507	5.067934	1.717063	-0.000203
1223	1.2159e+02	-8.6853	-11.417020	0.000557	5.574727	1.888769	-0.000223
1224	1.2169e+02	-8.7270	-11.687508	0.000679	6.791032	2.300864	-0.000272
1225	1.2179e+02	-8.7671	-11.840919	0.000385	3.851630	1.304968	-0.000154
1226	1.2189e+02	-8.7976	-12.091222	0.000628	6.284238	2.129158	-0.000252
1227	1.2199e+02	-8.8457	-12.297115	0.000517	5.169293	1.751404	-0.000207
1228	1.2209e+02	-8.8923	-12.531269	0.000588	5.878804	1.991793	-0.000235
1229	1.2219e+02	-8.9260	-12.745238	0.000537	5.372010	1.820086	-0.000215
1230	1.2229e+02	-8.9661	-12.971317	0.000568	5.676086	1.923110	-0.000227
1231	1.2239e+02	-8.9885	-13.181248	0.000527	5.270651	1.785745	-0.000211
1232	1.2248e+02	-9.0399	-13.391179	0.000527	5.270651	1.785745	-0.000211
1233	1.2258e+02	-9.0864	-13.584962	0.000487	4.865217	1.648380	-0.000195
1234	1.2268e+02	-9.1249	-13.827190	0.000608	6.081521	2.060475	-0.000243
1235	1.2278e+02	-9.1682	-14.057307	0.000578	5.777445	1.957451	-0.000231
1236	1.2288e+02	-9.2099	-14.222829	0.000416	4.155706	1.407991	-0.000166
1237	1.2298e+02	-9.2452	-14.473132	0.000628	6.284238	2.129158	-0.000252
1238	1.2308e+02	-9.2869	-14.699211	0.000568	5.676086	1.923110	-0.000227
1239	1.2318e+02	-9.3334	-14.917217	0.000547	5.473369	1.854428	-0.000219
1240	1.2328e+02	-9.3623	-15.094851	0.000446	4.459782	1.511015	-0.000179
1241	1.2338e+02	-9.3928	-15.304782	0.000527	5.270651	1.785745	-0.000211
1242	1.2348e+02	-9.4361	-15.563158	0.000649	6.486956	2.197840	-0.000260
1243	1.2358e+02	-9.4874	-15.801349	0.000598	5.980162	2.026134	-0.000239
1244	1.2368e+02	-9.5227	-15.946686	0.000365	3.648913	1.236285	-0.000146
1245	1.2378e+02	-9.5660	-16.192951	0.000618	6.182880	2.094816	-0.000248
1246	1.2388e+02	-9.6094	-16.350400	0.000395	3.952989	1.339309	-0.000158
1247	1.2398e+02	-9.6430	-16.596665	0.000618	6.182880	2.094816	-0.000248
1248	1.2408e+02	-9.6783	-16.802559	0.000517	5.169293	1.751404	-0.000207
1249	1.2418e+02	-9.7217	-17.020564	0.000547	5.473369	1.854428	-0.000219
1250	1.2428e+02	-9.7666	-17.250681	0.000578	5.777445	1.957451	-0.000231
1251	1.2438e+02	-9.7970	-17.440426	0.000476	4.763858	1.614039	-0.000191
1252	1.2447e+02	-9.8372	-17.666506	0.000568	5.676086	1.923110	-0.000227
1253	1.2457e+02	-9.8837	-17.892586	0.000568	5.676086	1.923110	-0.000227
1254	1.2467e+02	-9.9254	-18.078294	0.000466	4.662499	1.579698	-0.000187
1255	1.2477e+02	-9.9703	-18.308411	0.000578	5.777445	1.957451	-0.000231
1256	1.2487e+02	-10.0024	-18.482007	0.000436	4.358423	1.476674	-0.000174
1257	1.2497e+02	-10.0345	-18.687901	0.000517	5.169293	1.751404	-0.000207
1258	1.2507e+02	-10.0826	-18.950315	0.000659	6.588314	2.232181	-0.000264
1259	1.2517e+02	-10.1211	-19.119875	0.000426	4.257065	1.442333	-0.000170
1260	1.2527e+02	-10.1532	-19.333843	0.000537	5.372010	1.820086	-0.000215
1261	1.2537e+02	-10.2077	-19.559923	0.000568	5.676086	1.923110	-0.000227
1262	1.2547e+02	-10.2494	-19.709297	0.000375	3.750271	1.270626	-0.000150
1263	1.2557e+02	-10.2879	-19.951525	0.000608	6.081521	2.060475	-0.000243
1264	1.2567e+02	-10.3152	-20.173567	0.000557	5.574727	1.888769	-0.000223
1265	1.2577e+02	-10.3553	-20.363313	0.000476	4.763858	1.614039	-0.000191
1266	1.2587e+02	-10.4083	-20.553058	0.000476	4.763858	1.614039	-0.000191
1267	1.2597e+02	-10.4291	-20.791249	0.000598	5.980162	2.026134	-0.000239
1268	1.2607e+02	-10.4885	-21.009254	0.000547	5.473369	1.854428	-0.000219
1269	1.2617e+02	-10.5238	-21.219185	0.000527	5.270651	1.785745	-0.000211
1270	1.2627e+02	-10.5623	-21.425079	0.000517	5.169293	1.751404	-0.000207
1271	1.2636e+02	-10.6040	-21.606750	0.000456	4.561141	1.545356	-0.000183
1272	1.2646e+02	-10.6329	-21.812644	0.000517	5.169293	1.751404	-0.000207
1273	1.2656e+02	-10.6874	-22.030650	0.000547	5.473369	1.854428	-0.000219
1274	1.2666e+02	-10.7163	-22.224432	0.000487	4.865217	1.648380	-0.000195
1275	1.2676e+02	-10.7612	-22.430326	0.000517	5.169293	1.751404	-0.000207
1276	1.2686e+02	-10.7933	-22.640257	0.000527	5.270651	1.785745	-0.000211
1277	1.2696e+02	-10.8382	-22.801743	0.000405	4.054347	1.373650	-0.000162
1278	1.2706e+02	-10.8671	-23.019748	0.000547	5.473369	1.854428	-0.000219
1279	1.2716e+02	-10.9120	-23.189308	0.000426	4.257065	1.442333	-0.000170
1280	1.2726e+02	-10.9681	-23.403276	0.000537	5.372010	1.820086	-0.000215
1281	1.2736e+02	-10.9938	-23.617244	0.000537	5.372010	1.820086	-0.000215
1282	1.2746e+02	-11.0387	-23.859472	0.000608	6.081521	2.060475	-0.000243
1283	1.2756e+02	-11.0788	-24.053255	0.000487	4.865217	1.648380	-0.000195
1284	1.2766e+02	-11.1157	-24.243000	0.000476	4.763858	1.614039	-0.000191
1285	1.2776e+02	-11.1639	-24.465043	0.000557	5.574727	1.888769	-0.000223
1286	1.2786e+02	-11.1959	-24.634602	0.000426	4.257065	1.442333	-0.000170
1287	1.2796e+02	-11.2409	-24.828385	0.000487	4.865217	1.648380	-0.000195
1288	1.2806e+02	-11.2778	-25.038316	0.000527	5.270651	1.785745	-0.000211
1289	1.2816e+02	-11.3259	-25.240173	0.000507	5.067934	1.717063	-0.000203
1290	1.2826e+02	-11.3580	-25.462215	0.000557	5.574727	1.888769	-0.000223
1291	1.2835e+02	-11.3965	-25.639849	0.000446	4.459782	1.511015	-0.000179
1292	1.2845e+02	-11.4446	-25.817483	0.000446	4.459782	1.511015	-0.000179
1293	1.2855e+02	-11.4735	-26.047600	0.000578	5.777445	1.957451	-0.000231
1294	1.2865e+02	-11.5200	-26.257531	0.000527	5.270651	1.785745	-0.000211
1295	1.2875e+02	-11.5537	-26.459388	0.000507	5.067934	1.717063	-0.000203
1296	1.2885e+02	-11.5922	-26.616836	0.000395	3.952989	1.339309	-0.000158
1297	1.2895e+02	-11.6355	-26.806581	0.000476	4.763858	1.614039	-0.000191
1298	1.2905e+02	-11.6788	-27.000364	0.000487	4.865217	1.648380	-0.000195
1299	1.2915e+02	-11.7173	-27.222406	0.000557	5.574727	1.888769	-0.000223
1300	1.2925e+02	-11.7574	-27.424263	0.000507	5.067934	1.717063	-0.000203
1301	1.2935e+02	-11.8007	-27.609971	0.000466	4.662499	1.579698	-0.000187
1302	1.2945e+02	-11.8344	-27.832014	0.000557	5.574727	1.888769	-0.000223
1303	1.2955e+02	-11.8761	-28.062131	0.000578	5.777445	1.957451	-0.000231
1304	1.2965e+02	-11.9146	-28.203430	0.000355	3.547554	1.201944	-0.000142
1305	1.2975e+02	-11.9419	-28.389139	0.000466	4.662499	1.579698	-0.000187
1306	1.2985e+02	-11.9948	-28.607144	0.000547	5.473369	1.854428	-0.000219
1307	1.2995e+02	-12.0350	-28.821112	0.000537	5.372010	1.820086	-0.000215
1308	1.3005e+02	-12.0767	-29.014895	0.000487	4.865217	1.648380	-0.000195
1309	1.3015e+02	-12.1184	-29.224826	0.000527	5.270651	1.785745	-0.000211
1310	1.3025e+02	-12.1553	-29.418608	0.000487	4.865217	1.648380	-0.000195
1311	1.3034e+02	-12.1938	-29.632576	0.000537	5.372010	1.820086	-0.000215
1312	1.3044e+02	-12.2339	-29.826359	0.000487	4.865217	1.648380	-0.000195
1313	1.3054e+02	-12.2724	-29.999956	0.000436	4.358423	1.476674	-0.000174
1314	1.3064e+02	-12.3157	-30.209887	0.000527	5.270651	1.785745	-0.000211
1315	1.3074e+02	-12.3494	-30.427892	0.000547	5.473369	1.854428	-0.000219
1316	1.3084e+02	-12.3879	-30.621675	0.000487	4.865217	1.648380	-0.000195
1317	1.3094e+02	-12.4312	-30.867940	0.000618	6.182880	2.094816	-0.000248
1318	1.3104e+02	-12.4697	-31.049611	0.000456	4.561141	1.545356	-0.000183
1319	1.3114e+02	-12.5162	-31.239356	0.000476	4.763858	1.614039	-0.000191
1320	1.3124e+02	-12.5451	-31.453325	0.000537	5.372010	1.820086	-0.000215
1321	1.3134e+02	-12.5788	-31.614810	0.000405	4.054347	1.373650	-0.000162
1322	1.3144e+02	-12.6301	-31.816667	0.000507	5.067934	1.717063	-0.000203
1323	1.3154e+02	-12.6718	-32.062932	0.000618	6.182880	2.094816	-0.000248
1324	1.3164e+02	-12.7151	-32.252677	0.000476	4.763858	1.614039	-0.000191
1325	1.3174e+02	-12.7472	-32.434349	0.000456	4.561141	1.545356	-0.000183
1326	1.3184e+02	-12.7873	-32.668502	0.000588	5.878804	1.991793	-0.000235
1327	1.3194e+02	-12.8435	-32.846136	0.000446	4.459782	1.511015	-0.000179
1328	1.3204e+02	-12.8804	-33.060105	0.000537	5.372010	1.820086	-0.000215
1329	1.3214e+02	-12.9141	-33.265998	0.000517	5.169293	1.751404	-0.000207
1330	1.3224e+02	-12.9526	-33.451707	0.000466	4.662499	1.579698	-0.000187
1331	1.3234e+02	-12.9863	-33.673749	0.000557	5.574727	1.888769	-0.000223
1332	1.3243e+02	-13.0248	-33.851383	0.000446	4.459782	1.511015	-0.000179
1333	1.3253e+02	-13.0633	-34.085537	0.000588	5.878804	1.991793	-0.000235
1334	1.3263e+02	-13.1018	-34.279320	0.000487	4.865217	1.648380	-0.000195
1335	1.3273e+02	-13.1371	-34.477139	0.000497	4.966575	1.682721	-0.000199
1336	1.3283e+02	-13.1836	-34.687070	0.000527	5.270651	1.785745	-0.000211
1337	1.3293e+02	-13.2237	-34.876816	0.000476	4.763858	1.614039	-0.000191
1338	1.3303e+02	-13.2654	-35.090784	0.000537	5.372010	1.820086	-0.000215
1339	1.3313e+02	-13.3103	-35.296678	0.000517	5.169293	1.751404	-0.000207
1340	1.3323e+02	-13.3440	-35.494497	0.000497	4.966575	1.682721	-0.000199
1341	1.3333e+02	-13.3873	-35.696354	0.000507	5.067934	1.717063	-0.000203
1342	1.3343e+02	-13.4290	-35.958768	0.000659	6.588314	2.232181	-0.000264
1343	1.3353e+02	-13.4691	-36.116216	0.000395	3.952989	1.339309	-0.000158
1344	1.3363e+02	-13.4980	-36.289813	0.000436	4.358423	1.476674	-0.000174
1345	1.3373e+02	-13.5413	-36.532041	0.000608	6.081521	2.060475	-0.000243
1346	1.3383e+02	-13.5927	-36.725824	0.000487	4.865217	1.648380	-0.000195
1347	1.3393e+02	-13.6376	-36.927681	0.000507	5.067934	1.717063	-0.000203
1348	1.3403e+02	-13.6745	-37.145686	0.000547	5.473369	1.854428	-0.000219
1349	1.3413e+02	-13.7066	-37.375803	0.000578	5.777445	1.957451	-0.000231
1350	1.3423e+02	-13.7419	-37.537288	0.000405	4.054347	1.373650	-0.000162
1351	1.3432e+02	-13.7900	-37.763368	0.000568	5.676086	1.923110	-0.000227
1352	1.3442e+02	-13.8269	-37.981373	0.000547	5.473369	1.854428	-0.000219
1353	1.3452e+02	-13.8718	-38.219564	0.000598	5.980162	2.026134	-0.000239
1354	1.3462e+02	-13.9151	-38.405272	0.000466	4.662499	1.579698	-0.000187
1355	1.3472e+02	-13.9584	-38.647500	0.000608	6.081521	2.060475	-0.000243
1356	1.3482e+02	-13.9841	-38.804949	0.000395	3.952989	1.339309	-0.000158
1357	1.3492e+02	-14.0258	-39.043140	0.000598	5.980162	2.026134	-0.000239
1358	1.3502e+02	-14.0675	-39.236922	0.000487	4.865217	1.648380	-0.000195
1359	1.3512e+02	-14.0916	-39.507410	0.000679	6.791032	2.300864	-0.000272
1360	1.3522e+02	-14.1381	-39.644673	0.000345	3.446195	1.167603	-0.000138
1361	1.3532e+02	-14.1878	-39.903050	0.000649	6.486956	2.197840	-0.000260
1362	1.3542e+02	-14.2231	-40.117018	0.000537	5.372010	1.820086	-0.000215
1363	1.3552e+02	-14.2680	-40.290615	0.000436	4.358423	1.476674	-0.000174
1364	1.3562e+02	-14.3098	-40.553028	0.000659	6.588314	2.232181	-0.000264
1365	1.3572e+02	-14.3434	-40.758922	0.000517	5.169293	1.751404	-0.000207
1366	1.3582e+02	-14.3819	-40.960779	0.000507	5.067934	1.717063	-0.000203
1367	1.3592e+02	-14.4301	-41.194933	0.000588	5.878804	1.991793	-0.000235
1368	1.3602e+02	-14.4702	-41.412938	0.000547	5.473369	1.854428	-0.000219
1369	1.3612e+02	-14.4958	-41.687464	0.000689	6.892390	2.335205	-0.000276
1370	1.3622e+02	-14.5488	-41.832801	0.000365	3.648913	1.236285	-0.000146
1371	1.3631e+02	-14.5857	-42.083103	0.000628	6.284238	2.129158	-0.000252
1372	1.3641e+02	-14.6242	-42.293034	0.000527	5.270651	1.785745	-0.000211
1373	1.3651e+02	-14.6643	-42.551411	0.000649	6.486956	2.197840	-0.000260
1374	1.3661e+02	-14.6916	-42.745193	0.000487	4.865217	1.648380	-0.000195
1375	1.3671e+02	-14.7333	-42.959161	0.000537	5.372010	1.820086	-0.000215
1376	1.3681e+02	-14.7942	-43.229649	0.000679	6.791032	2.300864	-0.000272
1377	1.3691e+02	-14.8327	-43.419395	0.000476	4.763858	1.614039	-0.000191
1378	1.3701e+02	-14.8648	-43.681809	0.000659	6.588314	2.232181	-0.000264
1379	1.3711e+02	-14.9081	-43.891740	0.000527	5.270651	1.785745	-0.000211
1380	1.3721e+02	-14.9482	-44.133968	0.000608	6.081521	2.060475	-0.000243
1381	1.3731e+02	-14.9835	-44.323713	0.000476	4.763858	1.614039	-0.000191
1382	1.3741e+02	-15.0204	-44.606313	0.000710	7.095108	2.403888	-0.000284
1383	1.3751e+02	-15.0621	-44.868727	0.000659	6.588314	2.232181	-0.000264
1384	1.3761e+02	-15.0958	-45.050398	0.000456	4.561141	1.545356	-0.000183
1385	1.3771e+02	-15.1391	-45.252254	0.000507	5.067934	1.717063	-0.000203
1386	1.3781e+02	-15.1921	-45.510631	0.000649	6.486956	2.197840	-0.000260
1387	1.3791e+02	-15.2210	-45.752859	0.000608	6.081521	2.060475	-0.000243
1388	1.3801e+02	-15.2643	-46.035459	0.000710	7.095108	2.403888	-0.000284
1389	1.3811e+02	-15.3108	-46.241353	0.000517	5.169293	1.751404	-0.000207
1390	1.3821e+02	-15.3365	-46.527989	0.000720	7.196466	2.438229	-0.000288
1391	1.3831e+02	-15.3830	-46.729846	0.000507	5.067934	1.717063	-0.000203
1392	1.3840e+02	-15.4183	-47.016483	0.000720	7.196466	2.438229	-0.000288
1393	1.3850e+02	-15.4584	-47.226414	0.000527	5.270651	1.785745	-0.000211
1394	1.3860e+02	-15.4905	-47.452493	0.000568	5.676086	1.923110	-0.000227
1395	1.3870e+02	-15.5434	-47.698759	0.000618	6.182880	2.094816	-0.000248
1396	1.3880e+02	-15.5739	-47.997507	0.000750	7.500542	2.541253	-0.000300
1397	1.3890e+02	-15.6236	-48.231661	0.000588	5.878804	1.991793	-0.000235
1398	1.3900e+02	-15.6605	-48.473889	0.000608	6.081521	2.060475	-0.000243
1399	1.3910e+02	-15.7086	-48.679783	0.000517	5.169293	1.751404	-0.000207
1400	1.3920e+02	-15.7375	-48.982568	0.000760	7.601901	2.575594	-0.000304
1401	1.3930e+02	-15.7744	-49.253056	0.000679	6.791032	2.300864	-0.000272
1402	1.3940e+02	-15.8193	-49.495284	0.000608	6.081521	2.060475	-0.000243
1403	1.3950e+02	-15.8627	-49.737512	0.000608	6.081521	2.060475	-0.000243
1404	1.3960e+02	-15.8979	-50.016075	0.000699	6.993749	2.369546	-0.000280
1405	1.3970e+02	-15.9397	-50.286563	0.000679	6.791032	2.300864	-0.000272
1406	1.3980e+02	-15.9701	-50.520717	0.000588	5.878804	1.991793	-0.000235
1407	1.3990e+02	-16.0118	-50.815428	0.000740	7.399184	2.506911	-0.000296
1408	1.4000e+02	-16.0584	-51.057656	0.000608	6.081521	2.060475	-0.000243
1409	1.4010e+02	-16.0969	-51.307958	0.000628	6.284238	2.129158	-0.000252
1410	1.4020e+02	-16.1418	-51.606706	0.000750	7.500542	2.541253	-0.000300
1411	1.4029e+02	-16.1739	-51.852971	0.000618	6.182880	2.094816	-0.000248
1412	1.4039e+02	-16.2140	-52.139608	0.000720	7.196466	2.438229	-0.000288
1413	1.4049e+02	-16.2589	-52.426245	0.000720	7.196466	2.438229	-0.000288
1414	1.4059e+02	-16.2974	-52.676547	0.000628	6.284238	2.129158	-0.000252
1415	1.4069e+02	-16.3375	-52.955109	0.000699	6.993749	2.369546	-0.000280
1416	1.4079e+02	-16.3760	-53.225598	0.000679	6.791032	2.300864	-0.000272
1417	1.4089e+02	-16.4129	-53.564717	0.000851	8.514129	2.884665	-0.000341
1418	1.4099e+02	-16.4546	-53.802908	0.000598	5.980162	2.026134	-0.000239
1419	1.4109e+02	-16.4931	-54.117805	0.000791	7.905977	2.678618	-0.000316
1420	1.4119e+02	-16.5316	-54.360033	0.000608	6.081521	2.060475	-0.000243
1421	1.4129e+02	-16.5781	-54.678966	0.000801	8.007336	2.712959	-0.000321
1422	1.4139e+02	-16.6086	-54.965603	0.000720	7.196466	2.438229	-0.000288
1423	1.4149e+02	-16.6551	-55.264351	0.000750	7.500542	2.541253	-0.000300
1424	1.4159e+02	-16.7017	-55.591359	0.000821	8.210053	2.781641	-0.000329
1425	1.4169e+02	-16.7321	-55.865884	0.000689	6.892390	2.335205	-0.000276
1426	1.4179e+02	-16.7723	-56.164632	0.000750	7.500542	2.541253	-0.000300
1427	1.4189e+02	-16.8220	-56.487603	0.000811	8.108694	2.747300	-0.000325
1428	1.4199e+02	-16.8477	-56.798463	0.000780	7.804618	2.644276	-0.000312
1429	1.4209e+02	-16.8926	-57.109322	0.000780	7.804618	2.644276	-0.000312
1430	1.4219e+02	-16.9343	-57.404033	0.000740	7.399184	2.506911	-0.000296
1431	1.4228e+02	-16.9744	-57.731041	0.000821	8.210053	2.781641	-0.000329
1432	1.4238e+02	-17.0129	-58.045938	0.000791	7.905977	2.678618	-0.000316
1433	1.4248e+02	-17.0562	-58.348723	0.000760	7.601901	2.575594	-0.000304
1434	1.4258e+02	-17.0947	-58.683805	0.000841	8.412771	2.850324	-0.000337
1435	1.4268e+02	-17.1348	-58.970442	0.000720	7.196466	2.438229	-0.000288
1436	1.4278e+02	-17.1781	-59.370118	0.001003	10.034509	3.399784	-0.000402
1437	1.4288e+02	-17.2246	-59.680978	0.000780	7.804618	2.644276	-0.000312
1438	1.4298e+02	-17.2567	-59.995874	0.000791	7.905977	2.678618	-0.000316
1439	1.4308e+02	-17.2888	-60.339031	0.000862	8.615488	2.919006	-0.000345
1440	1.4318e+02	-17.3353	-60.649890	0.000780	7.804618	2.644276	-0.000312
1441	1.4328e+02	-17.3819	-61.013232	0.000912	9.122281	3.090713	-0.000365
1442	1.4338e+02	-17.4091	-61.372537	0.000902	9.020923	3.056371	-0.000361
1443	1.4348e+02	-17.4557	-61.731843	0.000902	9.020923	3.056371	-0.000361
1444	1.4358e+02	-17.4926	-62.054813	0.000811	8.108694	2.747300	-0.000325
1445	1.4368e+02	-17.5343	-62.490824	0.001095	10.946738	3.708855	-0.000438
1446	1.4378e+02	-17.5792	-62.793609	0.000760	7.601901	2.575594	-0.000304
1447	1.4388e+02	-17.6209	-63.140803	0.000872	8.716847	2.953348	-0.000349
1448	1.4398e+02	-17.6482	-63.496071	0.000892	8.919564	3.022030	-0.000357
1449	1.4408e+02	-17.6979	-63.851339	0.000892	8.919564	3.022030	-0.000357
1450	1.4418e+02	-17.7300	-64.238904	0.000973	9.730433	3.296760	-0.000390
1451	1.4428e+02	-17.7781	-64.602246	0.000912	9.122281	3.090713	-0.000365
1452	1.4437e+02	-17.8134	-64.985774	0.000963	9.629075	3.262419	-0.000385
1453	1.4447e+02	-17.8375	-65.357190	0.000932	9.324999	3.159395	-0.000373
1454	1.4457e+02	-17.8920	-65.748793	0.000983	9.831792	3.331101	-0.000394
1455	1.4467e+02	-17.9401	-66.124246	0.000943	9.426357	3.193736	-0.000377
1456	1.4477e+02	-17.9690	-66.527960	0.001014	10.135868	3.434125	-0.000406
1457	1.4487e+02	-18.0203	-66.903413	0.000943	9.426357	3.193736	-0.000377
1458	1.4497e+02	-18.0540	-67.323276	0.001054	10.541303	3.571490	-0.000422
1459	1.4507e+02	-18.0861	-67.682581	0.000902	9.020923	3.056371	-0.000361
1460	1.4517e+02	-18.1262	-68.090331	0.001024	10.237227	3.468466	-0.000410
1461	1.4527e+02	-18.1776	-68.506156	0.001044	10.439944	3.537149	-0.000418
1462	1.4537e+02	-18.2080	-68.921981	0.001044	10.439944	3.537149	-0.000418
1463	1.4547e+02	-18.2433	-69.325695	0.001014	10.135868	3.434125	-0.000406
1464	1.4557e+02	-18.2931	-69.785928	0.001155	11.554890	3.914903	-0.000463
1465	1.4567e+02	-18.3316	-70.189642	0.001014	10.135868	3.434125	-0.000406
1466	1.4577e+02	-18.3717	-70.609504	0.001054	10.541303	3.571490	-0.000422
1467	1.4587e+02	-18.4134	-71.045515	0.001095	10.946738	3.708855	-0.000438
1468	1.4597e+02	-18.4471	-71.465377	0.001054	10.541303	3.571490	-0.000422
1469	1.4607e+02	-18.4840	-71.881202	0.001044	10.439944	3.537149	-0.000418
1470	1.4617e+02	-18.5305	-72.349510	0.001176	11.757607	3.983585	-0.000471
1471	1.4626e+02	-18.5610	-72.825892	0.001196	11.960324	4.052268	-0.000479
1472	1.4636e+02	-18.6043	-73.241717	0.001044	10.439944	3.537149	-0.000418
1473	1.4646e+02	-18.6412	-73.714061	0.001186	11.858966	4.017926	-0.000475
1474	1.4656e+02	-18.6845	-74.158146	0.001115	11.149455	3.777538	-0.000446
1475	1.4666e+02	-18.7310	-74.630491	0.001186	11.858966	4.017926	-0.000475
1476	1.4676e+02	-18.7695	-75.090725	0.001155	11.554890	3.914903	-0.000463
1477	1.4686e+02	-18.8032	-75.571144	0.001206	12.061683	4.086609	-0.000483
1478	1.4696e+02	-18.8481	-76.047526	0.001196	11.960324	4.052268	-0.000479
1479	1.4706e+02	-18.8866	-76.531982	0.001216	12.163042	4.120950	-0.000487
1480	1.4716e+02	-18.9299	-77.020476	0.001226	12.264400	4.155291	-0.000491
1481	1.4726e+02	-18.9668	-77.496858	0.001196	11.960324	4.052268	-0.000479
1482	1.4736e+02	-19.0102	-77.981314	0.001216	12.163042	4.120950	-0.000487
1483	1.4746e+02	-19.0471	-78.481919	0.001257	12.568476	4.258315	-0.000503
1484	1.4756e+02	-19.0856	-78.974449	0.001237	12.365759	4.189633	-0.000495
1485	1.4766e+02	-19.1273	-79.458906	0.001216	12.163042	4.120950	-0.000487
1486	1.4776e+02	-19.1658	-79.987770	0.001328	13.277987	4.498704	-0.000532
1487	1.4786e+02	-19.2091	-80.573155	0.001470	14.697009	4.979481	-0.000588
1488	1.4796e+02	-19.2524	-81.013203	0.001105	11.048096	3.743196	-0.000442
1489	1.4806e+02	-19.2700	-81.574365	0.001409	14.088857	4.773434	-0.000564
1490	1.4816e+02	-19.3294	-82.095155	0.001308	13.075270	4.430021	-0.000523
1491	1.4825e+02	-19.3711	-82.587686	0.001237	12.365759	4.189633	-0.000495
1492	1.4835e+02	-19.4000	-83.160959	0.001439	14.392933	4.876458	-0.000576
1493	1.4845e+02	-19.4465	-83.677712	0.001297	12.973911	4.395680	-0.000519
1494	1.4855e+02	-19.4770	-84.295394	0.001551	15.507878	5.254211	-0.000621
1495	1.4865e+02	-19.5219	-84.840408	0.001368	13.683422	4.636069	-0.000548
1496	1.4875e+02	-19.5620	-85.385421	0.001368	13.683422	4.636069	-0.000548
1497	1.4885e+02	-19.6101	-85.910249	0.001318	13.176629	4.464363	-0.000527
1498	1.4895e+02	-19.6358	-86.443150	0.001338	13.379346	4.533045	-0.000536
1499	1.4905e+02	-19.6759	-87.044684	0.001510	15.102443	5.116846	-0.000605
1500	1.4915e+02	-19.7080	-87.593734	0.001378	13.784781	4.670410	-0.000552
1501	1.4925e+02	-19.7674	-88.223527	0.001581	15.811954	5.357235	-0.000633
1502	1.4935e+02	-19.8075	-88.829098	0.001520	15.203802	5.151188	-0.000609
1503	1.4945e+02	-19.8395	-89.414482	0.001470	14.697009	4.979481	-0.000588
1504	1.4955e+02	-19.8797	-90.040238	0.001571	15.710596	5.322894	-0.000629
1505	1.4965e+02	-19.9278	-90.678106	0.001601	16.014672	5.425918	-0.000641
1506	1.4975e+02	-19.9583	-91.315973	0.001601	16.014672	5.425918	-0.000641
1507	1.4985e+02	-20.0016	-91.917506	0.001510	15.102443	5.116846	-0.000605
1508	1.4995e+02	-19.9663	-92.276812	-0.000902	-9.020923	-3.056371	-0.000361
1509	1.5005e+02	-19.9182	-92.660339	-0.000963	-9.629075	-3.262419	-0.000385
1510	1.5015e+02	-19.8877	-93.031756	-0.000932	-9.324999	-3.159395	-0.000373
1511	1.5025e+02	-19.8363	-93.378950	-0.000872	-8.716847	-2.953348	-0.000349
1512	1.5034e+02	-19.8043	-93.669623	-0.000730	-7.297825	-2.472570	-0.000292
1513	1.5044e+02	-19.7706	-93.968371	-0.000750	-7.500542	-2.541253	-0.000300
1514	1.5054e+02	-19.7176	-94.263082	-0.000740	-7.399184	-2.506911	-0.000296
1515	1.5064e+02	-19.6855	-94.477051	-0.000537	-5.372010	-1.820086	-0.000215
1516	1.5074e+02	-19.6390	-94.804059	-0.000821	-8.210053	-2.781641	-0.000329
1517	1.5084e+02	-19.6214	-94.997841	-0.000487	-4.865217	-1.648380	-0.000195
1518	1.5094e+02	-19.5636	-95.231995	-0.000588	-5.878804	-1.991793	-0.000235
1519	1.5104e+02	-19.5267	-95.405592	-0.000436	-4.358423	-1.476674	-0.000174
1520	1.5114e+02	-19.4834	-95.611486	-0.000517	-5.169293	-1.751404	-0.000207
1521	1.5124e+02	-19.4481	-95.793157	-0.000456	-4.561141	-1.545356	-0.000183
1522	1.5134e+02	-19.4064	-95.966754	-0.000436	-4.358423	-1.476674	-0.000174
1523	1.5144e+02	-19.3679	-96.144388	-0.000446	-4.459782	-1.511015	-0.000179
1524	1.5154e+02	-19.3342	-96.301836	-0.000395	-3.952989	-1.339309	-0.000158
1525	1.5164e+02	-19.2813	-96.455247	-0.000385	-3.851630	-1.304968	-0.000154
1526	1.5174e+02	-19.2380	-96.535990	-0.000203	-2.027174	-0.686825	-0.000081
1527	1.5184e+02	-19.2075	-96.705549	-0.000426	-4.257065	-1.442333	-0.000170
1528	1.5194e+02	-19.1674	-96.830701	-0.000314	-3.142119	-1.064579	-0.000126
1529	1.5204e+02	-19.1385	-96.943740	-0.000284	-2.838043	-0.961555	-0.000114
1530	1.5214e+02	-19.1032	-97.056780	-0.000284	-2.838043	-0.961555	-0.000114
1531	1.5224e+02	-19.0519	-97.194043	-0.000345	-3.446195	-1.167603	-0.000138
1532	1.5233e+02	-19.0070	-97.319194	-0.000314	-3.142119	-1.064579	-0.000126
1533	1.5243e+02	-18.9717	-97.375714	-0.000142	-1.419022	-0.480778	-0.000057
1534	1.5253e+02	-18.9316	-97.504902	-0.000324	-3.243478	-1.098920	-0.000130
1535	1.5263e+02	-18.8834	-97.529125	-0.000061	-0.608152	-0.206048	-0.000024
1536	1.5273e+02	-18.8562	-97.617942	-0.000223	-2.229891	-0.755508	-0.000089
1537	1.5283e+02	-18.8064	-97.714833	-0.000243	-2.432608	-0.824190	-0.000097
1538	1.5293e+02	-18.7695	-97.779428	-0.000162	-1.621739	-0.549460	-0.000065
1539	1.5303e+02	-18.7230	-97.835947	-0.000142	-1.419022	-0.480778	-0.000057
1540	1.5313e+02	-18.6877	-97.892467	-0.000142	-1.419022	-0.480778	-0.000057
1541	1.5323e+02	-18.6508	-97.940913	-0.000122	-1.216304	-0.412095	-0.000049
1542	1.5333e+02	-18.6139	-97.977247	-0.000091	-0.912228	-0.309071	-0.000037
1543	1.5343e+02	-18.5770	-98.013581	-0.000091	-0.912228	-0.309071	-0.000037
1544	1.5353e+02	-18.5273	-98.086250	-0.000182	-1.824456	-0.618143	-0.000073
1545	1.5363e+02	-18.4936	-98.098361	-0.000030	-0.304076	-0.103024	-0.000012
1546	1.5373e+02	-18.4471	-98.118547	-0.000051	-0.506793	-0.171706	-0.000020
1547	1.5383e+02	-18.4118	-98.142770	-0.000061	-0.608152	-0.206048	-0.000024
1548	1.5393e+02	-18.3765	-98.146807	-0.000010	-0.101359	-0.034341	-0.000004
1549	1.5403e+02	-18.3316	-98.158918	-0.000030	-0.304076	-0.103024	-0.000012
1550	1.5413e+02	-18.2899	-98.179104	-0.000051	-0.506793	-0.171706	-0.000020
1551	1.5422e+02	-18.2417	-98.183141	-0.000010	-0.101359	-0.034341	-0.000004
1552	1.5432e+02	-18.2193	-98.239661	-0.000142	-1.419022	-0.480778	-0.000057
1553	1.5442e+02	-18.1727	-98.215438	0.000061	0.608152	0.206048	0.000024
1554	1.5452e+02	-18.1359	-98.179104	0.000091	0.912228	0.309071	0.000037
1555	1.5462e+02	-18.0877	-98.187178	-0.000020	-0.202717	-0.068683	-0.000008
1556	1.5472e+02	-18.0540	-98.191215	-0.000010	-0.101359	-0.034341	-0.000004
1557	1.5482e+02	-18.0075	-98.154881	0.000091	0.912228	0.309071	0.000037
1558	1.5492e+02	-17.9674	-98.154881	0.000000	0.000000	0.000000	0.000000
1559	1.5502e+02	-17.9241	-98.154881	0.000000	0.000000	0.000000	0.000000
1560	1.5512e+02	-17.8840	-98.142770	0.000030	0.304076	0.103024	0.000012
1561	1.5522e+02	-17.8599	-98.118547	0.000061	0.608152	0.206048	0.000024
1562	1.5532e+02	-17.8118	-98.086250	0.000081	0.810869	0.274730	0.000032
1563	1.5542e+02	-17.7765	-98.062027	0.000061	0.608152	0.206048	0.000024
1564	1.5552e+02	-17.7332	-98.001470	0.000152	1.520380	0.515119	0.000061
1565	1.5562e+02	-17.7075	-97.957062	0.000111	1.114945	0.377754	0.000045
1566	1.5572e+02	-17.6546	-97.948987	0.000020	0.202717	0.068683	0.000008
1567	1.5582e+02	-17.6193	-97.896505	0.000132	1.317663	0.446436	0.000053
1568	1.5592e+02	-17.5808	-97.896505	0.000000	0.000000	0.000000	0.000000
1569	1.5602e+02	-17.5359	-97.823836	0.000182	1.824456	0.618143	0.000073
1570	1.5612e+02	-17.5006	-97.767316	0.000142	1.419022	0.480778	0.000057
1571	1.5622e+02	-17.4460	-97.735019	0.000081	0.810869	0.274730	0.000032
1572	1.5631e+02	-17.4075	-97.678499	0.000142	1.419022	0.480778	0.000057
1573	1.5641e+02	-17.3738	-97.613905	0.000162	1.621739	0.549460	0.000065
1574	1.5651e+02	-17.3353	-97.577571	0.000091	0.912228	0.309071	0.000037
1575	1.5661e+02	-17.2904	-97.545274	0.000081	0.810869	0.274730	0.000032
1576	1.5671e+02	-17.2535	-97.440308	0.000264	2.635326	0.892873	0.000105
1577	1.5681e+02	-17.2102	-97.387825	0.000132	1.317663	0.446436	0.000053
1578	1.5691e+02	-17.1733	-97.323231	0.000162	1.621739	0.549460	0.000065
1579	1.5701e+02	-17.1300	-97.266711	0.000142	1.419022	0.480778	0.000057
1580	1.5711e+02	-17.0947	-97.198080	0.000172	1.723098	0.583801	0.000069
1581	1.5721e+02	-17.0466	-97.157709	0.000101	1.013587	0.343413	0.000041
1582	1.5731e+02	-17.0161	-97.048706	0.000274	2.736684	0.927214	0.000110
1583	1.5741e+02	-16.9728	-96.992186	0.000142	1.419022	0.480778	0.000057
1584	1.5751e+02	-16.9343	-96.935666	0.000142	1.419022	0.480778	0.000057
1585	1.5761e+02	-16.9070	-96.879146	0.000142	1.419022	0.480778	0.000057
1586	1.5771e+02	-16.8509	-96.798404	0.000203	2.027174	0.686825	0.000081
1587	1.5781e+02	-16.8172	-96.685364	0.000284	2.838043	0.961555	0.000114
1588	1.5791e+02	-16.7787	-96.628844	0.000142	1.419022	0.480778	0.000057
1589	1.5801e+02	-16.7450	-96.568287	0.000152	1.520380	0.515119	0.000061
1590	1.5811e+02	-16.6872	-96.495618	0.000182	1.824456	0.618143	0.000073
1591	1.5821e+02	-16.6487	-96.402764	0.000233	2.331250	0.789849	0.000093
1592	1.5830e+02	-16.6166	-96.334133	0.000172	1.723098	0.583801	0.000069
1593	1.5840e+02	-16.5814	-96.253390	0.000203	2.027174	0.686825	0.000081
1594	1.5850e+02	-16.5316	-96.200908	0.000132	1.317663	0.446436	0.000053
1595	1.5860e+02	-16.4995	-96.075756	0.000314	3.142119	1.064579	0.000126
1596	1.5870e+02	-16.4610	-96.011162	0.000162	1.621739	0.549460	0.000065
1597	1.5880e+02	-16.4193	-95.902159	0.000274	2.736684	0.927214	0.000110
1598	1.5890e+02	-16.3760	-95.837565	0.000162	1.621739	0.549460	0.000065
1599	1.5900e+02	-16.3423	-95.744711	0.000233	2.331250	0.789849	0.000093
1600	1.5910e+02	-16.3038	-95.607449	0.000345	3.446195	1.167603	0.000138
1601	1.5920e+02	-16.2493	-95.542854	0.000162	1.621739	0.549460	0.000065
1602	1.5930e+02	-16.2108	-95.441926	0.000253	2.533967	0.858531	0.000101
1603	1.5940e+02	-16.1755	-95.353109	0.000223	2.229891	0.755508	0.000089
1604	1.5950e+02	-16.1418	-95.272366	0.000203	2.027174	0.686825	0.000081
1605	1.5960e+02	-16.1065	-95.171438	0.000253	2.533967	0.858531	0.000101
1606	1.5970e+02	-16.0568	-95.090695	0.000203	2.027174	0.686825	0.000081
1607	1.5980e+02	-16.0247	-94.985730	0.000264	2.635326	0.892873	0.000105
1608	1.5990e+02	-15.9782	-94.876727	0.000274	2.736684	0.927214	0.000110
1609	1.6000e+02	-15.9413	-94.787910	0.000223	2.229891	0.755508	0.000089
1610	1.6010e+02	-15.9044	-94.666796	0.000304	3.040760	1.030238	0.000122
1611	1.6019e+02	-15.8691	-94.606239	0.000152	1.520380	0.515119	0.000061
1612	1.6029e+02	-15.8242	-94.481088	0.000314	3.142119	1.064579	0.000126
1613	1.6039e+02	-15.7808	-94.376122	0.000264	2.635326	0.892873	0.000105
1614	1.6049e+02	-15.7423	-94.271157	0.000264	2.635326	0.892873	0.000105
1615	1.6059e+02	-15.7103	-94.178302	0.000233	2.331250	0.789849	0.000093
1616	1.6069e+02	-15.6589	-94.053151	0.000314	3.142119	1.064579	0.000126
1617	1.6079e+02	-15.6220	-93.976446	0.000193	1.925815	0.652484	0.000077
1618	1.6089e+02	-15.5819	-93.847257	0.000324	3.243478	1.098920	0.000130
1619	1.6099e+02	-15.5482	-93.766515	0.000203	2.027174	0.686825	0.000081
1620	1.6109e+02	-15.5001	-93.621178	0.000365	3.648913	1.236285	0.000146
1621	1.6119e+02	-15.4520	-93.516212	0.000264	2.635326	0.892873	0.000105
1622	1.6129e+02	-15.4231	-93.411247	0.000264	2.635326	0.892873	0.000105
1623	1.6139e+02	-15.3814	-93.322430	0.000223	2.229891	0.755508	0.000089
1624	1.6149e+02	-15.3365	-93.189204	0.000334	3.344836	1.133261	0.000134
1625	1.6159e+02	-15.3044	-93.092313	0.000243	2.432608	0.824190	0.000097
1626	1.6169e+02	-15.2595	-92.942939	0.000375	3.750271	1.270626	0.000150
1627	1.6179e+02	-15.2194	-92.874308	0.000172	1.723098	0.583801	0.000069
1628	1.6189e+02	-15.1857	-92.724934	0.000375	3.750271	1.270626	0.000150
1629	1.6199e+02	-15.1407	-92.615931	0.000274	2.736684	0.927214	0.000110
1630	1.6209e+02	-15.1006	-92.531151	0.000213	2.128532	0.721166	0.000085
1631	1.6219e+02	-15.0589	-92.406000	0.000314	3.142119	1.064579	0.000126
1632	1.6228e+02	-15.0333	-92.317183	0.000223	2.229891	0.755508	0.000089
1633	1.6238e+02	-14.9883	-92.179920	0.000345	3.446195	1.167603	0.000138
1634	1.6248e+02	-14.9434	-92.042658	0.000345	3.446195	1.167603	0.000138
1635	1.6258e+02	-14.9001	-91.905395	0.000345	3.446195	1.167603	0.000138
1636	1.6268e+02	-14.8664	-91.832727	0.000182	1.824456	0.618143	0.000073
1637	1.6278e+02	-14.8183	-91.675278	0.000395	3.952989	1.339309	0.000158
1638	1.6288e+02	-14.7862	-91.594536	0.000203	2.027174	0.686825	0.000081
1639	1.6298e+02	-14.7349	-91.469384	0.000314	3.142119	1.064579	0.000126
1640	1.6308e+02	-14.7076	-91.368456	0.000253	2.533967	0.858531	0.000101
1641	1.6318e+02	-14.6611	-91.235231	0.000334	3.344836	1.133261	0.000134
1642	1.6328e+02	-14.6146	-91.097968	0.000345	3.446195	1.167603	0.000138
1643	1.6338e+02	-14.5825	-90.997040	0.000253	2.533967	0.858531	0.000101
1644	1.6348e+02	-14.5456	-90.867851	0.000324	3.243478	1.098920	0.000130
1645	1.6358e+02	-14.5023	-90.718477	0.000375	3.750271	1.270626	0.000150
1646	1.6368e+02	-14.4654	-90.637734	0.000203	2.027174	0.686825	0.000081
1647	1.6378e+02	-14.4188	-90.496435	0.000355	3.547554	1.201944	0.000142
1648	1.6388e+02	-14.3916	-90.399543	0.000243	2.432608	0.824190	0.000097
1649	1.6398e+02	-14.3434	-90.282467	0.000294	2.939402	0.995896	0.000118
1650	1.6408e+02	-14.3146	-90.137130	0.000365	3.648913	1.236285	0.000146
1651	1.6418e+02	-14.2761	-90.024090	0.000284	2.838043	0.961555	0.000114
1652	1.6427e+02	-14.2215	-89.919124	0.000264	2.635326	0.892873	0.000105
1653	1.6437e+02	-14.1750	-89.769750	0.000375	3.750271	1.270626	0.000150
1654	1.6447e+02	-14.1381	-89.648636	0.000304	3.040760	1.030238	0.000122
1655	1.6457e+02	-14.1060	-89.507336	0.000355	3.547554	1.201944	0.000142
1656	1.6467e+02	-14.0643	-89.378148	0.000324	3.243478	1.098920	0.000130
1657	1.6477e+02	-14.0226	-89.301443	0.000193	1.925815	0.652484	0.000077
1658	1.6487e+02	-13.9905	-89.152069	0.000375	3.750271	1.270626	0.000150
1659	1.6497e+02	-13.9472	-89.018843	0.000334	3.344836	1.133261	0.000134
1660	1.6507e+02	-13.9007	-88.901766	0.000294	2.939402	0.995896	0.000118
1661	1.6517e+02	-13.8670	-88.760466	0.000355	3.547554	1.201944	0.000142
1662	1.6527e+02	-13.8237	-88.643389	0.000294	2.939402	0.995896	0.000118
1663	1.6537e+02	-13.7884	-88.473830	0.000426	4.257065	1.442333	0.000170
1664	1.6547e+02	-13.7467	-88.368864	0.000264	2.635326	0.892873	0.000105
1665	1.6557e+02	-13.7098	-88.251787	0.000294	2.939402	0.995896	0.000118
1666	1.6567e+02	-13.6584	-88.142785	0.000274	2.736684	0.927214	0.000110
1667	1.6577e+02	-13.6215	-87.993411	0.000375	3.750271	1.270626	0.000150
1668	1.6587e+02	-13.5943	-87.872296	0.000304	3.040760	1.030238	0.000122
1669	1.6597e+02	-13.5477	-87.722922	0.000375	3.750271	1.270626	0.000150
1670	1.6607e+02	-13.5141	-87.589697	0.000334	3.344836	1.133261	0.000134
1671	1.6616e+02	-13.4740	-87.529140	0.000152	1.520380	0.515119	0.000061
1672	1.6626e+02	-13.4354	-87.331320	0.000497	4.966575	1.682721	0.000199
1673	1.6636e+02	-13.3857	-87.222318	0.000274	2.736684	0.927214	0.000110
1674	1.6646e+02	-13.3456	-87.036609	0.000466	4.662499	1.579698	0.000187
1675	1.6656e+02	-13.3039	-86.947792	0.000223	2.229891	0.755508	0.000089
1676	1.6666e+02	-13.2686	-86.802456	0.000365	3.648913	1.236285	0.000146
1677	1.6676e+02	-13.2333	-86.669230	0.000334	3.344836	1.133261	0.000134
1678	1.6686e+02	-13.1804	-86.540042	0.000324	3.243478	1.098920	0.000130
1679	1.6696e+02	-13.1595	-86.402779	0.000345	3.446195	1.167603	0.000138
1680	1.6706e+02	-13.1114	-86.269554	0.000334	3.344836	1.133261	0.000134
1681	1.6716e+02	-13.0713	-86.120180	0.000375	3.750271	1.270626	0.000150
1682	1.6726e+02	-13.0232	-85.999065	0.000304	3.040760	1.030238	0.000122
1683	1.6736e+02	-12.9895	-85.845654	0.000385	3.851630	1.304968	0.000154
1684	1.6746e+02	-12.9494	-85.704355	0.000355	3.547554	1.201944	0.000142
1685	1.6756e+02	-12.9125	-85.538832	0.000416	4.155706	1.407991	0.000166
1686	1.6766e+02	-12.8708	-85.409644	0.000324	3.243478	1.098920	0.000130
1687	1.6776e+02	-12.8290	-85.341012	0.000172	1.723098	0.583801	0.000069
1688	1.6786e+02	-12.7970	-85.183564	0.000395	3.952989	1.339309	0.000158
1689	1.6796e+02	-12.7585	-85.018042	0.000416	4.155706	1.407991	0.000166
1690	1.6806e+02	-12.7168	-84.884816	0.000334	3.344836	1.133261	0.000134
1691	1.6816e+02	-12.6766	-84.755628	0.000324	3.243478	1.098920	0.000130
1692	1.6825e+02	-12.6221	-84.565882	0.000476	4.763858	1.614039	0.000191
1693	1.6835e+02	-12.5932	-84.468991	0.000243	2.432608	0.824190	0.000097
1694	1.6845e+02	-12.5515	-84.299431	0.000426	4.257065	1.442333	0.000170
1695	1.6855e+02	-12.5114	-84.182354	0.000294	2.939402	0.995896	0.000118
1696	1.6865e+02	-12.4713	-84.045092	0.000345	3.446195	1.167603	0.000138
1697	1.6875e+02	-12.4376	-83.928015	0.000294	2.939402	0.995896	0.000118
1698	1.6885e+02	-12.3911	-83.762492	0.000416	4.155706	1.407991	0.000166
1699	1.6895e+02	-12.3446	-83.637341	0.000314	3.142119	1.064579	0.000126
1700	1.6905e+02	-12.3173	-83.496041	0.000355	3.547554	1.201944	0.000142
1701	1.6915e+02	-12.2708	-83.350704	0.000365	3.648913	1.236285	0.000146
1702	1.6925e+02	-12.2355	-83.241702	0.000274	2.736684	0.927214	0.000110
1703	1.6935e+02	-12.1890	-83.039845	0.000507	5.067934	1.717063	0.000203
1704	1.6945e+02	-12.1521	-82.910657	0.000324	3.243478	1.098920	0.000130
1705	1.6955e+02	-12.1136	-82.773394	0.000345	3.446195	1.167603	0.000138
1706	1.6965e+02	-12.0735	-82.591723	0.000456	4.561141	1.545356	0.000183
1707	1.6975e+02	-12.0446	-82.486757	0.000264	2.635326	0.892873	0.000105
1708	1.6985e+02	-11.9916	-82.349495	0.000345	3.446195	1.167603	0.000138
1709	1.6995e+02	-11.9596	-82.159749	0.000476	4.763858	1.614039	0.000191
1710	1.7005e+02	-11.9178	-82.046710	0.000284	2.838043	0.961555	0.000114
1711	1.7015e+02	-11.8809	-81.909447	0.000345	3.446195	1.167603	0.000138
1712	1.7024e+02	-11.8392	-81.768147	0.000355	3.547554	1.201944	0.000142
1713	1.7034e+02	-11.7895	-81.602625	0.000416	4.155706	1.407991	0.000166
1714	1.7044e+02	-11.7574	-81.473436	0.000324	3.243478	1.098920	0.000130
1715	1.7054e+02	-11.7237	-81.328099	0.000365	3.648913	1.236285	0.000146
1716	1.7064e+02	-11.6788	-81.166614	0.000405	4.054347	1.373650	0.000162
1717	1.7074e+02	-11.6323	-81.045500	0.000304	3.040760	1.030238	0.000122
1718	1.7084e+02	-11.6002	-80.888052	0.000395	3.952989	1.339309	0.000158
1719	1.7094e+02	-11.5553	-80.754826	0.000334	3.344836	1.133261	0.000134
1720	1.7104e+02	-11.5200	-80.589304	0.000416	4.155706	1.407991	0.000166
1721	1.7114e+02	-11.4735	-80.448004	0.000355	3.547554	1.201944	0.000142
1722	1.7124e+02	-11.4430	-80.286518	0.000405	4.054347	1.373650	0.000162
1723	1.7134e+02	-11.4013	-80.129070	0.000395	3.952989	1.339309	0.000158
1724	1.7144e+02	-11.3660	-79.955473	0.000436	4.358423	1.476674	0.000174
1725	1.7154e+02	-11.3179	-79.842433	0.000284	2.838043	0.961555	0.000114
1726	1.7164e+02	-11.2762	-79.652688	0.000476	4.763858	1.614039	0.000191
1727	1.7174e+02	-11.2328	-79.511388	0.000355	3.547554	1.201944	0.000142
1728	1.7184e+02	-11.2040	-79.406423	0.000264	2.635326	0.892873	0.000105
1729	1.7194e+02	-11.1590	-79.212640	0.000487	4.865217	1.648380	0.000195
1730	1.7204e+02	-11.1061	-79.051155	0.000405	4.054347	1.373650	0.000162
1731	1.7213e+02	-11.0836	-78.917929	0.000334	3.344836	1.133261	0.000134
1732	1.7223e+02	-11.0451	-78.736258	0.000456	4.561141	1.545356	0.000183
1733	1.7233e+02	-10.9906	-78.607070	0.000324	3.243478	1.098920	0.000130
1734	1.7243e+02	-10.9585	-78.461733	0.000365	3.648913	1.236285	0.000146
1735	1.7253e+02	-10.9136	-78.267951	0.000487	4.865217	1.648380	0.000195
1736	1.7263e+02	-10.8703	-78.146836	0.000304	3.040760	1.030238	0.000122
1737	1.7273e+02	-10.8350	-78.009574	0.000345	3.446195	1.167603	0.000138
1738	1.7283e+02	-10.8077	-77.815791	0.000487	4.865217	1.648380	0.000195
1739	1.7293e+02	-10.7532	-77.646232	0.000426	4.257065	1.442333	0.000170
1740	1.7303e+02	-10.7131	-77.521080	0.000314	3.142119	1.064579	0.000126
1741	1.7313e+02	-10.6794	-77.355558	0.000416	4.155706	1.407991	0.000166
1742	1.7323e+02	-10.6441	-77.206184	0.000375	3.750271	1.270626	0.000150
1743	1.7333e+02	-10.6008	-77.032587	0.000436	4.358423	1.476674	0.000174
1744	1.7343e+02	-10.5542	-76.871102	0.000405	4.054347	1.373650	0.000162
1745	1.7353e+02	-10.5077	-76.721728	0.000375	3.750271	1.270626	0.000150
1746	1.7363e+02	-10.4821	-76.564279	0.000395	3.952989	1.339309	0.000158
1747	1.7373e+02	-10.4420	-76.398757	0.000416	4.155706	1.407991	0.000166
1748	1.7383e+02	-10.3906	-76.269568	0.000324	3.243478	1.098920	0.000130
1749	1.7393e+02	-10.3537	-76.075786	0.000487	4.865217	1.648380	0.000195
1750	1.7403e+02	-10.3297	-75.930449	0.000365	3.648913	1.236285	0.000146
1751	1.7413e+02	-10.2799	-75.740704	0.000476	4.763858	1.614039	0.000191
1752	1.7422e+02	-10.2478	-75.615552	0.000314	3.142119	1.064579	0.000126
1753	1.7432e+02	-10.2077	-75.466178	0.000375	3.750271	1.270626	0.000150
1754	1.7442e+02	-10.1548	-75.292582	0.000436	4.358423	1.476674	0.000174
1755	1.7452e+02	-10.1195	-75.114948	0.000446	4.459782	1.511015	0.000179
1756	1.7462e+02	-10.0890	-74.977685	0.000345	3.446195	1.167603	0.000138
1757	1.7472e+02	-10.0361	-74.800051	0.000446	4.459782	1.511015	0.000179
1758	1.7482e+02	-9.9960	-74.634528	0.000416	4.155706	1.407991	0.000166
1759	1.7492e+02	-9.9591	-74.436709	0.000497	4.966575	1.682721	0.000199
1760	1.7502e+02	-9.9270	-74.287335	0.000375	3.750271	1.270626	0.000150
1761	1.7512e+02	-9.8741	-74.133924	0.000385	3.851630	1.304968	0.000154
1762	1.7522e+02	-9.8484	-73.980512	0.000385	3.851630	1.304968	0.000154
1763	1.7532e+02	-9.8035	-73.835176	0.000365	3.648913	1.236285	0.000146
1764	1.7542e+02	-9.7602	-73.665616	0.000426	4.257065	1.442333	0.000170
1765	1.7552e+02	-9.7233	-73.496056	0.000426	4.257065	1.442333	0.000170
1766	1.7562e+02	-9.6735	-73.366868	0.000324	3.243478	1.098920	0.000130
1767	1.7572e+02	-9.6527	-73.197308	0.000426	4.257065	1.442333	0.000170
1768	1.7582e+02	-9.5997	-72.975266	0.000557	5.574727	1.888769	0.000223
1769	1.7592e+02	-9.5612	-72.898560	0.000193	1.925815	0.652484	0.000077
1770	1.7602e+02	-9.5227	-72.668443	0.000578	5.777445	1.957451	0.000231
1771	1.7612e+02	-9.4874	-72.551366	0.000294	2.939402	0.995896	0.000118
1772	1.7621e+02	-9.4473	-72.321250	0.000578	5.777445	1.957451	0.000231
1773	1.7631e+02	-9.4088	-72.167838	0.000385	3.851630	1.304968	0.000154
1774	1.7641e+02	-9.3607	-71.970019	0.000497	4.966575	1.682721	0.000199
1775	1.7651e+02	-9.3302	-71.856979	0.000284	2.838043	0.961555	0.000114
1776	1.7661e+02	-9.2853	-71.687419	0.000426	4.257065	1.442333	0.000170
1777	1.7671e+02	-9.2500	-71.493637	0.000487	4.865217	1.648380	0.000195
1778	1.7681e+02	-9.2019	-71.336188	0.000395	3.952989	1.339309	0.000158
1779	1.7691e+02	-9.1698	-71.174703	0.000405	4.054347	1.373650	0.000162
1780	1.7701e+02	-9.1329	-71.013218	0.000405	4.054347	1.373650	0.000162
1781	1.7711e+02	-9.0832	-70.847695	0.000416	4.155706	1.407991	0.000166
1782	1.7721e+02	-9.0366	-70.678135	0.000426	4.257065	1.442333	0.000170
1783	1.7731e+02	-9.0126	-70.524724	0.000385	3.851630	1.304968	0.000154
1784	1.7741e+02	-8.9645	-70.343053	0.000456	4.561141	1.545356	0.000183
1785	1.7751e+02	-8.9404	-70.173493	0.000426	4.257065	1.442333	0.000170
1786	1.7761e+02	-8.8858	-69.983748	0.000476	4.763858	1.614039	0.000191
1787	1.7771e+02	-8.8489	-69.818225	0.000416	4.155706	1.407991	0.000166
1788	1.7781e+02	-8.8088	-69.648666	0.000426	4.257065	1.442333	0.000170
1789	1.7791e+02	-8.7655	-69.426623	0.000557	5.574727	1.888769	0.000223
1790	1.7801e+02	-8.7190	-69.281286	0.000365	3.648913	1.236285	0.000146
1791	1.7810e+02	-8.6821	-69.091541	0.000476	4.763858	1.614039	0.000191
1792	1.7820e+02	-8.6452	-68.934093	0.000395	3.952989	1.339309	0.000158
1793	1.7830e+02	-8.6147	-68.764533	0.000426	4.257065	1.442333	0.000170
1794	1.7840e+02	-8.5682	-68.594973	0.000426	4.257065	1.442333	0.000170
1795	1.7850e+02	-8.5265	-68.417339	0.000446	4.459782	1.511015	0.000179
1796	1.7860e+02	-8.4976	-68.239705	0.000446	4.459782	1.511015	0.000179
1797	1.7870e+02	-8.4463	-68.074183	0.000416	4.155706	1.407991	0.000166
1798	1.7880e+02	-8.4062	-67.864252	0.000527	5.270651	1.785745	0.000211
1799	1.7890e+02	-8.3661	-67.690655	0.000436	4.358423	1.476674	0.000174
1800	1.7900e+02	-8.3356	-67.537244	0.000385	3.851630	1.304968	0.000154
1801	1.7910e+02	-8.2971	-67.359610	0.000446	4.459782	1.511015	0.000179
1802	1.7920e+02	-8.2506	-67.181976	0.000446	4.459782	1.511015	0.000179
1803	1.7930e+02	-8.2153	-66.992230	0.000476	4.763858	1.614039	0.000191
1804	1.7940e+02	-8.1832	-66.842856	0.000375	3.750271	1.270626	0.000150
1805	1.7950e+02	-8.1319	-66.657148	0.000466	4.662499	1.579698	0.000187
1806	1.7960e+02	-8.0901	-66.467403	0.000476	4.763858	1.614039	0.000191
1807	1.7970e+02	-8.0516	-66.309954	0.000395	3.952989	1.339309	0.000158
1808	1.7980e+02	-8.0115	-66.104061	0.000517	5.169293	1.751404	0.000207
1809	1.7990e+02	-7.9762	-65.942575	0.000405	4.054347	1.373650	0.000162
1810	1.8000e+02	-7.9281	-65.777053	0.000416	4.155706	1.407991	0.000166
1811	1.8009e+02	-7.8816	-65.611530	0.000416	4.155706	1.407991	0.000166
1812	1.8019e+02	-7.8447	-65.401599	0.000527	5.270651	1.785745	0.000211
1813	1.8029e+02	-7.8110	-65.248188	0.000385	3.851630	1.304968	0.000154
1814	1.8039e+02	-7.7725	-65.054405	0.000487	4.865217	1.648380	0.000195
1815	1.8049e+02	-7.7244	-64.848511	0.000517	5.169293	1.751404	0.000207
1816	1.8059e+02	-7.6939	-64.703174	0.000365	3.648913	1.236285	0.000146
1817	1.8069e+02	-7.6554	-64.497281	0.000517	5.169293	1.751404	0.000207
1818	1.8079e+02	-7.6121	-64.351944	0.000365	3.648913	1.236285	0.000146
1819	1.8089e+02	-7.5720	-64.137975	0.000537	5.372010	1.820086	0.000215
1820	1.8099e+02	-7.5431	-63.960341	0.000446	4.459782	1.511015	0.000179
1821	1.8109e+02	-7.4998	-63.778670	0.000456	4.561141	1.545356	0.000183
1822	1.8119e+02	-7.4565	-63.613148	0.000416	4.155706	1.407991	0.000166
1823	1.8129e+02	-7.4083	-63.451662	0.000405	4.054347	1.373650	0.000162
1824	1.8139e+02	-7.3731	-63.269991	0.000456	4.561141	1.545356	0.000183
1825	1.8149e+02	-7.3394	-63.051986	0.000547	5.473369	1.854428	0.000219
1826	1.8159e+02	-7.2944	-62.866278	0.000466	4.662499	1.579698	0.000187
1827	1.8169e+02	-7.2479	-62.688644	0.000446	4.459782	1.511015	0.000179
1828	1.8179e+02	-7.2158	-62.527158	0.000405	4.054347	1.373650	0.000162
1829	1.8189e+02	-7.1693	-62.321264	0.000517	5.169293	1.751404	0.000207
1830	1.8199e+02	-7.1276	-62.151705	0.000426	4.257065	1.442333	0.000170
1831	1.8209e+02	-7.0875	-61.961959	0.000476	4.763858	1.614039	0.000191
1832	1.8218e+02	-7.0522	-61.776251	0.000466	4.662499	1.579698	0.000187
1833	1.8228e+02	-7.0089	-61.558246	0.000547	5.473369	1.854428	0.000219
1834	1.8238e+02	-6.9704	-61.425020	0.000334	3.344836	1.133261	0.000134
1835	1.8248e+02	-6.9239	-61.239312	0.000466	4.662499	1.579698	0.000187
1836	1.8258e+02	-6.8950	-61.013232	0.000568	5.676086	1.923110	0.000227
1837	1.8268e+02	-6.8565	-60.815413	0.000497	4.966575	1.682721	0.000199
1838	1.8278e+02	-6.8100	-60.629705	0.000466	4.662499	1.579698	0.000187
1839	1.8288e+02	-6.7795	-60.484368	0.000365	3.648913	1.236285	0.000146
1840	1.8298e+02	-6.7346	-60.254251	0.000578	5.777445	1.957451	0.000231
1841	1.8308e+02	-6.6993	-60.044320	0.000527	5.270651	1.785745	0.000211
1842	1.8318e+02	-6.6560	-59.874760	0.000426	4.257065	1.442333	0.000170
1843	1.8328e+02	-6.6110	-59.709238	0.000416	4.155706	1.407991	0.000166
1844	1.8338e+02	-6.5806	-59.471047	0.000598	5.980162	2.026134	0.000239
1845	1.8348e+02	-6.5372	-59.261115	0.000527	5.270651	1.785745	0.000211
1846	1.8358e+02	-6.4955	-59.107704	0.000385	3.851630	1.304968	0.000154
1847	1.8368e+02	-6.4635	-58.877588	0.000578	5.777445	1.957451	0.000231
1848	1.8378e+02	-6.4137	-58.736288	0.000355	3.547554	1.201944	0.000142
1849	1.8388e+02	-6.3865	-58.518283	0.000547	5.473369	1.854428	0.000219
1850	1.8398e+02	-6.3319	-58.336611	0.000456	4.561141	1.545356	0.000183
1851	1.8407e+02	-6.2950	-58.134755	0.000507	5.067934	1.717063	0.000203
1852	1.8417e+02	-6.2565	-57.940972	0.000487	4.865217	1.648380	0.000195
1853	1.8427e+02	-6.2196	-57.751227	0.000476	4.763858	1.614039	0.000191
1854	1.8437e+02	-6.1747	-57.561481	0.000476	4.763858	1.614039	0.000191
1855	1.8447e+02	-6.1426	-57.359625	0.000507	5.067934	1.717063	0.000203
1856	1.8457e+02	-6.0977	-57.149694	0.000527	5.270651	1.785745	0.000211
1857	1.8467e+02	-6.0592	-56.943800	0.000517	5.169293	1.751404	0.000207
1858	1.8477e+02	-6.0191	-56.774240	0.000426	4.257065	1.442333	0.000170
1859	1.8487e+02	-5.9886	-56.576420	0.000497	4.966575	1.682721	0.000199
1860	1.8497e+02	-5.9421	-56.318044	0.000649	6.486956	2.197840	0.000260
1861	1.8507e+02	-5.8972	-56.168670	0.000375	3.750271	1.270626	0.000150
1862	1.8517e+02	-5.8651	-55.942590	0.000568	5.676086	1.923110	0.000227
1863	1.8527e+02	-5.8186	-55.744770	0.000497	4.966575	1.682721	0.000199
1864	1.8537e+02	-5.7833	-55.506579	0.000598	5.980162	2.026134	0.000239
1865	1.8547e+02	-5.7480	-55.332982	0.000436	4.358423	1.476674	0.000174
1866	1.8557e+02	-5.7014	-55.147274	0.000466	4.662499	1.579698	0.000187
1867	1.8567e+02	-5.6694	-54.933306	0.000537	5.372010	1.820086	0.000215
1868	1.8577e+02	-5.6148	-54.711264	0.000557	5.574727	1.888769	0.000223
1869	1.8587e+02	-5.5908	-54.505370	0.000517	5.169293	1.751404	0.000207
1870	1.8597e+02	-5.5394	-54.335810	0.000426	4.257065	1.442333	0.000170
1871	1.8606e+02	-5.5009	-54.101656	0.000588	5.878804	1.991793	0.000235
1872	1.8616e+02	-5.4592	-53.867502	0.000588	5.878804	1.991793	0.000235
1873	1.8626e+02	-5.4175	-53.730240	0.000345	3.446195	1.167603	0.000138
1874	1.8636e+02	-5.3790	-53.471863	0.000649	6.486956	2.197840	0.000260
1875	1.8646e+02	-5.3437	-53.278080	0.000487	4.865217	1.648380	0.000195
1876	1.8656e+02	-5.3052	-53.072186	0.000517	5.169293	1.751404	0.000207
1877	1.8666e+02	-5.2731	-52.878404	0.000487	4.865217	1.648380	0.000195
1878	1.8676e+02	-5.2218	-52.603879	0.000689	6.892390	2.335205	0.000276
1879	1.8686e+02	-5.1720	-52.462579	0.000355	3.547554	1.201944	0.000142
1880	1.8696e+02	-5.1448	-52.220351	0.000608	6.081521	2.060475	0.000243
1881	1.8706e+02	-5.1095	-52.022531	0.000497	4.966575	1.682721	0.000199
1882	1.8716e+02	-5.0614	-51.776266	0.000618	6.182880	2.094816	0.000248
1883	1.8726e+02	-5.0325	-51.550186	0.000568	5.676086	1.923110	0.000227
1884	1.8736e+02	-4.9795	-51.396775	0.000385	3.851630	1.304968	0.000154
1885	1.8746e+02	-4.9491	-51.130324	0.000669	6.689673	2.266523	0.000268
1886	1.8756e+02	-4.9025	-50.936542	0.000487	4.865217	1.648380	0.000195
1887	1.8766e+02	-4.8608	-50.706425	0.000578	5.777445	1.957451	0.000231
1888	1.8776e+02	-4.8223	-50.472271	0.000588	5.878804	1.991793	0.000235
1889	1.8786e+02	-4.7806	-50.262340	0.000527	5.270651	1.785745	0.000211
1890	1.8796e+02	-4.7405	-50.060483	0.000507	5.067934	1.717063	0.000203
1891	1.8806e+02	-4.6956	-49.830366	0.000578	5.777445	1.957451	0.000231
1892	1.8815e+02	-4.6619	-49.624472	0.000517	5.169293	1.751404	0.000207
1893	1.8825e+02	-4.6234	-49.382244	0.000608	6.081521	2.060475	0.000243
1894	1.8835e+02	-4.5833	-49.172313	0.000527	5.270651	1.785745	0.000211
1895	1.8845e+02	-4.5528	-48.966419	0.000517	5.169293	1.751404	0.000207
1896	1.8855e+02	-4.5047	-48.728228	0.000598	5.980162	2.026134	0.000239
1897	1.8865e+02	-4.4630	-48.550594	0.000446	4.459782	1.511015	0.000179
1898	1.8875e+02	-4.4197	-48.304329	0.000618	6.182880	2.094816	0.000248
1899	1.8885e+02	-4.3844	-48.090361	0.000537	5.372010	1.820086	0.000215
1900	1.8895e+02	-4.3282	-47.840058	0.000628	6.284238	2.129158	0.000252
1901	1.8905e+02	-4.3009	-47.593793	0.000618	6.182880	2.094816	0.000248
1902	1.8915e+02	-4.2689	-47.379825	0.000537	5.372010	1.820086	0.000215
1903	1.8925e+02	-4.2352	-47.169894	0.000527	5.270651	1.785745	0.000211
1904	1.8935e+02	-4.1854	-46.903443	0.000669	6.689673	2.266523	0.000268
1905	1.8945e+02	-4.1389	-46.673326	0.000578	5.777445	1.957451	0.000231
1906	1.8955e+02	-4.1052	-46.451284	0.000557	5.574727	1.888769	0.000223
1907	1.8965e+02	-4.0683	-46.221167	0.000578	5.777445	1.957451	0.000231
1908	1.8975e+02	-4.0314	-45.991050	0.000578	5.777445	1.957451	0.000231
1909	1.8985e+02	-3.9897	-45.777082	0.000537	5.372010	1.820086	0.000215
1910	1.8995e+02	-3.9464	-45.522743	0.000639	6.385597	2.163499	0.000256
1911	1.9004e+02	-3.9095	-45.280514	0.000608	6.081521	2.060475	0.000243
1912	1.9014e+02	-3.8614	-45.038286	0.000608	6.081521	2.060475	0.000243
1913	1.9024e+02	-3.8245	-44.800095	0.000598	5.980162	2.026134	0.000239
1914	1.9034e+02	-3.7860	-44.557867	0.000608	6.081521	2.060475	0.000243
1915	1.9044e+02	-3.7491	-44.343899	0.000537	5.372010	1.820086	0.000215
1916	1.9054e+02	-3.7042	-44.093597	0.000628	6.284238	2.129158	0.000252
1917	1.9064e+02	-3.6641	-43.879628	0.000537	5.372010	1.820086	0.000215
1918	1.9074e+02	-3.6304	-43.653549	0.000568	5.676086	1.923110	0.000227
1919	1.9084e+02	-3.5806	-43.403246	0.000628	6.284238	2.129158	0.000252
1920	1.9094e+02	-3.5486	-43.148907	0.000639	6.385597	2.163499	0.000256
1921	1.9104e+02	-3.5085	-42.890530	0.000649	6.486956	2.197840	0.000260
1922	1.9114e+02	-3.4748	-42.672525	0.000547	5.473369	1.854428	0.000219
1923	1.9124e+02	-3.4266	-42.462594	0.000527	5.270651	1.785745	0.000211
1924	1.9134e+02	-3.3849	-42.179994	0.000710	7.095108	2.403888	0.000284
1925	1.9144e+02	-3.3577	-41.941803	0.000598	5.980162	2.026134	0.000239
1926	1.9154e+02	-3.3111	-41.691501	0.000628	6.284238	2.129158	0.000252
1927	1.9164e+02	-3.2646	-41.465421	0.000568	5.676086	1.923110	0.000227
1928	1.9174e+02	-3.2229	-41.259527	0.000517	5.169293	1.751404	0.000207
1929	1.9184e+02	-3.1908	-40.985002	0.000689	6.892390	2.335205	0.000276
1930	1.9194e+02	-3.1459	-40.702403	0.000710	7.095108	2.403888	0.000284
1931	1.9203e+02	-3.1170	-40.472286	0.000578	5.777445	1.957451	0.000231
1932	1.9213e+02	-3.0529	-40.205835	0.000669	6.689673	2.266523	0.000268
1933	1.9223e+02	-3.0352	-39.991867	0.000537	5.372010	1.820086	0.000215
1934	1.9233e+02	-2.9855	-39.733490	0.000649	6.486956	2.197840	0.000260
1935	1.9243e+02	-2.9470	-39.463002	0.000679	6.791032	2.300864	0.000272
1936	1.9253e+02	-2.9085	-39.220774	0.000608	6.081521	2.060475	0.000243
1937	1.9263e+02	-2.8716	-38.982583	0.000598	5.980162	2.026134	0.000239
1938	1.9273e+02	-2.8315	-38.712095	0.000679	6.791032	2.300864	0.000272
1939	1.9283e+02	-2.7994	-38.469866	0.000608	6.081521	2.060475	0.000243
1940	1.9293e+02	-2.7545	-38.239750	0.000578	5.777445	1.957451	0.000231
1941	1.9303e+02	-2.7079	-37.977336	0.000659	6.588314	2.232181	0.000264
1942	1.9313e+02	-2.6662	-37.771442	0.000517	5.169293	1.751404	0.000207
1943	1.9323e+02	-2.6390	-37.504991	0.000669	6.689673	2.266523	0.000268
1944	1.9333e+02	-2.5956	-37.282949	0.000557	5.574727	1.888769	0.000223
1945	1.9343e+02	-2.5555	-36.996312	0.000720	7.196466	2.438229	0.000288
1946	1.9353e+02	-2.5202	-36.721787	0.000689	6.892390	2.335205	0.000276
1947	1.9363e+02	-2.4721	-36.414964	0.000770	7.703260	2.609935	0.000308
1948	1.9373e+02	-2.4320	-36.192922	0.000557	5.574727	1.888769	0.000223
1949	1.9383e+02	-2.3951	-35.914360	0.000699	6.993749	2.369546	0.000280
1950	1.9393e+02	-2.3566	-35.647909	0.000669	6.689673	2.266523	0.000268
1951	1.9403e+02	-2.3229	-35.373383	0.000689	6.892390	2.335205	0.000276
1952	1.9412e+02	-2.2748	-35.127118	0.000618	6.182880	2.094816	0.000248
1953	1.9422e+02	-2.2395	-34.840481	0.000720	7.196466	2.438229	0.000288
1954	1.9432e+02	-2.2026	-34.582105	0.000649	6.486956	2.197840	0.000260
1955	1.9442e+02	-2.1625	-34.315654	0.000669	6.689673	2.266523	0.000268
1956	1.9452e+02	-2.1208	-34.053240	0.000659	6.588314	2.232181	0.000264
1957	1.9462e+02	-2.0855	-33.819086	0.000588	5.878804	1.991793	0.000235
1958	1.9472e+02	-2.0342	-33.512264	0.000770	7.703260	2.609935	0.000308
1959	1.9482e+02	-2.0021	-33.245813	0.000669	6.689673	2.266523	0.000268
1960	1.9492e+02	-1.9443	-33.011659	0.000588	5.878804	1.991793	0.000235
1961	1.9502e+02	-1.9122	-32.684651	0.000821	8.210053	2.781641	0.000329
1962	1.9512e+02	-1.8689	-32.442423	0.000608	6.081521	2.060475	0.000243
1963	1.9522e+02	-1.8401	-32.147712	0.000740	7.399184	2.506911	0.000296
1964	1.9532e+02	-1.8032	-31.909521	0.000598	5.980162	2.026134	0.000239
1965	1.9542e+02	-1.7502	-31.622884	0.000720	7.196466	2.438229	0.000288
1966	1.9552e+02	-1.7149	-31.388730	0.000588	5.878804	1.991793	0.000235
1967	1.9562e+02	-1.6764	-31.073834	0.000791	7.905977	2.678618	0.000316
1968	1.9572e+02	-1.6347	-30.795271	0.000699	6.993749	2.369546	0.000280
1969	1.9582e+02	-1.5914	-30.540932	0.000639	6.385597	2.163499	0.000256
1970	1.9592e+02	-1.5529	-30.209887	0.000831	8.311412	2.815983	0.000333
1971	1.9601e+02	-1.5144	-29.967659	0.000608	6.081521	2.060475	0.000243
1972	1.9611e+02	-1.4743	-29.705245	0.000659	6.588314	2.232181	0.000264
1973	1.9621e+02	-1.4358	-29.414571	0.000730	7.297825	2.472570	0.000292
1974	1.9631e+02	-1.3909	-29.127934	0.000720	7.196466	2.438229	0.000288
1975	1.9641e+02	-1.3668	-28.845335	0.000710	7.095108	2.403888	0.000284
1976	1.9651e+02	-1.3235	-28.590995	0.000639	6.385597	2.163499	0.000256
1977	1.9661e+02	-1.2786	-28.296284	0.000740	7.399184	2.506911	0.000296
1978	1.9671e+02	-1.2385	-28.001573	0.000740	7.399184	2.506911	0.000296
1979	1.9681e+02	-1.2016	-27.723011	0.000699	6.993749	2.369546	0.000280
1980	1.9691e+02	-1.1631	-27.444449	0.000699	6.993749	2.369546	0.000280
1981	1.9701e+02	-1.1198	-27.153775	0.000730	7.297825	2.472570	0.000292
1982	1.9711e+02	-1.0829	-26.826767	0.000821	8.210053	2.781641	0.000329
1983	1.9721e+02	-1.0444	-26.576465	0.000628	6.284238	2.129158	0.000252
1984	1.9731e+02	-0.9914	-26.310014	0.000669	6.689673	2.266523	0.000268
1985	1.9741e+02	-0.9577	-25.983006	0.000821	8.210053	2.781641	0.000329
1986	1.9751e+02	-0.9192	-25.655998	0.000821	8.210053	2.781641	0.000329
1987	1.9761e+02	-0.8839	-25.401658	0.000639	6.385597	2.163499	0.000256
1988	1.9771e+02	-0.8390	-25.110984	0.000730	7.297825	2.472570	0.000292
1989	1.9781e+02	-0.7893	-24.812236	0.000750	7.500542	2.541253	0.000300
1990	1.9791e+02	-0.7636	-24.537711	0.000689	6.892390	2.335205	0.000276
1991	1.9800e+02	-0.7059	-24.214740	0.000811	8.108694	2.747300	0.000325
1992	1.9810e+02	-0.6674	-23.952326	0.000659	6.588314	2.232181	0.000264
1993	1.9820e+02	-0.6433	-23.653578	0.000750	7.500542	2.541253	0.000300
1994	1.9830e+02	-0.6016	-23.354830	0.000750	7.500542	2.541253	0.000300
1995	1.9840e+02	-0.5567	-23.060119	0.000740	7.399184	2.506911	0.000296
1996	1.9850e+02	-0.5230	-22.781557	0.000699	6.993749	2.369546	0.000280
1997	1.9860e+02	-0.4861	-22.458586	0.000811	8.108694	2.747300	0.000325
1998	1.9870e+02	-0.4315	-22.151764	0.000770	7.703260	2.609935	0.000308
1999	1.9880e+02	-0.3962	-21.869164	0.000710	7.095108	2.403888	0.000284
2000	1.9890e+02	-0.3593	-21.574453	0.000740	7.399184	2.506911	0.000296
2001	1.9900e+02	-0.3241	-21.239371	0.000841	8.412771	2.850324	0.000337
2002	1.9910e+02	-0.2727	-20.972920	0.000669	6.689673	2.266523	0.000268
2003	1.9920e+02	-0.2438	-20.674172	0.000750	7.500542	2.541253	0.000300
2004	1.9930e+02	-0.2005	-20.363313	0.000780	7.804618	2.644276	0.000312
2005	1.9940e+02	-0.1556	-20.040342	0.000811	8.108694	2.747300	0.000325
2006	1.9950e+02	-0.1219	-19.757742	0.000710	7.095108	2.403888	0.000284
2007	1.9960e+02	-0.0818	-19.463031	0.000740	7.399184	2.506911	0.000296
2008	1.9970e+02	-0.0433	-19.123912	0.000851	8.514129	2.884665	0.000341
2009	1.9980e+02	-0.0080	-18.809015	0.000851	8.514129	2.884665	0.000316

Center data before PMax,+/-Pr and +/-Vc Calc.

PMax (uC/cm2):	6.87e+01
Pr (uC/cm2):	4.69e+01
-Pr (uC/cm2):	-1.88e+01
PLoss (uC/cm2):	5.96e+01
Vc:	1.22e+01
-Vc:	-6.73e+00
C (Max-Eff) (nF):	3.44e-01
K (Eff):	1.16e+03
Vert. (+/-Pr) Shift (uC/cm2):	1.41e+01
Horiz. Shift (+/-Vc):	2.73e+00
Offset (uC/cm2):	7.85e+01

A (Loop Area - uC/cm2·Volts):	-2.51e+00



Hysteresis Version: 5.48.1 - Radiant Technologies, Inc., 1999 - 9/12/24

