»»»»»»»»»»»»»»»»»»»»»»»»»»»»»»»»»»»» Hysteresis ««««««««««««««««««««««««««««««««««««
»»»  Executed Version:	5.48.1
»»»  Vision Version:	5.48.4 (R)
»»»  Vision Compiled:	9/18/24
»»»  Driver Version:	5.47.0
»»»  Windows Version:	Windows 8 or 8.1
»»»  Processor Information:	x86 (AMD or Intel) - 32 Processors
»»»  Tester Name:	PMF21124-494 (100V)
»»»  Tester S/N:	PMF21124-494
»»»  Internal Amp Type:	100V RevK 270k
»»»  Internal Amp S/N:	iAB2-596/K     
»»»  Execution Count:	1
»»»»»»»»»»»»»»»»»»»»»»»»»»»»»»»»»»»»»»»»»»««««««««««««««««««««««««««««««««««««««««««

Stored:	6/11/2025 - 10:24:53
Configured:	06/11/25 10:21:25 AM
Executed:	06/11/25 10:24:22 AM

»»»»»»»»»»»»»»»»»»»»»»»»»»»»»»»»»»» Sample Info ««««««««««««««««««««««««««««««««««««
Sample Name:	
Lot Name:	
Wafer Name:	
Die Row/Column:	0/0
Capacitor Number:	0
Sample Area (cm2):	1.00e-04
Sample Thickness (microns):	3.00e-01

Amplifier:	Internal

»»»»»»»»»»»»»»»»»»»»»»»»»»»»»»»»»»» Tester Info «««««««««««««««««««««««««««««««««««
Tester Name:	PMF21124-494 (100V)
Tester Serial Number:	PMF21124-494
Return Signal Amp. Level:	0.19 [Index: 3]

»»»»»»»»»»»»»»»»»»»»»»»»»»»»»»»» Hysteresis Info ««««««««««««««««««««««««««««««««««
Task Name:	Hyst-1175
Volts:	20.00
Field:	666.67 (kV/cm)
DCBias:	0.00
DCField:	0.00 (kV/cm)
Hysteresis Period (ms):	2.00e+02
Preset:	Enabled
Preset Delay (ms):	1.00e+03
Profile:	Standard Bipolar

»»»»»»»»»»»»»»»»»»»»»»»»»»»»»»»»»»»»»» Data «««««««««««««««««««««««««««««««««««««««
Points:	2009

Valid Data

Point	Time (ms)	Drive Voltage	Measured Polarization (uC/cm2)	Capacitance (uF)	Normalized Capacitance (uF/cm2)	Dielectric Constant	Instantaneous Current (mA)
   1	0.0000e+00	-0.0273	-5.504635	0.000426	4.256467	1.442130	0.000170
   2	9.9500e-02	0.0016	-5.335075	0.000426	4.256467	1.442130	0.000170
   3	1.9900e-01	0.0401	-5.145329	0.000476	4.763189	1.613812	0.000191
   4	2.9850e-01	0.0754	-4.927324	0.000547	5.472600	1.854167	0.000219
   5	3.9800e-01	0.1251	-4.709319	0.000547	5.472600	1.854167	0.000219
   6	4.9750e-01	0.1620	-4.499388	0.000527	5.269911	1.785494	0.000211
   7	5.9700e-01	0.2021	-4.261197	0.000598	5.979323	2.025849	0.000239
   8	6.9650e-01	0.2374	-4.039154	0.000557	5.573945	1.888504	0.000223
   9	7.9600e-01	0.2839	-3.772703	0.000669	6.688734	2.266204	0.000268
  10	8.9550e-01	0.3192	-3.611218	0.000405	4.053778	1.373457	0.000162
  11	9.9500e-01	0.3593	-3.352841	0.000649	6.486045	2.197532	0.000260
  12	1.0945e+00	0.4011	-3.134836	0.000547	5.472600	1.854167	0.000219
  13	1.1940e+00	0.4396	-2.892608	0.000608	6.080667	2.060186	0.000243
  14	1.2935e+00	0.4845	-2.646342	0.000618	6.182012	2.094522	0.000248
  15	1.3930e+00	0.5150	-2.448523	0.000497	4.965878	1.682485	0.000199
  16	1.4925e+00	0.5486	-2.210332	0.000598	5.979323	2.025849	0.000239
  17	1.5920e+00	0.5952	-2.016549	0.000486	4.864534	1.648149	0.000195
  18	1.6915e+00	0.6385	-1.778358	0.000598	5.979323	2.025849	0.000239
  19	1.7910e+00	0.6786	-1.548242	0.000578	5.776634	1.957176	0.000231
  20	1.8905e+00	0.7251	-1.277753	0.000679	6.790078	2.300541	0.000272
  21	1.9900e+00	0.7460	-1.059748	0.000547	5.472600	1.854167	0.000219
  22	2.0895e+00	0.7941	-0.797334	0.000659	6.587389	2.231868	0.000264
  23	2.1890e+00	0.8358	-0.575292	0.000557	5.573945	1.888504	0.000223
  24	2.2885e+00	0.8759	-0.397658	0.000446	4.459156	1.510803	0.000179
  25	2.3880e+00	0.9080	-0.135244	0.000659	6.587389	2.231868	0.000264
  26	2.4875e+00	0.9593	0.098910	0.000588	5.877978	1.991513	0.000235
  27	2.5870e+00	0.9930	0.345175	0.000618	6.182012	2.094522	0.000248
  28	2.6865e+00	1.0395	0.571255	0.000568	5.675289	1.922840	0.000227
  29	2.7860e+00	1.0700	0.777149	0.000517	5.168567	1.751158	0.000207
  30	2.8855e+00	1.1182	1.003228	0.000568	5.675289	1.922840	0.000227
  31	2.9850e+00	1.1567	1.261605	0.000649	6.486045	2.197532	0.000260
  32	3.0845e+00	1.1952	1.491722	0.000578	5.776634	1.957176	0.000231
  33	3.1840e+00	1.2337	1.725876	0.000588	5.877978	1.991513	0.000235
  34	3.2835e+00	1.2722	1.960029	0.000588	5.877978	1.991513	0.000235
  35	3.3830e+00	1.3171	2.194183	0.000588	5.877978	1.991513	0.000235
  36	3.4825e+00	1.3588	2.440449	0.000618	6.182012	2.094522	0.000248
  37	3.5820e+00	1.3989	2.654417	0.000537	5.371256	1.819831	0.000215
  38	3.6815e+00	1.4406	2.892608	0.000598	5.979323	2.025849	0.000239
  39	3.7810e+00	1.4743	3.126762	0.000588	5.877978	1.991513	0.000235
  40	3.8805e+00	1.5192	3.364953	0.000598	5.979323	2.025849	0.000239
  41	3.9800e+00	1.5577	3.582958	0.000547	5.472600	1.854167	0.000219
  42	4.0795e+00	1.5930	3.833260	0.000628	6.283356	2.128859	0.000252
  43	4.1790e+00	1.6331	4.083563	0.000628	6.283356	2.128859	0.000252
  44	4.2785e+00	1.6796	4.309642	0.000568	5.675289	1.922840	0.000227
  45	4.3780e+00	1.7133	4.515536	0.000517	5.168567	1.751158	0.000207
  46	4.4775e+00	1.7486	4.741616	0.000568	5.675289	1.922840	0.000227
  47	4.5770e+00	1.7967	5.008067	0.000669	6.688734	2.266204	0.000268
  48	4.6765e+00	1.8385	5.197812	0.000476	4.763189	1.613812	0.000191
  49	4.7760e+00	1.8753	5.452152	0.000638	6.384700	2.163195	0.000256
  50	4.8755e+00	1.9267	5.670157	0.000547	5.472600	1.854167	0.000219
  51	4.9750e+00	1.9540	5.900274	0.000578	5.776634	1.957176	0.000231
  52	5.0745e+00	1.9941	6.166725	0.000669	6.688734	2.266204	0.000268
  53	5.1740e+00	2.0358	6.380693	0.000537	5.371256	1.819831	0.000215
  54	5.2735e+00	2.0727	6.594661	0.000537	5.371256	1.819831	0.000215
  55	5.3730e+00	2.1112	6.840927	0.000618	6.182012	2.094522	0.000248
  56	5.4725e+00	2.1545	7.054895	0.000537	5.371256	1.819831	0.000215
  57	5.5720e+00	2.1834	7.285011	0.000578	5.776634	1.957176	0.000231
  58	5.6715e+00	2.2411	7.523202	0.000598	5.979323	2.025849	0.000239
  59	5.7710e+00	2.2732	7.745245	0.000557	5.573945	1.888504	0.000223
  60	5.8705e+00	2.3181	7.967287	0.000557	5.573945	1.888504	0.000223
  61	5.9700e+00	2.3566	8.213553	0.000618	6.182012	2.094522	0.000248
  62	6.0695e+00	2.3919	8.451744	0.000598	5.979323	2.025849	0.000239
  63	6.1690e+00	2.4400	8.657638	0.000517	5.168567	1.751158	0.000207
  64	6.2685e+00	2.4769	8.911977	0.000638	6.384700	2.163195	0.000256
  65	6.3680e+00	2.5090	9.154205	0.000608	6.080667	2.060186	0.000243
  66	6.4675e+00	2.5539	9.380285	0.000568	5.675289	1.922840	0.000227
  67	6.5670e+00	2.5940	9.614439	0.000588	5.877978	1.991513	0.000235
  68	6.6665e+00	2.6261	9.816296	0.000507	5.067223	1.716821	0.000203
  69	6.7660e+00	2.6710	10.074672	0.000649	6.486045	2.197532	0.000260
  70	6.8655e+00	2.7160	10.300752	0.000568	5.675289	1.922840	0.000227
  71	6.9650e+00	2.7529	10.547017	0.000618	6.182012	2.094522	0.000248
  72	7.0645e+00	2.7978	10.724651	0.000446	4.459156	1.510803	0.000179
  73	7.1640e+00	2.8363	10.938619	0.000537	5.371256	1.819831	0.000215
  74	7.2635e+00	2.8748	11.192959	0.000638	6.384700	2.163195	0.000256
  75	7.3630e+00	2.9053	11.386741	0.000486	4.864534	1.648149	0.000195
  76	7.4625e+00	2.9630	11.608784	0.000557	5.573945	1.888504	0.000223
  77	7.5620e+00	2.9903	11.814678	0.000517	5.168567	1.751158	0.000207
  78	7.6615e+00	3.0416	12.085166	0.000679	6.790078	2.300541	0.000272
  79	7.7610e+00	3.0769	12.287023	0.000507	5.067223	1.716821	0.000203
  80	7.8605e+00	3.1074	12.529251	0.000608	6.080667	2.060186	0.000243
  81	7.9600e+00	3.1459	12.767442	0.000598	5.979323	2.025849	0.000239
  82	8.0595e+00	3.1924	12.965261	0.000497	4.965878	1.682485	0.000199
  83	8.1590e+00	3.2325	13.183267	0.000547	5.472600	1.854167	0.000219
  84	8.2585e+00	3.2662	13.397235	0.000537	5.371256	1.819831	0.000215
  85	8.3580e+00	3.3063	13.595055	0.000497	4.965878	1.682485	0.000199
  86	8.4575e+00	3.3480	13.841320	0.000618	6.182012	2.094522	0.000248
  87	8.5570e+00	3.3978	14.010880	0.000426	4.256467	1.442130	0.000170
  88	8.6565e+00	3.4331	14.265219	0.000638	6.384700	2.163195	0.000256
  89	8.7560e+00	3.4619	14.442853	0.000446	4.459156	1.510803	0.000179
  90	8.8555e+00	3.5085	14.689118	0.000618	6.182012	2.094522	0.000248
  91	8.9550e+00	3.5454	14.862715	0.000436	4.357811	1.476466	0.000174
  92	9.0545e+00	3.5839	15.108980	0.000618	6.182012	2.094522	0.000248
  93	9.1540e+00	3.6224	15.322949	0.000537	5.371256	1.819831	0.000215
  94	9.2535e+00	3.6609	15.508657	0.000466	4.661845	1.579476	0.000187
  95	9.3530e+00	3.7042	15.726662	0.000547	5.472600	1.854167	0.000219
  96	9.4525e+00	3.7539	15.944668	0.000547	5.472600	1.854167	0.000219
  97	9.5520e+00	3.7908	16.207081	0.000659	6.587389	2.231868	0.000264
  98	9.6515e+00	3.8229	16.360493	0.000385	3.851089	1.304784	0.000154
  99	9.7510e+00	3.8550	16.586572	0.000568	5.675289	1.922840	0.000227
 100	9.8505e+00	3.9063	16.764206	0.000446	4.459156	1.510803	0.000179
 101	9.9500e+00	3.9512	16.994323	0.000578	5.776634	1.957176	0.000231
 102	1.0050e+01	3.9817	17.216365	0.000557	5.573945	1.888504	0.000223
 103	1.0149e+01	4.0314	17.430334	0.000537	5.371256	1.819831	0.000215
 104	1.0248e+01	4.0731	17.640265	0.000527	5.269911	1.785494	0.000211
 105	1.0348e+01	4.0956	17.862307	0.000557	5.573945	1.888504	0.000223
 106	1.0447e+01	4.1421	18.084350	0.000557	5.573945	1.888504	0.000223
 107	1.0547e+01	4.1903	18.249872	0.000416	4.155123	1.407794	0.000166
 108	1.0646e+01	4.2304	18.484026	0.000588	5.877978	1.991513	0.000235
 109	1.0746e+01	4.2705	18.677808	0.000486	4.864534	1.648149	0.000195
 110	1.0845e+01	4.3058	18.891777	0.000537	5.371256	1.819831	0.000215
 111	1.0945e+01	4.3459	19.121893	0.000578	5.776634	1.957176	0.000231
 112	1.1044e+01	4.3860	19.311639	0.000476	4.763189	1.613812	0.000191
 113	1.1144e+01	4.4277	19.497347	0.000466	4.661845	1.579476	0.000187
 114	1.1243e+01	4.4646	19.743612	0.000618	6.182012	2.094522	0.000248
 115	1.1343e+01	4.5095	19.901061	0.000395	3.952434	1.339121	0.000158
 116	1.1443e+01	4.5448	20.123103	0.000557	5.573945	1.888504	0.000223
 117	1.1542e+01	4.5881	20.292663	0.000426	4.256467	1.442130	0.000170
 118	1.1642e+01	4.6186	20.522780	0.000578	5.776634	1.957176	0.000231
 119	1.1741e+01	4.6731	20.720599	0.000497	4.965878	1.682485	0.000199
 120	1.1841e+01	4.7148	20.894196	0.000436	4.357811	1.476466	0.000174
 121	1.1940e+01	4.7533	21.120276	0.000568	5.675289	1.922840	0.000227
 122	1.2040e+01	4.7838	21.310021	0.000476	4.763189	1.613812	0.000191
 123	1.2139e+01	4.8111	21.528026	0.000547	5.472600	1.854167	0.000219
 124	1.2239e+01	4.8608	21.717772	0.000476	4.763189	1.613812	0.000191
 125	1.2338e+01	4.8977	21.923666	0.000517	5.168567	1.751158	0.000207
 126	1.2438e+01	4.9410	22.109374	0.000466	4.661845	1.579476	0.000187
 127	1.2537e+01	4.9827	22.327379	0.000547	5.472600	1.854167	0.000219
 128	1.2636e+01	5.0245	22.505013	0.000446	4.459156	1.510803	0.000179
 129	1.2736e+01	5.0614	22.690721	0.000466	4.661845	1.579476	0.000187
 130	1.2835e+01	5.1031	22.880467	0.000476	4.763189	1.613812	0.000191
 131	1.2935e+01	5.1384	23.102509	0.000557	5.573945	1.888504	0.000223
 132	1.3034e+01	5.1833	23.268032	0.000416	4.155123	1.407794	0.000166
 133	1.3134e+01	5.2234	23.534483	0.000669	6.688734	2.266204	0.000268
 134	1.3233e+01	5.2587	23.704042	0.000426	4.256467	1.442130	0.000170
 135	1.3333e+01	5.3020	23.857454	0.000385	3.851089	1.304784	0.000154
 136	1.3432e+01	5.3389	24.087570	0.000578	5.776634	1.957176	0.000231
 137	1.3532e+01	5.3790	24.297501	0.000527	5.269911	1.785494	0.000211
 138	1.3632e+01	5.4175	24.467061	0.000426	4.256467	1.442130	0.000170
 139	1.3731e+01	5.4608	24.705252	0.000598	5.979323	2.025849	0.000239
 140	1.3831e+01	5.5105	24.838478	0.000334	3.344367	1.133102	0.000134
 141	1.3930e+01	5.5298	25.052446	0.000537	5.371256	1.819831	0.000215
 142	1.4030e+01	5.5779	25.254303	0.000507	5.067223	1.716821	0.000203
 143	1.4129e+01	5.6276	25.419825	0.000416	4.155123	1.407794	0.000166
 144	1.4229e+01	5.6694	25.625719	0.000517	5.168567	1.751158	0.000207
 145	1.4328e+01	5.7063	25.787205	0.000405	4.053778	1.373457	0.000162
 146	1.4428e+01	5.7319	26.021358	0.000588	5.877978	1.991513	0.000235
 147	1.4527e+01	5.7817	26.162658	0.000355	3.547056	1.201775	0.000142
 148	1.4627e+01	5.8298	26.392775	0.000578	5.776634	1.957176	0.000231
 149	1.4726e+01	5.8635	26.562335	0.000426	4.256467	1.442130	0.000170
 150	1.4825e+01	5.8923	26.768229	0.000517	5.168567	1.751158	0.000207
 151	1.4925e+01	5.9469	26.933751	0.000416	4.155123	1.407794	0.000166
 152	1.5024e+01	5.9790	27.119459	0.000466	4.661845	1.579476	0.000187
 153	1.5124e+01	6.0207	27.284982	0.000416	4.155123	1.407794	0.000166
 154	1.5223e+01	6.0560	27.498950	0.000537	5.371256	1.819831	0.000215
 155	1.5323e+01	6.0993	27.704844	0.000517	5.168567	1.751158	0.000207
 156	1.5422e+01	6.1362	27.842107	0.000345	3.445711	1.167439	0.000138
 157	1.5522e+01	6.1747	28.043963	0.000507	5.067223	1.716821	0.000203
 158	1.5621e+01	6.2244	28.209486	0.000416	4.155123	1.407794	0.000166
 159	1.5721e+01	6.2565	28.435566	0.000568	5.675289	1.922840	0.000227
 160	1.5820e+01	6.2950	28.597051	0.000405	4.053778	1.373457	0.000162
 161	1.5920e+01	6.3319	28.750462	0.000385	3.851089	1.304784	0.000154
 162	1.6020e+01	6.3832	28.984616	0.000588	5.877978	1.991513	0.000235
 163	1.6119e+01	6.4298	29.142064	0.000395	3.952434	1.339121	0.000158
 164	1.6218e+01	6.4602	29.315661	0.000436	4.357811	1.476466	0.000174
 165	1.6318e+01	6.4907	29.505407	0.000476	4.763189	1.613812	0.000191
 166	1.6418e+01	6.5405	29.703226	0.000497	4.965878	1.682485	0.000199
 167	1.6517e+01	6.5790	29.876823	0.000436	4.357811	1.476466	0.000174
 168	1.6616e+01	6.6191	30.074643	0.000497	4.965878	1.682485	0.000199
 169	1.6716e+01	6.6511	30.260351	0.000466	4.661845	1.579476	0.000187
 170	1.6816e+01	6.6977	30.409725	0.000375	3.749745	1.270448	0.000150
 171	1.6915e+01	6.7458	30.635805	0.000568	5.675289	1.922840	0.000227
 172	1.7015e+01	6.7827	30.805364	0.000426	4.256467	1.442130	0.000170
 173	1.7114e+01	6.8148	30.954738	0.000375	3.749745	1.270448	0.000150
 174	1.7213e+01	6.8517	31.108149	0.000385	3.851089	1.304784	0.000154
 175	1.7313e+01	6.8918	31.322118	0.000537	5.371256	1.819831	0.000215
 176	1.7413e+01	6.9383	31.536086	0.000537	5.371256	1.819831	0.000215
 177	1.7512e+01	6.9688	31.709683	0.000436	4.357811	1.476466	0.000174
 178	1.7611e+01	7.0057	31.850982	0.000355	3.547056	1.201775	0.000142
 179	1.7711e+01	7.0474	32.064951	0.000537	5.371256	1.819831	0.000215
 180	1.7811e+01	7.0987	32.238547	0.000436	4.357811	1.476466	0.000174
 181	1.7910e+01	7.1356	32.400033	0.000405	4.053778	1.373457	0.000162
 182	1.8009e+01	7.1741	32.549407	0.000375	3.749745	1.270448	0.000150
 183	1.8109e+01	7.2190	32.763375	0.000537	5.371256	1.819831	0.000215
 184	1.8209e+01	7.2495	32.941009	0.000446	4.459156	1.510803	0.000179
 185	1.8308e+01	7.2961	33.118643	0.000446	4.459156	1.510803	0.000179
 186	1.8407e+01	7.3297	33.280128	0.000405	4.053778	1.373457	0.000162
 187	1.8507e+01	7.3731	33.457762	0.000446	4.459156	1.510803	0.000179
 188	1.8607e+01	7.4116	33.631359	0.000436	4.357811	1.476466	0.000174
 189	1.8706e+01	7.4501	33.772659	0.000355	3.547056	1.201775	0.000142
 190	1.8805e+01	7.4934	33.958367	0.000466	4.661845	1.579476	0.000187
 191	1.8905e+01	7.5351	34.172335	0.000537	5.371256	1.819831	0.000215
 192	1.9005e+01	7.5591	34.301524	0.000324	3.243022	1.098766	0.000130
 193	1.9104e+01	7.6153	34.499343	0.000497	4.965878	1.682485	0.000199
 194	1.9203e+01	7.6554	34.660829	0.000405	4.053778	1.373457	0.000162
 195	1.9303e+01	7.6891	34.834426	0.000436	4.357811	1.476466	0.000174
 196	1.9402e+01	7.7308	34.999948	0.000416	4.155123	1.407794	0.000166
 197	1.9502e+01	7.7709	35.193731	0.000486	4.864534	1.648149	0.000195
 198	1.9602e+01	7.8094	35.363290	0.000426	4.256467	1.442130	0.000170
 199	1.9701e+01	7.8543	35.544962	0.000456	4.560500	1.545139	0.000183
 200	1.9800e+01	7.8848	35.694336	0.000375	3.749745	1.270448	0.000150
 201	1.9900e+01	7.9281	35.863895	0.000426	4.256467	1.442130	0.000170
 202	2.0000e+01	7.9698	36.041529	0.000446	4.459156	1.510803	0.000179
 203	2.0099e+01	8.0051	36.207052	0.000416	4.155123	1.407794	0.000166
 204	2.0198e+01	8.0549	36.380649	0.000436	4.357811	1.476466	0.000174
 205	2.0298e+01	8.0885	36.550208	0.000426	4.256467	1.442130	0.000170
 206	2.0398e+01	8.1335	36.711694	0.000405	4.053778	1.373457	0.000162
 207	2.0497e+01	8.1704	36.869142	0.000395	3.952434	1.339121	0.000158
 208	2.0596e+01	8.1976	37.030628	0.000405	4.053778	1.373457	0.000162
 209	2.0696e+01	8.2522	37.212299	0.000456	4.560500	1.545139	0.000183
 210	2.0796e+01	8.2923	37.377821	0.000416	4.155123	1.407794	0.000166
 211	2.0895e+01	8.3260	37.547381	0.000426	4.256467	1.442130	0.000170
 212	2.0994e+01	8.3741	37.708866	0.000405	4.053778	1.373457	0.000162
 213	2.1094e+01	8.3998	37.882463	0.000436	4.357811	1.476466	0.000174
 214	2.1194e+01	8.4527	38.060097	0.000446	4.459156	1.510803	0.000179
 215	2.1293e+01	8.4928	38.181211	0.000304	3.040334	1.030093	0.000122
 216	2.1392e+01	8.5297	38.403254	0.000557	5.573945	1.888504	0.000223
 217	2.1492e+01	8.5666	38.552628	0.000375	3.749745	1.270448	0.000150
 218	2.1591e+01	8.6099	38.734299	0.000456	4.560500	1.545139	0.000183
 219	2.1691e+01	8.6548	38.899821	0.000416	4.155123	1.407794	0.000166
 220	2.1791e+01	8.6853	39.069381	0.000426	4.256467	1.442130	0.000170
 221	2.1890e+01	8.7254	39.202607	0.000334	3.344367	1.133102	0.000134
 222	2.1989e+01	8.7687	39.376203	0.000436	4.357811	1.476466	0.000174
 223	2.2089e+01	8.8072	39.529615	0.000385	3.851089	1.304784	0.000154
 224	2.2189e+01	8.8489	39.707249	0.000446	4.459156	1.510803	0.000179
 225	2.2288e+01	8.8971	39.848548	0.000355	3.547056	1.201775	0.000142
 226	2.2387e+01	8.9243	40.026182	0.000446	4.459156	1.510803	0.000179
 227	2.2487e+01	8.9693	40.195742	0.000426	4.256467	1.442130	0.000170
 228	2.2587e+01	9.0158	40.345116	0.000375	3.749745	1.270448	0.000150
 229	2.2686e+01	9.0495	40.530824	0.000466	4.661845	1.579476	0.000187
 230	2.2785e+01	9.0816	40.704421	0.000436	4.357811	1.476466	0.000174
 231	2.2885e+01	9.1297	40.837647	0.000334	3.344367	1.133102	0.000134
 232	2.2985e+01	9.1586	41.011243	0.000436	4.357811	1.476466	0.000174
 233	2.3084e+01	9.2035	41.192915	0.000456	4.560500	1.545139	0.000183
 234	2.3183e+01	9.2500	41.354400	0.000405	4.053778	1.373457	0.000162
 235	2.3283e+01	9.2885	41.463403	0.000274	2.736300	0.927084	0.000110
 236	2.3383e+01	9.3270	41.669297	0.000517	5.168567	1.751158	0.000207
 237	2.3482e+01	9.3687	41.859042	0.000476	4.763189	1.613812	0.000191
 238	2.3581e+01	9.4008	41.980156	0.000304	3.040334	1.030093	0.000122
 239	2.3681e+01	9.4377	42.161827	0.000456	4.560500	1.545139	0.000183
 240	2.3780e+01	9.4874	42.335424	0.000436	4.357811	1.476466	0.000174
 241	2.3880e+01	9.5243	42.480761	0.000365	3.648400	1.236111	0.000146
 242	2.3980e+01	9.5628	42.638209	0.000395	3.952434	1.339121	0.000158
 243	2.4079e+01	9.6061	42.795657	0.000395	3.952434	1.339121	0.000158
 244	2.4178e+01	9.6495	42.940994	0.000365	3.648400	1.236111	0.000146
 245	2.4278e+01	9.6912	43.098443	0.000395	3.952434	1.339121	0.000158
 246	2.4378e+01	9.7249	43.284151	0.000466	4.661845	1.579476	0.000187
 247	2.4477e+01	9.7730	43.405265	0.000304	3.040334	1.030093	0.000122
 248	2.4576e+01	9.7987	43.595010	0.000476	4.763189	1.613812	0.000191
 249	2.4676e+01	9.8516	43.740347	0.000365	3.648400	1.236111	0.000146
 250	2.4776e+01	9.8853	43.853387	0.000284	2.837645	0.961420	0.000114
 251	2.4875e+01	9.9238	44.043132	0.000476	4.763189	1.613812	0.000191
 252	2.4974e+01	9.9607	44.220766	0.000446	4.459156	1.510803	0.000179
 253	2.5074e+01	9.9960	44.333806	0.000284	2.837645	0.961420	0.000114
 254	2.5174e+01	10.0489	44.483180	0.000375	3.749745	1.270448	0.000150
 255	2.5273e+01	10.0762	44.668888	0.000466	4.661845	1.579476	0.000187
 256	2.5372e+01	10.1211	44.818262	0.000375	3.749745	1.270448	0.000150
 257	2.5472e+01	10.1580	44.979748	0.000405	4.053778	1.373457	0.000162
 258	2.5572e+01	10.2013	45.117010	0.000345	3.445711	1.167439	0.000138
 259	2.5671e+01	10.2414	45.270422	0.000385	3.851089	1.304784	0.000154
 260	2.5770e+01	10.2960	45.423833	0.000385	3.851089	1.304784	0.000154
 261	2.5870e+01	10.3200	45.577244	0.000385	3.851089	1.304784	0.000154
 262	2.5970e+01	10.3649	45.714507	0.000345	3.445711	1.167439	0.000138
 263	2.6069e+01	10.4018	45.871955	0.000395	3.952434	1.339121	0.000158
 264	2.6169e+01	10.4403	46.041515	0.000426	4.256467	1.442130	0.000170
 265	2.6268e+01	10.4772	46.170703	0.000324	3.243022	1.098766	0.000130
 266	2.6367e+01	10.5093	46.340263	0.000426	4.256467	1.442130	0.000170
 267	2.6467e+01	10.5671	46.513859	0.000436	4.357811	1.476466	0.000174
 268	2.6567e+01	10.6008	46.630936	0.000294	2.938989	0.995756	0.000118
 269	2.6666e+01	10.6425	46.812607	0.000456	4.560500	1.545139	0.000183
 270	2.6765e+01	10.6842	46.961981	0.000375	3.749745	1.270448	0.000150
 271	2.6865e+01	10.7211	47.119430	0.000395	3.952434	1.339121	0.000158
 272	2.6965e+01	10.7708	47.248618	0.000324	3.243022	1.098766	0.000130
 273	2.7064e+01	10.7997	47.410104	0.000405	4.053778	1.373457	0.000162
 274	2.7163e+01	10.8302	47.551403	0.000355	3.547056	1.201775	0.000142
 275	2.7263e+01	10.8751	47.712889	0.000405	4.053778	1.373457	0.000162
 276	2.7363e+01	10.9136	47.890523	0.000446	4.459156	1.510803	0.000179
 277	2.7462e+01	10.9601	48.011637	0.000304	3.040334	1.030093	0.000122
 278	2.7561e+01	11.0082	48.197345	0.000466	4.661845	1.579476	0.000187
 279	2.7661e+01	11.0323	48.306348	0.000274	2.736300	0.927084	0.000110
 280	2.7761e+01	11.0836	48.447647	0.000355	3.547056	1.201775	0.000142
 281	2.7860e+01	11.1189	48.605096	0.000395	3.952434	1.339121	0.000158
 282	2.7959e+01	11.1590	48.786767	0.000456	4.560500	1.545139	0.000183
 283	2.8059e+01	11.1911	48.891732	0.000263	2.634956	0.892747	0.000105
 284	2.8159e+01	11.2393	49.073403	0.000456	4.560500	1.545139	0.000183
 285	2.8258e+01	11.2697	49.206629	0.000334	3.344367	1.133102	0.000134
 286	2.8358e+01	11.3179	49.331780	0.000314	3.141678	1.064429	0.000126
 287	2.8457e+01	11.3628	49.485191	0.000385	3.851089	1.304784	0.000154
 288	2.8556e+01	11.4045	49.650714	0.000416	4.155123	1.407794	0.000166
 289	2.8656e+01	11.4414	49.759717	0.000274	2.736300	0.927084	0.000110
 290	2.8756e+01	11.4703	49.957536	0.000497	4.965878	1.682485	0.000199
 291	2.8855e+01	11.5216	50.090762	0.000334	3.344367	1.133102	0.000134
 292	2.8954e+01	11.5569	50.236099	0.000365	3.648400	1.236111	0.000146
 293	2.9054e+01	11.5986	50.381435	0.000365	3.648400	1.236111	0.000146
 294	2.9154e+01	11.6371	50.546958	0.000416	4.155123	1.407794	0.000166
 295	2.9253e+01	11.6740	50.684221	0.000345	3.445711	1.167439	0.000138
 296	2.9352e+01	11.7141	50.829558	0.000365	3.648400	1.236111	0.000146
 297	2.9452e+01	11.7606	50.995080	0.000416	4.155123	1.407794	0.000166
 298	2.9552e+01	11.7895	51.132343	0.000345	3.445711	1.167439	0.000138
 299	2.9651e+01	11.8360	51.281717	0.000375	3.749745	1.270448	0.000150
 300	2.9750e+01	11.8858	51.435128	0.000385	3.851089	1.304784	0.000154
 301	2.9850e+01	11.9146	51.568353	0.000334	3.344367	1.133102	0.000134
 302	2.9950e+01	11.9515	51.713690	0.000365	3.648400	1.236111	0.000146
 303	3.0049e+01	11.9997	51.842879	0.000324	3.243022	1.098766	0.000130
 304	3.0148e+01	12.0382	52.020513	0.000446	4.459156	1.510803	0.000179
 305	3.0248e+01	12.0686	52.157775	0.000345	3.445711	1.167439	0.000138
 306	3.0348e+01	12.1104	52.307149	0.000375	3.749745	1.270448	0.000150
 307	3.0447e+01	12.1649	52.436338	0.000324	3.243022	1.098766	0.000130
 308	3.0547e+01	12.1906	52.585712	0.000375	3.749745	1.270448	0.000150
 309	3.0646e+01	12.2387	52.731048	0.000365	3.648400	1.236111	0.000146
 310	3.0745e+01	12.2804	52.856200	0.000314	3.141678	1.064429	0.000126
 311	3.0845e+01	12.3157	53.049982	0.000486	4.864534	1.648149	0.000195
 312	3.0945e+01	12.3622	53.158985	0.000274	2.736300	0.927084	0.000110
 313	3.1044e+01	12.3991	53.300285	0.000355	3.547056	1.201775	0.000142
 314	3.1143e+01	12.4392	53.421399	0.000304	3.040334	1.030093	0.000122
 315	3.1243e+01	12.4681	53.603070	0.000456	4.560500	1.545139	0.000183
 316	3.1343e+01	12.5178	53.699961	0.000243	2.432267	0.824074	0.000097
 317	3.1442e+01	12.5451	53.877595	0.000446	4.459156	1.510803	0.000179
 318	3.1541e+01	12.5948	54.006783	0.000324	3.243022	1.098766	0.000130
 319	3.1641e+01	12.6317	54.156157	0.000375	3.749745	1.270448	0.000150
 320	3.1741e+01	12.6750	54.293420	0.000345	3.445711	1.167439	0.000138
 321	3.1840e+01	12.7200	54.410497	0.000294	2.938989	0.995756	0.000118
 322	3.1939e+01	12.7504	54.559871	0.000375	3.749745	1.270448	0.000150
 323	3.2039e+01	12.7905	54.725393	0.000416	4.155123	1.407794	0.000166
 324	3.2139e+01	12.8355	54.842470	0.000294	2.938989	0.995756	0.000118
 325	3.2238e+01	12.8836	54.999919	0.000395	3.952434	1.339121	0.000158
 326	3.2337e+01	12.9077	55.125070	0.000314	3.141678	1.064429	0.000126
 327	3.2437e+01	12.9462	55.250221	0.000314	3.141678	1.064429	0.000126
 328	3.2536e+01	12.9911	55.415744	0.000416	4.155123	1.407794	0.000166
 329	3.2636e+01	13.0424	55.561081	0.000365	3.648400	1.236111	0.000146
 330	3.2736e+01	13.0713	55.678158	0.000294	2.938989	0.995756	0.000118
 331	3.2835e+01	13.1082	55.835606	0.000395	3.952434	1.339121	0.000158
 332	3.2934e+01	13.1483	55.960757	0.000314	3.141678	1.064429	0.000126
 333	3.3034e+01	13.1820	56.142428	0.000456	4.560500	1.545139	0.000183
 334	3.3133e+01	13.2253	56.247394	0.000263	2.634956	0.892747	0.000105
 335	3.3233e+01	13.2670	56.360433	0.000284	2.837645	0.961420	0.000114
 336	3.3333e+01	13.3135	56.558253	0.000497	4.965878	1.682485	0.000199
 337	3.3432e+01	13.3408	56.671293	0.000284	2.837645	0.961420	0.000114
 338	3.3532e+01	13.4002	56.824704	0.000385	3.851089	1.304784	0.000154
 339	3.3631e+01	13.4322	56.990227	0.000416	4.155123	1.407794	0.000166
 340	3.3730e+01	13.4723	57.119415	0.000324	3.243022	1.098766	0.000130
 341	3.3830e+01	13.4996	57.236492	0.000294	2.938989	0.995756	0.000118
 342	3.3929e+01	13.5510	57.373755	0.000345	3.445711	1.167439	0.000138
 343	3.4029e+01	13.5814	57.523129	0.000375	3.749745	1.270448	0.000150
 344	3.4129e+01	13.6312	57.668465	0.000365	3.648400	1.236111	0.000146
 345	3.4228e+01	13.6584	57.789580	0.000304	3.040334	1.030093	0.000122
 346	3.4328e+01	13.7034	57.947028	0.000395	3.952434	1.339121	0.000158
 347	3.4427e+01	13.7563	58.084290	0.000345	3.445711	1.167439	0.000138
 348	3.4526e+01	13.7964	58.221553	0.000345	3.445711	1.167439	0.000138
 349	3.4626e+01	13.8301	58.370927	0.000375	3.749745	1.270448	0.000150
 350	3.4725e+01	13.8670	58.508190	0.000345	3.445711	1.167439	0.000138
 351	3.4825e+01	13.9039	58.637378	0.000324	3.243022	1.098766	0.000130
 352	3.4925e+01	13.9456	58.786752	0.000375	3.749745	1.270448	0.000150
 353	3.5024e+01	13.9857	58.936126	0.000375	3.749745	1.270448	0.000150
 354	3.5123e+01	14.0274	59.033017	0.000243	2.432267	0.824074	0.000097
 355	3.5223e+01	14.0515	59.194503	0.000405	4.053778	1.373457	0.000162
 356	3.5322e+01	14.1140	59.372137	0.000446	4.459156	1.510803	0.000179
 357	3.5422e+01	14.1461	59.469028	0.000243	2.432267	0.824074	0.000097
 358	3.5522e+01	14.1830	59.614365	0.000365	3.648400	1.236111	0.000146
 359	3.5621e+01	14.2263	59.731442	0.000294	2.938989	0.995756	0.000118
 360	3.5721e+01	14.2745	59.892927	0.000405	4.053778	1.373457	0.000162
 361	3.5820e+01	14.3017	60.034227	0.000355	3.547056	1.201775	0.000142
 362	3.5919e+01	14.3386	60.147267	0.000284	2.837645	0.961420	0.000114
 363	3.6019e+01	14.3819	60.300678	0.000385	3.851089	1.304784	0.000154
 364	3.6118e+01	14.4204	60.446015	0.000365	3.648400	1.236111	0.000146
 365	3.6218e+01	14.4606	60.546943	0.000253	2.533611	0.858411	0.000101
 366	3.6318e+01	14.5039	60.700354	0.000385	3.851089	1.304784	0.000154
 367	3.6417e+01	14.5456	60.841654	0.000355	3.547056	1.201775	0.000142
 368	3.6517e+01	14.5841	60.946620	0.000263	2.634956	0.892747	0.000105
 369	3.6616e+01	14.6306	61.104068	0.000395	3.952434	1.339121	0.000158
 370	3.6715e+01	14.6643	61.249405	0.000365	3.648400	1.236111	0.000146
 371	3.6815e+01	14.7060	61.398779	0.000375	3.749745	1.270448	0.000150
 372	3.6914e+01	14.7477	61.564301	0.000416	4.155123	1.407794	0.000166
 373	3.7014e+01	14.7814	61.653118	0.000223	2.229578	0.755401	0.000089
 374	3.7114e+01	14.8215	61.794418	0.000355	3.547056	1.201775	0.000142
 375	3.7213e+01	14.8584	61.911495	0.000294	2.938989	0.995756	0.000118
 376	3.7313e+01	14.8969	62.068943	0.000395	3.952434	1.339121	0.000158
 377	3.7412e+01	14.9370	62.165835	0.000243	2.432267	0.824074	0.000097
 378	3.7511e+01	14.9851	62.319246	0.000385	3.851089	1.304784	0.000154
 379	3.7611e+01	15.0140	62.484768	0.000416	4.155123	1.407794	0.000166
 380	3.7711e+01	15.0605	62.553400	0.000172	1.722856	0.583719	0.000069
 381	3.7810e+01	15.1022	62.718922	0.000416	4.155123	1.407794	0.000166
 382	3.7910e+01	15.1456	62.868296	0.000375	3.749745	1.270448	0.000150
 383	3.8009e+01	15.1809	62.985373	0.000294	2.938989	0.995756	0.000118
 384	3.8108e+01	15.2242	63.102450	0.000294	2.938989	0.995756	0.000118
 385	3.8208e+01	15.2611	63.259898	0.000395	3.952434	1.339121	0.000158
 386	3.8307e+01	15.3028	63.393124	0.000334	3.344367	1.133102	0.000134
 387	3.8407e+01	15.3477	63.570758	0.000446	4.459156	1.510803	0.000179
 388	3.8507e+01	15.3798	63.659575	0.000223	2.229578	0.755401	0.000089
 389	3.8606e+01	15.4167	63.804912	0.000365	3.648400	1.236111	0.000146
 390	3.8706e+01	15.4648	63.998694	0.000486	4.864534	1.648149	0.000195
 391	3.8805e+01	15.5017	64.099623	0.000253	2.533611	0.858411	0.000101
 392	3.8904e+01	15.5514	64.164217	0.000162	1.621511	0.549383	0.000065
 393	3.9004e+01	15.5867	64.333777	0.000426	4.256467	1.442130	0.000170
 394	3.9103e+01	15.6220	64.434705	0.000253	2.533611	0.858411	0.000101
 395	3.9203e+01	15.6541	64.620413	0.000466	4.661845	1.579476	0.000187
 396	3.9303e+01	15.7006	64.721342	0.000253	2.533611	0.858411	0.000101
 397	3.9402e+01	15.7375	64.882827	0.000405	4.053778	1.373457	0.000162
 398	3.9502e+01	15.7808	64.979718	0.000243	2.432267	0.824074	0.000097
 399	3.9601e+01	15.8225	65.129092	0.000375	3.749745	1.270448	0.000150
 400	3.9700e+01	15.8610	65.270392	0.000355	3.547056	1.201775	0.000142
 401	3.9800e+01	15.8996	65.403618	0.000334	3.344367	1.133102	0.000134
 402	3.9900e+01	15.9300	65.532806	0.000324	3.243022	1.098766	0.000130
 403	3.9999e+01	15.9846	65.674106	0.000355	3.547056	1.201775	0.000142
 404	4.0099e+01	16.0183	65.811368	0.000345	3.445711	1.167439	0.000138
 405	4.0198e+01	16.0520	65.960742	0.000375	3.749745	1.270448	0.000150
 406	4.0297e+01	16.1001	66.093968	0.000334	3.344367	1.133102	0.000134
 407	4.0397e+01	16.1386	66.243342	0.000375	3.749745	1.270448	0.000150
 408	4.0496e+01	16.1787	66.340233	0.000243	2.432267	0.824074	0.000097
 409	4.0596e+01	16.2268	66.497681	0.000395	3.952434	1.339121	0.000158
 410	4.0696e+01	16.2493	66.634944	0.000345	3.445711	1.167439	0.000138
 411	4.0795e+01	16.2974	66.747984	0.000284	2.837645	0.961420	0.000114
 412	4.0895e+01	16.3359	66.840838	0.000233	2.330922	0.789738	0.000093
 413	4.0994e+01	16.3824	66.990212	0.000375	3.749745	1.270448	0.000150
 414	4.1093e+01	16.4097	67.139586	0.000375	3.749745	1.270448	0.000150
 415	4.1193e+01	16.4530	67.260700	0.000304	3.040334	1.030093	0.000122
 416	4.1292e+01	16.4963	67.393925	0.000334	3.344367	1.133102	0.000134
 417	4.1392e+01	16.5364	67.535225	0.000355	3.547056	1.201775	0.000142
 418	4.1492e+01	16.5862	67.668451	0.000334	3.344367	1.133102	0.000134
 419	4.1591e+01	16.6166	67.797639	0.000324	3.243022	1.098766	0.000130
 420	4.1691e+01	16.6584	67.922790	0.000314	3.141678	1.064429	0.000126
 421	4.1790e+01	16.6953	68.064090	0.000355	3.547056	1.201775	0.000142
 422	4.1889e+01	16.7402	68.177130	0.000284	2.837645	0.961420	0.000114
 423	4.1989e+01	16.7771	68.314392	0.000345	3.445711	1.167439	0.000138
 424	4.2089e+01	16.8124	68.423395	0.000274	2.736300	0.927084	0.000110
 425	4.2188e+01	16.8525	68.576806	0.000385	3.851089	1.304784	0.000154
 426	4.2288e+01	16.8894	68.726180	0.000375	3.749745	1.270448	0.000150
 427	4.2387e+01	16.9407	68.863443	0.000345	3.445711	1.167439	0.000138
 428	4.2486e+01	16.9744	68.944186	0.000203	2.026889	0.686729	0.000081
 429	4.2586e+01	17.0241	69.089522	0.000365	3.648400	1.236111	0.000146
 430	4.2685e+01	17.0562	69.210637	0.000304	3.040334	1.030093	0.000122
 431	4.2785e+01	17.0947	69.331751	0.000304	3.040334	1.030093	0.000122
 432	4.2885e+01	17.1396	69.493236	0.000405	4.053778	1.373457	0.000162
 433	4.2984e+01	17.1749	69.622424	0.000324	3.243022	1.098766	0.000130
 434	4.3084e+01	17.2182	69.747576	0.000314	3.141678	1.064429	0.000126
 435	4.3183e+01	17.2471	69.864653	0.000294	2.938989	0.995756	0.000118
 436	4.3282e+01	17.2984	70.026138	0.000405	4.053778	1.373457	0.000162
 437	4.3382e+01	17.3402	70.135141	0.000274	2.736300	0.927084	0.000110
 438	4.3481e+01	17.3706	70.256255	0.000304	3.040334	1.030093	0.000122
 439	4.3581e+01	17.4188	70.417740	0.000405	4.053778	1.373457	0.000162
 440	4.3681e+01	17.4557	70.559040	0.000355	3.547056	1.201775	0.000142
 441	4.3780e+01	17.4958	70.651894	0.000233	2.330922	0.789738	0.000093
 442	4.3880e+01	17.5262	70.789157	0.000345	3.445711	1.167439	0.000138
 443	4.3979e+01	17.5760	70.930456	0.000355	3.547056	1.201775	0.000142
 444	4.4078e+01	17.6177	71.075793	0.000365	3.648400	1.236111	0.000146
 445	4.4178e+01	17.6594	71.225167	0.000375	3.749745	1.270448	0.000150
 446	4.4278e+01	17.6915	71.313984	0.000223	2.229578	0.755401	0.000089
 447	4.4377e+01	17.7364	71.443173	0.000324	3.243022	1.098766	0.000130
 448	4.4477e+01	17.7749	71.572361	0.000324	3.243022	1.098766	0.000130
 449	4.4576e+01	17.8166	71.766143	0.000486	4.864534	1.648149	0.000195
 450	4.4675e+01	17.8487	71.842849	0.000193	1.925545	0.652392	0.000077
 451	4.4775e+01	17.8872	71.992223	0.000375	3.749745	1.270448	0.000150
 452	4.4874e+01	17.9241	72.125449	0.000334	3.344367	1.133102	0.000134
 453	4.4974e+01	17.9754	72.230414	0.000263	2.634956	0.892747	0.000105
 454	4.5074e+01	18.0075	72.383825	0.000385	3.851089	1.304784	0.000154
 455	4.5173e+01	18.0572	72.508976	0.000314	3.141678	1.064429	0.000126
 456	4.5273e+01	18.0974	72.605868	0.000243	2.432267	0.824074	0.000097
 457	4.5372e+01	18.1407	72.779465	0.000436	4.357811	1.476466	0.000174
 458	4.5471e+01	18.1744	72.888467	0.000274	2.736300	0.927084	0.000110
 459	4.5571e+01	18.2113	73.025730	0.000345	3.445711	1.167439	0.000138
 460	4.5670e+01	18.2562	73.162992	0.000345	3.445711	1.167439	0.000138
 461	4.5770e+01	18.2883	73.271995	0.000274	2.736300	0.927084	0.000110
 462	4.5870e+01	18.3300	73.449629	0.000446	4.459156	1.510803	0.000179
 463	4.5969e+01	18.3620	73.590929	0.000355	3.547056	1.201775	0.000142
 464	4.6069e+01	18.4118	73.703969	0.000284	2.837645	0.961420	0.000114
 465	4.6168e+01	18.4471	73.821046	0.000294	2.938989	0.995756	0.000118
 466	4.6267e+01	18.4872	73.946197	0.000314	3.141678	1.064429	0.000126
 467	4.6367e+01	18.5273	74.087496	0.000355	3.547056	1.201775	0.000142
 468	4.6467e+01	18.5706	74.208611	0.000304	3.040334	1.030093	0.000122
 469	4.6566e+01	18.6123	74.337799	0.000324	3.243022	1.098766	0.000130
 470	4.6666e+01	18.6556	74.466987	0.000324	3.243022	1.098766	0.000130
 471	4.6765e+01	18.6925	74.608287	0.000355	3.547056	1.201775	0.000142
 472	4.6864e+01	18.7423	74.761698	0.000385	3.851089	1.304784	0.000154
 473	4.6964e+01	18.7711	74.902998	0.000355	3.547056	1.201775	0.000142
 474	4.7063e+01	18.8096	75.012001	0.000274	2.736300	0.927084	0.000110
 475	4.7163e+01	18.8465	75.125040	0.000284	2.837645	0.961420	0.000114
 476	4.7263e+01	18.8914	75.270377	0.000365	3.648400	1.236111	0.000146
 477	4.7362e+01	18.9316	75.403603	0.000334	3.344367	1.133102	0.000134
 478	4.7462e+01	18.9684	75.548940	0.000365	3.648400	1.236111	0.000146
 479	4.7561e+01	19.0134	75.682165	0.000334	3.344367	1.133102	0.000134
 480	4.7660e+01	19.0487	75.851725	0.000426	4.256467	1.442130	0.000170
 481	4.7760e+01	19.0888	75.936505	0.000213	2.128233	0.721065	0.000085
 482	4.7859e+01	19.1289	76.081842	0.000365	3.648400	1.236111	0.000146
 483	4.7959e+01	19.1642	76.211030	0.000324	3.243022	1.098766	0.000130
 484	4.8059e+01	19.2091	76.348293	0.000345	3.445711	1.167439	0.000138
 485	4.8158e+01	19.2508	76.469407	0.000304	3.040334	1.030093	0.000122
 486	4.8258e+01	19.2845	76.582446	0.000284	2.837645	0.961420	0.000114
 487	4.8357e+01	19.3310	76.687412	0.000263	2.634956	0.892747	0.000105
 488	4.8456e+01	19.3631	76.869083	0.000456	4.560500	1.545139	0.000183
 489	4.8556e+01	19.4048	77.014420	0.000365	3.648400	1.236111	0.000146
 490	4.8656e+01	19.4353	77.119385	0.000263	2.634956	0.892747	0.000105
 491	4.8755e+01	19.4882	77.244537	0.000314	3.141678	1.064429	0.000126
 492	4.8855e+01	19.5219	77.385836	0.000355	3.547056	1.201775	0.000142
 493	4.8954e+01	19.5604	77.551359	0.000416	4.155123	1.407794	0.000166
 494	4.9053e+01	19.6085	77.636139	0.000213	2.128233	0.721065	0.000085
 495	4.9153e+01	19.6502	77.813773	0.000446	4.459156	1.510803	0.000179
 496	4.9252e+01	19.6904	77.963147	0.000375	3.749745	1.270448	0.000150
 497	4.9352e+01	19.7208	78.096372	0.000334	3.344367	1.133102	0.000134
 498	4.9452e+01	19.7641	78.189226	0.000233	2.330922	0.789738	0.000093
 499	4.9551e+01	19.8010	78.378972	0.000476	4.763189	1.613812	0.000191
 500	4.9651e+01	19.8556	78.471826	0.000233	2.330922	0.789738	0.000093
 501	4.9750e+01	19.8797	78.617163	0.000365	3.648400	1.236111	0.000146
 502	4.9849e+01	19.9214	78.766537	0.000375	3.749745	1.270448	0.000150
 503	4.9949e+01	19.9631	78.911874	0.000365	3.648400	1.236111	0.000146
 504	5.0048e+01	19.9326	78.835168	0.000193	1.925545	0.652392	-0.000077
 505	5.0148e+01	19.8877	78.762500	0.000182	1.824200	0.618056	-0.000073
 506	5.0248e+01	19.8299	78.685794	0.000193	1.925545	0.652392	-0.000077
 507	5.0347e+01	19.8107	78.613126	0.000182	1.824200	0.618056	-0.000073
 508	5.0447e+01	19.7754	78.556606	0.000142	1.418822	0.480710	-0.000057
 509	5.0546e+01	19.7160	78.467789	0.000223	2.229578	0.755401	-0.000089
 510	5.0645e+01	19.6871	78.395120	0.000182	1.824200	0.618056	-0.000073
 511	5.0745e+01	19.6519	78.346675	0.000122	1.216133	0.412037	-0.000049
 512	5.0844e+01	19.6117	78.225561	0.000304	3.040334	1.030093	-0.000122
 513	5.0944e+01	19.5652	78.165004	0.000152	1.520167	0.515046	-0.000061
 514	5.1044e+01	19.5331	78.072149	0.000233	2.330922	0.789738	-0.000093
 515	5.1143e+01	19.4930	78.007555	0.000162	1.621511	0.549383	-0.000065
 516	5.1242e+01	19.4417	77.886441	0.000304	3.040334	1.030093	-0.000122
 517	5.1342e+01	19.4064	77.829921	0.000142	1.418822	0.480710	-0.000057
 518	5.1441e+01	19.3647	77.728993	0.000253	2.533611	0.858411	-0.000101
 519	5.1541e+01	19.3198	77.624027	0.000263	2.634956	0.892747	-0.000105
 520	5.1641e+01	19.2813	77.547322	0.000193	1.925545	0.652392	-0.000077
 521	5.1740e+01	19.2508	77.482728	0.000162	1.621511	0.549383	-0.000065
 522	5.1840e+01	19.2091	77.393911	0.000223	2.229578	0.755401	-0.000089
 523	5.1939e+01	19.1658	77.345465	0.000122	1.216133	0.412037	-0.000049
 524	5.2038e+01	19.1305	77.204165	0.000355	3.547056	1.201775	-0.000142
 525	5.2138e+01	19.0759	77.123423	0.000203	2.026889	0.686729	-0.000081
 526	5.2237e+01	19.0422	77.030568	0.000233	2.330922	0.789738	-0.000093
 527	5.2337e+01	19.0134	76.937714	0.000233	2.330922	0.789738	-0.000093
 528	5.2437e+01	18.9749	76.816600	0.000304	3.040334	1.030093	-0.000122
 529	5.2536e+01	18.9171	76.719709	0.000243	2.432267	0.824074	-0.000097
 530	5.2636e+01	18.8914	76.634929	0.000213	2.128233	0.721065	-0.000085
 531	5.2735e+01	18.8497	76.562261	0.000182	1.824200	0.618056	-0.000073
 532	5.2834e+01	18.8112	76.505741	0.000142	1.418822	0.480710	-0.000057
 533	5.2934e+01	18.7695	76.388664	0.000294	2.938989	0.995756	-0.000118
 534	5.3033e+01	18.7246	76.259476	0.000324	3.243022	1.098766	-0.000130
 535	5.3133e+01	18.6925	76.162584	0.000243	2.432267	0.824074	-0.000097
 536	5.3233e+01	18.6492	76.093953	0.000172	1.722856	0.583719	-0.000069
 537	5.3332e+01	18.6043	75.976876	0.000294	2.938989	0.995756	-0.000118
 538	5.3431e+01	18.5738	75.892096	0.000213	2.128233	0.721065	-0.000085
 539	5.3531e+01	18.5305	75.783094	0.000274	2.736300	0.927084	-0.000110
 540	5.3630e+01	18.4888	75.694277	0.000223	2.229578	0.755401	-0.000089
 541	5.3730e+01	18.4455	75.617571	0.000193	1.925545	0.652392	-0.000077
 542	5.3830e+01	18.4102	75.476271	0.000355	3.547056	1.201775	-0.000142
 543	5.3929e+01	18.3813	75.387454	0.000223	2.229578	0.755401	-0.000089
 544	5.4029e+01	18.3300	75.314786	0.000182	1.824200	0.618056	-0.000073
 545	5.4128e+01	18.2947	75.181560	0.000334	3.344367	1.133102	-0.000134
 546	5.4227e+01	18.2433	75.092743	0.000223	2.229578	0.755401	-0.000089
 547	5.4327e+01	18.2080	74.971629	0.000304	3.040334	1.030093	-0.000122
 548	5.4426e+01	18.1744	74.854552	0.000294	2.938989	0.995756	-0.000118
 549	5.4526e+01	18.1294	74.769772	0.000213	2.128233	0.721065	-0.000085
 550	5.4626e+01	18.0909	74.672881	0.000243	2.432267	0.824074	-0.000097
 551	5.4725e+01	18.0572	74.580027	0.000233	2.330922	0.789738	-0.000093
 552	5.4825e+01	18.0123	74.487173	0.000233	2.330922	0.789738	-0.000093
 553	5.4924e+01	17.9722	74.374133	0.000284	2.837645	0.961420	-0.000114
 554	5.5023e+01	17.9209	74.277242	0.000243	2.432267	0.824074	-0.000097
 555	5.5123e+01	17.8936	74.164202	0.000284	2.837645	0.961420	-0.000114
 556	5.5222e+01	17.8487	74.051162	0.000284	2.837645	0.961420	-0.000114
 557	5.5322e+01	17.8118	73.970420	0.000203	2.026889	0.686729	-0.000081
 558	5.5422e+01	17.7749	73.881603	0.000223	2.229578	0.755401	-0.000089
 559	5.5521e+01	17.7444	73.772600	0.000274	2.736300	0.927084	-0.000110
 560	5.5620e+01	17.6867	73.667634	0.000263	2.634956	0.892747	-0.000105
 561	5.5720e+01	17.6594	73.550557	0.000294	2.938989	0.995756	-0.000118
 562	5.5819e+01	17.6193	73.485963	0.000162	1.621511	0.549383	-0.000065
 563	5.5919e+01	17.5856	73.380998	0.000263	2.634956	0.892747	-0.000105
 564	5.6019e+01	17.5295	73.243735	0.000345	3.445711	1.167439	-0.000138
 565	5.6118e+01	17.4974	73.150881	0.000233	2.330922	0.789738	-0.000093
 566	5.6218e+01	17.4508	73.045915	0.000263	2.634956	0.892747	-0.000105
 567	5.6317e+01	17.4139	72.924801	0.000304	3.040334	1.030093	-0.000122
 568	5.6416e+01	17.3658	72.827910	0.000243	2.432267	0.824074	-0.000097
 569	5.6516e+01	17.3321	72.710833	0.000294	2.938989	0.995756	-0.000118
 570	5.6615e+01	17.3000	72.662388	0.000122	1.216133	0.412037	-0.000049
 571	5.6715e+01	17.2583	72.533199	0.000324	3.243022	1.098766	-0.000130
 572	5.6815e+01	17.2166	72.416122	0.000294	2.938989	0.995756	-0.000118
 573	5.6914e+01	17.1685	72.339417	0.000193	1.925545	0.652392	-0.000077
 574	5.7014e+01	17.1268	72.222340	0.000294	2.938989	0.995756	-0.000118
 575	5.7113e+01	17.1043	72.113337	0.000274	2.736300	0.927084	-0.000110
 576	5.7212e+01	17.0642	71.984149	0.000324	3.243022	1.098766	-0.000130
 577	5.7312e+01	17.0097	71.875146	0.000274	2.736300	0.927084	-0.000110
 578	5.7411e+01	16.9840	71.774218	0.000253	2.533611	0.858411	-0.000101
 579	5.7511e+01	16.9423	71.657141	0.000294	2.938989	0.995756	-0.000118
 580	5.7611e+01	16.8990	71.564287	0.000233	2.330922	0.789738	-0.000093
 581	5.7710e+01	16.8589	71.422987	0.000355	3.547056	1.201775	-0.000142
 582	5.7809e+01	16.8188	71.334170	0.000223	2.229578	0.755401	-0.000089
 583	5.7909e+01	16.7723	71.209019	0.000314	3.141678	1.064429	-0.000126
 584	5.8008e+01	16.7338	71.144425	0.000162	1.621511	0.549383	-0.000065
 585	5.8108e+01	16.6936	71.007162	0.000345	3.445711	1.167439	-0.000138
 586	5.8208e+01	16.6616	70.910271	0.000243	2.432267	0.824074	-0.000097
 587	5.8307e+01	16.6247	70.793194	0.000294	2.938989	0.995756	-0.000118
 588	5.8407e+01	16.5765	70.684191	0.000274	2.736300	0.927084	-0.000110
 589	5.8506e+01	16.5428	70.567114	0.000294	2.938989	0.995756	-0.000118
 590	5.8605e+01	16.4899	70.450037	0.000294	2.938989	0.995756	-0.000118
 591	5.8705e+01	16.4530	70.320849	0.000324	3.243022	1.098766	-0.000130
 592	5.8804e+01	16.4209	70.223958	0.000243	2.432267	0.824074	-0.000097
 593	5.8904e+01	16.3872	70.131103	0.000233	2.330922	0.789738	-0.000093
 594	5.9004e+01	16.3311	69.993841	0.000345	3.445711	1.167439	-0.000138
 595	5.9103e+01	16.2926	69.921172	0.000182	1.824200	0.618056	-0.000073
 596	5.9203e+01	16.2589	69.755650	0.000416	4.155123	1.407794	-0.000166
 597	5.9302e+01	16.2220	69.678944	0.000193	1.925545	0.652392	-0.000077
 598	5.9401e+01	16.1675	69.541682	0.000345	3.445711	1.167439	-0.000138
 599	5.9501e+01	16.1354	69.428642	0.000284	2.837645	0.961420	-0.000114
 600	5.9600e+01	16.1001	69.355973	0.000182	1.824200	0.618056	-0.000073
 601	5.9700e+01	16.0584	69.230822	0.000314	3.141678	1.064429	-0.000126
 602	5.9800e+01	16.0151	69.089522	0.000355	3.547056	1.201775	-0.000142
 603	5.9899e+01	15.9782	68.996668	0.000233	2.330922	0.789738	-0.000093
 604	5.9998e+01	15.9397	68.879591	0.000294	2.938989	0.995756	-0.000118
 605	6.0098e+01	15.9012	68.819034	0.000152	1.520167	0.515046	-0.000061
 606	6.0197e+01	15.8578	68.677735	0.000355	3.547056	1.201775	-0.000142
 607	6.0297e+01	15.8225	68.508175	0.000426	4.256467	1.442130	-0.000170
 608	6.0397e+01	15.7824	68.435506	0.000182	1.824200	0.618056	-0.000073
 609	6.0496e+01	15.7439	68.298244	0.000345	3.445711	1.167439	-0.000138
 610	6.0596e+01	15.7006	68.197315	0.000253	2.533611	0.858411	-0.000101
 611	6.0695e+01	15.6573	68.100424	0.000243	2.432267	0.824074	-0.000097
 612	6.0794e+01	15.6252	67.983347	0.000294	2.938989	0.995756	-0.000118
 613	6.0894e+01	15.5755	67.894530	0.000223	2.229578	0.755401	-0.000089
 614	6.0993e+01	15.5482	67.769379	0.000314	3.141678	1.064429	-0.000126
 615	6.1093e+01	15.5017	67.607894	0.000405	4.053778	1.373457	-0.000162
 616	6.1193e+01	15.4664	67.523114	0.000213	2.128233	0.721065	-0.000085
 617	6.1292e+01	15.4183	67.389888	0.000334	3.344367	1.133102	-0.000134
 618	6.1392e+01	15.3878	67.329331	0.000152	1.520167	0.515046	-0.000061
 619	6.1491e+01	15.3397	67.183994	0.000365	3.648400	1.236111	-0.000146
 620	6.1590e+01	15.2996	67.079029	0.000263	2.634956	0.892747	-0.000105
 621	6.1690e+01	15.2595	66.921581	0.000395	3.952434	1.339121	-0.000158
 622	6.1789e+01	15.2210	66.836801	0.000213	2.128233	0.721065	-0.000085
 623	6.1889e+01	15.1744	66.691464	0.000365	3.648400	1.236111	-0.000146
 624	6.1989e+01	15.1375	66.558238	0.000334	3.344367	1.133102	-0.000134
 625	6.2088e+01	15.1135	66.497681	0.000152	1.520167	0.515046	-0.000061
 626	6.2188e+01	15.0557	66.348307	0.000375	3.749745	1.270448	-0.000150
 627	6.2287e+01	15.0236	66.251416	0.000243	2.432267	0.824074	-0.000097
 628	6.2386e+01	14.9787	66.146450	0.000263	2.634956	0.892747	-0.000105
 629	6.2486e+01	14.9498	66.029374	0.000294	2.938989	0.995756	-0.000118
 630	6.2586e+01	14.9017	65.924408	0.000263	2.634956	0.892747	-0.000105
 631	6.2685e+01	14.8728	65.766960	0.000395	3.952434	1.339121	-0.000158
 632	6.2785e+01	14.8279	65.666031	0.000253	2.533611	0.858411	-0.000101
 633	6.2884e+01	14.7798	65.557029	0.000274	2.736300	0.927084	-0.000110
 634	6.2983e+01	14.7397	65.435915	0.000304	3.040334	1.030093	-0.000122
 635	6.3083e+01	14.7028	65.314801	0.000304	3.040334	1.030093	-0.000122
 636	6.3182e+01	14.6643	65.205798	0.000274	2.736300	0.927084	-0.000110
 637	6.3282e+01	14.6274	65.072572	0.000334	3.344367	1.133102	-0.000134
 638	6.3382e+01	14.5809	64.951458	0.000304	3.040334	1.030093	-0.000122
 639	6.3481e+01	14.5440	64.826307	0.000314	3.141678	1.064429	-0.000126
 640	6.3581e+01	14.4975	64.729416	0.000243	2.432267	0.824074	-0.000097
 641	6.3680e+01	14.4686	64.652710	0.000193	1.925545	0.652392	-0.000077
 642	6.3779e+01	14.4156	64.527559	0.000314	3.141678	1.064429	-0.000126
 643	6.3879e+01	14.3916	64.366074	0.000405	4.053778	1.373457	-0.000162
 644	6.3978e+01	14.3418	64.253034	0.000284	2.837645	0.961420	-0.000114
 645	6.4078e+01	14.3114	64.135957	0.000294	2.938989	0.995756	-0.000118
 646	6.4177e+01	14.2664	64.018880	0.000294	2.938989	0.995756	-0.000118
 647	6.4277e+01	14.2199	63.930063	0.000223	2.229578	0.755401	-0.000089
 648	6.4376e+01	14.1910	63.768578	0.000405	4.053778	1.373457	-0.000162
 649	6.4476e+01	14.1413	63.643426	0.000314	3.141678	1.064429	-0.000126
 650	6.4576e+01	14.1189	63.530387	0.000284	2.837645	0.961420	-0.000114
 651	6.4675e+01	14.0659	63.389087	0.000355	3.547056	1.201775	-0.000142
 652	6.4775e+01	14.0210	63.288158	0.000253	2.533611	0.858411	-0.000101
 653	6.4874e+01	13.9825	63.175119	0.000284	2.837645	0.961420	-0.000114
 654	6.4974e+01	13.9488	63.041893	0.000334	3.344367	1.133102	-0.000134
 655	6.5073e+01	13.9103	62.916742	0.000314	3.141678	1.064429	-0.000126
 656	6.5172e+01	13.8702	62.799665	0.000294	2.938989	0.995756	-0.000118
 657	6.5272e+01	13.8269	62.678551	0.000304	3.040334	1.030093	-0.000122
 658	6.5371e+01	13.7723	62.577623	0.000253	2.533611	0.858411	-0.000101
 659	6.5471e+01	13.7483	62.448434	0.000324	3.243022	1.098766	-0.000130
 660	6.5570e+01	13.7114	62.323283	0.000314	3.141678	1.064429	-0.000126
 661	6.5670e+01	13.6681	62.194095	0.000324	3.243022	1.098766	-0.000130
 662	6.5769e+01	13.6167	62.068943	0.000314	3.141678	1.064429	-0.000126
 663	6.5869e+01	13.5991	61.963978	0.000263	2.634956	0.892747	-0.000105
 664	6.5969e+01	13.5494	61.822678	0.000355	3.547056	1.201775	-0.000142
 665	6.6068e+01	13.5060	61.705601	0.000294	2.938989	0.995756	-0.000118
 666	6.6168e+01	13.4643	61.556227	0.000375	3.749745	1.270448	-0.000150
 667	6.6267e+01	13.4226	61.467410	0.000223	2.229578	0.755401	-0.000089
 668	6.6367e+01	13.3921	61.342259	0.000314	3.141678	1.064429	-0.000126
 669	6.6466e+01	13.3488	61.245368	0.000243	2.432267	0.824074	-0.000097
 670	6.6566e+01	13.3135	61.079845	0.000416	4.155123	1.407794	-0.000166
 671	6.6665e+01	13.2686	60.974880	0.000263	2.634956	0.892747	-0.000105
 672	6.6764e+01	13.2285	60.861840	0.000284	2.837645	0.961420	-0.000114
 673	6.6864e+01	13.1884	60.736689	0.000314	3.141678	1.064429	-0.000126
 674	6.6963e+01	13.1515	60.575203	0.000405	4.053778	1.373457	-0.000162
 675	6.7063e+01	13.1050	60.494460	0.000203	2.026889	0.686729	-0.000081
 676	6.7162e+01	13.0649	60.365272	0.000324	3.243022	1.098766	-0.000130
 677	6.7262e+01	13.0312	60.228010	0.000345	3.445711	1.167439	-0.000138
 678	6.7362e+01	12.9927	60.147267	0.000203	2.026889	0.686729	-0.000081
 679	6.7461e+01	12.9494	59.965596	0.000456	4.560500	1.545139	-0.000183
 680	6.7561e+01	12.9093	59.876779	0.000223	2.229578	0.755401	-0.000089
 681	6.7660e+01	12.8643	59.783925	0.000233	2.330922	0.789738	-0.000093
 682	6.7760e+01	12.8307	59.606291	0.000446	4.459156	1.510803	-0.000179
 683	6.7859e+01	12.7841	59.493251	0.000284	2.837645	0.961420	-0.000114
 684	6.7959e+01	12.7569	59.388285	0.000263	2.634956	0.892747	-0.000105
 685	6.8058e+01	12.7135	59.291394	0.000243	2.432267	0.824074	-0.000097
 686	6.8157e+01	12.6718	59.129909	0.000405	4.053778	1.373457	-0.000162
 687	6.8257e+01	12.6365	59.008795	0.000304	3.040334	1.030093	-0.000122
 688	6.8356e+01	12.6012	58.867495	0.000355	3.547056	1.201775	-0.000142
 689	6.8456e+01	12.5515	58.778678	0.000223	2.229578	0.755401	-0.000089
 690	6.8555e+01	12.5178	58.629304	0.000375	3.749745	1.270448	-0.000150
 691	6.8655e+01	12.4681	58.496078	0.000334	3.344367	1.133102	-0.000134
 692	6.8754e+01	12.4280	58.366890	0.000324	3.243022	1.098766	-0.000130
 693	6.8854e+01	12.4023	58.261924	0.000263	2.634956	0.892747	-0.000105
 694	6.8954e+01	12.3590	58.116588	0.000365	3.648400	1.236111	-0.000146
 695	6.9053e+01	12.3125	58.007585	0.000274	2.736300	0.927084	-0.000110
 696	6.9153e+01	12.2708	57.874359	0.000334	3.344367	1.133102	-0.000134
 697	6.9252e+01	12.2291	57.733060	0.000355	3.547056	1.201775	-0.000142
 698	6.9352e+01	12.1922	57.607908	0.000314	3.141678	1.064429	-0.000126
 699	6.9451e+01	12.1569	57.478720	0.000324	3.243022	1.098766	-0.000130
 700	6.9550e+01	12.1200	57.353569	0.000314	3.141678	1.064429	-0.000126
 701	6.9650e+01	12.0783	57.224381	0.000324	3.243022	1.098766	-0.000130
 702	6.9749e+01	12.0334	57.075006	0.000375	3.749745	1.270448	-0.000150
 703	6.9849e+01	11.9948	56.961967	0.000284	2.837645	0.961420	-0.000114
 704	6.9948e+01	11.9596	56.832778	0.000324	3.243022	1.098766	-0.000130
 705	7.0048e+01	11.9162	56.723776	0.000274	2.736300	0.927084	-0.000110
 706	7.0147e+01	11.8842	56.566327	0.000395	3.952434	1.339121	-0.000158
 707	7.0247e+01	11.8344	56.453288	0.000284	2.837645	0.961420	-0.000114
 708	7.0347e+01	11.7975	56.332174	0.000304	3.040334	1.030093	-0.000122
 709	7.0446e+01	11.7542	56.194911	0.000345	3.445711	1.167439	-0.000138
 710	7.0546e+01	11.7237	56.061685	0.000334	3.344367	1.133102	-0.000134
 711	7.0645e+01	11.6852	55.956720	0.000263	2.634956	0.892747	-0.000105
 712	7.0745e+01	11.6387	55.811383	0.000365	3.648400	1.236111	-0.000146
 713	7.0844e+01	11.5922	55.649898	0.000405	4.053778	1.373457	-0.000162
 714	7.0944e+01	11.5633	55.532821	0.000294	2.938989	0.995756	-0.000118
 715	7.1043e+01	11.5136	55.427855	0.000263	2.634956	0.892747	-0.000105
 716	7.1142e+01	11.4831	55.302704	0.000314	3.141678	1.064429	-0.000126
 717	7.1242e+01	11.4462	55.137181	0.000416	4.155123	1.407794	-0.000166
 718	7.1341e+01	11.3997	55.032216	0.000263	2.634956	0.892747	-0.000105
 719	7.1441e+01	11.3612	54.898990	0.000334	3.344367	1.133102	-0.000134
 720	7.1540e+01	11.3114	54.753653	0.000365	3.648400	1.236111	-0.000146
 721	7.1640e+01	11.2794	54.620428	0.000334	3.344367	1.133102	-0.000134
 722	7.1740e+01	11.2360	54.462980	0.000395	3.952434	1.339121	-0.000158
 723	7.1839e+01	11.2008	54.329754	0.000334	3.344367	1.133102	-0.000134
 724	7.1939e+01	11.1590	54.240937	0.000223	2.229578	0.755401	-0.000089
 725	7.2038e+01	11.1125	54.067340	0.000436	4.357811	1.476466	-0.000174
 726	7.2138e+01	11.0820	53.982561	0.000213	2.128233	0.721065	-0.000085
 727	7.2237e+01	11.0467	53.804927	0.000446	4.459156	1.510803	-0.000179
 728	7.2337e+01	10.9954	53.667664	0.000345	3.445711	1.167439	-0.000138
 729	7.2436e+01	10.9569	53.522327	0.000365	3.648400	1.236111	-0.000146
 730	7.2535e+01	10.9264	53.385064	0.000345	3.445711	1.167439	-0.000138
 731	7.2635e+01	10.8799	53.288173	0.000243	2.432267	0.824074	-0.000097
 732	7.2734e+01	10.8414	53.150911	0.000345	3.445711	1.167439	-0.000138
 733	7.2834e+01	10.8045	53.009611	0.000355	3.547056	1.201775	-0.000142
 734	7.2933e+01	10.7548	52.892534	0.000294	2.938989	0.995756	-0.000118
 735	7.3033e+01	10.7243	52.735086	0.000395	3.952434	1.339121	-0.000158
 736	7.3132e+01	10.6794	52.630120	0.000263	2.634956	0.892747	-0.000105
 737	7.3232e+01	10.6280	52.509006	0.000304	3.040334	1.030093	-0.000122
 738	7.3332e+01	10.5992	52.375780	0.000334	3.344367	1.133102	-0.000134
 739	7.3431e+01	10.5575	52.218332	0.000395	3.952434	1.339121	-0.000158
 740	7.3531e+01	10.5157	52.072995	0.000365	3.648400	1.236111	-0.000146
 741	7.3630e+01	10.4740	51.955918	0.000294	2.938989	0.995756	-0.000118
 742	7.3730e+01	10.4387	51.798470	0.000395	3.952434	1.339121	-0.000158
 743	7.3829e+01	10.4034	51.665245	0.000334	3.344367	1.133102	-0.000134
 744	7.3928e+01	10.3633	51.540093	0.000314	3.141678	1.064429	-0.000126
 745	7.4028e+01	10.3232	51.406868	0.000334	3.344367	1.133102	-0.000134
 746	7.4127e+01	10.2863	51.253457	0.000385	3.851089	1.304784	-0.000154
 747	7.4227e+01	10.2398	51.091971	0.000405	4.053778	1.373457	-0.000162
 748	7.4326e+01	10.2093	50.970857	0.000304	3.040334	1.030093	-0.000122
 749	7.4426e+01	10.1692	50.825520	0.000365	3.648400	1.236111	-0.000146
 750	7.4525e+01	10.1179	50.708443	0.000294	2.938989	0.995756	-0.000118
 751	7.4625e+01	10.0890	50.546958	0.000405	4.053778	1.373457	-0.000162
 752	7.4725e+01	10.0393	50.466215	0.000203	2.026889	0.686729	-0.000081
 753	7.4824e+01	10.0120	50.252247	0.000537	5.371256	1.819831	-0.000215
 754	7.4924e+01	9.9575	50.102873	0.000375	3.749745	1.270448	-0.000150
 755	7.5023e+01	9.9302	49.969648	0.000334	3.344367	1.133102	-0.000134
 756	7.5123e+01	9.8805	49.860645	0.000274	2.736300	0.927084	-0.000110
 757	7.5222e+01	9.8404	49.711271	0.000375	3.749745	1.270448	-0.000150
 758	7.5322e+01	9.8035	49.565934	0.000365	3.648400	1.236111	-0.000146
 759	7.5421e+01	9.7666	49.432709	0.000334	3.344367	1.133102	-0.000134
 760	7.5520e+01	9.7168	49.315632	0.000294	2.938989	0.995756	-0.000118
 761	7.5620e+01	9.6848	49.121849	0.000486	4.864534	1.648149	-0.000195
 762	7.5719e+01	9.6350	49.012846	0.000274	2.736300	0.927084	-0.000110
 763	7.5819e+01	9.6142	48.847324	0.000416	4.155123	1.407794	-0.000166
 764	7.5918e+01	9.5612	48.726210	0.000304	3.040334	1.030093	-0.000122
 765	7.6018e+01	9.5179	48.564724	0.000405	4.053778	1.373457	-0.000162
 766	7.6118e+01	9.4858	48.407276	0.000395	3.952434	1.339121	-0.000158
 767	7.6217e+01	9.4457	48.318459	0.000223	2.229578	0.755401	-0.000089
 768	7.6317e+01	9.4104	48.140825	0.000446	4.459156	1.510803	-0.000179
 769	7.6416e+01	9.3671	48.011637	0.000324	3.243022	1.098766	-0.000130
 770	7.6516e+01	9.3302	47.862263	0.000375	3.749745	1.270448	-0.000150
 771	7.6615e+01	9.2837	47.737112	0.000314	3.141678	1.064429	-0.000126
 772	7.6715e+01	9.2500	47.571589	0.000416	4.155123	1.407794	-0.000166
 773	7.6814e+01	9.2099	47.402029	0.000426	4.256467	1.442130	-0.000170
 774	7.6913e+01	9.1682	47.309175	0.000233	2.330922	0.789738	-0.000093
 775	7.7013e+01	9.1249	47.123467	0.000466	4.661845	1.579476	-0.000187
 776	7.7112e+01	9.0848	47.002353	0.000304	3.040334	1.030093	-0.000122
 777	7.7212e+01	9.0527	46.852979	0.000375	3.749745	1.270448	-0.000150
 778	7.7311e+01	9.0094	46.711679	0.000355	3.547056	1.201775	-0.000142
 779	7.7411e+01	8.9580	46.574416	0.000345	3.445711	1.167439	-0.000138
 780	7.7510e+01	8.9260	46.437154	0.000345	3.445711	1.167439	-0.000138
 781	7.7610e+01	8.8891	46.279706	0.000395	3.952434	1.339121	-0.000158
 782	7.7710e+01	8.8393	46.134369	0.000365	3.648400	1.236111	-0.000146
 783	7.7809e+01	8.7976	45.960772	0.000436	4.357811	1.476466	-0.000174
 784	7.7909e+01	8.7655	45.771026	0.000476	4.763189	1.613812	-0.000191
 785	7.8008e+01	8.7318	45.674135	0.000243	2.432267	0.824074	-0.000097
 786	7.8108e+01	8.6901	45.544947	0.000324	3.243022	1.098766	-0.000130
 787	7.8207e+01	8.6484	45.363276	0.000456	4.560500	1.545139	-0.000183
 788	7.8306e+01	8.6083	45.250236	0.000284	2.837645	0.961420	-0.000114
 789	7.8406e+01	8.5650	45.068565	0.000456	4.560500	1.545139	-0.000183
 790	7.8505e+01	8.5185	44.951488	0.000294	2.938989	0.995756	-0.000118
 791	7.8605e+01	8.4912	44.822300	0.000324	3.243022	1.098766	-0.000130
 792	7.8704e+01	8.4527	44.620443	0.000507	5.067223	1.716821	-0.000203
 793	7.8804e+01	8.4142	44.479143	0.000355	3.547056	1.201775	-0.000142
 794	7.8903e+01	8.3645	44.382252	0.000243	2.432267	0.824074	-0.000097
 795	7.9003e+01	8.3276	44.192506	0.000476	4.763189	1.613812	-0.000191
 796	7.9103e+01	8.2907	44.031021	0.000405	4.053778	1.373457	-0.000162
 797	7.9202e+01	8.2586	43.917981	0.000284	2.837645	0.961420	-0.000114
 798	7.9302e+01	8.2024	43.740347	0.000446	4.459156	1.510803	-0.000179
 799	7.9401e+01	8.1736	43.599047	0.000355	3.547056	1.201775	-0.000142
 800	7.9501e+01	8.1303	43.441599	0.000395	3.952434	1.339121	-0.000158
 801	7.9600e+01	8.0853	43.316448	0.000314	3.141678	1.064429	-0.000126
 802	7.9700e+01	8.0516	43.167074	0.000375	3.749745	1.270448	-0.000150
 803	7.9799e+01	8.0051	42.965217	0.000507	5.067223	1.716821	-0.000203
 804	7.9898e+01	7.9698	42.860252	0.000263	2.634956	0.892747	-0.000105
 805	7.9998e+01	7.9313	42.686655	0.000436	4.357811	1.476466	-0.000174
 806	8.0097e+01	7.8928	42.496909	0.000476	4.763189	1.613812	-0.000191
 807	8.0197e+01	7.8575	42.412129	0.000213	2.128233	0.721065	-0.000085
 808	8.0296e+01	7.8126	42.218347	0.000486	4.864534	1.648149	-0.000195
 809	8.0396e+01	7.7757	42.089159	0.000324	3.243022	1.098766	-0.000130
 810	8.0496e+01	7.7292	41.972082	0.000294	2.938989	0.995756	-0.000118
 811	8.0595e+01	7.6875	41.758114	0.000537	5.371256	1.819831	-0.000215
 812	8.0695e+01	7.6490	41.641037	0.000294	2.938989	0.995756	-0.000118
 813	8.0794e+01	7.6121	41.479551	0.000405	4.053778	1.373457	-0.000162
 814	8.0894e+01	7.5736	41.301917	0.000446	4.459156	1.510803	-0.000179
 815	8.0993e+01	7.5303	41.168692	0.000334	3.344367	1.133102	-0.000134
 816	8.1093e+01	7.4998	40.974909	0.000486	4.864534	1.648149	-0.000195
 817	8.1192e+01	7.4597	40.825535	0.000375	3.749745	1.270448	-0.000150
 818	8.1291e+01	7.4228	40.700384	0.000314	3.141678	1.064429	-0.000126
 819	8.1391e+01	7.3763	40.583307	0.000294	2.938989	0.995756	-0.000118
 820	8.1490e+01	7.3297	40.365302	0.000547	5.472600	1.854167	-0.000219
 821	8.1590e+01	7.3025	40.268410	0.000243	2.432267	0.824074	-0.000097
 822	8.1689e+01	7.2511	40.054442	0.000537	5.371256	1.819831	-0.000215
 823	8.1789e+01	7.2142	39.901031	0.000385	3.851089	1.304784	-0.000154
 824	8.1888e+01	7.1709	39.727434	0.000436	4.357811	1.476466	-0.000174
 825	8.1988e+01	7.1356	39.610357	0.000294	2.938989	0.995756	-0.000118
 826	8.2088e+01	7.0987	39.396389	0.000537	5.371256	1.819831	-0.000215
 827	8.2187e+01	7.0554	39.255089	0.000355	3.547056	1.201775	-0.000142
 828	8.2287e+01	7.0137	39.093604	0.000405	4.053778	1.373457	-0.000162
 829	8.2386e+01	6.9752	38.928081	0.000416	4.155123	1.407794	-0.000166
 830	8.2486e+01	6.9415	38.774670	0.000385	3.851089	1.304784	-0.000154
 831	8.2585e+01	6.8934	38.629333	0.000365	3.648400	1.236111	-0.000146
 832	8.2684e+01	6.8501	38.479959	0.000375	3.749745	1.270448	-0.000150
 833	8.2784e+01	6.8116	38.261954	0.000547	5.472600	1.854167	-0.000219
 834	8.2883e+01	6.7699	38.132766	0.000324	3.243022	1.098766	-0.000130
 835	8.2983e+01	6.7346	37.999540	0.000334	3.344367	1.133102	-0.000134
 836	8.3082e+01	6.6993	37.825943	0.000436	4.357811	1.476466	-0.000174
 837	8.3182e+01	6.6495	37.632161	0.000486	4.864534	1.648149	-0.000195
 838	8.3281e+01	6.6175	37.502972	0.000324	3.243022	1.098766	-0.000130
 839	8.3381e+01	6.5661	37.345524	0.000395	3.952434	1.339121	-0.000158
 840	8.3481e+01	6.5276	37.184039	0.000405	4.053778	1.373457	-0.000162
 841	8.3580e+01	6.4907	37.030628	0.000385	3.851089	1.304784	-0.000154
 842	8.3680e+01	6.4506	36.881254	0.000375	3.749745	1.270448	-0.000150
 843	8.3779e+01	6.4233	36.687471	0.000486	4.864534	1.648149	-0.000195
 844	8.3879e+01	6.3865	36.530023	0.000395	3.952434	1.339121	-0.000158
 845	8.3978e+01	6.3303	36.376612	0.000385	3.851089	1.304784	-0.000154
 846	8.4078e+01	6.2966	36.219163	0.000395	3.952434	1.339121	-0.000158
 847	8.4177e+01	6.2613	36.073826	0.000365	3.648400	1.236111	-0.000146
 848	8.4276e+01	6.2164	35.912341	0.000405	4.053778	1.373457	-0.000162
 849	8.4376e+01	6.1715	35.742781	0.000426	4.256467	1.442130	-0.000170
 850	8.4475e+01	6.1346	35.557073	0.000466	4.661845	1.579476	-0.000187
 851	8.4575e+01	6.0945	35.391550	0.000416	4.155123	1.407794	-0.000166
 852	8.4674e+01	6.0640	35.217954	0.000436	4.357811	1.476466	-0.000174
 853	8.4774e+01	6.0191	35.092802	0.000314	3.141678	1.064429	-0.000126
 854	8.4874e+01	5.9742	34.911131	0.000456	4.560500	1.545139	-0.000183
 855	8.4973e+01	5.9453	34.761757	0.000375	3.749745	1.270448	-0.000150
 856	8.5073e+01	5.8940	34.567975	0.000486	4.864534	1.648149	-0.000195
 857	8.5172e+01	5.8603	34.446861	0.000304	3.040334	1.030093	-0.000122
 858	8.5272e+01	5.8186	34.245004	0.000507	5.067223	1.716821	-0.000203
 859	8.5371e+01	5.7881	34.067370	0.000446	4.459156	1.510803	-0.000179
 860	8.5471e+01	5.7432	33.917996	0.000375	3.749745	1.270448	-0.000150
 861	8.5570e+01	5.6982	33.740362	0.000446	4.459156	1.510803	-0.000179
 862	8.5669e+01	5.6629	33.590988	0.000375	3.749745	1.270448	-0.000150
 863	8.5769e+01	5.6244	33.417391	0.000436	4.357811	1.476466	-0.000174
 864	8.5868e+01	5.5699	33.239757	0.000446	4.459156	1.510803	-0.000179
 865	8.5968e+01	5.5426	33.041937	0.000497	4.965878	1.682485	-0.000199
 866	8.6067e+01	5.4945	32.912749	0.000324	3.243022	1.098766	-0.000130
 867	8.6167e+01	5.4672	32.710892	0.000507	5.067223	1.716821	-0.000203
 868	8.6266e+01	5.4207	32.569593	0.000355	3.547056	1.201775	-0.000142
 869	8.6366e+01	5.3742	32.379847	0.000476	4.763189	1.613812	-0.000191
 870	8.6466e+01	5.3469	32.202213	0.000446	4.459156	1.510803	-0.000179
 871	8.6565e+01	5.2988	32.052839	0.000375	3.749745	1.270448	-0.000150
 872	8.6665e+01	5.2635	31.846945	0.000517	5.168567	1.751158	-0.000207
 873	8.6764e+01	5.2186	31.705646	0.000355	3.547056	1.201775	-0.000142
 874	8.6864e+01	5.1817	31.487640	0.000547	5.472600	1.854167	-0.000219
 875	8.6963e+01	5.1416	31.350378	0.000345	3.445711	1.167439	-0.000138
 876	8.7063e+01	5.1047	31.192929	0.000395	3.952434	1.339121	-0.000158
 877	8.7162e+01	5.0646	30.982998	0.000527	5.269911	1.785494	-0.000211
 878	8.7261e+01	5.0245	30.861884	0.000304	3.040334	1.030093	-0.000122
 879	8.7361e+01	4.9860	30.635805	0.000568	5.675289	1.922840	-0.000227
 880	8.7460e+01	4.9442	30.502579	0.000334	3.344367	1.133102	-0.000134
 881	8.7560e+01	4.9057	30.260351	0.000608	6.080667	2.060186	-0.000243
 882	8.7659e+01	4.8672	30.135200	0.000314	3.141678	1.064429	-0.000126
 883	8.7759e+01	4.8159	29.985826	0.000375	3.749745	1.270448	-0.000150
 884	8.7859e+01	4.7870	29.767820	0.000547	5.472600	1.854167	-0.000219
 885	8.7958e+01	4.7437	29.586149	0.000456	4.560500	1.545139	-0.000183
 886	8.8058e+01	4.7004	29.424664	0.000405	4.053778	1.373457	-0.000162
 887	8.8157e+01	4.6603	29.234918	0.000476	4.763189	1.613812	-0.000191
 888	8.8257e+01	4.6298	29.033062	0.000507	5.067223	1.716821	-0.000203
 889	8.8356e+01	4.5881	28.867539	0.000416	4.155123	1.407794	-0.000166
 890	8.8456e+01	4.5432	28.669719	0.000497	4.965878	1.682485	-0.000199
 891	8.8555e+01	4.5111	28.524383	0.000365	3.648400	1.236111	-0.000146
 892	8.8654e+01	4.4646	28.346749	0.000446	4.459156	1.510803	-0.000179
 893	8.8754e+01	4.4213	28.152966	0.000486	4.864534	1.648149	-0.000195
 894	8.8853e+01	4.3924	27.967258	0.000466	4.661845	1.579476	-0.000187
 895	8.8953e+01	4.3475	27.821921	0.000365	3.648400	1.236111	-0.000146
 896	8.9052e+01	4.3090	27.620064	0.000507	5.067223	1.716821	-0.000203
 897	8.9152e+01	4.2624	27.446467	0.000436	4.357811	1.476466	-0.000174
 898	8.9251e+01	4.2239	27.224425	0.000557	5.573945	1.888504	-0.000223
 899	8.9351e+01	4.1822	27.062939	0.000405	4.053778	1.373457	-0.000162
 900	8.9451e+01	4.1405	26.921640	0.000355	3.547056	1.201775	-0.000142
 901	8.9550e+01	4.1020	26.715746	0.000517	5.168567	1.751158	-0.000207
 902	8.9650e+01	4.0715	26.546186	0.000426	4.256467	1.442130	-0.000170
 903	8.9749e+01	4.0234	26.332218	0.000537	5.371256	1.819831	-0.000215
 904	8.9849e+01	3.9929	26.126324	0.000517	5.168567	1.751158	-0.000207
 905	8.9948e+01	3.9464	26.001173	0.000314	3.141678	1.064429	-0.000126
 906	9.0047e+01	3.9063	25.771056	0.000578	5.776634	1.957176	-0.000231
 907	9.0147e+01	3.8566	25.605533	0.000416	4.155123	1.407794	-0.000166
 908	9.0246e+01	3.8149	25.419825	0.000466	4.661845	1.579476	-0.000187
 909	9.0346e+01	3.7876	25.246228	0.000436	4.357811	1.476466	-0.000174
 910	9.0445e+01	3.7507	25.020149	0.000568	5.675289	1.922840	-0.000227
 911	9.0545e+01	3.7026	24.850589	0.000426	4.256467	1.442130	-0.000170
 912	9.0644e+01	3.6721	24.685066	0.000416	4.155123	1.407794	-0.000166
 913	9.0744e+01	3.6320	24.499358	0.000466	4.661845	1.579476	-0.000187
 914	9.0844e+01	3.5839	24.281353	0.000547	5.472600	1.854167	-0.000219
 915	9.0943e+01	3.5438	24.123905	0.000395	3.952434	1.339121	-0.000158
 916	9.1043e+01	3.5004	23.857454	0.000669	6.688734	2.266204	-0.000268
 917	9.1142e+01	3.4635	23.720191	0.000345	3.445711	1.167439	-0.000138
 918	9.1242e+01	3.4250	23.530446	0.000476	4.763189	1.613812	-0.000191
 919	9.1341e+01	3.3753	23.348775	0.000456	4.560500	1.545139	-0.000183
 920	9.1441e+01	3.3400	23.114621	0.000588	5.877978	1.991513	-0.000235
 921	9.1540e+01	3.3127	22.961210	0.000385	3.851089	1.304784	-0.000154
 922	9.1639e+01	3.2678	22.710907	0.000628	6.283356	2.128859	-0.000252
 923	9.1739e+01	3.2261	22.517125	0.000486	4.864534	1.648149	-0.000195
 924	9.1838e+01	3.1924	22.343528	0.000436	4.357811	1.476466	-0.000174
 925	9.1938e+01	3.1523	22.137634	0.000517	5.168567	1.751158	-0.000207
 926	9.2037e+01	3.1138	21.915591	0.000557	5.573945	1.888504	-0.000223
 927	9.2137e+01	3.0721	21.750069	0.000416	4.155123	1.407794	-0.000166
 928	9.2237e+01	3.0288	21.556286	0.000486	4.864534	1.648149	-0.000195
 929	9.2336e+01	2.9903	21.382689	0.000436	4.357811	1.476466	-0.000174
 930	9.2436e+01	2.9518	21.156610	0.000568	5.675289	1.922840	-0.000227
 931	9.2535e+01	2.9101	20.978976	0.000446	4.459156	1.510803	-0.000179
 932	9.2635e+01	2.8732	20.769045	0.000527	5.269911	1.785494	-0.000211
 933	9.2734e+01	2.8315	20.571225	0.000497	4.965878	1.682485	-0.000199
 934	9.2834e+01	2.7994	20.373406	0.000497	4.965878	1.682485	-0.000199
 935	9.2933e+01	2.7593	20.195772	0.000446	4.459156	1.510803	-0.000179
 936	9.3032e+01	2.7031	19.985840	0.000527	5.269911	1.785494	-0.000211
 937	9.3132e+01	2.6743	19.751687	0.000588	5.877978	1.991513	-0.000235
 938	9.3231e+01	2.6342	19.582127	0.000426	4.256467	1.442130	-0.000170
 939	9.3331e+01	2.5956	19.364122	0.000547	5.472600	1.854167	-0.000219
 940	9.3430e+01	2.5523	19.174376	0.000476	4.763189	1.613812	-0.000191
 941	9.3530e+01	2.5074	18.992705	0.000456	4.560500	1.545139	-0.000183
 942	9.3629e+01	2.4737	18.766625	0.000568	5.675289	1.922840	-0.000227
 943	9.3729e+01	2.4304	18.560732	0.000517	5.168567	1.751158	-0.000207
 944	9.3829e+01	2.3967	18.322541	0.000598	5.979323	2.025849	-0.000239
 945	9.3928e+01	2.3614	18.136832	0.000466	4.661845	1.579476	-0.000187
 946	9.4028e+01	2.3133	17.963235	0.000436	4.357811	1.476466	-0.000174
 947	9.4127e+01	2.2668	17.749267	0.000537	5.371256	1.819831	-0.000215
 948	9.4227e+01	2.2347	17.543373	0.000517	5.168567	1.751158	-0.000207
 949	9.4326e+01	2.1978	17.313257	0.000578	5.776634	1.957176	-0.000231
 950	9.4425e+01	2.1497	17.143697	0.000426	4.256467	1.442130	-0.000170
 951	9.4525e+01	2.1144	16.901469	0.000608	6.080667	2.060186	-0.000243
 952	9.4624e+01	2.0775	16.679426	0.000557	5.573945	1.888504	-0.000223
 953	9.4724e+01	2.0390	16.526015	0.000385	3.851089	1.304784	-0.000154
 954	9.4823e+01	1.9957	16.283787	0.000608	6.080667	2.060186	-0.000243
 955	9.4923e+01	1.9491	16.085967	0.000497	4.965878	1.682485	-0.000199
 956	9.5022e+01	1.9074	15.855851	0.000578	5.776634	1.957176	-0.000231
 957	9.5122e+01	1.8802	15.670142	0.000466	4.661845	1.579476	-0.000187
 958	9.5222e+01	1.8352	15.440026	0.000578	5.776634	1.957176	-0.000231
 959	9.5321e+01	1.7967	15.213946	0.000568	5.675289	1.922840	-0.000227
 960	9.5421e+01	1.7534	15.012089	0.000507	5.067223	1.716821	-0.000203
 961	9.5520e+01	1.7149	14.834455	0.000446	4.459156	1.510803	-0.000179
 962	9.5620e+01	1.6764	14.588190	0.000618	6.182012	2.094522	-0.000248
 963	9.5719e+01	1.6443	14.406519	0.000456	4.560500	1.545139	-0.000183
 964	9.5819e+01	1.5978	14.192551	0.000537	5.371256	1.819831	-0.000215
 965	9.5918e+01	1.5577	13.946285	0.000618	6.182012	2.094522	-0.000248
 966	9.6017e+01	1.5176	13.760577	0.000466	4.661845	1.579476	-0.000187
 967	9.6117e+01	1.4695	13.550646	0.000527	5.269911	1.785494	-0.000211
 968	9.6216e+01	1.4358	13.328604	0.000557	5.573945	1.888504	-0.000223
 969	9.6316e+01	1.3909	13.122710	0.000517	5.168567	1.751158	-0.000207
 970	9.6415e+01	1.3572	12.900667	0.000557	5.573945	1.888504	-0.000223
 971	9.6515e+01	1.3123	12.670551	0.000578	5.776634	1.957176	-0.000231
 972	9.6615e+01	1.2770	12.460619	0.000527	5.269911	1.785494	-0.000211
 973	9.6714e+01	1.2337	12.270874	0.000476	4.763189	1.613812	-0.000191
 974	9.6814e+01	1.1968	12.008460	0.000659	6.587389	2.231868	-0.000264
 975	9.6913e+01	1.1534	11.818715	0.000476	4.763189	1.613812	-0.000191
 976	9.7013e+01	1.1085	11.576487	0.000608	6.080667	2.060186	-0.000243
 977	9.7112e+01	1.0796	11.402890	0.000436	4.357811	1.476466	-0.000174
 978	9.7212e+01	1.0315	11.124328	0.000699	6.992767	2.369214	-0.000280
 979	9.7311e+01	0.9930	10.938619	0.000466	4.661845	1.579476	-0.000187
 980	9.7410e+01	0.9657	10.688317	0.000628	6.283356	2.128859	-0.000252
 981	9.7510e+01	0.9176	10.502609	0.000466	4.661845	1.579476	-0.000187
 982	9.7609e+01	0.8711	10.248269	0.000638	6.384700	2.163195	-0.000256
 983	9.7709e+01	0.8342	10.042375	0.000517	5.168567	1.751158	-0.000207
 984	9.7808e+01	0.8037	9.816296	0.000568	5.675289	1.922840	-0.000227
 985	9.7908e+01	0.7588	9.574067	0.000608	6.080667	2.060186	-0.000243
 986	9.8007e+01	0.7315	9.360099	0.000537	5.371256	1.819831	-0.000215
 987	9.8107e+01	0.6706	9.154205	0.000517	5.168567	1.751158	-0.000207
 988	9.8207e+01	0.6385	8.924089	0.000578	5.776634	1.957176	-0.000231
 989	9.8306e+01	0.6016	8.677823	0.000618	6.182012	2.094522	-0.000248
 990	9.8406e+01	0.5535	8.447707	0.000578	5.776634	1.957176	-0.000231
 991	9.8505e+01	0.5214	8.241813	0.000517	5.168567	1.751158	-0.000207
 992	9.8605e+01	0.4781	8.031882	0.000527	5.269911	1.785494	-0.000211
 993	9.8704e+01	0.4444	7.789653	0.000608	6.080667	2.060186	-0.000243
 994	9.8803e+01	0.4027	7.527240	0.000659	6.587389	2.231868	-0.000264
 995	9.8903e+01	0.3610	7.309234	0.000547	5.472600	1.854167	-0.000219
 996	9.9002e+01	0.3128	7.111415	0.000497	4.965878	1.682485	-0.000199
 997	9.9102e+01	0.2791	6.861112	0.000628	6.283356	2.128859	-0.000252
 998	9.9201e+01	0.2390	6.639070	0.000557	5.573945	1.888504	-0.000223
 999	9.9301e+01	0.2021	6.384730	0.000638	6.384700	2.163195	-0.000256
1000	9.9400e+01	0.1572	6.178836	0.000517	5.168567	1.751158	-0.000207
1001	9.9500e+01	0.1155	5.985054	0.000486	4.864534	1.648149	-0.000195
1002	9.9600e+01	0.0786	5.710529	0.000689	6.891423	2.334877	-0.000276
1003	9.9699e+01	0.0449	5.476375	0.000588	5.877978	1.991513	-0.000235
1004	9.9799e+01	-0.0064	5.262406	0.000537	5.371256	1.819831	-0.000215
1005	9.9898e+01	-0.0321	5.113032	0.000375	3.749745	1.270448	-0.000150
1006	9.9998e+01	-0.0674	4.850619	0.000659	6.587389	2.231868	-0.000264
1007	1.0010e+02	-0.1107	4.616465	0.000588	5.877978	1.991513	-0.000235
1008	1.0020e+02	-0.1588	4.394422	0.000557	5.573945	1.888504	-0.000223
1009	1.0030e+02	-0.1909	4.188528	0.000517	5.168567	1.751158	-0.000207
1010	1.0040e+02	-0.2342	3.958412	0.000578	5.776634	1.957176	-0.000231
1011	1.0050e+02	-0.2663	3.724258	0.000588	5.877978	1.991513	-0.000235
1012	1.0059e+02	-0.3112	3.486067	0.000598	5.979323	2.025849	-0.000239
1013	1.0069e+02	-0.3529	3.284210	0.000507	5.067223	1.716821	-0.000203
1014	1.0079e+02	-0.3914	3.001610	0.000709	7.094112	2.403550	-0.000284
1015	1.0089e+02	-0.4235	2.832051	0.000426	4.256467	1.442130	-0.000170
1016	1.0099e+02	-0.4668	2.557525	0.000689	6.891423	2.334877	-0.000276
1017	1.0109e+02	-0.5166	2.311260	0.000618	6.182012	2.094522	-0.000248
1018	1.0119e+02	-0.5519	2.101329	0.000527	5.269911	1.785494	-0.000211
1019	1.0129e+02	-0.5952	1.863138	0.000598	5.979323	2.025849	-0.000239
1020	1.0139e+02	-0.6289	1.641096	0.000557	5.573945	1.888504	-0.000223
1021	1.0149e+02	-0.6722	1.390793	0.000628	6.283356	2.128859	-0.000252
1022	1.0159e+02	-0.7155	1.188936	0.000507	5.067223	1.716821	-0.000203
1023	1.0169e+02	-0.7444	0.958820	0.000578	5.776634	1.957176	-0.000231
1024	1.0179e+02	-0.7813	0.676220	0.000709	7.094112	2.403550	-0.000284
1025	1.0189e+02	-0.8246	0.514735	0.000405	4.053778	1.373457	-0.000162
1026	1.0199e+02	-0.8679	0.211950	0.000760	7.600834	2.575232	-0.000304
1027	1.0209e+02	-0.8984	0.010093	0.000507	5.067223	1.716821	-0.000203
1028	1.0219e+02	-0.9465	-0.248284	0.000649	6.486045	2.197532	-0.000260
1029	1.0229e+02	-0.9882	-0.458215	0.000527	5.269911	1.785494	-0.000211
1030	1.0239e+02	-1.0219	-0.700443	0.000608	6.080667	2.060186	-0.000243
1031	1.0248e+02	-1.0620	-0.958820	0.000649	6.486045	2.197532	-0.000260
1032	1.0258e+02	-1.1021	-1.192974	0.000588	5.877978	1.991513	-0.000235
1033	1.0268e+02	-1.1486	-1.402905	0.000527	5.269911	1.785494	-0.000211
1034	1.0278e+02	-1.1855	-1.645133	0.000608	6.080667	2.060186	-0.000243
1035	1.0288e+02	-1.2192	-1.907547	0.000659	6.587389	2.231868	-0.000264
1036	1.0298e+02	-1.2625	-2.085181	0.000446	4.459156	1.510803	-0.000179
1037	1.0308e+02	-1.3139	-2.343557	0.000649	6.486045	2.197532	-0.000260
1038	1.0318e+02	-1.3460	-2.525228	0.000456	4.560500	1.545139	-0.000183
1039	1.0328e+02	-1.3877	-2.799754	0.000689	6.891423	2.334877	-0.000276
1040	1.0338e+02	-1.4246	-3.025833	0.000568	5.675289	1.922840	-0.000227
1041	1.0348e+02	-1.4663	-3.235764	0.000527	5.269911	1.785494	-0.000211
1042	1.0358e+02	-1.5000	-3.502215	0.000669	6.688734	2.266204	-0.000268
1043	1.0368e+02	-1.5433	-3.708109	0.000517	5.168567	1.751158	-0.000207
1044	1.0378e+02	-1.5850	-3.962449	0.000638	6.384700	2.163195	-0.000256
1045	1.0388e+02	-1.6299	-4.184491	0.000557	5.573945	1.888504	-0.000223
1046	1.0398e+02	-1.6556	-4.398459	0.000537	5.371256	1.819831	-0.000215
1047	1.0408e+02	-1.7101	-4.640688	0.000608	6.080667	2.060186	-0.000243
1048	1.0418e+02	-1.7470	-4.850619	0.000527	5.269911	1.785494	-0.000211
1049	1.0428e+02	-1.7855	-5.100921	0.000628	6.283356	2.128859	-0.000252
1050	1.0438e+02	-1.8160	-5.322963	0.000557	5.573945	1.888504	-0.000223
1051	1.0447e+02	-1.8786	-5.561154	0.000598	5.979323	2.025849	-0.000239
1052	1.0457e+02	-1.9042	-5.791271	0.000578	5.776634	1.957176	-0.000231
1053	1.0467e+02	-1.9427	-6.033499	0.000608	6.080667	2.060186	-0.000243
1054	1.0477e+02	-1.9812	-6.259579	0.000568	5.675289	1.922840	-0.000227
1055	1.0487e+02	-2.0181	-6.453361	0.000486	4.864534	1.648149	-0.000195
1056	1.0497e+02	-2.0679	-6.703664	0.000628	6.283356	2.128859	-0.000252
1057	1.0507e+02	-2.1015	-6.933781	0.000578	5.776634	1.957176	-0.000231
1058	1.0517e+02	-2.1368	-7.143712	0.000527	5.269911	1.785494	-0.000211
1059	1.0527e+02	-2.1898	-7.389977	0.000618	6.182012	2.094522	-0.000248
1060	1.0537e+02	-2.2267	-7.591834	0.000507	5.067223	1.716821	-0.000203
1061	1.0547e+02	-2.2620	-7.830025	0.000598	5.979323	2.025849	-0.000239
1062	1.0557e+02	-2.3053	-8.068216	0.000598	5.979323	2.025849	-0.000239
1063	1.0567e+02	-2.3374	-8.249887	0.000456	4.560500	1.545139	-0.000183
1064	1.0577e+02	-2.3855	-8.467892	0.000547	5.472600	1.854167	-0.000219
1065	1.0587e+02	-2.4288	-8.714157	0.000618	6.182012	2.094522	-0.000248
1066	1.0597e+02	-2.4625	-8.992720	0.000699	6.992767	2.369214	-0.000280
1067	1.0607e+02	-2.4930	-9.162280	0.000426	4.256467	1.442130	-0.000170
1068	1.0617e+02	-2.5427	-9.380285	0.000547	5.472600	1.854167	-0.000219
1069	1.0627e+02	-2.5876	-9.574067	0.000486	4.864534	1.648149	-0.000195
1070	1.0637e+02	-2.6197	-9.832444	0.000649	6.486045	2.197532	-0.000260
1071	1.0647e+02	-2.6582	-10.022189	0.000476	4.763189	1.613812	-0.000191
1072	1.0656e+02	-2.7079	-10.252306	0.000578	5.776634	1.957176	-0.000231
1073	1.0666e+02	-2.7400	-10.502609	0.000628	6.283356	2.128859	-0.000252
1074	1.0676e+02	-2.7882	-10.724651	0.000557	5.573945	1.888504	-0.000223
1075	1.0686e+02	-2.8251	-10.922471	0.000497	4.965878	1.682485	-0.000199
1076	1.0696e+02	-2.8636	-11.092030	0.000426	4.256467	1.442130	-0.000170
1077	1.0706e+02	-2.8988	-11.330221	0.000598	5.979323	2.025849	-0.000239
1078	1.0716e+02	-2.9406	-11.596672	0.000669	6.688734	2.266204	-0.000268
1079	1.0726e+02	-2.9839	-11.790455	0.000486	4.864534	1.648149	-0.000195
1080	1.0736e+02	-3.0127	-11.988275	0.000497	4.965878	1.682485	-0.000199
1081	1.0746e+02	-3.0673	-12.210317	0.000557	5.573945	1.888504	-0.000223
1082	1.0756e+02	-3.1042	-12.432360	0.000557	5.573945	1.888504	-0.000223
1083	1.0766e+02	-3.1363	-12.694773	0.000659	6.587389	2.231868	-0.000264
1084	1.0776e+02	-3.1780	-12.827999	0.000334	3.344367	1.133102	-0.000134
1085	1.0786e+02	-3.2197	-13.094450	0.000669	6.688734	2.266204	-0.000268
1086	1.0796e+02	-3.2598	-13.276121	0.000456	4.560500	1.545139	-0.000183
1087	1.0806e+02	-3.2951	-13.530460	0.000638	6.384700	2.163195	-0.000256
1088	1.0816e+02	-3.3448	-13.695983	0.000416	4.155123	1.407794	-0.000166
1089	1.0826e+02	-3.3785	-13.889766	0.000486	4.864534	1.648149	-0.000195
1090	1.0836e+02	-3.4202	-14.111808	0.000557	5.573945	1.888504	-0.000223
1091	1.0845e+02	-3.4635	-14.321739	0.000527	5.269911	1.785494	-0.000211
1092	1.0855e+02	-3.5052	-14.535707	0.000537	5.371256	1.819831	-0.000215
1093	1.0865e+02	-3.5373	-14.781973	0.000618	6.182012	2.094522	-0.000248
1094	1.0875e+02	-3.5839	-14.947495	0.000416	4.155123	1.407794	-0.000166
1095	1.0885e+02	-3.6240	-15.165500	0.000547	5.472600	1.854167	-0.000219
1096	1.0895e+02	-3.6609	-15.363320	0.000497	4.965878	1.682485	-0.000199
1097	1.0905e+02	-3.7010	-15.577288	0.000537	5.371256	1.819831	-0.000215
1098	1.0915e+02	-3.7427	-15.771071	0.000486	4.864534	1.648149	-0.000195
1099	1.0925e+02	-3.7780	-16.037522	0.000669	6.688734	2.266204	-0.000268
1100	1.0935e+02	-3.8149	-16.186896	0.000375	3.749745	1.270448	-0.000150
1101	1.0945e+02	-3.8614	-16.404901	0.000547	5.472600	1.854167	-0.000219
1102	1.0955e+02	-3.8887	-16.566387	0.000405	4.053778	1.373457	-0.000162
1103	1.0965e+02	-3.9400	-16.820726	0.000638	6.384700	2.163195	-0.000256
1104	1.0975e+02	-3.9785	-17.026620	0.000517	5.168567	1.751158	-0.000207
1105	1.0985e+02	-4.0154	-17.212328	0.000466	4.661845	1.579476	-0.000187
1106	1.0995e+02	-4.0571	-17.414185	0.000507	5.067223	1.716821	-0.000203
1107	1.1005e+02	-4.0828	-17.644302	0.000578	5.776634	1.957176	-0.000231
1108	1.1015e+02	-4.1389	-17.830010	0.000466	4.661845	1.579476	-0.000187
1109	1.1025e+02	-4.1694	-18.023793	0.000486	4.864534	1.648149	-0.000195
1110	1.1035e+02	-4.2175	-18.213538	0.000476	4.763189	1.613812	-0.000191
1111	1.1044e+02	-4.2624	-18.415395	0.000507	5.067223	1.716821	-0.000203
1112	1.1054e+02	-4.2993	-18.629363	0.000537	5.371256	1.819831	-0.000215
1113	1.1064e+02	-4.3330	-18.811034	0.000456	4.560500	1.545139	-0.000183
1114	1.1074e+02	-4.3812	-19.012891	0.000507	5.067223	1.716821	-0.000203
1115	1.1084e+02	-4.4068	-19.202636	0.000476	4.763189	1.613812	-0.000191
1116	1.1094e+02	-4.4614	-19.412567	0.000527	5.269911	1.785494	-0.000211
1117	1.1104e+02	-4.4935	-19.610387	0.000497	4.965878	1.682485	-0.000199
1118	1.1114e+02	-4.5352	-19.788021	0.000446	4.459156	1.510803	-0.000179
1119	1.1124e+02	-4.5705	-19.985840	0.000497	4.965878	1.682485	-0.000199
1120	1.1134e+02	-4.6138	-20.183660	0.000497	4.965878	1.682485	-0.000199
1121	1.1144e+02	-4.6571	-20.361294	0.000446	4.459156	1.510803	-0.000179
1122	1.1154e+02	-4.6972	-20.559114	0.000497	4.965878	1.682485	-0.000199
1123	1.1164e+02	-4.7437	-20.736748	0.000446	4.459156	1.510803	-0.000179
1124	1.1174e+02	-4.7710	-20.946679	0.000527	5.269911	1.785494	-0.000211
1125	1.1184e+02	-4.8143	-21.152573	0.000517	5.168567	1.751158	-0.000207
1126	1.1194e+02	-4.8528	-21.362504	0.000527	5.269911	1.785494	-0.000211
1127	1.1204e+02	-4.8913	-21.495729	0.000334	3.344367	1.133102	-0.000134
1128	1.1214e+02	-4.9314	-21.705660	0.000527	5.269911	1.785494	-0.000211
1129	1.1224e+02	-4.9763	-21.875220	0.000426	4.256467	1.442130	-0.000170
1130	1.1234e+02	-5.0196	-22.113411	0.000598	5.979323	2.025849	-0.000239
1131	1.1244e+02	-5.0437	-22.291045	0.000446	4.459156	1.510803	-0.000179
1132	1.1253e+02	-5.0966	-22.484827	0.000486	4.864534	1.648149	-0.000195
1133	1.1263e+02	-5.1319	-22.642276	0.000395	3.952434	1.339121	-0.000158
1134	1.1273e+02	-5.1753	-22.840095	0.000497	4.965878	1.682485	-0.000199
1135	1.1283e+02	-5.2041	-23.009655	0.000426	4.256467	1.442130	-0.000170
1136	1.1293e+02	-5.2555	-23.243809	0.000588	5.877978	1.991513	-0.000235
1137	1.1303e+02	-5.2892	-23.389146	0.000365	3.648400	1.236111	-0.000146
1138	1.1313e+02	-5.3309	-23.570817	0.000456	4.560500	1.545139	-0.000183
1139	1.1323e+02	-5.3694	-23.780748	0.000527	5.269911	1.785494	-0.000211
1140	1.1333e+02	-5.4095	-23.954345	0.000436	4.357811	1.476466	-0.000174
1141	1.1343e+02	-5.4576	-24.180425	0.000568	5.675289	1.922840	-0.000227
1142	1.1353e+02	-5.4945	-24.297501	0.000294	2.938989	0.995756	-0.000118
1143	1.1363e+02	-5.5234	-24.499358	0.000507	5.067223	1.716821	-0.000203
1144	1.1373e+02	-5.5763	-24.709289	0.000527	5.269911	1.785494	-0.000211
1145	1.1383e+02	-5.6100	-24.894998	0.000466	4.661845	1.579476	-0.000187
1146	1.1393e+02	-5.6469	-25.056483	0.000405	4.053778	1.373457	-0.000162
1147	1.1403e+02	-5.6870	-25.242191	0.000466	4.661845	1.579476	-0.000187
1148	1.1413e+02	-5.7351	-25.431937	0.000476	4.763189	1.613812	-0.000191
1149	1.1423e+02	-5.7688	-25.633793	0.000507	5.067223	1.716821	-0.000203
1150	1.1433e+02	-5.8169	-25.795279	0.000405	4.053778	1.373457	-0.000162
1151	1.1442e+02	-5.8442	-25.968876	0.000436	4.357811	1.476466	-0.000174
1152	1.1452e+02	-5.8988	-26.166695	0.000497	4.965878	1.682485	-0.000199
1153	1.1462e+02	-5.9325	-26.340292	0.000436	4.357811	1.476466	-0.000174
1154	1.1472e+02	-5.9726	-26.493703	0.000385	3.851089	1.304784	-0.000154
1155	1.1482e+02	-6.0095	-26.695560	0.000507	5.067223	1.716821	-0.000203
1156	1.1492e+02	-6.0560	-26.869157	0.000436	4.357811	1.476466	-0.000174
1157	1.1502e+02	-6.0929	-27.046791	0.000446	4.459156	1.510803	-0.000179
1158	1.1512e+02	-6.1378	-27.236536	0.000476	4.763189	1.613812	-0.000191
1159	1.1522e+02	-6.1603	-27.393985	0.000395	3.952434	1.339121	-0.000158
1160	1.1532e+02	-6.2132	-27.591804	0.000497	4.965878	1.682485	-0.000199
1161	1.1542e+02	-6.2485	-27.708881	0.000294	2.938989	0.995756	-0.000118
1162	1.1552e+02	-6.2854	-27.959184	0.000628	6.283356	2.128859	-0.000252
1163	1.1562e+02	-6.3271	-28.108558	0.000375	3.749745	1.270448	-0.000150
1164	1.1572e+02	-6.3672	-28.245820	0.000345	3.445711	1.167439	-0.000138
1165	1.1582e+02	-6.4185	-28.484011	0.000598	5.979323	2.025849	-0.000239
1166	1.1592e+02	-6.4506	-28.609162	0.000314	3.141678	1.064429	-0.000126
1167	1.1602e+02	-6.4779	-28.770648	0.000405	4.053778	1.373457	-0.000162
1168	1.1612e+02	-6.5308	-28.988653	0.000547	5.472600	1.854167	-0.000219
1169	1.1622e+02	-6.5677	-29.109767	0.000304	3.040334	1.030093	-0.000122
1170	1.1632e+02	-6.6014	-29.303550	0.000486	4.864534	1.648149	-0.000195
1171	1.1642e+02	-6.6495	-29.497332	0.000486	4.864534	1.648149	-0.000195
1172	1.1651e+02	-6.6768	-29.642669	0.000365	3.648400	1.236111	-0.000146
1173	1.1661e+02	-6.7169	-29.832415	0.000476	4.763189	1.613812	-0.000191
1174	1.1671e+02	-6.7602	-29.965640	0.000334	3.344367	1.133102	-0.000134
1175	1.1681e+02	-6.7987	-30.098865	0.000334	3.344367	1.133102	-0.000134
1176	1.1691e+02	-6.8404	-30.300722	0.000507	5.067223	1.716821	-0.000203
1177	1.1701e+02	-6.8822	-30.498542	0.000497	4.965878	1.682485	-0.000199
1178	1.1711e+02	-6.9255	-30.664064	0.000416	4.155123	1.407794	-0.000166
1179	1.1721e+02	-6.9624	-30.841698	0.000446	4.459156	1.510803	-0.000179
1180	1.1731e+02	-6.9993	-31.003184	0.000405	4.053778	1.373457	-0.000162
1181	1.1741e+02	-7.0474	-31.136409	0.000334	3.344367	1.133102	-0.000134
1182	1.1751e+02	-7.0795	-31.293858	0.000395	3.952434	1.339121	-0.000158
1183	1.1761e+02	-7.1196	-31.475529	0.000456	4.560500	1.545139	-0.000183
1184	1.1771e+02	-7.1581	-31.673348	0.000497	4.965878	1.682485	-0.000199
1185	1.1781e+02	-7.2078	-31.842908	0.000426	4.256467	1.442130	-0.000170
1186	1.1791e+02	-7.2431	-31.980171	0.000345	3.445711	1.167439	-0.000138
1187	1.1801e+02	-7.2800	-32.165879	0.000466	4.661845	1.579476	-0.000187
1188	1.1811e+02	-7.3233	-32.319290	0.000385	3.851089	1.304784	-0.000154
1189	1.1821e+02	-7.3618	-32.525184	0.000517	5.168567	1.751158	-0.000207
1190	1.1831e+02	-7.4019	-32.678595	0.000385	3.851089	1.304784	-0.000154
1191	1.1841e+02	-7.4404	-32.811821	0.000334	3.344367	1.133102	-0.000134
1192	1.1850e+02	-7.4757	-32.981380	0.000426	4.256467	1.442130	-0.000170
1193	1.1860e+02	-7.5222	-33.146903	0.000416	4.155123	1.407794	-0.000166
1194	1.1870e+02	-7.5624	-33.272054	0.000314	3.141678	1.064429	-0.000126
1195	1.1880e+02	-7.6025	-33.461800	0.000476	4.763189	1.613812	-0.000191
1196	1.1890e+02	-7.6378	-33.639434	0.000446	4.459156	1.510803	-0.000179
1197	1.1900e+02	-7.6827	-33.788808	0.000375	3.749745	1.270448	-0.000150
1198	1.1910e+02	-7.7196	-33.926070	0.000345	3.445711	1.167439	-0.000138
1199	1.1920e+02	-7.7500	-34.140038	0.000537	5.371256	1.819831	-0.000215
1200	1.1930e+02	-7.7966	-34.281338	0.000355	3.547056	1.201775	-0.000142
1201	1.1940e+02	-7.8463	-34.475121	0.000486	4.864534	1.648149	-0.000195
1202	1.1950e+02	-7.8784	-34.632569	0.000395	3.952434	1.339121	-0.000158
1203	1.1960e+02	-7.9217	-34.737534	0.000263	2.634956	0.892747	-0.000105
1204	1.1970e+02	-7.9554	-34.939391	0.000507	5.067223	1.716821	-0.000203
1205	1.1980e+02	-8.0099	-35.096840	0.000395	3.952434	1.339121	-0.000158
1206	1.1990e+02	-8.0420	-35.246214	0.000375	3.749745	1.270448	-0.000150
1207	1.2000e+02	-8.0789	-35.403662	0.000395	3.952434	1.339121	-0.000158
1208	1.2010e+02	-8.1254	-35.561110	0.000395	3.952434	1.339121	-0.000158
1209	1.2020e+02	-8.1559	-35.726633	0.000416	4.155123	1.407794	-0.000166
1210	1.2030e+02	-8.2024	-35.884081	0.000395	3.952434	1.339121	-0.000158
1211	1.2039e+02	-8.2313	-36.057678	0.000436	4.357811	1.476466	-0.000174
1212	1.2049e+02	-8.2778	-36.182829	0.000314	3.141678	1.064429	-0.000126
1213	1.2059e+02	-8.3067	-36.404872	0.000557	5.573945	1.888504	-0.000223
1214	1.2069e+02	-8.3645	-36.493689	0.000223	2.229578	0.755401	-0.000089
1215	1.2079e+02	-8.4046	-36.691508	0.000497	4.965878	1.682485	-0.000199
1216	1.2089e+02	-8.4367	-36.836845	0.000365	3.648400	1.236111	-0.000146
1217	1.2099e+02	-8.4784	-37.006405	0.000426	4.256467	1.442130	-0.000170
1218	1.2109e+02	-8.5233	-37.167890	0.000405	4.053778	1.373457	-0.000162
1219	1.2119e+02	-8.5490	-37.293041	0.000314	3.141678	1.064429	-0.000126
1220	1.2129e+02	-8.5955	-37.450490	0.000395	3.952434	1.339121	-0.000158
1221	1.2139e+02	-8.6340	-37.672532	0.000557	5.573945	1.888504	-0.000223
1222	1.2149e+02	-8.6693	-37.781535	0.000274	2.736300	0.927084	-0.000110
1223	1.2159e+02	-8.7110	-37.943020	0.000405	4.053778	1.373457	-0.000162
1224	1.2169e+02	-8.7639	-38.116617	0.000436	4.357811	1.476466	-0.000174
1225	1.2179e+02	-8.7976	-38.253880	0.000345	3.445711	1.167439	-0.000138
1226	1.2189e+02	-8.8457	-38.415365	0.000405	4.053778	1.373457	-0.000162
1227	1.2199e+02	-8.8698	-38.544553	0.000324	3.243022	1.098766	-0.000130
1228	1.2209e+02	-8.9083	-38.681816	0.000345	3.445711	1.167439	-0.000138
1229	1.2219e+02	-8.9548	-38.867524	0.000466	4.661845	1.579476	-0.000187
1230	1.2229e+02	-8.9933	-39.029010	0.000405	4.053778	1.373457	-0.000162
1231	1.2239e+02	-9.0431	-39.170309	0.000355	3.547056	1.201775	-0.000142
1232	1.2248e+02	-9.0784	-39.339869	0.000426	4.256467	1.442130	-0.000170
1233	1.2258e+02	-9.1120	-39.501355	0.000405	4.053778	1.373457	-0.000162
1234	1.2268e+02	-9.1570	-39.638617	0.000345	3.445711	1.167439	-0.000138
1235	1.2278e+02	-9.2067	-39.755694	0.000294	2.938989	0.995756	-0.000118
1236	1.2288e+02	-9.2324	-39.945440	0.000476	4.763189	1.613812	-0.000191
1237	1.2298e+02	-9.2773	-40.082702	0.000345	3.445711	1.167439	-0.000138
1238	1.2308e+02	-9.3142	-40.252262	0.000426	4.256467	1.442130	-0.000170
1239	1.2318e+02	-9.3559	-40.385487	0.000334	3.344367	1.133102	-0.000134
1240	1.2328e+02	-9.3944	-40.526787	0.000355	3.547056	1.201775	-0.000142
1241	1.2338e+02	-9.4345	-40.684235	0.000395	3.952434	1.339121	-0.000158
1242	1.2348e+02	-9.4666	-40.853795	0.000426	4.256467	1.442130	-0.000170
1243	1.2358e+02	-9.5115	-40.978946	0.000314	3.141678	1.064429	-0.000126
1244	1.2368e+02	-9.5468	-41.136395	0.000395	3.952434	1.339121	-0.000158
1245	1.2378e+02	-9.5885	-41.309991	0.000436	4.357811	1.476466	-0.000174
1246	1.2388e+02	-9.6366	-41.435143	0.000314	3.141678	1.064429	-0.000126
1247	1.2398e+02	-9.6719	-41.592591	0.000395	3.952434	1.339121	-0.000158
1248	1.2408e+02	-9.7056	-41.750039	0.000395	3.952434	1.339121	-0.000158
1249	1.2418e+02	-9.7521	-41.911525	0.000405	4.053778	1.373457	-0.000162
1250	1.2428e+02	-9.7874	-42.048787	0.000345	3.445711	1.167439	-0.000138
1251	1.2438e+02	-9.8291	-42.186050	0.000345	3.445711	1.167439	-0.000138
1252	1.2447e+02	-9.8660	-42.315238	0.000324	3.243022	1.098766	-0.000130
1253	1.2457e+02	-9.9222	-42.496909	0.000456	4.560500	1.545139	-0.000183
1254	1.2467e+02	-9.9478	-42.646283	0.000375	3.749745	1.270448	-0.000150
1255	1.2477e+02	-9.9960	-42.791620	0.000365	3.648400	1.236111	-0.000146
1256	1.2487e+02	-10.0232	-42.932920	0.000355	3.547056	1.201775	-0.000142
1257	1.2497e+02	-10.0666	-43.078257	0.000365	3.648400	1.236111	-0.000146
1258	1.2507e+02	-10.0970	-43.251854	0.000436	4.357811	1.476466	-0.000174
1259	1.2517e+02	-10.1436	-43.405265	0.000385	3.851089	1.304784	-0.000154
1260	1.2527e+02	-10.1917	-43.534453	0.000324	3.243022	1.098766	-0.000130
1261	1.2537e+02	-10.2318	-43.683827	0.000375	3.749745	1.270448	-0.000150
1262	1.2547e+02	-10.2751	-43.865498	0.000456	4.560500	1.545139	-0.000183
1263	1.2557e+02	-10.3104	-43.946241	0.000203	2.026889	0.686729	-0.000081
1264	1.2567e+02	-10.3521	-44.103689	0.000395	3.952434	1.339121	-0.000158
1265	1.2577e+02	-10.3890	-44.253063	0.000375	3.749745	1.270448	-0.000150
1266	1.2587e+02	-10.4307	-44.414549	0.000405	4.053778	1.373457	-0.000162
1267	1.2597e+02	-10.4692	-44.571997	0.000395	3.952434	1.339121	-0.000158
1268	1.2607e+02	-10.5109	-44.721371	0.000375	3.749745	1.270448	-0.000150
1269	1.2617e+02	-10.5591	-44.894968	0.000436	4.357811	1.476466	-0.000174
1270	1.2627e+02	-10.5799	-45.012045	0.000294	2.938989	0.995756	-0.000118
1271	1.2636e+02	-10.6313	-45.141233	0.000324	3.243022	1.098766	-0.000130
1272	1.2646e+02	-10.6665	-45.286570	0.000365	3.648400	1.236111	-0.000146
1273	1.2656e+02	-10.7131	-45.452093	0.000416	4.155123	1.407794	-0.000166
1274	1.2666e+02	-10.7548	-45.593392	0.000355	3.547056	1.201775	-0.000142
1275	1.2676e+02	-10.7901	-45.750841	0.000395	3.952434	1.339121	-0.000158
1276	1.2686e+02	-10.8270	-45.875992	0.000314	3.141678	1.064429	-0.000126
1277	1.2696e+02	-10.8751	-45.964809	0.000223	2.229578	0.755401	-0.000089
1278	1.2706e+02	-10.9072	-46.170703	0.000517	5.168567	1.751158	-0.000207
1279	1.2716e+02	-10.9505	-46.259520	0.000223	2.229578	0.755401	-0.000089
1280	1.2726e+02	-10.9938	-46.425042	0.000416	4.155123	1.407794	-0.000166
1281	1.2736e+02	-11.0307	-46.586528	0.000405	4.053778	1.373457	-0.000162
1282	1.2746e+02	-11.0644	-46.752050	0.000416	4.155123	1.407794	-0.000166
1283	1.2756e+02	-11.1141	-46.893350	0.000355	3.547056	1.201775	-0.000142
1284	1.2766e+02	-11.1462	-47.006390	0.000284	2.837645	0.961420	-0.000114
1285	1.2776e+02	-11.1991	-47.175950	0.000426	4.256467	1.442130	-0.000170
1286	1.2786e+02	-11.2280	-47.321287	0.000365	3.648400	1.236111	-0.000146
1287	1.2796e+02	-11.2585	-47.482772	0.000405	4.053778	1.373457	-0.000162
1288	1.2806e+02	-11.3050	-47.603886	0.000304	3.040334	1.030093	-0.000122
1289	1.2816e+02	-11.3435	-47.753260	0.000375	3.749745	1.270448	-0.000150
1290	1.2826e+02	-11.3868	-47.870337	0.000294	2.938989	0.995756	-0.000118
1291	1.2835e+02	-11.4302	-47.995488	0.000314	3.141678	1.064429	-0.000126
1292	1.2845e+02	-11.4638	-48.144862	0.000375	3.749745	1.270448	-0.000150
1293	1.2855e+02	-11.5120	-48.253865	0.000274	2.736300	0.927084	-0.000110
1294	1.2865e+02	-11.5537	-48.463796	0.000527	5.269911	1.785494	-0.000211
1295	1.2875e+02	-11.5922	-48.597021	0.000334	3.344367	1.133102	-0.000134
1296	1.2885e+02	-11.6243	-48.710061	0.000284	2.837645	0.961420	-0.000114
1297	1.2895e+02	-11.6900	-48.859435	0.000375	3.749745	1.270448	-0.000150
1298	1.2905e+02	-11.7141	-48.996698	0.000345	3.445711	1.167439	-0.000138
1299	1.2915e+02	-11.7462	-49.158183	0.000405	4.053778	1.373457	-0.000162
1300	1.2925e+02	-11.7863	-49.247000	0.000223	2.229578	0.755401	-0.000089
1301	1.2935e+02	-11.8312	-49.444820	0.000497	4.965878	1.682485	-0.000199
1302	1.2945e+02	-11.8633	-49.529600	0.000213	2.128233	0.721065	-0.000085
1303	1.2955e+02	-11.9178	-49.699160	0.000426	4.256467	1.442130	-0.000170
1304	1.2965e+02	-11.9419	-49.868719	0.000426	4.256467	1.442130	-0.000170
1305	1.2975e+02	-11.9916	-49.981759	0.000284	2.837645	0.961420	-0.000114
1306	1.2985e+02	-12.0173	-50.147282	0.000416	4.155123	1.407794	-0.000166
1307	1.2995e+02	-12.0670	-50.236099	0.000223	2.229578	0.755401	-0.000089
1308	1.3005e+02	-12.1087	-50.345101	0.000274	2.736300	0.927084	-0.000110
1309	1.3015e+02	-12.1424	-50.555032	0.000527	5.269911	1.785494	-0.000211
1310	1.3025e+02	-12.1874	-50.659998	0.000263	2.634956	0.892747	-0.000105
1311	1.3034e+02	-12.2323	-50.773038	0.000284	2.837645	0.961420	-0.000114
1312	1.3044e+02	-12.2628	-50.954709	0.000456	4.560500	1.545139	-0.000183
1313	1.3054e+02	-12.3029	-51.055637	0.000253	2.533611	0.858411	-0.000101
1314	1.3064e+02	-12.3414	-51.225197	0.000426	4.256467	1.442130	-0.000170
1315	1.3074e+02	-12.3911	-51.366497	0.000355	3.547056	1.201775	-0.000142
1316	1.3084e+02	-12.4168	-51.495685	0.000324	3.243022	1.098766	-0.000130
1317	1.3094e+02	-12.4601	-51.636985	0.000355	3.547056	1.201775	-0.000142
1318	1.3104e+02	-12.5018	-51.741950	0.000263	2.634956	0.892747	-0.000105
1319	1.3114e+02	-12.5403	-51.903436	0.000405	4.053778	1.373457	-0.000162
1320	1.3124e+02	-12.5836	-52.008401	0.000263	2.634956	0.892747	-0.000105
1321	1.3134e+02	-12.6317	-52.161812	0.000385	3.851089	1.304784	-0.000154
1322	1.3144e+02	-12.6638	-52.303112	0.000355	3.547056	1.201775	-0.000142
1323	1.3154e+02	-12.6943	-52.460560	0.000395	3.952434	1.339121	-0.000158
1324	1.3164e+02	-12.7440	-52.565526	0.000263	2.634956	0.892747	-0.000105
1325	1.3174e+02	-12.7809	-52.735086	0.000426	4.256467	1.442130	-0.000170
1326	1.3184e+02	-12.8194	-52.848125	0.000284	2.837645	0.961420	-0.000114
1327	1.3194e+02	-12.8595	-53.001537	0.000385	3.851089	1.304784	-0.000154
1328	1.3204e+02	-12.9044	-53.179171	0.000446	4.459156	1.510803	-0.000179
1329	1.3214e+02	-12.9317	-53.292210	0.000284	2.837645	0.961420	-0.000114
1330	1.3224e+02	-12.9815	-53.401213	0.000274	2.736300	0.927084	-0.000110
1331	1.3234e+02	-13.0200	-53.550587	0.000375	3.749745	1.270448	-0.000150
1332	1.3243e+02	-13.0633	-53.683812	0.000334	3.344367	1.133102	-0.000134
1333	1.3253e+02	-13.0970	-53.796852	0.000284	2.837645	0.961420	-0.000114
1334	1.3263e+02	-13.1387	-53.958338	0.000405	4.053778	1.373457	-0.000162
1335	1.3273e+02	-13.1740	-54.047155	0.000223	2.229578	0.755401	-0.000089
1336	1.3283e+02	-13.2141	-54.208640	0.000405	4.053778	1.373457	-0.000162
1337	1.3293e+02	-13.2638	-54.341866	0.000334	3.344367	1.133102	-0.000134
1338	1.3303e+02	-13.3039	-54.467017	0.000314	3.141678	1.064429	-0.000126
1339	1.3313e+02	-13.3440	-54.584094	0.000294	2.938989	0.995756	-0.000118
1340	1.3323e+02	-13.3745	-54.773839	0.000476	4.763189	1.613812	-0.000191
1341	1.3333e+02	-13.4194	-54.830359	0.000142	1.418822	0.480710	-0.000057
1342	1.3343e+02	-13.4547	-54.963585	0.000334	3.344367	1.133102	-0.000134
1343	1.3353e+02	-13.4916	-55.116996	0.000385	3.851089	1.304784	-0.000154
1344	1.3363e+02	-13.5333	-55.250221	0.000334	3.344367	1.133102	-0.000134
1345	1.3373e+02	-13.5782	-55.379409	0.000324	3.243022	1.098766	-0.000130
1346	1.3383e+02	-13.6103	-55.488412	0.000274	2.736300	0.927084	-0.000110
1347	1.3393e+02	-13.6520	-55.653935	0.000416	4.155123	1.407794	-0.000166
1348	1.3403e+02	-13.7001	-55.783123	0.000324	3.243022	1.098766	-0.000130
1349	1.3413e+02	-13.7435	-55.912311	0.000324	3.243022	1.098766	-0.000130
1350	1.3423e+02	-13.7707	-56.037463	0.000314	3.141678	1.064429	-0.000126
1351	1.3432e+02	-13.8157	-56.162614	0.000314	3.141678	1.064429	-0.000126
1352	1.3442e+02	-13.8574	-56.263542	0.000253	2.533611	0.858411	-0.000101
1353	1.3452e+02	-13.8927	-56.412916	0.000375	3.749745	1.270448	-0.000150
1354	1.3462e+02	-13.9312	-56.554216	0.000355	3.547056	1.201775	-0.000142
1355	1.3472e+02	-13.9825	-56.683404	0.000324	3.243022	1.098766	-0.000130
1356	1.3482e+02	-14.0050	-56.840853	0.000395	3.952434	1.339121	-0.000158
1357	1.3492e+02	-14.0547	-56.953892	0.000284	2.837645	0.961420	-0.000114
1358	1.3502e+02	-14.0852	-57.066932	0.000284	2.837645	0.961420	-0.000114
1359	1.3512e+02	-14.1445	-57.248603	0.000456	4.560500	1.545139	-0.000183
1360	1.3522e+02	-14.1798	-57.365680	0.000294	2.938989	0.995756	-0.000118
1361	1.3532e+02	-14.2167	-57.466609	0.000253	2.533611	0.858411	-0.000101
1362	1.3542e+02	-14.2504	-57.583686	0.000294	2.938989	0.995756	-0.000118
1363	1.3552e+02	-14.2825	-57.749208	0.000416	4.155123	1.407794	-0.000166
1364	1.3562e+02	-14.3354	-57.890508	0.000355	3.547056	1.201775	-0.000142
1365	1.3572e+02	-14.3707	-57.987399	0.000243	2.432267	0.824074	-0.000097
1366	1.3582e+02	-14.4124	-58.124662	0.000345	3.445711	1.167439	-0.000138
1367	1.3592e+02	-14.4493	-58.282110	0.000395	3.952434	1.339121	-0.000158
1368	1.3602e+02	-14.4958	-58.427447	0.000365	3.648400	1.236111	-0.000146
1369	1.3612e+02	-14.5343	-58.512227	0.000213	2.128233	0.721065	-0.000085
1370	1.3622e+02	-14.5729	-58.685824	0.000436	4.357811	1.476466	-0.000174
1371	1.3631e+02	-14.6097	-58.823086	0.000345	3.445711	1.167439	-0.000138
1372	1.3641e+02	-14.6434	-58.903829	0.000203	2.026889	0.686729	-0.000081
1373	1.3651e+02	-14.6964	-59.037054	0.000334	3.344367	1.133102	-0.000134
1374	1.3661e+02	-14.7253	-59.186428	0.000375	3.749745	1.270448	-0.000150
1375	1.3671e+02	-14.7718	-59.335803	0.000375	3.749745	1.270448	-0.000150
1376	1.3681e+02	-14.8023	-59.420582	0.000213	2.128233	0.721065	-0.000085
1377	1.3691e+02	-14.8552	-59.545734	0.000314	3.141678	1.064429	-0.000126
1378	1.3701e+02	-14.8905	-59.687033	0.000355	3.547056	1.201775	-0.000142
1379	1.3711e+02	-14.9274	-59.836407	0.000375	3.749745	1.270448	-0.000150
1380	1.3721e+02	-14.9691	-59.929261	0.000233	2.330922	0.789738	-0.000093
1381	1.3731e+02	-15.0108	-60.086710	0.000395	3.952434	1.339121	-0.000158
1382	1.3741e+02	-15.0493	-60.219935	0.000334	3.344367	1.133102	-0.000134
1383	1.3751e+02	-15.0878	-60.353161	0.000334	3.344367	1.133102	-0.000134
1384	1.3761e+02	-15.1327	-60.506572	0.000385	3.851089	1.304784	-0.000154
1385	1.3771e+02	-15.1793	-60.627686	0.000304	3.040334	1.030093	-0.000122
1386	1.3781e+02	-15.2226	-60.748800	0.000304	3.040334	1.030093	-0.000122
1387	1.3791e+02	-15.2450	-60.869914	0.000304	3.040334	1.030093	-0.000122
1388	1.3801e+02	-15.2932	-61.043511	0.000436	4.357811	1.476466	-0.000174
1389	1.3811e+02	-15.3349	-61.148476	0.000263	2.634956	0.892747	-0.000105
1390	1.3821e+02	-15.3653	-61.285739	0.000345	3.445711	1.167439	-0.000138
1391	1.3831e+02	-15.4103	-61.443187	0.000395	3.952434	1.339121	-0.000158
1392	1.3840e+02	-15.4472	-61.536041	0.000233	2.330922	0.789738	-0.000093
1393	1.3850e+02	-15.4857	-61.677341	0.000355	3.547056	1.201775	-0.000142
1394	1.3860e+02	-15.5322	-61.806530	0.000324	3.243022	1.098766	-0.000130
1395	1.3870e+02	-15.5643	-61.931681	0.000314	3.141678	1.064429	-0.000126
1396	1.3880e+02	-15.6156	-62.085092	0.000385	3.851089	1.304784	-0.000154
1397	1.3890e+02	-15.6429	-62.206206	0.000304	3.040334	1.030093	-0.000122
1398	1.3900e+02	-15.6990	-62.323283	0.000294	2.938989	0.995756	-0.000118
1399	1.3910e+02	-15.7247	-62.464583	0.000355	3.547056	1.201775	-0.000142
1400	1.3920e+02	-15.7776	-62.630105	0.000416	4.155123	1.407794	-0.000166
1401	1.3930e+02	-15.8081	-62.759294	0.000324	3.243022	1.098766	-0.000130
1402	1.3940e+02	-15.8450	-62.860222	0.000253	2.533611	0.858411	-0.000101
1403	1.3950e+02	-15.8851	-63.001522	0.000355	3.547056	1.201775	-0.000142
1404	1.3960e+02	-15.9236	-63.126673	0.000314	3.141678	1.064429	-0.000126
1405	1.3970e+02	-15.9701	-63.263936	0.000345	3.445711	1.167439	-0.000138
1406	1.3980e+02	-15.9974	-63.364864	0.000253	2.533611	0.858411	-0.000101
1407	1.3990e+02	-16.0455	-63.526349	0.000405	4.053778	1.373457	-0.000162
1408	1.4000e+02	-16.0872	-63.643426	0.000294	2.938989	0.995756	-0.000118
1409	1.4010e+02	-16.1338	-63.808949	0.000416	4.155123	1.407794	-0.000166
1410	1.4020e+02	-16.1642	-63.921989	0.000284	2.837645	0.961420	-0.000114
1411	1.4029e+02	-16.2140	-64.047140	0.000314	3.141678	1.064429	-0.000126
1412	1.4039e+02	-16.2541	-64.232848	0.000466	4.661845	1.579476	-0.000187
1413	1.4049e+02	-16.2862	-64.305517	0.000182	1.824200	0.618056	-0.000073
1414	1.4059e+02	-16.3279	-64.519485	0.000537	5.371256	1.819831	-0.000215
1415	1.4069e+02	-16.3616	-64.580042	0.000152	1.520167	0.515046	-0.000061
1416	1.4079e+02	-16.4049	-64.761713	0.000456	4.560500	1.545139	-0.000183
1417	1.4089e+02	-16.4482	-64.842456	0.000203	2.026889	0.686729	-0.000081
1418	1.4099e+02	-16.4883	-64.971644	0.000324	3.243022	1.098766	-0.000130
1419	1.4109e+02	-16.5284	-65.100832	0.000324	3.243022	1.098766	-0.000130
1420	1.4119e+02	-16.5637	-65.286541	0.000466	4.661845	1.579476	-0.000187
1421	1.4129e+02	-16.6038	-65.415729	0.000324	3.243022	1.098766	-0.000130
1422	1.4139e+02	-16.6487	-65.540880	0.000314	3.141678	1.064429	-0.000126
1423	1.4149e+02	-16.6824	-65.678143	0.000345	3.445711	1.167439	-0.000138
1424	1.4159e+02	-16.7225	-65.807331	0.000324	3.243022	1.098766	-0.000130
1425	1.4169e+02	-16.7578	-65.968817	0.000405	4.053778	1.373457	-0.000162
1426	1.4179e+02	-16.8043	-66.093968	0.000314	3.141678	1.064429	-0.000126
1427	1.4189e+02	-16.8557	-66.202970	0.000274	2.736300	0.927084	-0.000110
1428	1.4199e+02	-16.8846	-66.408864	0.000517	5.168567	1.751158	-0.000207
1429	1.4209e+02	-16.9279	-66.509793	0.000253	2.533611	0.858411	-0.000101
1430	1.4219e+02	-16.9567	-66.667241	0.000395	3.952434	1.339121	-0.000158
1431	1.4228e+02	-17.0161	-66.796429	0.000324	3.243022	1.098766	-0.000130
1432	1.4238e+02	-17.0418	-66.953878	0.000395	3.952434	1.339121	-0.000158
1433	1.4248e+02	-17.0867	-67.091140	0.000345	3.445711	1.167439	-0.000138
1434	1.4258e+02	-17.1140	-67.224366	0.000334	3.344367	1.133102	-0.000134
1435	1.4268e+02	-17.1669	-67.361628	0.000345	3.445711	1.167439	-0.000138
1436	1.4278e+02	-17.2182	-67.531188	0.000426	4.256467	1.442130	-0.000170
1437	1.4288e+02	-17.2391	-67.684599	0.000385	3.851089	1.304784	-0.000154
1438	1.4298e+02	-17.2856	-67.825899	0.000355	3.547056	1.201775	-0.000142
1439	1.4308e+02	-17.3193	-67.922790	0.000243	2.432267	0.824074	-0.000097
1440	1.4318e+02	-17.3594	-68.043904	0.000304	3.040334	1.030093	-0.000122
1441	1.4328e+02	-17.4059	-68.245761	0.000507	5.067223	1.716821	-0.000203
1442	1.4338e+02	-17.4428	-68.346689	0.000253	2.533611	0.858411	-0.000101
1443	1.4348e+02	-17.4829	-68.520286	0.000436	4.357811	1.476466	-0.000174
1444	1.4358e+02	-17.5375	-68.661586	0.000355	3.547056	1.201775	-0.000142
1445	1.4368e+02	-17.5663	-68.802886	0.000355	3.547056	1.201775	-0.000142
1446	1.4378e+02	-17.6000	-68.960334	0.000395	3.952434	1.339121	-0.000158
1447	1.4388e+02	-17.6353	-69.097597	0.000345	3.445711	1.167439	-0.000138
1448	1.4398e+02	-17.6738	-69.238896	0.000355	3.547056	1.201775	-0.000142
1449	1.4408e+02	-17.7220	-69.392308	0.000385	3.851089	1.304784	-0.000154
1450	1.4418e+02	-17.7621	-69.553793	0.000405	4.053778	1.373457	-0.000162
1451	1.4428e+02	-17.8006	-69.678944	0.000314	3.141678	1.064429	-0.000126
1452	1.4437e+02	-17.8471	-69.824281	0.000365	3.648400	1.236111	-0.000146
1453	1.4447e+02	-17.8872	-69.965581	0.000355	3.547056	1.201775	-0.000142
1454	1.4457e+02	-17.9177	-70.127066	0.000405	4.053778	1.373457	-0.000162
1455	1.4467e+02	-17.9626	-70.240106	0.000284	2.837645	0.961420	-0.000114
1456	1.4477e+02	-17.9995	-70.413703	0.000436	4.357811	1.476466	-0.000174
1457	1.4487e+02	-18.0460	-70.575188	0.000405	4.053778	1.373457	-0.000162
1458	1.4497e+02	-18.0877	-70.728600	0.000385	3.851089	1.304784	-0.000154
1459	1.4507e+02	-18.1278	-70.898159	0.000426	4.256467	1.442130	-0.000170
1460	1.4517e+02	-18.1599	-71.011199	0.000284	2.837645	0.961420	-0.000114
1461	1.4527e+02	-18.2064	-71.164610	0.000385	3.851089	1.304784	-0.000154
1462	1.4537e+02	-18.2449	-71.346281	0.000456	4.560500	1.545139	-0.000183
1463	1.4547e+02	-18.2770	-71.475470	0.000324	3.243022	1.098766	-0.000130
1464	1.4557e+02	-18.3284	-71.632918	0.000395	3.952434	1.339121	-0.000158
1465	1.4567e+02	-18.3604	-71.766143	0.000334	3.344367	1.133102	-0.000134
1466	1.4577e+02	-18.4038	-71.959926	0.000486	4.864534	1.648149	-0.000195
1467	1.4587e+02	-18.4407	-72.097189	0.000345	3.445711	1.167439	-0.000138
1468	1.4597e+02	-18.4711	-72.234451	0.000345	3.445711	1.167439	-0.000138
1469	1.4607e+02	-18.5209	-72.395937	0.000405	4.053778	1.373457	-0.000162
1470	1.4617e+02	-18.5530	-72.577608	0.000456	4.560500	1.545139	-0.000183
1471	1.4626e+02	-18.5963	-72.731019	0.000385	3.851089	1.304784	-0.000154
1472	1.4636e+02	-18.6380	-72.896541	0.000416	4.155123	1.407794	-0.000166
1473	1.4646e+02	-18.6717	-73.029767	0.000334	3.344367	1.133102	-0.000134
1474	1.4656e+02	-18.7166	-73.247772	0.000547	5.472600	1.854167	-0.000219
1475	1.4666e+02	-18.7583	-73.380998	0.000334	3.344367	1.133102	-0.000134
1476	1.4676e+02	-18.7984	-73.538446	0.000395	3.952434	1.339121	-0.000158
1477	1.4686e+02	-18.8353	-73.691857	0.000385	3.851089	1.304784	-0.000154
1478	1.4696e+02	-18.8690	-73.861417	0.000426	4.256467	1.442130	-0.000170
1479	1.4706e+02	-18.9203	-74.006754	0.000365	3.648400	1.236111	-0.000146
1480	1.4716e+02	-18.9636	-74.204573	0.000497	4.965878	1.682485	-0.000199
1481	1.4726e+02	-18.9989	-74.341836	0.000345	3.445711	1.167439	-0.000138
1482	1.4736e+02	-19.0326	-74.527544	0.000466	4.661845	1.579476	-0.000187
1483	1.4746e+02	-19.0695	-74.680955	0.000385	3.851089	1.304784	-0.000154
1484	1.4756e+02	-19.1176	-74.810144	0.000324	3.243022	1.098766	-0.000130
1485	1.4766e+02	-19.1529	-75.016038	0.000517	5.168567	1.751158	-0.000207
1486	1.4776e+02	-19.1979	-75.177523	0.000405	4.053778	1.373457	-0.000162
1487	1.4786e+02	-19.2299	-75.359194	0.000456	4.560500	1.545139	-0.000183
1488	1.4796e+02	-19.2813	-75.524717	0.000416	4.155123	1.407794	-0.000166
1489	1.4806e+02	-19.3150	-75.674091	0.000375	3.749745	1.270448	-0.000150
1490	1.4816e+02	-19.3551	-75.863836	0.000476	4.763189	1.613812	-0.000191
1491	1.4825e+02	-19.3904	-76.045507	0.000456	4.560500	1.545139	-0.000183
1492	1.4835e+02	-19.4369	-76.219104	0.000436	4.357811	1.476466	-0.000174
1493	1.4845e+02	-19.4786	-76.396738	0.000446	4.459156	1.510803	-0.000179
1494	1.4855e+02	-19.5171	-76.517852	0.000304	3.040334	1.030093	-0.000122
1495	1.4865e+02	-19.5444	-76.735858	0.000547	5.472600	1.854167	-0.000219
1496	1.4875e+02	-19.5925	-76.965974	0.000578	5.776634	1.957176	-0.000231
1497	1.4885e+02	-19.6326	-77.099200	0.000334	3.344367	1.133102	-0.000134
1498	1.4895e+02	-19.6743	-77.216277	0.000294	2.938989	0.995756	-0.000118
1499	1.4905e+02	-19.7048	-77.442356	0.000568	5.675289	1.922840	-0.000227
1500	1.4915e+02	-19.7561	-77.648250	0.000517	5.168567	1.751158	-0.000207
1501	1.4925e+02	-19.7786	-77.797624	0.000375	3.749745	1.270448	-0.000150
1502	1.4935e+02	-19.8363	-77.979295	0.000456	4.560500	1.545139	-0.000183
1503	1.4945e+02	-19.8748	-78.193264	0.000537	5.371256	1.819831	-0.000215
1504	1.4955e+02	-19.9005	-78.338600	0.000365	3.648400	1.236111	-0.000146
1505	1.4965e+02	-19.9502	-78.512197	0.000436	4.357811	1.476466	-0.000174
1506	1.4975e+02	-19.9855	-78.705980	0.000486	4.864534	1.648149	-0.000195
1507	1.4985e+02	-20.0288	-78.911874	0.000517	5.168567	1.751158	-0.000207
1508	1.4995e+02	-19.9919	-78.875539	0.000091	0.912100	0.309028	0.000037
1509	1.5005e+02	-19.9518	-78.883614	-0.000020	-0.202689	-0.068673	-0.000008
1510	1.5015e+02	-19.9149	-78.823057	0.000152	1.520167	0.515046	0.000061
1511	1.5025e+02	-19.8652	-78.823057	0.000000	0.000000	0.000000	0.000000
1512	1.5034e+02	-19.8283	-78.790760	0.000081	0.810756	0.274691	0.000032
1513	1.5044e+02	-19.7914	-78.758463	0.000081	0.810756	0.274691	0.000032
1514	1.5054e+02	-19.7593	-78.758463	0.000000	0.000000	0.000000	0.000000
1515	1.5064e+02	-19.7176	-78.653497	0.000263	2.634956	0.892747	0.000105
1516	1.5074e+02	-19.6807	-78.613126	0.000101	1.013445	0.343364	0.000041
1517	1.5084e+02	-19.6262	-78.601014	0.000030	0.304033	0.103009	0.000012
1518	1.5094e+02	-19.6005	-78.568717	0.000081	0.810756	0.274691	0.000032
1519	1.5104e+02	-19.5540	-78.516234	0.000132	1.317478	0.446374	0.000053
1520	1.5114e+02	-19.5107	-78.471826	0.000111	1.114789	0.377701	0.000045
1521	1.5124e+02	-19.4802	-78.435492	0.000091	0.912100	0.309028	0.000037
1522	1.5134e+02	-19.4321	-78.399157	0.000091	0.912100	0.309028	0.000037
1523	1.5144e+02	-19.3952	-78.318415	0.000203	2.026889	0.686729	0.000081
1524	1.5154e+02	-19.3567	-78.298229	0.000051	0.506722	0.171682	0.000020
1525	1.5164e+02	-19.3182	-78.201338	0.000243	2.432267	0.824074	0.000097
1526	1.5174e+02	-19.2765	-78.193264	0.000020	0.202689	0.068673	0.000008
1527	1.5184e+02	-19.2380	-78.088298	0.000263	2.634956	0.892747	0.000105
1528	1.5194e+02	-19.1914	-78.080224	0.000020	0.202689	0.068673	0.000008
1529	1.5204e+02	-19.1690	-77.959110	0.000304	3.040334	1.030093	0.000122
1530	1.5214e+02	-19.1112	-77.942961	0.000041	0.405378	0.137346	0.000016
1531	1.5224e+02	-19.0711	-77.910664	0.000081	0.810756	0.274691	0.000032
1532	1.5233e+02	-19.0422	-77.724956	0.000466	4.661845	1.579476	0.000187
1533	1.5243e+02	-18.9957	-77.789550	-0.000162	-1.621511	-0.549383	-0.000065
1534	1.5253e+02	-18.9588	-77.607879	0.000456	4.560500	1.545139	0.000183
1535	1.5263e+02	-18.9171	-77.579619	0.000071	0.709411	0.240355	0.000028
1536	1.5273e+02	-18.8786	-77.506950	0.000182	1.824200	0.618056	0.000073
1537	1.5283e+02	-18.8385	-77.462542	0.000111	1.114789	0.377701	0.000045
1538	1.5293e+02	-18.8064	-77.373725	0.000223	2.229578	0.755401	0.000089
1539	1.5303e+02	-18.7583	-77.276834	0.000243	2.432267	0.824074	0.000097
1540	1.5313e+02	-18.7198	-77.228388	0.000122	1.216133	0.412037	0.000049
1541	1.5323e+02	-18.6845	-77.171868	0.000142	1.418822	0.480710	0.000057
1542	1.5333e+02	-18.6396	-77.095163	0.000193	1.925545	0.652392	0.000077
1543	1.5343e+02	-18.6075	-76.994234	0.000253	2.533611	0.858411	0.000101
1544	1.5353e+02	-18.5610	-76.889269	0.000263	2.634956	0.892747	0.000105
1545	1.5363e+02	-18.5209	-76.836786	0.000132	1.317478	0.446374	0.000053
1546	1.5373e+02	-18.4759	-76.772192	0.000162	1.621511	0.549383	0.000065
1547	1.5383e+02	-18.4342	-76.703560	0.000172	1.722856	0.583719	0.000069
1548	1.5393e+02	-18.3973	-76.610706	0.000233	2.330922	0.789738	0.000093
1549	1.5403e+02	-18.3604	-76.529964	0.000203	2.026889	0.686729	0.000081
1550	1.5413e+02	-18.3171	-76.445184	0.000213	2.128233	0.721065	0.000085
1551	1.5422e+02	-18.2754	-76.364441	0.000203	2.026889	0.686729	0.000081
1552	1.5432e+02	-18.2385	-76.275624	0.000223	2.229578	0.755401	0.000089
1553	1.5442e+02	-18.1984	-76.186807	0.000223	2.229578	0.755401	0.000089
1554	1.5452e+02	-18.1599	-76.142399	0.000111	1.114789	0.377701	0.000045
1555	1.5462e+02	-18.1230	-76.037433	0.000263	2.634956	0.892747	0.000105
1556	1.5472e+02	-18.0845	-75.984950	0.000132	1.317478	0.446374	0.000053
1557	1.5482e+02	-18.0364	-75.851725	0.000334	3.344367	1.133102	0.000134
1558	1.5492e+02	-17.9931	-75.770982	0.000203	2.026889	0.686729	0.000081
1559	1.5502e+02	-17.9610	-75.718499	0.000132	1.317478	0.446374	0.000053
1560	1.5512e+02	-17.9161	-75.617571	0.000253	2.533611	0.858411	0.000101
1561	1.5522e+02	-17.8808	-75.561051	0.000142	1.418822	0.480710	0.000057
1562	1.5532e+02	-17.8407	-75.464160	0.000243	2.432267	0.824074	0.000097
1563	1.5542e+02	-17.8054	-75.375343	0.000223	2.229578	0.755401	0.000089
1564	1.5552e+02	-17.7621	-75.294600	0.000203	2.026889	0.686729	0.000081
1565	1.5562e+02	-17.7155	-75.177523	0.000294	2.938989	0.995756	0.000118
1566	1.5572e+02	-17.6835	-75.100818	0.000193	1.925545	0.652392	0.000077
1567	1.5582e+02	-17.6530	-75.007963	0.000233	2.330922	0.789738	0.000093
1568	1.5592e+02	-17.6000	-74.907035	0.000253	2.533611	0.858411	0.000101
1569	1.5602e+02	-17.5631	-74.858589	0.000122	1.216133	0.412037	0.000049
1570	1.5612e+02	-17.5311	-74.729401	0.000324	3.243022	1.098766	0.000130
1571	1.5622e+02	-17.4877	-74.648658	0.000203	2.026889	0.686729	0.000081
1572	1.5631e+02	-17.4444	-74.575990	0.000182	1.824200	0.618056	0.000073
1573	1.5641e+02	-17.3963	-74.450839	0.000314	3.141678	1.064429	0.000126
1574	1.5651e+02	-17.3690	-74.370096	0.000203	2.026889	0.686729	0.000081
1575	1.5661e+02	-17.3209	-74.281279	0.000223	2.229578	0.755401	0.000089
1576	1.5671e+02	-17.2840	-74.172276	0.000274	2.736300	0.927084	0.000110
1577	1.5681e+02	-17.2439	-74.087496	0.000213	2.128233	0.721065	0.000085
1578	1.5691e+02	-17.2054	-74.022902	0.000162	1.621511	0.549383	0.000065
1579	1.5701e+02	-17.1685	-73.905825	0.000294	2.938989	0.995756	0.000118
1580	1.5711e+02	-17.1252	-73.796823	0.000274	2.736300	0.927084	0.000110
1581	1.5721e+02	-17.0771	-73.708006	0.000223	2.229578	0.755401	0.000089
1582	1.5731e+02	-17.0450	-73.611114	0.000243	2.432267	0.824074	0.000097
1583	1.5741e+02	-17.0113	-73.526335	0.000213	2.128233	0.721065	0.000085
1584	1.5751e+02	-16.9648	-73.433481	0.000233	2.330922	0.789738	0.000093
1585	1.5761e+02	-16.9231	-73.368886	0.000162	1.621511	0.549383	0.000065
1586	1.5771e+02	-16.8846	-73.251809	0.000294	2.938989	0.995756	0.000118
1587	1.5781e+02	-16.8412	-73.167030	0.000213	2.128233	0.721065	0.000085
1588	1.5791e+02	-16.8075	-73.078213	0.000223	2.229578	0.755401	0.000089
1589	1.5801e+02	-16.7674	-72.977284	0.000253	2.533611	0.858411	0.000101
1590	1.5811e+02	-16.7305	-72.852133	0.000314	3.141678	1.064429	0.000126
1591	1.5821e+02	-16.6792	-72.751205	0.000253	2.533611	0.858411	0.000101
1592	1.5830e+02	-16.6391	-72.654313	0.000243	2.432267	0.824074	0.000097
1593	1.5840e+02	-16.5990	-72.630090	0.000061	0.608067	0.206019	0.000024
1594	1.5850e+02	-16.5637	-72.517051	0.000284	2.837645	0.961420	0.000114
1595	1.5860e+02	-16.5204	-72.412085	0.000263	2.634956	0.892747	0.000105
1596	1.5870e+02	-16.4851	-72.286934	0.000314	3.141678	1.064429	0.000126
1597	1.5880e+02	-16.4482	-72.246563	0.000101	1.013445	0.343364	0.000041
1598	1.5890e+02	-16.4049	-72.121411	0.000314	3.141678	1.064429	0.000126
1599	1.5900e+02	-16.3616	-72.004334	0.000294	2.938989	0.995756	0.000118
1600	1.5910e+02	-16.3279	-71.927629	0.000193	1.925545	0.652392	0.000077
1601	1.5920e+02	-16.2798	-71.858998	0.000172	1.722856	0.583719	0.000069
1602	1.5930e+02	-16.2541	-71.758069	0.000253	2.533611	0.858411	0.000101
1603	1.5940e+02	-16.2108	-71.665215	0.000233	2.330922	0.789738	0.000093
1604	1.5950e+02	-16.1659	-71.536027	0.000324	3.243022	1.098766	0.000130
1605	1.5960e+02	-16.1354	-71.427024	0.000274	2.736300	0.927084	0.000110
1606	1.5970e+02	-16.0921	-71.342244	0.000213	2.128233	0.721065	0.000085
1607	1.5980e+02	-16.0455	-71.261501	0.000203	2.026889	0.686729	0.000081
1608	1.5990e+02	-16.0102	-71.152499	0.000274	2.736300	0.927084	0.000110
1609	1.6000e+02	-15.9733	-71.083868	0.000172	1.722856	0.583719	0.000069
1610	1.6010e+02	-15.9284	-70.966791	0.000294	2.938989	0.995756	0.000118
1611	1.6019e+02	-15.8883	-70.821454	0.000365	3.648400	1.236111	0.000146
1612	1.6029e+02	-15.8498	-70.764934	0.000142	1.418822	0.480710	0.000057
1613	1.6039e+02	-15.8145	-70.639783	0.000314	3.141678	1.064429	0.000126
1614	1.6049e+02	-15.7696	-70.546928	0.000233	2.330922	0.789738	0.000093
1615	1.6059e+02	-15.7311	-70.474260	0.000182	1.824200	0.618056	0.000073
1616	1.6069e+02	-15.6862	-70.349109	0.000314	3.141678	1.064429	0.000126
1617	1.6079e+02	-15.6477	-70.236069	0.000284	2.837645	0.961420	0.000114
1618	1.6089e+02	-15.6060	-70.163401	0.000182	1.824200	0.618056	0.000073
1619	1.6099e+02	-15.5707	-70.074584	0.000223	2.229578	0.755401	0.000089
1620	1.6109e+02	-15.5322	-69.957507	0.000294	2.938989	0.995756	0.000118
1621	1.6119e+02	-15.4873	-69.888875	0.000172	1.722856	0.583719	0.000069
1622	1.6129e+02	-15.4568	-69.763724	0.000314	3.141678	1.064429	0.000126
1623	1.6139e+02	-15.4087	-69.666833	0.000243	2.432267	0.824074	0.000097
1624	1.6149e+02	-15.3637	-69.521496	0.000365	3.648400	1.236111	0.000146
1625	1.6159e+02	-15.3300	-69.464976	0.000142	1.418822	0.480710	0.000057
1626	1.6169e+02	-15.2915	-69.323676	0.000355	3.547056	1.201775	0.000142
1627	1.6179e+02	-15.2530	-69.255045	0.000172	1.722856	0.583719	0.000069
1628	1.6189e+02	-15.2113	-69.154117	0.000253	2.533611	0.858411	0.000101
1629	1.6199e+02	-15.1793	-69.057225	0.000243	2.432267	0.824074	0.000097
1630	1.6209e+02	-15.1279	-68.944186	0.000284	2.837645	0.961420	0.000114
1631	1.6219e+02	-15.0894	-68.831146	0.000284	2.837645	0.961420	0.000114
1632	1.6228e+02	-15.0525	-68.750403	0.000203	2.026889	0.686729	0.000081
1633	1.6238e+02	-15.0124	-68.596992	0.000385	3.851089	1.304784	0.000154
1634	1.6248e+02	-14.9659	-68.516249	0.000203	2.026889	0.686729	0.000081
1635	1.6258e+02	-14.9290	-68.407247	0.000274	2.736300	0.927084	0.000110
1636	1.6268e+02	-14.9001	-68.334578	0.000182	1.824200	0.618056	0.000073
1637	1.6278e+02	-14.8472	-68.197315	0.000345	3.445711	1.167439	0.000138
1638	1.6288e+02	-14.8167	-68.096387	0.000253	2.533611	0.858411	0.000101
1639	1.6298e+02	-14.7814	-67.987384	0.000274	2.736300	0.927084	0.000110
1640	1.6308e+02	-14.7365	-67.886456	0.000253	2.533611	0.858411	0.000101
1641	1.6318e+02	-14.6932	-67.797639	0.000223	2.229578	0.755401	0.000089
1642	1.6328e+02	-14.6547	-67.680562	0.000294	2.938989	0.995756	0.000118
1643	1.6338e+02	-14.6178	-67.583671	0.000243	2.432267	0.824074	0.000097
1644	1.6348e+02	-14.5745	-67.450445	0.000334	3.344367	1.133102	0.000134
1645	1.6358e+02	-14.5295	-67.357591	0.000233	2.330922	0.789738	0.000093
1646	1.6368e+02	-14.4942	-67.244551	0.000284	2.837645	0.961420	0.000114
1647	1.6378e+02	-14.4509	-67.139586	0.000263	2.634956	0.892747	0.000105
1648	1.6388e+02	-14.4108	-67.018472	0.000304	3.040334	1.030093	0.000122
1649	1.6398e+02	-14.3819	-66.941766	0.000193	1.925545	0.652392	0.000077
1650	1.6408e+02	-14.3402	-66.828726	0.000284	2.837645	0.961420	0.000114
1651	1.6418e+02	-14.2905	-66.679352	0.000375	3.749745	1.270448	0.000150
1652	1.6427e+02	-14.2520	-66.606684	0.000182	1.824200	0.618056	0.000073
1653	1.6437e+02	-14.2199	-66.493644	0.000284	2.837645	0.961420	0.000114
1654	1.6447e+02	-14.1734	-66.384642	0.000274	2.736300	0.927084	0.000110
1655	1.6457e+02	-14.1221	-66.311973	0.000182	1.824200	0.618056	0.000073
1656	1.6467e+02	-14.0900	-66.190859	0.000304	3.040334	1.030093	0.000122
1657	1.6477e+02	-14.0451	-66.049559	0.000355	3.547056	1.201775	0.000142
1658	1.6487e+02	-14.0082	-65.980928	0.000172	1.722856	0.583719	0.000069
1659	1.6497e+02	-13.9777	-65.859814	0.000304	3.040334	1.030093	0.000122
1660	1.6507e+02	-13.9247	-65.754848	0.000263	2.634956	0.892747	0.000105
1661	1.6517e+02	-13.9039	-65.637771	0.000294	2.938989	0.995756	0.000118
1662	1.6527e+02	-13.8509	-65.548954	0.000223	2.229578	0.755401	0.000089
1663	1.6537e+02	-13.8205	-65.448026	0.000253	2.533611	0.858411	0.000101
1664	1.6547e+02	-13.7707	-65.347098	0.000253	2.533611	0.858411	0.000101
1665	1.6557e+02	-13.7370	-65.221946	0.000314	3.141678	1.064429	0.000126
1666	1.6567e+02	-13.6985	-65.084684	0.000345	3.445711	1.167439	0.000138
1667	1.6577e+02	-13.6665	-65.020090	0.000162	1.621511	0.549383	0.000065
1668	1.6587e+02	-13.6151	-64.898976	0.000304	3.040334	1.030093	0.000122
1669	1.6597e+02	-13.5766	-64.757676	0.000355	3.547056	1.201775	0.000142
1670	1.6607e+02	-13.5349	-64.680970	0.000193	1.925545	0.652392	0.000077
1671	1.6616e+02	-13.4964	-64.576005	0.000263	2.634956	0.892747	0.000105
1672	1.6626e+02	-13.4515	-64.450853	0.000314	3.141678	1.064429	0.000126
1673	1.6636e+02	-13.4178	-64.353962	0.000243	2.432267	0.824074	0.000097
1674	1.6646e+02	-13.3681	-64.216700	0.000345	3.445711	1.167439	0.000138
1675	1.6656e+02	-13.3424	-64.139994	0.000193	1.925545	0.652392	0.000077
1676	1.6666e+02	-13.2943	-64.018880	0.000304	3.040334	1.030093	0.000122
1677	1.6676e+02	-13.2654	-63.893729	0.000314	3.141678	1.064429	0.000126
1678	1.6686e+02	-13.2109	-63.752429	0.000355	3.547056	1.201775	0.000142
1679	1.6696e+02	-13.1772	-63.647463	0.000263	2.634956	0.892747	0.000105
1680	1.6706e+02	-13.1387	-63.546535	0.000253	2.533611	0.858411	0.000101
1681	1.6716e+02	-13.0954	-63.449644	0.000243	2.432267	0.824074	0.000097
1682	1.6726e+02	-13.0649	-63.300270	0.000375	3.749745	1.270448	0.000150
1683	1.6736e+02	-13.0200	-63.191267	0.000274	2.736300	0.927084	0.000110
1684	1.6746e+02	-12.9831	-63.078227	0.000284	2.837645	0.961420	0.000114
1685	1.6756e+02	-12.9397	-62.961150	0.000294	2.938989	0.995756	0.000118
1686	1.6766e+02	-12.9012	-62.888482	0.000182	1.824200	0.618056	0.000073
1687	1.6776e+02	-12.8579	-62.743145	0.000365	3.648400	1.236111	0.000146
1688	1.6786e+02	-12.8242	-62.666439	0.000193	1.925545	0.652392	0.000077
1689	1.6796e+02	-12.7793	-62.549363	0.000294	2.938989	0.995756	0.000118
1690	1.6806e+02	-12.7360	-62.412100	0.000345	3.445711	1.167439	0.000138
1691	1.6816e+02	-12.6927	-62.299060	0.000284	2.837645	0.961420	0.000114
1692	1.6825e+02	-12.6574	-62.145649	0.000385	3.851089	1.304784	0.000154
1693	1.6835e+02	-12.6333	-62.060869	0.000213	2.128233	0.721065	0.000085
1694	1.6845e+02	-12.5948	-61.955904	0.000263	2.634956	0.892747	0.000105
1695	1.6855e+02	-12.5483	-61.834790	0.000304	3.040334	1.030093	0.000122
1696	1.6865e+02	-12.5082	-61.713675	0.000304	3.040334	1.030093	0.000122
1697	1.6875e+02	-12.4665	-61.632933	0.000203	2.026889	0.686729	0.000081
1698	1.6885e+02	-12.4184	-61.491633	0.000355	3.547056	1.201775	0.000142
1699	1.6895e+02	-12.3799	-61.366482	0.000314	3.141678	1.064429	0.000126
1700	1.6905e+02	-12.3366	-61.269591	0.000243	2.432267	0.824074	0.000097
1701	1.6915e+02	-12.2980	-61.160588	0.000274	2.736300	0.927084	0.000110
1702	1.6925e+02	-12.2612	-61.055622	0.000263	2.634956	0.892747	0.000105
1703	1.6935e+02	-12.2275	-60.918360	0.000345	3.445711	1.167439	0.000138
1704	1.6945e+02	-12.1858	-60.797246	0.000304	3.040334	1.030093	0.000122
1705	1.6955e+02	-12.1456	-60.732651	0.000162	1.621511	0.549383	0.000065
1706	1.6965e+02	-12.1071	-60.571166	0.000405	4.053778	1.373457	0.000162
1707	1.6975e+02	-12.0670	-60.433903	0.000345	3.445711	1.167439	0.000138
1708	1.6985e+02	-12.0205	-60.320864	0.000284	2.837645	0.961420	0.000114
1709	1.6995e+02	-11.9836	-60.236084	0.000213	2.128233	0.721065	0.000085
1710	1.7005e+02	-11.9419	-60.102858	0.000334	3.344367	1.133102	0.000134
1711	1.7015e+02	-11.8986	-59.977707	0.000314	3.141678	1.064429	0.000126
1712	1.7024e+02	-11.8649	-59.872742	0.000263	2.634956	0.892747	0.000105
1713	1.7034e+02	-11.8248	-59.747590	0.000314	3.141678	1.064429	0.000126
1714	1.7044e+02	-11.7751	-59.626476	0.000304	3.040334	1.030093	0.000122
1715	1.7054e+02	-11.7478	-59.497288	0.000324	3.243022	1.098766	0.000130
1716	1.7064e+02	-11.7109	-59.376174	0.000304	3.040334	1.030093	0.000122
1717	1.7074e+02	-11.6708	-59.263134	0.000284	2.837645	0.961420	0.000114
1718	1.7084e+02	-11.6130	-59.133946	0.000324	3.243022	1.098766	0.000130
1719	1.7094e+02	-11.5890	-59.041092	0.000233	2.330922	0.789738	0.000093
1720	1.7104e+02	-11.5505	-58.883643	0.000395	3.952434	1.339121	0.000158
1721	1.7114e+02	-11.5007	-58.819049	0.000162	1.621511	0.549383	0.000065
1722	1.7124e+02	-11.4574	-58.673712	0.000365	3.648400	1.236111	0.000146
1723	1.7134e+02	-11.4253	-58.552598	0.000304	3.040334	1.030093	0.000122
1724	1.7144e+02	-11.3772	-58.451670	0.000253	2.533611	0.858411	0.000101
1725	1.7154e+02	-11.3483	-58.310370	0.000355	3.547056	1.201775	0.000142
1726	1.7164e+02	-11.3082	-58.201367	0.000274	2.736300	0.927084	0.000110
1727	1.7174e+02	-11.2617	-58.084290	0.000294	2.938989	0.995756	0.000118
1728	1.7184e+02	-11.2280	-57.947028	0.000345	3.445711	1.167439	0.000138
1729	1.7194e+02	-11.1879	-57.833988	0.000284	2.837645	0.961420	0.000114
1730	1.7204e+02	-11.1574	-57.716911	0.000294	2.938989	0.995756	0.000118
1731	1.7213e+02	-11.1109	-57.579648	0.000345	3.445711	1.167439	0.000138
1732	1.7223e+02	-11.0644	-57.466609	0.000284	2.837645	0.961420	0.000114
1733	1.7233e+02	-11.0371	-57.345495	0.000304	3.040334	1.030093	0.000122
1734	1.7243e+02	-10.9858	-57.236492	0.000274	2.736300	0.927084	0.000110
1735	1.7253e+02	-10.9425	-57.135564	0.000253	2.533611	0.858411	0.000101
1736	1.7263e+02	-10.9104	-56.970041	0.000416	4.155123	1.407794	0.000166
1737	1.7273e+02	-10.8735	-56.861038	0.000274	2.736300	0.927084	0.000110
1738	1.7283e+02	-10.8238	-56.723776	0.000345	3.445711	1.167439	0.000138
1739	1.7293e+02	-10.7917	-56.602662	0.000304	3.040334	1.030093	0.000122
1740	1.7303e+02	-10.7500	-56.497696	0.000263	2.634956	0.892747	0.000105
1741	1.7313e+02	-10.7179	-56.336211	0.000405	4.053778	1.373457	0.000162
1742	1.7323e+02	-10.6649	-56.227208	0.000274	2.736300	0.927084	0.000110
1743	1.7333e+02	-10.6280	-56.118205	0.000274	2.736300	0.927084	0.000110
1744	1.7343e+02	-10.5831	-55.972868	0.000365	3.648400	1.236111	0.000146
1745	1.7353e+02	-10.5510	-55.855792	0.000294	2.938989	0.995756	0.000118
1746	1.7363e+02	-10.5093	-55.738715	0.000294	2.938989	0.995756	0.000118
1747	1.7373e+02	-10.4724	-55.573192	0.000416	4.155123	1.407794	0.000166
1748	1.7383e+02	-10.4387	-55.456115	0.000294	2.938989	0.995756	0.000118
1749	1.7393e+02	-10.3890	-55.383447	0.000182	1.824200	0.618056	0.000073
1750	1.7403e+02	-10.3489	-55.242147	0.000355	3.547056	1.201775	0.000142
1751	1.7413e+02	-10.3120	-55.100847	0.000355	3.547056	1.201775	0.000142
1752	1.7422e+02	-10.2639	-54.991844	0.000274	2.736300	0.927084	0.000110
1753	1.7432e+02	-10.2350	-54.866693	0.000314	3.141678	1.064429	0.000126
1754	1.7442e+02	-10.1933	-54.705208	0.000405	4.053778	1.373457	0.000162
1755	1.7452e+02	-10.1420	-54.592168	0.000284	2.837645	0.961420	0.000114
1756	1.7462e+02	-10.1035	-54.483165	0.000274	2.736300	0.927084	0.000110
1757	1.7472e+02	-10.0746	-54.345903	0.000345	3.445711	1.167439	0.000138
1758	1.7482e+02	-10.0184	-54.236900	0.000274	2.736300	0.927084	0.000110
1759	1.7492e+02	-9.9944	-54.087526	0.000375	3.749745	1.270448	0.000150
1760	1.7502e+02	-9.9495	-53.962375	0.000314	3.141678	1.064429	0.000126
1761	1.7512e+02	-9.9077	-53.845298	0.000294	2.938989	0.995756	0.000118
1762	1.7522e+02	-9.8692	-53.712072	0.000334	3.344367	1.133102	0.000134
1763	1.7532e+02	-9.8291	-53.599033	0.000284	2.837645	0.961420	0.000114
1764	1.7542e+02	-9.7874	-53.481956	0.000294	2.938989	0.995756	0.000118
1765	1.7552e+02	-9.7505	-53.364879	0.000294	2.938989	0.995756	0.000118
1766	1.7562e+02	-9.7072	-53.223579	0.000355	3.547056	1.201775	0.000142
1767	1.7572e+02	-9.6655	-53.074205	0.000375	3.749745	1.270448	0.000150
1768	1.7582e+02	-9.6350	-52.961165	0.000284	2.837645	0.961420	0.000114
1769	1.7592e+02	-9.5949	-52.864274	0.000243	2.432267	0.824074	0.000097
1770	1.7602e+02	-9.5500	-52.694714	0.000426	4.256467	1.442130	0.000170
1771	1.7612e+02	-9.5083	-52.577637	0.000294	2.938989	0.995756	0.000118
1772	1.7621e+02	-9.4650	-52.464597	0.000284	2.837645	0.961420	0.000114
1773	1.7631e+02	-9.4425	-52.315223	0.000375	3.749745	1.270448	0.000150
1774	1.7641e+02	-9.3896	-52.190072	0.000314	3.141678	1.064429	0.000126
1775	1.7651e+02	-9.3591	-52.052810	0.000345	3.445711	1.167439	0.000138
1776	1.7661e+02	-9.3158	-51.959956	0.000233	2.330922	0.789738	0.000093
1777	1.7671e+02	-9.2805	-51.814619	0.000365	3.648400	1.236111	0.000146
1778	1.7681e+02	-9.2356	-51.649096	0.000416	4.155123	1.407794	0.000166
1779	1.7691e+02	-9.1955	-51.527982	0.000304	3.040334	1.030093	0.000122
1780	1.7701e+02	-9.1538	-51.423016	0.000263	2.634956	0.892747	0.000105
1781	1.7711e+02	-9.1169	-51.257494	0.000416	4.155123	1.407794	0.000166
1782	1.7721e+02	-9.0784	-51.140417	0.000294	2.938989	0.995756	0.000118
1783	1.7731e+02	-9.0334	-51.035451	0.000263	2.634956	0.892747	0.000105
1784	1.7741e+02	-9.0014	-50.841669	0.000486	4.864534	1.648149	0.000195
1785	1.7751e+02	-8.9677	-50.748815	0.000233	2.330922	0.789738	0.000093
1786	1.7761e+02	-8.9147	-50.599441	0.000375	3.749745	1.270448	0.000150
1787	1.7771e+02	-8.8746	-50.498512	0.000253	2.533611	0.858411	0.000101
1788	1.7781e+02	-8.8345	-50.337027	0.000405	4.053778	1.373457	0.000162
1789	1.7791e+02	-8.7960	-50.203801	0.000334	3.344367	1.133102	0.000134
1790	1.7801e+02	-8.7607	-50.062502	0.000355	3.547056	1.201775	0.000142
1791	1.7810e+02	-8.7158	-49.917165	0.000365	3.648400	1.236111	0.000146
1792	1.7820e+02	-8.6805	-49.804125	0.000284	2.837645	0.961420	0.000114
1793	1.7830e+02	-8.6276	-49.674937	0.000324	3.243022	1.098766	0.000130
1794	1.7840e+02	-8.5939	-49.565934	0.000274	2.736300	0.927084	0.000110
1795	1.7850e+02	-8.5554	-49.408486	0.000395	3.952434	1.339121	0.000158
1796	1.7860e+02	-8.5217	-49.247000	0.000405	4.053778	1.373457	0.000162
1797	1.7870e+02	-8.4768	-49.121849	0.000314	3.141678	1.064429	0.000126
1798	1.7880e+02	-8.4351	-48.976512	0.000365	3.648400	1.236111	0.000146
1799	1.7890e+02	-8.4014	-48.907881	0.000172	1.722856	0.583719	0.000069
1800	1.7900e+02	-8.3516	-48.730247	0.000446	4.459156	1.510803	0.000179
1801	1.7910e+02	-8.3179	-48.601059	0.000324	3.243022	1.098766	0.000130
1802	1.7920e+02	-8.2714	-48.455722	0.000365	3.648400	1.236111	0.000146
1803	1.7930e+02	-8.2425	-48.302311	0.000385	3.851089	1.304784	0.000154
1804	1.7940e+02	-8.1992	-48.185234	0.000294	2.938989	0.995756	0.000118
1805	1.7950e+02	-8.1527	-48.023748	0.000405	4.053778	1.373457	0.000162
1806	1.7960e+02	-8.1254	-47.874374	0.000375	3.749745	1.270448	0.000150
1807	1.7970e+02	-8.0757	-47.749223	0.000314	3.141678	1.064429	0.000126
1808	1.7980e+02	-8.0292	-47.656369	0.000233	2.330922	0.789738	0.000093
1809	1.7990e+02	-8.0051	-47.450475	0.000517	5.168567	1.751158	0.000207
1810	1.8000e+02	-7.9618	-47.357621	0.000233	2.330922	0.789738	0.000093
1811	1.8009e+02	-7.9297	-47.200172	0.000395	3.952434	1.339121	0.000158
1812	1.8019e+02	-7.8752	-47.062910	0.000345	3.445711	1.167439	0.000138
1813	1.8029e+02	-7.8431	-46.901424	0.000405	4.053778	1.373457	0.000162
1814	1.8039e+02	-7.8014	-46.788385	0.000284	2.837645	0.961420	0.000114
1815	1.8049e+02	-7.7565	-46.651122	0.000345	3.445711	1.167439	0.000138
1816	1.8059e+02	-7.7196	-46.453302	0.000497	4.965878	1.682485	0.000199
1817	1.8069e+02	-7.6746	-46.332188	0.000304	3.040334	1.030093	0.000122
1818	1.8079e+02	-7.6378	-46.215111	0.000294	2.938989	0.995756	0.000118
1819	1.8089e+02	-7.6073	-46.089960	0.000314	3.141678	1.064429	0.000126
1820	1.8099e+02	-7.5672	-45.948660	0.000355	3.547056	1.201775	0.000142
1821	1.8109e+02	-7.5367	-45.791212	0.000395	3.952434	1.339121	0.000158
1822	1.8119e+02	-7.4725	-45.690284	0.000253	2.533611	0.858411	0.000101
1823	1.8129e+02	-7.4436	-45.484390	0.000517	5.168567	1.751158	0.000207
1824	1.8139e+02	-7.3923	-45.363276	0.000304	3.040334	1.030093	0.000122
1825	1.8149e+02	-7.3666	-45.250236	0.000284	2.837645	0.961420	0.000114
1826	1.8159e+02	-7.3265	-45.084713	0.000416	4.155123	1.407794	0.000166
1827	1.8169e+02	-7.2800	-44.935339	0.000375	3.749745	1.270448	0.000150
1828	1.8179e+02	-7.2335	-44.802114	0.000334	3.344367	1.133102	0.000134
1829	1.8189e+02	-7.2062	-44.644666	0.000395	3.952434	1.339121	0.000158
1830	1.8199e+02	-7.1693	-44.479143	0.000416	4.155123	1.407794	0.000166
1831	1.8209e+02	-7.1292	-44.366103	0.000284	2.837645	0.961420	0.000114
1832	1.8218e+02	-7.0731	-44.180395	0.000466	4.661845	1.579476	0.000187
1833	1.8228e+02	-7.0522	-44.063318	0.000294	2.938989	0.995756	0.000118
1834	1.8238e+02	-7.0105	-43.942204	0.000304	3.040334	1.030093	0.000122
1835	1.8248e+02	-6.9720	-43.780719	0.000405	4.053778	1.373457	0.000162
1836	1.8258e+02	-6.9223	-43.623270	0.000395	3.952434	1.339121	0.000158
1837	1.8268e+02	-6.8790	-43.502156	0.000304	3.040334	1.030093	0.000122
1838	1.8278e+02	-6.8404	-43.328559	0.000436	4.357811	1.476466	0.000174
1839	1.8288e+02	-6.7923	-43.159000	0.000426	4.256467	1.442130	0.000170
1840	1.8298e+02	-6.7650	-43.001551	0.000395	3.952434	1.339121	0.000158
1841	1.8308e+02	-6.7249	-42.888512	0.000284	2.837645	0.961420	0.000114
1842	1.8318e+02	-6.6880	-42.739137	0.000375	3.749745	1.270448	0.000150
1843	1.8328e+02	-6.6399	-42.577652	0.000405	4.053778	1.373457	0.000162
1844	1.8338e+02	-6.5966	-42.416167	0.000405	4.053778	1.373457	0.000162
1845	1.8348e+02	-6.5613	-42.242570	0.000436	4.357811	1.476466	0.000174
1846	1.8358e+02	-6.5244	-42.133567	0.000274	2.736300	0.927084	0.000110
1847	1.8368e+02	-6.4827	-41.976119	0.000395	3.952434	1.339121	0.000158
1848	1.8378e+02	-6.4554	-41.826745	0.000375	3.749745	1.270448	0.000150
1849	1.8388e+02	-6.4025	-41.657185	0.000426	4.256467	1.442130	0.000170
1850	1.8398e+02	-6.3720	-41.519922	0.000345	3.445711	1.167439	0.000138
1851	1.8407e+02	-6.3367	-41.370548	0.000375	3.749745	1.270448	0.000150
1852	1.8417e+02	-6.2934	-41.205026	0.000416	4.155123	1.407794	0.000166
1853	1.8427e+02	-6.2517	-41.067763	0.000345	3.445711	1.167439	0.000138
1854	1.8437e+02	-6.2132	-40.906278	0.000405	4.053778	1.373457	0.000162
1855	1.8447e+02	-6.1747	-40.716532	0.000476	4.763189	1.613812	0.000191
1856	1.8457e+02	-6.1394	-40.571196	0.000365	3.648400	1.236111	0.000146
1857	1.8467e+02	-6.0929	-40.450082	0.000304	3.040334	1.030093	0.000122
1858	1.8477e+02	-6.0512	-40.296670	0.000385	3.851089	1.304784	0.000154
1859	1.8487e+02	-6.0046	-40.143259	0.000385	3.851089	1.304784	0.000154
1860	1.8497e+02	-5.9710	-39.973700	0.000426	4.256467	1.442130	0.000170
1861	1.8507e+02	-5.9325	-39.808177	0.000416	4.155123	1.407794	0.000166
1862	1.8517e+02	-5.8972	-39.642654	0.000416	4.155123	1.407794	0.000166
1863	1.8527e+02	-5.8426	-39.529615	0.000284	2.837645	0.961420	0.000114
1864	1.8537e+02	-5.8153	-39.376203	0.000385	3.851089	1.304784	0.000154
1865	1.8547e+02	-5.7704	-39.222792	0.000385	3.851089	1.304784	0.000154
1866	1.8557e+02	-5.7287	-39.037084	0.000466	4.661845	1.579476	0.000187
1867	1.8567e+02	-5.6838	-38.867524	0.000426	4.256467	1.442130	0.000170
1868	1.8577e+02	-5.6517	-38.710076	0.000395	3.952434	1.339121	0.000158
1869	1.8587e+02	-5.6164	-38.544553	0.000416	4.155123	1.407794	0.000166
1870	1.8597e+02	-5.5699	-38.399217	0.000365	3.648400	1.236111	0.000146
1871	1.8606e+02	-5.5330	-38.225620	0.000436	4.357811	1.476466	0.000174
1872	1.8616e+02	-5.4881	-38.072209	0.000385	3.851089	1.304784	0.000154
1873	1.8626e+02	-5.4528	-37.906686	0.000416	4.155123	1.407794	0.000166
1874	1.8636e+02	-5.4159	-37.765386	0.000355	3.547056	1.201775	0.000142
1875	1.8646e+02	-5.3646	-37.587752	0.000446	4.459156	1.510803	0.000179
1876	1.8656e+02	-5.3261	-37.426267	0.000405	4.053778	1.373457	0.000162
1877	1.8666e+02	-5.2988	-37.276893	0.000375	3.749745	1.270448	0.000150
1878	1.8676e+02	-5.2474	-37.107333	0.000426	4.256467	1.442130	0.000170
1879	1.8686e+02	-5.2202	-36.941811	0.000416	4.155123	1.407794	0.000166
1880	1.8696e+02	-5.1688	-36.752065	0.000476	4.763189	1.613812	0.000191
1881	1.8706e+02	-5.1351	-36.626914	0.000314	3.141678	1.064429	0.000126
1882	1.8716e+02	-5.0806	-36.449280	0.000446	4.459156	1.510803	0.000179
1883	1.8726e+02	-5.0549	-36.303943	0.000365	3.648400	1.236111	0.000146
1884	1.8736e+02	-5.0116	-36.150532	0.000385	3.851089	1.304784	0.000154
1885	1.8746e+02	-4.9699	-35.920415	0.000578	5.776634	1.957176	0.000231
1886	1.8756e+02	-4.9314	-35.791227	0.000324	3.243022	1.098766	0.000130
1887	1.8766e+02	-4.8881	-35.601482	0.000476	4.763189	1.613812	0.000191
1888	1.8776e+02	-4.8560	-35.472293	0.000324	3.243022	1.098766	0.000130
1889	1.8786e+02	-4.8063	-35.258325	0.000537	5.371256	1.819831	0.000215
1890	1.8796e+02	-4.7774	-35.092802	0.000416	4.155123	1.407794	0.000166
1891	1.8806e+02	-4.7437	-34.975725	0.000294	2.938989	0.995756	0.000118
1892	1.8815e+02	-4.7004	-34.806166	0.000426	4.256467	1.442130	0.000170
1893	1.8825e+02	-4.6475	-34.644680	0.000405	4.053778	1.373457	0.000162
1894	1.8835e+02	-4.6170	-34.414564	0.000578	5.776634	1.957176	0.000231
1895	1.8845e+02	-4.5640	-34.257115	0.000395	3.952434	1.339121	0.000158
1896	1.8855e+02	-4.5400	-34.075444	0.000456	4.560500	1.545139	0.000183
1897	1.8865e+02	-4.4822	-33.917996	0.000395	3.952434	1.339121	0.000158
1898	1.8875e+02	-4.4550	-33.756510	0.000405	4.053778	1.373457	0.000162
1899	1.8885e+02	-4.4213	-33.562728	0.000486	4.864534	1.648149	0.000195
1900	1.8895e+02	-4.3763	-33.368945	0.000486	4.864534	1.648149	0.000195
1901	1.8905e+02	-4.3266	-33.235720	0.000334	3.344367	1.133102	0.000134
1902	1.8915e+02	-4.2977	-33.090383	0.000365	3.648400	1.236111	0.000146
1903	1.8925e+02	-4.2544	-32.896601	0.000486	4.864534	1.648149	0.000195
1904	1.8935e+02	-4.2175	-32.698781	0.000497	4.965878	1.682485	0.000199
1905	1.8945e+02	-4.1774	-32.549407	0.000375	3.749745	1.270448	0.000150
1906	1.8955e+02	-4.1389	-32.355624	0.000486	4.864534	1.648149	0.000195
1907	1.8965e+02	-4.0940	-32.177990	0.000446	4.459156	1.510803	0.000179
1908	1.8975e+02	-4.0523	-32.008431	0.000426	4.256467	1.442130	0.000170
1909	1.8985e+02	-4.0186	-31.818685	0.000476	4.763189	1.613812	0.000191
1910	1.8995e+02	-3.9785	-31.669311	0.000375	3.749745	1.270448	0.000150
1911	1.9004e+02	-3.9448	-31.451306	0.000547	5.472600	1.854167	0.000219
1912	1.9014e+02	-3.8951	-31.293858	0.000395	3.952434	1.339121	0.000158
1913	1.9024e+02	-3.8598	-31.079889	0.000537	5.371256	1.819831	0.000215
1914	1.9034e+02	-3.8213	-30.910330	0.000426	4.256467	1.442130	0.000170
1915	1.9044e+02	-3.7716	-30.736733	0.000436	4.357811	1.476466	0.000174
1916	1.9054e+02	-3.7250	-30.534876	0.000507	5.067223	1.716821	0.000203
1917	1.9064e+02	-3.6994	-30.381465	0.000385	3.851089	1.304784	0.000154
1918	1.9074e+02	-3.6560	-30.191720	0.000476	4.763189	1.613812	0.000191
1919	1.9084e+02	-3.6224	-30.001974	0.000476	4.763189	1.613812	0.000191
1920	1.9094e+02	-3.5758	-29.844526	0.000395	3.952434	1.339121	0.000158
1921	1.9104e+02	-3.5309	-29.630558	0.000537	5.371256	1.819831	0.000215
1922	1.9114e+02	-3.4940	-29.412552	0.000547	5.472600	1.854167	0.000219
1923	1.9124e+02	-3.4555	-29.279327	0.000334	3.344367	1.133102	0.000134
1924	1.9134e+02	-3.4106	-29.097656	0.000456	4.560500	1.545139	0.000183
1925	1.9144e+02	-3.3721	-28.944245	0.000385	3.851089	1.304784	0.000154
1926	1.9154e+02	-3.3416	-28.702017	0.000608	6.080667	2.060186	0.000243
1927	1.9164e+02	-3.2919	-28.532457	0.000426	4.256467	1.442130	0.000170
1928	1.9174e+02	-3.2598	-28.334637	0.000497	4.965878	1.682485	0.000199
1929	1.9184e+02	-3.2325	-28.185263	0.000375	3.749745	1.270448	0.000150
1930	1.9194e+02	-3.1860	-27.947072	0.000598	5.979323	2.025849	0.000239
1931	1.9203e+02	-3.1395	-27.785587	0.000405	4.053778	1.373457	0.000162
1932	1.9213e+02	-3.1090	-27.607953	0.000446	4.459156	1.510803	0.000179
1933	1.9223e+02	-3.0609	-27.389947	0.000547	5.472600	1.854167	0.000219
1934	1.9233e+02	-3.0144	-27.244611	0.000365	3.648400	1.236111	0.000146
1935	1.9243e+02	-2.9855	-27.054865	0.000476	4.763189	1.613812	0.000191
1936	1.9253e+02	-2.9374	-26.865120	0.000476	4.763189	1.613812	0.000191
1937	1.9263e+02	-2.8988	-26.671337	0.000486	4.864534	1.648149	0.000195
1938	1.9273e+02	-2.8652	-26.485629	0.000466	4.661845	1.579476	0.000187
1939	1.9283e+02	-2.8170	-26.255512	0.000578	5.776634	1.957176	0.000231
1940	1.9293e+02	-2.7817	-26.073841	0.000456	4.560500	1.545139	0.000183
1941	1.9303e+02	-2.7464	-25.880059	0.000486	4.864534	1.648149	0.000195
1942	1.9313e+02	-2.6871	-25.714536	0.000416	4.155123	1.407794	0.000166
1943	1.9323e+02	-2.6614	-25.476345	0.000598	5.979323	2.025849	0.000239
1944	1.9333e+02	-2.6261	-25.306785	0.000426	4.256467	1.442130	0.000170
1945	1.9343e+02	-2.5828	-25.145300	0.000405	4.053778	1.373457	0.000162
1946	1.9353e+02	-2.5427	-24.911146	0.000588	5.877978	1.991513	0.000235
1947	1.9363e+02	-2.4978	-24.705252	0.000517	5.168567	1.751158	0.000207
1948	1.9373e+02	-2.4689	-24.511470	0.000486	4.864534	1.648149	0.000195
1949	1.9383e+02	-2.4192	-24.301539	0.000527	5.269911	1.785494	0.000211
1950	1.9393e+02	-2.3855	-24.087570	0.000537	5.371256	1.819831	0.000215
1951	1.9403e+02	-2.3374	-23.885714	0.000507	5.067223	1.716821	0.000203
1952	1.9412e+02	-2.3053	-23.700005	0.000466	4.661845	1.579476	0.000187
1953	1.9422e+02	-2.2556	-23.510260	0.000476	4.763189	1.613812	0.000191
1954	1.9432e+02	-2.2235	-23.280143	0.000578	5.776634	1.957176	0.000231
1955	1.9442e+02	-2.1802	-23.094435	0.000466	4.661845	1.579476	0.000187
1956	1.9452e+02	-2.1513	-22.892578	0.000507	5.067223	1.716821	0.000203
1957	1.9462e+02	-2.1048	-22.678610	0.000537	5.371256	1.819831	0.000215
1958	1.9472e+02	-2.0646	-22.476753	0.000507	5.067223	1.716821	0.000203
1959	1.9482e+02	-2.0197	-22.299119	0.000446	4.459156	1.510803	0.000179
1960	1.9492e+02	-1.9892	-22.036705	0.000659	6.587389	2.231868	0.000264
1961	1.9502e+02	-1.9363	-21.863109	0.000436	4.357811	1.476466	0.000174
1962	1.9512e+02	-1.9026	-21.649140	0.000537	5.371256	1.819831	0.000215
1963	1.9522e+02	-1.8609	-21.487655	0.000405	4.053778	1.373457	0.000162
1964	1.9532e+02	-1.8240	-21.209093	0.000699	6.992767	2.369214	0.000280
1965	1.9542e+02	-1.7759	-20.999162	0.000527	5.269911	1.785494	0.000211
1966	1.9552e+02	-1.7470	-20.825565	0.000436	4.357811	1.476466	0.000174
1967	1.9562e+02	-1.7133	-20.627745	0.000497	4.965878	1.682485	0.000199
1968	1.9572e+02	-1.6636	-20.389554	0.000598	5.979323	2.025849	0.000239
1969	1.9582e+02	-1.6283	-20.171549	0.000547	5.472600	1.854167	0.000219
1970	1.9592e+02	-1.5866	-19.989878	0.000456	4.560500	1.545139	0.000183
1971	1.9601e+02	-1.5417	-19.743612	0.000618	6.182012	2.094522	0.000248
1972	1.9611e+02	-1.5080	-19.521570	0.000557	5.573945	1.888504	0.000223
1973	1.9621e+02	-1.4743	-19.323750	0.000497	4.965878	1.682485	0.000199
1974	1.9631e+02	-1.4246	-19.109782	0.000537	5.371256	1.819831	0.000215
1975	1.9641e+02	-1.3828	-18.903888	0.000517	5.168567	1.751158	0.000207
1976	1.9651e+02	-1.3411	-18.669734	0.000588	5.877978	1.991513	0.000235
1977	1.9661e+02	-1.3042	-18.415395	0.000638	6.384700	2.163195	0.000256
1978	1.9671e+02	-1.2722	-18.233724	0.000456	4.560500	1.545139	0.000183
1979	1.9681e+02	-1.2321	-17.975347	0.000649	6.486045	2.197532	0.000260
1980	1.9691e+02	-1.1935	-17.793676	0.000456	4.560500	1.545139	0.000183
1981	1.9701e+02	-1.1486	-17.583745	0.000527	5.269911	1.785494	0.000211
1982	1.9711e+02	-1.0973	-17.369777	0.000537	5.371256	1.819831	0.000215
1983	1.9721e+02	-1.0636	-17.111400	0.000649	6.486045	2.197532	0.000260
1984	1.9731e+02	-1.0267	-16.873209	0.000598	5.979323	2.025849	0.000239
1985	1.9741e+02	-0.9962	-16.671352	0.000507	5.067223	1.716821	0.000203
1986	1.9751e+02	-0.9449	-16.433161	0.000598	5.979323	2.025849	0.000239
1987	1.9761e+02	-0.8984	-16.194970	0.000598	5.979323	2.025849	0.000239
1988	1.9771e+02	-0.8727	-15.989076	0.000517	5.168567	1.751158	0.000207
1989	1.9781e+02	-0.8230	-15.779145	0.000527	5.269911	1.785494	0.000211
1990	1.9791e+02	-0.7877	-15.557103	0.000557	5.573945	1.888504	0.000223
1991	1.9800e+02	-0.7524	-15.314874	0.000608	6.080667	2.060186	0.000243
1992	1.9810e+02	-0.6994	-15.096869	0.000547	5.472600	1.854167	0.000219
1993	1.9820e+02	-0.6754	-14.834455	0.000659	6.587389	2.231868	0.000264
1994	1.9830e+02	-0.6208	-14.664896	0.000426	4.256467	1.442130	0.000170
1995	1.9840e+02	-0.5920	-14.406519	0.000649	6.486045	2.197532	0.000260
1996	1.9850e+02	-0.5390	-14.188514	0.000547	5.472600	1.854167	0.000219
1997	1.9860e+02	-0.5134	-13.934174	0.000638	6.384700	2.163195	0.000256
1998	1.9870e+02	-0.4716	-13.687909	0.000618	6.182012	2.094522	0.000248
1999	1.9880e+02	-0.4203	-13.469903	0.000547	5.472600	1.854167	0.000219
2000	1.9890e+02	-0.3818	-13.203452	0.000669	6.688734	2.266204	0.000268
2001	1.9900e+02	-0.3577	-12.981410	0.000557	5.573945	1.888504	0.000223
2002	1.9910e+02	-0.3144	-12.731108	0.000628	6.283356	2.128859	0.000252
2003	1.9920e+02	-0.2663	-12.537325	0.000486	4.864534	1.648149	0.000195
2004	1.9930e+02	-0.2310	-12.319320	0.000547	5.472600	1.854167	0.000219
2005	1.9940e+02	-0.1973	-12.056906	0.000659	6.587389	2.231868	0.000264
2006	1.9950e+02	-0.1572	-11.826789	0.000578	5.776634	1.957176	0.000231
2007	1.9960e+02	-0.1123	-11.612821	0.000537	5.371256	1.819831	0.000215
2008	1.9970e+02	-0.0706	-11.378667	0.000588	5.877978	1.991513	0.000235
2009	1.9980e+02	-0.0209	-11.079919	0.000588	5.877978	1.991513	0.000300

Center data before PMax,+/-Pr and +/-Vc Calc.

PMax (uC/cm2):	7.89e+01
Pr (uC/cm2):	5.29e+00
-Pr (uC/cm2):	-1.11e+01
PLoss (uC/cm2):	-5.58e+00
Vc:	9.38e-01
-Vc:	-9.00e-01
C (Max-Eff) (nF):	3.95e-01
K (Eff):	1.34e+03
Vert. (+/-Pr) Shift (uC/cm2):	-2.90e+00
Horiz. Shift (+/-Vc):	1.87e-02
Offset (uC/cm2):	5.52e+00

A (Loop Area - uC/cm2·Volts):	1.01e-01



Hysteresis Version: 5.48.1 - Radiant Technologies, Inc., 1999 - 9/12/24

