»»»»»»»»»»»»»»»»»»»»»»»»»»»»»»»»»»»» Hysteresis ««««««««««««««««««««««««««««««««««««
»»»  Executed Version:	5.48.1
»»»  Vision Version:	5.48.4 (R)
»»»  Vision Compiled:	9/18/24
»»»  Driver Version:	5.47.0
»»»  Windows Version:	Windows 8 or 8.1
»»»  Processor Information:	x86 (AMD or Intel) - 32 Processors
»»»  Tester Name:	PMF21124-494 (100V)
»»»  Tester S/N:	PMF21124-494
»»»  Internal Amp Type:	100V RevK 270k
»»»  Internal Amp S/N:	iAB2-596/K     
»»»  Execution Count:	1
»»»»»»»»»»»»»»»»»»»»»»»»»»»»»»»»»»»»»»»»»»««««««««««««««««««««««««««««««««««««««««««

Stored:	6/12/2025 - 16:8:13
Configured:	06/12/25 03:03:03 PM
Executed:	06/12/25 04:07:38 PM

»»»»»»»»»»»»»»»»»»»»»»»»»»»»»»»»»»» Sample Info ««««««««««««««««««««««««««««««««««««
Sample Name:	
Lot Name:	
Wafer Name:	
Die Row/Column:	0/0
Capacitor Number:	0
Sample Area (cm2):	1.00e-04
Sample Thickness (microns):	3.00e-01

Amplifier:	Internal

»»»»»»»»»»»»»»»»»»»»»»»»»»»»»»»»»»» Tester Info «««««««««««««««««««««««««««««««««««
Tester Name:	PMF21124-494 (100V)
Tester Serial Number:	PMF21124-494
Return Signal Amp. Level:	0.19 [Index: 3]

»»»»»»»»»»»»»»»»»»»»»»»»»»»»»»»» Hysteresis Info ««««««««««««««««««««««««««««««««««
Task Name:	Hyst-1570
Volts:	20.00
Field:	666.67 (kV/cm)
DCBias:	0.00
DCField:	0.00 (kV/cm)
Hysteresis Period (ms):	2.00e+02
Preset:	Enabled
Preset Delay (ms):	1.00e+03
Profile:	Standard Bipolar

»»»»»»»»»»»»»»»»»»»»»»»»»»»»»»»»»»»»»» Data «««««««««««««««««««««««««««««««««««««««
Points:	2009

Valid Data

Point	Time (ms)	Drive Voltage	Measured Polarization (uC/cm2)	Capacitance (uF)	Normalized Capacitance (uF/cm2)	Dielectric Constant	Instantaneous Current (mA)
   1	0.0000e+00	0.0048	-4.168343	0.000213	2.128148	0.721036	0.000085
   2	9.9500e-02	0.0273	-4.083563	0.000213	2.128148	0.721036	0.000085
   3	1.9900e-01	0.0722	-3.889780	0.000486	4.864339	1.648083	0.000195
   4	2.9850e-01	0.1123	-3.752518	0.000345	3.445573	1.167392	0.000138
   5	3.9800e-01	0.1540	-3.586995	0.000415	4.154956	1.407737	0.000166
   6	4.9750e-01	0.2021	-3.413398	0.000436	4.357637	1.476407	0.000174
   7	5.9700e-01	0.2310	-3.284210	0.000324	3.242892	1.098722	0.000130
   8	6.9650e-01	0.2711	-3.118687	0.000415	4.154956	1.407737	0.000166
   9	7.9600e-01	0.3144	-2.953165	0.000415	4.154956	1.407737	0.000166
  10	8.9550e-01	0.3545	-2.852236	0.000253	2.533510	0.858376	0.000101
  11	9.9500e-01	0.3850	-2.638268	0.000537	5.371041	1.819758	0.000215
  12	1.0945e+00	0.4315	-2.492931	0.000365	3.648254	1.236062	0.000146
  13	1.1940e+00	0.4829	-2.323372	0.000426	4.256296	1.442072	0.000170
  14	1.2935e+00	0.5069	-2.169960	0.000385	3.850935	1.304732	0.000154
  15	1.3930e+00	0.5470	-2.024624	0.000365	3.648254	1.236062	0.000146
  16	1.4925e+00	0.5920	-1.851027	0.000436	4.357637	1.476407	0.000174
  17	1.5920e+00	0.6353	-1.705690	0.000365	3.648254	1.236062	0.000146
  18	1.6915e+00	0.6690	-1.519982	0.000466	4.661658	1.579412	0.000187
  19	1.7910e+00	0.7075	-1.390793	0.000324	3.242892	1.098722	0.000130
  20	1.8905e+00	0.7412	-1.245456	0.000365	3.648254	1.236062	0.000146
  21	1.9900e+00	0.7829	-1.043600	0.000507	5.067019	1.716753	0.000203
  22	2.0895e+00	0.8294	-0.874040	0.000426	4.256296	1.442072	0.000170
  23	2.1890e+00	0.8663	-0.740814	0.000334	3.344233	1.133057	0.000134
  24	2.2885e+00	0.9112	-0.555106	0.000466	4.661658	1.579412	0.000187
  25	2.3880e+00	0.9481	-0.413806	0.000355	3.546914	1.201727	0.000142
  26	2.4875e+00	0.9882	-0.244247	0.000426	4.256296	1.442072	0.000170
  27	2.5870e+00	1.0203	-0.070650	0.000436	4.357637	1.476407	0.000174
  28	2.6865e+00	1.0748	0.070650	0.000355	3.546914	1.201727	0.000142
  29	2.7860e+00	1.1021	0.256358	0.000466	4.661658	1.579412	0.000187
  30	2.8855e+00	1.1470	0.413806	0.000395	3.952275	1.339067	0.000158
  31	2.9850e+00	1.1887	0.587403	0.000436	4.357637	1.476407	0.000174
  32	3.0845e+00	1.2272	0.716592	0.000324	3.242892	1.098722	0.000130
  33	3.1840e+00	1.2689	0.874040	0.000395	3.952275	1.339067	0.000158
  34	3.2835e+00	1.3107	1.031488	0.000395	3.952275	1.339067	0.000158
  35	3.3830e+00	1.3556	1.221234	0.000476	4.762998	1.613747	0.000191
  36	3.4825e+00	1.3877	1.406942	0.000466	4.661658	1.579412	0.000187
  37	3.5820e+00	1.4310	1.560353	0.000385	3.850935	1.304732	0.000154
  38	3.6815e+00	1.4695	1.681467	0.000304	3.040212	1.030052	0.000122
  39	3.7810e+00	1.5048	1.879287	0.000497	4.965679	1.682418	0.000199
  40	3.8805e+00	1.5513	2.032698	0.000385	3.850935	1.304732	0.000154
  41	3.9800e+00	1.5850	2.153812	0.000304	3.040212	1.030052	0.000122
  42	4.0795e+00	1.6379	2.295112	0.000355	3.546914	1.201727	0.000142
  43	4.1790e+00	1.6652	2.452560	0.000395	3.952275	1.339067	0.000158
  44	4.2785e+00	1.7069	2.597897	0.000365	3.648254	1.236062	0.000146
  45	4.3780e+00	1.7470	2.763419	0.000415	4.154956	1.407737	0.000166
  46	4.4775e+00	1.7871	2.945091	0.000456	4.560317	1.545077	0.000183
  47	4.5770e+00	1.8224	3.082353	0.000345	3.445573	1.167392	0.000138
  48	4.6765e+00	1.8641	3.255950	0.000436	4.357637	1.476407	0.000174
  49	4.7760e+00	1.9042	3.457807	0.000507	5.067019	1.716753	0.000203
  50	4.8755e+00	1.9507	3.578921	0.000304	3.040212	1.030052	0.000122
  51	4.9750e+00	1.9812	3.708109	0.000324	3.242892	1.098722	0.000130
  52	5.0745e+00	2.0213	3.922077	0.000537	5.371041	1.819758	0.000215
  53	5.1740e+00	2.0646	4.067414	0.000365	3.648254	1.236062	0.000146
  54	5.2735e+00	2.0999	4.228900	0.000405	4.053615	1.373402	0.000162
  55	5.3730e+00	2.1449	4.398459	0.000426	4.256296	1.442072	0.000170
  56	5.4725e+00	2.1898	4.547833	0.000375	3.749594	1.270397	0.000150
  57	5.5720e+00	2.2235	4.672985	0.000314	3.141552	1.064387	0.000126
  58	5.6715e+00	2.2716	4.814284	0.000355	3.546914	1.201727	0.000142
  59	5.7710e+00	2.3005	5.016141	0.000507	5.067019	1.716753	0.000203
  60	5.8705e+00	2.3342	5.157441	0.000355	3.546914	1.201727	0.000142
  61	5.9700e+00	2.3903	5.359298	0.000507	5.067019	1.716753	0.000203
  62	6.0695e+00	2.4256	5.423892	0.000162	1.621446	0.549361	0.000065
  63	6.1690e+00	2.4689	5.601526	0.000446	4.458977	1.510742	0.000179
  64	6.2685e+00	2.5058	5.783197	0.000456	4.560317	1.545077	0.000183
  65	6.3680e+00	2.5379	5.944682	0.000405	4.053615	1.373402	0.000162
  66	6.4675e+00	2.5844	6.073871	0.000324	3.242892	1.098722	0.000130
  67	6.5670e+00	2.6325	6.255542	0.000456	4.560317	1.545077	0.000183
  68	6.6665e+00	2.6582	6.368582	0.000284	2.837531	0.961381	0.000114
  69	6.7660e+00	2.7128	6.558327	0.000476	4.762998	1.613747	0.000191
  70	6.8655e+00	2.7448	6.639070	0.000203	2.026808	0.686701	0.000081
  71	6.9650e+00	2.7898	6.849001	0.000527	5.269700	1.785423	0.000211
  72	7.0645e+00	2.8170	7.018560	0.000426	4.256296	1.442072	0.000170
  73	7.1640e+00	2.8652	7.151786	0.000334	3.344233	1.133057	0.000134
  74	7.2635e+00	2.8972	7.309234	0.000395	3.952275	1.339067	0.000158
  75	7.3630e+00	2.9406	7.450534	0.000355	3.546914	1.201727	0.000142
  76	7.4625e+00	2.9775	7.644317	0.000486	4.864339	1.648083	0.000195
  77	7.5620e+00	3.0192	7.765431	0.000304	3.040212	1.030052	0.000122
  78	7.6615e+00	3.0673	7.930953	0.000415	4.154956	1.407737	0.000166
  79	7.7610e+00	3.0978	8.080327	0.000375	3.749594	1.270397	0.000150
  80	7.8605e+00	3.1411	8.213553	0.000334	3.344233	1.133057	0.000134
  81	7.9600e+00	3.1828	8.371001	0.000395	3.952275	1.339067	0.000158
  82	8.0595e+00	3.2213	8.536524	0.000415	4.154956	1.407737	0.000166
  83	8.1590e+00	3.2566	8.653600	0.000294	2.938871	0.995717	0.000118
  84	8.2585e+00	3.3031	8.782789	0.000324	3.242892	1.098722	0.000130
  85	8.3580e+00	3.3400	8.980608	0.000497	4.965679	1.682418	0.000199
  86	8.4575e+00	3.3785	9.101723	0.000304	3.040212	1.030052	0.000122
  87	8.5570e+00	3.4122	9.251097	0.000375	3.749594	1.270397	0.000150
  88	8.6565e+00	3.4635	9.440842	0.000476	4.762998	1.613747	0.000191
  89	8.7560e+00	3.5020	9.549845	0.000274	2.736190	0.927046	0.000110
  90	8.8555e+00	3.5341	9.715367	0.000415	4.154956	1.407737	0.000166
  91	8.9550e+00	3.5774	9.876853	0.000405	4.053615	1.373402	0.000162
  92	9.0545e+00	3.6159	9.977781	0.000253	2.533510	0.858376	0.000101
  93	9.1540e+00	3.6528	10.171563	0.000486	4.864339	1.648083	0.000195
  94	9.2535e+00	3.7026	10.280566	0.000274	2.736190	0.927046	0.000110
  95	9.3530e+00	3.7363	10.442052	0.000405	4.053615	1.373402	0.000162
  96	9.4525e+00	3.7812	10.575277	0.000334	3.344233	1.133057	0.000134
  97	9.5520e+00	3.8101	10.740800	0.000415	4.154956	1.407737	0.000166
  98	9.6515e+00	3.8550	10.874025	0.000334	3.344233	1.133057	0.000134
  99	9.7510e+00	3.8967	11.023399	0.000375	3.749594	1.270397	0.000150
 100	9.8505e+00	3.9336	11.144513	0.000304	3.040212	1.030052	0.000122
 101	9.9500e+00	3.9785	11.285813	0.000355	3.546914	1.201727	0.000142
 102	1.0050e+01	4.0234	11.423076	0.000345	3.445573	1.167392	0.000138
 103	1.0149e+01	4.0635	11.572450	0.000375	3.749594	1.270397	0.000150
 104	1.0248e+01	4.1068	11.754121	0.000456	4.560317	1.545077	0.000183
 105	1.0348e+01	4.1389	11.867161	0.000284	2.837531	0.961381	0.000114
 106	1.0447e+01	4.1806	12.012497	0.000365	3.648254	1.236062	0.000146
 107	1.0547e+01	4.2143	12.169946	0.000395	3.952275	1.339067	0.000158
 108	1.0646e+01	4.2641	12.270874	0.000253	2.533510	0.858376	0.000101
 109	1.0746e+01	4.2977	12.416211	0.000365	3.648254	1.236062	0.000146
 110	1.0845e+01	4.3411	12.589808	0.000436	4.357637	1.476407	0.000174
 111	1.0945e+01	4.3731	12.686699	0.000243	2.432169	0.824041	0.000097
 112	1.1044e+01	4.4165	12.832036	0.000365	3.648254	1.236062	0.000146
 113	1.1144e+01	4.4566	12.945076	0.000284	2.837531	0.961381	0.000114
 114	1.1243e+01	4.5079	13.106561	0.000405	4.053615	1.373402	0.000162
 115	1.1343e+01	4.5352	13.272084	0.000415	4.154956	1.407737	0.000166
 116	1.1443e+01	4.5737	13.401272	0.000324	3.242892	1.098722	0.000130
 117	1.1542e+01	4.6138	13.542572	0.000355	3.546914	1.201727	0.000142
 118	1.1642e+01	4.6603	13.655612	0.000284	2.837531	0.961381	0.000114
 119	1.1741e+01	4.6956	13.821134	0.000415	4.154956	1.407737	0.000166
 120	1.1841e+01	4.7389	13.970508	0.000375	3.749594	1.270397	0.000150
 121	1.1940e+01	4.7726	14.071437	0.000253	2.533510	0.858376	0.000101
 122	1.2040e+01	4.8111	14.257145	0.000466	4.661658	1.579412	0.000187
 123	1.2139e+01	4.8640	14.341925	0.000213	2.128148	0.721036	0.000085
 124	1.2239e+01	4.9009	14.523596	0.000456	4.560317	1.545077	0.000183
 125	1.2338e+01	4.9362	14.620487	0.000243	2.432169	0.824041	0.000097
 126	1.2438e+01	4.9731	14.802158	0.000456	4.560317	1.545077	0.000183
 127	1.2537e+01	5.0212	14.935384	0.000334	3.344233	1.133057	0.000134
 128	1.2636e+01	5.0485	15.052461	0.000294	2.938871	0.995717	0.000118
 129	1.2736e+01	5.0934	15.189723	0.000345	3.445573	1.167392	0.000138
 130	1.2835e+01	5.1335	15.310837	0.000304	3.040212	1.030052	0.000122
 131	1.2935e+01	5.1737	15.456174	0.000365	3.648254	1.236062	0.000146
 132	1.3034e+01	5.2025	15.633808	0.000446	4.458977	1.510742	0.000179
 133	1.3134e+01	5.2539	15.767034	0.000334	3.344233	1.133057	0.000134
 134	1.3233e+01	5.2940	15.867962	0.000253	2.533510	0.858376	0.000101
 135	1.3333e+01	5.3244	16.017336	0.000375	3.749594	1.270397	0.000150
 136	1.3432e+01	5.3710	16.114227	0.000243	2.432169	0.824041	0.000097
 137	1.3532e+01	5.4111	16.308010	0.000486	4.864339	1.648083	0.000195
 138	1.3632e+01	5.4496	16.429124	0.000304	3.040212	1.030052	0.000122
 139	1.3731e+01	5.4833	16.578498	0.000375	3.749594	1.270397	0.000150
 140	1.3831e+01	5.5394	16.727872	0.000375	3.749594	1.270397	0.000150
 141	1.3930e+01	5.5779	16.824763	0.000243	2.432169	0.824041	0.000097
 142	1.4030e+01	5.6084	16.966063	0.000355	3.546914	1.201727	0.000142
 143	1.4129e+01	5.6501	17.087177	0.000304	3.040212	1.030052	0.000122
 144	1.4229e+01	5.6918	17.256737	0.000426	4.256296	1.442072	0.000170
 145	1.4328e+01	5.7351	17.365739	0.000274	2.736190	0.927046	0.000110
 146	1.4428e+01	5.7720	17.490891	0.000314	3.141552	1.064387	0.000126
 147	1.4527e+01	5.8073	17.579708	0.000223	2.229489	0.755371	0.000089
 148	1.4627e+01	5.8587	17.749267	0.000426	4.256296	1.442072	0.000170
 149	1.4726e+01	5.8891	17.898641	0.000375	3.749594	1.270397	0.000150
 150	1.4825e+01	5.9276	17.995533	0.000243	2.432169	0.824041	0.000097
 151	1.4925e+01	5.9710	18.140869	0.000365	3.648254	1.236062	0.000146
 152	1.5024e+01	6.0159	18.261984	0.000304	3.040212	1.030052	0.000122
 153	1.5124e+01	6.0399	18.342726	0.000203	2.026808	0.686701	0.000081
 154	1.5223e+01	6.0913	18.512286	0.000426	4.256296	1.442072	0.000170
 155	1.5323e+01	6.1442	18.617251	0.000263	2.634850	0.892711	0.000105
 156	1.5422e+01	6.1699	18.823145	0.000517	5.168360	1.751088	0.000207
 157	1.5522e+01	6.2084	18.940222	0.000294	2.938871	0.995717	0.000118
 158	1.5621e+01	6.2469	19.041151	0.000253	2.533510	0.858376	0.000101
 159	1.5721e+01	6.2982	19.146116	0.000263	2.634850	0.892711	0.000105
 160	1.5820e+01	6.3335	19.279342	0.000334	3.344233	1.133057	0.000134
 161	1.5920e+01	6.3656	19.396419	0.000294	2.938871	0.995717	0.000118
 162	1.6020e+01	6.4105	19.529644	0.000334	3.344233	1.133057	0.000134
 163	1.6119e+01	6.4522	19.658832	0.000324	3.242892	1.098722	0.000130
 164	1.6218e+01	6.4923	19.775909	0.000294	2.938871	0.995717	0.000118
 165	1.6318e+01	6.5276	19.929321	0.000385	3.850935	1.304732	0.000154
 166	1.6418e+01	6.5693	20.054472	0.000314	3.141552	1.064387	0.000126
 167	1.6517e+01	6.6143	20.159437	0.000263	2.634850	0.892711	0.000105
 168	1.6616e+01	6.6544	20.296700	0.000345	3.445573	1.167392	0.000138
 169	1.6716e+01	6.6848	20.421851	0.000314	3.141552	1.064387	0.000126
 170	1.6816e+01	6.7282	20.579299	0.000395	3.952275	1.339067	0.000158
 171	1.6915e+01	6.7731	20.631782	0.000132	1.317425	0.446356	0.000053
 172	1.7015e+01	6.8068	20.837676	0.000517	5.168360	1.751088	0.000207
 173	1.7114e+01	6.8421	20.882085	0.000111	1.114744	0.377686	0.000045
 174	1.7213e+01	6.8854	21.031459	0.000375	3.749594	1.270397	0.000150
 175	1.7313e+01	6.9207	21.136424	0.000263	2.634850	0.892711	0.000105
 176	1.7413e+01	6.9672	21.293872	0.000395	3.952275	1.339067	0.000158
 177	1.7512e+01	6.9993	21.394801	0.000253	2.533510	0.858376	0.000101
 178	1.7611e+01	7.0506	21.515915	0.000304	3.040212	1.030052	0.000122
 179	1.7711e+01	7.0763	21.649140	0.000334	3.344233	1.133057	0.000134
 180	1.7811e+01	7.1212	21.750069	0.000253	2.533510	0.858376	0.000101
 181	1.7910e+01	7.1517	21.895406	0.000365	3.648254	1.236062	0.000146
 182	1.8009e+01	7.1998	22.016520	0.000304	3.040212	1.030052	0.000122
 183	1.8109e+01	7.2527	22.141671	0.000314	3.141552	1.064387	0.000126
 184	1.8209e+01	7.2896	22.266822	0.000314	3.141552	1.064387	0.000126
 185	1.8308e+01	7.3233	22.404085	0.000345	3.445573	1.167392	0.000138
 186	1.8407e+01	7.3602	22.480790	0.000193	1.925467	0.652366	0.000077
 187	1.8507e+01	7.4035	22.646313	0.000415	4.154956	1.407737	0.000166
 188	1.8607e+01	7.4372	22.755316	0.000274	2.736190	0.927046	0.000110
 189	1.8706e+01	7.4837	22.888541	0.000334	3.344233	1.133057	0.000134
 190	1.8805e+01	7.5206	23.021767	0.000334	3.344233	1.133057	0.000134
 191	1.8905e+01	7.5736	23.078286	0.000142	1.418765	0.480691	0.000057
 192	1.9005e+01	7.6169	23.247846	0.000426	4.256296	1.442072	0.000170
 193	1.9104e+01	7.6281	23.377034	0.000324	3.242892	1.098722	0.000130
 194	1.9203e+01	7.6811	23.445666	0.000172	1.722787	0.583696	0.000069
 195	1.9303e+01	7.7260	23.591003	0.000365	3.648254	1.236062	0.000146
 196	1.9402e+01	7.7613	23.716154	0.000314	3.141552	1.064387	0.000126
 197	1.9502e+01	7.8030	23.845342	0.000324	3.242892	1.098722	0.000130
 198	1.9602e+01	7.8399	23.982605	0.000345	3.445573	1.167392	0.000138
 199	1.9701e+01	7.8800	24.091608	0.000274	2.736190	0.927046	0.000110
 200	1.9800e+01	7.9169	24.196573	0.000263	2.634850	0.892711	0.000105
 201	1.9900e+01	7.9570	24.333836	0.000345	3.445573	1.167392	0.000138
 202	2.0000e+01	8.0083	24.454950	0.000304	3.040212	1.030052	0.000122
 203	2.0099e+01	8.0420	24.547804	0.000233	2.330829	0.789706	0.000093
 204	2.0198e+01	8.0789	24.644695	0.000243	2.432169	0.824041	0.000097
 205	2.0298e+01	8.1190	24.794069	0.000375	3.749594	1.270397	0.000150
 206	2.0398e+01	8.1591	24.911146	0.000294	2.938871	0.995717	0.000118
 207	2.0497e+01	8.2105	25.040334	0.000324	3.242892	1.098722	0.000130
 208	2.0596e+01	8.2345	25.121077	0.000203	2.026808	0.686701	0.000081
 209	2.0696e+01	8.2746	25.201820	0.000203	2.026808	0.686701	0.000081
 210	2.0796e+01	8.3196	25.347157	0.000365	3.648254	1.236062	0.000146
 211	2.0895e+01	8.3564	25.456159	0.000274	2.736190	0.927046	0.000110
 212	2.0994e+01	8.3982	25.589385	0.000334	3.344233	1.133057	0.000134
 213	2.1094e+01	8.4399	25.722610	0.000334	3.344233	1.133057	0.000134
 214	2.1194e+01	8.4880	25.811427	0.000223	2.229489	0.755371	0.000089
 215	2.1293e+01	8.5153	25.944653	0.000334	3.344233	1.133057	0.000134
 216	2.1392e+01	8.5634	26.037507	0.000233	2.330829	0.789706	0.000093
 217	2.1492e+01	8.5955	26.130361	0.000233	2.330829	0.789706	0.000093
 218	2.1591e+01	8.6372	26.247438	0.000294	2.938871	0.995717	0.000118
 219	2.1691e+01	8.6853	26.416998	0.000426	4.256296	1.442072	0.000170
 220	2.1791e+01	8.7206	26.493703	0.000193	1.925467	0.652366	0.000077
 221	2.1890e+01	8.7639	26.635003	0.000355	3.546914	1.201727	0.000142
 222	2.1989e+01	8.7992	26.727857	0.000233	2.330829	0.789706	0.000093
 223	2.2089e+01	8.8409	26.844934	0.000294	2.938871	0.995717	0.000118
 224	2.2189e+01	8.8746	26.937788	0.000233	2.330829	0.789706	0.000093
 225	2.2288e+01	8.9099	27.054865	0.000294	2.938871	0.995717	0.000118
 226	2.2387e+01	8.9596	27.155794	0.000253	2.533510	0.858376	0.000101
 227	2.2487e+01	8.9965	27.305168	0.000375	3.749594	1.270397	0.000150
 228	2.2587e+01	9.0382	27.373799	0.000172	1.722787	0.583696	0.000069
 229	2.2686e+01	9.0767	27.502987	0.000324	3.242892	1.098722	0.000130
 230	2.2785e+01	9.1104	27.640250	0.000345	3.445573	1.167392	0.000138
 231	2.2885e+01	9.1602	27.769438	0.000324	3.242892	1.098722	0.000130
 232	2.2985e+01	9.2003	27.866329	0.000243	2.432169	0.824041	0.000097
 233	2.3084e+01	9.2308	27.959184	0.000233	2.330829	0.789706	0.000093
 234	2.3183e+01	9.2837	28.100483	0.000355	3.546914	1.201727	0.000142
 235	2.3283e+01	9.3094	28.189300	0.000223	2.229489	0.755371	0.000089
 236	2.3383e+01	9.3527	28.274080	0.000213	2.128148	0.721036	0.000085
 237	2.3482e+01	9.3944	28.419417	0.000365	3.648254	1.236062	0.000146
 238	2.3581e+01	9.4425	28.508234	0.000223	2.229489	0.755371	0.000089
 239	2.3681e+01	9.4810	28.621274	0.000284	2.837531	0.961381	0.000114
 240	2.3780e+01	9.5195	28.750462	0.000324	3.242892	1.098722	0.000130
 241	2.3880e+01	9.5741	28.887725	0.000345	3.445573	1.167392	0.000138
 242	2.3980e+01	9.5997	28.936170	0.000122	1.216085	0.412021	0.000049
 243	2.4079e+01	9.6479	29.081507	0.000365	3.648254	1.236062	0.000146
 244	2.4178e+01	9.6783	29.182436	0.000253	2.533510	0.858376	0.000101
 245	2.4278e+01	9.7088	29.319698	0.000345	3.445573	1.167392	0.000138
 246	2.4378e+01	9.7505	29.444850	0.000314	3.141552	1.064387	0.000126
 247	2.4477e+01	9.7906	29.513481	0.000172	1.722787	0.583696	0.000069
 248	2.4576e+01	9.8372	29.586149	0.000182	1.824127	0.618031	0.000073
 249	2.4676e+01	9.8708	29.715338	0.000324	3.242892	1.098722	0.000130
 250	2.4776e+01	9.9142	29.848563	0.000334	3.344233	1.133057	0.000134
 251	2.4875e+01	9.9511	29.973714	0.000314	3.141552	1.064387	0.000126
 252	2.4974e+01	9.9992	30.070606	0.000243	2.432169	0.824041	0.000097
 253	2.5074e+01	10.0281	30.179608	0.000274	2.736190	0.927046	0.000110
 254	2.5174e+01	10.0746	30.312834	0.000334	3.344233	1.133057	0.000134
 255	2.5273e+01	10.1131	30.401651	0.000223	2.229489	0.755371	0.000089
 256	2.5372e+01	10.1628	30.506616	0.000263	2.634850	0.892711	0.000105
 257	2.5472e+01	10.2045	30.599470	0.000233	2.330829	0.789706	0.000093
 258	2.5572e+01	10.2302	30.728659	0.000324	3.242892	1.098722	0.000130
 259	2.5671e+01	10.2735	30.813439	0.000213	2.128148	0.721036	0.000085
 260	2.5770e+01	10.3168	30.966850	0.000385	3.850935	1.304732	0.000154
 261	2.5870e+01	10.3617	31.043555	0.000193	1.925467	0.652366	0.000077
 262	2.5970e+01	10.4002	31.184855	0.000355	3.546914	1.201727	0.000142
 263	2.6069e+01	10.4403	31.277709	0.000233	2.330829	0.789706	0.000093
 264	2.6169e+01	10.4676	31.394786	0.000294	2.938871	0.995717	0.000118
 265	2.6268e+01	10.5077	31.499752	0.000263	2.634850	0.892711	0.000105
 266	2.6367e+01	10.5526	31.624903	0.000314	3.141552	1.064387	0.000126
 267	2.6467e+01	10.5895	31.693534	0.000172	1.722787	0.583696	0.000069
 268	2.6567e+01	10.6248	31.806574	0.000284	2.837531	0.961381	0.000114
 269	2.6666e+01	10.6714	31.955948	0.000375	3.749594	1.270397	0.000150
 270	2.6765e+01	10.7211	32.020542	0.000162	1.621446	0.549361	0.000065
 271	2.6865e+01	10.7500	32.121470	0.000253	2.533510	0.858376	0.000101
 272	2.6965e+01	10.7949	32.234510	0.000284	2.837531	0.961381	0.000114
 273	2.7064e+01	10.8318	32.351587	0.000294	2.938871	0.995717	0.000118
 274	2.7163e+01	10.8751	32.456553	0.000263	2.634850	0.892711	0.000105
 275	2.7263e+01	10.9072	32.541333	0.000213	2.128148	0.721036	0.000085
 276	2.7363e+01	10.9393	32.646298	0.000263	2.634850	0.892711	0.000105
 277	2.7462e+01	10.9826	32.803746	0.000395	3.952275	1.339067	0.000158
 278	2.7561e+01	11.0355	32.912749	0.000274	2.736190	0.927046	0.000110
 279	2.7661e+01	11.0564	32.985418	0.000182	1.824127	0.618031	0.000073
 280	2.7761e+01	11.1173	33.090383	0.000263	2.634850	0.892711	0.000105
 281	2.7860e+01	11.1478	33.183237	0.000233	2.330829	0.789706	0.000093
 282	2.7959e+01	11.1911	33.316463	0.000334	3.344233	1.133057	0.000134
 283	2.8059e+01	11.2280	33.401243	0.000213	2.128148	0.721036	0.000085
 284	2.8159e+01	11.2617	33.481985	0.000203	2.026808	0.686701	0.000081
 285	2.8258e+01	11.3114	33.590988	0.000274	2.736190	0.927046	0.000110
 286	2.8358e+01	11.3499	33.716139	0.000314	3.141552	1.064387	0.000126
 287	2.8457e+01	11.3868	33.829179	0.000284	2.837531	0.961381	0.000114
 288	2.8556e+01	11.4189	33.934144	0.000263	2.634850	0.892711	0.000105
 289	2.8656e+01	11.4687	34.055259	0.000304	3.040212	1.030052	0.000122
 290	2.8756e+01	11.5104	34.172335	0.000294	2.938871	0.995717	0.000118
 291	2.8855e+01	11.5505	34.232892	0.000152	1.520106	0.515026	0.000061
 292	2.8954e+01	11.5810	34.374192	0.000355	3.546914	1.201727	0.000142
 293	2.9054e+01	11.6339	34.454935	0.000203	2.026808	0.686701	0.000081
 294	2.9154e+01	11.6708	34.555863	0.000253	2.533510	0.858376	0.000101
 295	2.9253e+01	11.7077	34.689089	0.000334	3.344233	1.133057	0.000134
 296	2.9352e+01	11.7510	34.794054	0.000263	2.634850	0.892711	0.000105
 297	2.9452e+01	11.7911	34.890946	0.000243	2.432169	0.824041	0.000097
 298	2.9552e+01	11.8344	34.975725	0.000213	2.128148	0.721036	0.000085
 299	2.9651e+01	11.8633	35.133174	0.000395	3.952275	1.339067	0.000158
 300	2.9750e+01	11.8986	35.230065	0.000243	2.432169	0.824041	0.000097
 301	2.9850e+01	11.9467	35.310808	0.000203	2.026808	0.686701	0.000081
 302	2.9950e+01	11.9932	35.464219	0.000385	3.850935	1.304732	0.000154
 303	3.0049e+01	12.0269	35.557073	0.000233	2.330829	0.789706	0.000093
 304	3.0148e+01	12.0622	35.645890	0.000223	2.229489	0.755371	0.000089
 305	3.0248e+01	12.0991	35.726633	0.000203	2.026808	0.686701	0.000081
 306	3.0348e+01	12.1456	35.843710	0.000294	2.938871	0.995717	0.000118
 307	3.0447e+01	12.1858	35.968861	0.000314	3.141552	1.064387	0.000126
 308	3.0547e+01	12.2226	36.061715	0.000233	2.330829	0.789706	0.000093
 309	3.0646e+01	12.2595	36.162643	0.000253	2.533510	0.858376	0.000101
 310	3.0745e+01	12.3045	36.283757	0.000304	3.040212	1.030052	0.000122
 311	3.0845e+01	12.3494	36.376612	0.000233	2.330829	0.789706	0.000093
 312	3.0945e+01	12.3847	36.497726	0.000304	3.040212	1.030052	0.000122
 313	3.1044e+01	12.4264	36.578468	0.000203	2.026808	0.686701	0.000081
 314	3.1143e+01	12.4681	36.687471	0.000274	2.736190	0.927046	0.000110
 315	3.1243e+01	12.5082	36.820696	0.000334	3.344233	1.133057	0.000134
 316	3.1343e+01	12.5435	36.889328	0.000172	1.722787	0.583696	0.000069
 317	3.1442e+01	12.5836	37.022553	0.000334	3.344233	1.133057	0.000134
 318	3.1541e+01	12.6253	37.091185	0.000172	1.722787	0.583696	0.000069
 319	3.1641e+01	12.6494	37.200187	0.000274	2.736190	0.927046	0.000110
 320	3.1741e+01	12.7023	37.313227	0.000284	2.837531	0.961381	0.000114
 321	3.1840e+01	12.7440	37.393970	0.000203	2.026808	0.686701	0.000081
 322	3.1939e+01	12.7873	37.490861	0.000243	2.432169	0.824041	0.000097
 323	3.2039e+01	12.8146	37.599864	0.000274	2.736190	0.927046	0.000110
 324	3.2139e+01	12.8724	37.712903	0.000284	2.837531	0.961381	0.000114
 325	3.2238e+01	12.9044	37.801720	0.000223	2.229489	0.755371	0.000089
 326	3.2337e+01	12.9333	37.910723	0.000274	2.736190	0.927046	0.000110
 327	3.2437e+01	12.9847	37.999540	0.000223	2.229489	0.755371	0.000089
 328	3.2536e+01	13.0216	38.084320	0.000213	2.128148	0.721036	0.000085
 329	3.2636e+01	13.0504	38.221583	0.000345	3.445573	1.167392	0.000138
 330	3.2736e+01	13.1018	38.298288	0.000193	1.925467	0.652366	0.000077
 331	3.2835e+01	13.1435	38.451699	0.000385	3.850935	1.304732	0.000154
 332	3.2934e+01	13.1772	38.508219	0.000142	1.418765	0.480691	0.000057
 333	3.3034e+01	13.2141	38.621259	0.000284	2.837531	0.961381	0.000114
 334	3.3133e+01	13.2670	38.697965	0.000193	1.925467	0.652366	0.000077
 335	3.3233e+01	13.3055	38.798893	0.000253	2.533510	0.858376	0.000101
 336	3.3333e+01	13.3376	38.915970	0.000294	2.938871	0.995717	0.000118
 337	3.3432e+01	13.3825	39.000750	0.000213	2.128148	0.721036	0.000085
 338	3.3532e+01	13.4290	39.129938	0.000324	3.242892	1.098722	0.000130
 339	3.3631e+01	13.4659	39.234904	0.000263	2.634850	0.892711	0.000105
 340	3.3730e+01	13.4980	39.307572	0.000182	1.824127	0.618031	0.000073
 341	3.3830e+01	13.5477	39.432723	0.000314	3.141552	1.064387	0.000126
 342	3.3929e+01	13.5798	39.529615	0.000243	2.432169	0.824041	0.000097
 343	3.4029e+01	13.6135	39.634580	0.000263	2.634850	0.892711	0.000105
 344	3.4129e+01	13.6600	39.695137	0.000152	1.520106	0.515026	0.000061
 345	3.4228e+01	13.6969	39.783954	0.000223	2.229489	0.755371	0.000089
 346	3.4328e+01	13.7370	39.921217	0.000345	3.445573	1.167392	0.000138
 347	3.4427e+01	13.7723	40.022145	0.000253	2.533510	0.858376	0.000101
 348	3.4526e+01	13.8076	40.119036	0.000243	2.432169	0.824041	0.000097
 349	3.4626e+01	13.8574	40.280522	0.000405	4.053615	1.373402	0.000162
 350	3.4725e+01	13.9055	40.300708	0.000051	0.506702	0.171675	0.000020
 351	3.4825e+01	13.9263	40.417784	0.000294	2.938871	0.995717	0.000118
 352	3.4925e+01	13.9793	40.538899	0.000304	3.040212	1.030052	0.000122
 353	3.5024e+01	14.0210	40.611567	0.000182	1.824127	0.618031	0.000073
 354	3.5123e+01	14.0627	40.708458	0.000243	2.432169	0.824041	0.000097
 355	3.5223e+01	14.1044	40.833609	0.000314	3.141552	1.064387	0.000126
 356	3.5322e+01	14.1317	40.902241	0.000172	1.722787	0.583696	0.000069
 357	3.5422e+01	14.1718	40.995095	0.000233	2.330829	0.789706	0.000093
 358	3.5522e+01	14.2199	41.124283	0.000324	3.242892	1.098722	0.000130
 359	3.5621e+01	14.2584	41.209063	0.000213	2.128148	0.721036	0.000085
 360	3.5721e+01	14.2921	41.358437	0.000375	3.749594	1.270397	0.000150
 361	3.5820e+01	14.3434	41.423031	0.000162	1.621446	0.549361	0.000065
 362	3.5919e+01	14.3739	41.511848	0.000223	2.229489	0.755371	0.000089
 363	3.6019e+01	14.4221	41.600665	0.000223	2.229489	0.755371	0.000089
 364	3.6118e+01	14.4573	41.713705	0.000284	2.837531	0.961381	0.000114
 365	3.6218e+01	14.4975	41.814633	0.000253	2.533510	0.858376	0.000101
 366	3.6318e+01	14.5327	41.887302	0.000182	1.824127	0.618031	0.000073
 367	3.6417e+01	14.5712	42.040713	0.000385	3.850935	1.304732	0.000154
 368	3.6517e+01	14.6226	42.145679	0.000263	2.634850	0.892711	0.000105
 369	3.6616e+01	14.6466	42.182013	0.000091	0.912063	0.309015	0.000037
 370	3.6715e+01	14.6964	42.282941	0.000253	2.533510	0.858376	0.000101
 371	3.6815e+01	14.7333	42.359647	0.000193	1.925467	0.652366	0.000077
 372	3.6914e+01	14.7750	42.509021	0.000375	3.749594	1.270397	0.000150
 373	3.7014e+01	14.8103	42.589763	0.000203	2.026808	0.686701	0.000081
 374	3.7114e+01	14.8648	42.670506	0.000203	2.026808	0.686701	0.000081
 375	3.7213e+01	14.8905	42.763360	0.000233	2.330829	0.789706	0.000093
 376	3.7313e+01	14.9322	42.848140	0.000213	2.128148	0.721036	0.000085
 377	3.7412e+01	14.9707	42.973291	0.000314	3.141552	1.064387	0.000126
 378	3.7511e+01	15.0076	43.049997	0.000193	1.925467	0.652366	0.000077
 379	3.7611e+01	15.0477	43.102480	0.000132	1.317425	0.446356	0.000053
 380	3.7711e+01	15.0878	43.215520	0.000284	2.837531	0.961381	0.000114
 381	3.7810e+01	15.1279	43.356819	0.000355	3.546914	1.201727	0.000142
 382	3.7910e+01	15.1728	43.401228	0.000111	1.114744	0.377686	0.000045
 383	3.8009e+01	15.2049	43.526379	0.000314	3.141552	1.064387	0.000126
 384	3.8108e+01	15.2514	43.586936	0.000152	1.520106	0.515026	0.000061
 385	3.8208e+01	15.2899	43.704013	0.000294	2.938871	0.995717	0.000118
 386	3.8307e+01	15.3300	43.804941	0.000253	2.533510	0.858376	0.000101
 387	3.8407e+01	15.3750	43.901833	0.000243	2.432169	0.824041	0.000097
 388	3.8507e+01	15.4135	43.998724	0.000243	2.432169	0.824041	0.000097
 389	3.8606e+01	15.4536	44.075429	0.000193	1.925467	0.652366	0.000077
 390	3.8706e+01	15.4921	44.156172	0.000203	2.026808	0.686701	0.000081
 391	3.8805e+01	15.5322	44.273249	0.000294	2.938871	0.995717	0.000118
 392	3.8904e+01	15.5755	44.366103	0.000233	2.330829	0.789706	0.000093
 393	3.9004e+01	15.6092	44.471069	0.000263	2.634850	0.892711	0.000105
 394	3.9103e+01	15.6477	44.535663	0.000162	1.621446	0.549361	0.000065
 395	3.9203e+01	15.6974	44.636591	0.000253	2.533510	0.858376	0.000101
 396	3.9303e+01	15.7263	44.749631	0.000284	2.837531	0.961381	0.000114
 397	3.9402e+01	15.7744	44.862671	0.000284	2.837531	0.961381	0.000114
 398	3.9502e+01	15.8177	44.899005	0.000091	0.912063	0.309015	0.000037
 399	3.9601e+01	15.8466	45.024156	0.000314	3.141552	1.064387	0.000126
 400	3.9700e+01	15.8867	45.092788	0.000172	1.722787	0.583696	0.000069
 401	3.9800e+01	15.9381	45.185642	0.000233	2.330829	0.789706	0.000093
 402	3.9900e+01	15.9750	45.318867	0.000334	3.344233	1.133057	0.000134
 403	3.9999e+01	16.0151	45.371350	0.000132	1.317425	0.446356	0.000053
 404	4.0099e+01	16.0487	45.492464	0.000304	3.040212	1.030052	0.000122
 405	4.0198e+01	16.0937	45.565133	0.000182	1.824127	0.618031	0.000073
 406	4.0297e+01	16.1322	45.682209	0.000294	2.938871	0.995717	0.000118
 407	4.0397e+01	16.1787	45.758915	0.000193	1.925467	0.652366	0.000077
 408	4.0496e+01	16.2044	45.855806	0.000243	2.432169	0.824041	0.000097
 409	4.0596e+01	16.2477	45.976920	0.000304	3.040212	1.030052	0.000122
 410	4.0696e+01	16.2862	46.073812	0.000243	2.432169	0.824041	0.000097
 411	4.0795e+01	16.3343	46.142443	0.000172	1.722787	0.583696	0.000069
 412	4.0895e+01	16.3600	46.247408	0.000263	2.634850	0.892711	0.000105
 413	4.0994e+01	16.4065	46.328151	0.000203	2.026808	0.686701	0.000081
 414	4.1093e+01	16.4434	46.441191	0.000284	2.837531	0.961381	0.000114
 415	4.1193e+01	16.4915	46.530008	0.000223	2.229489	0.755371	0.000089
 416	4.1292e+01	16.5220	46.610751	0.000203	2.026808	0.686701	0.000081
 417	4.1392e+01	16.5749	46.671308	0.000152	1.520106	0.515026	0.000061
 418	4.1492e+01	16.6086	46.764162	0.000233	2.330829	0.789706	0.000093
 419	4.1591e+01	16.6455	46.913536	0.000375	3.749594	1.270397	0.000150
 420	4.1691e+01	16.6920	46.994279	0.000203	2.026808	0.686701	0.000081
 421	4.1790e+01	16.7257	47.075021	0.000203	2.026808	0.686701	0.000081
 422	4.1889e+01	16.7674	47.188061	0.000284	2.837531	0.961381	0.000114
 423	4.1989e+01	16.8027	47.288989	0.000253	2.533510	0.858376	0.000101
 424	4.2089e+01	16.8428	47.397992	0.000274	2.736190	0.927046	0.000110
 425	4.2188e+01	16.8878	47.474698	0.000193	1.925467	0.652366	0.000077
 426	4.2288e+01	16.9343	47.511032	0.000091	0.912063	0.309015	0.000037
 427	4.2387e+01	16.9648	47.640220	0.000324	3.242892	1.098722	0.000130
 428	4.2486e+01	16.9985	47.745186	0.000263	2.634850	0.892711	0.000105
 429	4.2586e+01	17.0450	47.817854	0.000182	1.824127	0.618031	0.000073
 430	4.2685e+01	17.0835	47.878411	0.000152	1.520106	0.515026	0.000061
 431	4.2785e+01	17.1252	48.035860	0.000395	3.952275	1.339067	0.000158
 432	4.2885e+01	17.1653	48.128714	0.000233	2.330829	0.789706	0.000093
 433	4.2984e+01	17.2038	48.197345	0.000172	1.722787	0.583696	0.000069
 434	4.3084e+01	17.2455	48.298273	0.000253	2.533510	0.858376	0.000101
 435	4.3183e+01	17.2808	48.362868	0.000162	1.621446	0.549361	0.000065
 436	4.3282e+01	17.3321	48.483982	0.000304	3.040212	1.030052	0.000122
 437	4.3382e+01	17.3706	48.544539	0.000152	1.520106	0.515026	0.000061
 438	4.3481e+01	17.4059	48.693913	0.000375	3.749594	1.270397	0.000150
 439	4.3581e+01	17.4492	48.746395	0.000132	1.317425	0.446356	0.000053
 440	4.3681e+01	17.4861	48.851361	0.000263	2.634850	0.892711	0.000105
 441	4.3780e+01	17.5327	48.944215	0.000233	2.330829	0.789706	0.000093
 442	4.3880e+01	17.5615	49.028995	0.000213	2.128148	0.721036	0.000085
 443	4.3979e+01	17.6097	49.150109	0.000304	3.040212	1.030052	0.000122
 444	4.4078e+01	17.6466	49.230852	0.000203	2.026808	0.686701	0.000081
 445	4.4178e+01	17.6770	49.311594	0.000203	2.026808	0.686701	0.000081
 446	4.4278e+01	17.7220	49.392337	0.000203	2.026808	0.686701	0.000081
 447	4.4377e+01	17.7524	49.509414	0.000294	2.938871	0.995717	0.000118
 448	4.4477e+01	17.8006	49.578045	0.000172	1.722787	0.583696	0.000069
 449	4.4576e+01	17.8439	49.670900	0.000233	2.330829	0.789706	0.000093
 450	4.4675e+01	17.8744	49.747605	0.000193	1.925467	0.652366	0.000077
 451	4.4775e+01	17.9241	49.844496	0.000243	2.432169	0.824041	0.000097
 452	4.4874e+01	17.9498	49.977722	0.000334	3.344233	1.133057	0.000134
 453	4.4974e+01	18.0075	50.054427	0.000193	1.925467	0.652366	0.000077
 454	4.5074e+01	18.0524	50.179579	0.000314	3.141552	1.064387	0.000126
 455	4.5173e+01	18.0781	50.240136	0.000152	1.520106	0.515026	0.000061
 456	4.5273e+01	18.1134	50.353175	0.000284	2.837531	0.961381	0.000114
 457	4.5372e+01	18.1615	50.450067	0.000243	2.432169	0.824041	0.000097
 458	4.5471e+01	18.2048	50.530809	0.000203	2.026808	0.686701	0.000081
 459	4.5571e+01	18.2433	50.615589	0.000213	2.128148	0.721036	0.000085
 460	4.5670e+01	18.2850	50.688258	0.000182	1.824127	0.618031	0.000073
 461	4.5770e+01	18.3203	50.809372	0.000304	3.040212	1.030052	0.000122
 462	4.5870e+01	18.3620	50.922412	0.000284	2.837531	0.961381	0.000114
 463	4.5969e+01	18.4038	50.999117	0.000193	1.925467	0.652366	0.000077
 464	4.6069e+01	18.4358	51.100046	0.000253	2.533510	0.858376	0.000101
 465	4.6168e+01	18.4776	51.176751	0.000193	1.925467	0.652366	0.000077
 466	4.6267e+01	18.5241	51.273642	0.000243	2.432169	0.824041	0.000097
 467	4.6367e+01	18.5610	51.346311	0.000182	1.824127	0.618031	0.000073
 468	4.6467e+01	18.6043	51.499722	0.000385	3.850935	1.304732	0.000154
 469	4.6566e+01	18.6396	51.552205	0.000132	1.317425	0.446356	0.000053
 470	4.6666e+01	18.6781	51.689467	0.000345	3.445573	1.167392	0.000138
 471	4.6765e+01	18.7102	51.778284	0.000223	2.229489	0.755371	0.000089
 472	4.6864e+01	18.7567	51.842879	0.000162	1.621446	0.549361	0.000065
 473	4.6964e+01	18.7872	51.972067	0.000324	3.242892	1.098722	0.000130
 474	4.7063e+01	18.8401	52.040698	0.000172	1.722787	0.583696	0.000069
 475	4.7163e+01	18.8738	52.133552	0.000233	2.330829	0.789706	0.000093
 476	4.7263e+01	18.9139	52.202184	0.000172	1.722787	0.583696	0.000069
 477	4.7362e+01	18.9588	52.319261	0.000294	2.938871	0.995717	0.000118
 478	4.7462e+01	18.9925	52.408078	0.000223	2.229489	0.755371	0.000089
 479	4.7561e+01	19.0358	52.480746	0.000182	1.824127	0.618031	0.000073
 480	4.7660e+01	19.0727	52.601860	0.000304	3.040212	1.030052	0.000122
 481	4.7760e+01	19.1176	52.666454	0.000162	1.621446	0.549361	0.000065
 482	4.7859e+01	19.1529	52.815828	0.000375	3.749594	1.270397	0.000150
 483	4.7959e+01	19.1946	52.831977	0.000041	0.405362	0.137340	0.000016
 484	4.8059e+01	19.2283	53.001537	0.000426	4.256296	1.442072	0.000170
 485	4.8158e+01	19.2813	53.033834	0.000081	0.810723	0.274680	0.000032
 486	4.8258e+01	19.3182	53.130725	0.000243	2.432169	0.824041	0.000097
 487	4.8357e+01	19.3519	53.251839	0.000304	3.040212	1.030052	0.000122
 488	4.8456e+01	19.3904	53.360842	0.000274	2.736190	0.927046	0.000110
 489	4.8556e+01	19.4433	53.445621	0.000213	2.128148	0.721036	0.000085
 490	4.8656e+01	19.4882	53.510216	0.000162	1.621446	0.549361	0.000065
 491	4.8755e+01	19.5075	53.607107	0.000243	2.432169	0.824041	0.000097
 492	4.8855e+01	19.5604	53.712072	0.000263	2.634850	0.892711	0.000105
 493	4.8954e+01	19.5893	53.788778	0.000193	1.925467	0.652366	0.000077
 494	4.9053e+01	19.6310	53.913929	0.000314	3.141552	1.064387	0.000126
 495	4.9153e+01	19.6759	53.958338	0.000111	1.114744	0.377686	0.000045
 496	4.9252e+01	19.7176	54.067340	0.000274	2.736190	0.927046	0.000110
 497	4.9352e+01	19.7529	54.152120	0.000213	2.128148	0.721036	0.000085
 498	4.9452e+01	19.7946	54.265160	0.000284	2.837531	0.961381	0.000114
 499	4.9551e+01	19.8460	54.382237	0.000294	2.938871	0.995717	0.000118
 500	4.9651e+01	19.8716	54.471054	0.000223	2.229489	0.755371	0.000089
 501	4.9750e+01	19.9085	54.547760	0.000193	1.925467	0.652366	0.000077
 502	4.9849e+01	19.9518	54.668874	0.000304	3.040212	1.030052	0.000122
 503	4.9949e+01	19.9968	54.769802	0.000253	2.533510	0.858376	0.000101
 504	5.0048e+01	19.9567	54.668874	0.000253	2.533510	0.858376	-0.000101
 505	5.0148e+01	19.9182	54.624465	0.000111	1.114744	0.377686	-0.000045
 506	5.0248e+01	19.8668	54.523537	0.000253	2.533510	0.858376	-0.000101
 507	5.0347e+01	19.8379	54.479128	0.000111	1.114744	0.377686	-0.000045
 508	5.0447e+01	19.7946	54.450868	0.000071	0.709383	0.240345	-0.000028
 509	5.0546e+01	19.7658	54.386274	0.000162	1.621446	0.549361	-0.000065
 510	5.0645e+01	19.7128	54.325717	0.000152	1.520106	0.515026	-0.000061
 511	5.0745e+01	19.6743	54.261123	0.000162	1.621446	0.549361	-0.000065
 512	5.0844e+01	19.6262	54.200566	0.000152	1.520106	0.515026	-0.000061
 513	5.0944e+01	19.5989	54.123860	0.000193	1.925467	0.652366	-0.000077
 514	5.1044e+01	19.5460	54.063303	0.000152	1.520106	0.515026	-0.000061
 515	5.1143e+01	19.5155	54.002746	0.000152	1.520106	0.515026	-0.000061
 516	5.1242e+01	19.4722	53.954301	0.000122	1.216085	0.412021	-0.000049
 517	5.1342e+01	19.4433	53.901818	0.000132	1.317425	0.446356	-0.000053
 518	5.1441e+01	19.3968	53.817038	0.000213	2.128148	0.721036	-0.000085
 519	5.1541e+01	19.3567	53.699961	0.000294	2.938871	0.995717	-0.000118
 520	5.1641e+01	19.3182	53.655553	0.000111	1.114744	0.377686	-0.000045
 521	5.1740e+01	19.2733	53.586921	0.000172	1.722787	0.583696	-0.000069
 522	5.1840e+01	19.2380	53.578847	0.000020	0.202681	0.068670	-0.000008
 523	5.1939e+01	19.1979	53.477919	0.000253	2.533510	0.858376	-0.000101
 524	5.2038e+01	19.1545	53.413324	0.000162	1.621446	0.549361	-0.000065
 525	5.2138e+01	19.1176	53.324507	0.000223	2.229489	0.755371	-0.000089
 526	5.2237e+01	19.0840	53.255876	0.000172	1.722787	0.583696	-0.000069
 527	5.2337e+01	19.0326	53.199356	0.000142	1.418765	0.480691	-0.000057
 528	5.2437e+01	18.9989	53.146873	0.000132	1.317425	0.446356	-0.000053
 529	5.2536e+01	18.9524	53.062094	0.000213	2.128148	0.721036	-0.000085
 530	5.2636e+01	18.9283	52.957128	0.000263	2.634850	0.892711	-0.000105
 531	5.2735e+01	18.8706	52.908682	0.000122	1.216085	0.412021	-0.000049
 532	5.2834e+01	18.8401	52.827940	0.000203	2.026808	0.686701	-0.000081
 533	5.2934e+01	18.8016	52.799680	0.000071	0.709383	0.240345	-0.000028
 534	5.3033e+01	18.7615	52.722974	0.000193	1.925467	0.652366	-0.000077
 535	5.3133e+01	18.7246	52.622046	0.000253	2.533510	0.858376	-0.000101
 536	5.3233e+01	18.6765	52.553414	0.000172	1.722787	0.583696	-0.000069
 537	5.3332e+01	18.6476	52.440375	0.000284	2.837531	0.961381	-0.000114
 538	5.3431e+01	18.6011	52.387892	0.000132	1.317425	0.446356	-0.000053
 539	5.3531e+01	18.5594	52.311186	0.000193	1.925467	0.652366	-0.000077
 540	5.3630e+01	18.5177	52.218332	0.000233	2.330829	0.789706	-0.000093
 541	5.3730e+01	18.4792	52.149701	0.000172	1.722787	0.583696	-0.000069
 542	5.3830e+01	18.4326	52.089144	0.000152	1.520106	0.515026	-0.000061
 543	5.3929e+01	18.3973	52.036661	0.000132	1.317425	0.446356	-0.000053
 544	5.4029e+01	18.3524	51.939770	0.000243	2.432169	0.824041	-0.000097
 545	5.4128e+01	18.3219	51.875176	0.000162	1.621446	0.549361	-0.000065
 546	5.4227e+01	18.2770	51.814619	0.000152	1.520106	0.515026	-0.000061
 547	5.4327e+01	18.2385	51.733876	0.000203	2.026808	0.686701	-0.000081
 548	5.4426e+01	18.1984	51.616799	0.000294	2.938871	0.995717	-0.000118
 549	5.4526e+01	18.1615	51.588539	0.000071	0.709383	0.240345	-0.000028
 550	5.4626e+01	18.1182	51.491648	0.000243	2.432169	0.824041	-0.000097
 551	5.4725e+01	18.0781	51.402831	0.000223	2.229489	0.755371	-0.000089
 552	5.4825e+01	18.0348	51.293828	0.000274	2.736190	0.927046	-0.000110
 553	5.4924e+01	18.0059	51.229234	0.000162	1.621446	0.549361	-0.000065
 554	5.5023e+01	17.9674	51.156566	0.000182	1.824127	0.618031	-0.000073
 555	5.5123e+01	17.9257	51.079860	0.000193	1.925467	0.652366	-0.000077
 556	5.5222e+01	17.8872	51.003154	0.000193	1.925467	0.652366	-0.000077
 557	5.5322e+01	17.8487	50.934523	0.000172	1.722787	0.583696	-0.000069
 558	5.5422e+01	17.7974	50.833595	0.000253	2.533510	0.858376	-0.000101
 559	5.5521e+01	17.7685	50.789186	0.000111	1.114744	0.377686	-0.000045
 560	5.5620e+01	17.7300	50.680183	0.000274	2.736190	0.927046	-0.000110
 561	5.5720e+01	17.6819	50.623664	0.000142	1.418765	0.480691	-0.000057
 562	5.5819e+01	17.6434	50.510624	0.000284	2.837531	0.961381	-0.000114
 563	5.5919e+01	17.5920	50.478327	0.000081	0.810723	0.274680	-0.000032
 564	5.6019e+01	17.5631	50.385473	0.000233	2.330829	0.789706	-0.000093
 565	5.6118e+01	17.5327	50.324916	0.000152	1.520106	0.515026	-0.000061
 566	5.6218e+01	17.4845	50.248210	0.000193	1.925467	0.652366	-0.000077
 567	5.6317e+01	17.4444	50.135170	0.000284	2.837531	0.961381	-0.000114
 568	5.6416e+01	17.4091	50.062502	0.000182	1.824127	0.618031	-0.000073
 569	5.6516e+01	17.3658	49.953499	0.000274	2.736190	0.927046	-0.000110
 570	5.6615e+01	17.3225	49.896979	0.000142	1.418765	0.480691	-0.000057
 571	5.6715e+01	17.2888	49.820274	0.000193	1.925467	0.652366	-0.000077
 572	5.6815e+01	17.2391	49.767791	0.000132	1.317425	0.446356	-0.000053
 573	5.6914e+01	17.2038	49.626491	0.000355	3.546914	1.201727	-0.000142
 574	5.7014e+01	17.1669	49.569971	0.000142	1.418765	0.480691	-0.000057
 575	5.7113e+01	17.1252	49.529600	0.000101	1.013404	0.343351	-0.000041
 576	5.7212e+01	17.0915	49.432709	0.000243	2.432169	0.824041	-0.000097
 577	5.7312e+01	17.0482	49.307557	0.000314	3.141552	1.064387	-0.000126
 578	5.7411e+01	16.9904	49.275260	0.000081	0.810723	0.274680	-0.000032
 579	5.7511e+01	16.9616	49.186443	0.000223	2.229489	0.755371	-0.000089
 580	5.7611e+01	16.9279	49.053218	0.000334	3.344233	1.133057	-0.000134
 581	5.7710e+01	16.8829	48.996698	0.000142	1.418765	0.480691	-0.000057
 582	5.7809e+01	16.8380	48.936141	0.000152	1.520106	0.515026	-0.000061
 583	5.7909e+01	16.7995	48.855398	0.000203	2.026808	0.686701	-0.000081
 584	5.8008e+01	16.7658	48.786767	0.000172	1.722787	0.583696	-0.000069
 585	5.8108e+01	16.7209	48.689876	0.000243	2.432169	0.824041	-0.000097
 586	5.8208e+01	16.6760	48.613170	0.000193	1.925467	0.652366	-0.000077
 587	5.8307e+01	16.6455	48.548576	0.000162	1.621446	0.549361	-0.000065
 588	5.8407e+01	16.6006	48.463796	0.000213	2.128148	0.721036	-0.000085
 589	5.8506e+01	16.5733	48.358830	0.000263	2.634850	0.892711	-0.000105
 590	5.8605e+01	16.5364	48.294236	0.000162	1.621446	0.549361	-0.000065
 591	5.8705e+01	16.4915	48.229642	0.000162	1.621446	0.549361	-0.000065
 592	5.8804e+01	16.4594	48.152937	0.000193	1.925467	0.652366	-0.000077
 593	5.8904e+01	16.4017	48.047971	0.000263	2.634850	0.892711	-0.000105
 594	5.9004e+01	16.3632	47.971265	0.000193	1.925467	0.652366	-0.000077
 595	5.9103e+01	16.3199	47.930894	0.000101	1.013404	0.343351	-0.000041
 596	5.9203e+01	16.2926	47.765371	0.000415	4.154956	1.407737	-0.000166
 597	5.9302e+01	16.2380	47.712889	0.000132	1.317425	0.446356	-0.000053
 598	5.9401e+01	16.2044	47.644257	0.000172	1.722787	0.583696	-0.000069
 599	5.9501e+01	16.1755	47.563515	0.000203	2.026808	0.686701	-0.000081
 600	5.9600e+01	16.1322	47.482772	0.000203	2.026808	0.686701	-0.000081
 601	5.9700e+01	16.0921	47.341472	0.000355	3.546914	1.201727	-0.000142
 602	5.9800e+01	16.0552	47.329361	0.000030	0.304021	0.103005	-0.000012
 603	5.9899e+01	16.0102	47.232470	0.000243	2.432169	0.824041	-0.000097
 604	5.9998e+01	15.9637	47.127504	0.000263	2.634850	0.892711	-0.000105
 605	6.0098e+01	15.9413	47.058873	0.000172	1.722787	0.583696	-0.000069
 606	6.0197e+01	15.8899	46.986204	0.000182	1.824127	0.618031	-0.000073
 607	6.0297e+01	15.8418	46.857016	0.000324	3.242892	1.098722	-0.000130
 608	6.0397e+01	15.8209	46.812607	0.000111	1.114744	0.377686	-0.000045
 609	6.0496e+01	15.7632	46.707642	0.000263	2.634850	0.892711	-0.000105
 610	6.0596e+01	15.7407	46.614788	0.000233	2.330829	0.789706	-0.000093
 611	6.0695e+01	15.6830	46.546156	0.000172	1.722787	0.583696	-0.000069
 612	6.0794e+01	15.6541	46.457340	0.000223	2.229489	0.755371	-0.000089
 613	6.0894e+01	15.6220	46.388708	0.000172	1.722787	0.583696	-0.000069
 614	6.0993e+01	15.5787	46.267594	0.000304	3.040212	1.030052	-0.000122
 615	6.1093e+01	15.5402	46.182814	0.000213	2.128148	0.721036	-0.000085
 616	6.1193e+01	15.4825	46.093997	0.000223	2.229489	0.755371	-0.000089
 617	6.1292e+01	15.4504	46.001143	0.000233	2.330829	0.789706	-0.000093
 618	6.1392e+01	15.4167	45.960772	0.000101	1.013404	0.343351	-0.000041
 619	6.1491e+01	15.3798	45.847732	0.000284	2.837531	0.961381	-0.000114
 620	6.1590e+01	15.3284	45.783138	0.000162	1.621446	0.549361	-0.000065
 621	6.1690e+01	15.2948	45.698358	0.000213	2.128148	0.721036	-0.000085
 622	6.1789e+01	15.2466	45.653949	0.000111	1.114744	0.377686	-0.000045
 623	6.1889e+01	15.2097	45.528798	0.000314	3.141552	1.064387	-0.000126
 624	6.1989e+01	15.1712	45.468241	0.000152	1.520106	0.515026	-0.000061
 625	6.2088e+01	15.1359	45.367313	0.000253	2.533510	0.858376	-0.000101
 626	6.2188e+01	15.0942	45.258310	0.000274	2.736190	0.927046	-0.000110
 627	6.2287e+01	15.0541	45.181605	0.000193	1.925467	0.652366	-0.000077
 628	6.2386e+01	15.0108	45.108936	0.000182	1.824127	0.618031	-0.000073
 629	6.2486e+01	14.9723	45.036268	0.000182	1.824127	0.618031	-0.000073
 630	6.2586e+01	14.9370	44.963599	0.000182	1.824127	0.618031	-0.000073
 631	6.2685e+01	14.8969	44.894968	0.000172	1.722787	0.583696	-0.000069
 632	6.2785e+01	14.8552	44.814225	0.000203	2.026808	0.686701	-0.000081
 633	6.2884e+01	14.8151	44.689074	0.000314	3.141552	1.064387	-0.000126
 634	6.2983e+01	14.7750	44.636591	0.000132	1.317425	0.446356	-0.000053
 635	6.3083e+01	14.7333	44.531626	0.000263	2.634850	0.892711	-0.000105
 636	6.3182e+01	14.6900	44.450883	0.000203	2.026808	0.686701	-0.000081
 637	6.3282e+01	14.6482	44.382252	0.000172	1.722787	0.583696	-0.000069
 638	6.3382e+01	14.6097	44.273249	0.000274	2.736190	0.927046	-0.000110
 639	6.3481e+01	14.5793	44.204618	0.000172	1.722787	0.583696	-0.000069
 640	6.3581e+01	14.5295	44.099652	0.000263	2.634850	0.892711	-0.000105
 641	6.3680e+01	14.5007	44.039095	0.000152	1.520106	0.515026	-0.000061
 642	6.3779e+01	14.4590	43.913944	0.000314	3.141552	1.064387	-0.000126
 643	6.3879e+01	14.4124	43.849350	0.000162	1.621446	0.549361	-0.000065
 644	6.3978e+01	14.3771	43.792830	0.000142	1.418765	0.480691	-0.000057
 645	6.4078e+01	14.3322	43.699976	0.000233	2.330829	0.789706	-0.000093
 646	6.4177e+01	14.2873	43.582899	0.000294	2.938871	0.995717	-0.000118
 647	6.4277e+01	14.2488	43.477933	0.000263	2.634850	0.892711	-0.000105
 648	6.4376e+01	14.2119	43.405265	0.000182	1.824127	0.618031	-0.000073
 649	6.4476e+01	14.1766	43.336634	0.000172	1.722787	0.583696	-0.000069
 650	6.4576e+01	14.1349	43.243779	0.000233	2.330829	0.789706	-0.000093
 651	6.4675e+01	14.0868	43.187260	0.000142	1.418765	0.480691	-0.000057
 652	6.4775e+01	14.0611	43.029811	0.000395	3.952275	1.339067	-0.000158
 653	6.4874e+01	14.0194	42.997514	0.000081	0.810723	0.274680	-0.000032
 654	6.4974e+01	13.9873	42.900623	0.000243	2.432169	0.824041	-0.000097
 655	6.5073e+01	13.9312	42.795657	0.000263	2.634850	0.892711	-0.000105
 656	6.5172e+01	13.8959	42.727026	0.000172	1.722787	0.583696	-0.000069
 657	6.5272e+01	13.8542	42.622061	0.000263	2.634850	0.892711	-0.000105
 658	6.5371e+01	13.8124	42.577652	0.000111	1.114744	0.377686	-0.000045
 659	6.5471e+01	13.7804	42.468649	0.000274	2.736190	0.927046	-0.000110
 660	6.5570e+01	13.7467	42.375795	0.000233	2.330829	0.789706	-0.000093
 661	6.5670e+01	13.6857	42.278904	0.000243	2.432169	0.824041	-0.000097
 662	6.5769e+01	13.6520	42.206236	0.000182	1.824127	0.618031	-0.000073
 663	6.5869e+01	13.6167	42.117419	0.000223	2.229489	0.755371	-0.000089
 664	6.5969e+01	13.5718	42.020527	0.000243	2.432169	0.824041	-0.000097
 665	6.6068e+01	13.5269	41.923636	0.000243	2.432169	0.824041	-0.000097
 666	6.6168e+01	13.4964	41.850968	0.000182	1.824127	0.618031	-0.000073
 667	6.6267e+01	13.4531	41.750039	0.000253	2.533510	0.858376	-0.000101
 668	6.6367e+01	13.4226	41.685445	0.000162	1.621446	0.549361	-0.000065
 669	6.6466e+01	13.3745	41.556257	0.000324	3.242892	1.098722	-0.000130
 670	6.6566e+01	13.3440	41.491663	0.000162	1.621446	0.549361	-0.000065
 671	6.6665e+01	13.3023	41.390734	0.000253	2.533510	0.858376	-0.000101
 672	6.6764e+01	13.2574	41.309991	0.000203	2.026808	0.686701	-0.000081
 673	6.6864e+01	13.2093	41.225212	0.000213	2.128148	0.721036	-0.000085
 674	6.6963e+01	13.1820	41.140432	0.000213	2.128148	0.721036	-0.000085
 675	6.7063e+01	13.1387	41.027392	0.000284	2.837531	0.961381	-0.000114
 676	6.7162e+01	13.1034	40.950686	0.000193	1.925467	0.652366	-0.000077
 677	6.7262e+01	13.0601	40.817461	0.000334	3.344233	1.133057	-0.000134
 678	6.7362e+01	13.0119	40.756904	0.000152	1.520106	0.515026	-0.000061
 679	6.7461e+01	12.9815	40.660013	0.000243	2.432169	0.824041	-0.000097
 680	6.7561e+01	12.9430	40.599456	0.000152	1.520106	0.515026	-0.000061
 681	6.7660e+01	12.9012	40.494490	0.000263	2.634850	0.892711	-0.000105
 682	6.7760e+01	12.8627	40.429896	0.000162	1.621446	0.549361	-0.000065
 683	6.7859e+01	12.8226	40.300708	0.000324	3.242892	1.098722	-0.000130
 684	6.7959e+01	12.7809	40.228039	0.000182	1.824127	0.618031	-0.000073
 685	6.8058e+01	12.7408	40.159408	0.000172	1.722787	0.583696	-0.000069
 686	6.8157e+01	12.7055	40.054442	0.000263	2.634850	0.892711	-0.000105
 687	6.8257e+01	12.6622	40.001959	0.000132	1.317425	0.446356	-0.000053
 688	6.8356e+01	12.6237	39.868734	0.000334	3.344233	1.133057	-0.000134
 689	6.8456e+01	12.5852	39.792028	0.000193	1.925467	0.652366	-0.000077
 690	6.8555e+01	12.5451	39.674951	0.000294	2.938871	0.995717	-0.000118
 691	6.8655e+01	12.5018	39.610357	0.000162	1.621446	0.549361	-0.000065
 692	6.8754e+01	12.4681	39.469058	0.000355	3.546914	1.201727	-0.000142
 693	6.8854e+01	12.4232	39.436760	0.000081	0.810723	0.274680	-0.000032
 694	6.8954e+01	12.3847	39.323721	0.000284	2.837531	0.961381	-0.000114
 695	6.9053e+01	12.3366	39.247015	0.000193	1.925467	0.652366	-0.000077
 696	6.9153e+01	12.3093	39.150124	0.000243	2.432169	0.824041	-0.000097
 697	6.9252e+01	12.2692	39.049195	0.000253	2.533510	0.858376	-0.000101
 698	6.9352e+01	12.2226	38.940193	0.000274	2.736190	0.927046	-0.000110
 699	6.9451e+01	12.1809	38.867524	0.000182	1.824127	0.618031	-0.000073
 700	6.9550e+01	12.1473	38.774670	0.000233	2.330829	0.789706	-0.000093
 701	6.9650e+01	12.1023	38.710076	0.000162	1.621446	0.549361	-0.000065
 702	6.9749e+01	12.0638	38.613185	0.000243	2.432169	0.824041	-0.000097
 703	6.9849e+01	12.0317	38.475922	0.000345	3.445573	1.167392	-0.000138
 704	6.9948e+01	11.9916	38.419402	0.000142	1.418765	0.480691	-0.000057
 705	7.0048e+01	11.9419	38.306362	0.000284	2.837531	0.961381	-0.000114
 706	7.0147e+01	11.9098	38.249843	0.000142	1.418765	0.480691	-0.000057
 707	7.0247e+01	11.8665	38.116617	0.000334	3.344233	1.133057	-0.000134
 708	7.0347e+01	11.8248	38.023763	0.000233	2.330829	0.789706	-0.000093
 709	7.0446e+01	11.7927	37.922835	0.000253	2.533510	0.858376	-0.000101
 710	7.0546e+01	11.7478	37.842092	0.000203	2.026808	0.686701	-0.000081
 711	7.0645e+01	11.7109	37.769423	0.000182	1.824127	0.618031	-0.000073
 712	7.0745e+01	11.6660	37.640235	0.000324	3.242892	1.098722	-0.000130
 713	7.0844e+01	11.6291	37.547381	0.000233	2.330829	0.789706	-0.000093
 714	7.0944e+01	11.5906	37.426267	0.000304	3.040212	1.030052	-0.000122
 715	7.1043e+01	11.5601	37.337450	0.000223	2.229489	0.755371	-0.000089
 716	7.1142e+01	11.5072	37.256707	0.000203	2.026808	0.686701	-0.000081
 717	7.1242e+01	11.4606	37.127519	0.000324	3.242892	1.098722	-0.000130
 718	7.1341e+01	11.4205	37.046776	0.000203	2.026808	0.686701	-0.000081
 719	7.1441e+01	11.3917	36.941811	0.000263	2.634850	0.892711	-0.000105
 720	7.1540e+01	11.3596	36.881254	0.000152	1.520106	0.515026	-0.000061
 721	7.1640e+01	11.3066	36.723805	0.000395	3.952275	1.339067	-0.000158
 722	7.1740e+01	11.2697	36.655174	0.000172	1.722787	0.583696	-0.000069
 723	7.1839e+01	11.2248	36.586543	0.000172	1.722787	0.583696	-0.000069
 724	7.1939e+01	11.1927	36.453317	0.000334	3.344233	1.133057	-0.000134
 725	7.2038e+01	11.1446	36.364500	0.000223	2.229489	0.755371	-0.000089
 726	7.2138e+01	11.1141	36.279720	0.000213	2.128148	0.721036	-0.000085
 727	7.2237e+01	11.0676	36.166681	0.000284	2.837531	0.961381	-0.000114
 728	7.2337e+01	11.0323	36.077864	0.000223	2.229489	0.755371	-0.000089
 729	7.2436e+01	10.9858	35.993084	0.000213	2.128148	0.721036	-0.000085
 730	7.2535e+01	10.9505	35.900230	0.000233	2.330829	0.789706	-0.000093
 731	7.2635e+01	10.9136	35.799301	0.000253	2.533510	0.858376	-0.000101
 732	7.2734e+01	10.8719	35.658001	0.000355	3.546914	1.201727	-0.000142
 733	7.2834e+01	10.8238	35.565147	0.000233	2.330829	0.789706	-0.000093
 734	7.2933e+01	10.7933	35.496516	0.000172	1.722787	0.583696	-0.000069
 735	7.3033e+01	10.7500	35.403662	0.000233	2.330829	0.789706	-0.000093
 736	7.3132e+01	10.7131	35.262362	0.000355	3.546914	1.201727	-0.000142
 737	7.3232e+01	10.6714	35.149322	0.000284	2.837531	0.961381	-0.000114
 738	7.3332e+01	10.6296	35.121062	0.000071	0.709383	0.240345	-0.000028
 739	7.3431e+01	10.5879	35.040320	0.000203	2.026808	0.686701	-0.000081
 740	7.3531e+01	10.5542	34.874797	0.000415	4.154956	1.407737	-0.000166
 741	7.3630e+01	10.5174	34.802129	0.000182	1.824127	0.618031	-0.000073
 742	7.3730e+01	10.4708	34.689089	0.000284	2.837531	0.961381	-0.000114
 743	7.3829e+01	10.4387	34.620458	0.000172	1.722787	0.583696	-0.000069
 744	7.3928e+01	10.3906	34.503381	0.000294	2.938871	0.995717	-0.000118
 745	7.4028e+01	10.3617	34.390341	0.000284	2.837531	0.961381	-0.000114
 746	7.4127e+01	10.3216	34.301524	0.000223	2.229489	0.755371	-0.000089
 747	7.4227e+01	10.2767	34.212707	0.000223	2.229489	0.755371	-0.000089
 748	7.4326e+01	10.2414	34.091593	0.000304	3.040212	1.030052	-0.000122
 749	7.4426e+01	10.1869	33.970479	0.000304	3.040212	1.030052	-0.000122
 750	7.4525e+01	10.1404	33.889736	0.000203	2.026808	0.686701	-0.000081
 751	7.4625e+01	10.1243	33.800919	0.000223	2.229489	0.755371	-0.000089
 752	7.4725e+01	10.0810	33.712102	0.000223	2.229489	0.755371	-0.000089
 753	7.4824e+01	10.0345	33.595025	0.000294	2.938871	0.995717	-0.000118
 754	7.4924e+01	9.9928	33.506208	0.000223	2.229489	0.755371	-0.000089
 755	7.5023e+01	9.9559	33.417391	0.000223	2.229489	0.755371	-0.000089
 756	7.5123e+01	9.9126	33.316463	0.000253	2.533510	0.858376	-0.000101
 757	7.5222e+01	9.8741	33.211497	0.000263	2.634850	0.892711	-0.000105
 758	7.5322e+01	9.8291	33.078272	0.000334	3.344233	1.133057	-0.000134
 759	7.5421e+01	9.7922	32.993492	0.000213	2.128148	0.721036	-0.000085
 760	7.5520e+01	9.7634	32.888526	0.000263	2.634850	0.892711	-0.000105
 761	7.5620e+01	9.7088	32.787598	0.000253	2.533510	0.858376	-0.000101
 762	7.5719e+01	9.6703	32.662447	0.000314	3.141552	1.064387	-0.000126
 763	7.5819e+01	9.6334	32.585741	0.000193	1.925467	0.652366	-0.000077
 764	7.5918e+01	9.5997	32.517110	0.000172	1.722787	0.583696	-0.000069
 765	7.6018e+01	9.5452	32.436367	0.000203	2.026808	0.686701	-0.000081
 766	7.6118e+01	9.5163	32.303142	0.000334	3.344233	1.133057	-0.000134
 767	7.6217e+01	9.4714	32.210287	0.000233	2.330829	0.789706	-0.000093
 768	7.6317e+01	9.4329	32.093211	0.000294	2.938871	0.995717	-0.000118
 769	7.6416e+01	9.3912	31.959985	0.000334	3.344233	1.133057	-0.000134
 770	7.6516e+01	9.3559	31.891354	0.000172	1.722787	0.583696	-0.000069
 771	7.6615e+01	9.3174	31.750054	0.000355	3.546914	1.201727	-0.000142
 772	7.6715e+01	9.2741	31.673348	0.000193	1.925467	0.652366	-0.000077
 773	7.6814e+01	9.2308	31.544160	0.000324	3.242892	1.098722	-0.000130
 774	7.6913e+01	9.1923	31.455343	0.000223	2.229489	0.755371	-0.000089
 775	7.7013e+01	9.1618	31.346340	0.000274	2.736190	0.927046	-0.000110
 776	7.7112e+01	9.1217	31.253486	0.000233	2.330829	0.789706	-0.000093
 777	7.7212e+01	9.0719	31.152558	0.000253	2.533510	0.858376	-0.000101
 778	7.7311e+01	9.0399	31.051630	0.000253	2.533510	0.858376	-0.000101
 779	7.7411e+01	8.9997	30.926478	0.000314	3.141552	1.064387	-0.000126
 780	7.7510e+01	8.9532	30.805364	0.000304	3.040212	1.030052	-0.000122
 781	7.7610e+01	8.9115	30.740770	0.000162	1.621446	0.549361	-0.000065
 782	7.7710e+01	8.8730	30.611582	0.000324	3.242892	1.098722	-0.000130
 783	7.7809e+01	8.8233	30.506616	0.000263	2.634850	0.892711	-0.000105
 784	7.7909e+01	8.8040	30.409725	0.000243	2.432169	0.824041	-0.000097
 785	7.8008e+01	8.7575	30.324945	0.000213	2.128148	0.721036	-0.000085
 786	7.8108e+01	8.7238	30.191720	0.000334	3.344233	1.133057	-0.000134
 787	7.8207e+01	8.6837	30.115014	0.000193	1.925467	0.652366	-0.000077
 788	7.8306e+01	8.6468	29.981789	0.000334	3.344233	1.133057	-0.000134
 789	7.8406e+01	8.5971	29.876823	0.000263	2.634850	0.892711	-0.000105
 790	7.8505e+01	8.5602	29.800117	0.000193	1.925467	0.652366	-0.000077
 791	7.8605e+01	8.5265	29.703226	0.000243	2.432169	0.824041	-0.000097
 792	7.8704e+01	8.4832	29.561926	0.000355	3.546914	1.201727	-0.000142
 793	7.8804e+01	8.4399	29.481184	0.000203	2.026808	0.686701	-0.000081
 794	7.8903e+01	8.4062	29.432738	0.000122	1.216085	0.412021	-0.000049
 795	7.9003e+01	8.3677	29.247030	0.000466	4.661658	1.579412	-0.000187
 796	7.9103e+01	8.3228	29.154176	0.000233	2.330829	0.789706	-0.000093
 797	7.9202e+01	8.2794	29.041136	0.000284	2.837531	0.961381	-0.000114
 798	7.9302e+01	8.2345	28.956356	0.000213	2.128148	0.721036	-0.000085
 799	7.9401e+01	8.2073	28.843316	0.000284	2.837531	0.961381	-0.000114
 800	7.9501e+01	8.1623	28.750462	0.000233	2.330829	0.789706	-0.000093
 801	7.9600e+01	8.1158	28.637422	0.000284	2.837531	0.961381	-0.000114
 802	7.9700e+01	8.0821	28.512271	0.000314	3.141552	1.064387	-0.000126
 803	7.9799e+01	8.0436	28.423454	0.000223	2.229489	0.755371	-0.000089
 804	7.9898e+01	8.0035	28.290229	0.000334	3.344233	1.133057	-0.000134
 805	7.9998e+01	7.9570	28.225635	0.000162	1.621446	0.549361	-0.000065
 806	8.0097e+01	7.9281	28.092409	0.000334	3.344233	1.133057	-0.000134
 807	8.0197e+01	7.8800	28.015703	0.000193	1.925467	0.652366	-0.000077
 808	8.0296e+01	7.8431	27.878441	0.000345	3.445573	1.167392	-0.000138
 809	8.0396e+01	7.8014	27.809810	0.000172	1.722787	0.583696	-0.000069
 810	8.0496e+01	7.7549	27.680621	0.000324	3.242892	1.098722	-0.000130
 811	8.0595e+01	7.7228	27.555470	0.000314	3.141552	1.064387	-0.000126
 812	8.0695e+01	7.6811	27.507024	0.000122	1.216085	0.412021	-0.000049
 813	8.0794e+01	7.6474	27.361687	0.000365	3.648254	1.236062	-0.000146
 814	8.0894e+01	7.6025	27.268833	0.000233	2.330829	0.789706	-0.000093
 815	8.0993e+01	7.5575	27.127534	0.000355	3.546914	1.201727	-0.000142
 816	8.1093e+01	7.5190	27.014494	0.000284	2.837531	0.961381	-0.000114
 817	8.1192e+01	7.4886	26.929714	0.000213	2.128148	0.721036	-0.000085
 818	8.1291e+01	7.4468	26.792451	0.000345	3.445573	1.167392	-0.000138
 819	8.1391e+01	7.4051	26.703634	0.000223	2.229489	0.755371	-0.000089
 820	8.1490e+01	7.3747	26.574446	0.000324	3.242892	1.098722	-0.000130
 821	8.1590e+01	7.3265	26.453332	0.000304	3.040212	1.030052	-0.000122
 822	8.1689e+01	7.2816	26.352404	0.000253	2.533510	0.858376	-0.000101
 823	8.1789e+01	7.2543	26.251475	0.000253	2.533510	0.858376	-0.000101
 824	8.1888e+01	7.1998	26.158621	0.000233	2.330829	0.789706	-0.000093
 825	8.1988e+01	7.1629	26.041544	0.000294	2.938871	0.995717	-0.000118
 826	8.2088e+01	7.1212	25.920430	0.000304	3.040212	1.030052	-0.000122
 827	8.2187e+01	7.0827	25.827576	0.000233	2.330829	0.789706	-0.000093
 828	8.2287e+01	7.0458	25.694350	0.000334	3.344233	1.133057	-0.000134
 829	8.2386e+01	7.0057	25.577273	0.000294	2.938871	0.995717	-0.000118
 830	8.2486e+01	6.9624	25.508642	0.000172	1.722787	0.583696	-0.000069
 831	8.2585e+01	6.9255	25.367342	0.000355	3.546914	1.201727	-0.000142
 832	8.2684e+01	6.8854	25.250265	0.000294	2.938871	0.995717	-0.000118
 833	8.2784e+01	6.8453	25.117040	0.000334	3.344233	1.133057	-0.000134
 834	8.2883e+01	6.8132	25.032260	0.000213	2.128148	0.721036	-0.000085
 835	8.2983e+01	6.7699	24.903072	0.000324	3.242892	1.098722	-0.000130
 836	8.3082e+01	6.7282	24.818292	0.000213	2.128148	0.721036	-0.000085
 837	8.3182e+01	6.6913	24.713326	0.000263	2.634850	0.892711	-0.000105
 838	8.3281e+01	6.6528	24.592212	0.000304	3.040212	1.030052	-0.000122
 839	8.3381e+01	6.6046	24.475135	0.000294	2.938871	0.995717	-0.000118
 840	8.3481e+01	6.5677	24.378244	0.000243	2.432169	0.824041	-0.000097
 841	8.3580e+01	6.5212	24.245019	0.000334	3.344233	1.133057	-0.000134
 842	8.3680e+01	6.4907	24.107756	0.000345	3.445573	1.167392	-0.000138
 843	8.3779e+01	6.4474	23.986642	0.000304	3.040212	1.030052	-0.000122
 844	8.3879e+01	6.4089	23.897825	0.000223	2.229489	0.755371	-0.000089
 845	8.3978e+01	6.3752	23.756525	0.000355	3.546914	1.201727	-0.000142
 846	8.4078e+01	6.3271	23.667708	0.000223	2.229489	0.755371	-0.000089
 847	8.4177e+01	6.2918	23.566780	0.000253	2.533510	0.858376	-0.000101
 848	8.4276e+01	6.2533	23.445666	0.000304	3.040212	1.030052	-0.000122
 849	8.4376e+01	6.2068	23.336663	0.000274	2.736190	0.927046	-0.000110
 850	8.4475e+01	6.1603	23.211512	0.000314	3.141552	1.064387	-0.000126
 851	8.4575e+01	6.1378	23.090398	0.000304	3.040212	1.030052	-0.000122
 852	8.4674e+01	6.0897	22.985432	0.000263	2.634850	0.892711	-0.000105
 853	8.4774e+01	6.0576	22.856244	0.000324	3.242892	1.098722	-0.000130
 854	8.4874e+01	6.0191	22.723019	0.000334	3.344233	1.133057	-0.000134
 855	8.4973e+01	5.9629	22.609979	0.000284	2.837531	0.961381	-0.000114
 856	8.5073e+01	5.9308	22.509050	0.000253	2.533510	0.858376	-0.000101
 857	8.5172e+01	5.8875	22.391973	0.000294	2.938871	0.995717	-0.000118
 858	8.5272e+01	5.8474	22.262785	0.000324	3.242892	1.098722	-0.000130
 859	8.5371e+01	5.8025	22.161857	0.000253	2.533510	0.858376	-0.000101
 860	8.5471e+01	5.7752	22.008445	0.000385	3.850935	1.304732	-0.000154
 861	8.5570e+01	5.7319	21.911554	0.000243	2.432169	0.824041	-0.000097
 862	8.5669e+01	5.6854	21.810626	0.000253	2.533510	0.858376	-0.000101
 863	8.5769e+01	5.6597	21.649140	0.000405	4.053615	1.373402	-0.000162
 864	8.5868e+01	5.6132	21.576472	0.000182	1.824127	0.618031	-0.000073
 865	8.5968e+01	5.5651	21.435172	0.000355	3.546914	1.201727	-0.000142
 866	8.6067e+01	5.5346	21.338281	0.000243	2.432169	0.824041	-0.000097
 867	8.6167e+01	5.4977	21.184870	0.000385	3.850935	1.304732	-0.000154
 868	8.6266e+01	5.4528	21.128350	0.000142	1.418765	0.480691	-0.000057
 869	8.6366e+01	5.4159	20.974939	0.000385	3.850935	1.304732	-0.000154
 870	8.6466e+01	5.3710	20.845750	0.000324	3.242892	1.098722	-0.000130
 871	8.6565e+01	5.3341	20.777119	0.000172	1.722787	0.583696	-0.000069
 872	8.6665e+01	5.2908	20.619671	0.000395	3.952275	1.339067	-0.000158
 873	8.6764e+01	5.2603	20.478371	0.000355	3.546914	1.201727	-0.000142
 874	8.6864e+01	5.2234	20.353220	0.000314	3.141552	1.064387	-0.000126
 875	8.6963e+01	5.1801	20.228069	0.000314	3.141552	1.064387	-0.000126
 876	8.7063e+01	5.1303	20.131177	0.000243	2.432169	0.824041	-0.000097
 877	8.7162e+01	5.0902	19.949506	0.000456	4.560317	1.545077	-0.000183
 878	8.7261e+01	5.0614	19.848578	0.000253	2.533510	0.858376	-0.000101
 879	8.7361e+01	5.0116	19.735538	0.000284	2.837531	0.961381	-0.000114
 880	8.7460e+01	4.9731	19.610387	0.000314	3.141552	1.064387	-0.000126
 881	8.7560e+01	4.9330	19.477161	0.000334	3.344233	1.133057	-0.000134
 882	8.7659e+01	4.8961	19.380270	0.000243	2.432169	0.824041	-0.000097
 883	8.7759e+01	4.8592	19.234933	0.000365	3.648254	1.236062	-0.000146
 884	8.7859e+01	4.8079	19.081522	0.000385	3.850935	1.304732	-0.000154
 885	8.7958e+01	4.7790	18.976557	0.000263	2.634850	0.892711	-0.000105
 886	8.8058e+01	4.7277	18.835257	0.000355	3.546914	1.201727	-0.000142
 887	8.8157e+01	4.6956	18.710106	0.000314	3.141552	1.064387	-0.000126
 888	8.8257e+01	4.6571	18.613214	0.000243	2.432169	0.824041	-0.000097
 889	8.8356e+01	4.6074	18.479989	0.000334	3.344233	1.133057	-0.000134
 890	8.8456e+01	4.5721	18.334652	0.000365	3.648254	1.236062	-0.000146
 891	8.8555e+01	4.5368	18.233724	0.000253	2.533510	0.858376	-0.000101
 892	8.8654e+01	4.4983	18.120684	0.000284	2.837531	0.961381	-0.000114
 893	8.8754e+01	4.4566	17.971310	0.000375	3.749594	1.270397	-0.000150
 894	8.8853e+01	4.4132	17.773490	0.000497	4.965679	1.682418	-0.000199
 895	8.8953e+01	4.3812	17.716970	0.000142	1.418765	0.480691	-0.000057
 896	8.9052e+01	4.3411	17.583745	0.000334	3.344233	1.133057	-0.000134
 897	8.9152e+01	4.3009	17.478779	0.000263	2.634850	0.892711	-0.000105
 898	8.9251e+01	4.2448	17.301145	0.000446	4.458977	1.510742	-0.000179
 899	8.9351e+01	4.2223	17.228477	0.000182	1.824127	0.618031	-0.000073
 900	8.9451e+01	4.1790	17.034694	0.000486	4.864339	1.648083	-0.000195
 901	8.9550e+01	4.1437	16.937803	0.000243	2.432169	0.824041	-0.000097
 902	8.9650e+01	4.0940	16.772280	0.000415	4.154956	1.407737	-0.000166
 903	8.9749e+01	4.0507	16.707686	0.000162	1.621446	0.549361	-0.000065
 904	8.9849e+01	4.0186	16.574461	0.000334	3.344233	1.133057	-0.000134
 905	8.9948e+01	3.9785	16.445272	0.000324	3.242892	1.098722	-0.000130
 906	9.0047e+01	3.9448	16.255527	0.000476	4.762998	1.613747	-0.000191
 907	9.0147e+01	3.8967	16.146524	0.000274	2.736190	0.927046	-0.000110
 908	9.0246e+01	3.8502	16.033485	0.000284	2.837531	0.961381	-0.000114
 909	9.0346e+01	3.8101	15.896222	0.000345	3.445573	1.167392	-0.000138
 910	9.0445e+01	3.7748	15.767034	0.000324	3.242892	1.098722	-0.000130
 911	9.0545e+01	3.7347	15.637845	0.000324	3.242892	1.098722	-0.000130
 912	9.0644e+01	3.6994	15.504620	0.000334	3.344233	1.133057	-0.000134
 913	9.0744e+01	3.6609	15.359283	0.000365	3.648254	1.236062	-0.000146
 914	9.0844e+01	3.6208	15.234132	0.000314	3.141552	1.064387	-0.000126
 915	9.0943e+01	3.5823	15.056498	0.000446	4.458977	1.510742	-0.000179
 916	9.1043e+01	3.5309	14.943458	0.000284	2.837531	0.961381	-0.000114
 917	9.1142e+01	3.5004	14.818307	0.000314	3.141552	1.064387	-0.000126
 918	9.1242e+01	3.4571	14.668933	0.000375	3.749594	1.270397	-0.000150
 919	9.1341e+01	3.4315	14.539744	0.000324	3.242892	1.098722	-0.000130
 920	9.1441e+01	3.3769	14.382296	0.000395	3.952275	1.339067	-0.000158
 921	9.1540e+01	3.3400	14.297516	0.000213	2.128148	0.721036	-0.000085
 922	9.1639e+01	3.3047	14.115845	0.000456	4.560317	1.545077	-0.000183
 923	9.1739e+01	3.2566	14.014917	0.000253	2.533510	0.858376	-0.000101
 924	9.1838e+01	3.2261	13.897840	0.000294	2.938871	0.995717	-0.000118
 925	9.1938e+01	3.1828	13.736354	0.000405	4.053615	1.373402	-0.000162
 926	9.2037e+01	3.1395	13.599092	0.000345	3.445573	1.167392	-0.000138
 927	9.2137e+01	3.1026	13.498163	0.000253	2.533510	0.858376	-0.000101
 928	9.2237e+01	3.0561	13.348789	0.000375	3.749594	1.270397	-0.000150
 929	9.2336e+01	3.0095	13.203452	0.000365	3.648254	1.236062	-0.000146
 930	9.2436e+01	2.9839	13.090413	0.000284	2.837531	0.961381	-0.000114
 931	9.2535e+01	2.9406	12.941039	0.000375	3.749594	1.270397	-0.000150
 932	9.2635e+01	2.9069	12.783590	0.000395	3.952275	1.339067	-0.000158
 933	9.2734e+01	2.8732	12.618068	0.000415	4.154956	1.407737	-0.000166
 934	9.2834e+01	2.8251	12.529251	0.000223	2.229489	0.755371	-0.000089
 935	9.2933e+01	2.7849	12.323357	0.000517	5.168360	1.751088	-0.000207
 936	9.3032e+01	2.7448	12.210317	0.000284	2.837531	0.961381	-0.000114
 937	9.3132e+01	2.7015	12.085166	0.000314	3.141552	1.064387	-0.000126
 938	9.3231e+01	2.6662	11.899458	0.000466	4.661658	1.579412	-0.000187
 939	9.3331e+01	2.6165	11.794492	0.000263	2.634850	0.892711	-0.000105
 940	9.3430e+01	2.5924	11.673378	0.000304	3.040212	1.030052	-0.000122
 941	9.3530e+01	2.5411	11.503818	0.000426	4.256296	1.442072	-0.000170
 942	9.3629e+01	2.5042	11.362519	0.000355	3.546914	1.201727	-0.000142
 943	9.3729e+01	2.4577	11.213145	0.000375	3.749594	1.270397	-0.000150
 944	9.3829e+01	2.4240	11.079919	0.000334	3.344233	1.133057	-0.000134
 945	9.3928e+01	2.3839	10.970916	0.000274	2.736190	0.927046	-0.000110
 946	9.4028e+01	2.3422	10.789245	0.000456	4.560317	1.545077	-0.000183
 947	9.4127e+01	2.3069	10.647946	0.000355	3.546914	1.201727	-0.000142
 948	9.4227e+01	2.2732	10.462237	0.000466	4.661658	1.579412	-0.000187
 949	9.4326e+01	2.2219	10.341123	0.000304	3.040212	1.030052	-0.000122
 950	9.4425e+01	2.1914	10.220009	0.000304	3.040212	1.030052	-0.000122
 951	9.4525e+01	2.1400	10.062561	0.000395	3.952275	1.339067	-0.000158
 952	9.4624e+01	2.0999	9.913187	0.000375	3.749594	1.270397	-0.000150
 953	9.4724e+01	2.0711	9.767850	0.000365	3.648254	1.236062	-0.000146
 954	9.4823e+01	2.0149	9.602327	0.000415	4.154956	1.407737	-0.000166
 955	9.4923e+01	1.9892	9.501399	0.000253	2.533510	0.858376	-0.000101
 956	9.5022e+01	1.9507	9.311654	0.000476	4.762998	1.613747	-0.000191
 957	9.5122e+01	1.9090	9.174391	0.000345	3.445573	1.167392	-0.000138
 958	9.5222e+01	1.8657	9.000794	0.000436	4.357637	1.476407	-0.000174
 959	9.5321e+01	1.8336	8.891791	0.000274	2.736190	0.927046	-0.000110
 960	9.5421e+01	1.7839	8.778752	0.000284	2.837531	0.961381	-0.000114
 961	9.5520e+01	1.7454	8.605155	0.000436	4.357637	1.476407	-0.000174
 962	9.5620e+01	1.7037	8.451744	0.000385	3.850935	1.304732	-0.000154
 963	9.5719e+01	1.6700	8.314481	0.000345	3.445573	1.167392	-0.000138
 964	9.5819e+01	1.6299	8.181256	0.000334	3.344233	1.133057	-0.000134
 965	9.5918e+01	1.5818	8.023807	0.000395	3.952275	1.339067	-0.000158
 966	9.6017e+01	1.5385	7.862322	0.000405	4.053615	1.373402	-0.000162
 967	9.6117e+01	1.5112	7.761393	0.000253	2.533510	0.858376	-0.000101
 968	9.6216e+01	1.4647	7.567611	0.000486	4.864339	1.648083	-0.000195
 969	9.6316e+01	1.4246	7.418237	0.000375	3.749594	1.270397	-0.000150
 970	9.6415e+01	1.3925	7.301160	0.000294	2.938871	0.995717	-0.000118
 971	9.6515e+01	1.3540	7.115452	0.000466	4.661658	1.579412	-0.000187
 972	9.6615e+01	1.3139	6.982226	0.000334	3.344233	1.133057	-0.000134
 973	9.6714e+01	1.2689	6.812667	0.000426	4.256296	1.442072	-0.000170
 974	9.6814e+01	1.2240	6.671367	0.000355	3.546914	1.201727	-0.000142
 975	9.6913e+01	1.1887	6.521993	0.000375	3.749594	1.270397	-0.000150
 976	9.7013e+01	1.1486	6.364544	0.000395	3.952275	1.339067	-0.000158
 977	9.7112e+01	1.1053	6.227282	0.000345	3.445573	1.167392	-0.000138
 978	9.7212e+01	1.0556	6.049648	0.000446	4.458977	1.510742	-0.000179
 979	9.7311e+01	1.0283	5.932571	0.000294	2.938871	0.995717	-0.000118
 980	9.7410e+01	0.9882	5.767048	0.000415	4.154956	1.407737	-0.000166
 981	9.7510e+01	0.9449	5.561154	0.000517	5.168360	1.751088	-0.000207
 982	9.7609e+01	0.9048	5.460226	0.000253	2.533510	0.858376	-0.000101
 983	9.7709e+01	0.8631	5.278555	0.000456	4.560317	1.545077	-0.000183
 984	9.7808e+01	0.8310	5.141292	0.000345	3.445573	1.167392	-0.000138
 985	9.7908e+01	0.7813	4.967696	0.000436	4.357637	1.476407	-0.000174
 986	9.8007e+01	0.7492	4.818322	0.000375	3.749594	1.270397	-0.000150
 987	9.8107e+01	0.7107	4.672985	0.000365	3.648254	1.236062	-0.000146
 988	9.8207e+01	0.6690	4.535722	0.000345	3.445573	1.167392	-0.000138
 989	9.8306e+01	0.6305	4.321754	0.000537	5.371041	1.819758	-0.000215
 990	9.8406e+01	0.5839	4.200640	0.000304	3.040212	1.030052	-0.000122
 991	9.8505e+01	0.5438	4.047229	0.000385	3.850935	1.304732	-0.000154
 992	9.8605e+01	0.5214	3.881706	0.000415	4.154956	1.407737	-0.000166
 993	9.8704e+01	0.4588	3.728295	0.000385	3.850935	1.304732	-0.000154
 994	9.8803e+01	0.4412	3.570847	0.000395	3.952275	1.339067	-0.000158
 995	9.8903e+01	0.3898	3.381101	0.000476	4.762998	1.613747	-0.000191
 996	9.9002e+01	0.3513	3.243839	0.000345	3.445573	1.167392	-0.000138
 997	9.9102e+01	0.3112	3.066205	0.000446	4.458977	1.510742	-0.000179
 998	9.9201e+01	0.2663	2.908756	0.000395	3.952275	1.339067	-0.000158
 999	9.9301e+01	0.2278	2.767457	0.000355	3.546914	1.201727	-0.000142
1000	9.9400e+01	0.1877	2.605971	0.000405	4.053615	1.373402	-0.000162
1001	9.9500e+01	0.1460	2.452560	0.000385	3.850935	1.304732	-0.000154
1002	9.9600e+01	0.1155	2.266852	0.000466	4.661658	1.579412	-0.000187
1003	9.9699e+01	0.0738	2.129589	0.000345	3.445573	1.167392	-0.000138
1004	9.9799e+01	0.0401	1.960029	0.000426	4.256296	1.442072	-0.000170
1005	9.9898e+01	-0.0016	1.846990	0.000284	2.837531	0.961381	-0.000114
1006	9.9998e+01	-0.0401	1.673393	0.000436	4.357637	1.476407	-0.000174
1007	1.0010e+02	-0.0818	1.536130	0.000345	3.445573	1.167392	-0.000138
1008	1.0020e+02	-0.1332	1.350422	0.000466	4.661658	1.579412	-0.000187
1009	1.0030e+02	-0.1540	1.221234	0.000324	3.242892	1.098722	-0.000130
1010	1.0040e+02	-0.1925	1.011303	0.000527	5.269700	1.785423	-0.000211
1011	1.0050e+02	-0.2390	0.845780	0.000415	4.154956	1.407737	-0.000166
1012	1.0059e+02	-0.2823	0.704480	0.000355	3.546914	1.201727	-0.000142
1013	1.0069e+02	-0.3176	0.526846	0.000446	4.458977	1.510742	-0.000179
1014	1.0079e+02	-0.3561	0.341138	0.000466	4.661658	1.579412	-0.000187
1015	1.0089e+02	-0.3978	0.199838	0.000355	3.546914	1.201727	-0.000142
1016	1.0099e+02	-0.4428	0.078724	0.000304	3.040212	1.030052	-0.000122
1017	1.0109e+02	-0.4813	-0.090836	0.000426	4.256296	1.442072	-0.000170
1018	1.0119e+02	-0.5166	-0.288655	0.000497	4.965679	1.682418	-0.000199
1019	1.0129e+02	-0.5583	-0.429955	0.000355	3.546914	1.201727	-0.000142
1020	1.0139e+02	-0.6000	-0.615663	0.000466	4.661658	1.579412	-0.000187
1021	1.0149e+02	-0.6417	-0.752926	0.000345	3.445573	1.167392	-0.000138
1022	1.0159e+02	-0.6786	-0.914411	0.000405	4.053615	1.373402	-0.000162
1023	1.0169e+02	-0.7187	-1.063785	0.000375	3.749594	1.270397	-0.000150
1024	1.0179e+02	-0.7540	-1.221234	0.000395	3.952275	1.339067	-0.000158
1025	1.0189e+02	-0.7909	-1.378682	0.000395	3.952275	1.339067	-0.000158
1026	1.0199e+02	-0.8390	-1.528056	0.000375	3.749594	1.270397	-0.000150
1027	1.0209e+02	-0.8695	-1.693578	0.000415	4.154956	1.407737	-0.000166
1028	1.0219e+02	-0.9144	-1.867175	0.000436	4.357637	1.476407	-0.000174
1029	1.0229e+02	-0.9497	-2.024624	0.000395	3.952275	1.339067	-0.000158
1030	1.0239e+02	-0.9946	-2.206295	0.000456	4.560317	1.545077	-0.000183
1031	1.0248e+02	-1.0395	-2.347594	0.000355	3.546914	1.201727	-0.000142
1032	1.0258e+02	-1.0845	-2.505043	0.000395	3.952275	1.339067	-0.000158
1033	1.0268e+02	-1.1149	-2.654417	0.000375	3.749594	1.270397	-0.000150
1034	1.0278e+02	-1.1534	-2.836088	0.000456	4.560317	1.545077	-0.000183
1035	1.0288e+02	-1.2016	-2.965276	0.000324	3.242892	1.098722	-0.000130
1036	1.0298e+02	-1.2369	-3.110613	0.000365	3.648254	1.236062	-0.000146
1037	1.0308e+02	-1.2770	-3.320544	0.000527	5.269700	1.785423	-0.000211
1038	1.0318e+02	-1.3074	-3.469918	0.000375	3.749594	1.270397	-0.000150
1039	1.0328e+02	-1.3556	-3.631404	0.000405	4.053615	1.373402	-0.000162
1040	1.0338e+02	-1.4021	-3.788852	0.000395	3.952275	1.339067	-0.000158
1041	1.0348e+02	-1.4262	-3.958412	0.000426	4.256296	1.442072	-0.000170
1042	1.0358e+02	-1.4743	-4.127971	0.000426	4.256296	1.442072	-0.000170
1043	1.0368e+02	-1.5128	-4.289457	0.000405	4.053615	1.373402	-0.000162
1044	1.0378e+02	-1.5561	-4.426719	0.000345	3.445573	1.167392	-0.000138
1045	1.0388e+02	-1.5946	-4.576093	0.000375	3.749594	1.270397	-0.000150
1046	1.0398e+02	-1.6347	-4.741616	0.000415	4.154956	1.407737	-0.000166
1047	1.0408e+02	-1.6732	-4.931361	0.000476	4.762998	1.613747	-0.000191
1048	1.0418e+02	-1.7197	-5.068624	0.000345	3.445573	1.167392	-0.000138
1049	1.0428e+02	-1.7486	-5.213961	0.000365	3.648254	1.236062	-0.000146
1050	1.0438e+02	-1.7871	-5.371409	0.000395	3.952275	1.339067	-0.000158
1051	1.0447e+02	-1.8320	-5.553080	0.000456	4.560317	1.545077	-0.000183
1052	1.0457e+02	-1.8625	-5.722640	0.000426	4.256296	1.442072	-0.000170
1053	1.0467e+02	-1.9026	-5.867977	0.000365	3.648254	1.236062	-0.000146
1054	1.0477e+02	-1.9620	-6.021388	0.000385	3.850935	1.304732	-0.000154
1055	1.0487e+02	-1.9925	-6.174799	0.000385	3.850935	1.304732	-0.000154
1056	1.0497e+02	-2.0342	-6.344359	0.000426	4.256296	1.442072	-0.000170
1057	1.0507e+02	-2.0679	-6.481621	0.000345	3.445573	1.167392	-0.000138
1058	1.0517e+02	-2.1064	-6.639070	0.000395	3.952275	1.339067	-0.000158
1059	1.0527e+02	-2.1513	-6.824778	0.000466	4.661658	1.579412	-0.000187
1060	1.0537e+02	-2.1962	-6.958003	0.000334	3.344233	1.133057	-0.000134
1061	1.0547e+02	-2.2315	-7.111415	0.000385	3.850935	1.304732	-0.000154
1062	1.0557e+02	-2.2796	-7.260789	0.000375	3.749594	1.270397	-0.000150
1063	1.0567e+02	-2.3021	-7.394014	0.000334	3.344233	1.133057	-0.000134
1064	1.0577e+02	-2.3566	-7.599908	0.000517	5.168360	1.751088	-0.000207
1065	1.0587e+02	-2.3855	-7.745245	0.000365	3.648254	1.236062	-0.000146
1066	1.0597e+02	-2.4400	-7.870396	0.000314	3.141552	1.064387	-0.000126
1067	1.0607e+02	-2.4801	-8.031882	0.000405	4.053615	1.373402	-0.000162
1068	1.0617e+02	-2.5090	-8.185293	0.000385	3.850935	1.304732	-0.000154
1069	1.0627e+02	-2.5555	-8.338704	0.000385	3.850935	1.304732	-0.000154
1070	1.0637e+02	-2.5892	-8.508264	0.000426	4.256296	1.442072	-0.000170
1071	1.0647e+02	-2.6374	-8.645526	0.000345	3.445573	1.167392	-0.000138
1072	1.0656e+02	-2.6791	-8.815086	0.000426	4.256296	1.442072	-0.000170
1073	1.0666e+02	-2.7079	-8.928126	0.000284	2.837531	0.961381	-0.000114
1074	1.0676e+02	-2.7497	-9.085574	0.000395	3.952275	1.339067	-0.000158
1075	1.0686e+02	-2.7882	-9.255134	0.000426	4.256296	1.442072	-0.000170
1076	1.0696e+02	-2.8363	-9.380285	0.000314	3.141552	1.064387	-0.000126
1077	1.0706e+02	-2.8716	-9.501399	0.000304	3.040212	1.030052	-0.000122
1078	1.0716e+02	-2.9069	-9.679033	0.000446	4.458977	1.510742	-0.000179
1079	1.0726e+02	-2.9502	-9.783998	0.000263	2.634850	0.892711	-0.000105
1080	1.0736e+02	-2.9887	-9.945484	0.000405	4.053615	1.373402	-0.000162
1081	1.0746e+02	-3.0272	-10.115044	0.000426	4.256296	1.442072	-0.000170
1082	1.0756e+02	-3.0705	-10.296715	0.000456	4.560317	1.545077	-0.000183
1083	1.0766e+02	-3.1074	-10.401680	0.000263	2.634850	0.892711	-0.000105
1084	1.0776e+02	-3.1571	-10.587388	0.000466	4.661658	1.579412	-0.000187
1085	1.0786e+02	-3.1972	-10.688317	0.000253	2.533510	0.858376	-0.000101
1086	1.0796e+02	-3.2277	-10.841728	0.000385	3.850935	1.304732	-0.000154
1087	1.0806e+02	-3.2662	-10.987065	0.000365	3.648254	1.236062	-0.000146
1088	1.0816e+02	-3.3079	-11.120290	0.000334	3.344233	1.133057	-0.000134
1089	1.0826e+02	-3.3432	-11.265627	0.000365	3.648254	1.236062	-0.000146
1090	1.0836e+02	-3.3881	-11.382704	0.000294	2.938871	0.995717	-0.000118
1091	1.0845e+02	-3.4266	-11.572450	0.000476	4.762998	1.613747	-0.000191
1092	1.0855e+02	-3.4700	-11.669341	0.000243	2.432169	0.824041	-0.000097
1093	1.0865e+02	-3.5149	-11.830826	0.000405	4.053615	1.373402	-0.000162
1094	1.0875e+02	-3.5389	-11.968089	0.000345	3.445573	1.167392	-0.000138
1095	1.0885e+02	-3.5903	-12.105352	0.000345	3.445573	1.167392	-0.000138
1096	1.0895e+02	-3.6336	-12.222428	0.000294	2.938871	0.995717	-0.000118
1097	1.0905e+02	-3.6673	-12.400062	0.000446	4.458977	1.510742	-0.000179
1098	1.0915e+02	-3.6994	-12.525214	0.000314	3.141552	1.064387	-0.000126
1099	1.0925e+02	-3.7571	-12.630179	0.000263	2.634850	0.892711	-0.000105
1100	1.0935e+02	-3.7860	-12.783590	0.000385	3.850935	1.304732	-0.000154
1101	1.0945e+02	-3.8293	-12.937001	0.000385	3.850935	1.304732	-0.000154
1102	1.0955e+02	-3.8694	-13.074264	0.000345	3.445573	1.167392	-0.000138
1103	1.0965e+02	-3.9143	-13.239787	0.000415	4.154956	1.407737	-0.000166
1104	1.0975e+02	-3.9400	-13.332641	0.000233	2.330829	0.789706	-0.000093
1105	1.0985e+02	-3.9817	-13.498163	0.000415	4.154956	1.407737	-0.000166
1106	1.0995e+02	-4.0266	-13.599092	0.000253	2.533510	0.858376	-0.000101
1107	1.1005e+02	-4.0555	-13.744429	0.000365	3.648254	1.236062	-0.000146
1108	1.1015e+02	-4.1020	-13.909951	0.000415	4.154956	1.407737	-0.000166
1109	1.1025e+02	-4.1469	-14.014917	0.000263	2.634850	0.892711	-0.000105
1110	1.1035e+02	-4.1870	-14.144105	0.000324	3.242892	1.098722	-0.000130
1111	1.1044e+02	-4.2272	-14.313665	0.000426	4.256296	1.442072	-0.000170
1112	1.1054e+02	-4.2641	-14.438816	0.000314	3.141552	1.064387	-0.000126
1113	1.1064e+02	-4.3026	-14.568004	0.000324	3.242892	1.098722	-0.000130
1114	1.1074e+02	-4.3427	-14.693156	0.000314	3.141552	1.064387	-0.000126
1115	1.1084e+02	-4.3844	-14.870789	0.000446	4.458977	1.510742	-0.000179
1116	1.1094e+02	-4.4245	-14.975755	0.000263	2.634850	0.892711	-0.000105
1117	1.1104e+02	-4.4710	-15.084758	0.000274	2.736190	0.927046	-0.000110
1118	1.1114e+02	-4.4999	-15.234132	0.000375	3.749594	1.270397	-0.000150
1119	1.1124e+02	-4.5416	-15.379469	0.000365	3.648254	1.236062	-0.000146
1120	1.1134e+02	-4.5833	-15.500583	0.000304	3.040212	1.030052	-0.000122
1121	1.1144e+02	-4.6250	-15.653994	0.000385	3.850935	1.304732	-0.000154
1122	1.1154e+02	-4.6651	-15.758959	0.000263	2.634850	0.892711	-0.000105
1123	1.1164e+02	-4.6956	-15.871999	0.000284	2.837531	0.961381	-0.000114
1124	1.1174e+02	-4.7437	-16.005225	0.000334	3.344233	1.133057	-0.000134
1125	1.1184e+02	-4.7870	-16.110190	0.000263	2.634850	0.892711	-0.000105
1126	1.1194e+02	-4.8239	-16.267638	0.000395	3.952275	1.339067	-0.000158
1127	1.1204e+02	-4.8656	-16.376641	0.000274	2.736190	0.927046	-0.000110
1128	1.1214e+02	-4.8993	-16.534089	0.000395	3.952275	1.339067	-0.000158
1129	1.1224e+02	-4.9394	-16.635018	0.000253	2.533510	0.858376	-0.000101
1130	1.1234e+02	-4.9795	-16.772280	0.000345	3.445573	1.167392	-0.000138
1131	1.1244e+02	-5.0212	-16.917617	0.000365	3.648254	1.236062	-0.000146
1132	1.1253e+02	-5.0533	-17.022583	0.000263	2.634850	0.892711	-0.000105
1133	1.1263e+02	-5.1047	-17.107363	0.000213	2.128148	0.721036	-0.000085
1134	1.1273e+02	-5.1432	-17.293071	0.000466	4.661658	1.579412	-0.000187
1135	1.1283e+02	-5.1785	-17.345554	0.000132	1.317425	0.446356	-0.000053
1136	1.1293e+02	-5.2170	-17.527225	0.000456	4.560317	1.545077	-0.000183
1137	1.1303e+02	-5.2635	-17.664487	0.000345	3.445573	1.167392	-0.000138
1138	1.1313e+02	-5.2956	-17.741193	0.000193	1.925467	0.652366	-0.000077
1139	1.1323e+02	-5.3357	-17.866344	0.000314	3.141552	1.064387	-0.000126
1140	1.1333e+02	-5.3774	-18.003607	0.000345	3.445573	1.167392	-0.000138
1141	1.1343e+02	-5.4223	-18.128758	0.000314	3.141552	1.064387	-0.000126
1142	1.1353e+02	-5.4656	-18.257946	0.000324	3.242892	1.098722	-0.000130
1143	1.1363e+02	-5.4961	-18.387135	0.000324	3.242892	1.098722	-0.000130
1144	1.1373e+02	-5.5378	-18.459803	0.000182	1.824127	0.618031	-0.000073
1145	1.1383e+02	-5.5747	-18.609177	0.000375	3.749594	1.270397	-0.000150
1146	1.1393e+02	-5.6180	-18.742403	0.000334	3.344233	1.133057	-0.000134
1147	1.1403e+02	-5.6565	-18.855442	0.000284	2.837531	0.961381	-0.000114
1148	1.1413e+02	-5.6998	-18.952334	0.000243	2.432169	0.824041	-0.000097
1149	1.1423e+02	-5.7448	-19.105745	0.000385	3.850935	1.304732	-0.000154
1150	1.1433e+02	-5.7784	-19.182450	0.000193	1.925467	0.652366	-0.000077
1151	1.1442e+02	-5.8186	-19.331824	0.000375	3.749594	1.270397	-0.000150
1152	1.1452e+02	-5.8619	-19.428716	0.000243	2.432169	0.824041	-0.000097
1153	1.1462e+02	-5.8940	-19.606350	0.000446	4.458977	1.510742	-0.000179
1154	1.1472e+02	-5.9357	-19.699204	0.000233	2.330829	0.789706	-0.000093
1155	1.1482e+02	-5.9774	-19.808206	0.000274	2.736190	0.927046	-0.000110
1156	1.1492e+02	-6.0095	-19.941432	0.000334	3.344233	1.133057	-0.000134
1157	1.1502e+02	-6.0608	-20.030249	0.000223	2.229489	0.755371	-0.000089
1158	1.1512e+02	-6.0993	-20.179623	0.000375	3.749594	1.270397	-0.000150
1159	1.1522e+02	-6.1314	-20.288626	0.000274	2.736190	0.927046	-0.000110
1160	1.1532e+02	-6.1795	-20.454148	0.000415	4.154956	1.407737	-0.000166
1161	1.1542e+02	-6.2132	-20.530854	0.000193	1.925467	0.652366	-0.000077
1162	1.1552e+02	-6.2645	-20.651968	0.000304	3.040212	1.030052	-0.000122
1163	1.1562e+02	-6.2934	-20.760971	0.000274	2.736190	0.927046	-0.000110
1164	1.1572e+02	-6.3335	-20.898233	0.000345	3.445573	1.167392	-0.000138
1165	1.1582e+02	-6.3768	-21.019347	0.000304	3.040212	1.030052	-0.000122
1166	1.1592e+02	-6.4121	-21.120276	0.000253	2.533510	0.858376	-0.000101
1167	1.1602e+02	-6.4586	-21.233315	0.000284	2.837531	0.961381	-0.000114
1168	1.1612e+02	-6.5004	-21.334244	0.000253	2.533510	0.858376	-0.000101
1169	1.1622e+02	-6.5244	-21.447284	0.000284	2.837531	0.961381	-0.000114
1170	1.1632e+02	-6.5677	-21.580509	0.000334	3.344233	1.133057	-0.000134
1171	1.1642e+02	-6.6062	-21.717772	0.000345	3.445573	1.167392	-0.000138
1172	1.1651e+02	-6.6528	-21.798514	0.000203	2.026808	0.686701	-0.000081
1173	1.1661e+02	-6.6929	-21.919628	0.000304	3.040212	1.030052	-0.000122
1174	1.1671e+02	-6.7298	-22.032668	0.000284	2.837531	0.961381	-0.000114
1175	1.1681e+02	-6.7747	-22.133597	0.000253	2.533510	0.858376	-0.000101
1176	1.1691e+02	-6.8068	-22.258748	0.000314	3.141552	1.064387	-0.000126
1177	1.1701e+02	-6.8533	-22.379862	0.000304	3.040212	1.030052	-0.000122
1178	1.1711e+02	-6.8886	-22.509050	0.000324	3.242892	1.098722	-0.000130
1179	1.1721e+02	-6.9335	-22.622090	0.000284	2.837531	0.961381	-0.000114
1180	1.1731e+02	-6.9720	-22.727056	0.000263	2.634850	0.892711	-0.000105
1181	1.1741e+02	-7.0089	-22.815873	0.000223	2.229489	0.755371	-0.000089
1182	1.1751e+02	-7.0570	-22.932950	0.000294	2.938871	0.995717	-0.000118
1183	1.1761e+02	-7.1019	-23.086361	0.000385	3.850935	1.304732	-0.000154
1184	1.1771e+02	-7.1372	-23.167103	0.000203	2.026808	0.686701	-0.000081
1185	1.1781e+02	-7.1725	-23.304366	0.000345	3.445573	1.167392	-0.000138
1186	1.1791e+02	-7.2078	-23.441629	0.000345	3.445573	1.167392	-0.000138
1187	1.1801e+02	-7.2479	-23.510260	0.000172	1.722787	0.583696	-0.000069
1188	1.1811e+02	-7.2832	-23.655597	0.000365	3.648254	1.236062	-0.000146
1189	1.1821e+02	-7.3362	-23.744414	0.000223	2.229489	0.755371	-0.000089
1190	1.1831e+02	-7.3650	-23.873602	0.000324	3.242892	1.098722	-0.000130
1191	1.1841e+02	-7.4100	-23.970493	0.000243	2.432169	0.824041	-0.000097
1192	1.1850e+02	-7.4581	-24.071422	0.000253	2.533510	0.858376	-0.000101
1193	1.1860e+02	-7.4854	-24.188499	0.000294	2.938871	0.995717	-0.000118
1194	1.1870e+02	-7.5287	-24.305576	0.000294	2.938871	0.995717	-0.000118
1195	1.1880e+02	-7.5752	-24.426690	0.000304	3.040212	1.030052	-0.000122
1196	1.1890e+02	-7.6009	-24.555878	0.000324	3.242892	1.098722	-0.000130
1197	1.1900e+02	-7.6458	-24.648732	0.000233	2.330829	0.789706	-0.000093
1198	1.1910e+02	-7.6907	-24.733512	0.000213	2.128148	0.721036	-0.000085
1199	1.1920e+02	-7.7324	-24.842515	0.000274	2.736190	0.927046	-0.000110
1200	1.1930e+02	-7.7629	-24.959592	0.000294	2.938871	0.995717	-0.000118
1201	1.1940e+02	-7.8238	-25.024186	0.000162	1.621446	0.549361	-0.000065
1202	1.1950e+02	-7.8463	-25.197783	0.000436	4.357637	1.476407	-0.000174
1203	1.1960e+02	-7.8816	-25.318897	0.000304	3.040212	1.030052	-0.000122
1204	1.1970e+02	-7.9249	-25.431937	0.000284	2.837531	0.961381	-0.000114
1205	1.1980e+02	-7.9682	-25.488456	0.000142	1.418765	0.480691	-0.000057
1206	1.1990e+02	-8.0019	-25.621682	0.000334	3.344233	1.133057	-0.000134
1207	1.2000e+02	-8.0516	-25.746833	0.000314	3.141552	1.064387	-0.000126
1208	1.2010e+02	-8.0885	-25.835650	0.000223	2.229489	0.755371	-0.000089
1209	1.2020e+02	-8.1206	-25.928504	0.000233	2.330829	0.789706	-0.000093
1210	1.2030e+02	-8.1655	-26.061730	0.000334	3.344233	1.133057	-0.000134
1211	1.2039e+02	-8.2105	-26.178807	0.000294	2.938871	0.995717	-0.000118
1212	1.2049e+02	-8.2393	-26.332218	0.000385	3.850935	1.304732	-0.000154
1213	1.2059e+02	-8.2810	-26.429109	0.000243	2.432169	0.824041	-0.000097
1214	1.2069e+02	-8.3228	-26.509852	0.000203	2.026808	0.686701	-0.000081
1215	1.2079e+02	-8.3709	-26.630966	0.000304	3.040212	1.030052	-0.000122
1216	1.2089e+02	-8.4046	-26.748043	0.000294	2.938871	0.995717	-0.000118
1217	1.2099e+02	-8.4415	-26.836860	0.000223	2.229489	0.755371	-0.000089
1218	1.2109e+02	-8.4944	-26.937788	0.000253	2.533510	0.858376	-0.000101
1219	1.2119e+02	-8.5313	-27.042754	0.000263	2.634850	0.892711	-0.000105
1220	1.2129e+02	-8.5682	-27.175979	0.000334	3.344233	1.133057	-0.000134
1221	1.2139e+02	-8.5987	-27.268833	0.000233	2.330829	0.789706	-0.000093
1222	1.2149e+02	-8.6420	-27.418207	0.000375	3.749594	1.270397	-0.000150
1223	1.2159e+02	-8.6805	-27.486839	0.000172	1.722787	0.583696	-0.000069
1224	1.2169e+02	-8.7206	-27.628138	0.000355	3.546914	1.201727	-0.000142
1225	1.2179e+02	-8.7591	-27.733104	0.000263	2.634850	0.892711	-0.000105
1226	1.2189e+02	-8.8137	-27.858255	0.000314	3.141552	1.064387	-0.000126
1227	1.2199e+02	-8.8393	-27.943035	0.000213	2.128148	0.721036	-0.000085
1228	1.2209e+02	-8.8794	-28.092409	0.000375	3.749594	1.270397	-0.000150
1229	1.2219e+02	-8.9195	-28.169115	0.000193	1.925467	0.652366	-0.000077
1230	1.2229e+02	-8.9725	-28.249857	0.000203	2.026808	0.686701	-0.000081
1231	1.2239e+02	-9.0046	-28.411343	0.000405	4.053615	1.373402	-0.000162
1232	1.2248e+02	-9.0399	-28.496123	0.000213	2.128148	0.721036	-0.000085
1233	1.2258e+02	-9.0864	-28.580902	0.000213	2.128148	0.721036	-0.000085
1234	1.2268e+02	-9.1169	-28.718165	0.000345	3.445573	1.167392	-0.000138
1235	1.2278e+02	-9.1666	-28.827168	0.000274	2.736190	0.927046	-0.000110
1236	1.2288e+02	-9.2035	-28.891762	0.000162	1.621446	0.549361	-0.000065
1237	1.2298e+02	-9.2420	-29.004802	0.000284	2.837531	0.961381	-0.000114
1238	1.2308e+02	-9.2885	-29.101693	0.000243	2.432169	0.824041	-0.000097
1239	1.2318e+02	-9.3222	-29.238956	0.000345	3.445573	1.167392	-0.000138
1240	1.2328e+02	-9.3623	-29.295475	0.000142	1.418765	0.480691	-0.000057
1241	1.2338e+02	-9.4056	-29.424664	0.000324	3.242892	1.098722	-0.000130
1242	1.2348e+02	-9.4409	-29.557889	0.000334	3.344233	1.133057	-0.000134
1243	1.2358e+02	-9.4778	-29.658818	0.000253	2.533510	0.858376	-0.000101
1244	1.2368e+02	-9.5163	-29.779932	0.000304	3.040212	1.030052	-0.000122
1245	1.2378e+02	-9.5580	-29.860674	0.000203	2.026808	0.686701	-0.000081
1246	1.2388e+02	-9.5997	-29.981789	0.000304	3.040212	1.030052	-0.000122
1247	1.2398e+02	-9.6495	-30.078680	0.000243	2.432169	0.824041	-0.000097
1248	1.2408e+02	-9.6799	-30.187682	0.000274	2.736190	0.927046	-0.000110
1249	1.2418e+02	-9.7152	-30.268425	0.000203	2.026808	0.686701	-0.000081
1250	1.2428e+02	-9.7585	-30.389539	0.000304	3.040212	1.030052	-0.000122
1251	1.2438e+02	-9.8019	-30.494505	0.000263	2.634850	0.892711	-0.000105
1252	1.2447e+02	-9.8420	-30.599470	0.000263	2.634850	0.892711	-0.000105
1253	1.2457e+02	-9.8805	-30.724622	0.000314	3.141552	1.064387	-0.000126
1254	1.2467e+02	-9.9286	-30.777104	0.000132	1.317425	0.446356	-0.000053
1255	1.2477e+02	-9.9607	-30.938590	0.000405	4.053615	1.373402	-0.000162
1256	1.2487e+02	-9.9944	-31.015295	0.000193	1.925467	0.652366	-0.000077
1257	1.2497e+02	-10.0345	-31.116224	0.000253	2.533510	0.858376	-0.000101
1258	1.2507e+02	-10.0826	-31.253486	0.000345	3.445573	1.167392	-0.000138
1259	1.2517e+02	-10.1179	-31.305969	0.000132	1.317425	0.446356	-0.000053
1260	1.2527e+02	-10.1532	-31.423046	0.000294	2.938871	0.995717	-0.000118
1261	1.2537e+02	-10.2013	-31.507826	0.000213	2.128148	0.721036	-0.000085
1262	1.2547e+02	-10.2414	-31.637014	0.000324	3.242892	1.098722	-0.000130
1263	1.2557e+02	-10.2687	-31.725831	0.000223	2.229489	0.755371	-0.000089
1264	1.2567e+02	-10.3232	-31.842908	0.000294	2.938871	0.995717	-0.000118
1265	1.2577e+02	-10.3569	-31.891354	0.000122	1.216085	0.412021	-0.000049
1266	1.2587e+02	-10.4018	-32.040728	0.000375	3.749594	1.270397	-0.000150
1267	1.2597e+02	-10.4436	-32.129545	0.000223	2.229489	0.755371	-0.000089
1268	1.2607e+02	-10.4869	-32.270845	0.000355	3.546914	1.201727	-0.000142
1269	1.2617e+02	-10.5141	-32.335439	0.000162	1.621446	0.549361	-0.000065
1270	1.2627e+02	-10.5671	-32.448478	0.000284	2.837531	0.961381	-0.000114
1271	1.2636e+02	-10.5960	-32.557481	0.000274	2.736190	0.927046	-0.000110
1272	1.2646e+02	-10.6537	-32.686670	0.000324	3.242892	1.098722	-0.000130
1273	1.2656e+02	-10.6746	-32.735115	0.000122	1.216085	0.412021	-0.000049
1274	1.2666e+02	-10.7179	-32.876415	0.000355	3.546914	1.201727	-0.000142
1275	1.2676e+02	-10.7500	-32.985418	0.000274	2.736190	0.927046	-0.000110
1276	1.2686e+02	-10.7997	-33.110569	0.000314	3.141552	1.064387	-0.000126
1277	1.2696e+02	-10.8286	-33.150940	0.000101	1.013404	0.343351	-0.000041
1278	1.2706e+02	-10.8751	-33.276091	0.000314	3.141552	1.064387	-0.000126
1279	1.2716e+02	-10.9184	-33.348760	0.000182	1.824127	0.618031	-0.000073
1280	1.2726e+02	-10.9521	-33.437577	0.000223	2.229489	0.755371	-0.000089
1281	1.2736e+02	-11.0002	-33.595025	0.000395	3.952275	1.339067	-0.000158
1282	1.2746e+02	-11.0371	-33.720176	0.000314	3.141552	1.064387	-0.000126
1283	1.2756e+02	-11.0740	-33.792845	0.000182	1.824127	0.618031	-0.000073
1284	1.2766e+02	-11.1205	-33.893773	0.000253	2.533510	0.858376	-0.000101
1285	1.2776e+02	-11.1510	-33.966442	0.000182	1.824127	0.618031	-0.000073
1286	1.2786e+02	-11.1975	-34.107741	0.000355	3.546914	1.201727	-0.000142
1287	1.2796e+02	-11.2312	-34.216744	0.000274	2.736190	0.927046	-0.000110
1288	1.2806e+02	-11.2762	-34.301524	0.000213	2.128148	0.721036	-0.000085
1289	1.2816e+02	-11.3130	-34.398415	0.000243	2.432169	0.824041	-0.000097
1290	1.2826e+02	-11.3548	-34.507418	0.000274	2.736190	0.927046	-0.000110
1291	1.2835e+02	-11.3949	-34.592198	0.000213	2.128148	0.721036	-0.000085
1292	1.2845e+02	-11.4286	-34.660829	0.000172	1.722787	0.583696	-0.000069
1293	1.2855e+02	-11.4735	-34.749646	0.000223	2.229489	0.755371	-0.000089
1294	1.2865e+02	-11.5184	-34.858649	0.000274	2.736190	0.927046	-0.000110
1295	1.2875e+02	-11.5537	-34.975725	0.000294	2.938871	0.995717	-0.000118
1296	1.2885e+02	-11.6034	-35.032245	0.000142	1.418765	0.480691	-0.000057
1297	1.2895e+02	-11.6339	-35.141248	0.000274	2.736190	0.927046	-0.000110
1298	1.2905e+02	-11.6708	-35.266399	0.000314	3.141552	1.064387	-0.000126
1299	1.2915e+02	-11.7109	-35.351179	0.000213	2.128148	0.721036	-0.000085
1300	1.2925e+02	-11.7590	-35.448070	0.000243	2.432169	0.824041	-0.000097
1301	1.2935e+02	-11.7959	-35.544962	0.000243	2.432169	0.824041	-0.000097
1302	1.2945e+02	-11.8312	-35.649927	0.000263	2.634850	0.892711	-0.000105
1303	1.2955e+02	-11.8745	-35.718558	0.000172	1.722787	0.583696	-0.000069
1304	1.2965e+02	-11.9130	-35.819487	0.000253	2.533510	0.858376	-0.000101
1305	1.2975e+02	-11.9531	-35.908304	0.000223	2.229489	0.755371	-0.000089
1306	1.2985e+02	-11.9900	-36.005195	0.000243	2.432169	0.824041	-0.000097
1307	1.2995e+02	-12.0350	-36.122272	0.000294	2.938871	0.995717	-0.000118
1308	1.3005e+02	-12.0638	-36.203015	0.000203	2.026808	0.686701	-0.000081
1309	1.3015e+02	-12.1216	-36.312017	0.000274	2.736190	0.927046	-0.000110
1310	1.3025e+02	-12.1569	-36.384686	0.000182	1.824127	0.618031	-0.000073
1311	1.3034e+02	-12.1922	-36.501763	0.000294	2.938871	0.995717	-0.000118
1312	1.3044e+02	-12.2339	-36.602691	0.000253	2.533510	0.858376	-0.000101
1313	1.3054e+02	-12.2708	-36.699582	0.000243	2.432169	0.824041	-0.000097
1314	1.3064e+02	-12.3093	-36.784362	0.000213	2.128148	0.721036	-0.000085
1315	1.3074e+02	-12.3526	-36.897402	0.000284	2.837531	0.961381	-0.000114
1316	1.3084e+02	-12.3927	-37.002368	0.000263	2.634850	0.892711	-0.000105
1317	1.3094e+02	-12.4328	-37.091185	0.000223	2.229489	0.755371	-0.000089
1318	1.3104e+02	-12.4729	-37.171927	0.000203	2.026808	0.686701	-0.000081
1319	1.3114e+02	-12.5034	-37.293041	0.000304	3.040212	1.030052	-0.000122
1320	1.3124e+02	-12.5483	-37.398007	0.000263	2.634850	0.892711	-0.000105
1321	1.3134e+02	-12.5884	-37.466638	0.000172	1.722787	0.583696	-0.000069
1322	1.3144e+02	-12.6349	-37.587752	0.000304	3.040212	1.030052	-0.000122
1323	1.3154e+02	-12.6686	-37.688681	0.000253	2.533510	0.858376	-0.000101
1324	1.3164e+02	-12.7135	-37.725015	0.000091	0.912063	0.309015	-0.000037
1325	1.3174e+02	-12.7488	-37.862278	0.000345	3.445573	1.167392	-0.000138
1326	1.3184e+02	-12.7922	-37.951095	0.000223	2.229489	0.755371	-0.000089
1327	1.3194e+02	-12.8226	-38.060097	0.000274	2.736190	0.927046	-0.000110
1328	1.3204e+02	-12.8740	-38.156988	0.000243	2.432169	0.824041	-0.000097
1329	1.3214e+02	-12.9012	-38.221583	0.000162	1.621446	0.549361	-0.000065
1330	1.3224e+02	-12.9494	-38.358845	0.000345	3.445573	1.167392	-0.000138
1331	1.3234e+02	-12.9831	-38.423439	0.000162	1.621446	0.549361	-0.000065
1332	1.3243e+02	-13.0264	-38.500145	0.000193	1.925467	0.652366	-0.000077
1333	1.3253e+02	-13.0697	-38.588962	0.000223	2.229489	0.755371	-0.000089
1334	1.3263e+02	-13.1066	-38.726225	0.000345	3.445573	1.167392	-0.000138
1335	1.3273e+02	-13.1531	-38.786782	0.000152	1.520106	0.515026	-0.000061
1336	1.3283e+02	-13.1772	-38.879636	0.000233	2.330829	0.789706	-0.000093
1337	1.3293e+02	-13.2317	-39.004787	0.000314	3.141552	1.064387	-0.000126
1338	1.3303e+02	-13.2606	-39.077455	0.000182	1.824127	0.618031	-0.000073
1339	1.3313e+02	-13.3135	-39.166272	0.000223	2.229489	0.755371	-0.000089
1340	1.3323e+02	-13.3456	-39.255089	0.000223	2.229489	0.755371	-0.000089
1341	1.3333e+02	-13.3857	-39.376203	0.000304	3.040212	1.030052	-0.000122
1342	1.3343e+02	-13.4226	-39.420612	0.000111	1.114744	0.377686	-0.000045
1343	1.3353e+02	-13.4707	-39.569986	0.000375	3.749594	1.270397	-0.000150
1344	1.3363e+02	-13.4996	-39.666877	0.000243	2.432169	0.824041	-0.000097
1345	1.3373e+02	-13.5429	-39.731471	0.000162	1.621446	0.549361	-0.000065
1346	1.3383e+02	-13.5782	-39.832400	0.000253	2.533510	0.858376	-0.000101
1347	1.3393e+02	-13.6264	-39.985811	0.000385	3.850935	1.304732	-0.000154
1348	1.3403e+02	-13.6649	-40.034257	0.000122	1.216085	0.412021	-0.000049
1349	1.3413e+02	-13.7050	-40.131148	0.000243	2.432169	0.824041	-0.000097
1350	1.3423e+02	-13.7467	-40.244188	0.000284	2.837531	0.961381	-0.000114
1351	1.3432e+02	-13.7836	-40.337042	0.000233	2.330829	0.789706	-0.000093
1352	1.3442e+02	-13.8221	-40.377413	0.000101	1.013404	0.343351	-0.000041
1353	1.3452e+02	-13.8574	-40.518713	0.000355	3.546914	1.201727	-0.000142
1354	1.3462e+02	-13.9039	-40.571196	0.000132	1.317425	0.446356	-0.000053
1355	1.3472e+02	-13.9456	-40.704421	0.000334	3.344233	1.133057	-0.000134
1356	1.3482e+02	-13.9825	-40.756904	0.000132	1.317425	0.446356	-0.000053
1357	1.3492e+02	-14.0210	-40.878018	0.000304	3.040212	1.030052	-0.000122
1358	1.3502e+02	-14.0659	-40.954723	0.000193	1.925467	0.652366	-0.000077
1359	1.3512e+02	-14.1028	-41.075838	0.000304	3.040212	1.030052	-0.000122
1360	1.3522e+02	-14.1461	-41.136395	0.000152	1.520106	0.515026	-0.000061
1361	1.3532e+02	-14.1750	-41.233286	0.000243	2.432169	0.824041	-0.000097
1362	1.3542e+02	-14.2199	-41.277694	0.000111	1.114744	0.377686	-0.000045
1363	1.3552e+02	-14.2664	-41.423031	0.000365	3.648254	1.236062	-0.000146
1364	1.3562e+02	-14.2985	-41.523960	0.000253	2.533510	0.858376	-0.000101
1365	1.3572e+02	-14.3386	-41.584517	0.000152	1.520106	0.515026	-0.000061
1366	1.3582e+02	-14.3884	-41.697556	0.000284	2.837531	0.961381	-0.000114
1367	1.3592e+02	-14.4269	-41.729854	0.000081	0.810723	0.274680	-0.000032
1368	1.3602e+02	-14.4606	-41.883265	0.000385	3.850935	1.304732	-0.000154
1369	1.3612e+02	-14.5023	-41.972082	0.000223	2.229489	0.755371	-0.000089
1370	1.3622e+02	-14.5440	-42.060899	0.000223	2.229489	0.755371	-0.000089
1371	1.3631e+02	-14.5841	-42.153753	0.000233	2.330829	0.789706	-0.000093
1372	1.3641e+02	-14.6210	-42.250644	0.000243	2.432169	0.824041	-0.000097
1373	1.3651e+02	-14.6659	-42.323313	0.000182	1.824127	0.618031	-0.000073
1374	1.3661e+02	-14.7108	-42.440389	0.000294	2.938871	0.995717	-0.000118
1375	1.3671e+02	-14.7445	-42.545355	0.000263	2.634850	0.892711	-0.000105
1376	1.3681e+02	-14.7718	-42.597838	0.000132	1.317425	0.446356	-0.000053
1377	1.3691e+02	-14.8119	-42.718952	0.000304	3.040212	1.030052	-0.000122
1378	1.3701e+02	-14.8536	-42.783546	0.000162	1.621446	0.549361	-0.000065
1379	1.3711e+02	-14.8953	-42.908697	0.000314	3.141552	1.064387	-0.000126
1380	1.3721e+02	-14.9338	-43.017700	0.000274	2.736190	0.927046	-0.000110
1381	1.3731e+02	-14.9787	-43.094405	0.000193	1.925467	0.652366	-0.000077
1382	1.3741e+02	-15.0220	-43.195334	0.000253	2.533510	0.858376	-0.000101
1383	1.3751e+02	-15.0621	-43.292225	0.000243	2.432169	0.824041	-0.000097
1384	1.3761e+02	-15.1039	-43.372968	0.000203	2.026808	0.686701	-0.000081
1385	1.3771e+02	-15.1456	-43.457748	0.000213	2.128148	0.721036	-0.000085
1386	1.3781e+02	-15.1793	-43.558676	0.000253	2.533510	0.858376	-0.000101
1387	1.3791e+02	-15.2210	-43.647493	0.000223	2.229489	0.755371	-0.000089
1388	1.3801e+02	-15.2498	-43.744384	0.000243	2.432169	0.824041	-0.000097
1389	1.3811e+02	-15.3012	-43.849350	0.000263	2.634850	0.892711	-0.000105
1390	1.3821e+02	-15.3445	-43.962390	0.000284	2.837531	0.961381	-0.000114
1391	1.3831e+02	-15.3686	-44.026984	0.000162	1.621446	0.549361	-0.000065
1392	1.3840e+02	-15.4215	-44.127912	0.000253	2.533510	0.858376	-0.000101
1393	1.3850e+02	-15.4584	-44.224803	0.000243	2.432169	0.824041	-0.000097
1394	1.3860e+02	-15.4969	-44.313620	0.000223	2.229489	0.755371	-0.000089
1395	1.3870e+02	-15.5434	-44.402437	0.000223	2.229489	0.755371	-0.000089
1396	1.3880e+02	-15.5819	-44.499329	0.000243	2.432169	0.824041	-0.000097
1397	1.3890e+02	-15.6188	-44.576034	0.000193	1.925467	0.652366	-0.000077
1398	1.3900e+02	-15.6589	-44.717334	0.000355	3.546914	1.201727	-0.000142
1399	1.3910e+02	-15.6974	-44.781928	0.000162	1.621446	0.549361	-0.000065
1400	1.3920e+02	-15.7391	-44.870745	0.000223	2.229489	0.755371	-0.000089
1401	1.3930e+02	-15.7760	-44.951488	0.000203	2.026808	0.686701	-0.000081
1402	1.3940e+02	-15.8225	-45.040305	0.000223	2.229489	0.755371	-0.000089
1403	1.3950e+02	-15.8578	-45.153345	0.000284	2.837531	0.961381	-0.000114
1404	1.3960e+02	-15.9028	-45.226013	0.000182	1.824127	0.618031	-0.000073
1405	1.3970e+02	-15.9332	-45.310793	0.000213	2.128148	0.721036	-0.000085
1406	1.3980e+02	-15.9878	-45.403647	0.000233	2.330829	0.789706	-0.000093
1407	1.3990e+02	-16.0135	-45.548984	0.000365	3.648254	1.236062	-0.000146
1408	1.4000e+02	-16.0487	-45.589355	0.000101	1.013404	0.343351	-0.000041
1409	1.4010e+02	-16.0937	-45.714507	0.000314	3.141552	1.064387	-0.000126
1410	1.4020e+02	-16.1386	-45.775064	0.000152	1.520106	0.515026	-0.000061
1411	1.4029e+02	-16.1755	-45.859843	0.000213	2.128148	0.721036	-0.000085
1412	1.4039e+02	-16.2188	-45.948660	0.000223	2.229489	0.755371	-0.000089
1413	1.4049e+02	-16.2621	-46.098034	0.000375	3.749594	1.270397	-0.000150
1414	1.4059e+02	-16.2910	-46.146480	0.000122	1.216085	0.412021	-0.000049
1415	1.4069e+02	-16.3311	-46.235297	0.000223	2.229489	0.755371	-0.000089
1416	1.4079e+02	-16.3728	-46.299891	0.000162	1.621446	0.549361	-0.000065
1417	1.4089e+02	-16.4081	-46.404857	0.000263	2.634850	0.892711	-0.000105
1418	1.4099e+02	-16.4498	-46.513859	0.000274	2.736190	0.927046	-0.000110
1419	1.4109e+02	-16.4979	-46.594602	0.000203	2.026808	0.686701	-0.000081
1420	1.4119e+02	-16.5236	-46.695531	0.000253	2.533510	0.858376	-0.000101
1421	1.4129e+02	-16.5797	-46.796459	0.000253	2.533510	0.858376	-0.000101
1422	1.4139e+02	-16.6086	-46.877202	0.000203	2.026808	0.686701	-0.000081
1423	1.4149e+02	-16.6487	-46.978130	0.000253	2.533510	0.858376	-0.000101
1424	1.4159e+02	-16.6920	-47.099244	0.000304	3.040212	1.030052	-0.000122
1425	1.4169e+02	-16.7370	-47.171913	0.000182	1.824127	0.618031	-0.000073
1426	1.4179e+02	-16.7787	-47.260730	0.000223	2.229489	0.755371	-0.000089
1427	1.4189e+02	-16.8075	-47.341472	0.000203	2.026808	0.686701	-0.000081
1428	1.4199e+02	-16.8509	-47.418178	0.000193	1.925467	0.652366	-0.000077
1429	1.4209e+02	-16.8829	-47.502958	0.000213	2.128148	0.721036	-0.000085
1430	1.4219e+02	-16.9375	-47.599849	0.000243	2.432169	0.824041	-0.000097
1431	1.4228e+02	-16.9712	-47.700777	0.000253	2.533510	0.858376	-0.000101
1432	1.4238e+02	-17.0097	-47.801706	0.000253	2.533510	0.858376	-0.000101
1433	1.4248e+02	-17.0626	-47.866300	0.000162	1.621446	0.549361	-0.000065
1434	1.4258e+02	-17.0995	-47.991451	0.000314	3.141552	1.064387	-0.000126
1435	1.4268e+02	-17.1332	-48.068157	0.000193	1.925467	0.652366	-0.000077
1436	1.4278e+02	-17.1781	-48.144862	0.000193	1.925467	0.652366	-0.000077
1437	1.4288e+02	-17.2118	-48.253865	0.000274	2.736190	0.927046	-0.000110
1438	1.4298e+02	-17.2519	-48.354793	0.000253	2.533510	0.858376	-0.000101
1439	1.4308e+02	-17.2920	-48.443610	0.000223	2.229489	0.755371	-0.000089
1440	1.4318e+02	-17.3385	-48.512242	0.000172	1.722787	0.583696	-0.000069
1441	1.4328e+02	-17.3754	-48.613170	0.000253	2.533510	0.858376	-0.000101
1442	1.4338e+02	-17.4172	-48.706024	0.000233	2.330829	0.789706	-0.000093
1443	1.4348e+02	-17.4557	-48.802915	0.000243	2.432169	0.824041	-0.000097
1444	1.4358e+02	-17.4877	-48.883658	0.000203	2.026808	0.686701	-0.000081
1445	1.4368e+02	-17.5311	-49.004772	0.000304	3.040212	1.030052	-0.000122
1446	1.4378e+02	-17.5696	-49.061292	0.000142	1.418765	0.480691	-0.000057
1447	1.4388e+02	-17.6081	-49.186443	0.000314	3.141552	1.064387	-0.000126
1448	1.4398e+02	-17.6434	-49.267186	0.000203	2.026808	0.686701	-0.000081
1449	1.4408e+02	-17.6883	-49.360040	0.000233	2.330829	0.789706	-0.000093
1450	1.4418e+02	-17.7332	-49.412523	0.000132	1.317425	0.446356	-0.000053
1451	1.4428e+02	-17.7717	-49.549785	0.000345	3.445573	1.167392	-0.000138
1452	1.4437e+02	-17.8086	-49.626491	0.000193	1.925467	0.652366	-0.000077
1453	1.4447e+02	-17.8535	-49.731457	0.000263	2.634850	0.892711	-0.000105
1454	1.4457e+02	-17.8872	-49.800088	0.000172	1.722787	0.583696	-0.000069
1455	1.4467e+02	-17.9305	-49.945425	0.000365	3.648254	1.236062	-0.000146
1456	1.4477e+02	-17.9690	-50.030205	0.000213	2.128148	0.721036	-0.000085
1457	1.4487e+02	-18.0107	-50.114984	0.000213	2.128148	0.721036	-0.000085
1458	1.4497e+02	-18.0556	-50.155356	0.000101	1.013404	0.343351	-0.000041
1459	1.4507e+02	-18.0909	-50.296656	0.000355	3.546914	1.201727	-0.000142
1460	1.4517e+02	-18.1262	-50.397584	0.000253	2.533510	0.858376	-0.000101
1461	1.4527e+02	-18.1631	-50.458141	0.000152	1.520106	0.515026	-0.000061
1462	1.4537e+02	-18.2113	-50.567144	0.000274	2.736190	0.927046	-0.000110
1463	1.4547e+02	-18.2449	-50.627701	0.000152	1.520106	0.515026	-0.000061
1464	1.4557e+02	-18.2883	-50.752852	0.000314	3.141552	1.064387	-0.000126
1465	1.4567e+02	-18.3348	-50.817446	0.000162	1.621446	0.549361	-0.000065
1466	1.4577e+02	-18.3781	-50.918374	0.000253	2.533510	0.858376	-0.000101
1467	1.4587e+02	-18.4006	-51.011229	0.000233	2.330829	0.789706	-0.000093
1468	1.4597e+02	-18.4503	-51.091971	0.000203	2.026808	0.686701	-0.000081
1469	1.4607e+02	-18.4840	-51.180788	0.000223	2.229489	0.755371	-0.000089
1470	1.4617e+02	-18.5305	-51.245382	0.000162	1.621446	0.549361	-0.000065
1471	1.4626e+02	-18.5658	-51.354385	0.000274	2.736190	0.927046	-0.000110
1472	1.4636e+02	-18.6091	-51.467425	0.000284	2.837531	0.961381	-0.000114
1473	1.4646e+02	-18.6524	-51.564316	0.000243	2.432169	0.824041	-0.000097
1474	1.4656e+02	-18.6797	-51.653133	0.000223	2.229489	0.755371	-0.000089
1475	1.4666e+02	-18.7182	-51.774247	0.000304	3.040212	1.030052	-0.000122
1476	1.4676e+02	-18.7727	-51.834804	0.000152	1.520106	0.515026	-0.000061
1477	1.4686e+02	-18.8064	-51.919584	0.000213	2.128148	0.721036	-0.000085
1478	1.4696e+02	-18.8497	-52.024550	0.000263	2.634850	0.892711	-0.000105
1479	1.4706e+02	-18.8914	-52.068958	0.000111	1.114744	0.377686	-0.000045
1480	1.4716e+02	-18.9299	-52.181998	0.000284	2.837531	0.961381	-0.000114
1481	1.4726e+02	-18.9572	-52.266778	0.000213	2.128148	0.721036	-0.000085
1482	1.4736e+02	-19.0005	-52.363669	0.000243	2.432169	0.824041	-0.000097
1483	1.4746e+02	-19.0438	-52.492857	0.000324	3.242892	1.098722	-0.000130
1484	1.4756e+02	-19.0823	-52.589749	0.000243	2.432169	0.824041	-0.000097
1485	1.4766e+02	-19.1257	-52.702788	0.000284	2.837531	0.961381	-0.000114
1486	1.4776e+02	-19.1626	-52.763346	0.000152	1.520106	0.515026	-0.000061
1487	1.4786e+02	-19.2043	-52.840051	0.000193	1.925467	0.652366	-0.000077
1488	1.4796e+02	-19.2524	-52.965202	0.000314	3.141552	1.064387	-0.000126
1489	1.4806e+02	-19.2829	-53.058056	0.000233	2.330829	0.789706	-0.000093
1490	1.4816e+02	-19.3310	-53.163022	0.000263	2.634850	0.892711	-0.000105
1491	1.4825e+02	-19.3599	-53.247802	0.000213	2.128148	0.721036	-0.000085
1492	1.4835e+02	-19.3936	-53.308359	0.000152	1.520106	0.515026	-0.000061
1493	1.4845e+02	-19.4481	-53.417362	0.000274	2.736190	0.927046	-0.000110
1494	1.4855e+02	-19.4770	-53.542513	0.000314	3.141552	1.064387	-0.000126
1495	1.4865e+02	-19.5155	-53.586921	0.000111	1.114744	0.377686	-0.000045
1496	1.4875e+02	-19.5668	-53.687850	0.000253	2.533510	0.858376	-0.000101
1497	1.4885e+02	-19.5989	-53.768592	0.000203	2.026808	0.686701	-0.000081
1498	1.4895e+02	-19.6358	-53.893744	0.000314	3.141552	1.064387	-0.000126
1499	1.4905e+02	-19.6743	-54.018895	0.000314	3.141552	1.064387	-0.000126
1500	1.4915e+02	-19.7112	-54.107712	0.000223	2.229489	0.755371	-0.000089
1501	1.4925e+02	-19.7625	-54.204603	0.000243	2.432169	0.824041	-0.000097
1502	1.4935e+02	-19.8026	-54.281309	0.000193	1.925467	0.652366	-0.000077
1503	1.4945e+02	-19.8363	-54.386274	0.000263	2.634850	0.892711	-0.000105
1504	1.4955e+02	-19.8861	-54.499314	0.000284	2.837531	0.961381	-0.000114
1505	1.4965e+02	-19.9182	-54.576019	0.000193	1.925467	0.652366	-0.000077
1506	1.4975e+02	-19.9599	-54.672911	0.000243	2.432169	0.824041	-0.000097
1507	1.4985e+02	-20.0032	-54.741542	0.000172	1.722787	0.583696	-0.000069
1508	1.4995e+02	-19.9615	-54.769802	-0.000071	-0.709383	-0.240345	-0.000028
1509	1.5005e+02	-19.9198	-54.709245	0.000152	1.520106	0.515026	0.000061
1510	1.5015e+02	-19.8829	-54.616391	0.000233	2.330829	0.789706	0.000093
1511	1.5025e+02	-19.8363	-54.624465	-0.000020	-0.202681	-0.068670	-0.000008
1512	1.5034e+02	-19.7978	-54.555834	0.000172	1.722787	0.583696	0.000069
1513	1.5044e+02	-19.7593	-54.519500	0.000091	0.912063	0.309015	0.000037
1514	1.5054e+02	-19.7240	-54.458943	0.000152	1.520106	0.515026	0.000061
1515	1.5064e+02	-19.6807	-54.370126	0.000223	2.229489	0.755371	0.000089
1516	1.5074e+02	-19.6406	-54.353977	0.000041	0.405362	0.137340	0.000016
1517	1.5084e+02	-19.5989	-54.305531	0.000122	1.216085	0.412021	0.000049
1518	1.5094e+02	-19.5588	-54.277271	0.000071	0.709383	0.240345	0.000028
1519	1.5104e+02	-19.5203	-54.192492	0.000213	2.128148	0.721036	0.000085
1520	1.5114e+02	-19.4770	-54.135972	0.000142	1.418765	0.480691	0.000057
1521	1.5124e+02	-19.4401	-54.140009	-0.000010	-0.101340	-0.034335	-0.000004
1522	1.5134e+02	-19.4080	-54.075415	0.000162	1.621446	0.549361	0.000065
1523	1.5144e+02	-19.3599	-53.974486	0.000253	2.533510	0.858376	0.000101
1524	1.5154e+02	-19.3230	-53.934115	0.000101	1.013404	0.343351	0.000041
1525	1.5164e+02	-19.2893	-53.849335	0.000213	2.128148	0.721036	0.000085
1526	1.5174e+02	-19.2524	-53.808964	0.000101	1.013404	0.343351	0.000041
1527	1.5184e+02	-19.2027	-53.756481	0.000132	1.317425	0.446356	0.000053
1528	1.5194e+02	-19.1497	-53.687850	0.000172	1.722787	0.583696	0.000069
1529	1.5204e+02	-19.1192	-53.615181	0.000182	1.824127	0.618031	0.000073
1530	1.5214e+02	-19.0775	-53.534438	0.000203	2.026808	0.686701	0.000081
1531	1.5224e+02	-19.0422	-53.510216	0.000061	0.608042	0.206010	0.000024
1532	1.5233e+02	-19.0086	-53.437547	0.000182	1.824127	0.618031	0.000073
1533	1.5243e+02	-18.9684	-53.352767	0.000213	2.128148	0.721036	0.000085
1534	1.5253e+02	-18.9235	-53.312396	0.000101	1.013404	0.343351	0.000041
1535	1.5263e+02	-18.8818	-53.219542	0.000233	2.330829	0.789706	0.000093
1536	1.5273e+02	-18.8353	-53.191282	0.000071	0.709383	0.240345	0.000028
1537	1.5283e+02	-18.8032	-53.122651	0.000172	1.722787	0.583696	0.000069
1538	1.5293e+02	-18.7743	-53.078242	0.000111	1.114744	0.377686	0.000045
1539	1.5303e+02	-18.7198	-52.981351	0.000243	2.432169	0.824041	0.000097
1540	1.5313e+02	-18.6941	-52.936942	0.000111	1.114744	0.377686	0.000045
1541	1.5323e+02	-18.6476	-52.868311	0.000172	1.722787	0.583696	0.000069
1542	1.5333e+02	-18.6027	-52.799680	0.000172	1.722787	0.583696	0.000069
1543	1.5343e+02	-18.5594	-52.743160	0.000142	1.418765	0.480691	0.000057
1544	1.5353e+02	-18.5241	-52.702788	0.000101	1.013404	0.343351	0.000041
1545	1.5363e+02	-18.4936	-52.618009	0.000213	2.128148	0.721036	0.000085
1546	1.5373e+02	-18.4503	-52.569563	0.000122	1.216085	0.412021	0.000049
1547	1.5383e+02	-18.4054	-52.464597	0.000263	2.634850	0.892711	0.000105
1548	1.5393e+02	-18.3669	-52.420189	0.000111	1.114744	0.377686	0.000045
1549	1.5403e+02	-18.3300	-52.355595	0.000162	1.621446	0.549361	0.000065
1550	1.5413e+02	-18.2979	-52.278889	0.000193	1.925467	0.652366	0.000077
1551	1.5422e+02	-18.2481	-52.222369	0.000142	1.418765	0.480691	0.000057
1552	1.5432e+02	-18.1968	-52.149701	0.000182	1.824127	0.618031	0.000073
1553	1.5442e+02	-18.1583	-52.125478	0.000061	0.608042	0.206010	0.000024
1554	1.5452e+02	-18.1310	-52.024550	0.000253	2.533510	0.858376	0.000101
1555	1.5462e+02	-18.0877	-51.980141	0.000111	1.114744	0.377686	0.000045
1556	1.5472e+02	-18.0412	-51.891324	0.000223	2.229489	0.755371	0.000089
1557	1.5482e+02	-18.0075	-51.850953	0.000101	1.013404	0.343351	0.000041
1558	1.5492e+02	-17.9658	-51.810581	0.000101	1.013404	0.343351	0.000041
1559	1.5502e+02	-17.9225	-51.717727	0.000233	2.330829	0.789706	0.000093
1560	1.5512e+02	-17.8856	-51.645059	0.000182	1.824127	0.618031	0.000073
1561	1.5522e+02	-17.8487	-51.576428	0.000172	1.722787	0.583696	0.000069
1562	1.5532e+02	-17.8118	-51.503759	0.000182	1.824127	0.618031	0.000073
1563	1.5542e+02	-17.7749	-51.455314	0.000122	1.216085	0.412021	0.000049
1564	1.5552e+02	-17.7300	-51.386682	0.000172	1.722787	0.583696	0.000069
1565	1.5562e+02	-17.6931	-51.338237	0.000122	1.216085	0.412021	0.000049
1566	1.5572e+02	-17.6434	-51.257494	0.000203	2.026808	0.686701	0.000081
1567	1.5582e+02	-17.6177	-51.188863	0.000172	1.722787	0.583696	0.000069
1568	1.5592e+02	-17.5712	-51.096008	0.000233	2.330829	0.789706	0.000093
1569	1.5602e+02	-17.5278	-51.051600	0.000111	1.114744	0.377686	0.000045
1570	1.5612e+02	-17.4861	-50.930486	0.000304	3.040212	1.030052	0.000122
1571	1.5622e+02	-17.4476	-50.902226	0.000071	0.709383	0.240345	0.000028
1572	1.5631e+02	-17.4075	-50.837632	0.000162	1.621446	0.549361	0.000065
1573	1.5641e+02	-17.3722	-50.744778	0.000233	2.330829	0.789706	0.000093
1574	1.5651e+02	-17.3289	-50.672109	0.000182	1.824127	0.618031	0.000073
1575	1.5661e+02	-17.2968	-50.631738	0.000101	1.013404	0.343351	0.000041
1576	1.5671e+02	-17.2423	-50.571181	0.000152	1.520106	0.515026	0.000061
1577	1.5681e+02	-17.2134	-50.478327	0.000233	2.330829	0.789706	0.000093
1578	1.5691e+02	-17.1749	-50.401621	0.000193	1.925467	0.652366	0.000077
1579	1.5701e+02	-17.1300	-50.324916	0.000193	1.925467	0.652366	0.000077
1580	1.5711e+02	-17.0867	-50.272433	0.000132	1.317425	0.446356	0.000053
1581	1.5721e+02	-17.0562	-50.175542	0.000243	2.432169	0.824041	0.000097
1582	1.5731e+02	-17.0257	-50.110947	0.000162	1.621446	0.549361	0.000065
1583	1.5741e+02	-16.9760	-50.046353	0.000162	1.621446	0.549361	0.000065
1584	1.5751e+02	-16.9279	-49.993870	0.000132	1.317425	0.446356	0.000053
1585	1.5761e+02	-16.8894	-49.901016	0.000233	2.330829	0.789706	0.000093
1586	1.5771e+02	-16.8493	-49.832385	0.000172	1.722787	0.583696	0.000069
1587	1.5781e+02	-16.8075	-49.767791	0.000162	1.621446	0.549361	0.000065
1588	1.5791e+02	-16.7642	-49.678974	0.000223	2.229489	0.755371	0.000089
1589	1.5801e+02	-16.7321	-49.642640	0.000091	0.912063	0.309015	0.000037
1590	1.5811e+02	-16.6904	-49.565934	0.000193	1.925467	0.652366	0.000077
1591	1.5821e+02	-16.6455	-49.452894	0.000284	2.837531	0.961381	0.000114
1592	1.5830e+02	-16.6134	-49.408486	0.000111	1.114744	0.377686	0.000045
1593	1.5840e+02	-16.5797	-49.315632	0.000233	2.330829	0.789706	0.000093
1594	1.5850e+02	-16.5284	-49.234889	0.000203	2.026808	0.686701	0.000081
1595	1.5860e+02	-16.4883	-49.190480	0.000111	1.114744	0.377686	0.000045
1596	1.5870e+02	-16.4578	-49.093589	0.000243	2.432169	0.824041	0.000097
1597	1.5880e+02	-16.4177	-49.020921	0.000182	1.824127	0.618031	0.000073
1598	1.5890e+02	-16.3760	-48.956327	0.000162	1.621446	0.549361	0.000065
1599	1.5900e+02	-16.3327	-48.879621	0.000193	1.925467	0.652366	0.000077
1600	1.5910e+02	-16.2894	-48.790804	0.000223	2.229489	0.755371	0.000089
1601	1.5920e+02	-16.2573	-48.746395	0.000111	1.114744	0.377686	0.000045
1602	1.5930e+02	-16.2140	-48.657578	0.000223	2.229489	0.755371	0.000089
1603	1.5940e+02	-16.1755	-48.576836	0.000203	2.026808	0.686701	0.000081
1604	1.5950e+02	-16.1322	-48.516279	0.000152	1.520106	0.515026	0.000061
1605	1.5960e+02	-16.0953	-48.419387	0.000243	2.432169	0.824041	0.000097
1606	1.5970e+02	-16.0584	-48.403239	0.000041	0.405362	0.137340	0.000016
1607	1.5980e+02	-16.0215	-48.274051	0.000324	3.242892	1.098722	0.000130
1608	1.5990e+02	-15.9846	-48.233679	0.000101	1.013404	0.343351	0.000041
1609	1.6000e+02	-15.9381	-48.152937	0.000203	2.026808	0.686701	0.000081
1610	1.6010e+02	-15.8996	-48.088342	0.000162	1.621446	0.549361	0.000065
1611	1.6019e+02	-15.8562	-48.031822	0.000142	1.418765	0.480691	0.000057
1612	1.6029e+02	-15.8161	-47.914746	0.000294	2.938871	0.995717	0.000118
1613	1.6039e+02	-15.7680	-47.866300	0.000122	1.216085	0.412021	0.000049
1614	1.6049e+02	-15.7263	-47.813817	0.000132	1.317425	0.446356	0.000053
1615	1.6059e+02	-15.7038	-47.708852	0.000263	2.634850	0.892711	0.000105
1616	1.6069e+02	-15.6541	-47.620035	0.000223	2.229489	0.755371	0.000089
1617	1.6079e+02	-15.6204	-47.575626	0.000111	1.114744	0.377686	0.000045
1618	1.6089e+02	-15.5787	-47.486809	0.000223	2.229489	0.755371	0.000089
1619	1.6099e+02	-15.5354	-47.410104	0.000193	1.925467	0.652366	0.000077
1620	1.6109e+02	-15.4985	-47.325324	0.000213	2.128148	0.721036	0.000085
1621	1.6119e+02	-15.4600	-47.260730	0.000162	1.621446	0.549361	0.000065
1622	1.6129e+02	-15.4263	-47.179987	0.000203	2.026808	0.686701	0.000081
1623	1.6139e+02	-15.3782	-47.087133	0.000233	2.330829	0.789706	0.000093
1624	1.6149e+02	-15.3477	-46.978130	0.000274	2.736190	0.927046	0.000110
1625	1.6159e+02	-15.3012	-46.957944	0.000051	0.506702	0.171675	0.000020
1626	1.6169e+02	-15.2546	-46.897387	0.000152	1.520106	0.515026	0.000061
1627	1.6179e+02	-15.2194	-46.792422	0.000263	2.634850	0.892711	0.000105
1628	1.6189e+02	-15.1809	-46.711679	0.000203	2.026808	0.686701	0.000081
1629	1.6199e+02	-15.1424	-46.655159	0.000142	1.418765	0.480691	0.000057
1630	1.6209e+02	-15.1006	-46.578454	0.000193	1.925467	0.652366	0.000077
1631	1.6219e+02	-15.0589	-46.485599	0.000233	2.330829	0.789706	0.000093
1632	1.6228e+02	-15.0236	-46.412931	0.000182	1.824127	0.618031	0.000073
1633	1.6238e+02	-14.9819	-46.324114	0.000223	2.229489	0.755371	0.000089
1634	1.6248e+02	-14.9354	-46.215111	0.000274	2.736190	0.927046	0.000110
1635	1.6258e+02	-14.8937	-46.154554	0.000152	1.520106	0.515026	0.000061
1636	1.6268e+02	-14.8648	-46.110146	0.000111	1.114744	0.377686	0.000045
1637	1.6278e+02	-14.8279	-46.009217	0.000253	2.533510	0.858376	0.000101
1638	1.6288e+02	-14.7862	-45.908289	0.000253	2.533510	0.858376	0.000101
1639	1.6298e+02	-14.7397	-45.807361	0.000253	2.533510	0.858376	0.000101
1640	1.6308e+02	-14.6980	-45.750841	0.000142	1.418765	0.480691	0.000057
1641	1.6318e+02	-14.6531	-45.706432	0.000111	1.114744	0.377686	0.000045
1642	1.6328e+02	-14.6194	-45.605504	0.000253	2.533510	0.858376	0.000101
1643	1.6338e+02	-14.5745	-45.540910	0.000162	1.621446	0.549361	0.000065
1644	1.6348e+02	-14.5376	-45.407684	0.000334	3.344233	1.133057	0.000134
1645	1.6358e+02	-14.4958	-45.343090	0.000162	1.621446	0.549361	0.000065
1646	1.6368e+02	-14.4638	-45.302719	0.000101	1.013404	0.343351	0.000041
1647	1.6378e+02	-14.4301	-45.189679	0.000284	2.837531	0.961381	0.000114
1648	1.6388e+02	-14.3836	-45.112973	0.000193	1.925467	0.652366	0.000077
1649	1.6398e+02	-14.3434	-45.028193	0.000213	2.128148	0.721036	0.000085
1650	1.6408e+02	-14.2921	-44.967636	0.000152	1.520106	0.515026	0.000061
1651	1.6418e+02	-14.2584	-44.899005	0.000172	1.722787	0.583696	0.000069
1652	1.6427e+02	-14.2247	-44.785965	0.000284	2.837531	0.961381	0.000114
1653	1.6437e+02	-14.1798	-44.721371	0.000162	1.621446	0.549361	0.000065
1654	1.6447e+02	-14.1445	-44.632554	0.000223	2.229489	0.755371	0.000089
1655	1.6457e+02	-14.1124	-44.576034	0.000142	1.418765	0.480691	0.000057
1656	1.6467e+02	-14.0611	-44.471069	0.000263	2.634850	0.892711	0.000105
1657	1.6477e+02	-14.0338	-44.410512	0.000152	1.520106	0.515026	0.000061
1658	1.6487e+02	-13.9873	-44.325732	0.000213	2.128148	0.721036	0.000085
1659	1.6497e+02	-13.9392	-44.236915	0.000223	2.229489	0.755371	0.000089
1660	1.6507e+02	-13.8959	-44.135986	0.000253	2.533510	0.858376	0.000101
1661	1.6517e+02	-13.8638	-44.059281	0.000193	1.925467	0.652366	0.000077
1662	1.6527e+02	-13.8237	-44.031021	0.000071	0.709383	0.240345	0.000028
1663	1.6537e+02	-13.7852	-43.893758	0.000345	3.445573	1.167392	0.000138
1664	1.6547e+02	-13.7531	-43.804941	0.000223	2.229489	0.755371	0.000089
1665	1.6557e+02	-13.7018	-43.772644	0.000081	0.810723	0.274680	0.000032
1666	1.6567e+02	-13.6600	-43.647493	0.000314	3.141552	1.064387	0.000126
1667	1.6577e+02	-13.6264	-43.570787	0.000193	1.925467	0.652366	0.000077
1668	1.6587e+02	-13.5846	-43.518305	0.000132	1.317425	0.446356	0.000053
1669	1.6597e+02	-13.5477	-43.429488	0.000223	2.229489	0.755371	0.000089
1670	1.6607e+02	-13.4980	-43.324522	0.000263	2.634850	0.892711	0.000105
1671	1.6616e+02	-13.4772	-43.243779	0.000203	2.026808	0.686701	0.000081
1672	1.6626e+02	-13.4194	-43.203408	0.000101	1.013404	0.343351	0.000041
1673	1.6636e+02	-13.3937	-43.078257	0.000314	3.141552	1.064387	0.000126
1674	1.6646e+02	-13.3472	-43.033848	0.000111	1.114744	0.377686	0.000045
1675	1.6656e+02	-13.3071	-42.916771	0.000294	2.938871	0.995717	0.000118
1676	1.6666e+02	-13.2718	-42.836029	0.000203	2.026808	0.686701	0.000081
1677	1.6676e+02	-13.2237	-42.767397	0.000172	1.722787	0.583696	0.000069
1678	1.6686e+02	-13.1884	-42.654358	0.000284	2.837531	0.961381	0.000114
1679	1.6696e+02	-13.1499	-42.569578	0.000213	2.128148	0.721036	0.000085
1680	1.6706e+02	-13.1066	-42.517095	0.000132	1.317425	0.446356	0.000053
1681	1.6716e+02	-13.0665	-42.444427	0.000182	1.824127	0.618031	0.000073
1682	1.6726e+02	-13.0280	-42.331387	0.000284	2.837531	0.961381	0.000114
1683	1.6736e+02	-12.9766	-42.254681	0.000193	1.925467	0.652366	0.000077
1684	1.6746e+02	-12.9413	-42.169901	0.000213	2.128148	0.721036	0.000085
1685	1.6756e+02	-12.9012	-42.073010	0.000243	2.432169	0.824041	0.000097
1686	1.6766e+02	-12.8772	-42.008416	0.000162	1.621446	0.549361	0.000065
1687	1.6776e+02	-12.8307	-41.927673	0.000203	2.026808	0.686701	0.000081
1688	1.6786e+02	-12.7905	-41.867116	0.000152	1.520106	0.515026	0.000061
1689	1.6796e+02	-12.7472	-41.750039	0.000294	2.938871	0.995717	0.000118
1690	1.6806e+02	-12.7071	-41.681408	0.000172	1.722787	0.583696	0.000069
1691	1.6816e+02	-12.6718	-41.620851	0.000152	1.520106	0.515026	0.000061
1692	1.6825e+02	-12.6349	-41.487625	0.000334	3.344233	1.133057	0.000134
1693	1.6835e+02	-12.5964	-41.406883	0.000203	2.026808	0.686701	0.000081
1694	1.6845e+02	-12.5483	-41.334214	0.000182	1.824127	0.618031	0.000073
1695	1.6855e+02	-12.5098	-41.257509	0.000193	1.925467	0.652366	0.000077
1696	1.6865e+02	-12.4729	-41.152543	0.000263	2.634850	0.892711	0.000105
1697	1.6875e+02	-12.4312	-41.075838	0.000193	1.925467	0.652366	0.000077
1698	1.6885e+02	-12.3879	-40.978946	0.000243	2.432169	0.824041	0.000097
1699	1.6895e+02	-12.3542	-40.902241	0.000193	1.925467	0.652366	0.000077
1700	1.6905e+02	-12.3205	-40.829572	0.000182	1.824127	0.618031	0.000073
1701	1.6915e+02	-12.2740	-40.692310	0.000345	3.445573	1.167392	0.000138
1702	1.6925e+02	-12.2339	-40.651938	0.000101	1.013404	0.343351	0.000041
1703	1.6935e+02	-12.1938	-40.530824	0.000304	3.040212	1.030052	0.000122
1704	1.6945e+02	-12.1473	-40.450082	0.000203	2.026808	0.686701	0.000081
1705	1.6955e+02	-12.1200	-40.369339	0.000203	2.026808	0.686701	0.000081
1706	1.6965e+02	-12.0654	-40.337042	0.000081	0.810723	0.274680	0.000032
1707	1.6975e+02	-12.0334	-40.187668	0.000375	3.749594	1.270397	0.000150
1708	1.6985e+02	-11.9965	-40.135185	0.000132	1.317425	0.446356	0.000053
1709	1.6995e+02	-11.9483	-40.030219	0.000263	2.634850	0.892711	0.000105
1710	1.7005e+02	-11.9162	-39.969662	0.000152	1.520106	0.515026	0.000061
1711	1.7015e+02	-11.8729	-39.856623	0.000284	2.837531	0.961381	0.000114
1712	1.7024e+02	-11.8312	-39.800103	0.000142	1.418765	0.480691	0.000057
1713	1.7034e+02	-11.7847	-39.678989	0.000304	3.040212	1.030052	0.000122
1714	1.7044e+02	-11.7510	-39.598246	0.000203	2.026808	0.686701	0.000081
1715	1.7054e+02	-11.7173	-39.525577	0.000182	1.824127	0.618031	0.000073
1716	1.7064e+02	-11.6692	-39.416575	0.000274	2.736190	0.927046	0.000110
1717	1.7074e+02	-11.6387	-39.343906	0.000182	1.824127	0.618031	0.000073
1718	1.7084e+02	-11.6018	-39.263164	0.000203	2.026808	0.686701	0.000081
1719	1.7094e+02	-11.5617	-39.162235	0.000253	2.533510	0.858376	0.000101
1720	1.7104e+02	-11.5264	-39.093604	0.000172	1.722787	0.583696	0.000069
1721	1.7114e+02	-11.4687	-39.045158	0.000122	1.216085	0.412021	0.000049
1722	1.7124e+02	-11.4302	-38.887710	0.000395	3.952275	1.339067	0.000158
1723	1.7134e+02	-11.3901	-38.839264	0.000122	1.216085	0.412021	0.000049
1724	1.7144e+02	-11.3644	-38.770633	0.000172	1.722787	0.583696	0.000069
1725	1.7154e+02	-11.3114	-38.673742	0.000243	2.432169	0.824041	0.000097
1726	1.7164e+02	-11.2762	-38.548591	0.000314	3.141552	1.064387	0.000126
1727	1.7174e+02	-11.2360	-38.488034	0.000152	1.520106	0.515026	0.000061
1728	1.7184e+02	-11.1943	-38.411328	0.000193	1.925467	0.652366	0.000077
1729	1.7194e+02	-11.1606	-38.354808	0.000142	1.418765	0.480691	0.000057
1730	1.7204e+02	-11.1205	-38.229657	0.000314	3.141552	1.064387	0.000126
1731	1.7213e+02	-11.0836	-38.173137	0.000142	1.418765	0.480691	0.000057
1732	1.7223e+02	-11.0387	-38.060097	0.000284	2.837531	0.961381	0.000114
1733	1.7233e+02	-10.9970	-37.971280	0.000223	2.229489	0.755371	0.000089
1734	1.7243e+02	-10.9537	-37.910723	0.000152	1.520106	0.515026	0.000061
1735	1.7253e+02	-10.9072	-37.789609	0.000304	3.040212	1.030052	0.000122
1736	1.7263e+02	-10.8831	-37.696755	0.000233	2.330829	0.789706	0.000093
1737	1.7273e+02	-10.8398	-37.656384	0.000101	1.013404	0.343351	0.000041
1738	1.7283e+02	-10.7981	-37.555455	0.000253	2.533510	0.858376	0.000101
1739	1.7293e+02	-10.7548	-37.434341	0.000304	3.040212	1.030052	0.000122
1740	1.7303e+02	-10.7115	-37.369747	0.000162	1.621446	0.549361	0.000065
1741	1.7313e+02	-10.6810	-37.260744	0.000274	2.736190	0.927046	0.000110
1742	1.7323e+02	-10.6409	-37.184039	0.000193	1.925467	0.652366	0.000077
1743	1.7333e+02	-10.6024	-37.095222	0.000223	2.229489	0.755371	0.000089
1744	1.7343e+02	-10.5655	-37.030628	0.000162	1.621446	0.549361	0.000065
1745	1.7353e+02	-10.5206	-36.921625	0.000274	2.736190	0.927046	0.000110
1746	1.7363e+02	-10.4788	-36.832808	0.000223	2.229489	0.755371	0.000089
1747	1.7373e+02	-10.4323	-36.723805	0.000274	2.736190	0.927046	0.000110
1748	1.7383e+02	-10.4018	-36.679397	0.000111	1.114744	0.377686	0.000045
1749	1.7393e+02	-10.3553	-36.525986	0.000385	3.850935	1.304732	0.000154
1750	1.7403e+02	-10.3168	-36.437169	0.000223	2.229489	0.755371	0.000089
1751	1.7413e+02	-10.2783	-36.372574	0.000162	1.621446	0.549361	0.000065
1752	1.7422e+02	-10.2350	-36.324129	0.000122	1.216085	0.412021	0.000049
1753	1.7432e+02	-10.1885	-36.194940	0.000324	3.242892	1.098722	0.000130
1754	1.7442e+02	-10.1564	-36.122272	0.000182	1.824127	0.618031	0.000073
1755	1.7452e+02	-10.1275	-35.980972	0.000355	3.546914	1.201727	0.000142
1756	1.7462e+02	-10.0762	-35.920415	0.000152	1.520106	0.515026	0.000061
1757	1.7472e+02	-10.0361	-35.811413	0.000274	2.736190	0.927046	0.000110
1758	1.7482e+02	-9.9976	-35.714521	0.000243	2.432169	0.824041	0.000097
1759	1.7492e+02	-9.9623	-35.641853	0.000182	1.824127	0.618031	0.000073
1760	1.7502e+02	-9.9174	-35.548999	0.000233	2.330829	0.789706	0.000093
1761	1.7512e+02	-9.8773	-35.435959	0.000284	2.837531	0.961381	0.000114
1762	1.7522e+02	-9.8372	-35.367328	0.000172	1.722787	0.583696	0.000069
1763	1.7532e+02	-9.7987	-35.286585	0.000203	2.026808	0.686701	0.000081
1764	1.7542e+02	-9.7682	-35.165471	0.000304	3.040212	1.030052	0.000122
1765	1.7552e+02	-9.7136	-35.076654	0.000223	2.229489	0.755371	0.000089
1766	1.7562e+02	-9.6896	-35.003985	0.000182	1.824127	0.618031	0.000073
1767	1.7572e+02	-9.6414	-34.870760	0.000334	3.344233	1.133057	0.000134
1768	1.7582e+02	-9.5949	-34.814240	0.000142	1.418765	0.480691	0.000057
1769	1.7592e+02	-9.5580	-34.701200	0.000284	2.837531	0.961381	0.000114
1770	1.7602e+02	-9.5179	-34.580086	0.000304	3.040212	1.030052	0.000122
1771	1.7612e+02	-9.4746	-34.551826	0.000071	0.709383	0.240345	0.000028
1772	1.7621e+02	-9.4393	-34.418601	0.000334	3.344233	1.133057	0.000134
1773	1.7631e+02	-9.4024	-34.321709	0.000243	2.432169	0.824041	0.000097
1774	1.7641e+02	-9.3511	-34.245004	0.000193	1.925467	0.652366	0.000077
1775	1.7651e+02	-9.3238	-34.144076	0.000253	2.533510	0.858376	0.000101
1776	1.7661e+02	-9.2789	-34.059296	0.000213	2.128148	0.721036	0.000085
1777	1.7671e+02	-9.2404	-33.938182	0.000304	3.040212	1.030052	0.000122
1778	1.7681e+02	-9.2035	-33.861476	0.000193	1.925467	0.652366	0.000077
1779	1.7691e+02	-9.1586	-33.796882	0.000162	1.621446	0.549361	0.000065
1780	1.7701e+02	-9.1120	-33.695953	0.000253	2.533510	0.858376	0.000101
1781	1.7711e+02	-9.0832	-33.599062	0.000243	2.432169	0.824041	0.000097
1782	1.7721e+02	-9.0415	-33.486022	0.000284	2.837531	0.961381	0.000114
1783	1.7731e+02	-9.0110	-33.409317	0.000193	1.925467	0.652366	0.000077
1784	1.7741e+02	-8.9596	-33.308388	0.000253	2.533510	0.858376	0.000101
1785	1.7751e+02	-8.9227	-33.219571	0.000223	2.229489	0.755371	0.000089
1786	1.7761e+02	-8.8874	-33.058086	0.000405	4.053615	1.373402	0.000162
1787	1.7771e+02	-8.8457	-32.997529	0.000152	1.520106	0.515026	0.000061
1788	1.7781e+02	-8.8008	-32.924861	0.000182	1.824127	0.618031	0.000073
1789	1.7791e+02	-8.7607	-32.856229	0.000172	1.722787	0.583696	0.000069
1790	1.7801e+02	-8.7222	-32.783561	0.000182	1.824127	0.618031	0.000073
1791	1.7810e+02	-8.6901	-32.662447	0.000304	3.040212	1.030052	0.000122
1792	1.7820e+02	-8.6484	-32.553444	0.000274	2.736190	0.927046	0.000110
1793	1.7830e+02	-8.5987	-32.456553	0.000243	2.432169	0.824041	0.000097
1794	1.7840e+02	-8.5618	-32.335439	0.000304	3.040212	1.030052	0.000122
1795	1.7850e+02	-8.5329	-32.246622	0.000223	2.229489	0.755371	0.000089
1796	1.7860e+02	-8.4784	-32.153768	0.000233	2.330829	0.789706	0.000093
1797	1.7870e+02	-8.4527	-32.044765	0.000274	2.736190	0.927046	0.000110
1798	1.7880e+02	-8.3998	-31.976134	0.000172	1.722787	0.583696	0.000069
1799	1.7890e+02	-8.3581	-31.879242	0.000243	2.432169	0.824041	0.000097
1800	1.7900e+02	-8.3276	-31.746017	0.000334	3.344233	1.133057	0.000134
1801	1.7910e+02	-8.2843	-31.641051	0.000263	2.634850	0.892711	0.000105
1802	1.7920e+02	-8.2425	-31.580494	0.000152	1.520106	0.515026	0.000061
1803	1.7930e+02	-8.2057	-31.463417	0.000294	2.938871	0.995717	0.000118
1804	1.7940e+02	-8.1736	-31.366526	0.000243	2.432169	0.824041	0.000097
1805	1.7950e+02	-8.1254	-31.221189	0.000365	3.648254	1.236062	0.000146
1806	1.7960e+02	-8.0869	-31.148521	0.000182	1.824127	0.618031	0.000073
1807	1.7970e+02	-8.0404	-31.055667	0.000233	2.330829	0.789706	0.000093
1808	1.7980e+02	-8.0099	-30.946664	0.000274	2.736190	0.927046	0.000110
1809	1.7990e+02	-7.9618	-30.801327	0.000365	3.648254	1.236062	0.000146
1810	1.8000e+02	-7.9217	-30.740770	0.000152	1.520106	0.515026	0.000061
1811	1.8009e+02	-7.8976	-30.623693	0.000294	2.938871	0.995717	0.000118
1812	1.8019e+02	-7.8447	-30.534876	0.000223	2.229489	0.755371	0.000089
1813	1.8029e+02	-7.8046	-30.433948	0.000253	2.533510	0.858376	0.000101
1814	1.8039e+02	-7.7677	-30.373391	0.000152	1.520106	0.515026	0.000061
1815	1.8049e+02	-7.7308	-30.252277	0.000304	3.040212	1.030052	0.000122
1816	1.8059e+02	-7.6843	-30.151348	0.000253	2.533510	0.858376	0.000101
1817	1.8069e+02	-7.6506	-30.046383	0.000263	2.634850	0.892711	0.000105
1818	1.8079e+02	-7.6105	-29.933343	0.000284	2.837531	0.961381	0.000114
1819	1.8089e+02	-7.5688	-29.832415	0.000253	2.533510	0.858376	0.000101
1820	1.8099e+02	-7.5367	-29.687078	0.000365	3.648254	1.236062	0.000146
1821	1.8109e+02	-7.4902	-29.614409	0.000182	1.824127	0.618031	0.000073
1822	1.8119e+02	-7.4388	-29.509444	0.000263	2.634850	0.892711	0.000105
1823	1.8129e+02	-7.4116	-29.392367	0.000294	2.938871	0.995717	0.000118
1824	1.8139e+02	-7.3747	-29.311624	0.000203	2.026808	0.686701	0.000081
1825	1.8149e+02	-7.3346	-29.206658	0.000263	2.634850	0.892711	0.000105
1826	1.8159e+02	-7.2768	-29.121879	0.000213	2.128148	0.721036	0.000085
1827	1.8169e+02	-7.2479	-28.996727	0.000314	3.141552	1.064387	0.000126
1828	1.8179e+02	-7.2014	-28.911948	0.000213	2.128148	0.721036	0.000085
1829	1.8189e+02	-7.1661	-28.811019	0.000253	2.533510	0.858376	0.000101
1830	1.8199e+02	-7.1244	-28.673757	0.000345	3.445573	1.167392	0.000138
1831	1.8209e+02	-7.0907	-28.621274	0.000132	1.317425	0.446356	0.000053
1832	1.8218e+02	-7.0490	-28.496123	0.000314	3.141552	1.064387	0.000126
1833	1.8228e+02	-7.0137	-28.399231	0.000243	2.432169	0.824041	0.000097
1834	1.8238e+02	-6.9672	-28.310414	0.000223	2.229489	0.755371	0.000089
1835	1.8248e+02	-6.9351	-28.165077	0.000365	3.648254	1.236062	0.000146
1836	1.8258e+02	-6.8870	-28.072223	0.000233	2.330829	0.789706	0.000093
1837	1.8268e+02	-6.8533	-27.943035	0.000324	3.242892	1.098722	0.000130
1838	1.8278e+02	-6.8068	-27.894589	0.000122	1.216085	0.412021	0.000049
1839	1.8288e+02	-6.7731	-27.720993	0.000436	4.357637	1.476407	0.000174
1840	1.8298e+02	-6.7346	-27.628138	0.000233	2.330829	0.789706	0.000093
1841	1.8308e+02	-6.6961	-27.547396	0.000203	2.026808	0.686701	0.000081
1842	1.8318e+02	-6.6544	-27.385910	0.000405	4.053615	1.373402	0.000162
1843	1.8328e+02	-6.6126	-27.313242	0.000182	1.824127	0.618031	0.000073
1844	1.8338e+02	-6.5709	-27.204239	0.000274	2.736190	0.927046	0.000110
1845	1.8348e+02	-6.5340	-27.079088	0.000314	3.141552	1.064387	0.000126
1846	1.8358e+02	-6.4923	-26.990271	0.000223	2.229489	0.755371	0.000089
1847	1.8368e+02	-6.4522	-26.893380	0.000243	2.432169	0.824041	0.000097
1848	1.8378e+02	-6.4266	-26.808600	0.000213	2.128148	0.721036	0.000085
1849	1.8388e+02	-6.3784	-26.719783	0.000223	2.229489	0.755371	0.000089
1850	1.8398e+02	-6.3431	-26.582520	0.000345	3.445573	1.167392	0.000138
1851	1.8407e+02	-6.2966	-26.481592	0.000253	2.533510	0.858376	0.000101
1852	1.8417e+02	-6.2517	-26.348366	0.000334	3.344233	1.133057	0.000134
1853	1.8427e+02	-6.2132	-26.247438	0.000253	2.533510	0.858376	0.000101
1854	1.8437e+02	-6.1843	-26.154584	0.000233	2.330829	0.789706	0.000093
1855	1.8447e+02	-6.1314	-26.013284	0.000355	3.546914	1.201727	0.000142
1856	1.8457e+02	-6.0993	-25.892170	0.000304	3.040212	1.030052	0.000122
1857	1.8467e+02	-6.0624	-25.839687	0.000132	1.317425	0.446356	0.000053
1858	1.8477e+02	-6.0175	-25.710499	0.000324	3.242892	1.098722	0.000130
1859	1.8487e+02	-5.9790	-25.597459	0.000284	2.837531	0.961381	0.000114
1860	1.8497e+02	-5.9389	-25.492494	0.000263	2.634850	0.892711	0.000105
1861	1.8507e+02	-5.8875	-25.331008	0.000405	4.053615	1.373402	0.000162
1862	1.8517e+02	-5.8603	-25.270451	0.000152	1.520106	0.515026	0.000061
1863	1.8527e+02	-5.8218	-25.145300	0.000314	3.141552	1.064387	0.000126
1864	1.8537e+02	-5.7768	-25.064557	0.000203	2.026808	0.686701	0.000081
1865	1.8547e+02	-5.7415	-24.935369	0.000324	3.242892	1.098722	0.000130
1866	1.8557e+02	-5.6982	-24.802143	0.000334	3.344233	1.133057	0.000134
1867	1.8567e+02	-5.6645	-24.689104	0.000284	2.837531	0.961381	0.000114
1868	1.8577e+02	-5.6196	-24.596249	0.000233	2.330829	0.789706	0.000093
1869	1.8587e+02	-5.5811	-24.479173	0.000294	2.938871	0.995717	0.000118
1870	1.8597e+02	-5.5346	-24.382281	0.000243	2.432169	0.824041	0.000097
1871	1.8606e+02	-5.5089	-24.257130	0.000314	3.141552	1.064387	0.000126
1872	1.8616e+02	-5.4544	-24.123905	0.000334	3.344233	1.133057	0.000134
1873	1.8626e+02	-5.4111	-24.067385	0.000142	1.418765	0.480691	0.000057
1874	1.8636e+02	-5.3758	-23.922048	0.000365	3.648254	1.236062	0.000146
1875	1.8646e+02	-5.3389	-23.821119	0.000253	2.533510	0.858376	0.000101
1876	1.8656e+02	-5.2956	-23.716154	0.000263	2.634850	0.892711	0.000105
1877	1.8666e+02	-5.2699	-23.570817	0.000365	3.648254	1.236062	0.000146
1878	1.8676e+02	-5.2234	-23.490074	0.000203	2.026808	0.686701	0.000081
1879	1.8686e+02	-5.1865	-23.336663	0.000385	3.850935	1.304732	0.000154
1880	1.8696e+02	-5.1432	-23.215549	0.000304	3.040212	1.030052	0.000122
1881	1.8706e+02	-5.1015	-23.138843	0.000193	1.925467	0.652366	0.000077
1882	1.8716e+02	-5.0565	-23.021767	0.000294	2.938871	0.995717	0.000118
1883	1.8726e+02	-5.0196	-22.904690	0.000294	2.938871	0.995717	0.000118
1884	1.8736e+02	-4.9844	-22.763390	0.000355	3.546914	1.201727	0.000142
1885	1.8746e+02	-4.9458	-22.662461	0.000253	2.533510	0.858376	0.000101
1886	1.8756e+02	-4.9041	-22.565570	0.000243	2.432169	0.824041	0.000097
1887	1.8766e+02	-4.8721	-22.436382	0.000324	3.242892	1.098722	0.000130
1888	1.8776e+02	-4.8207	-22.375825	0.000152	1.520106	0.515026	0.000061
1889	1.8786e+02	-4.7806	-22.214339	0.000405	4.053615	1.373402	0.000162
1890	1.8796e+02	-4.7357	-22.097262	0.000294	2.938871	0.995717	0.000118
1891	1.8806e+02	-4.7052	-21.964037	0.000334	3.344233	1.133057	0.000134
1892	1.8815e+02	-4.6619	-21.863109	0.000253	2.533510	0.858376	0.000101
1893	1.8825e+02	-4.6186	-21.758143	0.000263	2.634850	0.892711	0.000105
1894	1.8835e+02	-4.5769	-21.645103	0.000284	2.837531	0.961381	0.000114
1895	1.8845e+02	-4.5448	-21.511878	0.000334	3.344233	1.133057	0.000134
1896	1.8855e+02	-4.5127	-21.419024	0.000233	2.330829	0.789706	0.000093
1897	1.8865e+02	-4.4630	-21.289835	0.000324	3.242892	1.098722	0.000130
1898	1.8875e+02	-4.4261	-21.152573	0.000345	3.445573	1.167392	0.000138
1899	1.8885e+02	-4.3860	-21.035496	0.000294	2.938871	0.995717	0.000118
1900	1.8895e+02	-4.3475	-20.978976	0.000142	1.418765	0.480691	0.000057
1901	1.8905e+02	-4.3090	-20.833639	0.000365	3.648254	1.236062	0.000146
1902	1.8915e+02	-4.2673	-20.728673	0.000263	2.634850	0.892711	0.000105
1903	1.8925e+02	-4.2191	-20.579299	0.000375	3.749594	1.270397	0.000150
1904	1.8935e+02	-4.1870	-20.466260	0.000284	2.837531	0.961381	0.000114
1905	1.8945e+02	-4.1453	-20.324960	0.000355	3.546914	1.201727	0.000142
1906	1.8955e+02	-4.1020	-20.236143	0.000223	2.229489	0.755371	0.000089
1907	1.8965e+02	-4.0603	-20.123103	0.000284	2.837531	0.961381	0.000114
1908	1.8975e+02	-4.0330	-19.989878	0.000334	3.344233	1.133057	0.000134
1909	1.8985e+02	-3.9865	-19.864726	0.000314	3.141552	1.064387	0.000126
1910	1.8995e+02	-3.9496	-19.719390	0.000365	3.648254	1.236062	0.000146
1911	1.9004e+02	-3.9079	-19.590201	0.000324	3.242892	1.098722	0.000130
1912	1.9014e+02	-3.8710	-19.481199	0.000274	2.736190	0.927046	0.000110
1913	1.9024e+02	-3.8261	-19.352010	0.000324	3.242892	1.098722	0.000130
1914	1.9034e+02	-3.7876	-19.238970	0.000284	2.837531	0.961381	0.000114
1915	1.9044e+02	-3.7491	-19.093633	0.000365	3.648254	1.236062	0.000146
1916	1.9054e+02	-3.7090	-18.976557	0.000294	2.938871	0.995717	0.000118
1917	1.9064e+02	-3.6625	-18.891777	0.000213	2.128148	0.721036	0.000085
1918	1.9074e+02	-3.6208	-18.689920	0.000507	5.067019	1.716753	0.000203
1919	1.9084e+02	-3.5887	-18.588992	0.000253	2.533510	0.858376	0.000101
1920	1.9094e+02	-3.5454	-18.492100	0.000243	2.432169	0.824041	0.000097
1921	1.9104e+02	-3.5052	-18.354838	0.000345	3.445573	1.167392	0.000138
1922	1.9114e+02	-3.4716	-18.237761	0.000294	2.938871	0.995717	0.000118
1923	1.9124e+02	-3.4298	-18.124721	0.000284	2.837531	0.961381	0.000114
1924	1.9134e+02	-3.3881	-17.979384	0.000365	3.648254	1.236062	0.000146
1925	1.9144e+02	-3.3464	-17.817899	0.000405	4.053615	1.373402	0.000162
1926	1.9154e+02	-3.3095	-17.700822	0.000294	2.938871	0.995717	0.000118
1927	1.9164e+02	-3.2614	-17.563559	0.000345	3.445573	1.167392	0.000138
1928	1.9174e+02	-3.2245	-17.418222	0.000365	3.648254	1.236062	0.000146
1929	1.9184e+02	-3.1860	-17.313257	0.000263	2.634850	0.892711	0.000105
1930	1.9194e+02	-3.1523	-17.212328	0.000253	2.533510	0.858376	0.000101
1931	1.9203e+02	-3.1154	-17.058917	0.000385	3.850935	1.304732	0.000154
1932	1.9213e+02	-3.0657	-16.937803	0.000304	3.040212	1.030052	0.000122
1933	1.9223e+02	-3.0304	-16.816689	0.000304	3.040212	1.030052	0.000122
1934	1.9233e+02	-2.9935	-16.671352	0.000365	3.648254	1.236062	0.000146
1935	1.9243e+02	-2.9518	-16.558312	0.000284	2.837531	0.961381	0.000114
1936	1.9253e+02	-2.9069	-16.441235	0.000294	2.938871	0.995717	0.000118
1937	1.9263e+02	-2.8603	-16.247453	0.000486	4.864339	1.648083	0.000195
1938	1.9273e+02	-2.8267	-16.138450	0.000274	2.736190	0.927046	0.000110
1939	1.9283e+02	-2.7914	-16.001187	0.000345	3.445573	1.167392	0.000138
1940	1.9293e+02	-2.7593	-15.827591	0.000436	4.357637	1.476407	0.000174
1941	1.9303e+02	-2.7144	-15.722625	0.000263	2.634850	0.892711	0.000105
1942	1.9313e+02	-2.6759	-15.605548	0.000294	2.938871	0.995717	0.000118
1943	1.9323e+02	-2.6358	-15.540954	0.000162	1.621446	0.549361	0.000065
1944	1.9333e+02	-2.6005	-15.387543	0.000385	3.850935	1.304732	0.000154
1945	1.9343e+02	-2.5523	-15.189723	0.000497	4.965679	1.682418	0.000199
1946	1.9353e+02	-2.5138	-15.076683	0.000284	2.837531	0.961381	0.000114
1947	1.9363e+02	-2.4769	-14.903087	0.000436	4.357637	1.476407	0.000174
1948	1.9373e+02	-2.4304	-14.790047	0.000284	2.837531	0.961381	0.000114
1949	1.9383e+02	-2.3871	-14.664896	0.000314	3.141552	1.064387	0.000126
1950	1.9393e+02	-2.3502	-14.539744	0.000314	3.141552	1.064387	0.000126
1951	1.9403e+02	-2.3069	-14.378259	0.000405	4.053615	1.373402	0.000162
1952	1.9412e+02	-2.2668	-14.273293	0.000263	2.634850	0.892711	0.000105
1953	1.9422e+02	-2.2331	-14.140068	0.000334	3.344233	1.133057	0.000134
1954	1.9432e+02	-2.1946	-13.982620	0.000395	3.952275	1.339067	0.000158
1955	1.9442e+02	-2.1497	-13.821134	0.000405	4.053615	1.373402	0.000162
1956	1.9452e+02	-2.1096	-13.732317	0.000223	2.229489	0.755371	0.000089
1957	1.9462e+02	-2.0807	-13.554683	0.000446	4.458977	1.510742	0.000179
1958	1.9472e+02	-2.0310	-13.445681	0.000274	2.736190	0.927046	0.000110
1959	1.9482e+02	-1.9973	-13.264009	0.000456	4.560317	1.545077	0.000183
1960	1.9492e+02	-1.9427	-13.155007	0.000274	2.736190	0.927046	0.000110
1961	1.9502e+02	-1.9074	-12.957187	0.000497	4.965679	1.682418	0.000199
1962	1.9512e+02	-1.8786	-12.844147	0.000284	2.837531	0.961381	0.000114
1963	1.9522e+02	-1.8304	-12.702848	0.000355	3.546914	1.201727	0.000142
1964	1.9532e+02	-1.7887	-12.529251	0.000436	4.357637	1.476407	0.000174
1965	1.9542e+02	-1.7534	-12.387951	0.000355	3.546914	1.201727	0.000142
1966	1.9552e+02	-1.7037	-12.254726	0.000334	3.344233	1.133057	0.000134
1967	1.9562e+02	-1.6764	-12.129574	0.000314	3.141552	1.064387	0.000126
1968	1.9572e+02	-1.6267	-11.931755	0.000497	4.965679	1.682418	0.000199
1969	1.9582e+02	-1.5930	-11.802566	0.000324	3.242892	1.098722	0.000130
1970	1.9592e+02	-1.5497	-11.645118	0.000395	3.952275	1.339067	0.000158
1971	1.9601e+02	-1.5144	-11.532078	0.000284	2.837531	0.961381	0.000114
1972	1.9611e+02	-1.4727	-11.346370	0.000466	4.661658	1.579412	0.000187
1973	1.9621e+02	-1.4438	-11.192959	0.000385	3.850935	1.304732	0.000154
1974	1.9631e+02	-1.3989	-11.051659	0.000355	3.546914	1.201727	0.000142
1975	1.9641e+02	-1.3540	-10.902285	0.000375	3.749594	1.270397	0.000150
1976	1.9651e+02	-1.3026	-10.740800	0.000405	4.053615	1.373402	0.000162
1977	1.9661e+02	-1.2754	-10.563166	0.000446	4.458977	1.510742	0.000179
1978	1.9671e+02	-1.2321	-10.409755	0.000385	3.850935	1.304732	0.000154
1979	1.9681e+02	-1.2000	-10.264418	0.000365	3.648254	1.236062	0.000146
1980	1.9691e+02	-1.1583	-10.131192	0.000334	3.344233	1.133057	0.000134
1981	1.9701e+02	-1.1149	-9.985855	0.000365	3.648254	1.236062	0.000146
1982	1.9711e+02	-1.0684	-9.792073	0.000486	4.864339	1.648083	0.000195
1983	1.9721e+02	-1.0331	-9.662884	0.000324	3.242892	1.098722	0.000130
1984	1.9731e+02	-0.9850	-9.465065	0.000497	4.965679	1.682418	0.000199
1985	1.9741e+02	-0.9577	-9.368173	0.000243	2.432169	0.824041	0.000097
1986	1.9751e+02	-0.9128	-9.194577	0.000436	4.357637	1.476407	0.000174
1987	1.9761e+02	-0.8759	-9.069425	0.000314	3.141552	1.064387	0.000126
1988	1.9771e+02	-0.8358	-8.871606	0.000497	4.965679	1.682418	0.000199
1989	1.9781e+02	-0.7925	-8.693972	0.000446	4.458977	1.510742	0.000179
1990	1.9791e+02	-0.7540	-8.552672	0.000355	3.546914	1.201727	0.000142
1991	1.9800e+02	-0.7139	-8.407335	0.000365	3.648254	1.236062	0.000146
1992	1.9810e+02	-0.6786	-8.221627	0.000466	4.661658	1.579412	0.000187
1993	1.9820e+02	-0.6369	-8.108587	0.000284	2.837531	0.961381	0.000114
1994	1.9830e+02	-0.6000	-7.955176	0.000385	3.850935	1.304732	0.000154
1995	1.9840e+02	-0.5679	-7.745245	0.000527	5.269700	1.785423	0.000211
1996	1.9850e+02	-0.5166	-7.599908	0.000365	3.648254	1.236062	0.000146
1997	1.9860e+02	-0.4845	-7.414200	0.000466	4.661658	1.579412	0.000187
1998	1.9870e+02	-0.4556	-7.289049	0.000314	3.141552	1.064387	0.000126
1999	1.9880e+02	-0.4011	-7.115452	0.000436	4.357637	1.476407	0.000174
2000	1.9890e+02	-0.3593	-6.953966	0.000405	4.053615	1.373402	0.000162
2001	1.9900e+02	-0.3225	-6.792481	0.000405	4.053615	1.373402	0.000162
2002	1.9910e+02	-0.2759	-6.602735	0.000476	4.762998	1.613747	0.000191
2003	1.9920e+02	-0.2310	-6.477584	0.000314	3.141552	1.064387	0.000126
2004	1.9930e+02	-0.1973	-6.320136	0.000395	3.952275	1.339067	0.000158
2005	1.9940e+02	-0.1572	-6.114242	0.000517	5.168360	1.751088	0.000207
2006	1.9950e+02	-0.1187	-5.968905	0.000365	3.648254	1.236062	0.000146
2007	1.9960e+02	-0.0866	-5.815494	0.000385	3.850935	1.304732	0.000154
2008	1.9970e+02	-0.0433	-5.694380	0.000304	3.040212	1.030052	0.000122
2009	1.9980e+02	-0.0016	-5.496560	0.000304	3.040212	1.030052	0.000199

Center data before PMax,+/-Pr and +/-Vc Calc.

PMax (uC/cm2):	5.48e+01
Pr (uC/cm2):	1.85e+00
-Pr (uC/cm2):	-5.50e+00
PLoss (uC/cm2):	-1.33e+00
Vc:	1.05e+00
-Vc:	-4.61e-01
C (Max-Eff) (nF):	2.74e-01
K (Eff):	9.28e+02
Vert. (+/-Pr) Shift (uC/cm2):	-1.82e+00
Horiz. Shift (+/-Vc):	2.93e-01
Offset (uC/cm2):	4.15e+00

A (Loop Area - uC/cm2·Volts):	2.27e-02



Hysteresis Version: 5.48.1 - Radiant Technologies, Inc., 1999 - 9/12/24

