»»»»»»»»»»»»»»»»»»»»»»»»»»»»»»»»»»»» Hysteresis ««««««««««««««««««««««««««««««««««««
»»»  Executed Version:	5.48.1
»»»  Vision Version:	5.48.4 (R)
»»»  Vision Compiled:	9/18/24
»»»  Driver Version:	5.47.0
»»»  Windows Version:	Windows 8 or 8.1
»»»  Processor Information:	x86 (AMD or Intel) - 32 Processors
»»»  Tester Name:	PMF21124-494 (100V)
»»»  Tester S/N:	PMF21124-494
»»»  Internal Amp Type:	100V RevK 270k
»»»  Internal Amp S/N:	iAB2-596/K     
»»»  Execution Count:	1
»»»»»»»»»»»»»»»»»»»»»»»»»»»»»»»»»»»»»»»»»»««««««««««««««««««««««««««««««««««««««««««

Stored:	6/12/2025 - 16:12:24
Configured:	06/12/25 03:03:03 PM
Executed:	06/12/25 04:11:20 PM

»»»»»»»»»»»»»»»»»»»»»»»»»»»»»»»»»»» Sample Info ««««««««««««««««««««««««««««««««««««
Sample Name:	
Lot Name:	
Wafer Name:	
Die Row/Column:	0/0
Capacitor Number:	0
Sample Area (cm2):	1.00e-04
Sample Thickness (microns):	3.00e-01

Amplifier:	Internal

»»»»»»»»»»»»»»»»»»»»»»»»»»»»»»»»»»» Tester Info «««««««««««««««««««««««««««««««««««
Tester Name:	PMF21124-494 (100V)
Tester Serial Number:	PMF21124-494
Return Signal Amp. Level:	1.79 [Index: 2]

»»»»»»»»»»»»»»»»»»»»»»»»»»»»»»»» Hysteresis Info ««««««««««««««««««««««««««««««««««
Task Name:	Hyst-1570
Volts:	20.00
Field:	666.67 (kV/cm)
DCBias:	0.00
DCField:	0.00 (kV/cm)
Hysteresis Period (ms):	1.00e+00
Preset:	Enabled
Preset Delay (ms):	1.00e+03
Profile:	Standard Bipolar

»»»»»»»»»»»»»»»»»»»»»»»»»»»»»»»»»»»»»» Data «««««««««««««««««««««««««««««««««««««««
Points:	2001

Valid Data

Point	Time (ms)	Drive Voltage	Measured Polarization (uC/cm2)	Capacitance (uF)	Normalized Capacitance (uF/cm2)	Dielectric Constant	Instantaneous Current (mA)
   1	0.0000e+00	0.0369	-1.708149	0.000065	0.649888	0.220188	0.005303
   2	5.0000e-04	0.0545	-1.681636	0.000065	0.649888	0.220188	0.005303
   3	1.0000e-03	0.1283	-1.650420	0.000077	0.765191	0.259254	0.006243
   4	1.5000e-03	0.1813	-1.578151	0.000177	1.771469	0.600190	0.014454
   5	2.0000e-03	0.2150	-1.482791	0.000234	2.337501	0.791967	0.019072
   6	2.5000e-03	0.2471	-1.393417	0.000219	2.190752	0.742247	0.017875
   7	3.0000e-03	0.3000	-1.292497	0.000247	2.473768	0.838135	0.020184
   8	3.5000e-03	0.3064	-1.159078	0.000327	3.270405	1.108043	0.026684
   9	4.0000e-03	0.3577	-1.051744	0.000263	2.630999	0.891407	0.021467
  10	4.5000e-03	0.3754	-0.924740	0.000311	3.113174	1.054772	0.025401
  11	5.0000e-03	0.4251	-0.805005	0.000293	2.934979	0.994398	0.023947
  12	5.5000e-03	0.4749	-0.678855	0.000309	3.092210	1.047669	0.025230
  13	6.0000e-03	0.5166	-0.562541	0.000285	2.851122	0.965986	0.023263
  14	6.5000e-03	0.5695	-0.435964	0.000310	3.102692	1.051220	0.025315
  15	7.0000e-03	0.6240	-0.322216	0.000279	2.788230	0.944678	0.022750
  16	7.5000e-03	0.6593	-0.193073	0.000317	3.165584	1.072529	0.025829
  17	8.0000e-03	0.7107	-0.087449	0.000259	2.589071	0.877201	0.021125
  18	8.5000e-03	0.7219	0.066496	0.000377	3.773544	1.278511	0.030789
  19	9.0000e-03	0.7428	0.178961	0.000276	2.756784	0.934024	0.022493
  20	9.5000e-03	0.7861	0.312808	0.000328	3.280887	1.111595	0.026769
  21	1.0000e-02	0.8262	0.425273	0.000276	2.756784	0.934024	0.022493
  22	1.0500e-02	0.8936	0.548002	0.000301	3.008353	1.019258	0.024546
  23	1.1000e-02	0.9096	0.680138	0.000324	3.238959	1.097389	0.026427
  24	1.1500e-02	0.9690	0.804149	0.000304	3.039800	1.029912	0.024802
  25	1.2000e-02	0.9994	0.928588	0.000305	3.050282	1.033463	0.024888
  26	1.2500e-02	1.0042	1.064573	0.000333	3.333297	1.129352	0.027197
  27	1.3000e-02	1.0925	1.173190	0.000266	2.662445	0.902061	0.021723
  28	1.3500e-02	1.1406	1.298912	0.000308	3.081728	1.044118	0.025144
  29	1.4000e-02	1.1615	1.427627	0.000316	3.155102	1.068978	0.025743
  30	1.4500e-02	1.2224	1.545652	0.000289	2.893051	0.980192	0.023605
  31	1.5000e-02	1.2465	1.671373	0.000308	3.081728	1.044118	0.025144
  32	1.5500e-02	1.2577	1.802654	0.000322	3.217995	1.090286	0.026256
  33	1.6000e-02	1.3139	1.932225	0.000318	3.176066	1.076080	0.025914
  34	1.6500e-02	1.3668	2.041697	0.000268	2.683409	0.909164	0.021894
  35	1.7000e-02	1.3732	2.174688	0.000326	3.259923	1.104492	0.026598
  36	1.7500e-02	1.4390	2.308963	0.000329	3.291369	1.115146	0.026855
  37	1.8000e-02	1.4935	2.425277	0.000285	2.851122	0.965986	0.023263
  38	1.8500e-02	1.5256	2.550999	0.000308	3.081728	1.044118	0.025144
  39	1.9000e-02	1.5738	2.666885	0.000284	2.840640	0.962435	0.023177
  40	1.9500e-02	1.6139	2.787048	0.000295	2.945461	0.997949	0.024033
  41	2.0000e-02	1.6219	2.921750	0.000330	3.301851	1.118697	0.026940
  42	2.0500e-02	1.6620	3.044906	0.000302	3.018835	1.022809	0.024631
  43	2.1000e-02	1.7165	3.152667	0.000264	2.641481	0.894958	0.021552
  44	2.1500e-02	1.7695	3.276679	0.000304	3.039800	1.029912	0.024802
  45	2.2000e-02	1.7775	3.409670	0.000326	3.259923	1.104492	0.026598
  46	2.2500e-02	1.8336	3.523846	0.000280	2.798712	0.948229	0.022835
  47	2.3000e-02	1.8641	3.640588	0.000286	2.861604	0.969538	0.023348
  48	2.3500e-02	1.9138	3.765454	0.000306	3.060764	1.037015	0.024973
  49	2.4000e-02	1.9860	3.874499	0.000267	2.672927	0.905612	0.021809
  50	2.4500e-02	2.0229	3.994234	0.000293	2.934979	0.994398	0.023947
  51	2.5000e-02	2.0646	4.112686	0.000290	2.903533	0.983743	0.023690
  52	2.5500e-02	2.0871	4.248671	0.000333	3.333297	1.129352	0.027197
  53	2.6000e-02	2.1400	4.364557	0.000284	2.840640	0.962435	0.023177
  54	2.6500e-02	2.1834	4.483010	0.000290	2.903533	0.983743	0.023690
  55	2.7000e-02	2.1930	4.604883	0.000299	2.987389	1.012155	0.024375
  56	2.7500e-02	2.2411	4.723763	0.000291	2.914015	0.987295	0.023776
  57	2.8000e-02	2.3085	4.830241	0.000261	2.610035	0.884304	0.021296
  58	2.8500e-02	2.3213	4.955108	0.000306	3.060764	1.037015	0.024973
  59	2.9000e-02	2.3454	5.082540	0.000312	3.123656	1.058323	0.025486
  60	2.9500e-02	2.3983	5.195861	0.000278	2.777748	0.941126	0.022664
  61	3.0000e-02	2.4384	5.311747	0.000284	2.840640	0.962435	0.023177
  62	3.0500e-02	2.4834	5.437897	0.000309	3.092210	1.047669	0.025230
  63	3.1000e-02	2.5379	5.525560	0.000215	2.148824	0.728041	0.017533
  64	3.1500e-02	2.5331	5.661117	-0.000332	-3.322815	-1.125800	0.027111
  65	3.2000e-02	2.6021	5.777431	0.000285	2.851122	0.965986	0.023263
  66	3.2500e-02	2.6422	5.887331	0.000269	2.693891	0.912715	0.021980
  67	3.3000e-02	2.6871	5.999369	0.000275	2.746302	0.930472	0.022408
  68	3.3500e-02	2.7432	6.115683	0.000285	2.851122	0.965986	0.023263
  69	3.4000e-02	2.7448	6.239694	0.000304	3.039800	1.029912	0.024802
  70	3.4500e-02	2.8042	6.363278	0.000303	3.029317	1.026361	0.024717
  71	3.5000e-02	2.8587	6.469329	0.000260	2.599553	0.880752	0.021210
  72	3.5500e-02	2.8844	6.577946	0.000266	2.662445	0.902061	0.021723
  73	3.6000e-02	2.9133	6.710082	0.000324	3.238959	1.097389	0.026427
  74	3.6500e-02	2.9582	6.808008	0.000240	2.400393	0.813275	0.019585
  75	3.7000e-02	2.9967	6.912776	0.000257	2.568107	0.870098	0.020954
  76	3.7500e-02	3.0272	7.026525	0.000279	2.788230	0.944678	0.022750
  77	3.8000e-02	3.0561	7.142411	0.000284	2.840640	0.962435	0.023177
  78	3.8500e-02	3.1154	7.238627	0.000236	2.358465	0.799070	0.019243
  79	3.9000e-02	3.1860	7.351092	0.000276	2.756784	0.934024	0.022493
  80	3.9500e-02	3.1940	7.475531	0.000305	3.050282	1.033463	0.024888
  81	4.0000e-02	3.2181	7.591418	0.000284	2.840640	0.962435	0.023177
  82	4.0500e-02	3.2646	7.709015	0.000288	2.882569	0.976641	0.023519
  83	4.1000e-02	3.3272	7.811217	0.000251	2.505214	0.848790	0.020440
  84	4.1500e-02	3.3801	7.918551	0.000263	2.630999	0.891407	0.021467
  85	4.2000e-02	3.4090	8.040424	0.000299	2.987389	1.012155	0.024375
  86	4.2500e-02	3.4443	8.139633	0.000243	2.431840	0.823930	0.019842
  87	4.3000e-02	3.5004	8.250816	0.000273	2.725338	0.923369	0.022237
  88	4.3500e-02	3.5454	8.344893	0.000231	2.306055	0.781313	0.018816
  89	4.4000e-02	3.5614	8.465484	0.000296	2.955943	1.001501	0.024118
  90	4.4500e-02	3.6063	8.583081	0.000288	2.882569	0.976641	0.023519
  91	4.5000e-02	3.6448	8.682717	0.000244	2.442322	0.827481	0.019927
  92	4.5500e-02	3.6721	8.805446	0.000301	3.008353	1.019258	0.024546
  93	4.6000e-02	3.7443	8.890971	0.000210	2.096413	0.710284	0.017105
  94	4.6500e-02	3.7555	9.004719	0.000279	2.788230	0.944678	0.022750
  95	4.7000e-02	3.7828	9.123171	0.000290	2.903533	0.983743	0.023690
  96	4.7500e-02	3.8518	9.216821	0.000230	2.295573	0.777761	0.018730
  97	4.8000e-02	3.8806	9.329714	0.000277	2.767266	0.937575	0.022579
  98	4.8500e-02	3.9256	9.440897	0.000273	2.725338	0.923369	0.022237
  99	4.9000e-02	3.9737	9.543955	0.000253	2.526178	0.855892	0.020612
 100	4.9500e-02	4.0138	9.654282	0.000270	2.704373	0.916267	0.022065
 101	5.0000e-02	4.0523	9.760761	0.000261	2.610035	0.884304	0.021296
 102	5.0500e-02	4.0908	9.872799	0.000275	2.746302	0.930472	0.022408
 103	5.1000e-02	4.1261	9.963883	0.000223	2.232680	0.756453	0.018217
 104	5.1500e-02	4.1903	10.069934	0.000260	2.599553	0.880752	0.021210
 105	5.2000e-02	4.2015	10.176412	0.000261	2.610035	0.884304	0.021296
 106	5.2500e-02	4.2496	10.285029	0.000266	2.662445	0.902061	0.021723
 107	5.3000e-02	4.2945	10.391508	0.000261	2.610035	0.884304	0.021296
 108	5.3500e-02	4.3122	10.512526	0.000297	2.966425	1.005052	0.024204
 109	5.4000e-02	4.3683	10.611735	0.000243	2.431840	0.823930	0.019842
 110	5.4500e-02	4.4293	10.686569	0.000183	1.834362	0.621499	0.014967
 111	5.5000e-02	4.4437	10.829824	0.000351	3.511493	1.189726	0.028651
 112	5.5500e-02	4.4742	10.917059	0.000214	2.138342	0.724490	0.017447
 113	5.6000e-02	4.5047	11.031663	0.000281	2.809194	0.951781	0.022921
 114	5.6500e-02	4.5865	11.121892	0.000221	2.211716	0.749350	0.018046
 115	5.7000e-02	4.5929	11.237778	0.000284	2.840640	0.962435	0.023177
 116	5.7500e-02	4.6587	11.325014	0.000214	2.138342	0.724490	0.017447
 117	5.8000e-02	4.6844	11.438762	0.000279	2.788230	0.944678	0.022750
 118	5.8500e-02	4.7148	11.534123	0.000234	2.337501	0.791967	0.019072
 119	5.9000e-02	4.8159	11.628200	0.000231	2.306055	0.781313	0.018816
 120	5.9500e-02	4.8063	11.730403	-0.000251	-2.505214	-0.848790	0.020440
 121	6.0000e-02	4.8576	11.839447	0.000267	2.672927	0.905612	0.021809
 122	6.0500e-02	4.8977	11.945071	0.000259	2.589071	0.877201	0.021125
 123	6.1000e-02	4.9057	12.061812	0.000286	2.861604	0.969538	0.023348
 124	6.1500e-02	4.9571	12.139640	0.000191	1.907736	0.646359	0.015566
 125	6.2000e-02	4.9860	12.259375	0.000293	2.934979	0.994398	0.023947
 126	6.2500e-02	5.0662	12.346611	0.000214	2.138342	0.724490	0.017447
 127	6.3000e-02	5.0902	12.450951	0.000256	2.557624	0.866547	0.020868
 128	6.3500e-02	5.1143	12.558713	0.000264	2.641481	0.894958	0.021552
 129	6.4000e-02	5.1576	12.666047	0.000263	2.630999	0.891407	0.021467
 130	6.4500e-02	5.2025	12.750717	0.000208	2.075449	0.703181	0.016934
 131	6.5000e-02	5.2378	12.862754	0.000275	2.746302	0.930472	0.022408
 132	6.5500e-02	5.3148	12.949135	0.000212	2.117378	0.717387	0.017276
 133	6.6000e-02	5.3132	13.060317	-0.000273	-2.725338	-0.923369	0.022237
 134	6.6500e-02	5.3469	13.168079	0.000264	2.641481	0.894958	0.021552
 135	6.7000e-02	5.4047	13.257025	0.000218	2.180270	0.738695	0.017789
 136	6.7500e-02	5.4656	13.359227	0.000251	2.505214	0.848790	0.020440
 137	6.8000e-02	5.4688	13.451594	0.000226	2.264127	0.767107	0.018473
 138	6.8500e-02	5.5073	13.565343	0.000279	2.788230	0.944678	0.022750
 139	6.9000e-02	5.5555	13.648302	0.000203	2.033521	0.688976	0.016592
 140	6.9500e-02	5.5988	13.755636	0.000263	2.630999	0.891407	0.021467
 141	7.0000e-02	5.6100	13.855273	0.000244	2.442322	0.827481	0.019927
 142	7.0500e-02	5.7143	13.940798	0.000210	2.096413	0.710284	0.017105
 143	7.1000e-02	5.7319	14.052836	0.000275	2.746302	0.930472	0.022408
 144	7.1500e-02	5.7608	14.152472	0.000244	2.442322	0.827481	0.019927
 145	7.2000e-02	5.8314	14.249971	0.000239	2.389911	0.809724	0.019500
 146	7.2500e-02	5.8442	14.350035	0.000245	2.452804	0.831032	0.020013
 147	7.3000e-02	5.8827	14.449672	0.000244	2.442322	0.827481	0.019927
 148	7.3500e-02	5.9228	14.542467	0.000227	2.274609	0.770658	0.018559
 149	7.4000e-02	5.9533	14.644241	0.000249	2.494732	0.845238	0.020355
 150	7.4500e-02	6.0255	14.729339	0.000209	2.085931	0.706733	0.017019
 151	7.5000e-02	6.0255	14.839666	-0.000270	-2.704373	-0.916267	0.022065
 152	7.5500e-02	6.0849	14.935454	0.000235	2.347983	0.795518	0.019158
 153	7.6000e-02	6.1667	15.028249	0.000227	2.274609	0.770658	0.018559
 154	7.6500e-02	6.1907	15.123609	0.000234	2.337501	0.791967	0.019072
 155	7.7000e-02	6.2020	15.215976	0.000226	2.264127	0.767107	0.018473
 156	7.7500e-02	6.2324	15.331435	0.000283	2.830158	0.958884	0.023092
 157	7.8000e-02	6.2742	15.434493	0.000253	2.526178	0.855892	0.020612
 158	7.8500e-02	6.3576	15.515314	0.000198	1.981111	0.671218	0.016164
 159	7.9000e-02	6.3624	15.614095	0.000242	2.421358	0.820378	0.019756
 160	7.9500e-02	6.4089	15.705607	0.000224	2.243162	0.760004	0.018302
 161	8.0000e-02	6.4426	15.799685	0.000231	2.306055	0.781313	0.018816
 162	8.0500e-02	6.4811	15.899749	0.000245	2.452804	0.831032	0.020013
 163	8.1000e-02	6.5308	16.029320	0.000318	3.176066	1.076080	0.025914
 164	8.1500e-02	6.5950	16.085339	0.000137	1.373151	0.465236	0.011204
 165	8.2000e-02	6.5806	16.182837	-0.000239	-2.389911	-0.809724	0.019500
 166	8.2500e-02	6.6351	16.293592	0.000271	2.714855	0.919818	0.022151
 167	8.3000e-02	6.6752	16.359019	0.000160	1.603756	0.543367	0.013085
 168	8.3500e-02	6.7249	16.468491	0.000268	2.683409	0.909164	0.021894
 169	8.4000e-02	6.7330	16.566417	0.000240	2.400393	0.813275	0.019585
 170	8.4500e-02	6.8116	16.657501	0.000223	2.232680	0.756453	0.018217
 171	8.5000e-02	6.8372	16.748158	0.000222	2.222198	0.752901	0.018131
 172	8.5500e-02	6.9046	16.841808	0.000230	2.295573	0.777761	0.018730
 173	8.6000e-02	6.9303	16.930326	0.000217	2.169788	0.735144	0.017704
 174	8.6500e-02	6.9415	17.040653	0.000270	2.704373	0.916267	0.022065
 175	8.7000e-02	7.0233	17.115488	0.000183	1.834362	0.621499	0.014967
 176	8.7500e-02	7.0378	17.218118	0.000252	2.515696	0.852341	0.020526
 177	8.8000e-02	7.0699	17.319037	0.000247	2.473768	0.838135	0.020184
 178	8.8500e-02	7.1453	17.396865	0.000191	1.907736	0.646359	0.015566
 179	8.9000e-02	7.1453	17.495647	-0.000242	-2.421358	-0.820378	0.019756
 180	8.9500e-02	7.2062	17.590579	0.000233	2.327019	0.788415	0.018987
 181	9.0000e-02	7.2495	17.683802	0.000229	2.285091	0.774210	0.018644
 182	9.0500e-02	7.3057	17.785149	0.000248	2.484250	0.841687	0.020269
 183	9.1000e-02	7.3378	17.874950	0.000220	2.201234	0.745798	0.017960
 184	9.1500e-02	7.3474	17.977153	0.000251	2.505214	0.848790	0.020440
 185	9.2000e-02	7.4132	18.064816	0.000215	2.148824	0.728041	0.017533
 186	9.2500e-02	7.4821	18.145209	0.000197	1.970629	0.667667	0.016079
 187	9.3000e-02	7.5014	18.248695	0.000254	2.536660	0.859444	0.020697
 188	9.3500e-02	7.5062	18.342345	0.000230	2.295573	0.777761	0.018730
 189	9.4000e-02	7.5752	18.419317	0.000189	1.886772	0.639256	0.015395
 190	9.4500e-02	7.6169	18.515105	0.000235	2.347983	0.795518	0.019158
 191	9.5000e-02	7.6490	18.599775	0.000208	2.075449	0.703181	0.016934
 192	9.5500e-02	7.6714	18.704543	0.000257	2.568107	0.870098	0.020954
 193	9.6000e-02	7.7452	18.798621	0.000231	2.306055	0.781313	0.018816
 194	9.6500e-02	7.7549	18.888422	0.000220	2.201234	0.745798	0.017960
 195	9.7000e-02	7.7821	18.979934	0.000224	2.243162	0.760004	0.018302
 196	9.7500e-02	7.8431	19.064604	0.000208	2.075449	0.703181	0.016934
 197	9.8000e-02	7.8784	19.162530	0.000240	2.400393	0.813275	0.019585
 198	9.8500e-02	7.9265	19.253614	0.000223	2.232680	0.756453	0.018217
 199	9.9000e-02	7.9650	19.334435	0.000198	1.981111	0.671218	0.016164
 200	9.9500e-02	7.9795	19.442197	0.000264	2.641481	0.894958	0.021552
 201	1.0000e-01	8.0484	19.522590	0.000197	1.970629	0.667667	0.016079
 202	1.0050e-01	8.0516	19.621800	0.000243	2.431840	0.823930	0.019842
 203	1.0100e-01	8.1238	19.711173	0.000219	2.190752	0.742247	0.017875
 204	1.0150e-01	8.1864	19.796698	0.000210	2.096413	0.710284	0.017105
 205	1.0200e-01	8.2169	19.878375	0.000200	2.002075	0.678321	0.016335
 206	1.0250e-01	8.2554	19.979722	0.000248	2.484250	0.841687	0.020269
 207	1.0300e-01	8.2714	20.063964	0.000206	2.064967	0.699630	0.016848
 208	1.0350e-01	8.3196	20.160607	0.000237	2.368947	0.802621	0.019329
 209	1.0400e-01	8.3629	20.245705	0.000209	2.085931	0.706733	0.017019
 210	1.0450e-01	8.3693	20.341921	0.000236	2.358465	0.799070	0.019243
 211	1.0500e-01	8.4383	20.430439	0.000217	2.169788	0.735144	0.017704
 212	1.0550e-01	8.4832	20.524089	0.000230	2.295573	0.777761	0.018730
 213	1.0600e-01	8.5570	20.598923	0.000183	1.834362	0.621499	0.014967
 214	1.0650e-01	8.5666	20.699843	0.000247	2.473768	0.838135	0.020184
 215	1.0700e-01	8.5987	20.782802	0.000203	2.033521	0.688976	0.016592
 216	1.0750e-01	8.6340	20.874742	0.000225	2.253644	0.763555	0.018388
 217	1.0800e-01	8.6965	20.952569	0.000191	1.907736	0.646359	0.015566
 218	1.0850e-01	8.7062	21.055627	0.000253	2.526178	0.855892	0.020612
 219	1.0900e-01	8.7768	21.129606	0.000181	1.813398	0.614396	0.014796
 220	1.0950e-01	8.8153	21.234374	0.000257	2.568107	0.870098	0.020954
 221	1.1000e-01	8.8554	21.320327	0.000211	2.106896	0.713836	0.017191
 222	1.1050e-01	8.8955	21.388747	0.000168	1.677131	0.568227	0.013684
 223	1.1100e-01	8.9115	21.484108	0.000234	2.337501	0.791967	0.019072
 224	1.1150e-01	8.9757	21.571343	0.000214	2.138342	0.724490	0.017447
 225	1.1200e-01	9.0206	21.674401	0.000253	2.526178	0.855892	0.020612
 226	1.1250e-01	9.0511	21.753084	0.000193	1.928700	0.653461	0.015737
 227	1.1300e-01	9.0751	21.842030	0.000218	2.180270	0.738695	0.017789
 228	1.1350e-01	9.1457	21.918147	0.000187	1.865808	0.632153	0.015223
 229	1.1400e-01	9.1682	22.015218	0.000238	2.379429	0.806172	0.019414
 230	1.1450e-01	9.1987	22.106730	0.000224	2.243162	0.760004	0.018302
 231	1.1500e-01	9.2388	22.196531	0.000220	2.201234	0.745798	0.017960
 232	1.1550e-01	9.2773	22.291892	0.000234	2.337501	0.791967	0.019072
 233	1.1600e-01	9.3206	22.369720	0.000191	1.907736	0.646359	0.015566
 234	1.1650e-01	9.3591	22.462087	0.000226	2.264127	0.767107	0.018473
 235	1.1700e-01	9.4088	22.546756	0.000208	2.075449	0.703181	0.016934
 236	1.1750e-01	9.4377	22.636985	0.000221	2.211716	0.749350	0.018046
 237	1.1800e-01	9.5003	22.725076	0.000216	2.159306	0.731593	0.017618
 238	1.1850e-01	9.5307	22.795207	0.000172	1.719059	0.582433	0.014026
 239	1.1900e-01	9.5628	22.885008	0.000220	2.201234	0.745798	0.017960
 240	1.1950e-01	9.5997	22.979086	0.000231	2.306055	0.781313	0.018816
 241	1.2000e-01	9.6334	23.058196	0.000194	1.939182	0.657013	0.015822
 242	1.2050e-01	9.6591	23.147142	0.000218	2.180270	0.738695	0.017789
 243	1.2100e-01	9.7553	23.230957	0.000205	2.054485	0.696078	0.016763
 244	1.2150e-01	9.7521	23.337008	-0.000260	-2.599553	-0.880752	0.021210
 245	1.2200e-01	9.8372	23.407994	0.000174	1.740023	0.589536	0.014197
 246	1.2250e-01	9.8580	23.492664	0.000208	2.075449	0.703181	0.016934
 247	1.2300e-01	9.8885	23.586313	0.000230	2.295573	0.777761	0.018730
 248	1.2350e-01	9.9174	23.669273	0.000203	2.033521	0.688976	0.016592
 249	1.2400e-01	9.9815	23.759502	0.000221	2.211716	0.749350	0.018046
 250	1.2450e-01	10.0024	23.849303	0.000220	2.201234	0.745798	0.017960
 251	1.2500e-01	10.0265	23.928841	0.000195	1.949665	0.660564	0.015908
 252	1.2550e-01	10.0938	24.022491	0.000230	2.295573	0.777761	0.018730
 253	1.2600e-01	10.1227	24.107589	0.000209	2.085931	0.706733	0.017019
 254	1.2650e-01	10.1821	24.176436	0.000169	1.687613	0.571779	0.013770
 255	1.2700e-01	10.2398	24.263244	0.000213	2.127860	0.720938	0.017362
 256	1.2750e-01	10.2478	24.351763	0.000217	2.169788	0.735144	0.017704
 257	1.2800e-01	10.2928	24.430873	0.000194	1.939182	0.657013	0.015822
 258	1.2850e-01	10.3232	24.518109	0.000214	2.138342	0.724490	0.017447
 259	1.2900e-01	10.3425	24.603634	0.000210	2.096413	0.710284	0.017105
 260	1.2950e-01	10.4018	24.691297	0.000215	2.148824	0.728041	0.017533
 261	1.3000e-01	10.4500	24.770835	0.000195	1.949665	0.660564	0.015908
 262	1.3050e-01	10.4660	24.852512	0.000200	2.002075	0.678321	0.016335
 263	1.3100e-01	10.5222	24.934188	0.000200	2.002075	0.678321	0.016335
 264	1.3150e-01	10.5703	25.025700	0.000224	2.243162	0.760004	0.018302
 265	1.3200e-01	10.5976	25.108232	0.000202	2.023039	0.685424	0.016506
 266	1.3250e-01	10.6313	25.204875	0.000237	2.368947	0.802621	0.019329
 267	1.3300e-01	10.6746	25.287834	0.000203	2.033521	0.688976	0.016592
 268	1.3350e-01	10.7484	25.362669	0.000183	1.834362	0.621499	0.014967
 269	1.3400e-01	10.7788	25.446911	0.000206	2.064967	0.699630	0.016848
 270	1.3450e-01	10.8141	25.518324	0.000175	1.750505	0.593087	0.014283
 271	1.3500e-01	10.8398	25.598290	0.000196	1.960147	0.664116	0.015993
 272	1.3550e-01	10.8751	25.695789	0.000239	2.389911	0.809724	0.019500
 273	1.3600e-01	10.9489	25.784735	0.000218	2.180270	0.738695	0.017789
 274	1.3650e-01	10.9810	25.857431	0.000178	1.781951	0.603741	0.014539
 275	1.3700e-01	10.9906	25.945950	0.000217	2.169788	0.735144	0.017704
 276	1.3750e-01	11.0532	26.033613	0.000215	2.148824	0.728041	0.017533
 277	1.3800e-01	11.0788	26.121276	0.000215	2.148824	0.728041	0.017533
 278	1.3850e-01	11.1542	26.197821	0.000188	1.876290	0.635704	0.015309
 279	1.3900e-01	11.1703	26.272655	0.000183	1.834362	0.621499	0.014967
 280	1.3950e-01	11.2200	26.353904	0.000199	1.991593	0.674770	0.016250
 281	1.4000e-01	11.2344	26.453969	0.000245	2.452804	0.831032	0.020013
 282	1.4050e-01	11.2745	26.531369	0.000190	1.897254	0.642807	0.015480
 283	1.4100e-01	11.3259	26.607486	0.000187	1.865808	0.632153	0.015223
 284	1.4150e-01	11.3772	26.701564	0.000231	2.306055	0.781313	0.018816
 285	1.4200e-01	11.3884	26.778964	0.000190	1.897254	0.642807	0.015480
 286	1.4250e-01	11.4462	26.848667	0.000171	1.708577	0.578882	0.013941
 287	1.4300e-01	11.4799	26.950869	0.000251	2.505214	0.848790	0.020440
 288	1.4350e-01	11.4911	27.015441	0.000158	1.582792	0.536265	0.012914
 289	1.4400e-01	11.5601	27.091558	0.000187	1.865808	0.632153	0.015223
 290	1.4450e-01	11.5745	27.191195	0.000244	2.442322	0.827481	0.019927
 291	1.4500e-01	11.6467	27.260042	0.000169	1.687613	0.571779	0.013770
 292	1.4550e-01	11.6820	27.355830	0.000235	2.347983	0.795518	0.019158
 293	1.4600e-01	11.7302	27.428099	0.000177	1.771469	0.600190	0.014454
 294	1.4650e-01	11.7638	27.508920	0.000198	1.981111	0.671218	0.016164
 295	1.4700e-01	11.8088	27.574774	0.000161	1.614238	0.546919	0.013171
 296	1.4750e-01	11.8216	27.675266	0.000246	2.463286	0.834584	0.020098
 297	1.4800e-01	11.8697	27.753949	0.000193	1.928700	0.653461	0.015737
 298	1.4850e-01	11.9307	27.821087	0.000165	1.645685	0.557573	0.013427
 299	1.4900e-01	11.9916	27.907467	0.000212	2.117378	0.717387	0.017276
 300	1.4950e-01	12.0045	27.987005	0.000195	1.949665	0.660564	0.015908
 301	1.5000e-01	12.0334	28.068254	0.000199	1.991593	0.674770	0.016250
 302	1.5050e-01	12.0991	28.143944	0.000186	1.855326	0.628601	0.015138
 303	1.5100e-01	12.1248	28.226048	0.000201	2.012557	0.681873	0.016421
 304	1.5150e-01	12.1681	28.303875	0.000191	1.907736	0.646359	0.015566
 305	1.5200e-01	12.2114	28.397525	0.000230	2.295573	0.777761	0.018730
 306	1.5250e-01	12.2644	28.476636	0.000194	1.939182	0.657013	0.015822
 307	1.5300e-01	12.2900	28.545484	0.000169	1.687613	0.571779	0.013770
 308	1.5350e-01	12.3285	28.629726	0.000206	2.064967	0.699630	0.016848
 309	1.5400e-01	12.3767	28.714396	0.000208	2.075449	0.703181	0.016934
 310	1.5450e-01	12.4055	28.801631	0.000214	2.138342	0.724490	0.017447
 311	1.5500e-01	12.4376	28.879031	0.000190	1.897254	0.642807	0.015480
 312	1.5550e-01	12.4986	28.946596	0.000166	1.656167	0.561124	0.013513
 313	1.5600e-01	12.5258	29.034259	0.000215	2.148824	0.728041	0.017533
 314	1.5650e-01	12.5708	29.108666	0.000182	1.823880	0.617947	0.014881
 315	1.5700e-01	12.6077	29.187349	0.000193	1.928700	0.653461	0.015737
 316	1.5750e-01	12.6430	29.271591	0.000206	2.064967	0.699630	0.016848
 317	1.5800e-01	12.6991	29.347709	0.000187	1.865808	0.632153	0.015223
 318	1.5850e-01	12.7039	29.434944	0.000214	2.138342	0.724490	0.017447
 319	1.5900e-01	12.7520	29.510206	0.000184	1.844844	0.625050	0.015052
 320	1.5950e-01	12.8050	29.587607	0.000190	1.897254	0.642807	0.015480
 321	1.6000e-01	12.8307	29.675270	0.000215	2.148824	0.728041	0.017533
 322	1.6050e-01	12.8836	29.756519	0.000199	1.991593	0.674770	0.016250
 323	1.6100e-01	12.9205	29.835629	0.000194	1.939182	0.657013	0.015822
 324	1.6150e-01	12.9157	29.926286	-0.000222	-2.222198	-0.752901	0.018131
 325	1.6200e-01	13.0200	29.980594	0.000133	1.331223	0.451030	0.010862
 326	1.6250e-01	13.0408	30.060132	0.000195	1.949665	0.660564	0.015908
 327	1.6300e-01	13.0937	30.139243	0.000194	1.939182	0.657013	0.015822
 328	1.6350e-01	13.1050	30.221775	0.000202	2.023039	0.685424	0.016506
 329	1.6400e-01	13.1740	30.287202	0.000160	1.603756	0.543367	0.013085
 330	1.6450e-01	13.2189	30.358187	0.000174	1.740023	0.589536	0.014197
 331	1.6500e-01	13.2221	30.451837	0.000230	2.295573	0.777761	0.018730
 332	1.6550e-01	13.3087	30.510850	0.000145	1.446525	0.490096	0.011802
 333	1.6600e-01	13.3087	30.604072	-0.000229	-2.285091	-0.774210	0.018644
 334	1.6650e-01	13.3536	30.678051	0.000181	1.813398	0.614396	0.014796
 335	1.6700e-01	13.3953	30.755451	0.000190	1.897254	0.642807	0.015480
 336	1.6750e-01	13.4483	30.855088	0.000244	2.442322	0.827481	0.019927
 337	1.6800e-01	13.4723	30.917949	0.000154	1.540864	0.522059	0.012572
 338	1.6850e-01	13.5397	30.982093	0.000157	1.572310	0.532713	0.012829
 339	1.6900e-01	13.5526	31.080874	0.000242	2.421358	0.820378	0.019756
 340	1.6950e-01	13.5879	31.140742	0.000147	1.467489	0.497199	0.011974
 341	1.7000e-01	13.6280	31.234819	0.000231	2.306055	0.781313	0.018816
 342	1.7050e-01	13.6857	31.299391	0.000158	1.582792	0.536265	0.012914
 343	1.7100e-01	13.7274	31.381495	0.000201	2.012557	0.681873	0.016421
 344	1.7150e-01	13.7563	31.464882	0.000204	2.044003	0.692527	0.016677
 345	1.7200e-01	13.7868	31.533729	0.000169	1.687613	0.571779	0.013770
 346	1.7250e-01	13.8526	31.613695	0.000196	1.960147	0.664116	0.015993
 347	1.7300e-01	13.8606	31.691095	0.000190	1.897254	0.642807	0.015480
 348	1.7350e-01	13.9312	31.768495	0.000190	1.897254	0.642807	0.015480
 349	1.7400e-01	13.9745	31.841192	0.000178	1.781951	0.603741	0.014539
 350	1.7450e-01	13.9985	31.916026	0.000183	1.834362	0.621499	0.014967
 351	1.7500e-01	14.0338	32.004545	0.000217	2.169788	0.735144	0.017704
 352	1.7550e-01	14.0691	32.073392	0.000169	1.687613	0.571779	0.013770
 353	1.7600e-01	14.1237	32.146944	0.000180	1.802916	0.610844	0.014710
 354	1.7650e-01	14.1878	32.217074	0.000172	1.719059	0.582433	0.014026
 355	1.7700e-01	14.2039	32.306876	0.000220	2.201234	0.745798	0.017960
 356	1.7750e-01	14.2584	32.377006	0.000172	1.719059	0.582433	0.014026
 357	1.7800e-01	14.2568	32.456972	-0.000196	-1.960147	-0.664116	0.015993
 358	1.7850e-01	14.3162	32.526675	0.000171	1.708577	0.578882	0.013941
 359	1.7900e-01	14.3675	32.607924	0.000199	1.991593	0.674770	0.016250
 360	1.7950e-01	14.3996	32.680193	0.000177	1.771469	0.600190	0.014454
 361	1.8000e-01	14.4461	32.762297	0.000201	2.012557	0.681873	0.016421
 362	1.8050e-01	14.4718	32.833710	0.000175	1.750505	0.593087	0.014283
 363	1.8100e-01	14.5295	32.909400	0.000186	1.855326	0.628601	0.015138
 364	1.8150e-01	14.5889	32.975254	0.000161	1.614238	0.546919	0.013171
 365	1.8200e-01	14.6114	33.056075	0.000198	1.981111	0.671218	0.016164
 366	1.8250e-01	14.6386	33.132620	0.000188	1.876290	0.635704	0.015309
 367	1.8300e-01	14.6884	33.218145	0.000210	2.096413	0.710284	0.017105
 368	1.8350e-01	14.7269	33.282289	0.000157	1.572310	0.532713	0.012829
 369	1.8400e-01	14.7509	33.365248	0.000203	2.033521	0.688976	0.016592
 370	1.8450e-01	14.7702	33.446069	0.000198	1.981111	0.671218	0.016164
 371	1.8500e-01	14.8359	33.518338	0.000177	1.771469	0.600190	0.014454
 372	1.8550e-01	14.9017	33.578633	0.000148	1.477972	0.500750	0.012059
 373	1.8600e-01	14.9258	33.656461	0.000191	1.907736	0.646359	0.015566
 374	1.8650e-01	14.9771	33.723171	0.000164	1.635203	0.554022	0.013342
 375	1.8700e-01	14.9803	33.812972	0.000220	2.201234	0.745798	0.017960
 376	1.8750e-01	15.0333	33.874550	0.000151	1.509418	0.511405	0.012316
 377	1.8800e-01	15.0910	33.955799	0.000199	1.991593	0.674770	0.016250
 378	1.8850e-01	15.1151	34.024219	0.000168	1.677131	0.568227	0.013684
 379	1.8900e-01	15.1664	34.101191	0.000189	1.886772	0.639256	0.015395
 380	1.8950e-01	15.2001	34.179874	0.000193	1.928700	0.653461	0.015737
 381	1.9000e-01	15.2723	34.236321	0.000138	1.383633	0.468788	0.011289
 382	1.9050e-01	15.2739	34.323129	0.000213	2.127860	0.720938	0.017362
 383	1.9100e-01	15.3413	34.403522	0.000197	1.970629	0.667667	0.016079
 384	1.9150e-01	15.3605	34.475363	0.000176	1.760987	0.596639	0.014368
 385	1.9200e-01	15.3926	34.553619	0.000192	1.918218	0.649910	0.015651
 386	1.9250e-01	15.4616	34.614342	0.000149	1.488454	0.504302	0.012145
 387	1.9300e-01	15.4985	34.678058	0.000156	1.561828	0.529162	0.012743
 388	1.9350e-01	15.5306	34.771708	0.000230	2.295573	0.777761	0.018730
 389	1.9400e-01	15.5466	34.847825	0.000187	1.865808	0.632153	0.015223
 390	1.9450e-01	15.6092	34.908548	0.000149	1.488454	0.504302	0.012145
 391	1.9500e-01	15.6381	34.981244	0.000178	1.781951	0.603741	0.014539
 392	1.9550e-01	15.6798	35.062065	0.000198	1.981111	0.671218	0.016164
 393	1.9600e-01	15.7167	35.134762	0.000178	1.781951	0.603741	0.014539
 394	1.9650e-01	15.7873	35.199333	0.000158	1.582792	0.536265	0.012914
 395	1.9700e-01	15.7776	35.278871	-0.000195	-1.949665	-0.660564	0.015908
 396	1.9750e-01	15.8530	35.350712	0.000176	1.760987	0.596639	0.014368
 397	1.9800e-01	15.8915	35.428968	0.000192	1.918218	0.649910	0.015651
 398	1.9850e-01	15.9364	35.488835	0.000147	1.467489	0.497199	0.011974
 399	1.9900e-01	15.9782	35.573505	0.000208	2.075449	0.703181	0.016934
 400	1.9950e-01	15.9862	35.639787	0.000162	1.624720	0.550470	0.013256
 401	2.0000e-01	16.0584	35.709918	0.000172	1.719059	0.582433	0.014026
 402	2.0050e-01	16.0856	35.790311	0.000197	1.970629	0.667667	0.016079
 403	2.0100e-01	16.1354	35.868139	0.000191	1.907736	0.646359	0.015566
 404	2.0150e-01	16.1546	35.938270	0.000172	1.719059	0.582433	0.014026
 405	2.0200e-01	16.1995	36.003696	0.000160	1.603756	0.543367	0.013085
 406	2.0250e-01	16.2268	36.080241	0.000188	1.876290	0.635704	0.015309
 407	2.0300e-01	16.2509	36.160207	0.000196	1.960147	0.664116	0.015993
 408	2.0350e-01	16.2958	36.230338	0.000172	1.719059	0.582433	0.014026
 409	2.0400e-01	16.3824	36.300041	0.000171	1.708577	0.578882	0.013941
 410	2.0450e-01	16.4193	36.360763	0.000149	1.488454	0.504302	0.012145
 411	2.0500e-01	16.4434	36.437308	0.000188	1.876290	0.635704	0.015309
 412	2.0550e-01	16.4691	36.512998	0.000186	1.855326	0.628601	0.015138
 413	2.0600e-01	16.5108	36.575431	0.000153	1.530382	0.518507	0.012487
 414	2.0650e-01	16.5733	36.656680	0.000199	1.991593	0.674770	0.016250
 415	2.0700e-01	16.6022	36.724672	0.000167	1.666649	0.564676	0.013598
 416	2.0750e-01	16.6535	36.787533	0.000154	1.540864	0.522059	0.012572
 417	2.0800e-01	16.6856	36.856809	0.000170	1.698095	0.575330	0.013855
 418	2.0850e-01	16.7273	36.936347	0.000195	1.949665	0.660564	0.015908
 419	2.0900e-01	16.7674	37.015885	0.000195	1.949665	0.660564	0.015908
 420	2.0950e-01	16.7883	37.089009	0.000179	1.792434	0.607293	0.014625
 421	2.1000e-01	16.8300	37.154863	0.000161	1.614238	0.546919	0.013171
 422	2.1050e-01	16.8974	37.224994	0.000172	1.719059	0.582433	0.014026
 423	2.1100e-01	16.9134	37.299401	0.000182	1.823880	0.617947	0.014881
 424	2.1150e-01	16.9583	37.362262	0.000154	1.540864	0.522059	0.012572
 425	2.1200e-01	16.9985	37.447787	0.000210	2.096413	0.710284	0.017105
 426	2.1250e-01	17.0305	37.510220	0.000153	1.530382	0.518507	0.012487
 427	2.1300e-01	17.0738	37.581206	0.000174	1.740023	0.589536	0.014197
 428	2.1350e-01	17.1348	37.648343	0.000165	1.645685	0.557573	0.013427
 429	2.1400e-01	17.1621	37.718046	0.000171	1.708577	0.578882	0.013941
 430	2.1450e-01	17.1829	37.795874	0.000191	1.907736	0.646359	0.015566
 431	2.1500e-01	17.2680	37.846333	0.000124	1.236884	0.419068	0.010092
 432	2.1550e-01	17.2952	37.933569	0.000214	2.138342	0.724490	0.017447
 433	2.1600e-01	17.3129	37.998568	0.000159	1.593274	0.539816	0.013000
 434	2.1650e-01	17.3690	38.077251	0.000193	1.928700	0.653461	0.015737
 435	2.1700e-01	17.3979	38.146099	0.000169	1.687613	0.571779	0.013770
 436	2.1750e-01	17.4284	38.202545	0.000138	1.383633	0.468788	0.011289
 437	2.1800e-01	17.4669	38.280373	0.000191	1.907736	0.646359	0.015566
 438	2.1850e-01	17.5311	38.332543	0.000128	1.278812	0.433273	0.010434
 439	2.1900e-01	17.5840	38.412509	0.000196	1.960147	0.664116	0.015993
 440	2.1950e-01	17.6193	38.493331	0.000198	1.981111	0.671218	0.016164
 441	2.2000e-01	17.6225	38.554481	0.000150	1.498936	0.507853	0.012230
 442	2.2050e-01	17.7011	38.631881	0.000190	1.897254	0.642807	0.015480
 443	2.2100e-01	17.7204	38.705860	0.000181	1.813398	0.614396	0.014796
 444	2.2150e-01	17.7877	38.772142	0.000162	1.624720	0.550470	0.013256
 445	2.2200e-01	17.7829	38.848260	-0.000187	-1.865808	-0.632153	0.015223
 446	2.2250e-01	17.8439	38.914541	0.000162	1.624720	0.550470	0.013256
 447	2.2300e-01	17.8856	38.974837	0.000148	1.477972	0.500750	0.012059
 448	2.2350e-01	17.9193	39.056085	0.000199	1.991593	0.674770	0.016250
 449	2.2400e-01	17.9530	39.116808	0.000149	1.488454	0.504302	0.012145
 450	2.2450e-01	18.0155	39.191643	0.000183	1.834362	0.621499	0.014967
 451	2.2500e-01	18.0187	39.263911	0.000177	1.771469	0.600190	0.014454
 452	2.2550e-01	18.0813	39.323351	0.000146	1.457007	0.493647	0.011888
 453	2.2600e-01	18.1262	39.396903	0.000180	1.802916	0.610844	0.014710
 454	2.2650e-01	18.1711	39.464895	0.000167	1.666649	0.564676	0.013598
 455	2.2700e-01	18.2048	39.535026	0.000172	1.719059	0.582433	0.014026
 456	2.2750e-01	18.2401	39.593610	0.000144	1.436043	0.486545	0.011717
 457	2.2800e-01	18.2899	39.676997	0.000204	2.044003	0.692527	0.016677
 458	2.2850e-01	18.2995	39.751404	0.000182	1.823880	0.617947	0.014881
 459	2.2900e-01	18.3877	39.806995	0.000136	1.362669	0.461685	0.011118
 460	2.2950e-01	18.4086	39.880547	0.000180	1.802916	0.610844	0.014710
 461	2.3000e-01	18.4567	39.943408	0.000154	1.540864	0.522059	0.012572
 462	2.3050e-01	18.4968	40.013966	0.000173	1.729541	0.585984	0.014112
 463	2.3100e-01	18.5417	40.075972	0.000152	1.519900	0.514956	0.012401
 464	2.3150e-01	18.5658	40.154227	0.000192	1.918218	0.649910	0.015651
 465	2.3200e-01	18.6027	40.212812	0.000144	1.436043	0.486545	0.011717
 466	2.3250e-01	18.6396	40.290640	0.000191	1.907736	0.646359	0.015566
 467	2.3300e-01	18.6444	40.358204	0.000166	1.656167	0.561124	0.013513
 468	2.3350e-01	18.7246	40.426624	0.000168	1.677131	0.568227	0.013684
 469	2.3400e-01	18.7775	40.498038	0.000175	1.750505	0.593087	0.014283
 470	2.3450e-01	18.7872	40.579287	0.000199	1.991593	0.674770	0.016250
 471	2.3500e-01	18.8353	40.645141	0.000161	1.614238	0.546919	0.013171
 472	2.3550e-01	18.9027	40.700732	0.000136	1.362669	0.461685	0.011118
 473	2.3600e-01	18.8995	40.778988	-0.000192	-1.918218	-0.649910	0.015651
 474	2.3650e-01	18.9572	40.844842	0.000161	1.614238	0.546919	0.013171
 475	2.3700e-01	19.0070	40.913262	0.000168	1.677131	0.568227	0.013684
 476	2.3750e-01	19.0278	40.972274	0.000145	1.446525	0.490096	0.011802
 477	2.3800e-01	19.0936	41.046253	0.000181	1.813398	0.614396	0.014796
 478	2.3850e-01	19.1529	41.104838	0.000144	1.436043	0.486545	0.011717
 479	2.3900e-01	19.1529	41.200199	-0.000234	-2.337501	-0.791967	0.019072
 480	2.3950e-01	19.1930	41.258783	0.000144	1.436043	0.486545	0.011717
 481	2.4000e-01	19.2364	41.317795	0.000145	1.446525	0.490096	0.011802
 482	2.4050e-01	19.2845	41.372104	0.000133	1.331223	0.451030	0.010862
 483	2.4100e-01	19.3326	41.459767	0.000215	2.148824	0.728041	0.017533
 484	2.4150e-01	19.3647	41.514931	0.000135	1.352187	0.458133	0.011033
 485	2.4200e-01	19.3968	41.599173	0.000206	2.064967	0.699630	0.016848
 486	2.4250e-01	19.3936	41.679994	-0.000198	-1.981111	-0.671218	0.016164
 487	2.4300e-01	19.4818	41.739006	0.000145	1.446525	0.490096	0.011802
 488	2.4350e-01	19.5299	41.791177	0.000128	1.278812	0.433273	0.010434
 489	2.4400e-01	19.5412	41.863873	0.000178	1.781951	0.603741	0.014539
 490	2.4450e-01	19.6230	41.919037	0.000135	1.352187	0.458133	0.011033
 491	2.4500e-01	19.6454	41.985319	0.000162	1.624720	0.550470	0.013256
 492	2.4550e-01	19.6647	42.048607	0.000155	1.551346	0.525610	0.012658
 493	2.4600e-01	19.7080	42.119593	0.000174	1.740023	0.589536	0.014197
 494	2.4650e-01	19.7401	42.188013	0.000168	1.677131	0.568227	0.013684
 495	2.4700e-01	19.8283	42.247025	0.000145	1.446525	0.490096	0.011802
 496	2.4750e-01	19.8508	42.324425	0.000190	1.897254	0.642807	0.015480
 497	2.4800e-01	19.8732	42.393701	0.000170	1.698095	0.575330	0.013855
 498	2.4850e-01	19.9294	42.453568	0.000147	1.467489	0.497199	0.011974
 499	2.4900e-01	19.9551	42.528830	0.000184	1.844844	0.625050	0.015052
 500	2.4950e-01	20.0144	42.589553	0.000149	1.488454	0.504302	0.012145
 501	2.5000e-01	20.0401	42.672940	0.000204	2.044003	0.692527	0.016677
 502	2.5050e-01	19.9871	42.707150	-0.000084	-0.838565	-0.284114	0.006842
 503	2.5100e-01	19.9438	42.685341	0.000053	0.534585	0.181122	-0.004362
 504	2.5150e-01	19.8941	42.648993	0.000089	0.890976	0.301871	-0.007270
 505	2.5200e-01	19.8379	42.604092	0.000110	1.100617	0.372899	-0.008980
 506	2.5250e-01	19.8203	42.558336	0.000112	1.121581	0.380002	-0.009151
 507	2.5300e-01	19.7930	42.495048	0.000155	1.551346	0.525610	-0.012658
 508	2.5350e-01	19.7561	42.441595	0.000131	1.310258	0.443928	-0.010691
 509	2.5400e-01	19.6743	42.396266	0.000111	1.111099	0.376451	-0.009066
 510	2.5450e-01	19.6470	42.338965	0.000140	1.404597	0.475890	-0.011460
 511	2.5500e-01	19.6246	42.275248	0.000156	1.561828	0.529162	-0.012743
 512	2.5550e-01	19.5893	42.213243	0.000152	1.519900	0.514956	-0.012401
 513	2.5600e-01	19.5444	42.159362	0.000132	1.320740	0.447479	-0.010776
 514	2.5650e-01	19.4866	42.099067	0.000148	1.477972	0.500750	-0.012059
 515	2.5700e-01	19.4642	42.038772	0.000148	1.477972	0.500750	-0.012059
 516	2.5750e-01	19.4401	41.985319	0.000131	1.310258	0.443928	-0.010691
 517	2.5800e-01	19.4273	41.913050	0.000177	1.771469	0.600190	-0.014454
 518	2.5850e-01	19.3085	41.882261	0.000075	0.754709	0.255702	-0.006158
 519	2.5900e-01	19.2797	41.812986	0.000170	1.698095	0.575330	-0.013855
 520	2.5950e-01	19.2636	41.767657	0.000111	1.111099	0.376451	-0.009066
 521	2.6000e-01	19.2107	41.697954	0.000171	1.708577	0.578882	-0.013941
 522	2.6050e-01	19.1706	41.641508	0.000138	1.383633	0.468788	-0.011289
 523	2.6100e-01	19.1449	41.584206	0.000140	1.404597	0.475890	-0.011460
 524	2.6150e-01	19.0823	41.535884	0.000118	1.184474	0.401311	-0.009664
 525	2.6200e-01	19.0535	41.464043	0.000176	1.760987	0.596639	-0.014368
 526	2.6250e-01	18.9957	41.411445	0.000129	1.289294	0.436825	-0.010520
 527	2.6300e-01	19.0021	41.342598	-0.000169	-1.687613	-0.571779	-0.013770
 528	2.6350e-01	18.9492	41.293848	0.000119	1.194956	0.404862	-0.009750
 529	2.6400e-01	18.8770	41.237830	0.000137	1.373151	0.465236	-0.011204
 530	2.6450e-01	18.8578	41.172403	0.000160	1.603756	0.543367	-0.013085
 531	2.6500e-01	18.7952	41.113818	0.000144	1.436043	0.486545	-0.011717
 532	2.6550e-01	18.7743	41.056516	0.000140	1.404597	0.475890	-0.011460
 533	2.6600e-01	18.7455	40.987669	0.000169	1.687613	0.571779	-0.013770
 534	2.6650e-01	18.6925	40.931222	0.000138	1.383633	0.468788	-0.011289
 535	2.6700e-01	18.6669	40.870072	0.000150	1.498936	0.507853	-0.012230
 536	2.6750e-01	18.6139	40.817474	0.000129	1.289294	0.436825	-0.010520
 537	2.6800e-01	18.5722	40.749909	0.000166	1.656167	0.561124	-0.013513
 538	2.6850e-01	18.5337	40.689186	0.000149	1.488454	0.504302	-0.012145
 539	2.6900e-01	18.5048	40.632312	0.000139	1.394115	0.472339	-0.011375
 540	2.6950e-01	18.4615	40.571589	0.000149	1.488454	0.504302	-0.012145
 541	2.7000e-01	18.4134	40.511294	0.000148	1.477972	0.500750	-0.012059
 542	2.7050e-01	18.3701	40.453137	0.000143	1.425561	0.482993	-0.011631
 543	2.7100e-01	18.3300	40.384717	0.000168	1.677131	0.568227	-0.013684
 544	2.7150e-01	18.2963	40.320573	0.000157	1.572310	0.532713	-0.012829
 545	2.7200e-01	18.2818	40.254291	0.000162	1.624720	0.550470	-0.013256
 546	2.7250e-01	18.2401	40.198700	0.000136	1.362669	0.461685	-0.011118
 547	2.7300e-01	18.1984	40.138833	0.000147	1.467489	0.497199	-0.011974
 548	2.7350e-01	18.1214	40.075972	0.000154	1.540864	0.522059	-0.012572
 549	2.7400e-01	18.0941	40.017387	0.000144	1.436043	0.486545	-0.011717
 550	2.7450e-01	18.0444	39.957092	0.000148	1.477972	0.500750	-0.012059
 551	2.7500e-01	18.0075	39.889099	0.000167	1.666649	0.564676	-0.013598
 552	2.7550e-01	17.9610	39.831370	0.000142	1.415079	0.479442	-0.011546
 553	2.7600e-01	17.9353	39.762950	0.000168	1.677131	0.568227	-0.013684
 554	2.7650e-01	17.9129	39.702655	0.000148	1.477972	0.500750	-0.012059
 555	2.7700e-01	17.8487	39.645781	0.000139	1.394115	0.472339	-0.011375
 556	2.7750e-01	17.8086	39.582920	0.000154	1.540864	0.522059	-0.012572
 557	2.7800e-01	17.7877	39.509796	0.000179	1.792434	0.607293	-0.014625
 558	2.7850e-01	17.7508	39.445224	0.000158	1.582792	0.536265	-0.012914
 559	2.7900e-01	17.6835	39.387495	0.000142	1.415079	0.479442	-0.011546
 560	2.7950e-01	17.6754	39.321641	0.000161	1.614238	0.546919	-0.013171
 561	2.8000e-01	17.6000	39.260490	0.000150	1.498936	0.507853	-0.012230
 562	2.8050e-01	17.5824	39.203616	0.000139	1.394115	0.472339	-0.011375
 563	2.8100e-01	17.5086	39.149735	0.000132	1.320740	0.447479	-0.010776
 564	2.8150e-01	17.5070	39.069769	0.000196	1.960147	0.664116	-0.015993
 565	2.8200e-01	17.4637	39.004343	0.000160	1.603756	0.543367	-0.013085
 566	2.8250e-01	17.4236	38.949179	0.000135	1.352187	0.458133	-0.011033
 567	2.8300e-01	17.3770	38.882042	0.000165	1.645685	0.557573	-0.013427
 568	2.8350e-01	17.3337	38.827734	0.000133	1.331223	0.451030	-0.010862
 569	2.8400e-01	17.2904	38.759741	0.000167	1.666649	0.564676	-0.013598
 570	2.8450e-01	17.2503	38.697735	0.000152	1.519900	0.514956	-0.012401
 571	2.8500e-01	17.2150	38.634019	0.000156	1.561828	0.529162	-0.012743
 572	2.8550e-01	17.1701	38.567737	0.000162	1.624720	0.550470	-0.013256
 573	2.8600e-01	17.1332	38.501455	0.000162	1.624720	0.550470	-0.013256
 574	2.8650e-01	17.0963	38.433891	0.000166	1.656167	0.561124	-0.013513
 575	2.8700e-01	17.0594	38.377016	0.000139	1.394115	0.472339	-0.011375
 576	2.8750e-01	17.0257	38.311162	0.000161	1.614238	0.546919	-0.013171
 577	2.8800e-01	16.9760	38.245736	0.000160	1.603756	0.543367	-0.013085
 578	2.8850e-01	16.9423	38.179026	0.000164	1.635203	0.554022	-0.013342
 579	2.8900e-01	16.8813	38.123007	0.000137	1.373151	0.465236	-0.011204
 580	2.8950e-01	16.8444	38.058008	0.000159	1.593274	0.539816	-0.013000
 581	2.9000e-01	16.8172	37.986595	0.000175	1.750505	0.593087	-0.014283
 582	2.9050e-01	16.7787	37.920740	0.000161	1.614238	0.546919	-0.013171
 583	2.9100e-01	16.7466	37.856597	0.000157	1.572310	0.532713	-0.012829
 584	2.9150e-01	16.7177	37.789032	0.000166	1.656167	0.561124	-0.013513
 585	2.9200e-01	16.6519	37.717191	0.000176	1.760987	0.596639	-0.014368
 586	2.9250e-01	16.6102	37.656468	0.000149	1.488454	0.504302	-0.012145
 587	2.9300e-01	16.5765	37.595317	0.000150	1.498936	0.507853	-0.012230
 588	2.9350e-01	16.5188	37.533312	0.000152	1.519900	0.514956	-0.012401
 589	2.9400e-01	16.5108	37.458477	0.000183	1.834362	0.621499	-0.014967
 590	2.9450e-01	16.4482	37.398182	0.000148	1.477972	0.500750	-0.012059
 591	2.9500e-01	16.4001	37.327196	0.000174	1.740023	0.589536	-0.014197
 592	2.9550e-01	16.3824	37.266046	0.000150	1.498936	0.507853	-0.012230
 593	2.9600e-01	16.3295	37.202757	0.000155	1.551346	0.525610	-0.012658
 594	2.9650e-01	16.3022	37.147166	0.000136	1.362669	0.461685	-0.011118
 595	2.9700e-01	16.2605	37.090292	0.000139	1.394115	0.472339	-0.011375
 596	2.9750e-01	16.2220	37.018023	0.000177	1.771469	0.600190	-0.014454
 597	2.9800e-01	16.1867	36.931215	0.000213	2.127860	0.720938	-0.017362
 598	2.9850e-01	16.1691	36.866216	0.000159	1.593274	0.539816	-0.013000
 599	2.9900e-01	16.1001	36.811053	0.000135	1.352187	0.458133	-0.011033
 600	2.9950e-01	16.0600	36.747764	0.000155	1.551346	0.525610	-0.012658
 601	3.0000e-01	16.0263	36.675495	0.000177	1.771469	0.600190	-0.014454
 602	3.0050e-01	15.9846	36.603654	0.000176	1.760987	0.596639	-0.014368
 603	3.0100e-01	15.9076	36.539938	0.000156	1.561828	0.529162	-0.012743
 604	3.0150e-01	15.9188	36.467670	-0.000177	-1.771469	-0.600190	-0.014454
 605	3.0200e-01	15.8675	36.412506	0.000135	1.352187	0.458133	-0.011033
 606	3.0250e-01	15.8193	36.346652	0.000161	1.614238	0.546919	-0.013171
 607	3.0300e-01	15.7520	36.280797	0.000161	1.614238	0.546919	-0.013171
 608	3.0350e-01	15.7247	36.205108	0.000186	1.855326	0.628601	-0.015138
 609	3.0400e-01	15.7231	36.127708	0.000190	1.897254	0.642807	-0.015480
 610	3.0450e-01	15.6397	36.079813	0.000117	1.173992	0.397759	-0.009579
 611	3.0500e-01	15.6220	35.998137	0.000200	2.002075	0.678321	-0.016335
 612	3.0550e-01	15.5514	35.938270	0.000147	1.467489	0.497199	-0.011974
 613	3.0600e-01	15.5258	35.866001	0.000177	1.771469	0.600190	-0.014454
 614	3.0650e-01	15.4937	35.797153	0.000169	1.687613	0.571779	-0.013770
 615	3.0700e-01	15.4391	35.728733	0.000168	1.677131	0.568227	-0.013684
 616	3.0750e-01	15.3846	35.668010	0.000149	1.488454	0.504302	-0.012145
 617	3.0800e-01	15.3926	35.588044	-0.000196	-1.960147	-0.664116	-0.015993
 618	3.0850e-01	15.3509	35.520052	0.000167	1.666649	0.564676	-0.013598
 619	3.0900e-01	15.3108	35.452915	0.000165	1.645685	0.557573	-0.013427
 620	3.0950e-01	15.2611	35.389626	0.000155	1.551346	0.525610	-0.012658
 621	3.1000e-01	15.1985	35.327193	0.000153	1.530382	0.518507	-0.012487
 622	3.1050e-01	15.1776	35.260056	0.000165	1.645685	0.557573	-0.013427
 623	3.1100e-01	15.1488	35.190353	0.000171	1.708577	0.578882	-0.013941
 624	3.1150e-01	15.0942	35.123643	0.000164	1.635203	0.554022	-0.013342
 625	3.1200e-01	15.0461	35.065059	0.000144	1.436043	0.486545	-0.011717
 626	3.1250e-01	15.0236	34.989369	0.000186	1.855326	0.628601	-0.015138
 627	3.1300e-01	14.9531	34.914962	0.000182	1.823880	0.617947	-0.014881
 628	3.1350e-01	14.9129	34.855522	0.000146	1.457007	0.493647	-0.011888
 629	3.1400e-01	14.9210	34.776412	-0.000194	-1.939182	-0.657013	-0.015822
 630	3.1450e-01	14.8616	34.708419	0.000167	1.666649	0.564676	-0.013598
 631	3.1500e-01	14.8311	34.650690	0.000142	1.415079	0.479442	-0.011546
 632	3.1550e-01	14.8023	34.574573	0.000187	1.865808	0.632153	-0.015223
 633	3.1600e-01	14.7589	34.498883	0.000186	1.855326	0.628601	-0.015138
 634	3.1650e-01	14.6868	34.436022	0.000154	1.540864	0.522059	-0.012572
 635	3.1700e-01	14.6370	34.370595	0.000160	1.603756	0.543367	-0.013085
 636	3.1750e-01	14.6146	34.304741	0.000161	1.614238	0.546919	-0.013171
 637	3.1800e-01	14.5745	34.225203	0.000195	1.949665	0.660564	-0.015908
 638	3.1850e-01	14.5472	34.155072	0.000172	1.719059	0.582433	-0.014026
 639	3.1900e-01	14.5039	34.092211	0.000154	1.540864	0.522059	-0.012572
 640	3.1950e-01	14.4429	34.029350	0.000154	1.540864	0.522059	-0.012572
 641	3.2000e-01	14.4156	33.948957	0.000197	1.970629	0.667667	-0.016079
 642	3.2050e-01	14.3627	33.877971	0.000174	1.740023	0.589536	-0.014197
 643	3.2100e-01	14.3306	33.809979	0.000167	1.666649	0.564676	-0.013598
 644	3.2150e-01	14.2937	33.737710	0.000177	1.771469	0.600190	-0.014454
 645	3.2200e-01	14.2360	33.666296	0.000175	1.750505	0.593087	-0.014283
 646	3.2250e-01	14.1830	33.599587	0.000164	1.635203	0.554022	-0.013342
 647	3.2300e-01	14.1702	33.533733	0.000161	1.614238	0.546919	-0.013171
 648	3.2350e-01	14.1156	33.449490	0.000206	2.064967	0.699630	-0.016848
 649	3.2400e-01	14.0900	33.381926	0.000166	1.656167	0.561124	-0.013513
 650	3.2450e-01	14.0579	33.318637	0.000155	1.551346	0.525610	-0.012658
 651	3.2500e-01	14.0483	33.239099	0.000195	1.949665	0.660564	-0.015908
 652	3.2550e-01	13.9921	33.171106	0.000167	1.666649	0.564676	-0.013598
 653	3.2600e-01	13.9296	33.104824	0.000162	1.624720	0.550470	-0.013256
 654	3.2650e-01	13.8894	33.041536	0.000155	1.551346	0.525610	-0.012658
 655	3.2700e-01	13.8590	32.974826	0.000164	1.635203	0.554022	-0.013342
 656	3.2750e-01	13.8076	32.896571	0.000192	1.918218	0.649910	-0.015651
 657	3.2800e-01	13.7627	32.830717	0.000161	1.614238	0.546919	-0.013171
 658	3.2850e-01	13.7322	32.759731	0.000174	1.740023	0.589536	-0.014197
 659	3.2900e-01	13.7274	32.683614	0.000187	1.865808	0.632153	-0.015223
 660	3.2950e-01	13.6392	32.621608	0.000152	1.519900	0.514956	-0.012401
 661	3.3000e-01	13.6280	32.537793	0.000205	2.054485	0.696078	-0.016763
 662	3.3050e-01	13.5734	32.468518	0.000170	1.698095	0.575330	-0.013855
 663	3.3100e-01	13.5317	32.397532	0.000174	1.740023	0.589536	-0.014197
 664	3.3150e-01	13.5125	32.322270	0.000184	1.844844	0.625050	-0.015052
 665	3.3200e-01	13.4563	32.241877	0.000197	1.970629	0.667667	-0.016079
 666	3.3250e-01	13.4066	32.170463	0.000175	1.750505	0.593087	-0.014283
 667	3.3300e-01	13.3584	32.115727	0.000134	1.341705	0.454582	-0.010947
 668	3.3350e-01	13.3232	32.037044	0.000193	1.928700	0.653461	-0.015737
 669	3.3400e-01	13.3232	31.957933	0.000194	1.939182	0.657013	-0.015822
 670	3.3450e-01	13.2526	31.884382	0.000180	1.802916	0.610844	-0.014710
 671	3.3500e-01	13.1996	31.813824	0.000173	1.729541	0.585984	-0.014112
 672	3.3550e-01	13.1788	31.746259	0.000166	1.656167	0.561124	-0.013513
 673	3.3600e-01	13.1339	31.670569	0.000186	1.855326	0.628601	-0.015138
 674	3.3650e-01	13.0937	31.604287	0.000162	1.624720	0.550470	-0.013256
 675	3.3700e-01	13.0536	31.534584	0.000171	1.708577	0.578882	-0.013941
 676	3.3750e-01	13.0280	31.450342	0.000206	2.064967	0.699630	-0.016848
 677	3.3800e-01	12.9381	31.380639	0.000171	1.708577	0.578882	-0.013941
 678	3.3850e-01	12.9333	31.313502	0.000165	1.645685	0.557573	-0.013427
 679	3.3900e-01	12.9205	31.212583	0.000247	2.473768	0.838135	-0.020184
 680	3.3950e-01	12.8467	31.159129	0.000131	1.310258	0.443928	-0.010691
 681	3.4000e-01	12.8066	31.093703	0.000160	1.603756	0.543367	-0.013085
 682	3.4050e-01	12.7825	31.027421	0.000162	1.624720	0.550470	-0.013256
 683	3.4100e-01	12.7168	30.955580	0.000176	1.760987	0.596639	-0.014368
 684	3.4150e-01	12.6815	30.871765	0.000205	2.054485	0.696078	-0.016763
 685	3.4200e-01	12.6606	30.808049	0.000156	1.561828	0.529162	-0.012743
 686	3.4250e-01	12.6478	30.719103	0.000218	2.180270	0.738695	-0.017789
 687	3.4300e-01	12.5852	30.663512	0.000136	1.362669	0.461685	-0.011118
 688	3.4350e-01	12.5483	30.581408	0.000201	2.012557	0.681873	-0.016421
 689	3.4400e-01	12.4841	30.511705	0.000171	1.708577	0.578882	-0.013941
 690	3.4450e-01	12.4601	30.427463	0.000206	2.064967	0.699630	-0.016848
 691	3.4500e-01	12.4264	30.354339	0.000179	1.792434	0.607293	-0.014625
 692	3.4550e-01	12.3670	30.291050	0.000155	1.551346	0.525610	-0.012658
 693	3.4600e-01	12.3333	30.213222	0.000191	1.907736	0.646359	-0.015566
 694	3.4650e-01	12.2980	30.121711	0.000224	2.243162	0.760004	-0.018302
 695	3.4700e-01	12.2451	30.060988	0.000149	1.488454	0.504302	-0.012145
 696	3.4750e-01	12.2371	29.986581	0.000182	1.823880	0.617947	-0.014881
 697	3.4800e-01	12.1729	29.902339	0.000206	2.064967	0.699630	-0.016848
 698	3.4850e-01	12.1136	29.835629	0.000164	1.635203	0.554022	-0.013342
 699	3.4900e-01	12.1136	29.766782	0.000169	1.687613	0.571779	-0.013770
 700	3.4950e-01	12.0510	29.681684	0.000209	2.085931	0.706733	-0.017019
 701	3.5000e-01	11.9981	29.615830	0.000161	1.614238	0.546919	-0.013171
 702	3.5050e-01	11.9676	29.546982	0.000169	1.687613	0.571779	-0.013770
 703	3.5100e-01	11.9531	29.467444	0.000195	1.949665	0.660564	-0.015908
 704	3.5150e-01	11.9227	29.387478	0.000196	1.960147	0.664116	-0.015993
 705	3.5200e-01	11.8633	29.314782	0.000178	1.781951	0.603741	-0.014539
 706	3.5250e-01	11.7927	29.236526	0.000192	1.918218	0.649910	-0.015651
 707	3.5300e-01	11.7622	29.162119	0.000182	1.823880	0.617947	-0.014881
 708	3.5350e-01	11.7253	29.083436	0.000193	1.928700	0.653461	-0.015737
 709	3.5400e-01	11.6933	29.000477	0.000203	2.033521	0.688976	-0.016592
 710	3.5450e-01	11.6451	28.933768	0.000164	1.635203	0.554022	-0.013342
 711	3.5500e-01	11.6066	28.866203	0.000166	1.656167	0.561124	-0.013513
 712	3.5550e-01	11.5810	28.783671	0.000202	2.023039	0.685424	-0.016506
 713	3.5600e-01	11.5729	28.705416	0.000192	1.918218	0.649910	-0.015651
 714	3.5650e-01	11.5200	28.622456	0.000203	2.033521	0.688976	-0.016592
 715	3.5700e-01	11.4783	28.560451	0.000152	1.519900	0.514956	-0.012401
 716	3.5750e-01	11.4029	28.485189	0.000184	1.844844	0.625050	-0.015052
 717	3.5800e-01	11.3516	28.407788	0.000190	1.897254	0.642807	-0.015480
 718	3.5850e-01	11.3275	28.324829	0.000203	2.033521	0.688976	-0.016592
 719	3.5900e-01	11.3195	28.246146	0.000193	1.928700	0.653461	-0.015737
 720	3.5950e-01	11.2665	28.170029	0.000187	1.865808	0.632153	-0.015223
 721	3.6000e-01	11.2184	28.101609	0.000168	1.677131	0.568227	-0.013684
 722	3.6050e-01	11.1847	28.017794	0.000205	2.054485	0.696078	-0.016763
 723	3.6100e-01	11.1398	27.935263	0.000202	2.023039	0.685424	-0.016506
 724	3.6150e-01	11.1013	27.863849	0.000175	1.750505	0.593087	-0.014283
 725	3.6200e-01	11.0660	27.785594	0.000192	1.918218	0.649910	-0.015651
 726	3.6250e-01	11.0323	27.701351	0.000206	2.064967	0.699630	-0.016848
 727	3.6300e-01	10.9713	27.634214	0.000165	1.645685	0.557573	-0.013427
 728	3.6350e-01	10.9248	27.564084	0.000172	1.719059	0.582433	-0.014026
 729	3.6400e-01	10.8976	27.471717	0.000226	2.264127	0.767107	-0.018473
 730	3.6450e-01	10.8879	27.395172	0.000188	1.876290	0.635704	-0.015309
 731	3.6500e-01	10.8334	27.316489	0.000193	1.928700	0.653461	-0.015737
 732	3.6550e-01	10.7981	27.236523	0.000196	1.960147	0.664116	-0.015993
 733	3.6600e-01	10.7339	27.156557	0.000196	1.960147	0.664116	-0.015993
 734	3.6650e-01	10.7163	27.079584	0.000189	1.886772	0.639256	-0.015395
 735	3.6700e-01	10.6521	27.014158	0.000160	1.603756	0.543367	-0.013085
 736	3.6750e-01	10.5992	26.934192	0.000196	1.960147	0.664116	-0.015993
 737	3.6800e-01	10.5831	26.855509	0.000193	1.928700	0.653461	-0.015737
 738	3.6850e-01	10.5398	26.764852	0.000222	2.222198	0.752901	-0.018131
 739	3.6900e-01	10.4788	26.695149	0.000171	1.708577	0.578882	-0.013941
 740	3.6950e-01	10.4612	26.614328	0.000198	1.981111	0.671218	-0.016164
 741	3.7000e-01	10.4147	26.536073	0.000192	1.918218	0.649910	-0.015651
 742	3.7050e-01	10.3569	26.453113	0.000203	2.033521	0.688976	-0.016592
 743	3.7100e-01	10.3489	26.373147	0.000196	1.960147	0.664116	-0.015993
 744	3.7150e-01	10.3264	26.293181	0.000196	1.960147	0.664116	-0.015993
 745	3.7200e-01	10.2430	26.220485	0.000178	1.781951	0.603741	-0.014539
 746	3.7250e-01	10.1917	26.142230	0.000192	1.918218	0.649910	-0.015651
 747	3.7300e-01	10.2077	26.051573	-0.000222	-2.222198	-0.752901	-0.018131
 748	3.7350e-01	10.1404	25.988285	0.000155	1.551346	0.525610	-0.012658
 749	3.7400e-01	10.1035	25.895490	0.000227	2.274609	0.770658	-0.018559
 750	3.7450e-01	10.0505	25.815952	0.000195	1.949665	0.660564	-0.015908
 751	3.7500e-01	9.9976	25.746249	0.000171	1.708577	0.578882	-0.013941
 752	3.7550e-01	9.9735	25.665000	0.000199	1.991593	0.674770	-0.016250
 753	3.7600e-01	9.9334	25.583323	0.000200	2.002075	0.678321	-0.016335
 754	3.7650e-01	9.8805	25.504213	0.000194	1.939182	0.657013	-0.015822
 755	3.7700e-01	9.8500	25.405859	0.000241	2.410876	0.816827	-0.019671
 756	3.7750e-01	9.8275	25.337867	0.000167	1.666649	0.564676	-0.013598
 757	3.7800e-01	9.7762	25.244644	0.000229	2.285091	0.774210	-0.018644
 758	3.7850e-01	9.7297	25.182639	0.000152	1.519900	0.514956	-0.012401
 759	3.7900e-01	9.7136	25.095403	0.000214	2.138342	0.724490	-0.017447
 760	3.7950e-01	9.6430	25.023562	0.000176	1.760987	0.596639	-0.014368
 761	3.8000e-01	9.6302	24.920932	0.000252	2.515696	0.852341	-0.020526
 762	3.8050e-01	9.5789	24.851657	0.000170	1.698095	0.575330	-0.013855
 763	3.8100e-01	9.5340	24.772546	0.000194	1.939182	0.657013	-0.015822
 764	3.8150e-01	9.4922	24.698567	0.000181	1.813398	0.614396	-0.014796
 765	3.8200e-01	9.4634	24.606627	0.000225	2.253644	0.763555	-0.018388
 766	3.8250e-01	9.4297	24.527089	0.000195	1.949665	0.660564	-0.015908
 767	3.8300e-01	9.3495	24.448406	0.000193	1.928700	0.653461	-0.015737
 768	3.8350e-01	9.3302	24.364164	0.000206	2.064967	0.699630	-0.016848
 769	3.8400e-01	9.2949	24.276073	0.000216	2.159306	0.731593	-0.017618
 770	3.8450e-01	9.2404	24.199100	0.000189	1.886772	0.639256	-0.015395
 771	3.8500e-01	9.2083	24.118279	0.000198	1.981111	0.671218	-0.016164
 772	3.8550e-01	9.1618	24.031044	0.000214	2.138342	0.724490	-0.017447
 773	3.8600e-01	9.1409	23.960486	0.000173	1.729541	0.585984	-0.014112
 774	3.8650e-01	9.0896	23.880092	0.000197	1.970629	0.667667	-0.016079
 775	3.8700e-01	9.0639	23.797560	0.000202	2.023039	0.685424	-0.016506
 776	3.8750e-01	9.0110	23.706904	0.000222	2.222198	0.752901	-0.018131
 777	3.8800e-01	8.9693	23.628648	0.000192	1.918218	0.649910	-0.015651
 778	3.8850e-01	8.9340	23.550393	0.000192	1.918218	0.649910	-0.015651
 779	3.8900e-01	8.8794	23.455033	0.000234	2.337501	0.791967	-0.019072
 780	3.8950e-01	8.8522	23.380198	0.000183	1.834362	0.621499	-0.014967
 781	3.9000e-01	8.8217	23.298094	0.000201	2.012557	0.681873	-0.016421
 782	3.9050e-01	8.7768	23.214279	0.000205	2.054485	0.696078	-0.016763
 783	3.9100e-01	8.7254	23.128754	0.000210	2.096413	0.710284	-0.017105
 784	3.9150e-01	8.6933	23.035104	0.000230	2.295573	0.777761	-0.018730
 785	3.9200e-01	8.6516	22.963263	0.000176	1.760987	0.596639	-0.014368
 786	3.9250e-01	8.6420	22.864054	0.000243	2.431840	0.823930	-0.019842
 787	3.9300e-01	8.5762	22.788365	0.000186	1.855326	0.628601	-0.015138
 788	3.9350e-01	8.5393	22.709254	0.000194	1.939182	0.657013	-0.015822
 789	3.9400e-01	8.5056	22.630571	0.000193	1.928700	0.653461	-0.015737
 790	3.9450e-01	8.4511	22.545474	0.000209	2.085931	0.706733	-0.017019
 791	3.9500e-01	8.4222	22.460376	0.000209	2.085931	0.706733	-0.017019
 792	3.9550e-01	8.3837	22.383831	0.000188	1.876290	0.635704	-0.015309
 793	3.9600e-01	8.3372	22.285905	0.000240	2.400393	0.813275	-0.019585
 794	3.9650e-01	8.2875	22.215774	0.000172	1.719059	0.582433	-0.014026
 795	3.9700e-01	8.2297	22.116138	0.000244	2.442322	0.827481	-0.019927
 796	3.9750e-01	8.2185	22.035744	0.000197	1.970629	0.667667	-0.016079
 797	3.9800e-01	8.1848	21.945943	0.000220	2.201234	0.745798	-0.017960
 798	3.9850e-01	8.1335	21.858280	0.000215	2.148824	0.728041	-0.017533
 799	3.9900e-01	8.0885	21.773610	0.000208	2.075449	0.703181	-0.016934
 800	3.9950e-01	8.0677	21.686802	0.000213	2.127860	0.720938	-0.017362
 801	4.0000e-01	8.0356	21.598711	0.000216	2.159306	0.731593	-0.017618
 802	4.0050e-01	7.9474	21.511903	0.000213	2.127860	0.720938	-0.017362
 803	4.0100e-01	7.9297	21.438352	0.000180	1.802916	0.610844	-0.014710
 804	4.0150e-01	7.9217	21.346412	0.000225	2.253644	0.763555	-0.018388
 805	4.0200e-01	7.8527	21.261742	0.000208	2.075449	0.703181	-0.016934
 806	4.0250e-01	7.8190	21.184770	0.000189	1.886772	0.639256	-0.015395
 807	4.0300e-01	7.7805	21.096679	0.000216	2.159306	0.731593	-0.017618
 808	4.0350e-01	7.7356	21.004740	0.000225	2.253644	0.763555	-0.018388
 809	4.0400e-01	7.6859	20.914938	0.000220	2.201234	0.745798	-0.017960
 810	4.0450e-01	7.6426	20.830696	0.000206	2.064967	0.699630	-0.016848
 811	4.0500e-01	7.5912	20.752013	0.000193	1.928700	0.653461	-0.015737
 812	4.0550e-01	7.5784	20.662212	0.000220	2.201234	0.745798	-0.017960
 813	4.0600e-01	7.5527	20.574121	0.000216	2.159306	0.731593	-0.017618
 814	4.0650e-01	7.5094	20.488596	0.000210	2.096413	0.710284	-0.017105
 815	4.0700e-01	7.4629	20.393236	0.000234	2.337501	0.791967	-0.019072
 816	4.0750e-01	7.4164	20.323105	0.000172	1.719059	0.582433	-0.014026
 817	4.0800e-01	7.3666	20.234587	0.000217	2.169788	0.735144	-0.017704
 818	4.0850e-01	7.3265	20.155476	0.000194	1.939182	0.657013	-0.015822
 819	4.0900e-01	7.3121	20.063109	0.000226	2.264127	0.767107	-0.018473
 820	4.0950e-01	7.2495	19.969031	0.000231	2.306055	0.781313	-0.018816
 821	4.1000e-01	7.2207	19.873671	0.000234	2.337501	0.791967	-0.019072
 822	4.1050e-01	7.1966	19.790284	0.000204	2.044003	0.692527	-0.016677
 823	4.1100e-01	7.1453	19.706469	0.000205	2.054485	0.696078	-0.016763
 824	4.1150e-01	7.0971	19.611109	0.000234	2.337501	0.791967	-0.019072
 825	4.1200e-01	7.0650	19.521308	0.000220	2.201234	0.745798	-0.017960
 826	4.1250e-01	7.0297	19.439204	0.000201	2.012557	0.681873	-0.016421
 827	4.1300e-01	6.9800	19.334863	0.000256	2.557624	0.866547	-0.020868
 828	4.1350e-01	6.9223	19.258746	0.000187	1.865808	0.632153	-0.015223
 829	4.1400e-01	6.8950	19.169372	0.000219	2.190752	0.742247	-0.017875
 830	4.1450e-01	6.8581	19.076577	0.000227	2.274609	0.770658	-0.018559
 831	4.1500e-01	6.8212	18.996611	0.000196	1.960147	0.664116	-0.015993
 832	4.1550e-01	6.7891	18.904244	0.000226	2.264127	0.767107	-0.018473
 833	4.1600e-01	6.7522	18.812733	0.000224	2.243162	0.760004	-0.018302
 834	4.1650e-01	6.7041	18.722931	0.000220	2.201234	0.745798	-0.017960
 835	4.1700e-01	6.6447	18.646386	0.000188	1.876290	0.635704	-0.015309
 836	4.1750e-01	6.6126	18.542473	0.000255	2.547142	0.862995	-0.020783
 837	4.1800e-01	6.5870	18.464218	0.000192	1.918218	0.649910	-0.015651
 838	4.1850e-01	6.5116	18.372706	0.000224	2.243162	0.760004	-0.018302
 839	4.1900e-01	6.4955	18.288036	0.000208	2.075449	0.703181	-0.016934
 840	4.1950e-01	6.4859	18.169156	0.000291	2.914015	0.987295	-0.023776
 841	4.2000e-01	6.4217	18.098598	0.000173	1.729541	0.585984	-0.014112
 842	4.2050e-01	6.3608	18.005376	0.000229	2.285091	0.774210	-0.018644
 843	4.2100e-01	6.3351	17.919851	0.000210	2.096413	0.710284	-0.017105
 844	4.2150e-01	6.3159	17.829194	0.000222	2.222198	0.752901	-0.018131
 845	4.2200e-01	6.2613	17.738538	0.000222	2.222198	0.752901	-0.018131
 846	4.2250e-01	6.1939	17.658572	0.000196	1.960147	0.664116	-0.015993
 847	4.2300e-01	6.1683	17.558935	0.000244	2.442322	0.827481	-0.019927
 848	4.2350e-01	6.1298	17.458871	0.000245	2.452804	0.831032	-0.020013
 849	4.2400e-01	6.0929	17.369070	0.000220	2.201234	0.745798	-0.017960
 850	4.2450e-01	6.0464	17.274992	0.000231	2.306055	0.781313	-0.018816
 851	4.2500e-01	6.0079	17.192033	0.000203	2.033521	0.688976	-0.016592
 852	4.2550e-01	5.9597	17.105652	0.000212	2.117378	0.717387	-0.017276
 853	4.2600e-01	5.9613	17.011575	-0.000231	-2.306055	-0.781313	-0.018816
 854	4.2650e-01	5.8940	16.916214	0.000234	2.337501	0.791967	-0.019072
 855	4.2700e-01	5.8474	16.828124	0.000216	2.159306	0.731593	-0.017618
 856	4.2750e-01	5.8234	16.727204	0.000247	2.473768	0.838135	-0.020184
 857	4.2800e-01	5.7688	16.639969	0.000214	2.138342	0.724490	-0.017447
 858	4.2850e-01	5.7448	16.538194	0.000249	2.494732	0.845238	-0.020355
 859	4.2900e-01	5.6950	16.450531	0.000215	2.148824	0.728041	-0.017533
 860	4.2950e-01	5.6886	16.343624	0.000262	2.620517	0.887855	-0.021381
 861	4.3000e-01	5.5972	16.264941	0.000193	1.928700	0.653461	-0.015737
 862	4.3050e-01	5.5619	16.179416	0.000210	2.096413	0.710284	-0.017105
 863	4.3100e-01	5.5699	16.073365	-0.000260	-2.599553	-0.880752	-0.021210
 864	4.3150e-01	5.4785	15.996392	0.000189	1.886772	0.639256	-0.015395
 865	4.3200e-01	5.4351	15.887776	0.000266	2.662445	0.902061	-0.021723
 866	4.3250e-01	5.4063	15.786001	0.000249	2.494732	0.845238	-0.020355
 867	4.3300e-01	5.3886	15.704324	0.000200	2.002075	0.678321	-0.016335
 868	4.3350e-01	5.3325	15.596563	0.000264	2.641481	0.894958	-0.021552
 869	4.3400e-01	5.3228	15.510610	0.000211	2.106896	0.713836	-0.017191
 870	4.3450e-01	5.2539	15.408835	0.000249	2.494732	0.845238	-0.020355
 871	4.3500e-01	5.2186	15.329297	0.000195	1.949665	0.660564	-0.015908
 872	4.3550e-01	5.2025	15.216832	0.000276	2.756784	0.934024	-0.022493
 873	4.3600e-01	5.1127	15.123609	0.000229	2.285091	0.774210	-0.018644
 874	4.3650e-01	5.0838	15.041505	0.000201	2.012557	0.681873	-0.016421
 875	4.3700e-01	5.0453	14.946572	0.000233	2.327019	0.788415	-0.018987
 876	4.3750e-01	5.0565	14.831114	-0.000283	-2.830158	-0.958884	-0.023092
 877	4.3800e-01	4.9844	14.751575	0.000195	1.949665	0.660564	-0.015908
 878	4.3850e-01	4.9394	14.645952	0.000259	2.589071	0.877201	-0.021125
 879	4.3900e-01	4.8977	14.549309	0.000237	2.368947	0.802621	-0.019329
 880	4.3950e-01	4.8865	14.450099	0.000243	2.431840	0.823930	-0.019842
 881	4.4000e-01	4.7918	14.363719	0.000212	2.117378	0.717387	-0.017276
 882	4.4050e-01	4.7918	14.257668	0.000260	2.599553	0.880752	-0.021210
 883	4.4100e-01	4.7309	14.158887	0.000242	2.421358	0.820378	-0.019756
 884	4.4150e-01	4.7068	14.057539	0.000248	2.484250	0.841687	-0.020269
 885	4.4200e-01	4.6555	13.968166	0.000219	2.190752	0.742247	-0.017875
 886	4.4250e-01	4.5897	13.872805	0.000234	2.337501	0.791967	-0.019072
 887	4.4300e-01	4.5801	13.771031	0.000249	2.494732	0.845238	-0.020355
 888	4.4350e-01	4.5448	13.678663	0.000226	2.264127	0.767107	-0.018473
 889	4.4400e-01	4.4838	13.580737	0.000240	2.400393	0.813275	-0.019585
 890	4.4450e-01	4.4742	13.474259	0.000261	2.610035	0.884304	-0.021296
 891	4.4500e-01	4.4148	13.380181	0.000231	2.306055	0.781313	-0.018816
 892	4.4550e-01	4.3715	13.286959	0.000229	2.285091	0.774210	-0.018644
 893	4.4600e-01	4.3443	13.189033	0.000240	2.400393	0.813275	-0.019585
 894	4.4650e-01	4.2624	13.085975	0.000253	2.526178	0.855892	-0.020612
 895	4.4700e-01	4.2288	12.982062	0.000255	2.547142	0.862995	-0.020783
 896	4.4750e-01	4.2336	12.885419	-0.000237	-2.368947	-0.802621	-0.019329
 897	4.4800e-01	4.1646	12.791341	0.000231	2.306055	0.781313	-0.018816
 898	4.4850e-01	4.1229	12.686573	0.000257	2.568107	0.870098	-0.020954
 899	4.4900e-01	4.0844	12.590357	0.000236	2.358465	0.799070	-0.019243
 900	4.4950e-01	4.0715	12.477892	0.000276	2.756784	0.934024	-0.022493
 901	4.5000e-01	3.9913	12.384242	0.000230	2.295573	0.777761	-0.018730
 902	4.5050e-01	3.9320	12.287598	0.000237	2.368947	0.802621	-0.019329
 903	4.5100e-01	3.9272	12.181120	0.000261	2.610035	0.884304	-0.021296
 904	4.5150e-01	3.8951	12.073786	0.000263	2.630999	0.891407	-0.021467
 905	4.5200e-01	3.8726	11.978853	0.000233	2.327019	0.788415	-0.018987
 906	4.5250e-01	3.8165	11.876223	0.000252	2.515696	0.852341	-0.020526
 907	4.5300e-01	3.7635	11.795829	0.000197	1.970629	0.667667	-0.016079
 908	4.5350e-01	3.7539	11.678232	0.000288	2.882569	0.976641	-0.023519
 909	4.5400e-01	3.6753	11.568760	0.000268	2.683409	0.909164	-0.021894
 910	4.5450e-01	3.6528	11.468268	0.000246	2.463286	0.834584	-0.020098
 911	4.5500e-01	3.6159	11.359652	0.000266	2.662445	0.902061	-0.021723
 912	4.5550e-01	3.5694	11.260015	0.000244	2.442322	0.827481	-0.019927
 913	4.5600e-01	3.5470	11.151826	0.000265	2.651963	0.898509	-0.021638
 914	4.5650e-01	3.5133	11.043637	0.000265	2.651963	0.898509	-0.021638
 915	4.5700e-01	3.4571	10.937585	0.000260	2.599553	0.880752	-0.021210
 916	4.5750e-01	3.4122	10.837094	0.000246	2.463286	0.834584	-0.020098
 917	4.5800e-01	3.3849	10.725911	0.000273	2.725338	0.923369	-0.022237
 918	4.5850e-01	3.3545	10.622426	0.000254	2.536660	0.859444	-0.020697
 919	4.5900e-01	3.3031	10.518085	0.000256	2.557624	0.866547	-0.020868
 920	4.5950e-01	3.2582	10.420587	0.000239	2.389911	0.809724	-0.019500
 921	4.6000e-01	3.2213	10.309832	0.000271	2.714855	0.919818	-0.022151
 922	4.6050e-01	3.1523	10.203780	0.000260	2.599553	0.880752	-0.021210
 923	4.6100e-01	3.1555	10.091315	-0.000276	-2.756784	-0.934024	-0.022493
 924	4.6150e-01	3.1010	9.995527	0.000235	2.347983	0.795518	-0.019158
 925	4.6200e-01	3.0352	9.886483	0.000267	2.672927	0.905612	-0.021809
 926	4.6250e-01	3.0144	9.783425	0.000253	2.526178	0.855892	-0.020612
 927	4.6300e-01	2.9726	9.670104	0.000278	2.777748	0.941126	-0.022664
 928	4.6350e-01	2.9133	9.569612	0.000246	2.463286	0.834584	-0.020098
 929	4.6400e-01	2.8844	9.459713	0.000269	2.693891	0.912715	-0.021980
 930	4.6450e-01	2.8507	9.347675	0.000275	2.746302	0.930472	-0.022408
 931	4.6500e-01	2.8267	9.227940	0.000293	2.934979	0.994398	-0.023947
 932	4.6550e-01	2.7817	9.119323	0.000266	2.662445	0.902061	-0.021723
 933	4.6600e-01	2.7208	9.019686	0.000244	2.442322	0.827481	-0.019927
 934	4.6650e-01	2.6791	8.910642	0.000267	2.672927	0.905612	-0.021809
 935	4.6700e-01	2.6422	8.799031	0.000274	2.735820	0.926921	-0.022322
 936	4.6750e-01	2.6438	8.688704	-0.000270	-2.704373	-0.916267	-0.022065
 937	4.6800e-01	2.5748	8.579232	0.000268	2.683409	0.909164	-0.021894
 938	4.6850e-01	2.5267	8.467622	0.000274	2.735820	0.926921	-0.022322
 939	4.6900e-01	2.4753	8.364564	0.000253	2.526178	0.855892	-0.020612
 940	4.6950e-01	2.4384	8.232856	0.000323	3.228477	1.093838	-0.026342
 941	4.7000e-01	2.3983	8.132364	0.000246	2.463286	0.834584	-0.020098
 942	4.7050e-01	2.3919	8.018615	0.000279	2.788230	0.944678	-0.022750
 943	4.7100e-01	2.3422	7.908288	0.000270	2.704373	0.916267	-0.022065
 944	4.7150e-01	2.2908	7.803947	0.000256	2.557624	0.866547	-0.020868
 945	4.7200e-01	2.2668	7.688061	0.000284	2.840640	0.962435	-0.023177
 946	4.7250e-01	2.2074	7.584148	0.000255	2.547142	0.862995	-0.020783
 947	4.7300e-01	2.1609	7.457999	0.000309	3.092210	1.047669	-0.025230
 948	4.7350e-01	2.1641	7.345106	-0.000277	-2.767266	-0.937575	-0.022579
 949	4.7400e-01	2.0791	7.229219	0.000284	2.840640	0.962435	-0.023177
 950	4.7450e-01	2.0534	7.118464	0.000271	2.714855	0.919818	-0.022151
 951	4.7500e-01	2.0101	7.003433	0.000282	2.819676	0.955332	-0.023006
 952	4.7550e-01	1.9491	6.884125	0.000292	2.924497	0.990846	-0.023861
 953	4.7600e-01	1.9331	6.777647	0.000261	2.610035	0.884304	-0.021296
 954	4.7650e-01	1.8962	6.648504	0.000317	3.165584	1.072529	-0.025829
 955	4.7700e-01	1.8786	6.531335	0.000287	2.872086	0.973089	-0.023434
 956	4.7750e-01	1.8272	6.427422	0.000255	2.547142	0.862995	-0.020783
 957	4.7800e-01	1.7614	6.302127	0.000307	3.071246	1.040566	-0.025059
 958	4.7850e-01	1.7598	6.180254	0.000299	2.987389	1.012155	-0.024375
 959	4.7900e-01	1.7005	6.081045	0.000243	2.431840	0.823930	-0.019842
 960	4.7950e-01	1.6492	5.949337	0.000323	3.228477	1.093838	-0.026342
 961	4.8000e-01	1.6363	5.825325	0.000304	3.039800	1.029912	-0.024802
 962	4.8050e-01	1.5545	5.705590	0.000293	2.934979	0.994398	-0.023947
 963	4.8100e-01	1.5176	5.589276	0.000285	2.851122	0.965986	-0.023263
 964	4.8150e-01	1.4935	5.471679	0.000288	2.882569	0.976641	-0.023519
 965	4.8200e-01	1.4582	5.343392	0.000314	3.144620	1.065426	-0.025658
 966	4.8250e-01	1.4582	5.224939	0.000290	2.903533	0.983743	-0.023690
 967	4.8300e-01	1.3909	5.103066	0.000299	2.987389	1.012155	-0.024375
 968	4.8350e-01	1.3203	4.993167	0.000269	2.693891	0.912715	-0.021980
 969	4.8400e-01	1.3026	4.872576	0.000296	2.955943	1.001501	-0.024118
 970	4.8450e-01	1.2834	4.730177	0.000349	3.490528	1.182623	-0.028480
 971	4.8500e-01	1.2096	4.622415	0.000264	2.641481	0.894958	-0.021552
 972	4.8550e-01	1.1631	4.509522	0.000277	2.767266	0.937575	-0.022579
 973	4.8600e-01	1.1278	4.371399	0.000339	3.385708	1.147109	-0.027625
 974	4.8650e-01	1.0973	4.243112	0.000314	3.144620	1.065426	-0.025658
 975	4.8700e-01	1.0764	4.109693	0.000327	3.270405	1.108043	-0.026684
 976	4.8750e-01	1.0123	3.984398	0.000307	3.071246	1.040566	-0.025059
 977	4.8800e-01	0.9690	3.863808	0.000296	2.955943	1.001501	-0.024118
 978	4.8850e-01	0.9064	3.745784	0.000289	2.893051	0.980192	-0.023605
 979	4.8900e-01	0.9128	3.614075	-0.000323	-3.228477	-1.093838	-0.026342
 980	4.8950e-01	0.8454	3.488353	0.000308	3.081728	1.044118	-0.025144
 981	4.9000e-01	0.8005	3.363914	0.000305	3.050282	1.033463	-0.024888
 982	4.9050e-01	0.7572	3.243324	0.000296	2.955943	1.001501	-0.024118
 983	4.9100e-01	0.7331	3.107339	0.000333	3.333297	1.129352	-0.027197
 984	4.9150e-01	0.6770	2.982900	0.000305	3.050282	1.033463	-0.024888
 985	4.9200e-01	0.6433	2.848626	0.000329	3.291369	1.115146	-0.026855
 986	4.9250e-01	0.6048	2.713069	0.000332	3.322815	1.125800	-0.027111
 987	4.9300e-01	0.5711	2.588630	0.000305	3.050282	1.033463	-0.024888
 988	4.9350e-01	0.5278	2.454783	0.000328	3.280887	1.111595	-0.026769
 989	4.9400e-01	0.4989	2.325640	0.000317	3.165584	1.072529	-0.025829
 990	4.9450e-01	0.4396	2.205050	0.000296	2.955943	1.001501	-0.024118
 991	4.9500e-01	0.3882	2.072058	0.000326	3.259923	1.104492	-0.026598
 992	4.9550e-01	0.3818	1.939922	0.000324	3.238959	1.097389	-0.026427
 993	4.9600e-01	0.3545	1.792391	0.000362	3.616313	1.225240	-0.029506
 994	4.9650e-01	0.2631	1.680354	0.000275	2.746302	0.930472	-0.022408
 995	4.9700e-01	0.2438	1.546934	0.000327	3.270405	1.108043	-0.026684
 996	4.9750e-01	0.2342	1.399404	0.000362	3.616313	1.225240	-0.029506
 997	4.9800e-01	0.1717	1.265129	0.000329	3.291369	1.115146	-0.026855
 998	4.9850e-01	0.1155	1.137269	0.000313	3.134138	1.061875	-0.025572
 999	4.9900e-01	0.1059	1.007699	0.000318	3.176066	1.076080	-0.025914
1000	4.9950e-01	0.0513	0.872569	0.000331	3.312333	1.122249	-0.027026
1001	5.0000e-01	0.0401	0.725039	0.000362	3.616313	1.225240	-0.029506
1002	5.0050e-01	-0.0257	0.598034	0.000311	3.113174	1.054772	-0.025401
1003	5.0100e-01	-0.0850	0.480865	0.000287	2.872086	0.973089	-0.023434
1004	5.0150e-01	-0.0866	0.347873	0.000326	3.259923	1.104492	-0.026598
1005	5.0200e-01	-0.1412	0.210178	0.000338	3.375226	1.143557	-0.027539
1006	5.0250e-01	-0.1941	0.072482	0.000338	3.375226	1.143557	-0.027539
1007	5.0300e-01	-0.1973	-0.060937	0.000327	3.270405	1.108043	-0.026684
1008	5.0350e-01	-0.2663	-0.190079	0.000317	3.165584	1.072529	-0.025829
1009	5.0400e-01	-0.3289	-0.320505	0.000320	3.197031	1.083183	-0.026085
1010	5.0450e-01	-0.3610	-0.453069	0.000325	3.249441	1.100940	-0.026513
1011	5.0500e-01	-0.3642	-0.600600	0.000362	3.616313	1.225240	-0.029506
1012	5.0550e-01	-0.4251	-0.734019	0.000327	3.270405	1.108043	-0.026684
1013	5.0600e-01	-0.4700	-0.863589	0.000318	3.176066	1.076080	-0.025914
1014	5.0650e-01	-0.5198	-1.008554	0.000355	3.553421	1.203932	-0.028993
1015	5.0700e-01	-0.5230	-1.143684	0.000331	3.312333	1.122249	-0.027026
1016	5.0750e-01	-0.5775	-1.283090	0.000342	3.417154	1.157763	-0.027881
1017	5.0800e-01	-0.6481	-1.407529	0.000305	3.050282	1.033463	-0.024888
1018	5.0850e-01	-0.6545	-1.561474	0.000377	3.773544	1.278511	-0.030789
1019	5.0900e-01	-0.7043	-1.681209	0.000293	2.934979	0.994398	-0.023947
1020	5.0950e-01	-0.7540	-1.820187	0.000341	3.406672	1.154212	-0.027796
1021	5.1000e-01	-0.8085	-1.958738	0.000340	3.396190	1.150660	-0.027710
1022	5.1050e-01	-0.8214	-2.093012	0.000329	3.291369	1.115146	-0.026855
1023	5.1100e-01	-0.8887	-2.229424	0.000334	3.343779	1.132903	-0.027282
1024	5.1150e-01	-0.9000	-2.373106	0.000352	3.521975	1.193277	-0.028736
1025	5.1200e-01	-0.9465	-2.506953	0.000328	3.280887	1.111595	-0.026769
1026	5.1250e-01	-0.9690	-2.655339	0.000364	3.637277	1.232343	-0.029677
1027	5.1300e-01	-1.0075	-2.778068	0.000301	3.008353	1.019258	-0.024546
1028	5.1350e-01	-1.0428	-2.917046	0.000341	3.406672	1.154212	-0.027796
1029	5.1400e-01	-1.1085	-3.054741	0.000338	3.375226	1.143557	-0.027539
1030	5.1450e-01	-1.1486	-3.188588	0.000328	3.280887	1.111595	-0.026769
1031	5.1500e-01	-1.1775	-3.330559	0.000348	3.480046	1.179072	-0.028394
1032	5.1550e-01	-1.2000	-3.466544	0.000333	3.333297	1.129352	-0.027197
1033	5.1600e-01	-1.2497	-3.597398	0.000321	3.207513	1.086735	-0.026171
1034	5.1650e-01	-1.3267	-3.729534	0.000324	3.238959	1.097389	-0.026427
1035	5.1700e-01	-1.3700	-3.864236	0.000330	3.301851	1.118697	-0.026940
1036	5.1750e-01	-1.3668	-4.003214	-0.000341	-3.406672	-1.154212	-0.027796
1037	5.1800e-01	-1.4037	-4.129363	0.000309	3.092210	1.047669	-0.025230
1038	5.1850e-01	-1.4438	-4.262355	0.000326	3.259923	1.104492	-0.026598
1039	5.1900e-01	-1.4903	-4.394064	0.000323	3.228477	1.093838	-0.026342
1040	5.1950e-01	-1.5353	-4.527910	0.000328	3.280887	1.111595	-0.026769
1041	5.2000e-01	-1.5802	-4.652777	0.000306	3.060764	1.037015	-0.024973
1042	5.2050e-01	-1.6155	-4.798169	0.000356	3.563903	1.207483	-0.029079
1043	5.2100e-01	-1.6684	-4.914911	0.000286	2.861604	0.969538	-0.023348
1044	5.2150e-01	-1.7005	-5.038495	0.000303	3.029317	1.026361	-0.024717
1045	5.2200e-01	-1.7053	-5.183460	0.000355	3.553421	1.203932	-0.028993
1046	5.2250e-01	-1.7727	-5.314313	0.000321	3.207513	1.086735	-0.026171
1047	5.2300e-01	-1.8240	-5.432765	0.000290	2.903533	0.983743	-0.023690
1048	5.2350e-01	-1.8689	-5.561481	0.000316	3.155102	1.068978	-0.025743
1049	5.2400e-01	-1.9058	-5.696610	0.000331	3.312333	1.122249	-0.027026
1050	5.2450e-01	-1.9443	-5.822332	0.000308	3.081728	1.044118	-0.025144
1051	5.2500e-01	-1.9812	-5.949764	0.000312	3.123656	1.058323	-0.025486
1052	5.2550e-01	-1.9941	-6.090025	0.000344	3.438118	1.164866	-0.028052
1053	5.2600e-01	-2.0630	-6.201208	0.000273	2.725338	0.923369	-0.022237
1054	5.2650e-01	-2.0775	-6.330351	0.000317	3.165584	1.072529	-0.025829
1055	5.2700e-01	-2.1368	-6.451369	0.000297	2.966425	1.005052	-0.024204
1056	5.2750e-01	-2.1866	-6.572814	0.000298	2.976907	1.008603	-0.024289
1057	5.2800e-01	-2.1962	-6.698536	0.000308	3.081728	1.044118	-0.025144
1058	5.2850e-01	-2.2812	-6.825968	0.000312	3.123656	1.058323	-0.025486
1059	5.2900e-01	-2.3197	-6.944848	0.000291	2.914015	0.987295	-0.023776
1060	5.2950e-01	-2.3791	-7.060307	0.000283	2.830158	0.958884	-0.023092
1061	5.3000e-01	-2.4096	-7.193726	0.000327	3.270405	1.108043	-0.026684
1062	5.3050e-01	-2.4192	-7.325862	0.000324	3.238959	1.097389	-0.026427
1063	5.3100e-01	-2.4657	-7.448163	0.000300	2.997871	1.015706	-0.024460
1064	5.3150e-01	-2.5106	-7.574313	0.000309	3.092210	1.047669	-0.025230
1065	5.3200e-01	-2.5379	-7.690627	0.000285	2.851122	0.965986	-0.023263
1066	5.3250e-01	-2.5732	-7.804803	0.000280	2.798712	0.948229	-0.022835
1067	5.3300e-01	-2.6261	-7.922827	0.000289	2.893051	0.980192	-0.023605
1068	5.3350e-01	-2.6662	-8.048549	0.000308	3.081728	1.044118	-0.025144
1069	5.3400e-01	-2.7063	-8.160159	0.000274	2.735820	0.926921	-0.022322
1070	5.3450e-01	-2.7240	-8.283315	0.000302	3.018835	1.022809	-0.024631
1071	5.3500e-01	-2.7641	-8.398774	0.000283	2.830158	0.958884	-0.023092
1072	5.3550e-01	-2.8267	-8.517226	0.000290	2.903533	0.983743	-0.023690
1073	5.3600e-01	-2.8363	-8.624560	0.000263	2.630999	0.891407	-0.021467
1074	5.3650e-01	-2.8956	-8.748144	0.000303	3.029317	1.026361	-0.024717
1075	5.3700e-01	-2.9662	-8.843504	0.000234	2.337501	0.791967	-0.019072
1076	5.3750e-01	-2.9967	-8.971792	0.000314	3.144620	1.065426	-0.025658
1077	5.3800e-01	-3.0160	-9.094948	0.000302	3.018835	1.022809	-0.024631
1078	5.3850e-01	-3.0609	-9.200572	0.000259	2.589071	0.877201	-0.021125
1079	5.3900e-01	-3.0946	-9.313892	0.000278	2.777748	0.941126	-0.022664
1080	5.3950e-01	-3.1555	-9.425930	0.000275	2.746302	0.930472	-0.022408
1081	5.4000e-01	-3.1764	-9.549514	0.000303	3.029317	1.026361	-0.024717
1082	5.4050e-01	-3.1972	-9.665828	0.000285	2.851122	0.965986	-0.023263
1083	5.4100e-01	-3.2694	-9.772307	0.000261	2.610035	0.884304	-0.021296
1084	5.4150e-01	-3.2951	-9.884344	0.000275	2.746302	0.930472	-0.022408
1085	5.4200e-01	-3.3416	-9.990823	0.000261	2.610035	0.884304	-0.021296
1086	5.4250e-01	-3.3496	-10.103289	0.000276	2.756784	0.934024	-0.022493
1087	5.4300e-01	-3.4122	-10.213188	0.000269	2.693891	0.912715	-0.021980
1088	5.4350e-01	-3.4700	-10.317956	0.000257	2.568107	0.870098	-0.020954
1089	5.4400e-01	-3.4924	-10.430422	0.000276	2.756784	0.934024	-0.022493
1090	5.4450e-01	-3.5486	-10.526638	0.000236	2.358465	0.799070	-0.019243
1091	5.4500e-01	-3.5774	-10.642524	0.000284	2.840640	0.962435	-0.023177
1092	5.4550e-01	-3.6191	-10.743016	0.000246	2.463286	0.834584	-0.020098
1093	5.4600e-01	-3.6577	-10.873442	0.000320	3.197031	1.083183	-0.026085
1094	5.4650e-01	-3.7170	-10.972223	0.000242	2.421358	0.820378	-0.019756
1095	5.4700e-01	-3.7475	-11.085116	0.000277	2.767266	0.937575	-0.022579
1096	5.4750e-01	-3.7732	-11.184325	0.000243	2.431840	0.823930	-0.019842
1097	5.4800e-01	-3.8470	-11.279686	0.000234	2.337501	0.791967	-0.019072
1098	5.4850e-01	-3.8662	-11.392151	0.000276	2.756784	0.934024	-0.022493
1099	5.4900e-01	-3.8790	-11.501196	0.000267	2.672927	0.905612	-0.021809
1100	5.4950e-01	-3.9480	-11.607247	0.000260	2.599553	0.880752	-0.021210
1101	5.5000e-01	-3.9865	-11.712870	0.000259	2.589071	0.877201	-0.021125
1102	5.5050e-01	-4.0170	-11.804810	0.000225	2.253644	0.763555	-0.018388
1103	5.5100e-01	-4.0491	-11.919413	0.000281	2.809194	0.951781	-0.022921
1104	5.5150e-01	-4.0812	-12.022898	0.000254	2.536660	0.859444	-0.020697
1105	5.5200e-01	-4.1309	-12.122107	0.000243	2.431840	0.823930	-0.019842
1106	5.5250e-01	-4.1806	-12.218323	0.000236	2.358465	0.799070	-0.019243
1107	5.5300e-01	-4.2368	-12.325229	0.000262	2.620517	0.887855	-0.021381
1108	5.5350e-01	-4.2592	-12.439833	0.000281	2.809194	0.951781	-0.022921
1109	5.5400e-01	-4.3106	-12.539897	0.000245	2.452804	0.831032	-0.020013
1110	5.5450e-01	-4.3026	-12.657494	-0.000288	-2.882569	-0.976641	-0.023519
1111	5.5500e-01	-4.3780	-12.744302	0.000213	2.127860	0.720938	-0.017362
1112	5.5550e-01	-4.4132	-12.849926	0.000259	2.589071	0.877201	-0.021125
1113	5.5600e-01	-4.4870	-12.935023	0.000209	2.085931	0.706733	-0.017019
1114	5.5650e-01	-4.4886	-13.044068	0.000267	2.672927	0.905612	-0.021809
1115	5.5700e-01	-4.5512	-13.146698	0.000252	2.515696	0.852341	-0.020526
1116	5.5750e-01	-4.5528	-13.235216	0.000217	2.169788	0.735144	-0.017704
1117	5.5800e-01	-4.6170	-13.336136	0.000247	2.473768	0.838135	-0.020184
1118	5.5850e-01	-4.6699	-13.430641	0.000232	2.316537	0.784864	-0.018901
1119	5.5900e-01	-4.6795	-13.538830	0.000265	2.651963	0.898509	-0.021638
1120	5.5950e-01	-4.7309	-13.627776	0.000218	2.180270	0.738695	-0.017789
1121	5.6000e-01	-4.7886	-13.739814	0.000275	2.746302	0.930472	-0.022408
1122	5.6050e-01	-4.8095	-13.836457	0.000237	2.368947	0.802621	-0.019329
1123	5.6100e-01	-4.8576	-13.923265	0.000213	2.127860	0.720938	-0.017362
1124	5.6150e-01	-4.8945	-14.045566	0.000300	2.997871	1.015706	-0.024460
1125	5.6200e-01	-4.9603	-14.121256	0.000186	1.855326	0.628601	-0.015138
1126	5.6250e-01	-4.9972	-14.213195	0.000225	2.253644	0.763555	-0.018388
1127	5.6300e-01	-4.9956	-14.323095	-0.000269	-2.693891	-0.912715	-0.021980
1128	5.6350e-01	-5.0678	-14.421021	0.000240	2.400393	0.813275	-0.019585
1129	5.6400e-01	-5.1015	-14.502697	0.000200	2.002075	0.678321	-0.016335
1130	5.6450e-01	-5.1704	-14.585657	0.000203	2.033521	0.688976	-0.016592
1131	5.6500e-01	-5.1704	-14.703681	0.000289	2.893051	0.980192	-0.023605
1132	5.6550e-01	-5.2089	-14.801180	0.000239	2.389911	0.809724	-0.019500
1133	5.6600e-01	-5.2715	-14.896540	0.000234	2.337501	0.791967	-0.019072
1134	5.6650e-01	-5.3100	-14.990618	0.000231	2.306055	0.781313	-0.018816
1135	5.6700e-01	-5.3357	-15.084695	0.000231	2.306055	0.781313	-0.018816
1136	5.6750e-01	-5.3854	-15.184760	0.000245	2.452804	0.831032	-0.020013
1137	5.6800e-01	-5.4335	-15.283969	0.000243	2.431840	0.823930	-0.019842
1138	5.6850e-01	-5.4624	-15.365645	0.000200	2.002075	0.678321	-0.016335
1139	5.6900e-01	-5.5330	-15.455019	0.000219	2.190752	0.742247	-0.017875
1140	5.6950e-01	-5.5539	-15.546958	0.000225	2.253644	0.763555	-0.018388
1141	5.7000e-01	-5.5940	-15.653009	0.000260	2.599553	0.880752	-0.021210
1142	5.7050e-01	-5.5988	-15.757778	0.000257	2.568107	0.870098	-0.020954
1143	5.7100e-01	-5.6934	-15.836888	0.000194	1.939182	0.657013	-0.015822
1144	5.7150e-01	-5.7127	-15.930538	0.000230	2.295573	0.777761	-0.018730
1145	5.7200e-01	-5.7768	-16.023760	0.000229	2.285091	0.774210	-0.018644
1146	5.7250e-01	-5.7608	-16.124252	-0.000246	-2.463286	-0.834584	-0.020098
1147	5.7300e-01	-5.8089	-16.223461	0.000243	2.431840	0.823930	-0.019842
1148	5.7350e-01	-5.8490	-16.311980	0.000217	2.169788	0.735144	-0.017704
1149	5.7400e-01	-5.8827	-16.393229	0.000199	1.991593	0.674770	-0.016250
1150	5.7450e-01	-5.9373	-16.486023	0.000227	2.274609	0.770658	-0.018559
1151	5.7500e-01	-5.9758	-16.589081	0.000253	2.526178	0.855892	-0.020612
1152	5.7550e-01	-6.0014	-16.665198	0.000187	1.865808	0.632153	-0.015223
1153	5.7600e-01	-6.0704	-16.765263	0.000245	2.452804	0.831032	-0.020013
1154	5.7650e-01	-6.1266	-16.856347	0.000223	2.232680	0.756453	-0.018217
1155	5.7700e-01	-6.1779	-16.948714	0.000226	2.264127	0.767107	-0.018473
1156	5.7750e-01	-6.1603	-17.044074	-0.000234	-2.337501	-0.791967	-0.019072
1157	5.7800e-01	-6.2132	-17.135586	0.000224	2.243162	0.760004	-0.018302
1158	5.7850e-01	-6.2533	-17.227953	0.000226	2.264127	0.767107	-0.018473
1159	5.7900e-01	-6.2886	-17.317327	0.000219	2.190752	0.742247	-0.017875
1160	5.7950e-01	-6.3479	-17.401997	0.000208	2.075449	0.703181	-0.016934
1161	5.8000e-01	-6.3736	-17.491370	0.000219	2.190752	0.742247	-0.017875
1162	5.8050e-01	-6.4073	-17.582027	0.000222	2.222198	0.752901	-0.018131
1163	5.8100e-01	-6.4362	-17.684229	0.000251	2.505214	0.848790	-0.020440
1164	5.8150e-01	-6.5116	-17.757781	0.000180	1.802916	0.610844	-0.014710
1165	5.8200e-01	-6.5324	-17.839885	0.000201	2.012557	0.681873	-0.016421
1166	5.8250e-01	-6.5709	-17.934818	0.000233	2.327019	0.788415	-0.018987
1167	5.8300e-01	-6.6110	-18.029751	0.000233	2.327019	0.788415	-0.018987
1168	5.8350e-01	-6.6335	-18.115276	0.000210	2.096413	0.710284	-0.017105
1169	5.8400e-01	-6.7265	-18.194386	0.000194	1.939182	0.657013	-0.015822
1170	5.8450e-01	-6.7378	-18.291457	0.000238	2.379429	0.806172	-0.019414
1171	5.8500e-01	-6.8003	-18.366292	0.000183	1.834362	0.621499	-0.014967
1172	5.8550e-01	-6.8372	-18.460797	0.000232	2.316537	0.784864	-0.018901
1173	5.8600e-01	-6.8597	-18.554019	0.000229	2.285091	0.774210	-0.018644
1174	5.8650e-01	-6.8677	-18.640827	0.000213	2.127860	0.720938	-0.017362
1175	5.8700e-01	-6.9463	-18.730201	0.000219	2.190752	0.742247	-0.017875
1176	5.8750e-01	-6.9784	-18.820002	0.000220	2.201234	0.745798	-0.017960
1177	5.8800e-01	-7.0249	-18.895692	0.000186	1.855326	0.628601	-0.015138
1178	5.8850e-01	-7.0763	-18.980789	0.000209	2.085931	0.706733	-0.017019
1179	5.8900e-01	-7.1068	-19.073156	0.000226	2.264127	0.767107	-0.018473
1180	5.8950e-01	-7.1485	-19.156116	0.000203	2.033521	0.688976	-0.016592
1181	5.9000e-01	-7.1950	-19.254469	0.000241	2.410876	0.816827	-0.019671
1182	5.9050e-01	-7.2078	-19.340422	0.000211	2.106896	0.713836	-0.017191
1183	5.9100e-01	-7.2479	-19.427658	0.000214	2.138342	0.724490	-0.017447
1184	5.9150e-01	-7.2912	-19.508051	0.000197	1.970629	0.667667	-0.016079
1185	5.9200e-01	-7.3169	-19.605550	0.000239	2.389911	0.809724	-0.019500
1186	5.9250e-01	-7.3891	-19.678246	0.000178	1.781951	0.603741	-0.014539
1187	5.9300e-01	-7.3939	-19.776172	0.000240	2.400393	0.813275	-0.019585
1188	5.9350e-01	-7.4324	-19.857421	0.000199	1.991593	0.674770	-0.016250
1189	5.9400e-01	-7.5030	-19.934821	0.000190	1.897254	0.642807	-0.015480
1190	5.9450e-01	-7.5527	-20.023767	0.000218	2.180270	0.738695	-0.017789
1191	5.9500e-01	-7.5848	-20.112713	0.000218	2.180270	0.738695	-0.017789
1192	5.9550e-01	-7.6265	-20.190969	0.000192	1.918218	0.649910	-0.015651
1193	5.9600e-01	-7.6795	-20.278632	0.000215	2.148824	0.728041	-0.017533
1194	5.9650e-01	-7.6923	-20.370999	0.000226	2.264127	0.767107	-0.018473
1195	5.9700e-01	-7.7051	-20.454386	0.000204	2.044003	0.692527	-0.016677
1196	5.9750e-01	-7.7934	-20.532641	0.000192	1.918218	0.649910	-0.015651
1197	5.9800e-01	-7.8110	-20.624153	0.000224	2.243162	0.760004	-0.018302
1198	5.9850e-01	-7.8559	-20.712672	0.000217	2.169788	0.735144	-0.017704
1199	5.9900e-01	-7.9105	-20.803328	0.000222	2.222198	0.752901	-0.018131
1200	5.9950e-01	-7.9490	-20.881156	0.000191	1.907736	0.646359	-0.015566
1201	6.0000e-01	-7.9875	-20.968392	0.000214	2.138342	0.724490	-0.017447
1202	6.0050e-01	-8.0244	-21.051351	0.000203	2.033521	0.688976	-0.016592
1203	6.0100e-01	-8.0532	-21.133455	0.000201	2.012557	0.681873	-0.016421
1204	6.0150e-01	-8.1046	-21.211710	0.000192	1.918218	0.649910	-0.015651
1205	6.0200e-01	-8.1431	-21.292104	0.000197	1.970629	0.667667	-0.016079
1206	6.0250e-01	-8.1736	-21.381050	0.000218	2.180270	0.738695	-0.017789
1207	6.0300e-01	-8.2409	-21.467003	0.000211	2.106896	0.713836	-0.017191
1208	6.0350e-01	-8.2265	-21.558514	-0.000224	-2.243162	-0.760004	-0.018302
1209	6.0400e-01	-8.3035	-21.620092	0.000151	1.509418	0.511405	-0.012316
1210	6.0450e-01	-8.3548	-21.708183	0.000216	2.159306	0.731593	-0.017618
1211	6.0500e-01	-8.3532	-21.801833	-0.000230	-2.295573	-0.777761	-0.018730
1212	6.0550e-01	-8.4206	-21.871536	0.000171	1.708577	0.578882	-0.013941
1213	6.0600e-01	-8.4575	-21.960055	0.000217	2.169788	0.735144	-0.017704
1214	6.0650e-01	-8.5233	-22.038738	0.000193	1.928700	0.653461	-0.015737
1215	6.0700e-01	-8.5297	-22.134953	0.000236	2.358465	0.799070	-0.019243
1216	6.0750e-01	-8.5634	-22.206367	0.000175	1.750505	0.593087	-0.014283
1217	6.0800e-01	-8.5730	-22.306431	0.000245	2.452804	0.831032	-0.020013
1218	6.0850e-01	-8.6324	-22.378700	0.000177	1.771469	0.600190	-0.014454
1219	6.0900e-01	-8.6949	-22.465935	0.000214	2.138342	0.724490	-0.017447
1220	6.0950e-01	-8.7254	-22.542053	0.000187	1.865808	0.632153	-0.015223
1221	6.1000e-01	-8.7960	-22.613894	0.000176	1.760987	0.596639	-0.014368
1222	6.1050e-01	-8.8201	-22.684452	0.000173	1.729541	0.585984	-0.014112
1223	6.1100e-01	-8.8554	-22.781950	0.000239	2.389911	0.809724	-0.019500
1224	6.1150e-01	-8.8730	-22.867903	0.000211	2.106896	0.713836	-0.017191
1225	6.1200e-01	-8.9388	-22.944876	0.000189	1.886772	0.639256	-0.015395
1226	6.1250e-01	-8.9661	-23.021420	0.000188	1.876290	0.635704	-0.015309
1227	6.1300e-01	-9.0190	-23.103952	0.000202	2.023039	0.685424	-0.016506
1228	6.1350e-01	-9.0591	-23.186911	0.000203	2.033521	0.688976	-0.016592
1229	6.1400e-01	-9.1040	-23.277996	0.000223	2.232680	0.756453	-0.018217
1230	6.1450e-01	-9.1441	-23.358817	0.000198	1.981111	0.671218	-0.016164
1231	6.1500e-01	-9.1505	-23.428520	0.000171	1.708577	0.578882	-0.013941
1232	6.1550e-01	-9.2275	-23.521314	0.000227	2.274609	0.770658	-0.018559
1233	6.1600e-01	-9.2677	-23.592728	0.000175	1.750505	0.593087	-0.014283
1234	6.1650e-01	-9.3062	-23.671839	0.000194	1.939182	0.657013	-0.015822
1235	6.1700e-01	-9.3302	-23.763778	0.000225	2.253644	0.763555	-0.018388
1236	6.1750e-01	-9.3703	-23.835619	0.000176	1.760987	0.596639	-0.014368
1237	6.1800e-01	-9.4281	-23.919861	0.000206	2.064967	0.699630	-0.016848
1238	6.1850e-01	-9.4650	-23.994268	0.000182	1.823880	0.617947	-0.014881
1239	6.1900e-01	-9.5259	-24.063971	0.000171	1.708577	0.578882	-0.013941
1240	6.1950e-01	-9.5324	-24.149068	0.000209	2.085931	0.706733	-0.017019
1241	6.2000e-01	-9.5709	-24.241435	0.000226	2.264127	0.767107	-0.018473
1242	6.2050e-01	-9.6142	-24.325250	0.000205	2.054485	0.696078	-0.016763
1243	6.2100e-01	-9.6398	-24.409492	0.000206	2.064967	0.699630	-0.016848
1244	6.2150e-01	-9.6944	-24.481333	0.000176	1.760987	0.596639	-0.014368
1245	6.2200e-01	-9.7265	-24.562154	0.000198	1.981111	0.671218	-0.016164
1246	6.2250e-01	-9.7602	-24.634851	0.000178	1.781951	0.603741	-0.014539
1247	6.2300e-01	-9.8307	-24.716955	0.000201	2.012557	0.681873	-0.016421
1248	6.2350e-01	-9.8773	-24.789651	0.000178	1.781951	0.603741	-0.014539
1249	6.2400e-01	-9.8869	-24.873038	0.000204	2.044003	0.692527	-0.016677
1250	6.2450e-01	-9.9414	-24.937182	0.000157	1.572310	0.532713	-0.012829
1251	6.2500e-01	-9.9912	-25.020141	0.000203	2.033521	0.688976	-0.016592
1252	6.2550e-01	-10.0120	-25.101817	0.000200	2.002075	0.678321	-0.016335
1253	6.2600e-01	-10.0473	-25.182211	0.000197	1.970629	0.667667	-0.016079
1254	6.2650e-01	-10.1019	-25.266881	0.000208	2.075449	0.703181	-0.016934
1255	6.2700e-01	-10.1339	-25.342143	0.000184	1.844844	0.625050	-0.015052
1256	6.2750e-01	-10.1805	-25.422109	0.000196	1.960147	0.664116	-0.015993
1257	6.2800e-01	-10.2125	-25.494805	0.000178	1.781951	0.603741	-0.014539
1258	6.2850e-01	-10.2302	-25.578192	0.000204	2.044003	0.692527	-0.016677
1259	6.2900e-01	-10.3056	-25.655165	0.000189	1.886772	0.639256	-0.015395
1260	6.2950e-01	-10.3168	-25.737696	0.000202	2.023039	0.685424	-0.016506
1261	6.3000e-01	-10.3922	-25.808682	0.000174	1.740023	0.589536	-0.014197
1262	6.3050e-01	-10.4227	-25.890358	0.000200	2.002075	0.678321	-0.016335
1263	6.3100e-01	-10.4612	-25.969469	0.000194	1.939182	0.657013	-0.015822
1264	6.3150e-01	-10.4756	-26.047725	0.000192	1.918218	0.649910	-0.015651
1265	6.3200e-01	-10.5478	-26.121276	0.000180	1.802916	0.610844	-0.014710
1266	6.3250e-01	-10.5783	-26.191834	0.000173	1.729541	0.585984	-0.014112
1267	6.3300e-01	-10.6200	-26.274794	0.000203	2.033521	0.688976	-0.016592
1268	6.3350e-01	-10.6489	-26.347062	0.000177	1.771469	0.600190	-0.014454
1269	6.3400e-01	-10.6665	-26.432587	0.000210	2.096413	0.710284	-0.017105
1270	6.3450e-01	-10.7211	-26.506994	0.000182	1.823880	0.617947	-0.014881
1271	6.3500e-01	-10.7804	-26.579690	0.000178	1.781951	0.603741	-0.014539
1272	6.3550e-01	-10.8141	-26.656235	0.000188	1.876290	0.635704	-0.015309
1273	6.3600e-01	-10.8430	-26.739195	0.000203	2.033521	0.688976	-0.016592
1274	6.3650e-01	-10.8831	-26.814029	0.000183	1.834362	0.621499	-0.014967
1275	6.3700e-01	-10.9505	-26.891857	0.000191	1.907736	0.646359	-0.015566
1276	6.3750e-01	-10.9730	-26.970540	0.000193	1.928700	0.653461	-0.015737
1277	6.3800e-01	-11.0098	-27.046230	0.000186	1.855326	0.628601	-0.015138
1278	6.3850e-01	-11.0500	-27.125768	0.000195	1.949665	0.660564	-0.015908
1279	6.3900e-01	-11.0917	-27.199747	0.000181	1.813398	0.614396	-0.014796
1280	6.3950e-01	-11.1141	-27.275009	0.000184	1.844844	0.625050	-0.015052
1281	6.4000e-01	-11.1751	-27.343857	0.000169	1.687613	0.571779	-0.013770
1282	6.4050e-01	-11.2296	-27.423823	0.000196	1.960147	0.664116	-0.015993
1283	6.4100e-01	-11.2505	-27.504644	0.000198	1.981111	0.671218	-0.016164
1284	6.4150e-01	-11.3082	-27.569643	0.000159	1.593274	0.539816	-0.013000
1285	6.4200e-01	-11.3419	-27.644905	0.000184	1.844844	0.625050	-0.015052
1286	6.4250e-01	-11.3676	-27.723588	0.000193	1.928700	0.653461	-0.015737
1287	6.4300e-01	-11.4302	-27.803126	0.000195	1.949665	0.660564	-0.015908
1288	6.4350e-01	-11.4606	-27.875823	0.000178	1.781951	0.603741	-0.014539
1289	6.4400e-01	-11.5152	-27.938684	0.000154	1.540864	0.522059	-0.012572
1290	6.4450e-01	-11.5521	-28.031478	0.000227	2.274609	0.770658	-0.018559
1291	6.4500e-01	-11.5826	-28.101609	0.000172	1.719059	0.582433	-0.014026
1292	6.4550e-01	-11.6098	-28.178581	0.000189	1.886772	0.639256	-0.015395
1293	6.4600e-01	-11.6708	-28.252560	0.000181	1.813398	0.614396	-0.014796
1294	6.4650e-01	-11.7141	-28.323546	0.000174	1.740023	0.589536	-0.014197
1295	6.4700e-01	-11.7590	-28.395815	0.000177	1.771469	0.600190	-0.014454
1296	6.4750e-01	-11.7719	-28.470649	0.000183	1.834362	0.621499	-0.014967
1297	6.4800e-01	-11.8168	-28.542490	0.000176	1.760987	0.596639	-0.014368
1298	6.4850e-01	-11.8424	-28.623739	0.000199	1.991593	0.674770	-0.016250
1299	6.4900e-01	-11.8970	-28.700284	0.000188	1.876290	0.635704	-0.015309
1300	6.4950e-01	-11.9628	-28.766566	0.000162	1.624720	0.550470	-0.013256
1301	6.5000e-01	-11.9916	-28.849953	0.000204	2.044003	0.692527	-0.016677
1302	6.5050e-01	-11.9997	-28.926498	0.000188	1.876290	0.635704	-0.015309
1303	6.5100e-01	-12.0301	-29.004753	0.000192	1.918218	0.649910	-0.015651
1304	6.5150e-01	-12.0975	-29.077022	0.000177	1.771469	0.600190	-0.014454
1305	6.5200e-01	-12.1344	-29.153995	0.000189	1.886772	0.639256	-0.015395
1306	6.5250e-01	-12.1825	-29.230539	0.000188	1.876290	0.635704	-0.015309
1307	6.5300e-01	-12.2210	-29.302381	0.000176	1.760987	0.596639	-0.014368
1308	6.5350e-01	-12.2628	-29.366952	0.000158	1.582792	0.536265	-0.012914
1309	6.5400e-01	-12.3125	-29.449056	0.000201	2.012557	0.681873	-0.016421
1310	6.5450e-01	-12.3590	-29.526884	0.000191	1.907736	0.646359	-0.015566
1311	6.5500e-01	-12.3895	-29.588462	0.000151	1.509418	0.511405	-0.012316
1312	6.5550e-01	-12.3847	-29.667572	-0.000194	-1.939182	-0.657013	-0.015822
1313	6.5600e-01	-12.4537	-29.734710	0.000165	1.645685	0.557573	-0.013427
1314	6.5650e-01	-12.4922	-29.808261	0.000180	1.802916	0.610844	-0.014710
1315	6.5700e-01	-12.5323	-29.886089	0.000191	1.907736	0.646359	-0.015566
1316	6.5750e-01	-12.5692	-29.954081	0.000167	1.666649	0.564676	-0.013598
1317	6.5800e-01	-12.6109	-30.033620	0.000195	1.949665	0.660564	-0.015908
1318	6.5850e-01	-12.6542	-30.099902	0.000162	1.624720	0.550470	-0.013256
1319	6.5900e-01	-12.6815	-30.176019	0.000187	1.865808	0.632153	-0.015223
1320	6.5950e-01	-12.7376	-30.254274	0.000192	1.918218	0.649910	-0.015651
1321	6.6000e-01	-12.7761	-30.319273	0.000159	1.593274	0.539816	-0.013000
1322	6.6050e-01	-12.8210	-30.400095	0.000198	1.981111	0.671218	-0.016164
1323	6.6100e-01	-12.8290	-30.479205	0.000194	1.939182	0.657013	-0.015822
1324	6.6150e-01	-12.8772	-30.556605	0.000190	1.897254	0.642807	-0.015480
1325	6.6200e-01	-12.9397	-30.618183	0.000151	1.509418	0.511405	-0.012316
1326	6.6250e-01	-12.9766	-30.682327	0.000157	1.572310	0.532713	-0.012829
1327	6.6300e-01	-13.0344	-30.752885	0.000173	1.729541	0.585984	-0.014112
1328	6.6350e-01	-13.0504	-30.824299	0.000175	1.750505	0.593087	-0.014283
1329	6.6400e-01	-13.1034	-30.893147	0.000169	1.687613	0.571779	-0.013770
1330	6.6450e-01	-13.1515	-30.972685	0.000195	1.949665	0.660564	-0.015908
1331	6.6500e-01	-13.1579	-31.058638	0.000211	2.106896	0.713836	-0.017191
1332	6.6550e-01	-13.1948	-31.123209	0.000158	1.582792	0.536265	-0.012914
1333	6.6600e-01	-13.2702	-31.187353	0.000157	1.572310	0.532713	-0.012829
1334	6.6650e-01	-13.3055	-31.262615	0.000184	1.844844	0.625050	-0.015052
1335	6.6700e-01	-13.3296	-31.339587	0.000189	1.886772	0.639256	-0.015395
1336	6.6750e-01	-13.4002	-31.400738	0.000150	1.498936	0.507853	-0.012230
1337	6.6800e-01	-13.4403	-31.471724	0.000174	1.740023	0.589536	-0.014197
1338	6.6850e-01	-13.4643	-31.545275	0.000180	1.802916	0.610844	-0.014710
1339	6.6900e-01	-13.4868	-31.632083	0.000213	2.127860	0.720938	-0.017362
1340	6.6950e-01	-13.5301	-31.690668	0.000144	1.436043	0.486545	-0.011717
1341	6.7000e-01	-13.5510	-31.765074	0.000182	1.823880	0.617947	-0.014881
1342	6.7050e-01	-13.5879	-31.831356	0.000162	1.624720	0.550470	-0.013256
1343	6.7100e-01	-13.6568	-31.902770	0.000175	1.750505	0.593087	-0.014283
1344	6.7150e-01	-13.7082	-31.973328	0.000173	1.729541	0.585984	-0.014112
1345	6.7200e-01	-13.7531	-32.053294	0.000196	1.960147	0.664116	-0.015993
1346	6.7250e-01	-13.7900	-32.111451	0.000143	1.425561	0.482993	-0.011631
1347	6.7300e-01	-13.8253	-32.185430	0.000181	1.813398	0.614396	-0.014796
1348	6.7350e-01	-13.8574	-32.257699	0.000177	1.771469	0.600190	-0.014454
1349	6.7400e-01	-13.9247	-32.323125	0.000160	1.603756	0.543367	-0.013085
1350	6.7450e-01	-13.9616	-32.402664	0.000195	1.949665	0.660564	-0.015908
1351	6.7500e-01	-13.9937	-32.475360	0.000178	1.781951	0.603741	-0.014539
1352	6.7550e-01	-13.9825	-32.556609	-0.000199	-1.991593	-0.674770	-0.016250
1353	6.7600e-01	-14.0723	-32.614338	0.000142	1.415079	0.479442	-0.011546
1354	6.7650e-01	-14.1172	-32.685324	0.000174	1.740023	0.589536	-0.014197
1355	6.7700e-01	-14.1429	-32.759303	0.000181	1.813398	0.614396	-0.014796
1356	6.7750e-01	-14.1734	-32.830289	0.000174	1.740023	0.589536	-0.014197
1357	6.7800e-01	-14.1959	-32.902985	0.000178	1.781951	0.603741	-0.014539
1358	6.7850e-01	-14.2536	-32.974399	0.000175	1.750505	0.593087	-0.014283
1359	6.7900e-01	-14.3178	-33.043674	0.000170	1.698095	0.575330	-0.013855
1360	6.7950e-01	-14.3531	-33.097555	0.000132	1.320740	0.447479	-0.010776
1361	6.8000e-01	-14.3579	-33.177521	0.000196	1.960147	0.664116	-0.015993
1362	6.8050e-01	-14.4044	-33.249362	0.000176	1.760987	0.596639	-0.014368
1363	6.8100e-01	-14.4493	-33.315644	0.000162	1.624720	0.550470	-0.013256
1364	6.8150e-01	-14.4718	-33.390906	0.000184	1.844844	0.625050	-0.015052
1365	6.8200e-01	-14.5392	-33.458043	0.000165	1.645685	0.557573	-0.013427
1366	6.8250e-01	-14.5969	-33.520476	0.000153	1.530382	0.518507	-0.012487
1367	6.8300e-01	-14.5985	-33.598304	0.000191	1.907736	0.646359	-0.015566
1368	6.8350e-01	-14.6210	-33.675277	0.000189	1.886772	0.639256	-0.015395
1369	6.8400e-01	-14.7140	-33.745835	0.000173	1.729541	0.585984	-0.014112
1370	6.8450e-01	-14.7445	-33.811261	0.000160	1.603756	0.543367	-0.013085
1371	6.8500e-01	-14.8055	-33.873267	0.000152	1.519900	0.514956	-0.012401
1372	6.8550e-01	-14.8183	-33.942970	0.000171	1.708577	0.578882	-0.013941
1373	6.8600e-01	-14.8568	-34.021653	0.000193	1.928700	0.653461	-0.015737
1374	6.8650e-01	-14.9033	-34.089218	0.000166	1.656167	0.561124	-0.013513
1375	6.8700e-01	-14.9194	-34.161914	0.000178	1.781951	0.603741	-0.014539
1376	6.8750e-01	-14.9835	-34.224347	0.000153	1.530382	0.518507	-0.012487
1377	6.8800e-01	-15.0204	-34.297471	0.000179	1.792434	0.607293	-0.014625
1378	6.8850e-01	-15.0621	-34.360760	0.000155	1.551346	0.525610	-0.012658
1379	6.8900e-01	-15.1119	-34.427469	0.000164	1.635203	0.554022	-0.013342
1380	6.8950e-01	-15.1391	-34.500593	0.000179	1.792434	0.607293	-0.014625
1381	6.9000e-01	-15.1728	-34.569441	0.000169	1.687613	0.571779	-0.013770
1382	6.9050e-01	-15.2178	-34.643848	0.000182	1.823880	0.617947	-0.014881
1383	6.9100e-01	-15.2354	-34.713123	0.000170	1.698095	0.575330	-0.013855
1384	6.9150e-01	-15.3108	-34.767859	0.000134	1.341705	0.454582	-0.010947
1385	6.9200e-01	-15.3605	-34.842266	0.000182	1.823880	0.617947	-0.014881
1386	6.9250e-01	-15.3862	-34.909403	0.000165	1.645685	0.557573	-0.013427
1387	6.9300e-01	-15.4327	-34.981244	0.000176	1.760987	0.596639	-0.014368
1388	6.9350e-01	-15.4664	-35.048381	0.000165	1.645685	0.557573	-0.013427
1389	6.9400e-01	-15.4969	-35.115946	0.000166	1.656167	0.561124	-0.013513
1390	6.9450e-01	-15.5530	-35.185649	0.000171	1.708577	0.578882	-0.013941
1391	6.9500e-01	-15.5835	-35.246799	0.000150	1.498936	0.507853	-0.012230
1392	6.9550e-01	-15.6268	-35.325910	0.000194	1.939182	0.657013	-0.015822
1393	6.9600e-01	-15.6220	-35.389199	-0.000155	-1.551346	-0.525610	-0.012658
1394	6.9650e-01	-15.6974	-35.463178	0.000181	1.813398	0.614396	-0.014796
1395	6.9700e-01	-15.7552	-35.523901	0.000149	1.488454	0.504302	-0.012145
1396	6.9750e-01	-15.7808	-35.599163	0.000184	1.844844	0.625050	-0.015052
1397	6.9800e-01	-15.8209	-35.678701	0.000195	1.949665	0.660564	-0.015908
1398	6.9850e-01	-15.8659	-35.747549	0.000169	1.687613	0.571779	-0.013770
1399	6.9900e-01	-15.9140	-35.816824	0.000170	1.698095	0.575330	-0.013855
1400	6.9950e-01	-15.9445	-35.875836	0.000145	1.446525	0.490096	-0.011802
1401	7.0000e-01	-15.9445	-35.956657	0.000198	1.981111	0.671218	-0.016164
1402	7.0050e-01	-16.0006	-36.021229	0.000158	1.582792	0.536265	-0.012914
1403	7.0100e-01	-16.0520	-36.082379	0.000150	1.498936	0.507853	-0.012230
1404	7.0150e-01	-16.1177	-36.152510	0.000172	1.719059	0.582433	-0.014026
1405	7.0200e-01	-16.1386	-36.228199	0.000186	1.855326	0.628601	-0.015138
1406	7.0250e-01	-16.1723	-36.283363	0.000135	1.352187	0.458133	-0.011033
1407	7.0300e-01	-16.2236	-36.344514	0.000150	1.498936	0.507853	-0.012230
1408	7.0350e-01	-16.2749	-36.402671	0.000143	1.425561	0.482993	-0.011631
1409	7.0400e-01	-16.3022	-36.480926	0.000192	1.918218	0.649910	-0.015651
1410	7.0450e-01	-16.3423	-36.563458	0.000202	2.023039	0.685424	-0.016506
1411	7.0500e-01	-16.3856	-36.626319	0.000154	1.540864	0.522059	-0.012572
1412	7.0550e-01	-16.4177	-36.688752	0.000153	1.530382	0.518507	-0.012487
1413	7.0600e-01	-16.4209	-36.764014	0.000184	1.844844	0.625050	-0.015052
1414	7.0650e-01	-16.5060	-36.823026	0.000145	1.446525	0.490096	-0.011802
1415	7.0700e-01	-16.5445	-36.901282	0.000192	1.918218	0.649910	-0.015651
1416	7.0750e-01	-16.5894	-36.954307	0.000130	1.299776	0.440376	-0.010605
1417	7.0800e-01	-16.5926	-37.033845	0.000195	1.949665	0.660564	-0.015908
1418	7.0850e-01	-16.6359	-37.093713	0.000147	1.467489	0.497199	-0.011974
1419	7.0900e-01	-16.7049	-37.154863	0.000150	1.498936	0.507853	-0.012230
1420	7.0950e-01	-16.7674	-37.225849	0.000174	1.740023	0.589536	-0.014197
1421	7.1000e-01	-16.7771	-37.306670	0.000198	1.981111	0.671218	-0.016164
1422	7.1050e-01	-16.8075	-37.369104	0.000153	1.530382	0.518507	-0.012487
1423	7.1100e-01	-16.8460	-37.434958	0.000161	1.614238	0.546919	-0.013171
1424	7.1150e-01	-16.8813	-37.503378	0.000168	1.677131	0.568227	-0.013684
1425	7.1200e-01	-16.9198	-37.572653	0.000170	1.698095	0.575330	-0.013855
1426	7.1250e-01	-16.9824	-37.637652	0.000159	1.593274	0.539816	-0.013000
1427	7.1300e-01	-17.0145	-37.700941	0.000155	1.551346	0.525610	-0.012658
1428	7.1350e-01	-17.0755	-37.759098	0.000143	1.425561	0.482993	-0.011631
1429	7.1400e-01	-17.0706	-37.838636	-0.000195	-1.949665	-0.660564	-0.015908
1430	7.1450e-01	-17.1428	-37.901070	0.000153	1.530382	0.518507	-0.012487
1431	7.1500e-01	-17.1878	-37.967779	0.000164	1.635203	0.554022	-0.013342
1432	7.1550e-01	-17.2166	-38.030212	0.000153	1.530382	0.518507	-0.012487
1433	7.1600e-01	-17.2712	-38.111461	0.000199	1.991593	0.674770	-0.016250
1434	7.1650e-01	-17.3113	-38.168335	0.000139	1.394115	0.472339	-0.011375
1435	7.1700e-01	-17.3369	-38.246591	0.000192	1.918218	0.649910	-0.015651
1436	7.1750e-01	-17.4027	-38.303465	0.000139	1.394115	0.472339	-0.011375
1437	7.1800e-01	-17.4139	-38.377016	0.000180	1.802916	0.610844	-0.014710
1438	7.1850e-01	-17.4733	-38.438167	0.000150	1.498936	0.507853	-0.012230
1439	7.1900e-01	-17.4861	-38.501883	0.000156	1.561828	0.529162	-0.012743
1440	7.1950e-01	-17.5182	-38.578428	0.000188	1.876290	0.635704	-0.015309
1441	7.2000e-01	-17.5920	-38.649841	0.000175	1.750505	0.593087	-0.014283
1442	7.2050e-01	-17.6482	-38.710564	0.000149	1.488454	0.504302	-0.012145
1443	7.2100e-01	-17.6770	-38.778129	0.000166	1.656167	0.561124	-0.013513
1444	7.2150e-01	-17.7043	-38.835003	0.000139	1.394115	0.472339	-0.011375
1445	7.2200e-01	-17.7316	-38.902568	0.000166	1.656167	0.561124	-0.013513
1446	7.2250e-01	-17.7942	-38.966284	0.000156	1.561828	0.529162	-0.012743
1447	7.2300e-01	-17.8150	-39.043684	0.000190	1.897254	0.642807	-0.015480
1448	7.2350e-01	-17.8519	-39.099703	0.000137	1.373151	0.465236	-0.011204
1449	7.2400e-01	-17.9048	-39.171117	0.000175	1.750505	0.593087	-0.014283
1450	7.2450e-01	-17.9273	-39.238681	0.000166	1.656167	0.561124	-0.013513
1451	7.2500e-01	-17.9883	-39.301970	0.000155	1.551346	0.525610	-0.012658
1452	7.2550e-01	-18.0268	-39.386640	0.000208	2.075449	0.703181	-0.016934
1453	7.2600e-01	-18.0797	-39.446935	0.000148	1.477972	0.500750	-0.012059
1454	7.2650e-01	-18.1182	-39.515783	0.000169	1.687613	0.571779	-0.013770
1455	7.2700e-01	-18.1423	-39.573512	0.000142	1.415079	0.479442	-0.011546
1456	7.2750e-01	-18.2145	-39.646208	0.000178	1.781951	0.603741	-0.014539
1457	7.2800e-01	-18.2369	-39.717194	0.000174	1.740023	0.589536	-0.014197
1458	7.2850e-01	-18.2578	-39.786469	0.000170	1.698095	0.575330	-0.013855
1459	7.2900e-01	-18.2818	-39.849758	0.000155	1.551346	0.525610	-0.012658
1460	7.2950e-01	-18.3669	-39.920744	0.000174	1.740023	0.589536	-0.014197
1461	7.3000e-01	-18.3925	-39.975907	0.000135	1.352187	0.458133	-0.011033
1462	7.3050e-01	-18.3989	-40.051169	0.000184	1.844844	0.625050	-0.015052
1463	7.3100e-01	-18.4342	-40.108899	0.000142	1.415079	0.479442	-0.011546
1464	7.3150e-01	-18.5209	-40.168766	0.000147	1.467489	0.497199	-0.011974
1465	7.3200e-01	-18.5385	-40.253864	0.000209	2.085931	0.706733	-0.017019
1466	7.3250e-01	-18.6043	-40.305179	0.000126	1.257848	0.426170	-0.010263
1467	7.3300e-01	-18.6203	-40.381724	0.000188	1.876290	0.635704	-0.015309
1468	7.3350e-01	-18.6861	-40.441591	0.000147	1.467489	0.497199	-0.011974
1469	7.3400e-01	-18.6941	-40.505735	0.000157	1.572310	0.532713	-0.012829
1470	7.3450e-01	-18.7358	-40.578859	0.000179	1.792434	0.607293	-0.014625
1471	7.3500e-01	-18.7775	-40.656259	0.000190	1.897254	0.642807	-0.015480
1472	7.3550e-01	-18.8465	-40.705864	0.000122	1.215920	0.411965	-0.009921
1473	7.3600e-01	-18.8578	-40.784547	0.000193	1.928700	0.653461	-0.015737
1474	7.3650e-01	-18.9107	-40.848263	0.000156	1.561828	0.529162	-0.012743
1475	7.3700e-01	-18.9508	-40.922670	0.000182	1.823880	0.617947	-0.014881
1476	7.3750e-01	-18.9540	-40.999215	0.000188	1.876290	0.635704	-0.015309
1477	7.3800e-01	-19.0118	-41.050530	0.000126	1.257848	0.426170	-0.010263
1478	7.3850e-01	-19.0791	-41.124509	0.000181	1.813398	0.614396	-0.014796
1479	7.3900e-01	-19.1257	-41.174113	0.000122	1.215920	0.411965	-0.009921
1480	7.3950e-01	-19.1561	-41.240395	0.000162	1.624720	0.550470	-0.013256
1481	7.4000e-01	-19.2011	-41.323782	0.000204	2.044003	0.692527	-0.016677
1482	7.4050e-01	-19.2027	-41.390492	0.000164	1.635203	0.554022	-0.013342
1483	7.4100e-01	-19.2492	-41.451215	0.000149	1.488454	0.504302	-0.012145
1484	7.4150e-01	-19.3005	-41.521773	0.000173	1.729541	0.585984	-0.014112
1485	7.4200e-01	-19.3182	-41.605587	0.000205	2.054485	0.696078	-0.016763
1486	7.4250e-01	-19.3872	-41.652626	0.000115	1.153027	0.390656	-0.009408
1487	7.4300e-01	-19.4353	-41.723612	0.000174	1.740023	0.589536	-0.014197
1488	7.4350e-01	-19.4449	-41.798446	0.000183	1.834362	0.621499	-0.014967
1489	7.4400e-01	-19.5027	-41.855320	0.000139	1.394115	0.472339	-0.011375
1490	7.4450e-01	-19.5652	-41.921602	0.000162	1.624720	0.550470	-0.013256
1491	7.4500e-01	-19.5636	-41.984036	-0.000153	-1.530382	-0.518507	-0.012487
1492	7.4550e-01	-19.6134	-42.053311	0.000170	1.698095	0.575330	-0.013855
1493	7.4600e-01	-19.6599	-42.124724	0.000175	1.750505	0.593087	-0.014283
1494	7.4650e-01	-19.7369	-42.175612	0.000125	1.247366	0.422619	-0.010177
1495	7.4700e-01	-19.7593	-42.246170	0.000173	1.729541	0.585984	-0.014112
1496	7.4750e-01	-19.7738	-42.330412	0.000206	2.064967	0.699630	-0.016848
1497	7.4800e-01	-19.8267	-42.391135	0.000149	1.488454	0.504302	-0.012145
1498	7.4850e-01	-19.8299	-42.466825	0.000186	1.855326	0.628601	-0.015138
1499	7.4900e-01	-19.8989	-42.533962	0.000165	1.645685	0.557573	-0.013427
1500	7.4950e-01	-19.9278	-42.605803	0.000176	1.760987	0.596639	-0.014368
1501	7.5000e-01	-19.9871	-42.675506	0.000171	1.708577	0.578882	-0.013941
1502	7.5050e-01	-19.9294	-42.707150	-0.000078	-0.775673	-0.262805	-0.006329
1503	7.5100e-01	-19.8684	-42.693894	0.000032	0.324944	0.110094	0.002651
1504	7.5150e-01	-19.8347	-42.666526	0.000067	0.670852	0.227291	0.005474
1505	7.5200e-01	-19.7561	-42.619059	0.000116	1.163509	0.394208	0.009493
1506	7.5250e-01	-19.7353	-42.573731	0.000111	1.111099	0.376451	0.009066
1507	7.5300e-01	-19.7176	-42.526692	0.000115	1.153027	0.390656	0.009408
1508	7.5350e-01	-19.6727	-42.472811	0.000132	1.320740	0.447479	0.010776
1509	7.5400e-01	-19.6599	-42.420641	0.000128	1.278812	0.433273	0.010434
1510	7.5450e-01	-19.6117	-42.376596	0.000108	1.079653	0.365796	0.008809
1511	7.5500e-01	-19.5476	-42.333406	0.000106	1.058689	0.358693	0.008638
1512	7.5550e-01	-19.5075	-42.273110	0.000148	1.477972	0.500750	0.012059
1513	7.5600e-01	-19.4545	-42.238045	0.000086	0.859530	0.291216	0.007013
1514	7.5650e-01	-19.4080	-42.173046	0.000159	1.593274	0.539816	0.013000
1515	7.5700e-01	-19.3567	-42.131566	0.000102	1.016761	0.344488	0.008296
1516	7.5750e-01	-19.3567	-42.072982	-0.000144	-1.436043	-0.486545	0.011717
1517	7.5800e-01	-19.2925	-42.028081	0.000110	1.100617	0.372899	0.008980
1518	7.5850e-01	-19.2861	-41.964365	0.000156	1.561828	0.529162	0.012743
1519	7.5900e-01	-19.2267	-41.924168	0.000099	0.985314	0.333834	0.008039
1520	7.5950e-01	-19.2043	-41.865583	0.000144	1.436043	0.486545	0.011717
1521	7.6000e-01	-19.1674	-41.815979	0.000122	1.215920	0.411965	0.009921
1522	7.6050e-01	-19.1321	-41.761243	0.000134	1.341705	0.454582	0.010947
1523	7.6100e-01	-19.0840	-41.713349	0.000117	1.173992	0.397759	0.009579
1524	7.6150e-01	-19.0310	-41.658185	0.000135	1.352187	0.458133	0.011033
1525	7.6200e-01	-18.9893	-41.607725	0.000124	1.236884	0.419068	0.010092
1526	7.6250e-01	-18.9476	-41.550851	0.000139	1.394115	0.472339	0.011375
1527	7.6300e-01	-18.9267	-41.499109	0.000127	1.268330	0.429722	0.010349
1528	7.6350e-01	-18.8562	-41.450787	0.000118	1.184474	0.401311	0.009664
1529	7.6400e-01	-18.8449	-41.398617	0.000128	1.278812	0.433273	0.010434
1530	7.6450e-01	-18.7888	-41.339177	0.000146	1.457007	0.493647	0.011888
1531	7.6500e-01	-18.7583	-41.284441	0.000134	1.341705	0.454582	0.010947
1532	7.6550e-01	-18.7182	-41.227994	0.000138	1.383633	0.468788	0.011289
1533	7.6600e-01	-18.6877	-41.177107	0.000125	1.247366	0.422619	0.010177
1534	7.6650e-01	-18.6412	-41.115101	0.000152	1.519900	0.514956	0.012401
1535	7.6700e-01	-18.5562	-41.067635	0.000116	1.163509	0.394208	0.009493
1536	7.6750e-01	-18.5658	-41.003919	-0.000156	-1.561828	-0.529162	0.012743
1537	7.6800e-01	-18.5369	-40.947900	0.000137	1.373151	0.465236	0.011204
1538	7.6850e-01	-18.5032	-40.886322	0.000151	1.509418	0.511405	0.012316
1539	7.6900e-01	-18.4230	-40.832013	0.000133	1.331223	0.451030	0.010862
1540	7.6950e-01	-18.4070	-40.779415	0.000129	1.289294	0.436825	0.010520
1541	7.7000e-01	-18.3572	-40.724679	0.000134	1.341705	0.454582	0.010947
1542	7.7050e-01	-18.3059	-40.662674	0.000152	1.519900	0.514956	0.012401
1543	7.7100e-01	-18.2786	-40.616062	0.000114	1.142545	0.387105	0.009322
1544	7.7150e-01	-18.2417	-40.559188	0.000139	1.394115	0.472339	0.011375
1545	7.7200e-01	-18.1856	-40.497183	0.000152	1.519900	0.514956	0.012401
1546	7.7250e-01	-18.1278	-40.446723	0.000124	1.236884	0.419068	0.010092
1547	7.7300e-01	-18.1214	-40.383434	0.000155	1.551346	0.525610	0.012658
1548	7.7350e-01	-18.0749	-40.330409	0.000130	1.299776	0.440376	0.010605
1549	7.7400e-01	-18.0236	-40.275245	0.000135	1.352187	0.458133	0.011033
1550	7.7450e-01	-17.9899	-40.214095	0.000150	1.498936	0.507853	0.012230
1551	7.7500e-01	-17.9690	-40.153799	0.000148	1.477972	0.500750	0.012059
1552	7.7550e-01	-17.9145	-40.099491	0.000133	1.331223	0.451030	0.010862
1553	7.7600e-01	-17.8824	-40.037913	0.000151	1.509418	0.511405	0.012316
1554	7.7650e-01	-17.8294	-39.980184	0.000142	1.415079	0.479442	0.011546
1555	7.7700e-01	-17.8070	-39.929724	0.000124	1.236884	0.419068	0.010092
1556	7.7750e-01	-17.7444	-39.870712	0.000145	1.446525	0.490096	0.011802
1557	7.7800e-01	-17.7300	-39.799298	0.000175	1.750505	0.593087	0.014283
1558	7.7850e-01	-17.6835	-39.741569	0.000142	1.415079	0.479442	0.011546
1559	7.7900e-01	-17.6225	-39.697951	0.000107	1.069171	0.362245	0.008724
1560	7.7950e-01	-17.5744	-39.644070	0.000132	1.320740	0.447479	0.010776
1561	7.8000e-01	-17.5311	-39.588906	0.000135	1.352187	0.458133	0.011033
1562	7.8050e-01	-17.4877	-39.522197	0.000164	1.635203	0.554022	0.013342
1563	7.8100e-01	-17.4974	-39.458481	-0.000156	-1.561828	-0.529162	0.012743
1564	7.8150e-01	-17.4300	-39.406738	0.000127	1.268330	0.429722	0.010349
1565	7.8200e-01	-17.3867	-39.343877	0.000154	1.540864	0.522059	0.012572
1566	7.8250e-01	-17.3514	-39.283582	0.000148	1.477972	0.500750	0.012059
1567	7.8300e-01	-17.2840	-39.224570	0.000145	1.446525	0.490096	0.011802
1568	7.8350e-01	-17.2599	-39.169406	0.000135	1.352187	0.458133	0.011033
1569	7.8400e-01	-17.2214	-39.104835	0.000158	1.582792	0.536265	0.012914
1570	7.8450e-01	-17.1990	-39.045395	0.000146	1.457007	0.493647	0.011888
1571	7.8500e-01	-17.1380	-38.976547	0.000169	1.687613	0.571779	0.013770
1572	7.8550e-01	-17.1204	-38.918818	0.000142	1.415079	0.479442	0.011546
1573	7.8600e-01	-17.1059	-38.862799	0.000137	1.373151	0.465236	0.011204
1574	7.8650e-01	-17.0418	-38.806780	0.000137	1.373151	0.465236	0.011204
1575	7.8700e-01	-17.0081	-38.746485	0.000148	1.477972	0.500750	0.012059
1576	7.8750e-01	-16.9263	-38.689183	0.000140	1.404597	0.475890	0.011460
1577	7.8800e-01	-16.9134	-38.635730	0.000131	1.310258	0.443928	0.010691
1578	7.8850e-01	-16.8685	-38.569875	0.000161	1.614238	0.546919	0.013171
1579	7.8900e-01	-16.8027	-38.525830	0.000108	1.079653	0.365796	0.008809
1580	7.8950e-01	-16.7482	-38.461686	0.000157	1.572310	0.532713	0.012829
1581	7.9000e-01	-16.7354	-38.393266	0.000168	1.677131	0.568227	0.013684
1582	7.9050e-01	-16.7033	-38.327412	0.000161	1.614238	0.546919	0.013171
1583	7.9100e-01	-16.6503	-38.278663	0.000119	1.194956	0.404862	0.009750
1584	7.9150e-01	-16.6134	-38.199124	0.000195	1.949665	0.660564	0.015908
1585	7.9200e-01	-16.6038	-38.143961	0.000135	1.352187	0.458133	0.011033
1586	7.9250e-01	-16.5541	-38.090080	0.000132	1.320740	0.447479	0.010776
1587	7.9300e-01	-16.5188	-38.021660	0.000168	1.677131	0.568227	0.013684
1588	7.9350e-01	-16.4723	-37.963930	0.000142	1.415079	0.479442	0.011546
1589	7.9400e-01	-16.4466	-37.903208	0.000149	1.488454	0.504302	0.012145
1590	7.9450e-01	-16.3969	-37.839064	0.000157	1.572310	0.532713	0.012829
1591	7.9500e-01	-16.3680	-37.783473	0.000136	1.362669	0.461685	0.011118
1592	7.9550e-01	-16.3102	-37.726171	0.000140	1.404597	0.475890	0.011460
1593	7.9600e-01	-16.2589	-37.671862	0.000133	1.331223	0.451030	0.010862
1594	7.9650e-01	-16.2364	-37.598738	0.000179	1.792434	0.607293	0.014625
1595	7.9700e-01	-16.1979	-37.549989	0.000119	1.194956	0.404862	0.009750
1596	7.9750e-01	-16.1546	-37.482852	0.000165	1.645685	0.557573	0.013427
1597	7.9800e-01	-16.1033	-37.428116	0.000134	1.341705	0.454582	0.010947
1598	7.9850e-01	-16.0872	-37.352854	0.000184	1.844844	0.625050	0.015052
1599	7.9900e-01	-16.0471	-37.306670	0.000113	1.132063	0.383553	0.009237
1600	7.9950e-01	-15.9878	-37.241244	0.000160	1.603756	0.543367	0.013085
1601	8.0000e-01	-15.9220	-37.182231	0.000145	1.446525	0.490096	0.011802
1602	8.0050e-01	-15.8963	-37.114667	0.000166	1.656167	0.561124	0.013513
1603	8.0100e-01	-15.8643	-37.049240	0.000160	1.603756	0.543367	0.013085
1604	8.0150e-01	-15.8386	-36.980392	0.000169	1.687613	0.571779	0.013770
1605	8.0200e-01	-15.7921	-36.924801	0.000136	1.362669	0.461685	0.011118
1606	8.0250e-01	-15.7776	-36.861085	0.000156	1.561828	0.529162	0.012743
1607	8.0300e-01	-15.7151	-36.803355	0.000142	1.415079	0.479442	0.011546
1608	8.0350e-01	-15.6429	-36.742633	0.000149	1.488454	0.504302	0.012145
1609	8.0400e-01	-15.6300	-36.678916	0.000156	1.561828	0.529162	0.012743
1610	8.0450e-01	-15.5787	-36.625463	0.000131	1.310258	0.443928	0.010691
1611	8.0500e-01	-15.5482	-36.556616	0.000169	1.687613	0.571779	0.013770
1612	8.0550e-01	-15.5081	-36.492900	0.000156	1.561828	0.529162	0.012743
1613	8.0600e-01	-15.4584	-36.428328	0.000158	1.582792	0.536265	0.012914
1614	8.0650e-01	-15.4488	-36.364184	0.000157	1.572310	0.532713	0.012829
1615	8.0700e-01	-15.3990	-36.300041	0.000157	1.572310	0.532713	0.012829
1616	8.0750e-01	-15.3509	-36.230765	0.000170	1.698095	0.575330	0.013855
1617	8.0800e-01	-15.3188	-36.178595	0.000128	1.278812	0.433273	0.010434
1618	8.0850e-01	-15.2691	-36.121293	0.000140	1.404597	0.475890	0.011460
1619	8.0900e-01	-15.2290	-36.056294	0.000159	1.593274	0.539816	0.013000
1620	8.0950e-01	-15.1712	-35.994716	0.000151	1.509418	0.511405	0.012316
1621	8.1000e-01	-15.1407	-35.934849	0.000147	1.467489	0.497199	0.011974
1622	8.1050e-01	-15.1263	-35.867284	0.000166	1.656167	0.561124	0.013513
1623	8.1100e-01	-15.0734	-35.803568	0.000156	1.561828	0.529162	0.012743
1624	8.1150e-01	-15.0140	-35.747976	0.000136	1.362669	0.461685	0.011118
1625	8.1200e-01	-14.9755	-35.688964	0.000145	1.446525	0.490096	0.011802
1626	8.1250e-01	-14.9402	-35.617551	0.000175	1.750505	0.593087	0.014283
1627	8.1300e-01	-14.9178	-35.547848	0.000171	1.708577	0.578882	0.013941
1628	8.1350e-01	-14.8761	-35.486270	0.000151	1.509418	0.511405	0.012316
1629	8.1400e-01	-14.8247	-35.425547	0.000149	1.488454	0.504302	0.012145
1630	8.1450e-01	-14.7926	-35.353278	0.000177	1.771469	0.600190	0.014454
1631	8.1500e-01	-14.7365	-35.300253	0.000130	1.299776	0.440376	0.010605
1632	8.1550e-01	-14.7220	-35.223708	0.000188	1.876290	0.635704	0.015309
1633	8.1600e-01	-14.6916	-35.165123	0.000144	1.436043	0.486545	0.011717
1634	8.1650e-01	-14.6402	-35.100552	0.000158	1.582792	0.536265	0.012914
1635	8.1700e-01	-14.5809	-35.044960	0.000136	1.362669	0.461685	0.011118
1636	8.1750e-01	-14.5408	-34.978251	0.000164	1.635203	0.554022	0.013342
1637	8.1800e-01	-14.4910	-34.917528	0.000149	1.488454	0.504302	0.012145
1638	8.1850e-01	-14.4573	-34.840983	0.000188	1.876290	0.635704	0.015309
1639	8.1900e-01	-14.4365	-34.779833	0.000150	1.498936	0.507853	0.012230
1640	8.1950e-01	-14.4172	-34.716116	0.000156	1.561828	0.529162	0.012743
1641	8.2000e-01	-14.3402	-34.659670	0.000138	1.383633	0.468788	0.011289
1642	8.2050e-01	-14.3049	-34.594671	0.000159	1.593274	0.539816	0.013000
1643	8.2100e-01	-14.2729	-34.524113	0.000173	1.729541	0.585984	0.014112
1644	8.2150e-01	-14.2151	-34.460824	0.000155	1.551346	0.525610	0.012658
1645	8.2200e-01	-14.1975	-34.400529	0.000148	1.477972	0.500750	0.012059
1646	8.2250e-01	-14.1541	-34.330826	0.000171	1.708577	0.578882	0.013941
1647	8.2300e-01	-14.0900	-34.266682	0.000157	1.572310	0.532713	0.012829
1648	8.2350e-01	-14.0643	-34.198690	0.000167	1.666649	0.564676	0.013598
1649	8.2400e-01	-14.0386	-34.135401	0.000155	1.551346	0.525610	0.012658
1650	8.2450e-01	-13.9729	-34.084942	0.000124	1.236884	0.419068	0.010092
1651	8.2500e-01	-13.9745	-34.001555	-0.000204	-2.044003	-0.692527	0.016677
1652	8.2550e-01	-13.8862	-33.946819	0.000134	1.341705	0.454582	0.010947
1653	8.2600e-01	-13.8911	-33.880964	-0.000161	-1.614238	-0.546919	0.013171
1654	8.2650e-01	-13.8509	-33.806985	0.000181	1.813398	0.614396	0.014796
1655	8.2700e-01	-13.7852	-33.745407	0.000151	1.509418	0.511405	0.012316
1656	8.2750e-01	-13.7354	-33.679980	0.000160	1.603756	0.543367	0.013085
1657	8.2800e-01	-13.7370	-33.615837	-0.000157	-1.572310	-0.532713	0.012829
1658	8.2850e-01	-13.6600	-33.549555	0.000162	1.624720	0.550470	0.013256
1659	8.2900e-01	-13.6183	-33.481562	0.000167	1.666649	0.564676	0.013598
1660	8.2950e-01	-13.5991	-33.417846	0.000156	1.561828	0.529162	0.012743
1661	8.3000e-01	-13.5670	-33.339163	0.000193	1.928700	0.653461	0.015737
1662	8.3050e-01	-13.4948	-33.275019	0.000157	1.572310	0.532713	0.012829
1663	8.3100e-01	-13.4114	-33.219000	0.000137	1.373151	0.465236	0.011204
1664	8.3150e-01	-13.4451	-33.147587	-0.000175	-1.750505	-0.593087	0.014283
1665	8.3200e-01	-13.3809	-33.087292	0.000148	1.477972	0.500750	0.012059
1666	8.3250e-01	-13.3536	-33.016734	0.000173	1.729541	0.585984	0.014112
1667	8.3300e-01	-13.3167	-32.951735	0.000159	1.593274	0.539816	0.013000
1668	8.3350e-01	-13.2542	-32.885880	0.000161	1.614238	0.546919	0.013171
1669	8.3400e-01	-13.2205	-32.825585	0.000148	1.477972	0.500750	0.012059
1670	8.3450e-01	-13.1836	-32.751606	0.000181	1.813398	0.614396	0.014796
1671	8.3500e-01	-13.1547	-32.690028	0.000151	1.509418	0.511405	0.012316
1672	8.3550e-01	-13.1002	-32.621608	0.000168	1.677131	0.568227	0.013684
1673	8.3600e-01	-13.0552	-32.554043	0.000166	1.656167	0.561124	0.013513
1674	8.3650e-01	-13.0135	-32.491610	0.000153	1.530382	0.518507	0.012487
1675	8.3700e-01	-12.9734	-32.415920	0.000186	1.855326	0.628601	0.015138
1676	8.3750e-01	-12.9462	-32.347500	0.000168	1.677131	0.568227	0.013684
1677	8.3800e-01	-12.8996	-32.277797	0.000171	1.708577	0.578882	0.013941
1678	8.3850e-01	-12.8692	-32.212371	0.000160	1.603756	0.543367	0.013085
1679	8.3900e-01	-12.8467	-32.131977	0.000197	1.970629	0.667667	0.016079
1680	8.3950e-01	-12.7986	-32.082372	0.000122	1.215920	0.411965	0.009921
1681	8.4000e-01	-12.7745	-32.018656	0.000156	1.561828	0.529162	0.012743
1682	8.4050e-01	-12.7232	-31.942967	0.000186	1.855326	0.628601	0.015138
1683	8.4100e-01	-12.6446	-31.884810	0.000143	1.425561	0.482993	0.011631
1684	8.4150e-01	-12.6269	-31.814679	0.000172	1.719059	0.582433	0.014026
1685	8.4200e-01	-12.5740	-31.752673	0.000152	1.519900	0.514956	0.012401
1686	8.4250e-01	-12.5403	-31.679549	0.000179	1.792434	0.607293	0.014625
1687	8.4300e-01	-12.5242	-31.616688	0.000154	1.540864	0.522059	0.012572
1688	8.4350e-01	-12.4553	-31.547413	0.000170	1.698095	0.575330	0.013855
1689	8.4400e-01	-12.4537	-31.466592	0.000198	1.981111	0.671218	0.016164
1690	8.4450e-01	-12.3927	-31.413994	0.000129	1.289294	0.436825	0.010520
1691	8.4500e-01	-12.3414	-31.340870	0.000179	1.792434	0.607293	0.014625
1692	8.4550e-01	-12.3301	-31.266036	0.000183	1.834362	0.621499	0.014967
1693	8.4600e-01	-12.2820	-31.204030	0.000152	1.519900	0.514956	0.012401
1694	8.4650e-01	-12.2194	-31.133472	0.000173	1.729541	0.585984	0.014112
1695	8.4700e-01	-12.1569	-31.068901	0.000158	1.582792	0.536265	0.012914
1696	8.4750e-01	-12.1264	-30.995349	0.000180	1.802916	0.610844	0.014710
1697	8.4800e-01	-12.0927	-30.932488	0.000154	1.540864	0.522059	0.012572
1698	8.4850e-01	-12.0991	-30.854660	-0.000191	-1.907736	-0.646359	0.015566
1699	8.4900e-01	-12.0382	-30.781536	0.000179	1.792434	0.607293	0.014625
1700	8.4950e-01	-12.0237	-30.716537	0.000159	1.593274	0.539816	0.013000
1701	8.5000e-01	-11.9612	-30.650255	0.000162	1.624720	0.550470	0.013256
1702	8.5050e-01	-11.9114	-30.578842	0.000175	1.750505	0.593087	0.014283
1703	8.5100e-01	-11.8505	-30.515981	0.000154	1.540864	0.522059	0.012572
1704	8.5150e-01	-11.8184	-30.442429	0.000180	1.802916	0.610844	0.014710
1705	8.5200e-01	-11.7943	-30.378713	0.000156	1.561828	0.529162	0.012743
1706	8.5250e-01	-11.7318	-30.315425	0.000155	1.551346	0.525610	0.012658
1707	8.5300e-01	-11.7061	-30.232038	0.000204	2.044003	0.692527	0.016677
1708	8.5350e-01	-11.6644	-30.172598	0.000146	1.457007	0.493647	0.011888
1709	8.5400e-01	-11.6323	-30.099902	0.000178	1.781951	0.603741	0.014539
1710	8.5450e-01	-11.5777	-30.033192	0.000164	1.635203	0.554022	0.013342
1711	8.5500e-01	-11.5617	-29.948522	0.000208	2.075449	0.703181	0.016934
1712	8.5550e-01	-11.4879	-29.890365	0.000143	1.425561	0.482993	0.011631
1713	8.5600e-01	-11.4767	-29.818524	0.000176	1.760987	0.596639	0.014368
1714	8.5650e-01	-11.4093	-29.751815	0.000164	1.635203	0.554022	0.013342
1715	8.5700e-01	-11.4109	-29.672704	-0.000194	-1.939182	-0.657013	0.015822
1716	8.5750e-01	-11.3243	-29.614975	0.000142	1.415079	0.479442	0.011546
1717	8.5800e-01	-11.3387	-29.531160	-0.000205	-2.054485	-0.696078	0.016763
1718	8.5850e-01	-11.2890	-29.462312	0.000169	1.687613	0.571779	0.013770
1719	8.5900e-01	-11.2328	-29.388333	0.000181	1.813398	0.614396	0.014796
1720	8.5950e-01	-11.1751	-29.325900	0.000153	1.530382	0.518507	0.012487
1721	8.6000e-01	-11.1526	-29.252348	0.000180	1.802916	0.610844	0.014710
1722	8.6050e-01	-11.1189	-29.185639	0.000164	1.635203	0.554022	0.013342
1723	8.6100e-01	-11.0756	-29.114225	0.000175	1.750505	0.593087	0.014283
1724	8.6150e-01	-11.0339	-29.035542	0.000193	1.928700	0.653461	0.015737
1725	8.6200e-01	-11.0066	-28.973109	0.000153	1.530382	0.518507	0.012487
1726	8.6250e-01	-10.9505	-28.897847	0.000184	1.844844	0.625050	0.015052
1727	8.6300e-01	-10.9136	-28.829855	0.000167	1.666649	0.564676	0.013598
1728	8.6350e-01	-10.8591	-28.762717	0.000165	1.645685	0.557573	0.013427
1729	8.6400e-01	-10.8366	-28.693442	0.000170	1.698095	0.575330	0.013855
1730	8.6450e-01	-10.7965	-28.610910	0.000202	2.023039	0.685424	0.016506
1731	8.6500e-01	-10.7500	-28.547622	0.000155	1.551346	0.525610	0.012658
1732	8.6550e-01	-10.7275	-28.472360	0.000184	1.844844	0.625050	0.015052
1733	8.6600e-01	-10.6746	-28.394532	0.000191	1.907736	0.646359	0.015566
1734	8.6650e-01	-10.6296	-28.332099	0.000153	1.530382	0.518507	0.012487
1735	8.6700e-01	-10.5815	-28.252133	0.000196	1.960147	0.664116	0.015993
1736	8.6750e-01	-10.5510	-28.182430	0.000171	1.708577	0.578882	0.013941
1737	8.6800e-01	-10.4901	-28.111016	0.000175	1.750505	0.593087	0.014283
1738	8.6850e-01	-10.4644	-28.039175	0.000176	1.760987	0.596639	0.014368
1739	8.6900e-01	-10.4355	-27.978880	0.000148	1.477972	0.500750	0.012059
1740	8.6950e-01	-10.3938	-27.889934	0.000218	2.180270	0.738695	0.017789
1741	8.7000e-01	-10.3329	-27.818521	0.000175	1.750505	0.593087	0.014283
1742	8.7050e-01	-10.2976	-27.743686	0.000183	1.834362	0.621499	0.014967
1743	8.7100e-01	-10.2912	-27.670135	0.000180	1.802916	0.610844	0.014710
1744	8.7150e-01	-10.2639	-27.604708	0.000160	1.603756	0.543367	0.013085
1745	8.7200e-01	-10.1997	-27.531584	0.000179	1.792434	0.607293	0.014625
1746	8.7250e-01	-10.1596	-27.461881	0.000171	1.708577	0.578882	0.013941
1747	8.7300e-01	-10.1083	-27.381488	0.000197	1.970629	0.667667	0.016079
1748	8.7350e-01	-10.1083	-27.303660	-0.000191	-1.907736	-0.646359	0.015566
1749	8.7400e-01	-10.0265	-27.239089	0.000158	1.582792	0.536265	0.012914
1750	8.7450e-01	-9.9960	-27.169386	0.000171	1.708577	0.578882	0.013941
1751	8.7500e-01	-9.9350	-27.081295	0.000216	2.159306	0.731593	0.017618
1752	8.7550e-01	-9.9286	-27.014585	0.000164	1.635203	0.554022	0.013342
1753	8.7600e-01	-9.8564	-26.931198	0.000204	2.044003	0.692527	0.016677
1754	8.7650e-01	-9.8243	-26.868337	0.000154	1.540864	0.522059	0.012572
1755	8.7700e-01	-9.7938	-26.796069	0.000177	1.771469	0.600190	0.014454
1756	8.7750e-01	-9.7810	-26.707550	0.000217	2.169788	0.735144	0.017704
1757	8.7800e-01	-9.6992	-26.651104	0.000138	1.383633	0.468788	0.011289
1758	8.7850e-01	-9.6864	-26.577980	0.000179	1.792434	0.607293	0.014625
1759	8.7900e-01	-9.6174	-26.498014	0.000196	1.960147	0.664116	0.015993
1760	8.7950e-01	-9.5789	-26.430022	0.000167	1.666649	0.564676	0.013598
1761	8.8000e-01	-9.5773	-26.353904	0.000187	1.865808	0.632153	0.015223
1762	8.8050e-01	-9.5067	-26.283346	0.000173	1.729541	0.585984	0.014112
1763	8.8100e-01	-9.4634	-26.205518	0.000191	1.907736	0.646359	0.015566
1764	8.8150e-01	-9.4201	-26.131111	0.000182	1.823880	0.617947	0.014881
1765	8.8200e-01	-9.4281	-26.053284	-0.000191	-1.907736	-0.646359	0.015566
1766	8.8250e-01	-9.3414	-25.978877	0.000182	1.823880	0.617947	0.014881
1767	8.8300e-01	-9.2933	-25.892069	0.000213	2.127860	0.720938	0.017362
1768	8.8350e-01	-9.2693	-25.831346	0.000149	1.488454	0.504302	0.012145
1769	8.8400e-01	-9.2131	-25.755656	0.000186	1.855326	0.628601	0.015138
1770	8.8450e-01	-9.1890	-25.676973	0.000193	1.928700	0.653461	0.015737
1771	8.8500e-01	-9.1361	-25.609836	0.000165	1.645685	0.557573	0.013427
1772	8.8550e-01	-9.1217	-25.532436	0.000190	1.897254	0.642807	0.015480
1773	8.8600e-01	-9.0511	-25.453753	0.000193	1.928700	0.653461	0.015737
1774	8.8650e-01	-9.0431	-25.375498	0.000192	1.918218	0.649910	0.015651
1775	8.8700e-01	-8.9997	-25.294676	0.000198	1.981111	0.671218	0.016164
1776	8.8750e-01	-8.9789	-25.214711	0.000196	1.960147	0.664116	0.015993
1777	8.8800e-01	-8.9051	-25.149711	0.000159	1.593274	0.539816	0.013000
1778	8.8850e-01	-8.8409	-25.076588	0.000179	1.792434	0.607293	0.014625
1779	8.8900e-01	-8.8425	-24.984220	-0.000226	-2.264127	-0.767107	0.018473
1780	8.8950e-01	-8.8024	-24.911524	0.000178	1.781951	0.603741	0.014539
1781	8.9000e-01	-8.7495	-24.839256	0.000177	1.771469	0.600190	0.014454
1782	8.9050e-01	-8.6805	-24.767842	0.000175	1.750505	0.593087	0.014283
1783	8.9100e-01	-8.6645	-24.696429	0.000175	1.750505	0.593087	0.014283
1784	8.9150e-01	-8.6147	-24.616463	0.000196	1.960147	0.664116	0.015993
1785	8.9200e-01	-8.6195	-24.530510	-0.000211	-2.106896	-0.713836	0.017191
1786	8.9250e-01	-8.5522	-24.457386	0.000179	1.792434	0.607293	0.014625
1787	8.9300e-01	-8.4848	-24.387256	0.000172	1.719059	0.582433	0.014026
1788	8.9350e-01	-8.4671	-24.309000	0.000192	1.918218	0.649910	0.015651
1789	8.9400e-01	-8.4318	-24.233738	0.000184	1.844844	0.625050	0.015052
1790	8.9450e-01	-8.3853	-24.158048	0.000186	1.855326	0.628601	0.015138
1791	8.9500e-01	-8.3436	-24.075089	0.000203	2.033521	0.688976	0.016592
1792	8.9550e-01	-8.3051	-23.993413	0.000200	2.002075	0.678321	0.016335
1793	8.9600e-01	-8.2827	-23.909598	0.000205	2.054485	0.696078	0.016763
1794	8.9650e-01	-8.2393	-23.838612	0.000174	1.740023	0.589536	0.014197
1795	8.9700e-01	-8.1928	-23.767199	0.000175	1.750505	0.593087	0.014283
1796	8.9750e-01	-8.1303	-23.688944	0.000192	1.918218	0.649910	0.015651
1797	8.9800e-01	-8.1319	-23.606839	-0.000201	-2.012557	-0.681873	0.016421
1798	8.9850e-01	-8.0725	-23.523880	0.000203	2.033521	0.688976	0.016592
1799	8.9900e-01	-8.0212	-23.450756	0.000179	1.792434	0.607293	0.014625
1800	8.9950e-01	-8.0115	-23.361383	0.000219	2.190752	0.742247	0.017875
1801	9.0000e-01	-7.9201	-23.298522	0.000154	1.540864	0.522059	0.012572
1802	9.0050e-01	-7.9089	-23.209576	0.000218	2.180270	0.738695	0.017789
1803	9.0100e-01	-7.8784	-23.129182	0.000197	1.970629	0.667667	0.016079
1804	9.0150e-01	-7.8254	-23.052637	0.000188	1.876290	0.635704	0.015309
1805	9.0200e-01	-7.7821	-22.970961	0.000200	2.002075	0.678321	0.016335
1806	9.0250e-01	-7.7356	-22.902968	0.000167	1.666649	0.564676	0.013598
1807	9.0300e-01	-7.7035	-22.811884	0.000223	2.232680	0.756453	0.018217
1808	9.0350e-01	-7.6811	-22.737905	0.000181	1.813398	0.614396	0.014796
1809	9.0400e-01	-7.6329	-22.666064	0.000176	1.760987	0.596639	0.014368
1810	9.0450e-01	-7.5864	-22.575407	0.000222	2.222198	0.752901	0.018131
1811	9.0500e-01	-7.5591	-22.498862	0.000188	1.876290	0.635704	0.015309
1812	9.0550e-01	-7.4982	-22.419752	0.000194	1.939182	0.657013	0.015822
1813	9.0600e-01	-7.4677	-22.334654	0.000209	2.085931	0.706733	0.017019
1814	9.0650e-01	-7.4388	-22.256826	0.000191	1.907736	0.646359	0.015566
1815	9.0700e-01	-7.3923	-22.178143	0.000193	1.928700	0.653461	0.015737
1816	9.0750e-01	-7.3522	-22.106302	0.000176	1.760987	0.596639	0.014368
1817	9.0800e-01	-7.2993	-22.029330	0.000189	1.886772	0.639256	0.015395
1818	9.0850e-01	-7.2640	-21.945088	0.000206	2.064967	0.699630	0.016848
1819	9.0900e-01	-7.2319	-21.858707	0.000212	2.117378	0.717387	0.017276
1820	9.0950e-01	-7.1805	-21.782590	0.000187	1.865808	0.632153	0.015223
1821	9.1000e-01	-7.1533	-21.694072	0.000217	2.169788	0.735144	0.017704
1822	9.1050e-01	-7.1164	-21.623941	0.000172	1.719059	0.582433	0.014026
1823	9.1100e-01	-7.0650	-21.540554	0.000204	2.044003	0.692527	0.016677
1824	9.1150e-01	-7.0346	-21.454601	0.000211	2.106896	0.713836	0.017191
1825	9.1200e-01	-6.9736	-21.369076	0.000210	2.096413	0.710284	0.017105
1826	9.1250e-01	-6.9447	-21.281841	0.000214	2.138342	0.724490	0.017447
1827	9.1300e-01	-6.8950	-21.195888	0.000211	2.106896	0.713836	0.017191
1828	9.1350e-01	-6.8822	-21.118060	0.000191	1.907736	0.646359	0.015566
1829	9.1400e-01	-6.8084	-21.053917	0.000157	1.572310	0.532713	0.012829
1830	9.1450e-01	-6.8132	-20.970957	-0.000203	-2.033521	-0.688976	0.016592
1831	9.1500e-01	-6.7538	-20.878590	0.000226	2.264127	0.767107	0.018473
1832	9.1550e-01	-6.6880	-20.806322	0.000177	1.771469	0.600190	0.014454
1833	9.1600e-01	-6.6544	-20.724217	0.000201	2.012557	0.681873	0.016421
1834	9.1650e-01	-6.6415	-20.634416	0.000220	2.201234	0.745798	0.017960
1835	9.1700e-01	-6.5758	-20.554450	0.000196	1.960147	0.664116	0.015993
1836	9.1750e-01	-6.5276	-20.467215	0.000214	2.138342	0.724490	0.017447
1837	9.1800e-01	-6.5052	-20.379552	0.000215	2.148824	0.728041	0.017533
1838	9.1850e-01	-6.4827	-20.294882	0.000208	2.075449	0.703181	0.016934
1839	9.1900e-01	-6.4394	-20.220903	0.000181	1.813398	0.614396	0.014796
1840	9.1950e-01	-6.4009	-20.112286	0.000266	2.662445	0.902061	0.021723
1841	9.2000e-01	-6.3463	-20.040872	0.000175	1.750505	0.593087	0.014283
1842	9.2050e-01	-6.3094	-19.969887	0.000174	1.740023	0.589536	0.014197
1843	9.2100e-01	-6.2806	-19.882223	0.000215	2.148824	0.728041	0.017533
1844	9.2150e-01	-6.2196	-19.802257	0.000196	1.960147	0.664116	0.015993
1845	9.2200e-01	-6.1907	-19.715449	0.000213	2.127860	0.720938	0.017362
1846	9.2250e-01	-6.1426	-19.629924	0.000210	2.096413	0.710284	0.017105
1847	9.2300e-01	-6.1073	-19.546110	0.000205	2.054485	0.696078	0.016763
1848	9.2350e-01	-6.0784	-19.464861	0.000199	1.991593	0.674770	0.016250
1849	9.2400e-01	-6.0367	-19.380619	0.000206	2.064967	0.699630	0.016848
1850	9.2450e-01	-6.0030	-19.293811	0.000213	2.127860	0.720938	0.017362
1851	9.2500e-01	-5.9613	-19.218977	0.000183	1.834362	0.621499	0.014967
1852	9.2550e-01	-5.9325	-19.130030	0.000218	2.180270	0.738695	0.017789
1853	9.2600e-01	-5.8859	-19.035098	0.000233	2.327019	0.788415	0.018987
1854	9.2650e-01	-5.8314	-18.957697	0.000190	1.897254	0.642807	0.015480
1855	9.2700e-01	-5.7913	-18.870462	0.000214	2.138342	0.724490	0.017447
1856	9.2750e-01	-5.7432	-18.770825	0.000244	2.442322	0.827481	0.019927
1857	9.2800e-01	-5.7303	-18.700267	0.000173	1.729541	0.585984	0.014112
1858	9.2850e-01	-5.6838	-18.604051	0.000236	2.358465	0.799070	0.019243
1859	9.2900e-01	-5.6180	-18.518526	0.000210	2.096413	0.710284	0.017105
1860	9.2950e-01	-5.6052	-18.427870	0.000222	2.222198	0.752901	0.018131
1861	9.3000e-01	-5.5619	-18.338924	0.000218	2.180270	0.738695	0.017789
1862	9.3050e-01	-5.5073	-18.249122	0.000220	2.201234	0.745798	0.017960
1863	9.3100e-01	-5.4945	-18.173433	0.000186	1.855326	0.628601	0.015138
1864	9.3150e-01	-5.4319	-18.083631	0.000220	2.201234	0.745798	0.017960
1865	9.3200e-01	-5.3902	-17.992975	0.000222	2.222198	0.752901	0.018131
1866	9.3250e-01	-5.3565	-17.896332	0.000237	2.368947	0.802621	0.019329
1867	9.3300e-01	-5.2843	-17.815083	0.000199	1.991593	0.674770	0.016250
1868	9.3350e-01	-5.2651	-17.719295	0.000235	2.347983	0.795518	0.019158
1869	9.3400e-01	-5.2234	-17.643605	0.000186	1.855326	0.628601	0.015138
1870	9.3450e-01	-5.1881	-17.553376	0.000221	2.211716	0.749350	0.018046
1871	9.3500e-01	-5.1512	-17.463575	0.000220	2.201234	0.745798	0.017960
1872	9.3550e-01	-5.1351	-17.375056	0.000217	2.169788	0.735144	0.017704
1873	9.3600e-01	-5.0758	-17.294235	0.000198	1.981111	0.671218	0.016164
1874	9.3650e-01	-5.0293	-17.188612	0.000259	2.589071	0.877201	0.021125
1875	9.3700e-01	-5.0068	-17.104370	0.000206	2.064967	0.699630	0.016848
1876	9.3750e-01	-4.9876	-17.014996	0.000219	2.190752	0.742247	0.017875
1877	9.3800e-01	-4.9218	-16.929898	0.000209	2.085931	0.706733	0.017019
1878	9.3850e-01	-4.8929	-16.836249	0.000230	2.295573	0.777761	0.018730
1879	9.3900e-01	-4.8175	-16.758421	0.000191	1.907736	0.646359	0.015566
1880	9.3950e-01	-4.8063	-16.663488	0.000233	2.327019	0.788415	0.018987
1881	9.4000e-01	-4.7566	-16.571121	0.000226	2.264127	0.767107	0.018473
1882	9.4050e-01	-4.7084	-16.483458	0.000215	2.148824	0.728041	0.017533
1883	9.4100e-01	-4.6795	-16.382110	0.000248	2.484250	0.841687	0.020269
1884	9.4150e-01	-4.6330	-16.304283	0.000191	1.907736	0.646359	0.015566
1885	9.4200e-01	-4.5833	-16.204646	0.000244	2.442322	0.827481	0.019927
1886	9.4250e-01	-4.5496	-16.116128	0.000217	2.169788	0.735144	0.017704
1887	9.4300e-01	-4.4902	-16.034879	0.000199	1.991593	0.674770	0.016250
1888	9.4350e-01	-4.4774	-15.932676	0.000251	2.505214	0.848790	0.020440
1889	9.4400e-01	-4.4084	-15.845441	0.000214	2.138342	0.724490	0.017447
1890	9.4450e-01	-4.3972	-15.731265	0.000280	2.798712	0.948229	0.022835
1891	9.4500e-01	-4.3314	-15.667121	0.000157	1.572310	0.532713	0.012829
1892	9.4550e-01	-4.2977	-15.561498	0.000259	2.589071	0.877201	0.021125
1893	9.4600e-01	-4.2544	-15.471269	0.000221	2.211716	0.749350	0.018046
1894	9.4650e-01	-4.2480	-15.366500	0.000257	2.568107	0.870098	0.020954
1895	9.4700e-01	-4.2015	-15.275844	0.000222	2.222198	0.752901	0.018131
1896	9.4750e-01	-4.1550	-15.186898	0.000218	2.180270	0.738695	0.017789
1897	9.4800e-01	-4.0956	-15.100090	0.000213	2.127860	0.720938	0.017362
1898	9.4850e-01	-4.0539	-14.995749	0.000256	2.557624	0.866547	0.020868
1899	9.4900e-01	-4.0539	-14.901244	-0.000232	-2.316537	-0.784864	0.018901
1900	9.4950e-01	-3.9769	-14.810588	0.000222	2.222198	0.752901	0.018131
1901	9.5000e-01	-3.9592	-14.716938	0.000230	2.295573	0.777761	0.018730
1902	9.5050e-01	-3.9191	-14.614735	0.000251	2.505214	0.848790	0.020440
1903	9.5100e-01	-3.8502	-14.529210	0.000210	2.096413	0.710284	0.017105
1904	9.5150e-01	-3.8582	-14.427435	-0.000249	-2.494732	-0.845238	0.020355
1905	9.5200e-01	-3.7892	-14.321812	0.000259	2.589071	0.877201	0.021125
1906	9.5250e-01	-3.7523	-14.227734	0.000231	2.306055	0.781313	0.018816
1907	9.5300e-01	-3.7138	-14.132802	0.000233	2.327019	0.788415	0.018987
1908	9.5350e-01	-3.6945	-14.043000	0.000220	2.201234	0.745798	0.017960
1909	9.5400e-01	-3.6352	-13.939943	0.000253	2.526178	0.855892	0.020612
1910	9.5450e-01	-3.6015	-13.844582	0.000234	2.337501	0.791967	0.019072
1911	9.5500e-01	-3.5646	-13.740669	0.000255	2.547142	0.862995	0.020783
1912	9.5550e-01	-3.5181	-13.635901	0.000257	2.568107	0.870098	0.020954
1913	9.5600e-01	-3.4780	-13.549521	0.000212	2.117378	0.717387	0.017276
1914	9.5650e-01	-3.4331	-13.442187	0.000263	2.630999	0.891407	0.021467
1915	9.5700e-01	-3.4331	-13.345971	-0.000236	-2.358465	-0.799070	0.019243
1916	9.5750e-01	-3.3561	-13.248900	0.000238	2.379429	0.806172	0.019414
1917	9.5800e-01	-3.2919	-13.147981	0.000247	2.473768	0.838135	0.020184
1918	9.5850e-01	-3.2758	-13.044923	0.000253	2.526178	0.855892	0.020612
1919	9.5900e-01	-3.2662	-12.944431	0.000246	2.463286	0.834584	0.020098
1920	9.5950e-01	-3.1619	-12.853347	0.000223	2.232680	0.756453	0.018217
1921	9.6000e-01	-3.1716	-12.746440	-0.000262	-2.620517	-0.887855	0.021381
1922	9.6050e-01	-3.1074	-12.646376	0.000245	2.452804	0.831032	0.020013
1923	9.6100e-01	-3.0833	-12.544174	0.000251	2.505214	0.848790	0.020440
1924	9.6150e-01	-3.0272	-12.447958	0.000236	2.358465	0.799070	0.019243
1925	9.6200e-01	-2.9823	-12.357729	0.000221	2.211716	0.749350	0.018046
1926	9.6250e-01	-2.9325	-12.243125	0.000281	2.809194	0.951781	0.022921
1927	9.6300e-01	-2.9229	-12.137502	0.000259	2.589071	0.877201	0.021125
1928	9.6350e-01	-2.8684	-12.035300	0.000251	2.505214	0.848790	0.020440
1929	9.6400e-01	-2.8154	-11.930104	0.000258	2.578589	0.873649	0.021039
1930	9.6450e-01	-2.7833	-11.829184	0.000247	2.473768	0.838135	0.020184
1931	9.6500e-01	-2.7801	-11.716291	0.000277	2.767266	0.937575	0.022579
1932	9.6550e-01	-2.6839	-11.627345	0.000218	2.180270	0.738695	0.017789
1933	9.6600e-01	-2.6983	-11.510176	-0.000287	-2.872086	-0.973089	0.023434
1934	9.6650e-01	-2.6085	-11.414815	0.000234	2.337501	0.791967	0.019072
1935	9.6700e-01	-2.5892	-11.315606	0.000243	2.431840	0.823930	0.019842
1936	9.6750e-01	-2.5604	-11.192023	0.000303	3.029317	1.026361	0.024717
1937	9.6800e-01	-2.5186	-11.096662	0.000234	2.337501	0.791967	0.019072
1938	9.6850e-01	-2.4561	-11.000874	0.000235	2.347983	0.795518	0.019158
1939	9.6900e-01	-2.4561	-10.878573	-0.000300	-2.997871	-1.015706	0.024460
1940	9.6950e-01	-2.4144	-10.772950	0.000259	2.589071	0.877201	0.021125
1941	9.7000e-01	-2.3390	-10.670320	0.000252	2.515696	0.852341	0.020526
1942	9.7050e-01	-2.3261	-10.547164	0.000302	3.018835	1.022809	0.024631
1943	9.7100e-01	-2.2748	-10.441113	0.000260	2.599553	0.880752	0.021210
1944	9.7150e-01	-2.2491	-10.328219	0.000277	2.767266	0.937575	0.022579
1945	9.7200e-01	-2.1850	-10.223024	0.000258	2.578589	0.873649	0.021039
1946	9.7250e-01	-2.1160	-10.123387	0.000244	2.442322	0.827481	0.019927
1947	9.7300e-01	-2.1336	-10.008356	-0.000282	-2.819676	-0.955332	0.023006
1948	9.7350e-01	-2.0855	-9.893752	0.000281	2.809194	0.951781	0.022921
1949	9.7400e-01	-2.0438	-9.771879	0.000299	2.987389	1.012155	0.024375
1950	9.7450e-01	-1.9668	-9.683788	0.000216	2.159306	0.731593	0.017618
1951	9.7500e-01	-1.9459	-9.564053	0.000293	2.934979	0.994398	0.023947
1952	9.7550e-01	-1.9459	-9.441752	-0.000300	-2.997871	-1.015706	0.024460
1953	9.7600e-01	-1.8625	-9.339977	0.000249	2.494732	0.845238	0.020355
1954	9.7650e-01	-1.8433	-9.233499	0.000261	2.610035	0.884304	0.021296
1955	9.7700e-01	-1.7935	-9.106494	0.000311	3.113174	1.054772	0.025401
1956	9.7750e-01	-1.7406	-8.996594	0.000269	2.693891	0.912715	0.021980
1957	9.7800e-01	-1.7181	-8.886267	0.000270	2.704373	0.916267	0.022065
1958	9.7850e-01	-1.6796	-8.757124	0.000317	3.165584	1.072529	0.025829
1959	9.7900e-01	-1.6379	-8.646797	0.000270	2.704373	0.916267	0.022065
1960	9.7950e-01	-1.6026	-8.524496	0.000300	2.997871	1.015706	0.024460
1961	9.8000e-01	-1.5641	-8.406471	0.000289	2.893051	0.980192	0.023605
1962	9.8050e-01	-1.5128	-8.275191	0.000322	3.217995	1.090286	0.026256
1963	9.8100e-01	-1.4647	-8.179402	0.000235	2.347983	0.795518	0.019158
1964	9.8150e-01	-1.4262	-8.064371	0.000282	2.819676	0.955332	0.023006
1965	9.8200e-01	-1.3796	-7.944209	0.000295	2.945461	0.997949	0.024033
1966	9.8250e-01	-1.3347	-7.828322	0.000284	2.840640	0.962435	0.023177
1967	9.8300e-01	-1.3219	-7.703028	0.000307	3.071246	1.040566	0.025059
1968	9.8350e-01	-1.2866	-7.587141	0.000284	2.840640	0.962435	0.023177
1969	9.8400e-01	-1.2417	-7.463558	0.000303	3.029317	1.026361	0.024717
1970	9.8450e-01	-1.1631	-7.344250	0.000292	2.924497	0.990846	0.023861
1971	9.8500e-01	-1.1631	-7.222377	-0.000299	-2.987389	-1.012155	0.024375
1972	9.8550e-01	-1.1230	-7.094517	0.000313	3.134138	1.061875	0.025572
1973	9.8600e-01	-1.0652	-6.980341	0.000280	2.798712	0.948229	0.022835
1974	9.8650e-01	-1.0091	-6.857185	0.000302	3.018835	1.022809	0.024631
1975	9.8700e-01	-0.9994	-6.717352	0.000343	3.427636	1.161315	0.027967
1976	9.8750e-01	-0.9385	-6.601893	0.000283	2.830158	0.958884	0.023092
1977	9.8800e-01	-0.9240	-6.477026	0.000306	3.060764	1.037015	0.024973
1978	9.8850e-01	-0.8743	-6.352587	0.000305	3.050282	1.033463	0.024888
1979	9.8900e-01	-0.8117	-6.231569	0.000297	2.966425	1.005052	0.024204
1980	9.8950e-01	-0.8005	-6.110979	0.000296	2.955943	1.001501	0.024118
1981	9.9000e-01	-0.7829	-5.963448	0.000362	3.616313	1.225240	0.029506
1982	9.9050e-01	-0.6866	-5.844141	0.000292	2.924497	0.990846	0.023861
1983	9.9100e-01	-0.6914	-5.710294	-0.000328	-3.280887	-1.111595	0.026769
1984	9.9150e-01	-0.6257	-5.580296	0.000319	3.186548	1.079632	0.026000
1985	9.9200e-01	-0.5952	-5.460989	0.000292	2.924497	0.990846	0.023861
1986	9.9250e-01	-0.5246	-5.344674	0.000285	2.851122	0.965986	0.023263
1987	9.9300e-01	-0.4989	-5.211255	0.000327	3.270405	1.108043	0.026684
1988	9.9350e-01	-0.4813	-5.082968	0.000314	3.144620	1.065426	0.025658
1989	9.9400e-01	-0.4203	-4.952114	0.000321	3.207513	1.086735	0.026171
1990	9.9450e-01	-0.3722	-4.816130	0.000333	3.333297	1.129352	0.027197
1991	9.9500e-01	-0.3225	-4.693401	0.000301	3.008353	1.019258	0.024546
1992	9.9550e-01	-0.3321	-4.553568	-0.000343	-3.427636	-1.161315	0.027967
1993	9.9600e-01	-0.2759	-4.415445	0.000339	3.385708	1.147109	0.027625
1994	9.9650e-01	-0.2471	-4.278605	0.000335	3.354262	1.136455	0.027368
1995	9.9700e-01	-0.1813	-4.148607	0.000319	3.186548	1.079632	0.026000
1996	9.9750e-01	-0.1476	-4.027589	0.000297	2.966425	1.005052	0.024204
1997	9.9800e-01	-0.1171	-3.891604	0.000333	3.333297	1.129352	0.027197
1998	9.9850e-01	-0.0385	-3.773579	0.000289	2.893051	0.980192	0.023605
1999	9.9900e-01	-0.0401	-3.635029	-0.000340	-3.396190	-1.150660	0.027710
2000	9.9950e-01	0.0112	-3.492202	0.000350	3.501011	1.186174	0.028565
2001	1.0000e+00	0.0594	-3.366908	0.000350	3.501011	1.186174	0.025059

Center data before PMax,+/-Pr and +/-Vc Calc.

PMax (uC/cm2):	4.27e+01
Pr (uC/cm2):	6.48e-01
-Pr (uC/cm2):	-3.37e+00
PLoss (uC/cm2):	-1.66e+00
Vc:	7.17e-01
-Vc:	-1.96e-01
C (Max-Eff) (nF):	2.13e-01
K (Eff):	7.21e+02
Vert. (+/-Pr) Shift (uC/cm2):	-1.36e+00
Horiz. Shift (+/-Vc):	2.61e-01
Offset (uC/cm2):	1.71e+00

A (Loop Area - uC/cm2·Volts):	9.01e-02



Hysteresis Version: 5.48.1 - Radiant Technologies, Inc., 1999 - 9/12/24

