»»»»»»»»»»»»»»»»»»»»»»»»»»»»»»»»»»»» Hysteresis ««««««««««««««««««««««««««««««««««««
»»»  Executed Version:	5.48.1
»»»  Vision Version:	5.48.4 (R)
»»»  Vision Compiled:	9/18/24
»»»  Driver Version:	5.47.0
»»»  Windows Version:	Windows 8 or 8.1
»»»  Processor Information:	x86 (AMD or Intel) - 32 Processors
»»»  Tester Name:	PMF21124-494 (100V)
»»»  Tester S/N:	PMF21124-494
»»»  Internal Amp Type:	100V RevK 270k
»»»  Internal Amp S/N:	iAB2-596/K     
»»»  Execution Count:	1
»»»»»»»»»»»»»»»»»»»»»»»»»»»»»»»»»»»»»»»»»»««««««««««««««««««««««««««««««««««««««««««

Stored:	6/12/2025 - 16:18:6
Configured:	06/12/25 03:03:03 PM
Executed:	06/12/25 04:17:35 PM

»»»»»»»»»»»»»»»»»»»»»»»»»»»»»»»»»»» Sample Info ««««««««««««««««««««««««««««««««««««
Sample Name:	
Lot Name:	
Wafer Name:	
Die Row/Column:	0/0
Capacitor Number:	0
Sample Area (cm2):	1.00e-04
Sample Thickness (microns):	3.00e-01

Amplifier:	Internal

»»»»»»»»»»»»»»»»»»»»»»»»»»»»»»»»»»» Tester Info «««««««««««««««««««««««««««««««««««
Tester Name:	PMF21124-494 (100V)
Tester Serial Number:	PMF21124-494
Return Signal Amp. Level:	0.19 [Index: 3]

»»»»»»»»»»»»»»»»»»»»»»»»»»»»»»»» Hysteresis Info ««««««««««««««««««««««««««««««««««
Task Name:	Hyst-1570
Volts:	20.00
Field:	666.67 (kV/cm)
DCBias:	0.00
DCField:	0.00 (kV/cm)
Hysteresis Period (ms):	2.00e+02
Preset:	Enabled
Preset Delay (ms):	1.00e+03
Profile:	Standard Bipolar

»»»»»»»»»»»»»»»»»»»»»»»»»»»»»»»»»»»»»» Data «««««««««««««««««««««««««««««««««««««««
Points:	2009

Valid Data

Point	Time (ms)	Drive Voltage	Measured Polarization (uC/cm2)	Capacitance (uF)	Normalized Capacitance (uF/cm2)	Dielectric Constant	Instantaneous Current (mA)
   1	0.0000e+00	0.0000	-5.238184	0.000355	3.548479	1.202257	0.000142
   2	9.9500e-02	0.0305	-5.096884	0.000355	3.548479	1.202257	0.000142
   3	1.9900e-01	0.0674	-4.882916	0.000537	5.373411	1.820561	0.000215
   4	2.9850e-01	0.1139	-4.656836	0.000568	5.677567	1.923612	0.000227
   5	3.9800e-01	0.1556	-4.426719	0.000578	5.778952	1.957962	0.000231
   6	4.9750e-01	0.1941	-4.200640	0.000568	5.677567	1.923612	0.000227
   7	5.9700e-01	0.2278	-4.010894	0.000477	4.765101	1.614460	0.000191
   8	6.9650e-01	0.2711	-3.780778	0.000578	5.778952	1.957962	0.000231
   9	7.9600e-01	0.3080	-3.595069	0.000466	4.663715	1.580110	0.000187
  10	8.9550e-01	0.3497	-3.401287	0.000487	4.866486	1.648810	0.000195
  11	9.9500e-01	0.3898	-3.175207	0.000568	5.677567	1.923612	0.000227
  12	1.0945e+00	0.4331	-2.916831	0.000649	6.488648	2.198413	0.000260
  13	1.1940e+00	0.4765	-2.759382	0.000395	3.954020	1.339658	0.000158
  14	1.2935e+00	0.5214	-2.573674	0.000466	4.663715	1.580110	0.000187
  15	1.3930e+00	0.5535	-2.371817	0.000507	5.069256	1.717510	0.000203
  16	1.4925e+00	0.5904	-2.153812	0.000547	5.474796	1.854911	0.000219
  17	1.5920e+00	0.6369	-1.919658	0.000588	5.880337	1.992312	0.000235
  18	1.6915e+00	0.6722	-1.713764	0.000517	5.170641	1.751861	0.000207
  19	1.7910e+00	0.7091	-1.495759	0.000547	5.474796	1.854911	0.000219
  20	1.8905e+00	0.7396	-1.209122	0.000720	7.198343	2.438865	0.000288
  21	1.9900e+00	0.7973	-1.007265	0.000507	5.069256	1.717510	0.000203
  22	2.0895e+00	0.8278	-0.789260	0.000547	5.474796	1.854911	0.000219
  23	2.1890e+00	0.8647	-0.607589	0.000456	4.562330	1.545759	0.000183
  24	2.2885e+00	0.9176	-0.333064	0.000689	6.894188	2.335814	0.000276
  25	2.3880e+00	0.9481	-0.151393	0.000456	4.562330	1.545759	0.000183
  26	2.4875e+00	0.9882	0.123133	0.000689	6.894188	2.335814	0.000276
  27	2.5870e+00	1.0251	0.284618	0.000406	4.055405	1.374008	0.000162
  28	2.6865e+00	1.0732	0.514735	0.000578	5.778952	1.957962	0.000231
  29	2.7860e+00	1.1165	0.716592	0.000507	5.069256	1.717510	0.000203
  30	2.8855e+00	1.1550	0.938634	0.000558	5.576181	1.889261	0.000223
  31	2.9850e+00	1.1887	1.144528	0.000517	5.170641	1.751861	0.000207
  32	3.0845e+00	1.2321	1.350422	0.000517	5.170641	1.751861	0.000207
  33	3.1840e+00	1.2770	1.540167	0.000477	4.765101	1.614460	0.000191
  34	3.2835e+00	1.3091	1.770284	0.000578	5.778952	1.957962	0.000231
  35	3.3830e+00	1.3508	1.988289	0.000547	5.474796	1.854911	0.000219
  36	3.4825e+00	1.3877	2.234555	0.000618	6.184492	2.095363	0.000248
  37	3.5820e+00	1.4326	2.472746	0.000598	5.981722	2.026662	0.000239
  38	3.6815e+00	1.4695	2.666528	0.000487	4.866486	1.648810	0.000195
  39	3.7810e+00	1.5112	2.884533	0.000547	5.474796	1.854911	0.000219
  40	3.8805e+00	1.5417	3.142910	0.000649	6.488648	2.198413	0.000260
  41	3.9800e+00	1.5914	3.368990	0.000568	5.677567	1.923612	0.000227
  42	4.0795e+00	1.6331	3.595069	0.000568	5.677567	1.923612	0.000227
  43	4.1790e+00	1.6748	3.792889	0.000497	4.967871	1.683160	0.000199
  44	4.2785e+00	1.7053	4.023006	0.000578	5.778952	1.957962	0.000231
  45	4.3780e+00	1.7486	4.249085	0.000568	5.677567	1.923612	0.000227
  46	4.4775e+00	1.7839	4.463054	0.000537	5.373411	1.820561	0.000215
  47	4.5770e+00	1.8256	4.632613	0.000426	4.258175	1.442709	0.000170
  48	4.6765e+00	1.8689	4.874841	0.000608	6.083107	2.061012	0.000243
  49	4.7760e+00	1.9122	5.064587	0.000477	4.765101	1.614460	0.000191
  50	4.8755e+00	1.9363	5.250295	0.000466	4.663715	1.580110	0.000187
  51	4.9750e+00	1.9876	5.468300	0.000547	5.474796	1.854911	0.000219
  52	5.0745e+00	2.0261	5.686306	0.000547	5.474796	1.854911	0.000219
  53	5.1740e+00	2.0550	5.892200	0.000517	5.170641	1.751861	0.000207
  54	5.2735e+00	2.1048	6.077908	0.000466	4.663715	1.580110	0.000187
  55	5.3730e+00	2.1497	6.320136	0.000608	6.083107	2.061012	0.000243
  56	5.4725e+00	2.1994	6.554290	0.000588	5.880337	1.992312	0.000235
  57	5.5720e+00	2.2267	6.808629	0.000639	6.387262	2.164063	0.000256
  58	5.6715e+00	2.2716	7.030672	0.000558	5.576181	1.889261	0.000223
  59	5.7710e+00	2.3005	7.200232	0.000426	4.258175	1.442709	0.000170
  60	5.8705e+00	2.3406	7.438423	0.000598	5.981722	2.026662	0.000239
  61	5.9700e+00	2.3839	7.624131	0.000466	4.663715	1.580110	0.000187
  62	6.0695e+00	2.4224	7.846173	0.000558	5.576181	1.889261	0.000223
  63	6.1690e+00	2.4721	8.108587	0.000659	6.590033	2.232764	0.000264
  64	6.2685e+00	2.5058	8.257961	0.000375	3.751249	1.270958	0.000150
  65	6.3680e+00	2.5459	8.471929	0.000537	5.373411	1.820561	0.000215
  66	6.4675e+00	2.5924	8.693972	0.000558	5.576181	1.889261	0.000223
  67	6.5670e+00	2.6261	8.863532	0.000426	4.258175	1.442709	0.000170
  68	6.6665e+00	2.6614	9.077500	0.000537	5.373411	1.820561	0.000215
  69	6.7660e+00	2.7079	9.295505	0.000547	5.474796	1.854911	0.000219
  70	6.8655e+00	2.7432	9.493325	0.000497	4.967871	1.683160	0.000199
  71	6.9650e+00	2.7882	9.707293	0.000537	5.373411	1.820561	0.000215
  72	7.0645e+00	2.8251	9.901075	0.000487	4.866486	1.648810	0.000195
  73	7.1640e+00	2.8652	10.159452	0.000649	6.488648	2.198413	0.000260
  74	7.2635e+00	2.9005	10.369383	0.000527	5.272026	1.786211	0.000211
  75	7.3630e+00	2.9454	10.607574	0.000598	5.981722	2.026662	0.000239
  76	7.4625e+00	2.9759	10.769060	0.000406	4.055405	1.374008	0.000162
  77	7.5620e+00	3.0288	11.035511	0.000669	6.691418	2.267114	0.000268
  78	7.6615e+00	3.0625	11.221219	0.000466	4.663715	1.580110	0.000187
  79	7.7610e+00	3.0930	11.402890	0.000456	4.562330	1.545759	0.000183
  80	7.8605e+00	3.1411	11.657229	0.000639	6.387262	2.164063	0.000256
  81	7.9600e+00	3.1780	11.867161	0.000527	5.272026	1.786211	0.000211
  82	8.0595e+00	3.2197	12.032683	0.000416	4.156790	1.408359	0.000166
  83	8.1590e+00	3.2646	12.274911	0.000608	6.083107	2.061012	0.000243
  84	8.2585e+00	3.3031	12.416211	0.000355	3.548479	1.202257	0.000142
  85	8.3580e+00	3.3384	12.573659	0.000395	3.954020	1.339658	0.000158
  86	8.4575e+00	3.3817	12.803776	0.000578	5.778952	1.957962	0.000231
  87	8.5570e+00	3.4202	12.961224	0.000395	3.954020	1.339658	0.000158
  88	8.6565e+00	3.4651	13.211527	0.000629	6.285877	2.129713	0.000252
  89	8.7560e+00	3.5085	13.425495	0.000537	5.373411	1.820561	0.000215
  90	8.8555e+00	3.5438	13.679834	0.000639	6.387262	2.164063	0.000256
  91	8.9550e+00	3.5758	13.841320	0.000406	4.055405	1.374008	0.000162
  92	9.0545e+00	3.6240	14.059325	0.000547	5.474796	1.854911	0.000219
  93	9.1540e+00	3.6625	14.261182	0.000507	5.069256	1.717510	0.000203
  94	9.2535e+00	3.6897	14.446890	0.000466	4.663715	1.580110	0.000187
  95	9.3530e+00	3.7491	14.652784	0.000517	5.170641	1.751861	0.000207
  96	9.4525e+00	3.7892	14.874827	0.000558	5.576181	1.889261	0.000223
  97	9.5520e+00	3.8181	15.064572	0.000477	4.765101	1.614460	0.000191
  98	9.6515e+00	3.8550	15.226057	0.000406	4.055405	1.374008	0.000162
  99	9.7510e+00	3.8999	15.452137	0.000568	5.677567	1.923612	0.000227
 100	9.8505e+00	3.9304	15.621697	0.000426	4.258175	1.442709	0.000170
 101	9.9500e+00	3.9769	15.859888	0.000598	5.981722	2.026662	0.000239
 102	1.0050e+01	4.0090	16.009262	0.000375	3.751249	1.270958	0.000150
 103	1.0149e+01	4.0603	16.178821	0.000426	4.258175	1.442709	0.000170
 104	1.0248e+01	4.0892	16.384715	0.000517	5.170641	1.751861	0.000207
 105	1.0348e+01	4.1357	16.618869	0.000588	5.880337	1.992312	0.000235
 106	1.0447e+01	4.1790	16.820726	0.000507	5.069256	1.717510	0.000203
 107	1.0547e+01	4.2143	17.006434	0.000466	4.663715	1.580110	0.000187
 108	1.0646e+01	4.2576	17.236551	0.000578	5.778952	1.957962	0.000231
 109	1.0746e+01	4.3009	17.442445	0.000517	5.170641	1.751861	0.000207
 110	1.0845e+01	4.3443	17.628153	0.000466	4.663715	1.580110	0.000187
 111	1.0945e+01	4.3731	17.830010	0.000507	5.069256	1.717510	0.000203
 112	1.1044e+01	4.4277	17.983421	0.000385	3.852634	1.305308	0.000154
 113	1.1144e+01	4.4501	18.185278	0.000507	5.069256	1.717510	0.000203
 114	1.1243e+01	4.5015	18.419432	0.000588	5.880337	1.992312	0.000235
 115	1.1343e+01	4.5448	18.609177	0.000477	4.765101	1.614460	0.000191
 116	1.1443e+01	4.5817	18.754514	0.000365	3.649864	1.236607	0.000146
 117	1.1542e+01	4.6138	18.968482	0.000537	5.373411	1.820561	0.000215
 118	1.1642e+01	4.6539	19.129968	0.000406	4.055405	1.374008	0.000162
 119	1.1741e+01	4.6924	19.311639	0.000456	4.562330	1.545759	0.000183
 120	1.1841e+01	4.7437	19.497347	0.000466	4.663715	1.580110	0.000187
 121	1.1940e+01	4.7726	19.626535	0.000324	3.244324	1.099207	0.000130
 122	1.2040e+01	4.8223	19.917209	0.000730	7.299728	2.473215	0.000292
 123	1.2139e+01	4.8576	20.086769	0.000426	4.258175	1.442709	0.000170
 124	1.2239e+01	4.8993	20.276514	0.000477	4.765101	1.614460	0.000191
 125	1.2338e+01	4.9346	20.498557	0.000558	5.576181	1.889261	0.000223
 126	1.2438e+01	4.9779	20.688302	0.000477	4.765101	1.614460	0.000191
 127	1.2537e+01	5.0180	20.869973	0.000456	4.562330	1.545759	0.000183
 128	1.2636e+01	5.0598	21.019347	0.000375	3.751249	1.270958	0.000150
 129	1.2736e+01	5.0918	21.253501	0.000588	5.880337	1.992312	0.000235
 130	1.2835e+01	5.1416	21.394801	0.000355	3.548479	1.202257	0.000142
 131	1.2935e+01	5.1769	21.592620	0.000497	4.967871	1.683160	0.000199
 132	1.3034e+01	5.2122	21.822737	0.000578	5.778952	1.957962	0.000231
 133	1.3134e+01	5.2523	21.968074	0.000365	3.649864	1.236607	0.000146
 134	1.3233e+01	5.2892	22.117448	0.000375	3.751249	1.270958	0.000150
 135	1.3333e+01	5.3341	22.347565	0.000578	5.778952	1.957962	0.000231
 136	1.3432e+01	5.3726	22.529236	0.000456	4.562330	1.545759	0.000183
 137	1.3532e+01	5.4191	22.678610	0.000375	3.751249	1.270958	0.000150
 138	1.3632e+01	5.4512	22.868355	0.000477	4.765101	1.614460	0.000191
 139	1.3731e+01	5.5057	23.058101	0.000477	4.765101	1.614460	0.000191
 140	1.3831e+01	5.5378	23.255920	0.000497	4.967871	1.683160	0.000199
 141	1.3930e+01	5.5683	23.433554	0.000446	4.460945	1.511409	0.000179
 142	1.4030e+01	5.6116	23.603114	0.000426	4.258175	1.442709	0.000170
 143	1.4129e+01	5.6453	23.833231	0.000578	5.778952	1.957962	0.000231
 144	1.4229e+01	5.6934	23.970493	0.000345	3.447094	1.167907	0.000138
 145	1.4328e+01	5.7287	24.140053	0.000426	4.258175	1.442709	0.000170
 146	1.4428e+01	5.7752	24.329799	0.000477	4.765101	1.614460	0.000191
 147	1.4527e+01	5.8025	24.519544	0.000477	4.765101	1.614460	0.000191
 148	1.4627e+01	5.8587	24.672955	0.000385	3.852634	1.305308	0.000154
 149	1.4726e+01	5.8843	24.886923	0.000537	5.373411	1.820561	0.000215
 150	1.4825e+01	5.9325	25.040334	0.000385	3.852634	1.305308	0.000154
 151	1.4925e+01	5.9726	25.262377	0.000558	5.576181	1.889261	0.000223
 152	1.5024e+01	6.0111	25.383491	0.000304	3.041554	1.030506	0.000122
 153	1.5124e+01	6.0576	25.597459	0.000537	5.373411	1.820561	0.000215
 154	1.5223e+01	6.0945	25.754907	0.000395	3.954020	1.339658	0.000158
 155	1.5323e+01	6.1394	25.912356	0.000395	3.954020	1.339658	0.000158
 156	1.5422e+01	6.1811	26.126324	0.000537	5.373411	1.820561	0.000215
 157	1.5522e+01	6.2132	26.223215	0.000243	2.433243	0.824405	0.000097
 158	1.5621e+01	6.2533	26.425072	0.000507	5.069256	1.717510	0.000203
 159	1.5721e+01	6.2950	26.626929	0.000507	5.069256	1.717510	0.000203
 160	1.5820e+01	6.3383	26.816674	0.000477	4.765101	1.614460	0.000191
 161	1.5920e+01	6.3704	26.957974	0.000355	3.548479	1.202257	0.000142
 162	1.6020e+01	6.4137	27.115422	0.000395	3.954020	1.339658	0.000158
 163	1.6119e+01	6.4506	27.313242	0.000497	4.967871	1.683160	0.000199
 164	1.6218e+01	6.4763	27.458579	0.000365	3.649864	1.236607	0.000146
 165	1.6318e+01	6.5324	27.624101	0.000416	4.156790	1.408359	0.000166
 166	1.6418e+01	6.5581	27.813847	0.000477	4.765101	1.614460	0.000191
 167	1.6517e+01	6.6126	27.983406	0.000426	4.258175	1.442709	0.000170
 168	1.6616e+01	6.6447	28.165077	0.000456	4.562330	1.545759	0.000183
 169	1.6716e+01	6.6816	28.346749	0.000456	4.562330	1.545759	0.000183
 170	1.6816e+01	6.7249	28.492085	0.000365	3.649864	1.236607	0.000146
 171	1.6915e+01	6.7683	28.673757	0.000456	4.562330	1.545759	0.000183
 172	1.7015e+01	6.7987	28.843316	0.000426	4.258175	1.442709	0.000170
 173	1.7114e+01	6.8453	29.008839	0.000416	4.156790	1.408359	0.000166
 174	1.7213e+01	6.8966	29.166287	0.000395	3.954020	1.339658	0.000158
 175	1.7313e+01	6.9335	29.323735	0.000395	3.954020	1.339658	0.000158
 176	1.7413e+01	6.9688	29.497332	0.000436	4.359560	1.477059	0.000174
 177	1.7512e+01	7.0105	29.654781	0.000395	3.954020	1.339658	0.000158
 178	1.7611e+01	7.0378	29.852600	0.000497	4.967871	1.683160	0.000199
 179	1.7711e+01	7.0907	30.010049	0.000395	3.954020	1.339658	0.000158
 180	1.7811e+01	7.1292	30.191720	0.000456	4.562330	1.545759	0.000183
 181	1.7910e+01	7.1629	30.345131	0.000385	3.852634	1.305308	0.000154
 182	1.8009e+01	7.2062	30.498542	0.000385	3.852634	1.305308	0.000154
 183	1.8109e+01	7.2463	30.680213	0.000456	4.562330	1.545759	0.000183
 184	1.8209e+01	7.2896	30.801327	0.000304	3.041554	1.030506	0.000122
 185	1.8308e+01	7.3185	30.982998	0.000456	4.562330	1.545759	0.000183
 186	1.8407e+01	7.3682	31.168706	0.000466	4.663715	1.580110	0.000187
 187	1.8507e+01	7.4035	31.277709	0.000274	2.737398	0.927456	0.000110
 188	1.8607e+01	7.4436	31.467455	0.000477	4.765101	1.614460	0.000191
 189	1.8706e+01	7.4854	31.641051	0.000436	4.359560	1.477059	0.000174
 190	1.8805e+01	7.5271	31.822722	0.000456	4.562330	1.545759	0.000183
 191	1.8905e+01	7.5624	32.004394	0.000456	4.562330	1.545759	0.000183
 192	1.9005e+01	7.6089	32.141656	0.000345	3.447094	1.167907	0.000138
 193	1.9104e+01	7.6442	32.307179	0.000416	4.156790	1.408359	0.000166
 194	1.9203e+01	7.6795	32.444441	0.000345	3.447094	1.167907	0.000138
 195	1.9303e+01	7.7292	32.605927	0.000406	4.055405	1.374008	0.000162
 196	1.9402e+01	7.7597	32.731078	0.000314	3.142939	1.064856	0.000126
 197	1.9502e+01	7.7982	32.904675	0.000436	4.359560	1.477059	0.000174
 198	1.9602e+01	7.8367	33.066160	0.000406	4.055405	1.374008	0.000162
 199	1.9701e+01	7.8800	33.215534	0.000375	3.751249	1.270958	0.000150
 200	1.9800e+01	7.9313	33.385094	0.000426	4.258175	1.442709	0.000170
 201	1.9900e+01	7.9586	33.542542	0.000395	3.954020	1.339658	0.000158
 202	2.0000e+01	8.0035	33.732288	0.000477	4.765101	1.614460	0.000191
 203	2.0099e+01	8.0420	33.841290	0.000274	2.737398	0.927456	0.000110
 204	2.0198e+01	8.0837	34.010850	0.000426	4.258175	1.442709	0.000170
 205	2.0298e+01	8.1190	34.152150	0.000355	3.548479	1.202257	0.000142
 206	2.0398e+01	8.1543	34.301524	0.000375	3.751249	1.270958	0.000150
 207	2.0497e+01	8.2024	34.543752	0.000608	6.083107	2.061012	0.000243
 208	2.0596e+01	8.2506	34.672940	0.000324	3.244324	1.099207	0.000130
 209	2.0696e+01	8.2762	34.842500	0.000426	4.258175	1.442709	0.000170
 210	2.0796e+01	8.3212	34.947466	0.000264	2.636013	0.893105	0.000105
 211	2.0895e+01	8.3613	35.088765	0.000355	3.548479	1.202257	0.000142
 212	2.0994e+01	8.4014	35.286585	0.000497	4.967871	1.683160	0.000199
 213	2.1094e+01	8.4399	35.411736	0.000314	3.142939	1.064856	0.000126
 214	2.1194e+01	8.4848	35.544962	0.000335	3.345709	1.133557	0.000134
 215	2.1293e+01	8.5201	35.702410	0.000395	3.954020	1.339658	0.000158
 216	2.1392e+01	8.5634	35.867932	0.000416	4.156790	1.408359	0.000166
 217	2.1492e+01	8.5939	35.972898	0.000264	2.636013	0.893105	0.000105
 218	2.1591e+01	8.6372	36.150532	0.000446	4.460945	1.511409	0.000179
 219	2.1691e+01	8.6757	36.283757	0.000335	3.345709	1.133557	0.000134
 220	2.1791e+01	8.7286	36.457354	0.000436	4.359560	1.477059	0.000174
 221	2.1890e+01	8.7575	36.582505	0.000314	3.142939	1.064856	0.000126
 222	2.1989e+01	8.7944	36.788399	0.000517	5.170641	1.751861	0.000207
 223	2.2089e+01	8.8377	36.909513	0.000304	3.041554	1.030506	0.000122
 224	2.2189e+01	8.8730	37.083110	0.000436	4.359560	1.477059	0.000174
 225	2.2288e+01	8.9195	37.252670	0.000426	4.258175	1.442709	0.000170
 226	2.2387e+01	8.9564	37.385896	0.000335	3.345709	1.133557	0.000134
 227	2.2487e+01	8.9981	37.498935	0.000284	2.838783	0.961806	0.000114
 228	2.2587e+01	9.0366	37.660421	0.000406	4.055405	1.374008	0.000162
 229	2.2686e+01	9.0832	37.773461	0.000284	2.838783	0.961806	0.000114
 230	2.2785e+01	9.1136	37.971280	0.000497	4.967871	1.683160	0.000199
 231	2.2885e+01	9.1505	38.060097	0.000223	2.230473	0.755705	0.000089
 232	2.2985e+01	9.1955	38.181211	0.000304	3.041554	1.030506	0.000122
 233	2.3084e+01	9.2372	38.350771	0.000426	4.258175	1.442709	0.000170
 234	2.3183e+01	9.2677	38.556665	0.000517	5.170641	1.751861	0.000207
 235	2.3283e+01	9.3206	38.673742	0.000294	2.940168	0.996156	0.000118
 236	2.3383e+01	9.3527	38.815042	0.000355	3.548479	1.202257	0.000142
 237	2.3482e+01	9.4024	38.940193	0.000314	3.142939	1.064856	0.000126
 238	2.3581e+01	9.4329	39.109752	0.000426	4.258175	1.442709	0.000170
 239	2.3681e+01	9.4746	39.295461	0.000466	4.663715	1.580110	0.000187
 240	2.3780e+01	9.5099	39.440798	0.000365	3.649864	1.236607	0.000146
 241	2.3880e+01	9.5516	39.622469	0.000456	4.562330	1.545759	0.000183
 242	2.3980e+01	9.5981	39.735509	0.000284	2.838783	0.961806	0.000114
 243	2.4079e+01	9.6382	39.892957	0.000395	3.954020	1.339658	0.000158
 244	2.4178e+01	9.6751	40.010034	0.000294	2.940168	0.996156	0.000118
 245	2.4278e+01	9.7184	40.102888	0.000233	2.331858	0.790055	0.000093
 246	2.4378e+01	9.7634	40.312819	0.000527	5.272026	1.786211	0.000211
 247	2.4477e+01	9.7922	40.433933	0.000304	3.041554	1.030506	0.000122
 248	2.4576e+01	9.8356	40.575233	0.000355	3.548479	1.202257	0.000142
 249	2.4676e+01	9.8724	40.736718	0.000406	4.055405	1.374008	0.000162
 250	2.4776e+01	9.9110	40.849758	0.000284	2.838783	0.961806	0.000114
 251	2.4875e+01	9.9591	41.011243	0.000406	4.055405	1.374008	0.000162
 252	2.4974e+01	9.9896	41.132357	0.000304	3.041554	1.030506	0.000122
 253	2.5074e+01	10.0393	41.245397	0.000284	2.838783	0.961806	0.000114
 254	2.5174e+01	10.0746	41.402846	0.000395	3.954020	1.339658	0.000158
 255	2.5273e+01	10.1099	41.568368	0.000416	4.156790	1.408359	0.000166
 256	2.5372e+01	10.1676	41.774262	0.000517	5.170641	1.751861	0.000207
 257	2.5472e+01	10.1885	41.883265	0.000274	2.737398	0.927456	0.000110
 258	2.5572e+01	10.2318	42.048787	0.000416	4.156790	1.408359	0.000166
 259	2.5671e+01	10.2767	42.186050	0.000345	3.447094	1.167907	0.000138
 260	2.5770e+01	10.3297	42.355610	0.000426	4.258175	1.442709	0.000170
 261	2.5870e+01	10.3473	42.452501	0.000243	2.433243	0.824405	0.000097
 262	2.5970e+01	10.3954	42.577652	0.000314	3.142939	1.064856	0.000126
 263	2.6069e+01	10.4436	42.727026	0.000375	3.751249	1.270958	0.000150
 264	2.6169e+01	10.4692	42.860252	0.000335	3.345709	1.133557	0.000134
 265	2.6268e+01	10.5093	42.989440	0.000324	3.244324	1.099207	0.000130
 266	2.6367e+01	10.5575	43.150925	0.000406	4.055405	1.374008	0.000162
 267	2.6467e+01	10.6056	43.316448	0.000416	4.156790	1.408359	0.000166
 268	2.6567e+01	10.6329	43.457748	0.000355	3.548479	1.202257	0.000142
 269	2.6666e+01	10.6714	43.595010	0.000345	3.447094	1.167907	0.000138
 270	2.6765e+01	10.7115	43.724199	0.000324	3.244324	1.099207	0.000130
 271	2.6865e+01	10.7468	43.841276	0.000294	2.940168	0.996156	0.000118
 272	2.6965e+01	10.7965	44.035058	0.000487	4.866486	1.648810	0.000195
 273	2.7064e+01	10.8222	44.144061	0.000274	2.737398	0.927456	0.000110
 274	2.7163e+01	10.8655	44.277286	0.000335	3.345709	1.133557	0.000134
 275	2.7263e+01	10.9120	44.422623	0.000365	3.649864	1.236607	0.000146
 276	2.7363e+01	10.9457	44.588146	0.000416	4.156790	1.408359	0.000166
 277	2.7462e+01	10.9713	44.761742	0.000436	4.359560	1.477059	0.000174
 278	2.7561e+01	11.0339	44.903042	0.000355	3.548479	1.202257	0.000142
 279	2.7661e+01	11.0756	45.008008	0.000264	2.636013	0.893105	0.000105
 280	2.7761e+01	11.1125	45.121048	0.000284	2.838783	0.961806	0.000114
 281	2.7860e+01	11.1430	45.230050	0.000274	2.737398	0.927456	0.000110
 282	2.7959e+01	11.1911	45.415758	0.000466	4.663715	1.580110	0.000187
 283	2.8059e+01	11.2184	45.536873	0.000304	3.041554	1.030506	0.000122
 284	2.8159e+01	11.2729	45.686247	0.000375	3.751249	1.270958	0.000150
 285	2.8258e+01	11.3034	45.819472	0.000335	3.345709	1.133557	0.000134
 286	2.8358e+01	11.3564	45.972883	0.000385	3.852634	1.305308	0.000154
 287	2.8457e+01	11.3868	46.089960	0.000294	2.940168	0.996156	0.000118
 288	2.8556e+01	11.4318	46.211074	0.000304	3.041554	1.030506	0.000122
 289	2.8656e+01	11.4703	46.340263	0.000324	3.244324	1.099207	0.000130
 290	2.8756e+01	11.5056	46.517897	0.000446	4.460945	1.511409	0.000179
 291	2.8855e+01	11.5553	46.655159	0.000345	3.447094	1.167907	0.000138
 292	2.8954e+01	11.5842	46.784348	0.000324	3.244324	1.099207	0.000130
 293	2.9054e+01	11.6291	46.929684	0.000365	3.649864	1.236607	0.000146
 294	2.9154e+01	11.6724	47.099244	0.000426	4.258175	1.442709	0.000170
 295	2.9253e+01	11.7141	47.244581	0.000365	3.649864	1.236607	0.000146
 296	2.9352e+01	11.7494	47.349547	0.000264	2.636013	0.893105	0.000105
 297	2.9452e+01	11.7927	47.527180	0.000446	4.460945	1.511409	0.000179
 298	2.9552e+01	11.8328	47.595812	0.000172	1.723547	0.583954	0.000069
 299	2.9651e+01	11.8713	47.785557	0.000477	4.765101	1.614460	0.000191
 300	2.9750e+01	11.9098	47.886486	0.000253	2.534628	0.858755	0.000101
 301	2.9850e+01	11.9467	48.015674	0.000324	3.244324	1.099207	0.000130
 302	2.9950e+01	11.9916	48.144862	0.000324	3.244324	1.099207	0.000130
 303	3.0049e+01	12.0285	48.298273	0.000385	3.852634	1.305308	0.000154
 304	3.0148e+01	12.0686	48.447647	0.000375	3.751249	1.270958	0.000150
 305	3.0248e+01	12.1087	48.621244	0.000436	4.359560	1.477059	0.000174
 306	3.0348e+01	12.1408	48.718136	0.000243	2.433243	0.824405	0.000097
 307	3.0447e+01	12.1922	48.867510	0.000375	3.751249	1.270958	0.000150
 308	3.0547e+01	12.2307	49.020921	0.000385	3.852634	1.305308	0.000154
 309	3.0646e+01	12.2660	49.121849	0.000253	2.534628	0.858755	0.000101
 310	3.0745e+01	12.2997	49.295446	0.000436	4.359560	1.477059	0.000174
 311	3.0845e+01	12.3446	49.420597	0.000314	3.142939	1.064856	0.000126
 312	3.0945e+01	12.3943	49.582083	0.000406	4.055405	1.374008	0.000162
 313	3.1044e+01	12.4264	49.735494	0.000385	3.852634	1.305308	0.000154
 314	3.1143e+01	12.4665	49.836422	0.000253	2.534628	0.858755	0.000101
 315	3.1243e+01	12.5066	49.969648	0.000335	3.345709	1.133557	0.000134
 316	3.1343e+01	12.5547	50.062502	0.000233	2.331858	0.790055	0.000093
 317	3.1442e+01	12.5820	50.223987	0.000406	4.055405	1.374008	0.000162
 318	3.1541e+01	12.6301	50.357213	0.000335	3.345709	1.133557	0.000134
 319	3.1641e+01	12.6686	50.502550	0.000365	3.649864	1.236607	0.000146
 320	3.1741e+01	12.7055	50.623664	0.000304	3.041554	1.030506	0.000122
 321	3.1840e+01	12.7472	50.760926	0.000345	3.447094	1.167907	0.000138
 322	3.1939e+01	12.7922	50.886077	0.000314	3.142939	1.064856	0.000126
 323	3.2039e+01	12.8226	50.970857	0.000213	2.129087	0.721354	0.000085
 324	3.2139e+01	12.8724	51.152528	0.000456	4.562330	1.545759	0.000183
 325	3.2238e+01	12.8964	51.297865	0.000365	3.649864	1.236607	0.000146
 326	3.2337e+01	12.9478	51.406868	0.000274	2.737398	0.927456	0.000110
 327	3.2437e+01	12.9798	51.552205	0.000365	3.649864	1.236607	0.000146
 328	3.2536e+01	13.0167	51.689467	0.000345	3.447094	1.167907	0.000138
 329	3.2636e+01	13.0649	51.850953	0.000406	4.055405	1.374008	0.000162
 330	3.2736e+01	13.0937	51.959956	0.000274	2.737398	0.927456	0.000110
 331	3.2835e+01	13.1499	52.121441	0.000406	4.055405	1.374008	0.000162
 332	3.2934e+01	13.1852	52.246592	0.000314	3.142939	1.064856	0.000126
 333	3.3034e+01	13.2173	52.347521	0.000253	2.534628	0.858755	0.000101
 334	3.3133e+01	13.2686	52.500932	0.000385	3.852634	1.305308	0.000154
 335	3.3233e+01	13.2991	52.601860	0.000253	2.534628	0.858755	0.000101
 336	3.3333e+01	13.3408	52.727011	0.000314	3.142939	1.064856	0.000126
 337	3.3432e+01	13.3809	52.864274	0.000345	3.447094	1.167907	0.000138
 338	3.3532e+01	13.4210	52.977314	0.000284	2.838783	0.961806	0.000114
 339	3.3631e+01	13.4627	53.118613	0.000355	3.548479	1.202257	0.000142
 340	3.3730e+01	13.4948	53.239728	0.000304	3.041554	1.030506	0.000122
 341	3.3830e+01	13.5461	53.389102	0.000375	3.751249	1.270958	0.000150
 342	3.3929e+01	13.5782	53.490030	0.000253	2.534628	0.858755	0.000101
 343	3.4029e+01	13.6231	53.635367	0.000365	3.649864	1.236607	0.000146
 344	3.4129e+01	13.6472	53.764555	0.000324	3.244324	1.099207	0.000130
 345	3.4228e+01	13.7001	53.934115	0.000426	4.258175	1.442709	0.000170
 346	3.4328e+01	13.7370	54.051192	0.000294	2.940168	0.996156	0.000118
 347	3.4427e+01	13.7772	54.184417	0.000335	3.345709	1.133557	0.000134
 348	3.4526e+01	13.8189	54.333791	0.000375	3.751249	1.270958	0.000150
 349	3.4626e+01	13.8574	54.515462	0.000456	4.562330	1.545759	0.000183
 350	3.4725e+01	13.9007	54.612354	0.000243	2.433243	0.824405	0.000097
 351	3.4825e+01	13.9440	54.729431	0.000294	2.940168	0.996156	0.000118
 352	3.4925e+01	13.9761	54.846508	0.000294	2.940168	0.996156	0.000118
 353	3.5024e+01	14.0194	54.967622	0.000304	3.041554	1.030506	0.000122
 354	3.5123e+01	14.0595	55.076624	0.000274	2.737398	0.927456	0.000110
 355	3.5223e+01	14.0964	55.177553	0.000253	2.534628	0.858755	0.000101
 356	3.5322e+01	14.1365	55.322890	0.000365	3.649864	1.236607	0.000146
 357	3.5422e+01	14.1798	55.423818	0.000253	2.534628	0.858755	0.000101
 358	3.5522e+01	14.2215	55.573192	0.000375	3.751249	1.270958	0.000150
 359	3.5621e+01	14.2584	55.702380	0.000324	3.244324	1.099207	0.000130
 360	3.5721e+01	14.2969	55.867903	0.000416	4.156790	1.408359	0.000166
 361	3.5820e+01	14.3306	55.968831	0.000253	2.534628	0.858755	0.000101
 362	3.5919e+01	14.3739	56.081871	0.000284	2.838783	0.961806	0.000114
 363	3.6019e+01	14.4060	56.166651	0.000213	2.129087	0.721354	0.000085
 364	3.6118e+01	14.4638	56.352359	0.000466	4.663715	1.580110	0.000187
 365	3.6218e+01	14.5007	56.477510	0.000314	3.142939	1.064856	0.000126
 366	3.6318e+01	14.5360	56.647070	0.000426	4.258175	1.442709	0.000170
 367	3.6417e+01	14.5680	56.727813	0.000203	2.027702	0.687004	0.000081
 368	3.6517e+01	14.6097	56.893335	0.000416	4.156790	1.408359	0.000166
 369	3.6616e+01	14.6643	57.010412	0.000294	2.940168	0.996156	0.000118
 370	3.6715e+01	14.6996	57.135564	0.000314	3.142939	1.064856	0.000126
 371	3.6815e+01	14.7365	57.204195	0.000172	1.723547	0.583954	0.000069
 372	3.6914e+01	14.7814	57.297049	0.000233	2.331858	0.790055	0.000093
 373	3.7014e+01	14.8199	57.458534	0.000406	4.055405	1.374008	0.000162
 374	3.7114e+01	14.8504	57.563500	0.000264	2.636013	0.893105	0.000105
 375	3.7213e+01	14.8969	57.733060	0.000426	4.258175	1.442709	0.000170
 376	3.7313e+01	14.9322	57.809765	0.000193	1.926317	0.652654	0.000077
 377	3.7412e+01	14.9723	57.914731	0.000264	2.636013	0.893105	0.000105
 378	3.7511e+01	15.0204	58.056030	0.000355	3.548479	1.202257	0.000142
 379	3.7611e+01	15.0541	58.209442	0.000385	3.852634	1.305308	0.000154
 380	3.7711e+01	15.0942	58.318444	0.000274	2.737398	0.927456	0.000110
 381	3.7810e+01	15.1359	58.439558	0.000304	3.041554	1.030506	0.000122
 382	3.7910e+01	15.1728	58.580858	0.000355	3.548479	1.202257	0.000142
 383	3.8009e+01	15.2001	58.681787	0.000253	2.534628	0.858755	0.000101
 384	3.8108e+01	15.2530	58.831161	0.000375	3.751249	1.270958	0.000150
 385	3.8208e+01	15.2883	58.952275	0.000304	3.041554	1.030506	0.000122
 386	3.8307e+01	15.3317	59.089537	0.000345	3.447094	1.167907	0.000138
 387	3.8407e+01	15.3798	59.218726	0.000324	3.244324	1.099207	0.000130
 388	3.8507e+01	15.4167	59.347914	0.000324	3.244324	1.099207	0.000130
 389	3.8606e+01	15.4439	59.408471	0.000152	1.520777	0.515253	0.000061
 390	3.8706e+01	15.4873	59.525548	0.000294	2.940168	0.996156	0.000118
 391	3.8805e+01	15.5322	59.634551	0.000274	2.737398	0.927456	0.000110
 392	3.8904e+01	15.5691	59.763739	0.000324	3.244324	1.099207	0.000130
 393	3.9004e+01	15.6140	59.884853	0.000304	3.041554	1.030506	0.000122
 394	3.9103e+01	15.6557	60.030190	0.000365	3.649864	1.236607	0.000146
 395	3.9203e+01	15.6958	60.139193	0.000274	2.737398	0.927456	0.000110
 396	3.9303e+01	15.7279	60.244158	0.000264	2.636013	0.893105	0.000105
 397	3.9402e+01	15.7648	60.373346	0.000324	3.244324	1.099207	0.000130
 398	3.9502e+01	15.8049	60.454089	0.000203	2.027702	0.687004	0.000081
 399	3.9601e+01	15.8530	60.619612	0.000416	4.156790	1.408359	0.000166
 400	3.9700e+01	15.8931	60.736689	0.000294	2.940168	0.996156	0.000118
 401	3.9800e+01	15.9300	60.898174	0.000406	4.055405	1.374008	0.000162
 402	3.9900e+01	15.9717	61.035437	0.000345	3.447094	1.167907	0.000138
 403	3.9999e+01	15.9974	61.120217	0.000213	2.129087	0.721354	0.000085
 404	4.0099e+01	16.0520	61.277665	0.000395	3.954020	1.339658	0.000158
 405	4.0198e+01	16.0921	61.418965	0.000355	3.548479	1.202257	0.000142
 406	4.0297e+01	16.1338	61.471447	0.000132	1.318007	0.446553	0.000053
 407	4.0397e+01	16.1755	61.620821	0.000375	3.751249	1.270958	0.000150
 408	4.0496e+01	16.2108	61.705601	0.000213	2.129087	0.721354	0.000085
 409	4.0596e+01	16.2493	61.810567	0.000264	2.636013	0.893105	0.000105
 410	4.0696e+01	16.2894	61.935718	0.000314	3.142939	1.064856	0.000126
 411	4.0795e+01	16.3183	62.068943	0.000335	3.345709	1.133557	0.000134
 412	4.0895e+01	16.3648	62.177946	0.000274	2.737398	0.927456	0.000110
 413	4.0994e+01	16.4033	62.343469	0.000416	4.156790	1.408359	0.000166
 414	4.1093e+01	16.4530	62.464583	0.000304	3.041554	1.030506	0.000122
 415	4.1193e+01	16.4947	62.561474	0.000243	2.433243	0.824405	0.000097
 416	4.1292e+01	16.5316	62.694699	0.000335	3.345709	1.133557	0.000134
 417	4.1392e+01	16.5653	62.803702	0.000274	2.737398	0.927456	0.000110
 418	4.1492e+01	16.6006	62.940965	0.000345	3.447094	1.167907	0.000138
 419	4.1591e+01	16.6503	63.122636	0.000456	4.562330	1.545759	0.000183
 420	4.1691e+01	16.6888	63.203379	0.000203	2.027702	0.687004	0.000081
 421	4.1790e+01	16.7225	63.340641	0.000345	3.447094	1.167907	0.000138
 422	4.1889e+01	16.7739	63.441570	0.000253	2.534628	0.858755	0.000101
 423	4.1989e+01	16.8172	63.570758	0.000324	3.244324	1.099207	0.000130
 424	4.2089e+01	16.8493	63.675723	0.000264	2.636013	0.893105	0.000105
 425	4.2188e+01	16.8829	63.796838	0.000304	3.041554	1.030506	0.000122
 426	4.2288e+01	16.9102	63.897766	0.000253	2.534628	0.858755	0.000101
 427	4.2387e+01	16.9664	64.002731	0.000264	2.636013	0.893105	0.000105
 428	4.2486e+01	17.0097	64.123845	0.000304	3.041554	1.030506	0.000122
 429	4.2586e+01	17.0370	64.265145	0.000355	3.548479	1.202257	0.000142
 430	4.2685e+01	17.0851	64.374148	0.000274	2.737398	0.927456	0.000110
 431	4.2785e+01	17.1220	64.499299	0.000314	3.142939	1.064856	0.000126
 432	4.2885e+01	17.1621	64.596190	0.000243	2.433243	0.824405	0.000097
 433	4.2984e+01	17.2086	64.721342	0.000314	3.142939	1.064856	0.000126
 434	4.3084e+01	17.2359	64.846493	0.000314	3.142939	1.064856	0.000126
 435	4.3183e+01	17.2888	65.003941	0.000395	3.954020	1.339658	0.000158
 436	4.3282e+01	17.3321	65.129092	0.000314	3.142939	1.064856	0.000126
 437	4.3382e+01	17.3594	65.282503	0.000385	3.852634	1.305308	0.000154
 438	4.3481e+01	17.3963	65.395543	0.000284	2.838783	0.961806	0.000114
 439	4.3581e+01	17.4476	65.532806	0.000345	3.447094	1.167907	0.000138
 440	4.3681e+01	17.4926	65.605474	0.000182	1.824932	0.618304	0.000073
 441	4.3780e+01	17.5262	65.754848	0.000375	3.751249	1.270958	0.000150
 442	4.3880e+01	17.5680	65.871925	0.000294	2.940168	0.996156	0.000118
 443	4.3979e+01	17.6081	66.017262	0.000365	3.649864	1.236607	0.000146
 444	4.4078e+01	17.6482	66.110116	0.000233	2.331858	0.790055	0.000093
 445	4.4178e+01	17.6947	66.211045	0.000253	2.534628	0.858755	0.000101
 446	4.4278e+01	17.7139	66.311973	0.000253	2.534628	0.858755	0.000101
 447	4.4377e+01	17.7589	66.457310	0.000365	3.649864	1.236607	0.000146
 448	4.4477e+01	17.8086	66.614758	0.000395	3.954020	1.339658	0.000158
 449	4.4576e+01	17.8519	66.699538	0.000213	2.129087	0.721354	0.000085
 450	4.4675e+01	17.8840	66.828726	0.000324	3.244324	1.099207	0.000130
 451	4.4775e+01	17.9209	66.978100	0.000375	3.751249	1.270958	0.000150
 452	4.4874e+01	17.9690	67.083066	0.000264	2.636013	0.893105	0.000105
 453	4.4974e+01	17.9995	67.224366	0.000355	3.548479	1.202257	0.000142
 454	4.5074e+01	18.0284	67.377777	0.000385	3.852634	1.305308	0.000154
 455	4.5173e+01	18.0909	67.502928	0.000314	3.142939	1.064856	0.000126
 456	4.5273e+01	18.1214	67.599819	0.000243	2.433243	0.824405	0.000097
 457	4.5372e+01	18.1615	67.757268	0.000395	3.954020	1.339658	0.000158
 458	4.5471e+01	18.1936	67.902605	0.000365	3.649864	1.236607	0.000146
 459	4.5571e+01	18.2401	68.007570	0.000264	2.636013	0.893105	0.000105
 460	4.5670e+01	18.2818	68.132721	0.000314	3.142939	1.064856	0.000126
 461	4.5770e+01	18.3203	68.229613	0.000243	2.433243	0.824405	0.000097
 462	4.5870e+01	18.3653	68.294207	0.000162	1.622162	0.549603	0.000065
 463	4.5969e+01	18.3989	68.435506	0.000355	3.548479	1.202257	0.000142
 464	4.6069e+01	18.4455	68.609103	0.000436	4.359560	1.477059	0.000174
 465	4.6168e+01	18.4776	68.677735	0.000172	1.723547	0.583954	0.000069
 466	4.6267e+01	18.5193	68.786737	0.000274	2.737398	0.927456	0.000110
 467	4.6367e+01	18.5674	68.948223	0.000406	4.055405	1.374008	0.000162
 468	4.6467e+01	18.6059	69.105671	0.000395	3.954020	1.339658	0.000158
 469	4.6566e+01	18.6348	69.222748	0.000294	2.940168	0.996156	0.000118
 470	4.6666e+01	18.6733	69.347899	0.000314	3.142939	1.064856	0.000126
 471	4.6765e+01	18.7246	69.541682	0.000487	4.866486	1.648810	0.000195
 472	4.6864e+01	18.7599	69.626462	0.000213	2.129087	0.721354	0.000085
 473	4.6964e+01	18.8000	69.796021	0.000426	4.258175	1.442709	0.000170
 474	4.7063e+01	18.8401	69.876764	0.000203	2.027702	0.687004	0.000081
 475	4.7163e+01	18.8786	70.038249	0.000406	4.055405	1.374008	0.000162
 476	4.7263e+01	18.9155	70.163401	0.000314	3.142939	1.064856	0.000126
 477	4.7362e+01	18.9604	70.276440	0.000284	2.838783	0.961806	0.000114
 478	4.7462e+01	19.0021	70.441963	0.000416	4.156790	1.408359	0.000166
 479	4.7561e+01	19.0422	70.498483	0.000142	1.419392	0.480903	0.000057
 480	4.7660e+01	19.0727	70.567114	0.000172	1.723547	0.583954	0.000069
 481	4.7760e+01	19.1192	70.736674	0.000426	4.258175	1.442709	0.000170
 482	4.7859e+01	19.1561	70.841639	0.000264	2.636013	0.893105	0.000105
 483	4.7959e+01	19.1930	70.978902	0.000345	3.447094	1.167907	0.000138
 484	4.8059e+01	19.2364	71.095979	0.000294	2.940168	0.996156	0.000118
 485	4.8158e+01	19.2797	71.233242	0.000345	3.447094	1.167907	0.000138
 486	4.8258e+01	19.3085	71.358393	0.000314	3.142939	1.064856	0.000126
 487	4.8357e+01	19.3503	71.515841	0.000395	3.954020	1.339658	0.000158
 488	4.8456e+01	19.4000	71.685401	0.000426	4.258175	1.442709	0.000170
 489	4.8556e+01	19.4337	71.810552	0.000314	3.142939	1.064856	0.000126
 490	4.8656e+01	19.4786	71.923592	0.000284	2.838783	0.961806	0.000114
 491	4.8755e+01	19.5203	72.068929	0.000365	3.649864	1.236607	0.000146
 492	4.8855e+01	19.5556	72.173894	0.000264	2.636013	0.893105	0.000105
 493	4.8954e+01	19.5925	72.315194	0.000355	3.548479	1.202257	0.000142
 494	4.9053e+01	19.6326	72.424197	0.000274	2.737398	0.927456	0.000110
 495	4.9153e+01	19.6743	72.545311	0.000304	3.041554	1.030506	0.000122
 496	4.9252e+01	19.7192	72.686610	0.000355	3.548479	1.202257	0.000142
 497	4.9352e+01	19.7545	72.751205	0.000162	1.622162	0.549603	0.000065
 498	4.9452e+01	19.7898	72.880393	0.000324	3.244324	1.099207	0.000130
 499	4.9551e+01	19.8363	72.985358	0.000264	2.636013	0.893105	0.000105
 500	4.9651e+01	19.8877	73.154918	0.000426	4.258175	1.442709	0.000170
 501	4.9750e+01	19.9101	73.263921	0.000274	2.737398	0.927456	0.000110
 502	4.9849e+01	19.9518	73.385035	0.000304	3.041554	1.030506	0.000122
 503	4.9949e+01	19.9887	73.510186	0.000314	3.142939	1.064856	0.000126
 504	5.0048e+01	19.9631	73.494038	0.000041	0.405540	0.137401	-0.000016
 505	5.0148e+01	19.9133	73.449629	0.000112	1.115236	0.377852	-0.000045
 506	5.0248e+01	19.8732	73.397146	0.000132	1.318007	0.446553	-0.000053
 507	5.0347e+01	19.8347	73.316404	0.000203	2.027702	0.687004	-0.000081
 508	5.0447e+01	19.7946	73.280069	0.000091	0.912466	0.309152	-0.000037
 509	5.0546e+01	19.7561	73.191252	0.000223	2.230473	0.755705	-0.000089
 510	5.0645e+01	19.7176	73.114547	0.000193	1.926317	0.652654	-0.000077
 511	5.0745e+01	19.6711	73.090324	0.000061	0.608311	0.206101	-0.000024
 512	5.0844e+01	19.6342	72.981321	0.000274	2.737398	0.927456	-0.000110
 513	5.0944e+01	19.5989	72.908653	0.000182	1.824932	0.618304	-0.000073
 514	5.1044e+01	19.5588	72.819836	0.000223	2.230473	0.755705	-0.000089
 515	5.1143e+01	19.5171	72.702759	0.000294	2.940168	0.996156	-0.000118
 516	5.1242e+01	19.4690	72.634128	0.000172	1.723547	0.583954	-0.000069
 517	5.1342e+01	19.4353	72.545311	0.000223	2.230473	0.755705	-0.000089
 518	5.1441e+01	19.4064	72.448419	0.000243	2.433243	0.824405	-0.000097
 519	5.1541e+01	19.3583	72.391899	0.000142	1.419392	0.480903	-0.000057
 520	5.1641e+01	19.3150	72.290971	0.000253	2.534628	0.858755	-0.000101
 521	5.1740e+01	19.2716	72.210228	0.000203	2.027702	0.687004	-0.000081
 522	5.1840e+01	19.2428	72.117374	0.000233	2.331858	0.790055	-0.000093
 523	5.1939e+01	19.1898	72.072966	0.000112	1.115236	0.377852	-0.000045
 524	5.2038e+01	19.1561	72.020483	0.000132	1.318007	0.446553	-0.000053
 525	5.2138e+01	19.1144	71.963963	0.000142	1.419392	0.480903	-0.000057
 526	5.2237e+01	19.0840	71.887258	0.000193	1.926317	0.652654	-0.000077
 527	5.2337e+01	19.0422	71.766143	0.000304	3.041554	1.030506	-0.000122
 528	5.2437e+01	19.0037	71.705586	0.000152	1.520777	0.515253	-0.000061
 529	5.2536e+01	18.9572	71.608695	0.000243	2.433243	0.824405	-0.000097
 530	5.2636e+01	18.9123	71.548138	0.000152	1.520777	0.515253	-0.000061
 531	5.2735e+01	18.8786	71.402801	0.000365	3.649864	1.236607	-0.000146
 532	5.2834e+01	18.8449	71.289761	0.000284	2.838783	0.961806	-0.000114
 533	5.2934e+01	18.7936	71.192870	0.000243	2.433243	0.824405	-0.000097
 534	5.3033e+01	18.7663	71.091942	0.000253	2.534628	0.858755	-0.000101
 535	5.3133e+01	18.7230	70.999088	0.000233	2.331858	0.790055	-0.000093
 536	5.3233e+01	18.6797	70.938531	0.000152	1.520777	0.515253	-0.000061
 537	5.3332e+01	18.6412	70.793194	0.000365	3.649864	1.236607	-0.000146
 538	5.3431e+01	18.6011	70.720525	0.000182	1.824932	0.618304	-0.000073
 539	5.3531e+01	18.5642	70.647857	0.000182	1.824932	0.618304	-0.000073
 540	5.3630e+01	18.5177	70.571151	0.000193	1.926317	0.652654	-0.000077
 541	5.3730e+01	18.4776	70.502520	0.000172	1.723547	0.583954	-0.000069
 542	5.3830e+01	18.4423	70.405629	0.000243	2.433243	0.824405	-0.000097
 543	5.3929e+01	18.3957	70.328923	0.000193	1.926317	0.652654	-0.000077
 544	5.4029e+01	18.3669	70.244143	0.000213	2.129087	0.721354	-0.000085
 545	5.4128e+01	18.3155	70.151289	0.000233	2.331858	0.790055	-0.000093
 546	5.4227e+01	18.2786	70.070546	0.000203	2.027702	0.687004	-0.000081
 547	5.4327e+01	18.2385	69.977692	0.000233	2.331858	0.790055	-0.000093
 548	5.4426e+01	18.1936	69.876764	0.000253	2.534628	0.858755	-0.000101
 549	5.4526e+01	18.1695	69.767761	0.000274	2.737398	0.927456	-0.000110
 550	5.4626e+01	18.1246	69.638573	0.000324	3.244324	1.099207	-0.000130
 551	5.4725e+01	18.0861	69.521496	0.000294	2.940168	0.996156	-0.000118
 552	5.4825e+01	18.0492	69.392308	0.000324	3.244324	1.099207	-0.000130
 553	5.4924e+01	18.0027	69.291379	0.000253	2.534628	0.858755	-0.000101
 554	5.5023e+01	17.9674	69.182377	0.000274	2.737398	0.927456	-0.000110
 555	5.5123e+01	17.9241	69.121820	0.000152	1.520777	0.515253	-0.000061
 556	5.5222e+01	17.8824	69.020891	0.000253	2.534628	0.858755	-0.000101
 557	5.5322e+01	17.8487	68.924000	0.000243	2.433243	0.824405	-0.000097
 558	5.5422e+01	17.7974	68.871517	0.000132	1.318007	0.446553	-0.000053
 559	5.5521e+01	17.7637	68.802886	0.000172	1.723547	0.583954	-0.000069
 560	5.5620e+01	17.7268	68.693883	0.000274	2.737398	0.927456	-0.000110
 561	5.5720e+01	17.6867	68.596992	0.000243	2.433243	0.824405	-0.000097
 562	5.5819e+01	17.6546	68.451655	0.000365	3.649864	1.236607	-0.000146
 563	5.5919e+01	17.6032	68.399172	0.000132	1.318007	0.446553	-0.000053
 564	5.6019e+01	17.5663	68.318430	0.000203	2.027702	0.687004	-0.000081
 565	5.6118e+01	17.5246	68.160981	0.000395	3.954020	1.339658	-0.000158
 566	5.6218e+01	17.4813	68.084276	0.000193	1.926317	0.652654	-0.000077
 567	5.6317e+01	17.4476	67.991422	0.000233	2.331858	0.790055	-0.000093
 568	5.6416e+01	17.4156	67.854159	0.000345	3.447094	1.167907	-0.000138
 569	5.6516e+01	17.3642	67.733045	0.000304	3.041554	1.030506	-0.000122
 570	5.6615e+01	17.3257	67.664414	0.000172	1.723547	0.583954	-0.000069
 571	5.6715e+01	17.2776	67.519077	0.000365	3.649864	1.236607	-0.000146
 572	5.6815e+01	17.2455	67.442371	0.000193	1.926317	0.652654	-0.000077
 573	5.6914e+01	17.2134	67.325294	0.000294	2.940168	0.996156	-0.000118
 574	5.7014e+01	17.1621	67.216291	0.000274	2.737398	0.927456	-0.000110
 575	5.7113e+01	17.1300	67.143623	0.000182	1.824932	0.618304	-0.000073
 576	5.7212e+01	17.0867	67.058843	0.000213	2.129087	0.721354	-0.000085
 577	5.7312e+01	17.0514	66.998286	0.000152	1.520777	0.515253	-0.000061
 578	5.7411e+01	17.0081	66.861024	0.000345	3.447094	1.167907	-0.000138
 579	5.7511e+01	16.9680	66.760095	0.000253	2.534628	0.858755	-0.000101
 580	5.7611e+01	16.9263	66.699538	0.000152	1.520777	0.515253	-0.000061
 581	5.7710e+01	16.8813	66.594573	0.000264	2.636013	0.893105	-0.000105
 582	5.7809e+01	16.8460	66.469421	0.000314	3.142939	1.064856	-0.000126
 583	5.7909e+01	16.8108	66.352344	0.000294	2.940168	0.996156	-0.000118
 584	5.8008e+01	16.7739	66.267565	0.000213	2.129087	0.721354	-0.000085
 585	5.8108e+01	16.7257	66.162599	0.000264	2.636013	0.893105	-0.000105
 586	5.8208e+01	16.6904	65.984965	0.000446	4.460945	1.511409	-0.000179
 587	5.8307e+01	16.6471	65.904222	0.000203	2.027702	0.687004	-0.000081
 588	5.8407e+01	16.6070	65.799257	0.000264	2.636013	0.893105	-0.000105
 589	5.8506e+01	16.5621	65.674106	0.000314	3.142939	1.064856	-0.000126
 590	5.8605e+01	16.5092	65.593363	0.000203	2.027702	0.687004	-0.000081
 591	5.8705e+01	16.4915	65.484360	0.000274	2.737398	0.927456	-0.000110
 592	5.8804e+01	16.4466	65.419766	0.000162	1.622162	0.549603	-0.000065
 593	5.8904e+01	16.4049	65.302689	0.000294	2.940168	0.996156	-0.000118
 594	5.9004e+01	16.3632	65.221946	0.000203	2.027702	0.687004	-0.000081
 595	5.9103e+01	16.3199	65.096795	0.000314	3.142939	1.064856	-0.000126
 596	5.9203e+01	16.2846	65.012015	0.000213	2.129087	0.721354	-0.000085
 597	5.9302e+01	16.2445	64.935310	0.000193	1.926317	0.652654	-0.000077
 598	5.9401e+01	16.2076	64.814196	0.000304	3.041554	1.030506	-0.000122
 599	5.9501e+01	16.1610	64.721342	0.000233	2.331858	0.790055	-0.000093
 600	5.9600e+01	16.1322	64.616376	0.000264	2.636013	0.893105	-0.000105
 601	5.9700e+01	16.0840	64.511411	0.000264	2.636013	0.893105	-0.000105
 602	5.9800e+01	16.0552	64.390296	0.000304	3.041554	1.030506	-0.000122
 603	5.9899e+01	16.0135	64.285331	0.000264	2.636013	0.893105	-0.000105
 604	5.9998e+01	15.9685	64.144031	0.000355	3.548479	1.202257	-0.000142
 605	6.0098e+01	15.9300	64.043103	0.000253	2.534628	0.858755	-0.000101
 606	6.0197e+01	15.8883	63.934100	0.000274	2.737398	0.927456	-0.000110
 607	6.0297e+01	15.8514	63.796838	0.000345	3.447094	1.167907	-0.000138
 608	6.0397e+01	15.8049	63.736280	0.000152	1.520777	0.515253	-0.000061
 609	6.0496e+01	15.7712	63.623241	0.000284	2.838783	0.961806	-0.000114
 610	6.0596e+01	15.7295	63.566721	0.000142	1.419392	0.480903	-0.000057
 611	6.0695e+01	15.6894	63.473867	0.000233	2.331858	0.790055	-0.000093
 612	6.0794e+01	15.6445	63.352753	0.000304	3.041554	1.030506	-0.000122
 613	6.0894e+01	15.6060	63.255861	0.000243	2.433243	0.824405	-0.000097
 614	6.0993e+01	15.5803	63.150896	0.000264	2.636013	0.893105	-0.000105
 615	6.1093e+01	15.5322	63.082264	0.000172	1.723547	0.583954	-0.000069
 616	6.1193e+01	15.4921	62.949039	0.000335	3.345709	1.133557	-0.000134
 617	6.1292e+01	15.4520	62.827925	0.000304	3.041554	1.030506	-0.000122
 618	6.1392e+01	15.4071	62.731034	0.000243	2.433243	0.824405	-0.000097
 619	6.1491e+01	15.3702	62.650291	0.000203	2.027702	0.687004	-0.000081
 620	6.1590e+01	15.3300	62.521103	0.000324	3.244324	1.099207	-0.000130
 621	6.1690e+01	15.2964	62.412100	0.000274	2.737398	0.927456	-0.000110
 622	6.1789e+01	15.2498	62.262726	0.000375	3.751249	1.270958	-0.000150
 623	6.1889e+01	15.2210	62.109315	0.000385	3.852634	1.305308	-0.000154
 624	6.1989e+01	15.1825	62.028572	0.000203	2.027702	0.687004	-0.000081
 625	6.2088e+01	15.1343	61.951866	0.000193	1.926317	0.652654	-0.000077
 626	6.2188e+01	15.0926	61.810567	0.000355	3.548479	1.202257	-0.000142
 627	6.2287e+01	15.0525	61.766158	0.000112	1.115236	0.377852	-0.000045
 628	6.2386e+01	15.0124	61.689453	0.000193	1.926317	0.652654	-0.000077
 629	6.2486e+01	14.9707	61.548153	0.000355	3.548479	1.202257	-0.000142
 630	6.2586e+01	14.9274	61.491633	0.000142	1.419392	0.480903	-0.000057
 631	6.2685e+01	14.9049	61.374556	0.000294	2.940168	0.996156	-0.000118
 632	6.2785e+01	14.8600	61.249405	0.000314	3.142939	1.064856	-0.000126
 633	6.2884e+01	14.8071	61.152514	0.000243	2.433243	0.824405	-0.000097
 634	6.2983e+01	14.7734	61.047548	0.000264	2.636013	0.893105	-0.000105
 635	6.3083e+01	14.7381	60.934508	0.000284	2.838783	0.961806	-0.000114
 636	6.3182e+01	14.6980	60.845691	0.000223	2.230473	0.755705	-0.000089
 637	6.3282e+01	14.6563	60.688243	0.000395	3.954020	1.339658	-0.000158
 638	6.3382e+01	14.6162	60.595389	0.000233	2.331858	0.790055	-0.000093
 639	6.3481e+01	14.5841	60.486386	0.000274	2.737398	0.927456	-0.000110
 640	6.3581e+01	14.5343	60.353161	0.000335	3.345709	1.133557	-0.000134
 641	6.3680e+01	14.4958	60.244158	0.000274	2.737398	0.927456	-0.000110
 642	6.3779e+01	14.4622	60.147267	0.000243	2.433243	0.824405	-0.000097
 643	6.3879e+01	14.4172	60.042301	0.000264	2.636013	0.893105	-0.000105
 644	6.3978e+01	14.3707	59.953484	0.000223	2.230473	0.755705	-0.000089
 645	6.4078e+01	14.3338	59.856593	0.000243	2.433243	0.824405	-0.000097
 646	6.4177e+01	14.3033	59.739516	0.000294	2.940168	0.996156	-0.000118
 647	6.4277e+01	14.2552	59.634551	0.000264	2.636013	0.893105	-0.000105
 648	6.4376e+01	14.2183	59.569956	0.000162	1.622162	0.549603	-0.000065
 649	6.4476e+01	14.1798	59.428657	0.000355	3.548479	1.202257	-0.000142
 650	6.4576e+01	14.1365	59.319654	0.000274	2.737398	0.927456	-0.000110
 651	6.4675e+01	14.0964	59.214688	0.000264	2.636013	0.893105	-0.000105
 652	6.4775e+01	14.0595	59.113760	0.000253	2.534628	0.858755	-0.000101
 653	6.4874e+01	14.0226	58.980535	0.000335	3.345709	1.133557	-0.000134
 654	6.4974e+01	13.9841	58.867495	0.000284	2.838783	0.961806	-0.000114
 655	6.5073e+01	13.9456	58.794826	0.000182	1.824932	0.618304	-0.000073
 656	6.5172e+01	13.9039	58.637378	0.000395	3.954020	1.339658	-0.000158
 657	6.5272e+01	13.8622	58.520301	0.000294	2.940168	0.996156	-0.000118
 658	6.5371e+01	13.8140	58.362853	0.000395	3.954020	1.339658	-0.000158
 659	6.5471e+01	13.7659	58.282110	0.000203	2.027702	0.687004	-0.000081
 660	6.5570e+01	13.7370	58.177145	0.000264	2.636013	0.893105	-0.000105
 661	6.5670e+01	13.6985	58.072179	0.000264	2.636013	0.893105	-0.000105
 662	6.5769e+01	13.6616	58.023733	0.000122	1.216621	0.412202	-0.000049
 663	6.5869e+01	13.6199	57.886471	0.000345	3.447094	1.167907	-0.000138
 664	6.5969e+01	13.5798	57.805728	0.000203	2.027702	0.687004	-0.000081
 665	6.6068e+01	13.5365	57.660391	0.000365	3.649864	1.236607	-0.000146
 666	6.6168e+01	13.4980	57.559463	0.000253	2.534628	0.858755	-0.000101
 667	6.6267e+01	13.4627	57.446423	0.000284	2.838783	0.961806	-0.000114
 668	6.6367e+01	13.4194	57.301086	0.000365	3.649864	1.236607	-0.000146
 669	6.6466e+01	13.3761	57.204195	0.000243	2.433243	0.824405	-0.000097
 670	6.6566e+01	13.3392	57.099229	0.000264	2.636013	0.893105	-0.000105
 671	6.6665e+01	13.3007	57.018487	0.000203	2.027702	0.687004	-0.000081
 672	6.6764e+01	13.2478	56.857001	0.000406	4.055405	1.374008	-0.000162
 673	6.6864e+01	13.2173	56.735887	0.000304	3.041554	1.030506	-0.000122
 674	6.6963e+01	13.1756	56.659182	0.000193	1.926317	0.652654	-0.000077
 675	6.7063e+01	13.1531	56.525956	0.000335	3.345709	1.133557	-0.000134
 676	6.7162e+01	13.1050	56.344285	0.000456	4.562330	1.545759	-0.000183
 677	6.7262e+01	13.0649	56.263542	0.000203	2.027702	0.687004	-0.000081
 678	6.7362e+01	13.0232	56.178762	0.000213	2.129087	0.721354	-0.000085
 679	6.7461e+01	12.9815	56.102057	0.000193	1.926317	0.652654	-0.000077
 680	6.7561e+01	12.9381	55.989017	0.000284	2.838783	0.961806	-0.000114
 681	6.7660e+01	12.8980	55.839643	0.000375	3.751249	1.270958	-0.000150
 682	6.7760e+01	12.8676	55.738715	0.000253	2.534628	0.858755	-0.000101
 683	6.7859e+01	12.8274	55.641823	0.000243	2.433243	0.824405	-0.000097
 684	6.7959e+01	12.7922	55.536858	0.000264	2.636013	0.893105	-0.000105
 685	6.8058e+01	12.7408	55.391521	0.000365	3.649864	1.236607	-0.000146
 686	6.8157e+01	12.7087	55.254258	0.000345	3.447094	1.167907	-0.000138
 687	6.8257e+01	12.6670	55.181590	0.000182	1.824932	0.618304	-0.000073
 688	6.8356e+01	12.6269	55.012030	0.000426	4.258175	1.442709	-0.000170
 689	6.8456e+01	12.5756	54.919176	0.000233	2.331858	0.790055	-0.000093
 690	6.8555e+01	12.5483	54.789988	0.000324	3.244324	1.099207	-0.000130
 691	6.8655e+01	12.5050	54.685022	0.000264	2.636013	0.893105	-0.000105
 692	6.8754e+01	12.4665	54.555834	0.000324	3.244324	1.099207	-0.000130
 693	6.8854e+01	12.4344	54.434720	0.000304	3.041554	1.030506	-0.000122
 694	6.8954e+01	12.3767	54.317643	0.000294	2.940168	0.996156	-0.000118
 695	6.9053e+01	12.3558	54.192492	0.000314	3.142939	1.064856	-0.000126
 696	6.9153e+01	12.3093	54.047155	0.000365	3.649864	1.236607	-0.000146
 697	6.9252e+01	12.2644	53.962375	0.000213	2.129087	0.721354	-0.000085
 698	6.9352e+01	12.2226	53.861446	0.000253	2.534628	0.858755	-0.000101
 699	6.9451e+01	12.1858	53.703998	0.000395	3.954020	1.339658	-0.000158
 700	6.9550e+01	12.1473	53.594995	0.000274	2.737398	0.927456	-0.000110
 701	6.9650e+01	12.1039	53.498104	0.000243	2.433243	0.824405	-0.000097
 702	6.9749e+01	12.0574	53.393139	0.000264	2.636013	0.893105	-0.000105
 703	6.9849e+01	12.0317	53.231653	0.000406	4.055405	1.374008	-0.000162
 704	6.9948e+01	11.9852	53.114576	0.000294	2.940168	0.996156	-0.000118
 705	7.0048e+01	11.9435	53.005574	0.000274	2.737398	0.927456	-0.000110
 706	7.0147e+01	11.9130	52.880422	0.000314	3.142939	1.064856	-0.000126
 707	7.0247e+01	11.8729	52.767383	0.000284	2.838783	0.961806	-0.000114
 708	7.0347e+01	11.8264	52.650306	0.000294	2.940168	0.996156	-0.000118
 709	7.0446e+01	11.7943	52.541303	0.000274	2.737398	0.927456	-0.000110
 710	7.0546e+01	11.7494	52.432300	0.000274	2.737398	0.927456	-0.000110
 711	7.0645e+01	11.7173	52.295038	0.000345	3.447094	1.167907	-0.000138
 712	7.0745e+01	11.6708	52.161812	0.000335	3.345709	1.133557	-0.000134
 713	7.0844e+01	11.6227	52.036661	0.000314	3.142939	1.064856	-0.000126
 714	7.0944e+01	11.5858	51.903436	0.000335	3.345709	1.133557	-0.000134
 715	7.1043e+01	11.5457	51.798470	0.000264	2.636013	0.893105	-0.000105
 716	7.1142e+01	11.5040	51.661207	0.000345	3.447094	1.167907	-0.000138
 717	7.1242e+01	11.4767	51.564316	0.000243	2.433243	0.824405	-0.000097
 718	7.1341e+01	11.4253	51.410905	0.000385	3.852634	1.305308	-0.000154
 719	7.1441e+01	11.4013	51.314014	0.000243	2.433243	0.824405	-0.000097
 720	7.1540e+01	11.3516	51.156566	0.000395	3.954020	1.339658	-0.000158
 721	7.1640e+01	11.3179	51.043526	0.000284	2.838783	0.961806	-0.000114
 722	7.1740e+01	11.2681	50.906263	0.000345	3.447094	1.167907	-0.000138
 723	7.1839e+01	11.2296	50.769000	0.000345	3.447094	1.167907	-0.000138
 724	7.1939e+01	11.1895	50.672109	0.000243	2.433243	0.824405	-0.000097
 725	7.2038e+01	11.1558	50.559069	0.000284	2.838783	0.961806	-0.000114
 726	7.2138e+01	11.1013	50.417770	0.000355	3.548479	1.202257	-0.000142
 727	7.2237e+01	11.0708	50.328953	0.000223	2.230473	0.755705	-0.000089
 728	7.2337e+01	11.0403	50.195727	0.000335	3.345709	1.133557	-0.000134
 729	7.2436e+01	10.9922	50.030205	0.000416	4.156790	1.408359	-0.000166
 730	7.2535e+01	10.9521	49.888905	0.000355	3.548479	1.202257	-0.000142
 731	7.2635e+01	10.9136	49.719345	0.000426	4.258175	1.442709	-0.000170
 732	7.2734e+01	10.8735	49.614380	0.000264	2.636013	0.893105	-0.000105
 733	7.2834e+01	10.8398	49.545748	0.000172	1.723547	0.583954	-0.000069
 734	7.2933e+01	10.7965	49.404449	0.000355	3.548479	1.202257	-0.000142
 735	7.3033e+01	10.7516	49.255075	0.000375	3.751249	1.270958	-0.000150
 736	7.3132e+01	10.7211	49.125886	0.000324	3.244324	1.099207	-0.000130
 737	7.3232e+01	10.6698	48.988624	0.000345	3.447094	1.167907	-0.000138
 738	7.3332e+01	10.6409	48.855398	0.000335	3.345709	1.133557	-0.000134
 739	7.3431e+01	10.5976	48.750433	0.000264	2.636013	0.893105	-0.000105
 740	7.3531e+01	10.5494	48.597021	0.000385	3.852634	1.305308	-0.000154
 741	7.3630e+01	10.5061	48.524353	0.000182	1.824932	0.618304	-0.000073
 742	7.3730e+01	10.4724	48.407276	0.000294	2.940168	0.996156	-0.000118
 743	7.3829e+01	10.4307	48.265976	0.000355	3.548479	1.202257	-0.000142
 744	7.3928e+01	10.3874	48.132751	0.000335	3.345709	1.133557	-0.000134
 745	7.4028e+01	10.3505	48.003562	0.000324	3.244324	1.099207	-0.000130
 746	7.4127e+01	10.3232	47.882448	0.000304	3.041554	1.030506	-0.000122
 747	7.4227e+01	10.2767	47.725000	0.000395	3.954020	1.339658	-0.000158
 748	7.4326e+01	10.2382	47.587738	0.000345	3.447094	1.167907	-0.000138
 749	7.4426e+01	10.1949	47.422215	0.000416	4.156790	1.408359	-0.000166
 750	7.4525e+01	10.1548	47.321287	0.000253	2.534628	0.858755	-0.000101
 751	7.4625e+01	10.1067	47.200172	0.000304	3.041554	1.030506	-0.000122
 752	7.4725e+01	10.0794	47.046761	0.000385	3.852634	1.305308	-0.000154
 753	7.4824e+01	10.0345	46.970056	0.000193	1.926317	0.652654	-0.000077
 754	7.4924e+01	9.9847	46.764162	0.000517	5.170641	1.751861	-0.000207
 755	7.5023e+01	9.9623	46.683419	0.000203	2.027702	0.687004	-0.000081
 756	7.5123e+01	9.9126	46.530008	0.000385	3.852634	1.305308	-0.000154
 757	7.5222e+01	9.8773	46.433117	0.000243	2.433243	0.824405	-0.000097
 758	7.5322e+01	9.8291	46.303928	0.000324	3.244324	1.099207	-0.000130
 759	7.5421e+01	9.7938	46.126294	0.000446	4.460945	1.511409	-0.000179
 760	7.5520e+01	9.7457	46.025366	0.000253	2.534628	0.858755	-0.000101
 761	7.5620e+01	9.7152	45.843695	0.000456	4.562330	1.545759	-0.000183
 762	7.5719e+01	9.6751	45.726618	0.000294	2.940168	0.996156	-0.000118
 763	7.5819e+01	9.6382	45.690284	0.000091	0.912466	0.309152	-0.000037
 764	7.5918e+01	9.6013	45.540910	0.000375	3.751249	1.270958	-0.000150
 765	7.6018e+01	9.5532	45.339053	0.000507	5.069256	1.717510	-0.000203
 766	7.6118e+01	9.5131	45.226013	0.000284	2.838783	0.961806	-0.000114
 767	7.6217e+01	9.4762	45.088750	0.000345	3.447094	1.167907	-0.000138
 768	7.6317e+01	9.4457	44.975711	0.000284	2.838783	0.961806	-0.000114
 769	7.6416e+01	9.4040	44.830374	0.000365	3.649864	1.236607	-0.000146
 770	7.6516e+01	9.3687	44.689074	0.000355	3.548479	1.202257	-0.000142
 771	7.6615e+01	9.3206	44.547774	0.000355	3.548479	1.202257	-0.000142
 772	7.6715e+01	9.2660	44.418586	0.000324	3.244324	1.099207	-0.000130
 773	7.6814e+01	9.2292	44.269212	0.000375	3.751249	1.270958	-0.000150
 774	7.6913e+01	9.2051	44.168284	0.000253	2.534628	0.858755	-0.000101
 775	7.7013e+01	9.1650	44.002761	0.000416	4.156790	1.408359	-0.000166
 776	7.7112e+01	9.1201	43.889721	0.000284	2.838783	0.961806	-0.000114
 777	7.7212e+01	9.0751	43.732273	0.000395	3.954020	1.339658	-0.000158
 778	7.7311e+01	9.0366	43.607122	0.000314	3.142939	1.064856	-0.000126
 779	7.7411e+01	8.9965	43.510230	0.000243	2.433243	0.824405	-0.000097
 780	7.7510e+01	8.9628	43.372968	0.000345	3.447094	1.167907	-0.000138
 781	7.7610e+01	8.9163	43.284151	0.000223	2.230473	0.755705	-0.000089
 782	7.7710e+01	8.8842	43.102480	0.000456	4.562330	1.545759	-0.000183
 783	7.7809e+01	8.8361	42.928883	0.000436	4.359560	1.477059	-0.000174
 784	7.7909e+01	8.7960	42.836029	0.000233	2.331858	0.790055	-0.000093
 785	7.8008e+01	8.7591	42.682618	0.000385	3.852634	1.305308	-0.000154
 786	7.8108e+01	8.7174	42.537281	0.000365	3.649864	1.236607	-0.000146
 787	7.8207e+01	8.6773	42.416167	0.000304	3.041554	1.030506	-0.000122
 788	7.8306e+01	8.6420	42.262755	0.000385	3.852634	1.305308	-0.000154
 789	7.8406e+01	8.6051	42.117419	0.000365	3.649864	1.236607	-0.000146
 790	7.8505e+01	8.5506	42.020527	0.000243	2.433243	0.824405	-0.000097
 791	7.8605e+01	8.5249	41.859042	0.000406	4.055405	1.374008	-0.000162
 792	7.8704e+01	8.4752	41.701594	0.000395	3.954020	1.339658	-0.000158
 793	7.8804e+01	8.4383	41.592591	0.000274	2.737398	0.927456	-0.000110
 794	7.8903e+01	8.3966	41.451291	0.000355	3.548479	1.202257	-0.000142
 795	7.9003e+01	8.3613	41.334214	0.000294	2.940168	0.996156	-0.000118
 796	7.9103e+01	8.3228	41.188877	0.000365	3.649864	1.236607	-0.000146
 797	7.9202e+01	8.2827	41.083912	0.000264	2.636013	0.893105	-0.000105
 798	7.9302e+01	8.2409	40.950686	0.000335	3.345709	1.133557	-0.000134
 799	7.9401e+01	8.1976	40.805349	0.000365	3.649864	1.236607	-0.000146
 800	7.9501e+01	8.1655	40.676161	0.000324	3.244324	1.099207	-0.000130
 801	7.9600e+01	8.1222	40.563121	0.000284	2.838783	0.961806	-0.000114
 802	7.9700e+01	8.0869	40.381450	0.000456	4.562330	1.545759	-0.000183
 803	7.9799e+01	8.0372	40.244188	0.000345	3.447094	1.167907	-0.000138
 804	7.9898e+01	8.0099	40.070591	0.000436	4.359560	1.477059	-0.000174
 805	7.9998e+01	7.9602	39.941402	0.000324	3.244324	1.099207	-0.000130
 806	8.0097e+01	7.9169	39.796066	0.000365	3.649864	1.236607	-0.000146
 807	8.0197e+01	7.8864	39.646692	0.000375	3.751249	1.270958	-0.000150
 808	8.0296e+01	7.8415	39.513466	0.000335	3.345709	1.133557	-0.000134
 809	8.0396e+01	7.8158	39.364092	0.000375	3.751249	1.270958	-0.000150
 810	8.0496e+01	7.7597	39.230867	0.000335	3.345709	1.133557	-0.000134
 811	8.0595e+01	7.7260	39.113790	0.000294	2.940168	0.996156	-0.000118
 812	8.0695e+01	7.6827	38.968453	0.000365	3.649864	1.236607	-0.000146
 813	8.0794e+01	7.6506	38.895784	0.000182	1.824932	0.618304	-0.000073
 814	8.0894e+01	7.6009	38.734299	0.000406	4.055405	1.374008	-0.000162
 815	8.0993e+01	7.5640	38.625296	0.000274	2.737398	0.927456	-0.000110
 816	8.1093e+01	7.5255	38.467848	0.000395	3.954020	1.339658	-0.000158
 817	8.1192e+01	7.4757	38.318474	0.000375	3.751249	1.270958	-0.000150
 818	8.1291e+01	7.4436	38.189286	0.000324	3.244324	1.099207	-0.000130
 819	8.1391e+01	7.4003	37.999540	0.000477	4.765101	1.614460	-0.000191
 820	8.1490e+01	7.3570	37.854203	0.000365	3.649864	1.236607	-0.000146
 821	8.1590e+01	7.3217	37.720978	0.000335	3.345709	1.133557	-0.000134
 822	8.1689e+01	7.2848	37.551418	0.000426	4.258175	1.442709	-0.000170
 823	8.1789e+01	7.2431	37.398007	0.000385	3.852634	1.305308	-0.000154
 824	8.1888e+01	7.1998	37.232484	0.000416	4.156790	1.408359	-0.000166
 825	8.1988e+01	7.1597	37.103296	0.000324	3.244324	1.099207	-0.000130
 826	8.2088e+01	7.1212	36.966033	0.000345	3.447094	1.167907	-0.000138
 827	8.2187e+01	7.0875	36.800511	0.000416	4.156790	1.408359	-0.000166
 828	8.2287e+01	7.0474	36.679397	0.000304	3.041554	1.030506	-0.000122
 829	8.2386e+01	7.0105	36.554246	0.000314	3.142939	1.064856	-0.000126
 830	8.2486e+01	6.9704	36.449280	0.000264	2.636013	0.893105	-0.000105
 831	8.2585e+01	6.9287	36.251460	0.000497	4.967871	1.683160	-0.000199
 832	8.2684e+01	6.8918	36.098049	0.000385	3.852634	1.305308	-0.000154
 833	8.2784e+01	6.8437	36.001158	0.000243	2.433243	0.824405	-0.000097
 834	8.2883e+01	6.8116	35.843710	0.000395	3.954020	1.339658	-0.000158
 835	8.2983e+01	6.7602	35.690298	0.000385	3.852634	1.305308	-0.000154
 836	8.3082e+01	6.7282	35.569184	0.000304	3.041554	1.030506	-0.000122
 837	8.3182e+01	6.6864	35.407699	0.000406	4.055405	1.374008	-0.000162
 838	8.3281e+01	6.6479	35.213916	0.000487	4.866486	1.648810	-0.000195
 839	8.3381e+01	6.6046	35.032245	0.000456	4.562330	1.545759	-0.000183
 840	8.3481e+01	6.5677	34.939391	0.000233	2.331858	0.790055	-0.000093
 841	8.3580e+01	6.5260	34.737534	0.000507	5.069256	1.717510	-0.000203
 842	8.3680e+01	6.4827	34.612383	0.000314	3.142939	1.064856	-0.000126
 843	8.3779e+01	6.4538	34.442824	0.000426	4.258175	1.442709	-0.000170
 844	8.3879e+01	6.4057	34.317672	0.000314	3.142939	1.064856	-0.000126
 845	8.3978e+01	6.3672	34.160224	0.000395	3.954020	1.339658	-0.000158
 846	8.4078e+01	6.3191	33.994701	0.000416	4.156790	1.408359	-0.000166
 847	8.4177e+01	6.2918	33.913959	0.000203	2.027702	0.687004	-0.000081
 848	8.4276e+01	6.2565	33.748436	0.000416	4.156790	1.408359	-0.000166
 849	8.4376e+01	6.2100	33.655582	0.000233	2.331858	0.790055	-0.000093
 850	8.4475e+01	6.1667	33.453725	0.000507	5.069256	1.717510	-0.000203
 851	8.4575e+01	6.1394	33.308388	0.000365	3.649864	1.236607	-0.000146
 852	8.4674e+01	6.0929	33.154977	0.000385	3.852634	1.305308	-0.000154
 853	8.4774e+01	6.0480	32.993492	0.000406	4.055405	1.374008	-0.000162
 854	8.4874e+01	6.0046	32.848155	0.000365	3.649864	1.236607	-0.000146
 855	8.4973e+01	5.9661	32.678595	0.000426	4.258175	1.442709	-0.000170
 856	8.5073e+01	5.9325	32.500961	0.000446	4.460945	1.511409	-0.000179
 857	8.5172e+01	5.8859	32.303142	0.000497	4.967871	1.683160	-0.000199
 858	8.5272e+01	5.8571	32.169916	0.000335	3.345709	1.133557	-0.000134
 859	8.5371e+01	5.8218	32.008431	0.000406	4.055405	1.374008	-0.000162
 860	8.5471e+01	5.7768	31.859057	0.000375	3.751249	1.270958	-0.000150
 861	8.5570e+01	5.7319	31.693534	0.000416	4.156790	1.408359	-0.000166
 862	8.5669e+01	5.6982	31.556271	0.000345	3.447094	1.167907	-0.000138
 863	8.5769e+01	5.6501	31.382675	0.000436	4.359560	1.477059	-0.000174
 864	8.5868e+01	5.6148	31.269635	0.000284	2.838783	0.961806	-0.000114
 865	8.5968e+01	5.5747	31.144484	0.000314	3.142939	1.064856	-0.000126
 866	8.6067e+01	5.5346	30.966850	0.000446	4.460945	1.511409	-0.000179
 867	8.6167e+01	5.4881	30.769030	0.000497	4.967871	1.683160	-0.000199
 868	8.6266e+01	5.4576	30.655990	0.000284	2.838783	0.961806	-0.000114
 869	8.6366e+01	5.4095	30.490468	0.000416	4.156790	1.408359	-0.000166
 870	8.6466e+01	5.3742	30.304759	0.000466	4.663715	1.580110	-0.000187
 871	8.6565e+01	5.3357	30.151348	0.000385	3.852634	1.305308	-0.000154
 872	8.6665e+01	5.2972	29.981789	0.000426	4.258175	1.442709	-0.000170
 873	8.6764e+01	5.2555	29.844526	0.000345	3.447094	1.167907	-0.000138
 874	8.6864e+01	5.2186	29.654781	0.000477	4.765101	1.614460	-0.000191
 875	8.6963e+01	5.1704	29.412552	0.000608	6.083107	2.061012	-0.000243
 876	8.7063e+01	5.1319	29.287401	0.000314	3.142939	1.064856	-0.000126
 877	8.7162e+01	5.0902	29.089582	0.000497	4.967871	1.683160	-0.000199
 878	8.7261e+01	5.0614	28.907910	0.000456	4.562330	1.545759	-0.000183
 879	8.7361e+01	5.0196	28.774685	0.000335	3.345709	1.133557	-0.000134
 880	8.7460e+01	4.9747	28.617237	0.000395	3.954020	1.339658	-0.000158
 881	8.7560e+01	4.9282	28.463826	0.000385	3.852634	1.305308	-0.000154
 882	8.7659e+01	4.8977	28.346749	0.000294	2.940168	0.996156	-0.000118
 883	8.7759e+01	4.8544	28.185263	0.000406	4.055405	1.374008	-0.000162
 884	8.7859e+01	4.8031	28.007629	0.000446	4.460945	1.511409	-0.000179
 885	8.7958e+01	4.7758	27.918812	0.000223	2.230473	0.755705	-0.000089
 886	8.8058e+01	4.7277	27.660436	0.000649	6.488648	2.198413	-0.000260
 887	8.8157e+01	4.6956	27.527210	0.000335	3.345709	1.133557	-0.000134
 888	8.8257e+01	4.6587	27.365725	0.000406	4.055405	1.374008	-0.000162
 889	8.8356e+01	4.6202	27.159831	0.000517	5.170641	1.751861	-0.000207
 890	8.8456e+01	4.5849	26.978160	0.000456	4.562330	1.545759	-0.000183
 891	8.8555e+01	4.5352	26.816674	0.000406	4.055405	1.374008	-0.000162
 892	8.8654e+01	4.5031	26.626929	0.000477	4.765101	1.614460	-0.000191
 893	8.8754e+01	4.4453	26.441221	0.000466	4.663715	1.580110	-0.000187
 894	8.8853e+01	4.4229	26.251475	0.000477	4.765101	1.614460	-0.000191
 895	8.8953e+01	4.3796	26.114213	0.000345	3.447094	1.167907	-0.000138
 896	8.9052e+01	4.3411	25.888133	0.000568	5.677567	1.923612	-0.000227
 897	8.9152e+01	4.2945	25.710499	0.000446	4.460945	1.511409	-0.000179
 898	8.9251e+01	4.2576	25.524791	0.000466	4.663715	1.580110	-0.000187
 899	8.9351e+01	4.2143	25.440011	0.000213	2.129087	0.721354	-0.000085
 900	8.9451e+01	4.1742	25.226043	0.000537	5.373411	1.820561	-0.000215
 901	8.9550e+01	4.1309	25.088780	0.000345	3.447094	1.167907	-0.000138
 902	8.9650e+01	4.1004	24.927295	0.000406	4.055405	1.374008	-0.000162
 903	8.9749e+01	4.0603	24.741586	0.000466	4.663715	1.580110	-0.000187
 904	8.9849e+01	4.0186	24.576064	0.000416	4.156790	1.408359	-0.000166
 905	8.9948e+01	3.9817	24.402467	0.000436	4.359560	1.477059	-0.000174
 906	9.0047e+01	3.9416	24.168313	0.000588	5.880337	1.992312	-0.000235
 907	9.0147e+01	3.9031	24.043162	0.000314	3.142939	1.064856	-0.000126
 908	9.0246e+01	3.8566	23.857454	0.000466	4.663715	1.580110	-0.000187
 909	9.0346e+01	3.8117	23.667708	0.000477	4.765101	1.614460	-0.000191
 910	9.0445e+01	3.7796	23.482000	0.000466	4.663715	1.580110	-0.000187
 911	9.0545e+01	3.7379	23.280143	0.000507	5.069256	1.717510	-0.000203
 912	9.0644e+01	3.7074	23.098472	0.000456	4.562330	1.545759	-0.000183
 913	9.0744e+01	3.6657	22.945061	0.000385	3.852634	1.305308	-0.000154
 914	9.0844e+01	3.6240	22.751278	0.000487	4.866486	1.648810	-0.000195
 915	9.0943e+01	3.5742	22.573644	0.000446	4.460945	1.511409	-0.000179
 916	9.1043e+01	3.5421	22.416196	0.000395	3.954020	1.339658	-0.000158
 917	9.1142e+01	3.4956	22.254711	0.000406	4.055405	1.374008	-0.000162
 918	9.1242e+01	3.4571	22.077077	0.000446	4.460945	1.511409	-0.000179
 919	9.1341e+01	3.4218	21.875220	0.000507	5.069256	1.717510	-0.000203
 920	9.1441e+01	3.3865	21.725846	0.000375	3.751249	1.270958	-0.000150
 921	9.1540e+01	3.3416	21.556286	0.000426	4.258175	1.442709	-0.000170
 922	9.1639e+01	3.2983	21.386727	0.000426	4.258175	1.442709	-0.000170
 923	9.1739e+01	3.2678	21.168721	0.000547	5.474796	1.854911	-0.000219
 924	9.1838e+01	3.2181	20.970902	0.000497	4.967871	1.683160	-0.000199
 925	9.1938e+01	3.1828	20.841713	0.000324	3.244324	1.099207	-0.000130
 926	9.2037e+01	3.1427	20.643894	0.000497	4.967871	1.683160	-0.000199
 927	9.2137e+01	3.0978	20.405703	0.000598	5.981722	2.026662	-0.000239
 928	9.2237e+01	3.0625	20.195772	0.000527	5.272026	1.786211	-0.000211
 929	9.2336e+01	3.0192	19.985840	0.000527	5.272026	1.786211	-0.000211
 930	9.2436e+01	2.9742	19.820318	0.000416	4.156790	1.408359	-0.000166
 931	9.2535e+01	2.9438	19.654795	0.000416	4.156790	1.408359	-0.000166
 932	9.2635e+01	2.9133	19.452939	0.000507	5.069256	1.717510	-0.000203
 933	9.2734e+01	2.8571	19.259156	0.000487	4.866486	1.648810	-0.000195
 934	9.2834e+01	2.8218	19.134005	0.000314	3.142939	1.064856	-0.000126
 935	9.2933e+01	2.7833	18.920037	0.000537	5.373411	1.820561	-0.000215
 936	9.3032e+01	2.7416	18.786811	0.000335	3.345709	1.133557	-0.000134
 937	9.3132e+01	2.6887	18.605140	0.000456	4.562330	1.545759	-0.000183
 938	9.3231e+01	2.6630	18.391172	0.000537	5.373411	1.820561	-0.000215
 939	9.3331e+01	2.6245	18.181241	0.000527	5.272026	1.786211	-0.000211
 940	9.3430e+01	2.5940	18.019755	0.000406	4.055405	1.374008	-0.000162
 941	9.3530e+01	2.5443	17.813861	0.000517	5.170641	1.751861	-0.000207
 942	9.3629e+01	2.4978	17.612005	0.000507	5.069256	1.717510	-0.000203
 943	9.3729e+01	2.4737	17.458593	0.000385	3.852634	1.305308	-0.000154
 944	9.3829e+01	2.4336	17.232514	0.000568	5.677567	1.923612	-0.000227
 945	9.3928e+01	2.3775	17.022583	0.000527	5.272026	1.786211	-0.000211
 946	9.4028e+01	2.3470	16.820726	0.000507	5.069256	1.717510	-0.000203
 947	9.4127e+01	2.3005	16.590609	0.000578	5.778952	1.957962	-0.000231
 948	9.4227e+01	2.2604	16.437198	0.000385	3.852634	1.305308	-0.000154
 949	9.4326e+01	2.2331	16.255527	0.000456	4.562330	1.545759	-0.000183
 950	9.4425e+01	2.1866	16.053670	0.000507	5.069256	1.717510	-0.000203
 951	9.4525e+01	2.1400	15.936593	0.000294	2.940168	0.996156	-0.000118
 952	9.4624e+01	2.1064	15.726662	0.000527	5.272026	1.786211	-0.000211
 953	9.4724e+01	2.0727	15.524805	0.000507	5.069256	1.717510	-0.000203
 954	9.4823e+01	2.0294	15.314874	0.000527	5.272026	1.786211	-0.000211
 955	9.4923e+01	1.9876	15.141278	0.000436	4.359560	1.477059	-0.000174
 956	9.5022e+01	1.9427	14.943458	0.000497	4.967871	1.683160	-0.000199
 957	9.5122e+01	1.9058	14.713341	0.000578	5.778952	1.957962	-0.000231
 958	9.5222e+01	1.8737	14.547819	0.000416	4.156790	1.408359	-0.000166
 959	9.5321e+01	1.8176	14.370185	0.000446	4.460945	1.511409	-0.000179
 960	9.5421e+01	1.7919	14.115845	0.000639	6.387262	2.164063	-0.000256
 961	9.5520e+01	1.7470	13.922063	0.000487	4.866486	1.648810	-0.000195
 962	9.5620e+01	1.7165	13.716169	0.000517	5.170641	1.751861	-0.000207
 963	9.5719e+01	1.6684	13.477978	0.000598	5.981722	2.026662	-0.000239
 964	9.5819e+01	1.6267	13.304381	0.000436	4.359560	1.477059	-0.000174
 965	9.5918e+01	1.5850	13.102524	0.000507	5.069256	1.717510	-0.000203
 966	9.6017e+01	1.5497	12.896630	0.000517	5.170641	1.751861	-0.000207
 967	9.6117e+01	1.5064	12.694773	0.000507	5.069256	1.717510	-0.000203
 968	9.6216e+01	1.4647	12.545399	0.000375	3.751249	1.270958	-0.000150
 969	9.6316e+01	1.4246	12.367765	0.000446	4.460945	1.511409	-0.000179
 970	9.6415e+01	1.3877	12.125537	0.000608	6.083107	2.061012	-0.000243
 971	9.6515e+01	1.3492	11.996349	0.000324	3.244324	1.099207	-0.000130
 972	9.6615e+01	1.3010	11.778344	0.000547	5.474796	1.854911	-0.000219
 973	9.6714e+01	1.2657	11.564375	0.000537	5.373411	1.820561	-0.000215
 974	9.6814e+01	1.2224	11.402890	0.000406	4.055405	1.374008	-0.000162
 975	9.6913e+01	1.1839	11.192959	0.000527	5.272026	1.786211	-0.000211
 976	9.7013e+01	1.1470	10.999176	0.000487	4.866486	1.648810	-0.000195
 977	9.7112e+01	1.1101	10.765022	0.000588	5.880337	1.992312	-0.000235
 978	9.7212e+01	1.0636	10.559129	0.000517	5.170641	1.751861	-0.000207
 979	9.7311e+01	1.0411	10.320938	0.000598	5.981722	2.026662	-0.000239
 980	9.7410e+01	1.0010	10.123118	0.000497	4.967871	1.683160	-0.000199
 981	9.7510e+01	0.9545	9.868778	0.000639	6.387262	2.164063	-0.000256
 982	9.7609e+01	0.9096	9.658847	0.000527	5.272026	1.786211	-0.000211
 983	9.7709e+01	0.8727	9.501399	0.000395	3.954020	1.339658	-0.000158
 984	9.7808e+01	0.8278	9.291468	0.000527	5.272026	1.786211	-0.000211
 985	9.7908e+01	0.7909	9.033091	0.000649	6.488648	2.198413	-0.000260
 986	9.8007e+01	0.7476	8.891791	0.000355	3.548479	1.202257	-0.000142
 987	9.8107e+01	0.7059	8.689935	0.000507	5.069256	1.717510	-0.000203
 988	9.8207e+01	0.6722	8.520375	0.000426	4.258175	1.442709	-0.000170
 989	9.8306e+01	0.6321	8.266035	0.000639	6.387262	2.164063	-0.000256
 990	9.8406e+01	0.5888	8.076290	0.000477	4.765101	1.614460	-0.000191
 991	9.8505e+01	0.5454	7.866359	0.000527	5.272026	1.786211	-0.000211
 992	9.8605e+01	0.5118	7.684688	0.000456	4.562330	1.545759	-0.000183
 993	9.8704e+01	0.4668	7.474757	0.000527	5.272026	1.786211	-0.000211
 994	9.8803e+01	0.4187	7.240603	0.000588	5.880337	1.992312	-0.000235
 995	9.8903e+01	0.3962	7.006449	0.000588	5.880337	1.992312	-0.000235
 996	9.9002e+01	0.3513	6.800555	0.000517	5.170641	1.751861	-0.000207
 997	9.9102e+01	0.3144	6.574476	0.000568	5.677567	1.923612	-0.000227
 998	9.9201e+01	0.2791	6.324173	0.000629	6.285877	2.129713	-0.000252
 999	9.9301e+01	0.2278	6.090019	0.000588	5.880337	1.992312	-0.000235
1000	9.9400e+01	0.1941	5.880088	0.000527	5.272026	1.786211	-0.000211
1001	9.9500e+01	0.1492	5.738788	0.000355	3.548479	1.202257	-0.000142
1002	9.9600e+01	0.1091	5.440040	0.000750	7.502499	2.541915	-0.000300
1003	9.9699e+01	0.0754	5.258369	0.000456	4.562330	1.545759	-0.000183
1004	9.9799e+01	0.0337	5.060550	0.000497	4.967871	1.683160	-0.000199
1005	9.9898e+01	-0.0080	4.927324	0.000335	3.345709	1.133557	-0.000134
1006	9.9998e+01	-0.0353	4.741616	0.000466	4.663715	1.580110	-0.000187
1007	1.0010e+02	-0.0722	4.495351	0.000618	6.184492	2.095363	-0.000248
1008	1.0020e+02	-0.1171	4.289457	0.000517	5.170641	1.751861	-0.000207
1009	1.0030e+02	-0.1620	4.095674	0.000487	4.866486	1.648810	-0.000195
1010	1.0040e+02	-0.2053	3.841335	0.000639	6.387262	2.164063	-0.000256
1011	1.0050e+02	-0.2454	3.639478	0.000507	5.069256	1.717510	-0.000203
1012	1.0059e+02	-0.2807	3.445695	0.000487	4.866486	1.648810	-0.000195
1013	1.0069e+02	-0.3241	3.219616	0.000568	5.677567	1.923612	-0.000227
1014	1.0079e+02	-0.3561	2.981425	0.000598	5.981722	2.026662	-0.000239
1015	1.0089e+02	-0.4075	2.731122	0.000629	6.285877	2.129713	-0.000252
1016	1.0099e+02	-0.4347	2.501006	0.000578	5.778952	1.957962	-0.000231
1017	1.0109e+02	-0.4749	2.287037	0.000537	5.373411	1.820561	-0.000215
1018	1.0119e+02	-0.5134	2.064995	0.000558	5.576181	1.889261	-0.000223
1019	1.0129e+02	-0.5551	1.887361	0.000446	4.460945	1.511409	-0.000179
1020	1.0139e+02	-0.6112	1.641096	0.000618	6.184492	2.095363	-0.000248
1021	1.0149e+02	-0.6385	1.459425	0.000456	4.562330	1.545759	-0.000183
1022	1.0159e+02	-0.6882	1.192974	0.000669	6.691418	2.267114	-0.000268
1023	1.0169e+02	-0.7219	1.051674	0.000355	3.548479	1.202257	-0.000142
1024	1.0179e+02	-0.7524	0.813483	0.000598	5.981722	2.026662	-0.000239
1025	1.0189e+02	-0.7925	0.551069	0.000659	6.590033	2.232764	-0.000264
1026	1.0199e+02	-0.8486	0.405732	0.000365	3.649864	1.236607	-0.000146
1027	1.0209e+02	-0.8727	0.135244	0.000679	6.792803	2.301464	-0.000272
1028	1.0219e+02	-0.9176	-0.054501	0.000477	4.765101	1.614460	-0.000191
1029	1.0229e+02	-0.9529	-0.320952	0.000669	6.691418	2.267114	-0.000268
1030	1.0239e+02	-0.9946	-0.526846	0.000517	5.170641	1.751861	-0.000207
1031	1.0248e+02	-1.0428	-0.752926	0.000568	5.677567	1.923612	-0.000227
1032	1.0258e+02	-1.0796	-0.995154	0.000608	6.083107	2.061012	-0.000243
1033	1.0268e+02	-1.1053	-1.241419	0.000618	6.184492	2.095363	-0.000248
1034	1.0278e+02	-1.1631	-1.451350	0.000527	5.272026	1.786211	-0.000211
1035	1.0288e+02	-1.1952	-1.641096	0.000477	4.765101	1.614460	-0.000191
1036	1.0298e+02	-1.2385	-1.842952	0.000507	5.069256	1.717510	-0.000203
1037	1.0308e+02	-1.2738	-2.089218	0.000618	6.184492	2.095363	-0.000248
1038	1.0318e+02	-1.3123	-2.363743	0.000689	6.894188	2.335814	-0.000276
1039	1.0328e+02	-1.3460	-2.533303	0.000426	4.258175	1.442709	-0.000170
1040	1.0338e+02	-1.3957	-2.743234	0.000527	5.272026	1.786211	-0.000211
1041	1.0348e+02	-1.4310	-2.932979	0.000477	4.765101	1.614460	-0.000191
1042	1.0358e+02	-1.4743	-3.146947	0.000537	5.373411	1.820561	-0.000215
1043	1.0368e+02	-1.5160	-3.348804	0.000507	5.069256	1.717510	-0.000203
1044	1.0378e+02	-1.5513	-3.623329	0.000689	6.894188	2.335814	-0.000276
1045	1.0388e+02	-1.5882	-3.792889	0.000426	4.258175	1.442709	-0.000170
1046	1.0398e+02	-1.6411	-4.067414	0.000689	6.894188	2.335814	-0.000276
1047	1.0408e+02	-1.6748	-4.245048	0.000446	4.460945	1.511409	-0.000179
1048	1.0418e+02	-1.7165	-4.459016	0.000537	5.373411	1.820561	-0.000215
1049	1.0428e+02	-1.7502	-4.701245	0.000608	6.083107	2.061012	-0.000243
1050	1.0438e+02	-1.7951	-4.951547	0.000629	6.285877	2.129713	-0.000252
1051	1.0447e+02	-1.8336	-5.177627	0.000568	5.677567	1.923612	-0.000227
1052	1.0457e+02	-1.8753	-5.375446	0.000497	4.967871	1.683160	-0.000199
1053	1.0467e+02	-1.9074	-5.605563	0.000578	5.778952	1.957962	-0.000231
1054	1.0477e+02	-1.9459	-5.775123	0.000426	4.258175	1.442709	-0.000170
1055	1.0487e+02	-1.9876	-6.025425	0.000629	6.285877	2.129713	-0.000252
1056	1.0497e+02	-2.0278	-6.263616	0.000598	5.981722	2.026662	-0.000239
1057	1.0507e+02	-2.0743	-6.461436	0.000497	4.967871	1.683160	-0.000199
1058	1.0517e+02	-2.1048	-6.663293	0.000507	5.069256	1.717510	-0.000203
1059	1.0527e+02	-2.1417	-6.808629	0.000365	3.649864	1.236607	-0.000146
1060	1.0537e+02	-2.1914	-7.099303	0.000730	7.299728	2.473215	-0.000292
1061	1.0547e+02	-2.2347	-7.272900	0.000436	4.359560	1.477059	-0.000174
1062	1.0557e+02	-2.2716	-7.470720	0.000497	4.967871	1.683160	-0.000199
1063	1.0567e+02	-2.3117	-7.696799	0.000568	5.677567	1.923612	-0.000227
1064	1.0577e+02	-2.3614	-7.898656	0.000507	5.069256	1.717510	-0.000203
1065	1.0587e+02	-2.3807	-8.108587	0.000527	5.272026	1.786211	-0.000211
1066	1.0597e+02	-2.4336	-8.342741	0.000588	5.880337	1.992312	-0.000235
1067	1.0607e+02	-2.4609	-8.584969	0.000608	6.083107	2.061012	-0.000243
1068	1.0617e+02	-2.5106	-8.839309	0.000639	6.387262	2.164063	-0.000256
1069	1.0627e+02	-2.5475	-9.016943	0.000446	4.460945	1.511409	-0.000179
1070	1.0637e+02	-2.5924	-9.210725	0.000487	4.866486	1.648810	-0.000195
1071	1.0647e+02	-2.6374	-9.440842	0.000578	5.778952	1.957962	-0.000231
1072	1.0656e+02	-2.6598	-9.662884	0.000558	5.576181	1.889261	-0.000223
1073	1.0666e+02	-2.7047	-9.868778	0.000517	5.170641	1.751861	-0.000207
1074	1.0676e+02	-2.7577	-10.046412	0.000446	4.460945	1.511409	-0.000179
1075	1.0686e+02	-2.7882	-10.252306	0.000517	5.170641	1.751861	-0.000207
1076	1.0696e+02	-2.8267	-10.454163	0.000507	5.069256	1.717510	-0.000203
1077	1.0706e+02	-2.8620	-10.631797	0.000446	4.460945	1.511409	-0.000179
1078	1.0716e+02	-2.9117	-10.825579	0.000487	4.866486	1.648810	-0.000195
1079	1.0726e+02	-2.9454	-11.019362	0.000487	4.866486	1.648810	-0.000195
1080	1.0736e+02	-2.9855	-11.196996	0.000446	4.460945	1.511409	-0.000179
1081	1.0746e+02	-3.0304	-11.435187	0.000598	5.981722	2.026662	-0.000239
1082	1.0756e+02	-3.0689	-11.612821	0.000446	4.460945	1.511409	-0.000179
1083	1.0766e+02	-3.1042	-11.818715	0.000517	5.170641	1.751861	-0.000207
1084	1.0776e+02	-3.1427	-12.052869	0.000588	5.880337	1.992312	-0.000235
1085	1.0786e+02	-3.1892	-12.299134	0.000618	6.184492	2.095363	-0.000248
1086	1.0796e+02	-3.2277	-12.509065	0.000527	5.272026	1.786211	-0.000211
1087	1.0806e+02	-3.2614	-12.682662	0.000436	4.359560	1.477059	-0.000174
1088	1.0816e+02	-3.3031	-12.868370	0.000466	4.663715	1.580110	-0.000187
1089	1.0826e+02	-3.3448	-13.062153	0.000487	4.866486	1.648810	-0.000195
1090	1.0836e+02	-3.3849	-13.296307	0.000588	5.880337	1.992312	-0.000235
1091	1.0845e+02	-3.4298	-13.469903	0.000436	4.359560	1.477059	-0.000174
1092	1.0855e+02	-3.4732	-13.691946	0.000558	5.576181	1.889261	-0.000223
1093	1.0865e+02	-3.4924	-13.885728	0.000487	4.866486	1.648810	-0.000195
1094	1.0875e+02	-3.5454	-14.059325	0.000436	4.359560	1.477059	-0.000174
1095	1.0885e+02	-3.5903	-14.228885	0.000426	4.258175	1.442709	-0.000170
1096	1.0895e+02	-3.6240	-14.398445	0.000426	4.258175	1.442709	-0.000170
1097	1.0905e+02	-3.6641	-14.592227	0.000487	4.866486	1.648810	-0.000195
1098	1.0915e+02	-3.7058	-14.794084	0.000507	5.069256	1.717510	-0.000203
1099	1.0925e+02	-3.7555	-14.979792	0.000466	4.663715	1.580110	-0.000187
1100	1.0935e+02	-3.7828	-15.137240	0.000395	3.954020	1.339658	-0.000158
1101	1.0945e+02	-3.8277	-15.379469	0.000608	6.083107	2.061012	-0.000243
1102	1.0955e+02	-3.8550	-15.585363	0.000517	5.170641	1.751861	-0.000207
1103	1.0965e+02	-3.9063	-15.795294	0.000527	5.272026	1.786211	-0.000211
1104	1.0975e+02	-3.9432	-15.997150	0.000507	5.069256	1.717510	-0.000203
1105	1.0985e+02	-3.9801	-16.178821	0.000456	4.562330	1.545759	-0.000183
1106	1.0995e+02	-4.0218	-16.324158	0.000365	3.649864	1.236607	-0.000146
1107	1.1005e+02	-4.0635	-16.574461	0.000629	6.285877	2.129713	-0.000252
1108	1.1015e+02	-4.1020	-16.748058	0.000436	4.359560	1.477059	-0.000174
1109	1.1025e+02	-4.1502	-16.893394	0.000365	3.649864	1.236607	-0.000146
1110	1.1035e+02	-4.1838	-17.095251	0.000507	5.069256	1.717510	-0.000203
1111	1.1044e+02	-4.2175	-17.252700	0.000395	3.954020	1.339658	-0.000158
1112	1.1054e+02	-4.2657	-17.454556	0.000507	5.069256	1.717510	-0.000203
1113	1.1064e+02	-4.3074	-17.632190	0.000446	4.460945	1.511409	-0.000179
1114	1.1074e+02	-4.3427	-17.793676	0.000406	4.055405	1.374008	-0.000162
1115	1.1084e+02	-4.3731	-17.939013	0.000365	3.649864	1.236607	-0.000146
1116	1.1094e+02	-4.4229	-18.148944	0.000527	5.272026	1.786211	-0.000211
1117	1.1104e+02	-4.4646	-18.314466	0.000416	4.156790	1.408359	-0.000166
1118	1.1114e+02	-4.5015	-18.512286	0.000497	4.967871	1.683160	-0.000199
1119	1.1124e+02	-4.5352	-18.714143	0.000507	5.069256	1.717510	-0.000203
1120	1.1134e+02	-4.5817	-18.859480	0.000365	3.649864	1.236607	-0.000146
1121	1.1144e+02	-4.6266	-19.089596	0.000578	5.778952	1.957962	-0.000231
1122	1.1154e+02	-4.6763	-19.263193	0.000436	4.359560	1.477059	-0.000174
1123	1.1164e+02	-4.7004	-19.432753	0.000426	4.258175	1.442709	-0.000170
1124	1.1174e+02	-4.7325	-19.654795	0.000558	5.576181	1.889261	-0.000223
1125	1.1184e+02	-4.7774	-19.808206	0.000385	3.852634	1.305308	-0.000154
1126	1.1194e+02	-4.8255	-19.997952	0.000477	4.765101	1.614460	-0.000191
1127	1.1204e+02	-4.8640	-20.151363	0.000385	3.852634	1.305308	-0.000154
1128	1.1214e+02	-4.9009	-20.320923	0.000426	4.258175	1.442709	-0.000170
1129	1.1224e+02	-4.9491	-20.470297	0.000375	3.751249	1.270958	-0.000150
1130	1.1234e+02	-4.9795	-20.700413	0.000578	5.778952	1.957962	-0.000231
1131	1.1244e+02	-5.0212	-20.845750	0.000365	3.649864	1.236607	-0.000146
1132	1.1253e+02	-5.0678	-20.978976	0.000335	3.345709	1.133557	-0.000134
1133	1.1263e+02	-5.1031	-21.136424	0.000395	3.954020	1.339658	-0.000158
1134	1.1273e+02	-5.1287	-21.326170	0.000477	4.765101	1.614460	-0.000191
1135	1.1283e+02	-5.1769	-21.560323	0.000588	5.880337	1.992312	-0.000235
1136	1.1293e+02	-5.2218	-21.733920	0.000436	4.359560	1.477059	-0.000174
1137	1.1303e+02	-5.2587	-21.863109	0.000324	3.244324	1.099207	-0.000130
1138	1.1313e+02	-5.3004	-22.044780	0.000456	4.562330	1.545759	-0.000183
1139	1.1323e+02	-5.3389	-22.226451	0.000456	4.562330	1.545759	-0.000183
1140	1.1333e+02	-5.3806	-22.363713	0.000345	3.447094	1.167907	-0.000138
1141	1.1343e+02	-5.4239	-22.565570	0.000507	5.069256	1.717510	-0.000203
1142	1.1353e+02	-5.4656	-22.763390	0.000497	4.967871	1.683160	-0.000199
1143	1.1363e+02	-5.4977	-22.884504	0.000304	3.041554	1.030506	-0.000122
1144	1.1373e+02	-5.5346	-23.054064	0.000426	4.258175	1.442709	-0.000170
1145	1.1383e+02	-5.5795	-23.215549	0.000406	4.055405	1.374008	-0.000162
1146	1.1393e+02	-5.6196	-23.409332	0.000487	4.866486	1.648810	-0.000195
1147	1.1403e+02	-5.6549	-23.578891	0.000426	4.258175	1.442709	-0.000170
1148	1.1413e+02	-5.7079	-23.712117	0.000335	3.345709	1.133557	-0.000134
1149	1.1423e+02	-5.7383	-23.930122	0.000547	5.474796	1.854911	-0.000219
1150	1.1433e+02	-5.7801	-24.014902	0.000213	2.129087	0.721354	-0.000085
1151	1.1442e+02	-5.8089	-24.172350	0.000395	3.954020	1.339658	-0.000158
1152	1.1452e+02	-5.8619	-24.370170	0.000497	4.967871	1.683160	-0.000199
1153	1.1462e+02	-5.8940	-24.576064	0.000517	5.170641	1.751861	-0.000207
1154	1.1472e+02	-5.9357	-24.713326	0.000345	3.447094	1.167907	-0.000138
1155	1.1482e+02	-5.9886	-24.866738	0.000385	3.852634	1.305308	-0.000154
1156	1.1492e+02	-6.0223	-25.060520	0.000487	4.866486	1.648810	-0.000195
1157	1.1502e+02	-6.0624	-25.193746	0.000335	3.345709	1.133557	-0.000134
1158	1.1512e+02	-6.1009	-25.387528	0.000487	4.866486	1.648810	-0.000195
1159	1.1522e+02	-6.1410	-25.524791	0.000345	3.447094	1.167907	-0.000138
1160	1.1532e+02	-6.1747	-25.686276	0.000406	4.055405	1.374008	-0.000162
1161	1.1542e+02	-6.2132	-25.871984	0.000466	4.663715	1.580110	-0.000187
1162	1.1552e+02	-6.2565	-26.037507	0.000416	4.156790	1.408359	-0.000166
1163	1.1562e+02	-6.3062	-26.203030	0.000416	4.156790	1.408359	-0.000166
1164	1.1572e+02	-6.3399	-26.344329	0.000355	3.548479	1.202257	-0.000142
1165	1.1582e+02	-6.3752	-26.526000	0.000456	4.562330	1.545759	-0.000183
1166	1.1592e+02	-6.4185	-26.687486	0.000406	4.055405	1.374008	-0.000162
1167	1.1602e+02	-6.4554	-26.824748	0.000345	3.447094	1.167907	-0.000138
1168	1.1612e+02	-6.4923	-26.945862	0.000304	3.041554	1.030506	-0.000122
1169	1.1622e+02	-6.5372	-27.099274	0.000385	3.852634	1.305308	-0.000154
1170	1.1632e+02	-6.5645	-27.248648	0.000375	3.751249	1.270958	-0.000150
1171	1.1642e+02	-6.6159	-27.426282	0.000446	4.460945	1.511409	-0.000179
1172	1.1651e+02	-6.6463	-27.628138	0.000507	5.069256	1.717510	-0.000203
1173	1.1661e+02	-6.6929	-27.777512	0.000375	3.751249	1.270958	-0.000150
1174	1.1671e+02	-6.7282	-27.910738	0.000335	3.345709	1.133557	-0.000134
1175	1.1681e+02	-6.7699	-28.088372	0.000446	4.460945	1.511409	-0.000179
1176	1.1691e+02	-6.8196	-28.225635	0.000345	3.447094	1.167907	-0.000138
1177	1.1701e+02	-6.8469	-28.387120	0.000406	4.055405	1.374008	-0.000162
1178	1.1711e+02	-6.8998	-28.520345	0.000335	3.345709	1.133557	-0.000134
1179	1.1721e+02	-6.9319	-28.722202	0.000507	5.069256	1.717510	-0.000203
1180	1.1731e+02	-6.9720	-28.879651	0.000395	3.954020	1.339658	-0.000158
1181	1.1741e+02	-7.0153	-28.992690	0.000284	2.838783	0.961806	-0.000114
1182	1.1751e+02	-7.0570	-29.174361	0.000456	4.562330	1.545759	-0.000183
1183	1.1761e+02	-7.0939	-29.335847	0.000406	4.055405	1.374008	-0.000162
1184	1.1771e+02	-7.1324	-29.456961	0.000304	3.041554	1.030506	-0.000122
1185	1.1781e+02	-7.1709	-29.630558	0.000436	4.359560	1.477059	-0.000174
1186	1.1791e+02	-7.2110	-29.767820	0.000345	3.447094	1.167907	-0.000138
1187	1.1801e+02	-7.2495	-29.917194	0.000375	3.751249	1.270958	-0.000150
1188	1.1811e+02	-7.2961	-30.098865	0.000456	4.562330	1.545759	-0.000183
1189	1.1821e+02	-7.3169	-30.228054	0.000324	3.244324	1.099207	-0.000130
1190	1.1831e+02	-7.3586	-30.397614	0.000426	4.258175	1.442709	-0.000170
1191	1.1841e+02	-7.4228	-30.595433	0.000497	4.967871	1.683160	-0.000199
1192	1.1850e+02	-7.4501	-30.744807	0.000375	3.751249	1.270958	-0.000150
1193	1.1860e+02	-7.4950	-30.890144	0.000365	3.649864	1.236607	-0.000146
1194	1.1870e+02	-7.5287	-31.047592	0.000395	3.954020	1.339658	-0.000158
1195	1.1880e+02	-7.5656	-31.209078	0.000406	4.055405	1.374008	-0.000162
1196	1.1890e+02	-7.6057	-31.334229	0.000314	3.142939	1.064856	-0.000126
1197	1.1900e+02	-7.6426	-31.503789	0.000426	4.258175	1.442709	-0.000170
1198	1.1910e+02	-7.6859	-31.641051	0.000345	3.447094	1.167907	-0.000138
1199	1.1920e+02	-7.7244	-31.806574	0.000416	4.156790	1.408359	-0.000166
1200	1.1930e+02	-7.7693	-31.980171	0.000436	4.359560	1.477059	-0.000174
1201	1.1940e+02	-7.8126	-32.089173	0.000274	2.737398	0.927456	-0.000110
1202	1.1950e+02	-7.8527	-32.258733	0.000426	4.258175	1.442709	-0.000170
1203	1.1960e+02	-7.8912	-32.359662	0.000253	2.534628	0.858755	-0.000101
1204	1.1970e+02	-7.9345	-32.525184	0.000416	4.156790	1.408359	-0.000166
1205	1.1980e+02	-7.9746	-32.674558	0.000375	3.751249	1.270958	-0.000150
1206	1.1990e+02	-7.9955	-32.807784	0.000335	3.345709	1.133557	-0.000134
1207	1.2000e+02	-8.0516	-33.025789	0.000547	5.474796	1.854911	-0.000219
1208	1.2010e+02	-8.0805	-33.179200	0.000385	3.852634	1.305308	-0.000154
1209	1.2020e+02	-8.1254	-33.276091	0.000243	2.433243	0.824405	-0.000097
1210	1.2030e+02	-8.1639	-33.486022	0.000527	5.272026	1.786211	-0.000211
1211	1.2039e+02	-8.2057	-33.607136	0.000304	3.041554	1.030506	-0.000122
1212	1.2049e+02	-8.2506	-33.756510	0.000375	3.751249	1.270958	-0.000150
1213	1.2059e+02	-8.2859	-33.909922	0.000385	3.852634	1.305308	-0.000154
1214	1.2069e+02	-8.3340	-34.026999	0.000294	2.940168	0.996156	-0.000118
1215	1.2079e+02	-8.3741	-34.164261	0.000345	3.447094	1.167907	-0.000138
1216	1.2089e+02	-8.4014	-34.374192	0.000527	5.272026	1.786211	-0.000211
1217	1.2099e+02	-8.4495	-34.463009	0.000223	2.230473	0.755705	-0.000089
1218	1.2109e+02	-8.4816	-34.644680	0.000456	4.562330	1.545759	-0.000183
1219	1.2119e+02	-8.5169	-34.785980	0.000355	3.548479	1.202257	-0.000142
1220	1.2129e+02	-8.5682	-34.959577	0.000436	4.359560	1.477059	-0.000174
1221	1.2139e+02	-8.6019	-35.072617	0.000284	2.838783	0.961806	-0.000114
1222	1.2149e+02	-8.6420	-35.234102	0.000406	4.055405	1.374008	-0.000162
1223	1.2159e+02	-8.6821	-35.326956	0.000233	2.331858	0.790055	-0.000093
1224	1.2169e+02	-8.7222	-35.557073	0.000578	5.778952	1.957962	-0.000231
1225	1.2179e+02	-8.7607	-35.678187	0.000304	3.041554	1.030506	-0.000122
1226	1.2189e+02	-8.8088	-35.811413	0.000335	3.345709	1.133557	-0.000134
1227	1.2199e+02	-8.8441	-35.976935	0.000416	4.156790	1.408359	-0.000166
1228	1.2209e+02	-8.8923	-36.142458	0.000416	4.156790	1.408359	-0.000166
1229	1.2219e+02	-8.9163	-36.267609	0.000314	3.142939	1.064856	-0.000126
1230	1.2229e+02	-8.9580	-36.445243	0.000446	4.460945	1.511409	-0.000179
1231	1.2239e+02	-8.9965	-36.546171	0.000253	2.534628	0.858755	-0.000101
1232	1.2248e+02	-9.0415	-36.695545	0.000375	3.751249	1.270958	-0.000150
1233	1.2258e+02	-9.0960	-36.857031	0.000406	4.055405	1.374008	-0.000162
1234	1.2268e+02	-9.1233	-37.006405	0.000375	3.751249	1.270958	-0.000150
1235	1.2278e+02	-9.1634	-37.143667	0.000345	3.447094	1.167907	-0.000138
1236	1.2288e+02	-9.2083	-37.284967	0.000355	3.548479	1.202257	-0.000142
1237	1.2298e+02	-9.2420	-37.434341	0.000375	3.751249	1.270958	-0.000150
1238	1.2308e+02	-9.2853	-37.583715	0.000375	3.751249	1.270958	-0.000150
1239	1.2318e+02	-9.3222	-37.720978	0.000345	3.447094	1.167907	-0.000138
1240	1.2328e+02	-9.3543	-37.821906	0.000253	2.534628	0.858755	-0.000101
1241	1.2338e+02	-9.3896	-37.979354	0.000395	3.954020	1.339658	-0.000158
1242	1.2348e+02	-9.4361	-38.144877	0.000416	4.156790	1.408359	-0.000166
1243	1.2358e+02	-9.4762	-38.253880	0.000274	2.737398	0.927456	-0.000110
1244	1.2368e+02	-9.5243	-38.439588	0.000466	4.663715	1.580110	-0.000187
1245	1.2378e+02	-9.5612	-38.576851	0.000345	3.447094	1.167907	-0.000138
1246	1.2388e+02	-9.6029	-38.742373	0.000416	4.156790	1.408359	-0.000166
1247	1.2398e+02	-9.6463	-38.843302	0.000253	2.534628	0.858755	-0.000101
1248	1.2408e+02	-9.6815	-39.000750	0.000395	3.954020	1.339658	-0.000158
1249	1.2418e+02	-9.7217	-39.125901	0.000314	3.142939	1.064856	-0.000126
1250	1.2428e+02	-9.7553	-39.275275	0.000375	3.751249	1.270958	-0.000150
1251	1.2438e+02	-9.8099	-39.404463	0.000324	3.244324	1.099207	-0.000130
1252	1.2447e+02	-9.8436	-39.541726	0.000345	3.447094	1.167907	-0.000138
1253	1.2457e+02	-9.8853	-39.691100	0.000375	3.751249	1.270958	-0.000150
1254	1.2467e+02	-9.9190	-39.820288	0.000324	3.244324	1.099207	-0.000130
1255	1.2477e+02	-9.9607	-39.933328	0.000284	2.838783	0.961806	-0.000114
1256	1.2487e+02	-9.9992	-40.094814	0.000406	4.055405	1.374008	-0.000162
1257	1.2497e+02	-10.0329	-40.219965	0.000314	3.142939	1.064856	-0.000126
1258	1.2507e+02	-10.0762	-40.341079	0.000304	3.041554	1.030506	-0.000122
1259	1.2517e+02	-10.1163	-40.510639	0.000426	4.258175	1.442709	-0.000170
1260	1.2527e+02	-10.1644	-40.643864	0.000335	3.345709	1.133557	-0.000134
1261	1.2537e+02	-10.1981	-40.764978	0.000304	3.041554	1.030506	-0.000122
1262	1.2547e+02	-10.2318	-40.970872	0.000517	5.170641	1.751861	-0.000207
1263	1.2557e+02	-10.2783	-41.083912	0.000284	2.838783	0.961806	-0.000114
1264	1.2567e+02	-10.3152	-41.257509	0.000436	4.359560	1.477059	-0.000174
1265	1.2577e+02	-10.3617	-41.366511	0.000274	2.737398	0.927456	-0.000110
1266	1.2587e+02	-10.3970	-41.479551	0.000284	2.838783	0.961806	-0.000114
1267	1.2597e+02	-10.4355	-41.616814	0.000345	3.447094	1.167907	-0.000138
1268	1.2607e+02	-10.4837	-41.766188	0.000375	3.751249	1.270958	-0.000150
1269	1.2617e+02	-10.5141	-41.911525	0.000365	3.649864	1.236607	-0.000146
1270	1.2627e+02	-10.5703	-42.036676	0.000314	3.142939	1.064856	-0.000126
1271	1.2636e+02	-10.6008	-42.145679	0.000274	2.737398	0.927456	-0.000110
1272	1.2646e+02	-10.6329	-42.299090	0.000385	3.852634	1.305308	-0.000154
1273	1.2656e+02	-10.6714	-42.420204	0.000304	3.041554	1.030506	-0.000122
1274	1.2666e+02	-10.7179	-42.589763	0.000426	4.258175	1.442709	-0.000170
1275	1.2676e+02	-10.7516	-42.682618	0.000233	2.331858	0.790055	-0.000093
1276	1.2686e+02	-10.7997	-42.856214	0.000436	4.359560	1.477059	-0.000174
1277	1.2696e+02	-10.8286	-42.973291	0.000294	2.940168	0.996156	-0.000118
1278	1.2706e+02	-10.8799	-43.102480	0.000324	3.244324	1.099207	-0.000130
1279	1.2716e+02	-10.9200	-43.211482	0.000274	2.737398	0.927456	-0.000110
1280	1.2726e+02	-10.9601	-43.352782	0.000355	3.548479	1.202257	-0.000142
1281	1.2736e+02	-10.9922	-43.498119	0.000365	3.649864	1.236607	-0.000146
1282	1.2746e+02	-11.0291	-43.643456	0.000365	3.649864	1.236607	-0.000146
1283	1.2756e+02	-11.0660	-43.760533	0.000294	2.940168	0.996156	-0.000118
1284	1.2766e+02	-11.1173	-43.897795	0.000345	3.447094	1.167907	-0.000138
1285	1.2776e+02	-11.1623	-44.039095	0.000355	3.548479	1.202257	-0.000142
1286	1.2786e+02	-11.1991	-44.156172	0.000294	2.940168	0.996156	-0.000118
1287	1.2796e+02	-11.2296	-44.244989	0.000223	2.230473	0.755705	-0.000089
1288	1.2806e+02	-11.2745	-44.438772	0.000487	4.866486	1.648810	-0.000195
1289	1.2816e+02	-11.3243	-44.531626	0.000233	2.331858	0.790055	-0.000093
1290	1.2826e+02	-11.3612	-44.660814	0.000324	3.244324	1.099207	-0.000130
1291	1.2835e+02	-11.3852	-44.810188	0.000375	3.751249	1.270958	-0.000150
1292	1.2845e+02	-11.4286	-44.963599	0.000385	3.852634	1.305308	-0.000154
1293	1.2855e+02	-11.4783	-45.108936	0.000365	3.649864	1.236607	-0.000146
1294	1.2865e+02	-11.5056	-45.193716	0.000213	2.129087	0.721354	-0.000085
1295	1.2875e+02	-11.5537	-45.330979	0.000345	3.447094	1.167907	-0.000138
1296	1.2885e+02	-11.5890	-45.456130	0.000314	3.142939	1.064856	-0.000126
1297	1.2895e+02	-11.6403	-45.605504	0.000375	3.751249	1.270958	-0.000150
1298	1.2905e+02	-11.6692	-45.702395	0.000243	2.433243	0.824405	-0.000097
1299	1.2915e+02	-11.7141	-45.843695	0.000355	3.548479	1.202257	-0.000142
1300	1.2925e+02	-11.7574	-45.936549	0.000233	2.331858	0.790055	-0.000093
1301	1.2935e+02	-11.7863	-46.089960	0.000385	3.852634	1.305308	-0.000154
1302	1.2945e+02	-11.8360	-46.170703	0.000203	2.027702	0.687004	-0.000081
1303	1.2955e+02	-11.8745	-46.316040	0.000365	3.649864	1.236607	-0.000146
1304	1.2965e+02	-11.9066	-46.445228	0.000324	3.244324	1.099207	-0.000130
1305	1.2975e+02	-11.9612	-46.590565	0.000365	3.649864	1.236607	-0.000146
1306	1.2985e+02	-11.9965	-46.679382	0.000223	2.230473	0.755705	-0.000089
1307	1.2995e+02	-12.0398	-46.873164	0.000487	4.866486	1.648810	-0.000195
1308	1.3005e+02	-12.0719	-47.002353	0.000324	3.244324	1.099207	-0.000130
1309	1.3015e+02	-12.1055	-47.139615	0.000345	3.447094	1.167907	-0.000138
1310	1.3025e+02	-12.1537	-47.293027	0.000385	3.852634	1.305308	-0.000154
1311	1.3034e+02	-12.1970	-47.397992	0.000264	2.636013	0.893105	-0.000105
1312	1.3044e+02	-12.2275	-47.478735	0.000203	2.027702	0.687004	-0.000081
1313	1.3054e+02	-12.2660	-47.583700	0.000264	2.636013	0.893105	-0.000105
1314	1.3064e+02	-12.3109	-47.725000	0.000355	3.548479	1.202257	-0.000142
1315	1.3074e+02	-12.3510	-47.834003	0.000274	2.737398	0.927456	-0.000110
1316	1.3084e+02	-12.3927	-47.963191	0.000324	3.244324	1.099207	-0.000130
1317	1.3094e+02	-12.4344	-48.088342	0.000314	3.142939	1.064856	-0.000126
1318	1.3104e+02	-12.4697	-48.217531	0.000324	3.244324	1.099207	-0.000130
1319	1.3114e+02	-12.5066	-48.338645	0.000304	3.041554	1.030506	-0.000122
1320	1.3124e+02	-12.5531	-48.455722	0.000294	2.940168	0.996156	-0.000118
1321	1.3134e+02	-12.5932	-48.568761	0.000284	2.838783	0.961806	-0.000114
1322	1.3144e+02	-12.6365	-48.746395	0.000446	4.460945	1.511409	-0.000179
1323	1.3154e+02	-12.6654	-48.883658	0.000345	3.447094	1.167907	-0.000138
1324	1.3164e+02	-12.7119	-49.000735	0.000294	2.940168	0.996156	-0.000118
1325	1.3174e+02	-12.7392	-49.133960	0.000335	3.345709	1.133557	-0.000134
1326	1.3184e+02	-12.7857	-49.267186	0.000335	3.345709	1.133557	-0.000134
1327	1.3194e+02	-12.8210	-49.420597	0.000385	3.852634	1.305308	-0.000154
1328	1.3204e+02	-12.8611	-49.533637	0.000284	2.838783	0.961806	-0.000114
1329	1.3214e+02	-12.8980	-49.602268	0.000172	1.723547	0.583954	-0.000069
1330	1.3224e+02	-12.9510	-49.731457	0.000324	3.244324	1.099207	-0.000130
1331	1.3234e+02	-12.9815	-49.824311	0.000233	2.331858	0.790055	-0.000093
1332	1.3243e+02	-13.0280	-49.953499	0.000324	3.244324	1.099207	-0.000130
1333	1.3253e+02	-13.0601	-50.038279	0.000213	2.129087	0.721354	-0.000085
1334	1.3263e+02	-13.1098	-50.179579	0.000355	3.548479	1.202257	-0.000142
1335	1.3273e+02	-13.1419	-50.300693	0.000304	3.041554	1.030506	-0.000122
1336	1.3283e+02	-13.1836	-50.425844	0.000314	3.142939	1.064856	-0.000126
1337	1.3293e+02	-13.2221	-50.555032	0.000324	3.244324	1.099207	-0.000130
1338	1.3303e+02	-13.2606	-50.680183	0.000314	3.142939	1.064856	-0.000126
1339	1.3313e+02	-13.3071	-50.833595	0.000385	3.852634	1.305308	-0.000154
1340	1.3323e+02	-13.3472	-50.966820	0.000335	3.345709	1.133557	-0.000134
1341	1.3333e+02	-13.3873	-51.091971	0.000314	3.142939	1.064856	-0.000126
1342	1.3343e+02	-13.4242	-51.205011	0.000284	2.838783	0.961806	-0.000114
1343	1.3353e+02	-13.4531	-51.314014	0.000274	2.737398	0.927456	-0.000110
1344	1.3363e+02	-13.5044	-51.471462	0.000395	3.954020	1.339658	-0.000158
1345	1.3373e+02	-13.5477	-51.604688	0.000335	3.345709	1.133557	-0.000134
1346	1.3383e+02	-13.5879	-51.693505	0.000223	2.230473	0.755705	-0.000089
1347	1.3393e+02	-13.6183	-51.774247	0.000203	2.027702	0.687004	-0.000081
1348	1.3403e+02	-13.6713	-51.875176	0.000253	2.534628	0.858755	-0.000101
1349	1.3413e+02	-13.7146	-51.992253	0.000294	2.940168	0.996156	-0.000118
1350	1.3423e+02	-13.7419	-52.125478	0.000335	3.345709	1.133557	-0.000134
1351	1.3432e+02	-13.7820	-52.262741	0.000345	3.447094	1.167907	-0.000138
1352	1.3442e+02	-13.8285	-52.408078	0.000365	3.649864	1.236607	-0.000146
1353	1.3452e+02	-13.8654	-52.468635	0.000152	1.520777	0.515253	-0.000061
1354	1.3462e+02	-13.9119	-52.642231	0.000436	4.359560	1.477059	-0.000174
1355	1.3472e+02	-13.9328	-52.779494	0.000345	3.447094	1.167907	-0.000138
1356	1.3482e+02	-13.9857	-52.916757	0.000345	3.447094	1.167907	-0.000138
1357	1.3492e+02	-14.0290	-53.029796	0.000284	2.838783	0.961806	-0.000114
1358	1.3502e+02	-14.0643	-53.158985	0.000324	3.244324	1.099207	-0.000130
1359	1.3512e+02	-14.0948	-53.292210	0.000335	3.345709	1.133557	-0.000134
1360	1.3522e+02	-14.1429	-53.433510	0.000355	3.548479	1.202257	-0.000142
1361	1.3532e+02	-14.1798	-53.566736	0.000335	3.345709	1.133557	-0.000134
1362	1.3542e+02	-14.2183	-53.671701	0.000264	2.636013	0.893105	-0.000105
1363	1.3552e+02	-14.2664	-53.780704	0.000274	2.737398	0.927456	-0.000110
1364	1.3562e+02	-14.2969	-53.849335	0.000172	1.723547	0.583954	-0.000069
1365	1.3572e+02	-14.3450	-53.958338	0.000274	2.737398	0.927456	-0.000110
1366	1.3582e+02	-14.3836	-54.103675	0.000365	3.649864	1.236607	-0.000146
1367	1.3592e+02	-14.4237	-54.228826	0.000314	3.142939	1.064856	-0.000126
1368	1.3602e+02	-14.4654	-54.398386	0.000426	4.258175	1.442709	-0.000170
1369	1.3612e+02	-14.5023	-54.511425	0.000284	2.838783	0.961806	-0.000114
1370	1.3622e+02	-14.5408	-54.612354	0.000253	2.534628	0.858755	-0.000101
1371	1.3631e+02	-14.5825	-54.769802	0.000395	3.954020	1.339658	-0.000158
1372	1.3641e+02	-14.6146	-54.882842	0.000284	2.838783	0.961806	-0.000114
1373	1.3651e+02	-14.6531	-54.987807	0.000264	2.636013	0.893105	-0.000105
1374	1.3661e+02	-14.6964	-55.116996	0.000324	3.244324	1.099207	-0.000130
1375	1.3671e+02	-14.7349	-55.213887	0.000243	2.433243	0.824405	-0.000097
1376	1.3681e+02	-14.7782	-55.375372	0.000406	4.055405	1.374008	-0.000162
1377	1.3691e+02	-14.8183	-55.492449	0.000294	2.940168	0.996156	-0.000118
1378	1.3701e+02	-14.8600	-55.641823	0.000375	3.751249	1.270958	-0.000150
1379	1.3711e+02	-14.9017	-55.762937	0.000304	3.041554	1.030506	-0.000122
1380	1.3721e+02	-14.9386	-55.900200	0.000345	3.447094	1.167907	-0.000138
1381	1.3731e+02	-14.9771	-55.956720	0.000142	1.419392	0.480903	-0.000057
1382	1.3741e+02	-15.0188	-56.089945	0.000335	3.345709	1.133557	-0.000134
1383	1.3751e+02	-15.0621	-56.162614	0.000182	1.824932	0.618304	-0.000073
1384	1.3761e+02	-15.1022	-56.380619	0.000547	5.474796	1.854911	-0.000219
1385	1.3771e+02	-15.1391	-56.485585	0.000264	2.636013	0.893105	-0.000105
1386	1.3781e+02	-15.1696	-56.626884	0.000355	3.548479	1.202257	-0.000142
1387	1.3791e+02	-15.2194	-56.723776	0.000243	2.433243	0.824405	-0.000097
1388	1.3801e+02	-15.2482	-56.889298	0.000416	4.156790	1.408359	-0.000166
1389	1.3811e+02	-15.2980	-56.961967	0.000182	1.824932	0.618304	-0.000073
1390	1.3821e+02	-15.3397	-57.107304	0.000365	3.649864	1.236607	-0.000146
1391	1.3831e+02	-15.3702	-57.248603	0.000355	3.548479	1.202257	-0.000142
1392	1.3840e+02	-15.4151	-57.353569	0.000264	2.636013	0.893105	-0.000105
1393	1.3850e+02	-15.4648	-57.498906	0.000365	3.649864	1.236607	-0.000146
1394	1.3860e+02	-15.4985	-57.632131	0.000335	3.345709	1.133557	-0.000134
1395	1.3870e+02	-15.5466	-57.745171	0.000284	2.838783	0.961806	-0.000114
1396	1.3880e+02	-15.5771	-57.854174	0.000274	2.737398	0.927456	-0.000110
1397	1.3890e+02	-15.6204	-58.007585	0.000385	3.852634	1.305308	-0.000154
1398	1.3900e+02	-15.6637	-58.116588	0.000274	2.737398	0.927456	-0.000110
1399	1.3910e+02	-15.6974	-58.261924	0.000365	3.649864	1.236607	-0.000146
1400	1.3920e+02	-15.7439	-58.391113	0.000324	3.244324	1.099207	-0.000130
1401	1.3930e+02	-15.7744	-58.500115	0.000274	2.737398	0.927456	-0.000110
1402	1.3940e+02	-15.8065	-58.621229	0.000304	3.041554	1.030506	-0.000122
1403	1.3950e+02	-15.8530	-58.730232	0.000274	2.737398	0.927456	-0.000110
1404	1.3960e+02	-15.8915	-58.887680	0.000395	3.954020	1.339658	-0.000158
1405	1.3970e+02	-15.9397	-58.988609	0.000253	2.534628	0.858755	-0.000101
1406	1.3980e+02	-15.9717	-59.154131	0.000416	4.156790	1.408359	-0.000166
1407	1.3990e+02	-16.0135	-59.259097	0.000264	2.636013	0.893105	-0.000105
1408	1.4000e+02	-16.0616	-59.396360	0.000345	3.447094	1.167907	-0.000138
1409	1.4010e+02	-16.0953	-59.505362	0.000274	2.737398	0.927456	-0.000110
1410	1.4020e+02	-16.1402	-59.606291	0.000253	2.534628	0.858755	-0.000101
1411	1.4029e+02	-16.1771	-59.783925	0.000446	4.460945	1.511409	-0.000179
1412	1.4039e+02	-16.2156	-59.856593	0.000182	1.824932	0.618304	-0.000073
1413	1.4049e+02	-16.2493	-60.030190	0.000436	4.359560	1.477059	-0.000174
1414	1.4059e+02	-16.2990	-60.151304	0.000304	3.041554	1.030506	-0.000122
1415	1.4069e+02	-16.3375	-60.320864	0.000426	4.258175	1.442709	-0.000170
1416	1.4079e+02	-16.3696	-60.405643	0.000213	2.129087	0.721354	-0.000085
1417	1.4089e+02	-16.4097	-60.518683	0.000284	2.838783	0.961806	-0.000114
1418	1.4099e+02	-16.4578	-60.655946	0.000345	3.447094	1.167907	-0.000138
1419	1.4109e+02	-16.4931	-60.756874	0.000253	2.534628	0.858755	-0.000101
1420	1.4119e+02	-16.5364	-60.910285	0.000385	3.852634	1.305308	-0.000154
1421	1.4129e+02	-16.5749	-61.047548	0.000345	3.447094	1.167907	-0.000138
1422	1.4139e+02	-16.6134	-61.148476	0.000253	2.534628	0.858755	-0.000101
1423	1.4149e+02	-16.6471	-61.301888	0.000385	3.852634	1.305308	-0.000154
1424	1.4159e+02	-16.6872	-61.427039	0.000314	3.142939	1.064856	-0.000126
1425	1.4169e+02	-16.7338	-61.560264	0.000335	3.345709	1.133557	-0.000134
1426	1.4179e+02	-16.7723	-61.689453	0.000324	3.244324	1.099207	-0.000130
1427	1.4189e+02	-16.8220	-61.834790	0.000365	3.649864	1.236607	-0.000146
1428	1.4199e+02	-16.8573	-61.935718	0.000253	2.534628	0.858755	-0.000101
1429	1.4209e+02	-16.8846	-62.064906	0.000324	3.244324	1.099207	-0.000130
1430	1.4219e+02	-16.9295	-62.258689	0.000487	4.866486	1.648810	-0.000195
1431	1.4228e+02	-16.9680	-62.371729	0.000284	2.838783	0.961806	-0.000114
1432	1.4238e+02	-17.0097	-62.549363	0.000446	4.460945	1.511409	-0.000179
1433	1.4248e+02	-17.0482	-62.605882	0.000142	1.419392	0.480903	-0.000057
1434	1.4258e+02	-17.0899	-62.710848	0.000264	2.636013	0.893105	-0.000105
1435	1.4268e+02	-17.1332	-62.884445	0.000436	4.359560	1.477059	-0.000174
1436	1.4278e+02	-17.1749	-63.001522	0.000294	2.940168	0.996156	-0.000118
1437	1.4288e+02	-17.2118	-63.110524	0.000274	2.737398	0.927456	-0.000110
1438	1.4298e+02	-17.2519	-63.247787	0.000345	3.447094	1.167907	-0.000138
1439	1.4308e+02	-17.2984	-63.409272	0.000406	4.055405	1.374008	-0.000162
1440	1.4318e+02	-17.3353	-63.522312	0.000284	2.838783	0.961806	-0.000114
1441	1.4328e+02	-17.3722	-63.679761	0.000395	3.954020	1.339658	-0.000158
1442	1.4338e+02	-17.4059	-63.804912	0.000314	3.142939	1.064856	-0.000126
1443	1.4348e+02	-17.4621	-63.930063	0.000314	3.142939	1.064856	-0.000126
1444	1.4358e+02	-17.4958	-64.071363	0.000355	3.548479	1.202257	-0.000142
1445	1.4368e+02	-17.5375	-64.216700	0.000365	3.649864	1.236607	-0.000146
1446	1.4378e+02	-17.5663	-64.345888	0.000324	3.244324	1.099207	-0.000130
1447	1.4388e+02	-17.6081	-64.503336	0.000395	3.954020	1.339658	-0.000158
1448	1.4398e+02	-17.6417	-64.640599	0.000345	3.447094	1.167907	-0.000138
1449	1.4408e+02	-17.6867	-64.814196	0.000436	4.359560	1.477059	-0.000174
1450	1.4418e+02	-17.7284	-64.878790	0.000162	1.622162	0.549603	-0.000065
1451	1.4428e+02	-17.7669	-65.052387	0.000436	4.359560	1.477059	-0.000174
1452	1.4437e+02	-17.8118	-65.133129	0.000203	2.027702	0.687004	-0.000081
1453	1.4447e+02	-17.8455	-65.294615	0.000406	4.055405	1.374008	-0.000162
1454	1.4457e+02	-17.8856	-65.431877	0.000345	3.447094	1.167907	-0.000138
1455	1.4467e+02	-17.9353	-65.573177	0.000355	3.548479	1.202257	-0.000142
1456	1.4477e+02	-17.9722	-65.710440	0.000345	3.447094	1.167907	-0.000138
1457	1.4487e+02	-18.0139	-65.811368	0.000253	2.534628	0.858755	-0.000101
1458	1.4497e+02	-18.0460	-65.968817	0.000395	3.954020	1.339658	-0.000158
1459	1.4507e+02	-18.0813	-66.118191	0.000375	3.751249	1.270958	-0.000150
1460	1.4517e+02	-18.1262	-66.255453	0.000345	3.447094	1.167907	-0.000138
1461	1.4527e+02	-18.1647	-66.412901	0.000395	3.954020	1.339658	-0.000158
1462	1.4537e+02	-18.2048	-66.586498	0.000436	4.359560	1.477059	-0.000174
1463	1.4547e+02	-18.2514	-66.743947	0.000395	3.954020	1.339658	-0.000158
1464	1.4557e+02	-18.2786	-66.893321	0.000375	3.751249	1.270958	-0.000150
1465	1.4567e+02	-18.3155	-66.990212	0.000243	2.433243	0.824405	-0.000097
1466	1.4577e+02	-18.3701	-67.139586	0.000375	3.751249	1.270958	-0.000150
1467	1.4587e+02	-18.4070	-67.264737	0.000314	3.142939	1.064856	-0.000126
1468	1.4597e+02	-18.4423	-67.402000	0.000345	3.447094	1.167907	-0.000138
1469	1.4607e+02	-18.4840	-67.535225	0.000335	3.345709	1.133557	-0.000134
1470	1.4617e+02	-18.5305	-67.676525	0.000355	3.548479	1.202257	-0.000142
1471	1.4626e+02	-18.5738	-67.809750	0.000335	3.345709	1.133557	-0.000134
1472	1.4636e+02	-18.6091	-67.983347	0.000436	4.359560	1.477059	-0.000174
1473	1.4646e+02	-18.6476	-68.116573	0.000335	3.345709	1.133557	-0.000134
1474	1.4656e+02	-18.6813	-68.265947	0.000375	3.751249	1.270958	-0.000150
1475	1.4666e+02	-18.7262	-68.391098	0.000314	3.142939	1.064856	-0.000126
1476	1.4676e+02	-18.7647	-68.536435	0.000365	3.649864	1.236607	-0.000146
1477	1.4686e+02	-18.8096	-68.722143	0.000466	4.663715	1.580110	-0.000187
1478	1.4696e+02	-18.8481	-68.859406	0.000345	3.447094	1.167907	-0.000138
1479	1.4706e+02	-18.8834	-69.008780	0.000375	3.751249	1.270958	-0.000150
1480	1.4716e+02	-18.9267	-69.234859	0.000568	5.677567	1.923612	-0.000227
1481	1.4726e+02	-18.9540	-69.343862	0.000274	2.737398	0.927456	-0.000110
1482	1.4736e+02	-19.0021	-69.509385	0.000416	4.156790	1.408359	-0.000166
1483	1.4746e+02	-19.0374	-69.654721	0.000365	3.649864	1.236607	-0.000146
1484	1.4756e+02	-19.0856	-69.812170	0.000395	3.954020	1.339658	-0.000158
1485	1.4766e+02	-19.1257	-69.925210	0.000284	2.838783	0.961806	-0.000114
1486	1.4776e+02	-19.1642	-70.094769	0.000426	4.258175	1.442709	-0.000170
1487	1.4786e+02	-19.2091	-70.248180	0.000385	3.852634	1.305308	-0.000154
1488	1.4796e+02	-19.2444	-70.401592	0.000385	3.852634	1.305308	-0.000154
1489	1.4806e+02	-19.2861	-70.522706	0.000304	3.041554	1.030506	-0.000122
1490	1.4816e+02	-19.3230	-70.684191	0.000406	4.055405	1.374008	-0.000162
1491	1.4825e+02	-19.3727	-70.845676	0.000406	4.055405	1.374008	-0.000162
1492	1.4835e+02	-19.3984	-71.011199	0.000416	4.156790	1.408359	-0.000166
1493	1.4845e+02	-19.4417	-71.168647	0.000395	3.954020	1.339658	-0.000158
1494	1.4855e+02	-19.4818	-71.334170	0.000416	4.156790	1.408359	-0.000166
1495	1.4865e+02	-19.5203	-71.511804	0.000446	4.460945	1.511409	-0.000179
1496	1.4875e+02	-19.5556	-71.729809	0.000547	5.474796	1.854911	-0.000219
1497	1.4885e+02	-19.5925	-71.879183	0.000375	3.751249	1.270958	-0.000150
1498	1.4895e+02	-19.6342	-72.052780	0.000436	4.359560	1.477059	-0.000174
1499	1.4905e+02	-19.6727	-72.157746	0.000264	2.636013	0.893105	-0.000105
1500	1.4915e+02	-19.7160	-72.311157	0.000385	3.852634	1.305308	-0.000154
1501	1.4925e+02	-19.7625	-72.484754	0.000436	4.359560	1.477059	-0.000174
1502	1.4935e+02	-19.7962	-72.638165	0.000385	3.852634	1.305308	-0.000154
1503	1.4945e+02	-19.8428	-72.827910	0.000477	4.765101	1.614460	-0.000191
1504	1.4955e+02	-19.8732	-72.977284	0.000375	3.751249	1.270958	-0.000150
1505	1.4965e+02	-19.9262	-73.138770	0.000406	4.055405	1.374008	-0.000162
1506	1.4975e+02	-19.9679	-73.324478	0.000466	4.663715	1.580110	-0.000187
1507	1.4985e+02	-19.9919	-73.485963	0.000406	4.055405	1.374008	-0.000162
1508	1.4995e+02	-19.9583	-73.485963	0.000000	0.000000	0.000000	0.000000
1509	1.5005e+02	-19.9214	-73.510186	-0.000061	-0.608311	-0.206101	-0.000024
1510	1.5015e+02	-19.8797	-73.461740	0.000122	1.216621	0.412202	0.000049
1511	1.5025e+02	-19.8379	-73.477889	-0.000041	-0.405540	-0.137401	-0.000016
1512	1.5034e+02	-19.7914	-73.461740	0.000041	0.405540	0.137401	0.000016
1513	1.5044e+02	-19.7577	-73.445592	0.000041	0.405540	0.137401	0.000016
1514	1.5054e+02	-19.7096	-73.441555	0.000010	0.101385	0.034350	0.000004
1515	1.5064e+02	-19.6807	-73.376961	0.000162	1.622162	0.549603	0.000065
1516	1.5074e+02	-19.6342	-73.296218	0.000203	2.027702	0.687004	0.000081
1517	1.5084e+02	-19.6005	-73.267958	0.000071	0.709696	0.240451	0.000028
1518	1.5094e+02	-19.5700	-73.211438	0.000142	1.419392	0.480903	0.000057
1519	1.5104e+02	-19.5235	-73.183178	0.000071	0.709696	0.240451	0.000028
1520	1.5114e+02	-19.4770	-73.130695	0.000132	1.318007	0.446553	0.000053
1521	1.5124e+02	-19.4433	-73.106473	0.000061	0.608311	0.206101	0.000024
1522	1.5134e+02	-19.4096	-73.037841	0.000172	1.723547	0.583954	0.000069
1523	1.5144e+02	-19.3663	-73.045915	-0.000020	-0.202770	-0.068700	-0.000008
1524	1.5154e+02	-19.3214	-72.965173	0.000203	2.027702	0.687004	0.000081
1525	1.5164e+02	-19.2829	-72.912690	0.000132	1.318007	0.446553	0.000053
1526	1.5174e+02	-19.2460	-72.852133	0.000152	1.520777	0.515253	0.000061
1527	1.5184e+02	-19.2011	-72.844059	0.000020	0.202770	0.068700	0.000008
1528	1.5194e+02	-19.1658	-72.763316	0.000203	2.027702	0.687004	0.000081
1529	1.5204e+02	-19.1225	-72.759279	0.000010	0.101385	0.034350	0.000004
1530	1.5214e+02	-19.0807	-72.698722	0.000152	1.520777	0.515253	0.000061
1531	1.5224e+02	-19.0535	-72.638165	0.000152	1.520777	0.515253	0.000061
1532	1.5233e+02	-19.0053	-72.613942	0.000061	0.608311	0.206101	0.000024
1533	1.5243e+02	-18.9588	-72.553385	0.000152	1.520777	0.515253	0.000061
1534	1.5253e+02	-18.9283	-72.460531	0.000233	2.331858	0.790055	0.000093
1535	1.5263e+02	-18.8834	-72.363640	0.000243	2.433243	0.824405	0.000097
1536	1.5273e+02	-18.8417	-72.319231	0.000112	1.115236	0.377852	0.000045
1537	1.5283e+02	-18.8032	-72.194080	0.000314	3.142939	1.064856	0.000126
1538	1.5293e+02	-18.7711	-72.149671	0.000112	1.115236	0.377852	0.000045
1539	1.5303e+02	-18.7198	-72.097189	0.000132	1.318007	0.446553	0.000053
1540	1.5313e+02	-18.6861	-72.016446	0.000203	2.027702	0.687004	0.000081
1541	1.5323e+02	-18.6476	-72.004334	0.000030	0.304155	0.103051	0.000012
1542	1.5333e+02	-18.6155	-71.887258	0.000294	2.940168	0.996156	0.000118
1543	1.5343e+02	-18.5690	-71.838812	0.000122	1.216621	0.412202	0.000049
1544	1.5353e+02	-18.5273	-71.794403	0.000112	1.115236	0.377852	0.000045
1545	1.5363e+02	-18.4824	-71.733846	0.000152	1.520777	0.515253	0.000061
1546	1.5373e+02	-18.4455	-71.681364	0.000132	1.318007	0.446553	0.000053
1547	1.5383e+02	-18.4054	-71.584472	0.000243	2.433243	0.824405	0.000097
1548	1.5393e+02	-18.3685	-71.523915	0.000152	1.520777	0.515253	0.000061
1549	1.5403e+02	-18.3219	-71.475470	0.000122	1.216621	0.412202	0.000049
1550	1.5413e+02	-18.2931	-71.394727	0.000203	2.027702	0.687004	0.000081
1551	1.5422e+02	-18.2514	-71.285724	0.000274	2.737398	0.927456	0.000110
1552	1.5432e+02	-18.2080	-71.217093	0.000172	1.723547	0.583954	0.000069
1553	1.5442e+02	-18.1663	-71.144425	0.000182	1.824932	0.618304	0.000073
1554	1.5452e+02	-18.1278	-71.031385	0.000284	2.838783	0.961806	0.000114
1555	1.5462e+02	-18.0925	-71.015236	0.000041	0.405540	0.137401	0.000016
1556	1.5472e+02	-18.0460	-70.914308	0.000253	2.534628	0.858755	0.000101
1557	1.5482e+02	-18.0187	-70.813379	0.000253	2.534628	0.858755	0.000101
1558	1.5492e+02	-17.9786	-70.756860	0.000142	1.419392	0.480903	0.000057
1559	1.5502e+02	-17.9289	-70.684191	0.000182	1.824932	0.618304	0.000073
1560	1.5512e+02	-17.8904	-70.643820	0.000101	1.013851	0.343502	0.000041
1561	1.5522e+02	-17.8407	-70.583263	0.000152	1.520777	0.515253	0.000061
1562	1.5532e+02	-17.8134	-70.522706	0.000152	1.520777	0.515253	0.000061
1563	1.5542e+02	-17.7669	-70.417740	0.000264	2.636013	0.893105	0.000105
1564	1.5552e+02	-17.7268	-70.361220	0.000142	1.419392	0.480903	0.000057
1565	1.5562e+02	-17.6883	-70.316812	0.000112	1.115236	0.377852	0.000045
1566	1.5572e+02	-17.6466	-70.199735	0.000294	2.940168	0.996156	0.000118
1567	1.5582e+02	-17.6081	-70.131103	0.000172	1.723547	0.583954	0.000069
1568	1.5592e+02	-17.5696	-70.038249	0.000233	2.331858	0.790055	0.000093
1569	1.5602e+02	-17.5230	-69.933284	0.000264	2.636013	0.893105	0.000105
1570	1.5612e+02	-17.4990	-69.848504	0.000213	2.129087	0.721354	0.000085
1571	1.5622e+02	-17.4541	-69.763724	0.000213	2.129087	0.721354	0.000085
1572	1.5631e+02	-17.4059	-69.638573	0.000314	3.142939	1.064856	0.000126
1573	1.5641e+02	-17.3770	-69.598202	0.000101	1.013851	0.343502	0.000041
1574	1.5651e+02	-17.3273	-69.513422	0.000213	2.129087	0.721354	0.000085
1575	1.5661e+02	-17.3017	-69.432679	0.000203	2.027702	0.687004	0.000081
1576	1.5671e+02	-17.2359	-69.355973	0.000193	1.926317	0.652654	0.000077
1577	1.5681e+02	-17.2134	-69.291379	0.000162	1.622162	0.549603	0.000065
1578	1.5691e+02	-17.1701	-69.222748	0.000172	1.723547	0.583954	0.000069
1579	1.5701e+02	-17.1396	-69.170265	0.000132	1.318007	0.446553	0.000053
1580	1.5711e+02	-17.0899	-69.065300	0.000264	2.636013	0.893105	0.000105
1581	1.5721e+02	-17.0482	-68.972446	0.000233	2.331858	0.790055	0.000093
1582	1.5731e+02	-17.0065	-68.936111	0.000091	0.912466	0.309152	0.000037
1583	1.5741e+02	-16.9632	-68.827109	0.000274	2.737398	0.927456	0.000110
1584	1.5751e+02	-16.9247	-68.718106	0.000274	2.737398	0.927456	0.000110
1585	1.5761e+02	-16.8974	-68.625252	0.000233	2.331858	0.790055	0.000093
1586	1.5771e+02	-16.8605	-68.492026	0.000335	3.345709	1.133557	0.000134
1587	1.5781e+02	-16.8027	-68.459729	0.000081	0.811081	0.274802	0.000032
1588	1.5791e+02	-16.7723	-68.346689	0.000284	2.838783	0.961806	0.000114
1589	1.5801e+02	-16.7321	-68.229613	0.000294	2.940168	0.996156	0.000118
1590	1.5811e+02	-16.7017	-68.169056	0.000152	1.520777	0.515253	0.000061
1591	1.5821e+02	-16.6471	-68.019681	0.000375	3.751249	1.270958	0.000150
1592	1.5830e+02	-16.6199	-67.995459	0.000061	0.608311	0.206101	0.000024
1593	1.5840e+02	-16.5701	-67.874345	0.000304	3.041554	1.030506	0.000122
1594	1.5850e+02	-16.5284	-67.813788	0.000152	1.520777	0.515253	0.000061
1595	1.5860e+02	-16.4835	-67.749193	0.000162	1.622162	0.549603	0.000065
1596	1.5870e+02	-16.4514	-67.704785	0.000112	1.115236	0.377852	0.000045
1597	1.5880e+02	-16.4113	-67.620005	0.000213	2.129087	0.721354	0.000085
1598	1.5890e+02	-16.3680	-67.523114	0.000243	2.433243	0.824405	0.000097
1599	1.5900e+02	-16.3311	-67.434297	0.000223	2.230473	0.755705	0.000089
1600	1.5910e+02	-16.3006	-67.337406	0.000243	2.433243	0.824405	0.000097
1601	1.5920e+02	-16.2477	-67.264737	0.000182	1.824932	0.618304	0.000073
1602	1.5930e+02	-16.2108	-67.175920	0.000223	2.230473	0.755705	0.000089
1603	1.5940e+02	-16.1771	-67.042695	0.000335	3.345709	1.133557	0.000134
1604	1.5950e+02	-16.1402	-66.937729	0.000264	2.636013	0.893105	0.000105
1605	1.5960e+02	-16.0937	-66.828726	0.000274	2.737398	0.927456	0.000110
1606	1.5970e+02	-16.0520	-66.739909	0.000223	2.230473	0.755705	0.000089
1607	1.5980e+02	-16.0295	-66.647055	0.000233	2.331858	0.790055	0.000093
1608	1.5990e+02	-15.9830	-66.578424	0.000172	1.723547	0.583954	0.000069
1609	1.6000e+02	-15.9397	-66.477496	0.000253	2.534628	0.858755	0.000101
1610	1.6010e+02	-15.8979	-66.368493	0.000274	2.737398	0.927456	0.000110
1611	1.6019e+02	-15.8514	-66.287750	0.000203	2.027702	0.687004	0.000081
1612	1.6029e+02	-15.8081	-66.259490	0.000071	0.709696	0.240451	0.000028
1613	1.6039e+02	-15.7744	-66.130302	0.000324	3.244324	1.099207	0.000130
1614	1.6049e+02	-15.7327	-66.073782	0.000142	1.419392	0.480903	0.000057
1615	1.6059e+02	-15.6942	-65.952668	0.000304	3.041554	1.030506	0.000122
1616	1.6069e+02	-15.6541	-65.867888	0.000213	2.129087	0.721354	0.000085
1617	1.6079e+02	-15.6124	-65.750811	0.000294	2.940168	0.996156	0.000118
1618	1.6089e+02	-15.5787	-65.670068	0.000203	2.027702	0.687004	0.000081
1619	1.6099e+02	-15.5450	-65.569140	0.000253	2.534628	0.858755	0.000101
1620	1.6109e+02	-15.4937	-65.456100	0.000284	2.838783	0.961806	0.000114
1621	1.6119e+02	-15.4600	-65.351135	0.000264	2.636013	0.893105	0.000105
1622	1.6129e+02	-15.4199	-65.250206	0.000253	2.534628	0.858755	0.000101
1623	1.6139e+02	-15.3798	-65.141204	0.000274	2.737398	0.927456	0.000110
1624	1.6149e+02	-15.3413	-65.048350	0.000233	2.331858	0.790055	0.000093
1625	1.6159e+02	-15.2980	-64.903013	0.000365	3.649864	1.236607	0.000146
1626	1.6169e+02	-15.2530	-64.866678	0.000091	0.912466	0.309152	0.000037
1627	1.6179e+02	-15.2194	-64.798047	0.000172	1.723547	0.583954	0.000069
1628	1.6189e+02	-15.1776	-64.717304	0.000203	2.027702	0.687004	0.000081
1629	1.6199e+02	-15.1424	-64.584079	0.000335	3.345709	1.133557	0.000134
1630	1.6209e+02	-15.1022	-64.515448	0.000172	1.723547	0.583954	0.000069
1631	1.6219e+02	-15.0605	-64.446816	0.000172	1.723547	0.583954	0.000069
1632	1.6228e+02	-15.0140	-64.325702	0.000304	3.041554	1.030506	0.000122
1633	1.6238e+02	-14.9819	-64.228811	0.000243	2.433243	0.824405	0.000097
1634	1.6248e+02	-14.9370	-64.144031	0.000213	2.129087	0.721354	0.000085
1635	1.6258e+02	-14.8985	-64.039066	0.000264	2.636013	0.893105	0.000105
1636	1.6268e+02	-14.8664	-63.921989	0.000294	2.940168	0.996156	0.000118
1637	1.6278e+02	-14.8183	-63.841246	0.000203	2.027702	0.687004	0.000081
1638	1.6288e+02	-14.7782	-63.752429	0.000223	2.230473	0.755705	0.000089
1639	1.6298e+02	-14.7397	-63.603055	0.000375	3.751249	1.270958	0.000150
1640	1.6308e+02	-14.6948	-63.498089	0.000264	2.636013	0.893105	0.000105
1641	1.6318e+02	-14.6579	-63.376975	0.000304	3.041554	1.030506	0.000122
1642	1.6328e+02	-14.6210	-63.288158	0.000223	2.230473	0.755705	0.000089
1643	1.6338e+02	-14.5729	-63.223564	0.000162	1.622162	0.549603	0.000065
1644	1.6348e+02	-14.5360	-63.118599	0.000264	2.636013	0.893105	0.000105
1645	1.6358e+02	-14.5007	-63.045930	0.000182	1.824932	0.618304	0.000073
1646	1.6368e+02	-14.4638	-62.940965	0.000264	2.636013	0.893105	0.000105
1647	1.6378e+02	-14.4172	-62.823888	0.000294	2.940168	0.996156	0.000118
1648	1.6388e+02	-14.3852	-62.710848	0.000284	2.838783	0.961806	0.000114
1649	1.6398e+02	-14.3370	-62.609920	0.000253	2.534628	0.858755	0.000101
1650	1.6408e+02	-14.2985	-62.529177	0.000203	2.027702	0.687004	0.000081
1651	1.6418e+02	-14.2600	-62.404026	0.000314	3.142939	1.064856	0.000126
1652	1.6427e+02	-14.2215	-62.315209	0.000223	2.230473	0.755705	0.000089
1653	1.6437e+02	-14.1862	-62.214280	0.000253	2.534628	0.858755	0.000101
1654	1.6447e+02	-14.1445	-62.109315	0.000264	2.636013	0.893105	0.000105
1655	1.6457e+02	-14.1108	-61.963978	0.000365	3.649864	1.236607	0.000146
1656	1.6467e+02	-14.0675	-61.867087	0.000243	2.433243	0.824405	0.000097
1657	1.6477e+02	-14.0242	-61.798455	0.000172	1.723547	0.583954	0.000069
1658	1.6487e+02	-13.9777	-61.673304	0.000314	3.142939	1.064856	0.000126
1659	1.6497e+02	-13.9504	-61.572376	0.000253	2.534628	0.858755	0.000101
1660	1.6507e+02	-13.8991	-61.491633	0.000203	2.027702	0.687004	0.000081
1661	1.6517e+02	-13.8606	-61.402816	0.000223	2.230473	0.755705	0.000089
1662	1.6527e+02	-13.8253	-61.301888	0.000253	2.534628	0.858755	0.000101
1663	1.6537e+02	-13.7852	-61.209033	0.000233	2.331858	0.790055	0.000093
1664	1.6547e+02	-13.7386	-61.095994	0.000284	2.838783	0.961806	0.000114
1665	1.6557e+02	-13.7082	-60.999102	0.000243	2.433243	0.824405	0.000097
1666	1.6567e+02	-13.6729	-60.930471	0.000172	1.723547	0.583954	0.000069
1667	1.6577e+02	-13.6215	-60.789171	0.000355	3.548479	1.202257	0.000142
1668	1.6587e+02	-13.5814	-60.668057	0.000304	3.041554	1.030506	0.000122
1669	1.6597e+02	-13.5494	-60.595389	0.000182	1.824932	0.618304	0.000073
1670	1.6607e+02	-13.5060	-60.474275	0.000304	3.041554	1.030506	0.000122
1671	1.6616e+02	-13.4675	-60.365272	0.000274	2.737398	0.927456	0.000110
1672	1.6626e+02	-13.4258	-60.236084	0.000324	3.244324	1.099207	0.000130
1673	1.6636e+02	-13.3841	-60.106895	0.000324	3.244324	1.099207	0.000130
1674	1.6646e+02	-13.3456	-60.026153	0.000203	2.027702	0.687004	0.000081
1675	1.6656e+02	-13.3103	-59.892927	0.000335	3.345709	1.133557	0.000134
1676	1.6666e+02	-13.2478	-59.816222	0.000193	1.926317	0.652654	0.000077
1677	1.6676e+02	-13.2173	-59.743553	0.000182	1.824932	0.618304	0.000073
1678	1.6686e+02	-13.1852	-59.630513	0.000284	2.838783	0.961806	0.000114
1679	1.6696e+02	-13.1387	-59.505362	0.000314	3.142939	1.064856	0.000126
1680	1.6706e+02	-13.1050	-59.424619	0.000203	2.027702	0.687004	0.000081
1681	1.6716e+02	-13.0617	-59.291394	0.000335	3.345709	1.133557	0.000134
1682	1.6726e+02	-13.0200	-59.194503	0.000243	2.433243	0.824405	0.000097
1683	1.6736e+02	-12.9831	-59.081463	0.000284	2.838783	0.961806	0.000114
1684	1.6746e+02	-12.9462	-58.996683	0.000213	2.129087	0.721354	0.000085
1685	1.6756e+02	-12.9028	-58.887680	0.000274	2.737398	0.927456	0.000110
1686	1.6766e+02	-12.8659	-58.770604	0.000294	2.940168	0.996156	0.000118
1687	1.6776e+02	-12.8242	-58.645452	0.000314	3.142939	1.064856	0.000126
1688	1.6786e+02	-12.7857	-58.560672	0.000213	2.129087	0.721354	0.000085
1689	1.6796e+02	-12.7537	-58.492041	0.000172	1.723547	0.583954	0.000069
1690	1.6806e+02	-12.7168	-58.306333	0.000466	4.663715	1.580110	0.000187
1691	1.6816e+02	-12.6718	-58.233664	0.000182	1.824932	0.618304	0.000073
1692	1.6825e+02	-12.6349	-58.120625	0.000284	2.838783	0.961806	0.000114
1693	1.6835e+02	-12.5836	-58.084290	0.000091	0.912466	0.309152	0.000037
1694	1.6845e+02	-12.5483	-57.967213	0.000294	2.940168	0.996156	0.000118
1695	1.6855e+02	-12.5114	-57.846099	0.000304	3.041554	1.030506	0.000122
1696	1.6865e+02	-12.4633	-57.712874	0.000335	3.345709	1.133557	0.000134
1697	1.6875e+02	-12.4264	-57.607908	0.000264	2.636013	0.893105	0.000105
1698	1.6885e+02	-12.3927	-57.535240	0.000182	1.824932	0.618304	0.000073
1699	1.6895e+02	-12.3494	-57.418163	0.000294	2.940168	0.996156	0.000118
1700	1.6905e+02	-12.3061	-57.313198	0.000264	2.636013	0.893105	0.000105
1701	1.6915e+02	-12.2740	-57.236492	0.000193	1.926317	0.652654	0.000077
1702	1.6925e+02	-12.2387	-57.107304	0.000324	3.244324	1.099207	0.000130
1703	1.6935e+02	-12.1986	-57.014449	0.000233	2.331858	0.790055	0.000093
1704	1.6945e+02	-12.1537	-56.905447	0.000274	2.737398	0.927456	0.000110
1705	1.6955e+02	-12.1216	-56.816630	0.000223	2.230473	0.755705	0.000089
1706	1.6965e+02	-12.0751	-56.655144	0.000406	4.055405	1.374008	0.000162
1707	1.6975e+02	-12.0350	-56.558253	0.000243	2.433243	0.824405	0.000097
1708	1.6985e+02	-11.9868	-56.412916	0.000365	3.649864	1.236607	0.000146
1709	1.6995e+02	-11.9515	-56.336211	0.000193	1.926317	0.652654	0.000077
1710	1.7005e+02	-11.9114	-56.194911	0.000355	3.548479	1.202257	0.000142
1711	1.7015e+02	-11.8713	-56.122242	0.000182	1.824932	0.618304	0.000073
1712	1.7024e+02	-11.8360	-56.017277	0.000264	2.636013	0.893105	0.000105
1713	1.7034e+02	-11.7911	-55.896163	0.000304	3.041554	1.030506	0.000122
1714	1.7044e+02	-11.7558	-55.807346	0.000223	2.230473	0.755705	0.000089
1715	1.7054e+02	-11.7157	-55.682195	0.000314	3.142939	1.064856	0.000126
1716	1.7064e+02	-11.6724	-55.609526	0.000182	1.824932	0.618304	0.000073
1717	1.7074e+02	-11.6371	-55.528784	0.000203	2.027702	0.687004	0.000081
1718	1.7084e+02	-11.5906	-55.363261	0.000416	4.156790	1.408359	0.000166
1719	1.7094e+02	-11.5569	-55.286555	0.000193	1.926317	0.652654	0.000077
1720	1.7104e+02	-11.5088	-55.137181	0.000375	3.751249	1.270958	0.000150
1721	1.7114e+02	-11.4751	-55.072587	0.000162	1.622162	0.549603	0.000065
1722	1.7124e+02	-11.4366	-54.959547	0.000284	2.838783	0.961806	0.000114
1723	1.7134e+02	-11.3949	-54.830359	0.000324	3.244324	1.099207	0.000130
1724	1.7144e+02	-11.3660	-54.713282	0.000294	2.940168	0.996156	0.000118
1725	1.7154e+02	-11.3179	-54.600242	0.000284	2.838783	0.961806	0.000114
1726	1.7164e+02	-11.2713	-54.519500	0.000203	2.027702	0.687004	0.000081
1727	1.7174e+02	-11.2360	-54.378200	0.000355	3.548479	1.202257	0.000142
1728	1.7184e+02	-11.1847	-54.277271	0.000253	2.534628	0.858755	0.000101
1729	1.7194e+02	-11.1542	-54.188454	0.000223	2.230473	0.755705	0.000089
1730	1.7204e+02	-11.1093	-54.099637	0.000223	2.230473	0.755705	0.000089
1731	1.7213e+02	-11.0724	-53.970449	0.000324	3.244324	1.099207	0.000130
1732	1.7223e+02	-11.0339	-53.853372	0.000294	2.940168	0.996156	0.000118
1733	1.7233e+02	-10.9986	-53.772629	0.000203	2.027702	0.687004	0.000081
1734	1.7243e+02	-10.9585	-53.651515	0.000304	3.041554	1.030506	0.000122
1735	1.7253e+02	-10.9120	-53.566736	0.000213	2.129087	0.721354	0.000085
1736	1.7263e+02	-10.8751	-53.421399	0.000365	3.649864	1.236607	0.000146
1737	1.7273e+02	-10.8318	-53.340656	0.000203	2.027702	0.687004	0.000081
1738	1.7283e+02	-10.7933	-53.215505	0.000314	3.142939	1.064856	0.000126
1739	1.7293e+02	-10.7612	-53.074205	0.000355	3.548479	1.202257	0.000142
1740	1.7303e+02	-10.7099	-52.953091	0.000304	3.041554	1.030506	0.000122
1741	1.7313e+02	-10.6794	-52.864274	0.000223	2.230473	0.755705	0.000089
1742	1.7323e+02	-10.6296	-52.694714	0.000426	4.258175	1.442709	0.000170
1743	1.7333e+02	-10.6008	-52.622046	0.000182	1.824932	0.618304	0.000073
1744	1.7343e+02	-10.5607	-52.533229	0.000223	2.230473	0.755705	0.000089
1745	1.7353e+02	-10.5190	-52.395966	0.000345	3.447094	1.167907	0.000138
1746	1.7363e+02	-10.4869	-52.323298	0.000182	1.824932	0.618304	0.000073
1747	1.7373e+02	-10.4371	-52.173924	0.000375	3.751249	1.270958	0.000150
1748	1.7383e+02	-10.4002	-52.068958	0.000264	2.636013	0.893105	0.000105
1749	1.7393e+02	-10.3617	-51.923621	0.000365	3.649864	1.236607	0.000146
1750	1.7403e+02	-10.3168	-51.826730	0.000243	2.433243	0.824405	0.000097
1751	1.7413e+02	-10.2799	-51.709653	0.000294	2.940168	0.996156	0.000118
1752	1.7422e+02	-10.2398	-51.608725	0.000253	2.534628	0.858755	0.000101
1753	1.7432e+02	-10.1981	-51.475499	0.000335	3.345709	1.133557	0.000134
1754	1.7442e+02	-10.1612	-51.354385	0.000304	3.041554	1.030506	0.000122
1755	1.7452e+02	-10.1307	-51.233271	0.000304	3.041554	1.030506	0.000122
1756	1.7462e+02	-10.0890	-51.120231	0.000284	2.838783	0.961806	0.000114
1757	1.7472e+02	-10.0361	-51.059674	0.000152	1.520777	0.515253	0.000061
1758	1.7482e+02	-9.9944	-50.882040	0.000446	4.460945	1.511409	0.000179
1759	1.7492e+02	-9.9671	-50.769000	0.000284	2.838783	0.961806	0.000114
1760	1.7502e+02	-9.9174	-50.635775	0.000335	3.345709	1.133557	0.000134
1761	1.7512e+02	-9.8789	-50.571181	0.000162	1.622162	0.549603	0.000065
1762	1.7522e+02	-9.8436	-50.458141	0.000284	2.838783	0.961806	0.000114
1763	1.7532e+02	-9.8035	-50.308767	0.000375	3.751249	1.270958	0.000150
1764	1.7542e+02	-9.7602	-50.240136	0.000172	1.723547	0.583954	0.000069
1765	1.7552e+02	-9.7136	-50.078650	0.000406	4.055405	1.374008	0.000162
1766	1.7562e+02	-9.6703	-49.965610	0.000284	2.838783	0.961806	0.000114
1767	1.7572e+02	-9.6350	-49.868719	0.000243	2.433243	0.824405	0.000097
1768	1.7582e+02	-9.5981	-49.763754	0.000264	2.636013	0.893105	0.000105
1769	1.7592e+02	-9.5580	-49.634565	0.000324	3.244324	1.099207	0.000130
1770	1.7602e+02	-9.5147	-49.505377	0.000324	3.244324	1.099207	0.000130
1771	1.7612e+02	-9.4826	-49.396374	0.000274	2.737398	0.927456	0.000110
1772	1.7621e+02	-9.4329	-49.255075	0.000355	3.548479	1.202257	0.000142
1773	1.7631e+02	-9.4088	-49.162220	0.000233	2.331858	0.790055	0.000093
1774	1.7641e+02	-9.3703	-49.028995	0.000335	3.345709	1.133557	0.000134
1775	1.7651e+02	-9.3206	-48.932104	0.000243	2.433243	0.824405	0.000097
1776	1.7661e+02	-9.2869	-48.839250	0.000233	2.331858	0.790055	0.000093
1777	1.7671e+02	-9.2404	-48.701987	0.000345	3.447094	1.167907	0.000138
1778	1.7681e+02	-9.2051	-48.552613	0.000375	3.751249	1.270958	0.000150
1779	1.7691e+02	-9.1746	-48.415350	0.000345	3.447094	1.167907	0.000138
1780	1.7701e+02	-9.1201	-48.278088	0.000345	3.447094	1.167907	0.000138
1781	1.7711e+02	-9.0928	-48.148899	0.000324	3.244324	1.099207	0.000130
1782	1.7721e+02	-9.0399	-48.023748	0.000314	3.142939	1.064856	0.000126
1783	1.7731e+02	-9.0062	-47.874374	0.000375	3.751249	1.270958	0.000150
1784	1.7741e+02	-8.9596	-47.769409	0.000264	2.636013	0.893105	0.000105
1785	1.7751e+02	-8.9147	-47.692703	0.000193	1.926317	0.652654	0.000077
1786	1.7761e+02	-8.8778	-47.571589	0.000304	3.041554	1.030506	0.000122
1787	1.7771e+02	-8.8473	-47.393955	0.000446	4.460945	1.511409	0.000179
1788	1.7781e+02	-8.7992	-47.309175	0.000213	2.129087	0.721354	0.000085
1789	1.7791e+02	-8.7703	-47.151727	0.000395	3.954020	1.339658	0.000158
1790	1.7801e+02	-8.7254	-47.083096	0.000172	1.723547	0.583954	0.000069
1791	1.7810e+02	-8.6837	-46.937759	0.000365	3.649864	1.236607	0.000146
1792	1.7820e+02	-8.6356	-46.812607	0.000314	3.142939	1.064856	0.000126
1793	1.7830e+02	-8.5987	-46.687456	0.000314	3.142939	1.064856	0.000126
1794	1.7840e+02	-8.5666	-46.521934	0.000416	4.156790	1.408359	0.000166
1795	1.7850e+02	-8.5281	-46.412931	0.000274	2.737398	0.927456	0.000110
1796	1.7860e+02	-8.4848	-46.271631	0.000355	3.548479	1.202257	0.000142
1797	1.7870e+02	-8.4479	-46.178777	0.000233	2.331858	0.790055	0.000093
1798	1.7880e+02	-8.4030	-46.041515	0.000345	3.447094	1.167907	0.000138
1799	1.7890e+02	-8.3613	-45.924438	0.000294	2.940168	0.996156	0.000118
1800	1.7900e+02	-8.3244	-45.787175	0.000345	3.447094	1.167907	0.000138
1801	1.7910e+02	-8.2907	-45.645875	0.000355	3.548479	1.202257	0.000142
1802	1.7920e+02	-8.2506	-45.520724	0.000314	3.142939	1.064856	0.000126
1803	1.7930e+02	-8.2217	-45.411721	0.000274	2.737398	0.927456	0.000110
1804	1.7940e+02	-8.1623	-45.274459	0.000345	3.447094	1.167907	0.000138
1805	1.7950e+02	-8.1286	-45.112973	0.000406	4.055405	1.374008	0.000162
1806	1.7960e+02	-8.0821	-45.020119	0.000233	2.331858	0.790055	0.000093
1807	1.7970e+02	-8.0404	-44.862671	0.000395	3.954020	1.339658	0.000158
1808	1.7980e+02	-8.0067	-44.814225	0.000122	1.216621	0.412202	0.000049
1809	1.7990e+02	-7.9682	-44.608331	0.000517	5.170641	1.751861	0.000207
1810	1.8000e+02	-7.9265	-44.499329	0.000274	2.737398	0.927456	0.000110
1811	1.8009e+02	-7.8816	-44.333806	0.000416	4.156790	1.408359	0.000166
1812	1.8019e+02	-7.8463	-44.180395	0.000385	3.852634	1.305308	0.000154
1813	1.8029e+02	-7.8110	-44.071392	0.000274	2.737398	0.927456	0.000110
1814	1.8039e+02	-7.7645	-43.926055	0.000365	3.649864	1.236607	0.000146
1815	1.8049e+02	-7.7340	-43.764570	0.000406	4.055405	1.374008	0.000162
1816	1.8059e+02	-7.6891	-43.695939	0.000172	1.723547	0.583954	0.000069
1817	1.8069e+02	-7.6361	-43.518305	0.000446	4.460945	1.511409	0.000179
1818	1.8079e+02	-7.6137	-43.413339	0.000264	2.636013	0.893105	0.000105
1819	1.8089e+02	-7.5672	-43.247817	0.000416	4.156790	1.408359	0.000166
1820	1.8099e+02	-7.5239	-43.122665	0.000314	3.142939	1.064856	0.000126
1821	1.8109e+02	-7.4918	-42.993477	0.000324	3.244324	1.099207	0.000130
1822	1.8119e+02	-7.4501	-42.876400	0.000294	2.940168	0.996156	0.000118
1823	1.8129e+02	-7.4116	-42.727026	0.000375	3.751249	1.270958	0.000150
1824	1.8139e+02	-7.3682	-42.638209	0.000223	2.230473	0.755705	0.000089
1825	1.8149e+02	-7.3329	-42.472687	0.000416	4.156790	1.408359	0.000166
1826	1.8159e+02	-7.2944	-42.367721	0.000264	2.636013	0.893105	0.000105
1827	1.8169e+02	-7.2527	-42.218347	0.000375	3.751249	1.270958	0.000150
1828	1.8179e+02	-7.2014	-42.036676	0.000456	4.562330	1.545759	0.000183
1829	1.8189e+02	-7.1757	-41.911525	0.000314	3.142939	1.064856	0.000126
1830	1.8199e+02	-7.1404	-41.770225	0.000355	3.548479	1.202257	0.000142
1831	1.8209e+02	-7.0987	-41.657185	0.000284	2.838783	0.961806	0.000114
1832	1.8218e+02	-7.0522	-41.491663	0.000416	4.156790	1.408359	0.000166
1833	1.8228e+02	-7.0201	-41.338251	0.000385	3.852634	1.305308	0.000154
1834	1.8238e+02	-6.9752	-41.225212	0.000284	2.838783	0.961806	0.000114
1835	1.8248e+02	-6.9239	-41.083912	0.000355	3.548479	1.202257	0.000142
1836	1.8258e+02	-6.8918	-40.987021	0.000243	2.433243	0.824405	0.000097
1837	1.8268e+02	-6.8453	-40.837647	0.000375	3.751249	1.270958	0.000150
1838	1.8278e+02	-6.8148	-40.684235	0.000385	3.852634	1.305308	0.000154
1839	1.8288e+02	-6.7634	-40.514676	0.000426	4.258175	1.442709	0.000170
1840	1.8298e+02	-6.7217	-40.401636	0.000284	2.838783	0.961806	0.000114
1841	1.8308e+02	-6.6929	-40.284559	0.000294	2.940168	0.996156	0.000118
1842	1.8318e+02	-6.6495	-40.167482	0.000294	2.940168	0.996156	0.000118
1843	1.8328e+02	-6.6078	-40.010034	0.000395	3.954020	1.339658	0.000158
1844	1.8338e+02	-6.5709	-39.864697	0.000365	3.649864	1.236607	0.000146
1845	1.8348e+02	-6.5260	-39.646692	0.000547	5.474796	1.854911	0.000219
1846	1.8358e+02	-6.4907	-39.578060	0.000172	1.723547	0.583954	0.000069
1847	1.8368e+02	-6.4522	-39.404463	0.000436	4.359560	1.477059	0.000174
1848	1.8378e+02	-6.4121	-39.287386	0.000294	2.940168	0.996156	0.000118
1849	1.8388e+02	-6.3688	-39.138012	0.000375	3.751249	1.270958	0.000150
1850	1.8398e+02	-6.3399	-38.952304	0.000466	4.663715	1.580110	0.000187
1851	1.8407e+02	-6.2934	-38.835227	0.000294	2.940168	0.996156	0.000118
1852	1.8417e+02	-6.2485	-38.693927	0.000355	3.548479	1.202257	0.000142
1853	1.8427e+02	-6.2276	-38.540516	0.000385	3.852634	1.305308	0.000154
1854	1.8437e+02	-6.1747	-38.423439	0.000294	2.940168	0.996156	0.000118
1855	1.8447e+02	-6.1394	-38.245805	0.000446	4.460945	1.511409	0.000179
1856	1.8457e+02	-6.0961	-38.112580	0.000335	3.345709	1.133557	0.000134
1857	1.8467e+02	-6.0528	-38.011652	0.000253	2.534628	0.858755	0.000101
1858	1.8477e+02	-6.0127	-37.898612	0.000284	2.838783	0.961806	0.000114
1859	1.8487e+02	-5.9774	-37.729052	0.000426	4.258175	1.442709	0.000170
1860	1.8497e+02	-5.9469	-37.591789	0.000345	3.447094	1.167907	0.000138
1861	1.8507e+02	-5.9020	-37.422230	0.000426	4.258175	1.442709	0.000170
1862	1.8517e+02	-5.8587	-37.264781	0.000395	3.954020	1.339658	0.000158
1863	1.8527e+02	-5.8153	-37.139630	0.000314	3.142939	1.064856	0.000126
1864	1.8537e+02	-5.7784	-36.978145	0.000406	4.055405	1.374008	0.000162
1865	1.8547e+02	-5.7303	-36.836845	0.000355	3.548479	1.202257	0.000142
1866	1.8557e+02	-5.6966	-36.647100	0.000477	4.765101	1.614460	0.000191
1867	1.8567e+02	-5.6501	-36.513874	0.000335	3.345709	1.133557	0.000134
1868	1.8577e+02	-5.6228	-36.376612	0.000345	3.447094	1.167907	0.000138
1869	1.8587e+02	-5.5940	-36.223200	0.000385	3.852634	1.305308	0.000154
1870	1.8597e+02	-5.5442	-36.073826	0.000375	3.751249	1.270958	0.000150
1871	1.8606e+02	-5.4993	-35.924452	0.000375	3.751249	1.270958	0.000150
1872	1.8616e+02	-5.4544	-35.767004	0.000395	3.954020	1.339658	0.000158
1873	1.8626e+02	-5.4223	-35.629741	0.000345	3.447094	1.167907	0.000138
1874	1.8636e+02	-5.3758	-35.512665	0.000294	2.940168	0.996156	0.000118
1875	1.8646e+02	-5.3453	-35.359253	0.000385	3.852634	1.305308	0.000154
1876	1.8656e+02	-5.2940	-35.217954	0.000355	3.548479	1.202257	0.000142
1877	1.8666e+02	-5.2635	-35.060505	0.000395	3.954020	1.339658	0.000158
1878	1.8676e+02	-5.2282	-34.919206	0.000355	3.548479	1.202257	0.000142
1879	1.8686e+02	-5.1785	-34.794054	0.000314	3.142939	1.064856	0.000126
1880	1.8696e+02	-5.1400	-34.567975	0.000568	5.677567	1.923612	0.000227
1881	1.8706e+02	-5.1015	-34.430712	0.000345	3.447094	1.167907	0.000138
1882	1.8716e+02	-5.0646	-34.261152	0.000426	4.258175	1.442709	0.000170
1883	1.8726e+02	-5.0148	-34.152150	0.000274	2.737398	0.927456	0.000110
1884	1.8736e+02	-4.9811	-33.938182	0.000537	5.373411	1.820561	0.000215
1885	1.8746e+02	-4.9394	-33.817068	0.000304	3.041554	1.030506	0.000122
1886	1.8756e+02	-4.9009	-33.655582	0.000406	4.055405	1.374008	0.000162
1887	1.8766e+02	-4.8640	-33.510245	0.000365	3.649864	1.236607	0.000146
1888	1.8776e+02	-4.8271	-33.372983	0.000345	3.447094	1.167907	0.000138
1889	1.8786e+02	-4.7758	-33.219571	0.000385	3.852634	1.305308	0.000154
1890	1.8796e+02	-4.7373	-33.033863	0.000466	4.663715	1.580110	0.000187
1891	1.8806e+02	-4.7036	-32.949083	0.000213	2.129087	0.721354	0.000085
1892	1.8815e+02	-4.6603	-32.807784	0.000355	3.548479	1.202257	0.000142
1893	1.8825e+02	-4.6154	-32.682632	0.000314	3.142939	1.064856	0.000126
1894	1.8835e+02	-4.5769	-32.480776	0.000507	5.069256	1.717510	0.000203
1895	1.8845e+02	-4.5432	-32.303142	0.000446	4.460945	1.511409	0.000179
1896	1.8855e+02	-4.5079	-32.177990	0.000314	3.142939	1.064856	0.000126
1897	1.8865e+02	-4.4646	-31.992282	0.000466	4.663715	1.580110	0.000187
1898	1.8875e+02	-4.4213	-31.826760	0.000416	4.156790	1.408359	0.000166
1899	1.8885e+02	-4.3763	-31.641051	0.000466	4.663715	1.580110	0.000187
1900	1.8895e+02	-4.3475	-31.544160	0.000243	2.433243	0.824405	0.000097
1901	1.8905e+02	-4.3058	-31.301932	0.000608	6.083107	2.061012	0.000243
1902	1.8915e+02	-4.2657	-31.180818	0.000304	3.041554	1.030506	0.000122
1903	1.8925e+02	-4.2304	-30.999147	0.000456	4.562330	1.545759	0.000183
1904	1.8935e+02	-4.1887	-30.865921	0.000335	3.345709	1.133557	0.000134
1905	1.8945e+02	-4.1485	-30.688287	0.000446	4.460945	1.511409	0.000179
1906	1.8955e+02	-4.1036	-30.555062	0.000335	3.345709	1.133557	0.000134
1907	1.8965e+02	-4.0683	-30.357242	0.000497	4.967871	1.683160	0.000199
1908	1.8975e+02	-4.0234	-30.215942	0.000355	3.548479	1.202257	0.000142
1909	1.8985e+02	-3.9817	-30.066568	0.000375	3.751249	1.270958	0.000150
1910	1.8995e+02	-3.9384	-29.917194	0.000375	3.751249	1.270958	0.000150
1911	1.9004e+02	-3.9095	-29.743598	0.000436	4.359560	1.477059	0.000174
1912	1.9014e+02	-3.8630	-29.626521	0.000294	2.940168	0.996156	0.000118
1913	1.9024e+02	-3.8277	-29.452924	0.000436	4.359560	1.477059	0.000174
1914	1.9034e+02	-3.7876	-29.291438	0.000406	4.055405	1.374008	0.000162
1915	1.9044e+02	-3.7411	-29.129953	0.000406	4.055405	1.374008	0.000162
1916	1.9054e+02	-3.6994	-28.879651	0.000629	6.285877	2.129713	0.000252
1917	1.9064e+02	-3.6641	-28.726239	0.000385	3.852634	1.305308	0.000154
1918	1.9074e+02	-3.6240	-28.552643	0.000436	4.359560	1.477059	0.000174
1919	1.9084e+02	-3.5887	-28.391157	0.000406	4.055405	1.374008	0.000162
1920	1.9094e+02	-3.5470	-28.201412	0.000477	4.765101	1.614460	0.000191
1921	1.9104e+02	-3.5052	-28.043963	0.000395	3.954020	1.339658	0.000158
1922	1.9114e+02	-3.4635	-27.858255	0.000466	4.663715	1.580110	0.000187
1923	1.9124e+02	-3.4347	-27.720993	0.000345	3.447094	1.167907	0.000138
1924	1.9134e+02	-3.3913	-27.547396	0.000436	4.359560	1.477059	0.000174
1925	1.9144e+02	-3.3512	-27.345539	0.000507	5.069256	1.717510	0.000203
1926	1.9154e+02	-3.3095	-27.224425	0.000304	3.041554	1.030506	0.000122
1927	1.9164e+02	-3.2678	-27.058902	0.000416	4.156790	1.408359	0.000166
1928	1.9174e+02	-3.2277	-26.885305	0.000436	4.359560	1.477059	0.000174
1929	1.9184e+02	-3.1876	-26.744006	0.000355	3.548479	1.202257	0.000142
1930	1.9194e+02	-3.1523	-26.578483	0.000416	4.156790	1.408359	0.000166
1931	1.9203e+02	-3.1090	-26.396812	0.000456	4.562330	1.545759	0.000183
1932	1.9213e+02	-3.0689	-26.186881	0.000527	5.272026	1.786211	0.000211
1933	1.9223e+02	-3.0192	-25.993098	0.000487	4.866486	1.648810	0.000195
1934	1.9233e+02	-2.9871	-25.795279	0.000497	4.967871	1.683160	0.000199
1935	1.9243e+02	-2.9470	-25.649942	0.000365	3.649864	1.236607	0.000146
1936	1.9253e+02	-2.9005	-25.440011	0.000527	5.272026	1.786211	0.000211
1937	1.9263e+02	-2.8716	-25.250265	0.000477	4.765101	1.614460	0.000191
1938	1.9273e+02	-2.8299	-25.068594	0.000456	4.562330	1.545759	0.000183
1939	1.9283e+02	-2.7849	-24.927295	0.000355	3.548479	1.202257	0.000142
1940	1.9293e+02	-2.7513	-24.721401	0.000517	5.170641	1.751861	0.000207
1941	1.9303e+02	-2.7079	-24.531655	0.000477	4.765101	1.614460	0.000191
1942	1.9313e+02	-2.6694	-24.382281	0.000375	3.751249	1.270958	0.000150
1943	1.9323e+02	-2.6358	-24.188499	0.000487	4.866486	1.648810	0.000195
1944	1.9333e+02	-2.5956	-24.027013	0.000406	4.055405	1.374008	0.000162
1945	1.9343e+02	-2.5411	-23.829194	0.000497	4.967871	1.683160	0.000199
1946	1.9353e+02	-2.5058	-23.647523	0.000456	4.562330	1.545759	0.000183
1947	1.9363e+02	-2.4721	-23.510260	0.000345	3.447094	1.167907	0.000138
1948	1.9373e+02	-2.4336	-23.312440	0.000497	4.967871	1.683160	0.000199
1949	1.9383e+02	-2.3871	-23.106546	0.000517	5.170641	1.751861	0.000207
1950	1.9393e+02	-2.3518	-22.840095	0.000669	6.691418	2.267114	0.000268
1951	1.9403e+02	-2.3133	-22.658424	0.000456	4.562330	1.545759	0.000183
1952	1.9412e+02	-2.2748	-22.492902	0.000416	4.156790	1.408359	0.000166
1953	1.9422e+02	-2.2331	-22.299119	0.000487	4.866486	1.648810	0.000195
1954	1.9432e+02	-2.1946	-22.097262	0.000507	5.069256	1.717510	0.000203
1955	1.9442e+02	-2.1529	-21.939814	0.000395	3.954020	1.339658	0.000158
1956	1.9452e+02	-2.1176	-21.741995	0.000497	4.967871	1.683160	0.000199
1957	1.9462e+02	-2.0727	-21.536101	0.000517	5.170641	1.751861	0.000207
1958	1.9472e+02	-2.0342	-21.346355	0.000477	4.765101	1.614460	0.000191
1959	1.9482e+02	-1.9941	-21.148536	0.000497	4.967871	1.683160	0.000199
1960	1.9492e+02	-1.9652	-20.958790	0.000477	4.765101	1.614460	0.000191
1961	1.9502e+02	-1.9138	-20.769045	0.000477	4.765101	1.614460	0.000191
1962	1.9512e+02	-1.8657	-20.555077	0.000537	5.373411	1.820561	0.000215
1963	1.9522e+02	-1.8352	-20.385517	0.000426	4.258175	1.442709	0.000170
1964	1.9532e+02	-1.7903	-20.211920	0.000436	4.359560	1.477059	0.000174
1965	1.9542e+02	-1.7582	-19.997952	0.000537	5.373411	1.820561	0.000215
1966	1.9552e+02	-1.7133	-19.828392	0.000426	4.258175	1.442709	0.000170
1967	1.9562e+02	-1.6748	-19.614424	0.000537	5.373411	1.820561	0.000215
1968	1.9572e+02	-1.6187	-19.343936	0.000679	6.792803	2.301464	0.000272
1969	1.9582e+02	-1.5962	-19.194562	0.000375	3.751249	1.270958	0.000150
1970	1.9592e+02	-1.5577	-18.984631	0.000527	5.272026	1.786211	0.000211
1971	1.9601e+02	-1.5176	-18.778737	0.000517	5.170641	1.751861	0.000207
1972	1.9611e+02	-1.4727	-18.548620	0.000578	5.778952	1.957962	0.000231
1973	1.9621e+02	-1.4374	-18.346763	0.000507	5.069256	1.717510	0.000203
1974	1.9631e+02	-1.3941	-18.157018	0.000477	4.765101	1.614460	0.000191
1975	1.9641e+02	-1.3540	-17.967273	0.000477	4.765101	1.614460	0.000191
1976	1.9651e+02	-1.3203	-17.708896	0.000649	6.488648	2.198413	0.000260
1977	1.9661e+02	-1.2738	-17.543373	0.000416	4.156790	1.408359	0.000166
1978	1.9671e+02	-1.2353	-17.309219	0.000588	5.880337	1.992312	0.000235
1979	1.9681e+02	-1.1952	-17.123511	0.000466	4.663715	1.580110	0.000187
1980	1.9691e+02	-1.1583	-16.921654	0.000507	5.069256	1.717510	0.000203
1981	1.9701e+02	-1.1182	-16.687501	0.000588	5.880337	1.992312	0.000235
1982	1.9711e+02	-1.0732	-16.570424	0.000294	2.940168	0.996156	0.000118
1983	1.9721e+02	-1.0411	-16.328195	0.000608	6.083107	2.061012	0.000243
1984	1.9731e+02	-1.0010	-16.094042	0.000588	5.880337	1.992312	0.000235
1985	1.9741e+02	-0.9561	-15.884111	0.000527	5.272026	1.786211	0.000211
1986	1.9751e+02	-0.9192	-15.637845	0.000618	6.184492	2.095363	0.000248
1987	1.9761e+02	-0.8807	-15.411766	0.000568	5.677567	1.923612	0.000227
1988	1.9771e+02	-0.8422	-15.205872	0.000517	5.170641	1.751861	0.000207
1989	1.9781e+02	-0.7877	-14.995941	0.000527	5.272026	1.786211	0.000211
1990	1.9791e+02	-0.7572	-14.765824	0.000578	5.778952	1.957962	0.000231
1991	1.9800e+02	-0.7139	-14.547819	0.000547	5.474796	1.854911	0.000219
1992	1.9810e+02	-0.6770	-14.378259	0.000426	4.258175	1.442709	0.000170
1993	1.9820e+02	-0.6401	-14.148142	0.000578	5.778952	1.957962	0.000231
1994	1.9830e+02	-0.6080	-13.893803	0.000639	6.387262	2.164063	0.000256
1995	1.9840e+02	-0.5615	-13.679834	0.000537	5.373411	1.820561	0.000215
1996	1.9850e+02	-0.5214	-13.441643	0.000598	5.981722	2.026662	0.000239
1997	1.9860e+02	-0.4749	-13.268047	0.000436	4.359560	1.477059	0.000174
1998	1.9870e+02	-0.4396	-13.013707	0.000639	6.387262	2.164063	0.000256
1999	1.9880e+02	-0.4027	-12.880482	0.000335	3.345709	1.133557	0.000134
2000	1.9890e+02	-0.3513	-12.658439	0.000558	5.576181	1.889261	0.000223
2001	1.9900e+02	-0.3241	-12.412174	0.000618	6.184492	2.095363	0.000248
2002	1.9910e+02	-0.2856	-12.190131	0.000558	5.576181	1.889261	0.000223
2003	1.9920e+02	-0.2390	-11.955977	0.000588	5.880337	1.992312	0.000235
2004	1.9930e+02	-0.1957	-11.677415	0.000700	6.995573	2.370164	0.000280
2005	1.9940e+02	-0.1540	-11.491707	0.000466	4.663715	1.580110	0.000187
2006	1.9950e+02	-0.1139	-11.221219	0.000679	6.792803	2.301464	0.000272
2007	1.9960e+02	-0.0786	-11.011288	0.000527	5.272026	1.786211	0.000211
2008	1.9970e+02	-0.0417	-10.785208	0.000568	5.677567	1.923612	0.000227
2009	1.9980e+02	-0.0032	-10.563166	0.000568	5.677567	1.923612	0.000223

Center data before PMax,+/-Pr and +/-Vc Calc.

PMax (uC/cm2):	7.35e+01
Pr (uC/cm2):	4.95e+00
-Pr (uC/cm2):	-1.06e+01
PLoss (uC/cm2):	-5.32e+00
Vc:	9.70e-01
-Vc:	-9.05e-01
C (Max-Eff) (nF):	3.68e-01
K (Eff):	1.25e+03
Vert. (+/-Pr) Shift (uC/cm2):	-2.81e+00
Horiz. Shift (+/-Vc):	3.27e-02
Offset (uC/cm2):	5.24e+00

A (Loop Area - uC/cm2·Volts):	1.41e-02



Hysteresis Version: 5.48.1 - Radiant Technologies, Inc., 1999 - 9/12/24

