»»»»»»»»»»»»»»»»»»»»»»»»»»»»»»»»»»»» Hysteresis ««««««««««««««««««««««««««««««««««««
»»»  Executed Version:	5.48.1
»»»  Vision Version:	5.48.4 (R)
»»»  Vision Compiled:	9/18/24
»»»  Driver Version:	5.47.0
»»»  Windows Version:	Windows 8 or 8.1
»»»  Processor Information:	x86 (AMD or Intel) - 32 Processors
»»»  Tester Name:	PMF21124-494 (100V)
»»»  Tester S/N:	PMF21124-494
»»»  Internal Amp Type:	100V RevK 270k
»»»  Internal Amp S/N:	iAB2-596/K     
»»»  Execution Count:	1
»»»»»»»»»»»»»»»»»»»»»»»»»»»»»»»»»»»»»»»»»»««««««««««««««««««««««««««««««««««««««««««

Stored:	6/11/2025 - 14:43:35
Configured:	06/11/25 01:55:56 PM
Executed:	06/11/25 02:43:02 PM

»»»»»»»»»»»»»»»»»»»»»»»»»»»»»»»»»»» Sample Info ««««««««««««««««««««««««««««««««««««
Sample Name:	
Lot Name:	
Wafer Name:	
Die Row/Column:	0/0
Capacitor Number:	0
Sample Area (cm2):	1.00e-04
Sample Thickness (microns):	3.00e-01

Amplifier:	Internal

»»»»»»»»»»»»»»»»»»»»»»»»»»»»»»»»»»» Tester Info «««««««««««««««««««««««««««««««««««
Tester Name:	PMF21124-494 (100V)
Tester Serial Number:	PMF21124-494
Return Signal Amp. Level:	0.19 [Index: 3]

»»»»»»»»»»»»»»»»»»»»»»»»»»»»»»»» Hysteresis Info ««««««««««««««««««««««««««««««««««
Task Name:	Hyst-1287
Volts:	20.00
Field:	666.67 (kV/cm)
DCBias:	0.00
DCField:	0.00 (kV/cm)
Hysteresis Period (ms):	2.00e+02
Preset:	Enabled
Preset Delay (ms):	1.00e+03
Profile:	Standard Bipolar

»»»»»»»»»»»»»»»»»»»»»»»»»»»»»»»»»»»»»» Data «««««««««««««««««««««««««««««««««««««««
Points:	2009

Valid Data

Point	Time (ms)	Drive Voltage	Measured Polarization (uC/cm2)	Capacitance (uF)	Normalized Capacitance (uF/cm2)	Dielectric Constant	Instantaneous Current (mA)
   1	0.0000e+00	0.0000	-3.253931	0.000466	4.662406	1.579666	0.000187
   2	9.9500e-02	0.0337	-3.068223	0.000466	4.662406	1.579666	0.000187
   3	1.9900e-01	0.0802	-2.842144	0.000568	5.675972	1.923071	0.000227
   4	2.9850e-01	0.1059	-2.535321	0.000770	7.703105	2.609883	0.000308
   5	3.9800e-01	0.1556	-2.345576	0.000476	4.763762	1.614006	0.000191
   6	4.9750e-01	0.1925	-2.103348	0.000608	6.081399	2.060434	0.000243
   7	5.9700e-01	0.2342	-1.873231	0.000578	5.777329	1.957412	0.000231
   8	6.9650e-01	0.2775	-1.622929	0.000628	6.284112	2.129115	0.000252
   9	7.9600e-01	0.3273	-1.324181	0.000750	7.500392	2.541202	0.000300
  10	8.9550e-01	0.3513	-1.102138	0.000557	5.574616	1.888731	0.000223
  11	9.9500e-01	0.3946	-0.867984	0.000588	5.878686	1.991753	0.000235
  12	1.0945e+00	0.4235	-0.641905	0.000568	5.675972	1.923071	0.000227
  13	1.1940e+00	0.4668	-0.407751	0.000588	5.878686	1.991753	0.000235
  14	1.2935e+00	0.5134	-0.129188	0.000699	6.993609	2.369499	0.000280
  15	1.3930e+00	0.5567	0.072668	0.000507	5.067832	1.717028	0.000203
  16	1.4925e+00	0.5904	0.379491	0.000770	7.703105	2.609883	0.000308
  17	1.5920e+00	0.6369	0.589422	0.000527	5.270546	1.785709	0.000211
  18	1.6915e+00	0.6625	0.811464	0.000557	5.574616	1.888731	0.000223
  19	1.7910e+00	0.7107	1.094064	0.000709	7.094965	2.403839	0.000284
  20	1.8905e+00	0.7540	1.368589	0.000689	6.892252	2.335158	0.000276
  21	1.9900e+00	0.7813	1.570446	0.000507	5.067832	1.717028	0.000203
  22	2.0895e+00	0.8278	1.824785	0.000639	6.385469	2.163455	0.000256
  23	2.1890e+00	0.8663	2.095273	0.000679	6.790895	2.300818	0.000272
  24	2.2885e+00	0.9160	2.369799	0.000689	6.892252	2.335158	0.000276
  25	2.3880e+00	0.9497	2.612027	0.000608	6.081399	2.060434	0.000243
  26	2.4875e+00	0.9914	2.850218	0.000598	5.980042	2.026093	0.000239
  27	2.5870e+00	1.0315	3.076297	0.000568	5.675972	1.923071	0.000227
  28	2.6865e+00	1.0716	3.326600	0.000628	6.284112	2.129115	0.000252
  29	2.7860e+00	1.1149	3.589014	0.000659	6.588182	2.232137	0.000264
  30	2.8855e+00	1.1518	3.851427	0.000659	6.588182	2.232137	0.000264
  31	2.9850e+00	1.1855	4.125953	0.000689	6.892252	2.335158	0.000276
  32	3.0845e+00	1.2144	4.372218	0.000618	6.182756	2.094774	0.000248
  33	3.1840e+00	1.2673	4.610409	0.000598	5.980042	2.026093	0.000239
  34	3.2835e+00	1.3107	4.872823	0.000659	6.588182	2.232137	0.000264
  35	3.3830e+00	1.3524	5.155422	0.000709	7.094965	2.403839	0.000284
  36	3.4825e+00	1.3877	5.417836	0.000659	6.588182	2.232137	0.000264
  37	3.5820e+00	1.4246	5.656027	0.000598	5.980042	2.026093	0.000239
  38	3.6815e+00	1.4647	5.918441	0.000659	6.588182	2.232137	0.000264
  39	3.7810e+00	1.5080	6.156632	0.000598	5.980042	2.026093	0.000239
  40	3.8805e+00	1.5561	6.374637	0.000547	5.473259	1.854390	0.000219
  41	3.9800e+00	1.5866	6.677423	0.000760	7.601749	2.575542	0.000304
  42	4.0795e+00	1.6267	6.911576	0.000588	5.878686	1.991753	0.000235
  43	4.1790e+00	1.6684	7.165916	0.000639	6.385469	2.163455	0.000256
  44	4.2785e+00	1.7117	7.416218	0.000628	6.284112	2.129115	0.000252
  45	4.3780e+00	1.7470	7.662484	0.000618	6.182756	2.094774	0.000248
  46	4.4775e+00	1.7807	7.961232	0.000750	7.500392	2.541202	0.000300
  47	4.5770e+00	1.8256	8.159051	0.000497	4.966476	1.682688	0.000199
  48	4.6765e+00	1.8673	8.453762	0.000740	7.399035	2.506861	0.000296
  49	4.7760e+00	1.9058	8.691953	0.000598	5.980042	2.026093	0.000239
  50	4.8755e+00	1.9427	8.873624	0.000456	4.561049	1.545325	0.000183
  51	4.9750e+00	1.9860	9.164298	0.000730	7.297679	2.472520	0.000292
  52	5.0745e+00	2.0229	9.374229	0.000527	5.270546	1.785709	0.000211
  53	5.1740e+00	2.0614	9.677014	0.000760	7.601749	2.575542	0.000304
  54	5.2735e+00	2.1048	9.895020	0.000547	5.473259	1.854390	0.000219
  55	5.3730e+00	2.1417	10.201842	0.000770	7.703105	2.609883	0.000308
  56	5.4725e+00	2.1882	10.375439	0.000436	4.358336	1.476644	0.000174
  57	5.5720e+00	2.2219	10.658038	0.000709	7.094965	2.403839	0.000284
  58	5.6715e+00	2.2716	10.916415	0.000649	6.486825	2.197796	0.000260
  59	5.7710e+00	2.3053	11.138458	0.000557	5.574616	1.888731	0.000223
  60	5.8705e+00	2.3438	11.380686	0.000608	6.081399	2.060434	0.000243
  61	5.9700e+00	2.3711	11.667322	0.000720	7.196322	2.438180	0.000288
  62	6.0695e+00	2.4256	11.901476	0.000588	5.878686	1.991753	0.000235
  63	6.1690e+00	2.4673	12.159853	0.000649	6.486825	2.197796	0.000260
  64	6.2685e+00	2.5106	12.321338	0.000405	4.054266	1.373622	0.000162
  65	6.3680e+00	2.5491	12.624123	0.000760	7.601749	2.575542	0.000304
  66	6.4675e+00	2.5828	12.866352	0.000608	6.081399	2.060434	0.000243
  67	6.5670e+00	2.6181	13.116654	0.000628	6.284112	2.129115	0.000252
  68	6.6665e+00	2.6518	13.314474	0.000497	4.966476	1.682688	0.000199
  69	6.7660e+00	2.7031	13.568813	0.000639	6.385469	2.163455	0.000256
  70	6.8655e+00	2.7368	13.847376	0.000699	6.993609	2.369499	0.000280
  71	6.9650e+00	2.7817	14.093641	0.000618	6.182756	2.094774	0.000248
  72	7.0645e+00	2.8283	14.323758	0.000578	5.777329	1.957412	0.000231
  73	7.1640e+00	2.8684	14.578097	0.000639	6.385469	2.163455	0.000256
  74	7.2635e+00	2.9053	14.804177	0.000568	5.675972	1.923071	0.000227
  75	7.3630e+00	2.9390	15.038331	0.000588	5.878686	1.991753	0.000235
  76	7.4625e+00	2.9871	15.288633	0.000628	6.284112	2.129115	0.000252
  77	7.5620e+00	3.0192	15.502601	0.000537	5.371902	1.820050	0.000215
  78	7.6615e+00	3.0721	15.756941	0.000639	6.385469	2.163455	0.000256
  79	7.7610e+00	3.1010	15.999169	0.000608	6.081399	2.060434	0.000243
  80	7.8605e+00	3.1395	16.225249	0.000568	5.675972	1.923071	0.000227
  81	7.9600e+00	3.1796	16.471514	0.000618	6.182756	2.094774	0.000248
  82	8.0595e+00	3.2261	16.709705	0.000598	5.980042	2.026093	0.000239
  83	8.1590e+00	3.2550	16.943859	0.000588	5.878686	1.991753	0.000235
  84	8.2585e+00	3.2871	17.149753	0.000517	5.169189	1.751369	0.000207
  85	8.3580e+00	3.3464	17.408129	0.000649	6.486825	2.197796	0.000260
  86	8.4575e+00	3.3769	17.626135	0.000547	5.473259	1.854390	0.000219
  87	8.5570e+00	3.4202	17.888548	0.000659	6.588182	2.232137	0.000264
  88	8.6565e+00	3.4619	18.118665	0.000578	5.777329	1.957412	0.000231
  89	8.7560e+00	3.4972	18.296299	0.000446	4.459693	1.510985	0.000179
  90	8.8555e+00	3.5421	18.582936	0.000720	7.196322	2.438180	0.000288
  91	8.9550e+00	3.5742	18.804978	0.000557	5.574616	1.888731	0.000223
  92	9.0545e+00	3.6224	19.079503	0.000689	6.892252	2.335158	0.000276
  93	9.1540e+00	3.6609	19.329806	0.000628	6.284112	2.129115	0.000252
  94	9.2535e+00	3.6962	19.491291	0.000405	4.054266	1.373622	0.000162
  95	9.3530e+00	3.7427	19.737557	0.000618	6.182756	2.094774	0.000248
  96	9.4525e+00	3.7699	19.983822	0.000618	6.182756	2.094774	0.000248
  97	9.5520e+00	3.8213	20.189716	0.000517	5.169189	1.751369	0.000207
  98	9.6515e+00	3.8582	20.419833	0.000578	5.777329	1.957412	0.000231
  99	9.7510e+00	3.8983	20.658024	0.000598	5.980042	2.026093	0.000239
 100	9.8505e+00	3.9352	20.871992	0.000537	5.371902	1.820050	0.000215
 101	9.9500e+00	3.9833	21.094034	0.000557	5.574616	1.888731	0.000223
 102	1.0050e+01	4.0218	21.336262	0.000608	6.081399	2.060434	0.000243
 103	1.0149e+01	4.0699	21.546193	0.000527	5.270546	1.785709	0.000211
 104	1.0248e+01	4.1036	21.788422	0.000608	6.081399	2.060434	0.000243
 105	1.0348e+01	4.1309	22.010464	0.000557	5.574616	1.888731	0.000223
 106	1.0447e+01	4.1758	22.220395	0.000527	5.270546	1.785709	0.000211
 107	1.0547e+01	4.2159	22.478772	0.000649	6.486825	2.197796	0.000260
 108	1.0646e+01	4.2528	22.676591	0.000497	4.966476	1.682688	0.000199
 109	1.0746e+01	4.2993	22.918820	0.000608	6.081399	2.060434	0.000243
 110	1.0845e+01	4.3314	23.108565	0.000476	4.763762	1.614006	0.000191
 111	1.0945e+01	4.3812	23.338682	0.000578	5.777329	1.957412	0.000231
 112	1.1044e+01	4.4148	23.552650	0.000537	5.371902	1.820050	0.000215
 113	1.1144e+01	4.4550	23.778729	0.000568	5.675972	1.923071	0.000227
 114	1.1243e+01	4.4967	24.033069	0.000639	6.385469	2.163455	0.000256
 115	1.1343e+01	4.5496	24.230889	0.000497	4.966476	1.682688	0.000199
 116	1.1443e+01	4.5769	24.432745	0.000507	5.067832	1.717028	0.000203
 117	1.1542e+01	4.6122	24.670936	0.000598	5.980042	2.026093	0.000239
 118	1.1642e+01	4.6587	24.888942	0.000547	5.473259	1.854390	0.000219
 119	1.1741e+01	4.7004	25.102910	0.000537	5.371902	1.820050	0.000215
 120	1.1841e+01	4.7341	25.284581	0.000456	4.561049	1.545325	0.000183
 121	1.1940e+01	4.7710	25.498549	0.000537	5.371902	1.820050	0.000215
 122	1.2040e+01	4.8159	25.744815	0.000618	6.182756	2.094774	0.000248
 123	1.2139e+01	4.8512	25.942634	0.000497	4.966476	1.682688	0.000199
 124	1.2239e+01	4.8913	26.156602	0.000537	5.371902	1.820050	0.000215
 125	1.2338e+01	4.9330	26.350385	0.000487	4.865119	1.648347	0.000195
 126	1.2438e+01	4.9811	26.608762	0.000649	6.486825	2.197796	0.000260
 127	1.2537e+01	5.0132	26.778321	0.000426	4.256979	1.442304	0.000170
 128	1.2636e+01	5.0549	27.020549	0.000608	6.081399	2.060434	0.000243
 129	1.2736e+01	5.0902	27.238555	0.000547	5.473259	1.854390	0.000219
 130	1.2835e+01	5.1368	27.452523	0.000537	5.371902	1.820050	0.000215
 131	1.2935e+01	5.1704	27.646306	0.000487	4.865119	1.648347	0.000195
 132	1.3034e+01	5.2202	27.872385	0.000568	5.675972	1.923071	0.000227
 133	1.3134e+01	5.2603	28.094428	0.000557	5.574616	1.888731	0.000223
 134	1.3233e+01	5.2908	28.316470	0.000557	5.574616	1.888731	0.000223
 135	1.3333e+01	5.3373	28.542550	0.000568	5.675972	1.923071	0.000227
 136	1.3432e+01	5.3790	28.732295	0.000476	4.763762	1.614006	0.000191
 137	1.3532e+01	5.4159	28.974523	0.000608	6.081399	2.060434	0.000243
 138	1.3632e+01	5.4544	29.127934	0.000385	3.851553	1.304941	0.000154
 139	1.3731e+01	5.4945	29.370162	0.000608	6.081399	2.060434	0.000243
 140	1.3831e+01	5.5314	29.580094	0.000527	5.270546	1.785709	0.000211
 141	1.3930e+01	5.5827	29.790025	0.000527	5.270546	1.785709	0.000211
 142	1.4030e+01	5.6116	30.028216	0.000598	5.980042	2.026093	0.000239
 143	1.4129e+01	5.6501	30.221998	0.000487	4.865119	1.648347	0.000195
 144	1.4229e+01	5.6902	30.431929	0.000527	5.270546	1.785709	0.000211
 145	1.4328e+01	5.7367	30.633786	0.000507	5.067832	1.717028	0.000203
 146	1.4428e+01	5.7720	30.835643	0.000507	5.067832	1.717028	0.000203
 147	1.4527e+01	5.8137	31.041537	0.000517	5.169189	1.751369	0.000207
 148	1.4627e+01	5.8538	31.235319	0.000487	4.865119	1.648347	0.000195
 149	1.4726e+01	5.8972	31.481584	0.000618	6.182756	2.094774	0.000248
 150	1.4825e+01	5.9389	31.687478	0.000517	5.169189	1.751369	0.000207
 151	1.4925e+01	5.9694	31.869150	0.000456	4.561049	1.545325	0.000183
 152	1.5024e+01	6.0046	32.095229	0.000568	5.675972	1.923071	0.000227
 153	1.5124e+01	6.0399	32.297086	0.000507	5.067832	1.717028	0.000203
 154	1.5223e+01	6.0865	32.470683	0.000436	4.358336	1.476644	0.000174
 155	1.5323e+01	6.1314	32.712911	0.000608	6.081399	2.060434	0.000243
 156	1.5422e+01	6.1651	32.918805	0.000517	5.169189	1.751369	0.000207
 157	1.5522e+01	6.2068	33.116624	0.000497	4.966476	1.682688	0.000199
 158	1.5621e+01	6.2565	33.322518	0.000517	5.169189	1.751369	0.000207
 159	1.5721e+01	6.2822	33.520338	0.000497	4.966476	1.682688	0.000199
 160	1.5820e+01	6.3335	33.726232	0.000517	5.169189	1.751369	0.000207
 161	1.5920e+01	6.3736	33.948274	0.000557	5.574616	1.888731	0.000223
 162	1.6020e+01	6.4073	34.138020	0.000476	4.763762	1.614006	0.000191
 163	1.6119e+01	6.4410	34.327765	0.000476	4.763762	1.614006	0.000191
 164	1.6218e+01	6.4811	34.549808	0.000557	5.574616	1.888731	0.000223
 165	1.6318e+01	6.5244	34.715330	0.000416	4.155623	1.407963	0.000166
 166	1.6418e+01	6.5725	34.921224	0.000517	5.169189	1.751369	0.000207
 167	1.6517e+01	6.5982	35.143267	0.000557	5.574616	1.888731	0.000223
 168	1.6616e+01	6.6447	35.345123	0.000507	5.067832	1.717028	0.000203
 169	1.6716e+01	6.6832	35.530832	0.000466	4.662406	1.579666	0.000187
 170	1.6816e+01	6.7233	35.756911	0.000568	5.675972	1.923071	0.000227
 171	1.6915e+01	6.7618	35.934545	0.000446	4.459693	1.510985	0.000179
 172	1.7015e+01	6.8019	36.176773	0.000608	6.081399	2.060434	0.000243
 173	1.7114e+01	6.8453	36.342296	0.000416	4.155623	1.407963	0.000166
 174	1.7213e+01	6.8902	36.540116	0.000497	4.966476	1.682688	0.000199
 175	1.7313e+01	6.9191	36.733898	0.000487	4.865119	1.648347	0.000195
 176	1.7413e+01	6.9704	36.968052	0.000588	5.878686	1.991753	0.000235
 177	1.7512e+01	7.0009	37.141649	0.000436	4.358336	1.476644	0.000174
 178	1.7611e+01	7.0458	37.319283	0.000446	4.459693	1.510985	0.000179
 179	1.7711e+01	7.0907	37.561511	0.000608	6.081399	2.060434	0.000243
 180	1.7811e+01	7.1148	37.735108	0.000436	4.358336	1.476644	0.000174
 181	1.7910e+01	7.1565	37.949076	0.000537	5.371902	1.820050	0.000215
 182	1.8009e+01	7.2030	38.118636	0.000426	4.256979	1.442304	0.000170
 183	1.8109e+01	7.2367	38.320492	0.000507	5.067832	1.717028	0.000203
 184	1.8209e+01	7.2784	38.522349	0.000507	5.067832	1.717028	0.000203
 185	1.8308e+01	7.3169	38.716132	0.000487	4.865119	1.648347	0.000195
 186	1.8407e+01	7.3602	38.926063	0.000527	5.270546	1.785709	0.000211
 187	1.8507e+01	7.3955	39.103697	0.000446	4.459693	1.510985	0.000179
 188	1.8607e+01	7.4452	39.273256	0.000426	4.256979	1.442304	0.000170
 189	1.8706e+01	7.4789	39.491262	0.000547	5.473259	1.854390	0.000219
 190	1.8805e+01	7.5255	39.685044	0.000487	4.865119	1.648347	0.000195
 191	1.8905e+01	7.5575	39.878827	0.000487	4.865119	1.648347	0.000195
 192	1.9005e+01	7.5960	40.044349	0.000416	4.155623	1.407963	0.000166
 193	1.9104e+01	7.6474	40.254280	0.000527	5.270546	1.785709	0.000211
 194	1.9203e+01	7.6811	40.448063	0.000487	4.865119	1.648347	0.000195
 195	1.9303e+01	7.7244	40.666068	0.000547	5.473259	1.854390	0.000219
 196	1.9402e+01	7.7581	40.855814	0.000476	4.763762	1.614006	0.000191
 197	1.9502e+01	7.7998	41.045559	0.000476	4.763762	1.614006	0.000191
 198	1.9602e+01	7.8463	41.231267	0.000466	4.662406	1.579666	0.000187
 199	1.9701e+01	7.8816	41.412938	0.000456	4.561049	1.545325	0.000183
 200	1.9800e+01	7.9201	41.626907	0.000537	5.371902	1.820050	0.000215
 201	1.9900e+01	7.9570	41.840875	0.000537	5.371902	1.820050	0.000215
 202	2.0000e+01	8.0067	41.990249	0.000375	3.750196	1.270601	0.000150
 203	2.0099e+01	8.0340	42.192106	0.000507	5.067832	1.717028	0.000203
 204	2.0198e+01	8.0805	42.389925	0.000497	4.966476	1.682688	0.000199
 205	2.0298e+01	8.1270	42.583708	0.000487	4.865119	1.648347	0.000195
 206	2.0398e+01	8.1591	42.749230	0.000416	4.155623	1.407963	0.000166
 207	2.0497e+01	8.1992	42.959161	0.000527	5.270546	1.785709	0.000211
 208	2.0596e+01	8.2474	43.128721	0.000426	4.256979	1.442304	0.000170
 209	2.0696e+01	8.2762	43.298281	0.000426	4.256979	1.442304	0.000170
 210	2.0796e+01	8.3260	43.504175	0.000517	5.169189	1.751369	0.000207
 211	2.0895e+01	8.3629	43.726217	0.000557	5.574616	1.888731	0.000223
 212	2.0994e+01	8.3982	43.891740	0.000416	4.155623	1.407963	0.000166
 213	2.1094e+01	8.4415	44.101671	0.000527	5.270546	1.785709	0.000211
 214	2.1194e+01	8.4768	44.283342	0.000456	4.561049	1.545325	0.000183
 215	2.1293e+01	8.5201	44.444827	0.000405	4.054266	1.373622	0.000162
 216	2.1392e+01	8.5666	44.650721	0.000517	5.169189	1.751369	0.000207
 217	2.1492e+01	8.6003	44.816244	0.000416	4.155623	1.407963	0.000166
 218	2.1591e+01	8.6420	45.005989	0.000476	4.763762	1.614006	0.000191
 219	2.1691e+01	8.6789	45.199772	0.000487	4.865119	1.648347	0.000195
 220	2.1791e+01	8.7174	45.361257	0.000405	4.054266	1.373622	0.000162
 221	2.1890e+01	8.7623	45.563114	0.000507	5.067832	1.717028	0.000203
 222	2.1989e+01	8.7992	45.760934	0.000497	4.966476	1.682688	0.000199
 223	2.2089e+01	8.8345	45.894159	0.000334	3.344769	1.133239	0.000134
 224	2.2189e+01	8.8762	46.120239	0.000568	5.675972	1.923071	0.000227
 225	2.2288e+01	8.9195	46.265576	0.000365	3.648839	1.236260	0.000146
 226	2.2387e+01	8.9500	46.475507	0.000527	5.270546	1.785709	0.000211
 227	2.2487e+01	8.9965	46.641029	0.000416	4.155623	1.407963	0.000166
 228	2.2587e+01	9.0415	46.798477	0.000395	3.952909	1.339282	0.000158
 229	2.2686e+01	9.0751	46.996297	0.000497	4.966476	1.682688	0.000199
 230	2.2785e+01	9.1120	47.161820	0.000416	4.155623	1.407963	0.000166
 231	2.2885e+01	9.1618	47.339454	0.000446	4.459693	1.510985	0.000179
 232	2.2985e+01	9.1906	47.513051	0.000436	4.358336	1.476644	0.000174
 233	2.3084e+01	9.2340	47.674536	0.000405	4.054266	1.373622	0.000162
 234	2.3183e+01	9.2693	47.920801	0.000618	6.182756	2.094774	0.000248
 235	2.3283e+01	9.3206	48.054027	0.000334	3.344769	1.133239	0.000134
 236	2.3383e+01	9.3591	48.223586	0.000426	4.256979	1.442304	0.000170
 237	2.3482e+01	9.3976	48.393146	0.000426	4.256979	1.442304	0.000170
 238	2.3581e+01	9.4361	48.586929	0.000487	4.865119	1.648347	0.000195
 239	2.3681e+01	9.4698	48.780711	0.000487	4.865119	1.648347	0.000195
 240	2.3780e+01	9.5179	48.938159	0.000395	3.952909	1.339282	0.000158
 241	2.3880e+01	9.5548	49.148090	0.000527	5.270546	1.785709	0.000211
 242	2.3980e+01	9.5853	49.273242	0.000314	3.142056	1.064557	0.000126
 243	2.4079e+01	9.6350	49.495284	0.000557	5.574616	1.888731	0.000223
 244	2.4178e+01	9.6751	49.624472	0.000324	3.243413	1.098898	0.000130
 245	2.4278e+01	9.7168	49.822292	0.000497	4.966476	1.682688	0.000199
 246	2.4378e+01	9.7537	49.963592	0.000355	3.547483	1.201920	0.000142
 247	2.4477e+01	9.7954	50.137189	0.000436	4.358336	1.476644	0.000174
 248	2.4576e+01	9.8339	50.322897	0.000466	4.662406	1.579666	0.000187
 249	2.4676e+01	9.8789	50.492457	0.000426	4.256979	1.442304	0.000170
 250	2.4776e+01	9.9110	50.682202	0.000476	4.763762	1.614006	0.000191
 251	2.4875e+01	9.9543	50.827539	0.000365	3.648839	1.236260	0.000146
 252	2.4974e+01	9.9944	51.021321	0.000487	4.865119	1.648347	0.000195
 253	2.5074e+01	10.0297	51.162621	0.000355	3.547483	1.201920	0.000142
 254	2.5174e+01	10.0762	51.307958	0.000365	3.648839	1.236260	0.000146
 255	2.5273e+01	10.1163	51.517889	0.000527	5.270546	1.785709	0.000211
 256	2.5372e+01	10.1468	51.703597	0.000466	4.662406	1.579666	0.000187
 257	2.5472e+01	10.1933	51.865083	0.000405	4.054266	1.373622	0.000162
 258	2.5572e+01	10.2382	52.026568	0.000405	4.054266	1.373622	0.000162
 259	2.5671e+01	10.2703	52.216314	0.000476	4.763762	1.614006	0.000191
 260	2.5770e+01	10.3072	52.381836	0.000416	4.155623	1.407963	0.000166
 261	2.5870e+01	10.3441	52.539284	0.000395	3.952909	1.339282	0.000158
 262	2.5970e+01	10.3922	52.716918	0.000446	4.459693	1.510985	0.000179
 263	2.6069e+01	10.4243	52.866292	0.000375	3.750196	1.270601	0.000150
 264	2.6169e+01	10.4724	53.023741	0.000395	3.952909	1.339282	0.000158
 265	2.6268e+01	10.5077	53.213486	0.000476	4.763762	1.614006	0.000191
 266	2.6367e+01	10.5430	53.370934	0.000395	3.952909	1.339282	0.000158
 267	2.6467e+01	10.5815	53.576828	0.000517	5.169189	1.751369	0.000207
 268	2.6567e+01	10.6329	53.746388	0.000426	4.256979	1.442304	0.000170
 269	2.6666e+01	10.6665	53.911911	0.000416	4.155623	1.407963	0.000166
 270	2.6765e+01	10.7099	54.037062	0.000314	3.142056	1.064557	0.000126
 271	2.6865e+01	10.7435	54.218733	0.000456	4.561049	1.545325	0.000183
 272	2.6965e+01	10.7981	54.368107	0.000375	3.750196	1.270601	0.000150
 273	2.7064e+01	10.8350	54.586112	0.000547	5.473259	1.854390	0.000219
 274	2.7163e+01	10.8735	54.723375	0.000345	3.446126	1.167579	0.000138
 275	2.7263e+01	10.9008	54.868712	0.000365	3.648839	1.236260	0.000146
 276	2.7363e+01	10.9569	55.014049	0.000365	3.648839	1.236260	0.000146
 277	2.7462e+01	10.9906	55.195720	0.000456	4.561049	1.545325	0.000183
 278	2.7561e+01	11.0211	55.385465	0.000476	4.763762	1.614006	0.000191
 279	2.7661e+01	11.0708	55.502542	0.000294	2.939343	0.995876	0.000118
 280	2.7761e+01	11.1173	55.668065	0.000416	4.155623	1.407963	0.000166
 281	2.7860e+01	11.1398	55.841662	0.000436	4.358336	1.476644	0.000174
 282	2.7959e+01	11.1895	56.027370	0.000466	4.662406	1.579666	0.000187
 283	2.8059e+01	11.2280	56.140410	0.000284	2.837986	0.961536	0.000114
 284	2.8159e+01	11.2665	56.293821	0.000385	3.851553	1.304941	0.000154
 285	2.8258e+01	11.3050	56.471455	0.000446	4.459693	1.510985	0.000179
 286	2.8358e+01	11.3499	56.632940	0.000405	4.054266	1.373622	0.000162
 287	2.8457e+01	11.3836	56.782314	0.000375	3.750196	1.270601	0.000150
 288	2.8556e+01	11.4221	56.935725	0.000385	3.851553	1.304941	0.000154
 289	2.8656e+01	11.4687	57.097211	0.000405	4.054266	1.373622	0.000162
 290	2.8756e+01	11.5056	57.242548	0.000365	3.648839	1.236260	0.000146
 291	2.8855e+01	11.5489	57.444404	0.000507	5.067832	1.717028	0.000203
 292	2.8954e+01	11.5810	57.581667	0.000345	3.446126	1.167579	0.000138
 293	2.9054e+01	11.6259	57.743152	0.000405	4.054266	1.373622	0.000162
 294	2.9154e+01	11.6724	57.888489	0.000365	3.648839	1.236260	0.000146
 295	2.9253e+01	11.7077	58.066123	0.000446	4.459693	1.510985	0.000179
 296	2.9352e+01	11.7574	58.235683	0.000426	4.256979	1.442304	0.000170
 297	2.9452e+01	11.7847	58.348723	0.000284	2.837986	0.961536	0.000114
 298	2.9552e+01	11.8248	58.558654	0.000527	5.270546	1.785709	0.000211
 299	2.9651e+01	11.8665	58.712065	0.000385	3.851553	1.304941	0.000154
 300	2.9750e+01	11.9098	58.853365	0.000355	3.547483	1.201920	0.000142
 301	2.9850e+01	11.9515	59.047147	0.000487	4.865119	1.648347	0.000195
 302	2.9950e+01	11.9852	59.208633	0.000405	4.054266	1.373622	0.000162
 303	3.0049e+01	12.0221	59.366081	0.000395	3.952909	1.339282	0.000158
 304	3.0148e+01	12.0638	59.499307	0.000334	3.344769	1.133239	0.000134
 305	3.0248e+01	12.0943	59.644643	0.000365	3.648839	1.236260	0.000146
 306	3.0348e+01	12.1424	59.777869	0.000334	3.344769	1.133239	0.000134
 307	3.0447e+01	12.1809	60.003948	0.000568	5.675972	1.923071	0.000227
 308	3.0547e+01	12.2226	60.157360	0.000385	3.851553	1.304941	0.000154
 309	3.0646e+01	12.2692	60.330956	0.000436	4.358336	1.476644	0.000174
 310	3.0745e+01	12.3077	60.472256	0.000355	3.547483	1.201920	0.000142
 311	3.0845e+01	12.3366	60.641816	0.000426	4.256979	1.442304	0.000170
 312	3.0945e+01	12.3863	60.750819	0.000274	2.736630	0.927195	0.000110
 313	3.1044e+01	12.4152	60.924415	0.000436	4.358336	1.476644	0.000174
 314	3.1143e+01	12.4585	61.061678	0.000345	3.446126	1.167579	0.000138
 315	3.1243e+01	12.4986	61.239312	0.000446	4.459693	1.510985	0.000179
 316	3.1343e+01	12.5531	61.408872	0.000426	4.256979	1.442304	0.000170
 317	3.1442e+01	12.5900	61.562283	0.000385	3.851553	1.304941	0.000154
 318	3.1541e+01	12.6205	61.723768	0.000405	4.054266	1.373622	0.000162
 319	3.1641e+01	12.6574	61.901402	0.000446	4.459693	1.510985	0.000179
 320	3.1741e+01	12.7039	62.034628	0.000334	3.344769	1.133239	0.000134
 321	3.1840e+01	12.7504	62.232447	0.000497	4.966476	1.682688	0.000199
 322	3.1939e+01	12.7841	62.349524	0.000294	2.939343	0.995876	0.000118
 323	3.2039e+01	12.8210	62.498898	0.000375	3.750196	1.270601	0.000150
 324	3.2139e+01	12.8579	62.664421	0.000416	4.155623	1.407963	0.000166
 325	3.2238e+01	12.8996	62.785535	0.000304	3.040699	1.030217	0.000122
 326	3.2337e+01	12.9381	62.983355	0.000497	4.966476	1.682688	0.000199
 327	3.2437e+01	12.9750	63.160989	0.000446	4.459693	1.510985	0.000179
 328	3.2536e+01	13.0135	63.322474	0.000405	4.054266	1.373622	0.000162
 329	3.2636e+01	13.0536	63.427440	0.000264	2.635273	0.892855	0.000105
 330	3.2736e+01	13.0986	63.601036	0.000436	4.358336	1.476644	0.000174
 331	3.2835e+01	13.1467	63.770596	0.000426	4.256979	1.442304	0.000170
 332	3.2934e+01	13.1788	63.915933	0.000365	3.648839	1.236260	0.000146
 333	3.3034e+01	13.2125	64.033010	0.000294	2.939343	0.995876	0.000118
 334	3.3133e+01	13.2622	64.222755	0.000476	4.763762	1.614006	0.000191
 335	3.3233e+01	13.2959	64.408464	0.000466	4.662406	1.579666	0.000187
 336	3.3333e+01	13.3408	64.537652	0.000324	3.243413	1.098898	0.000130
 337	3.3432e+01	13.3841	64.707212	0.000426	4.256979	1.442304	0.000170
 338	3.3532e+01	13.4242	64.852548	0.000365	3.648839	1.236260	0.000146
 339	3.3631e+01	13.4547	65.005960	0.000385	3.851553	1.304941	0.000154
 340	3.3730e+01	13.5012	65.151297	0.000365	3.648839	1.236260	0.000146
 341	3.3830e+01	13.5445	65.316819	0.000416	4.155623	1.407963	0.000166
 342	3.3929e+01	13.5734	65.494453	0.000446	4.459693	1.510985	0.000179
 343	3.4029e+01	13.6167	65.623641	0.000324	3.243413	1.098898	0.000130
 344	3.4129e+01	13.6600	65.781090	0.000395	3.952909	1.339282	0.000158
 345	3.4228e+01	13.6969	65.942575	0.000405	4.054266	1.373622	0.000162
 346	3.4328e+01	13.7354	66.079838	0.000345	3.446126	1.167579	0.000138
 347	3.4427e+01	13.7659	66.213063	0.000334	3.344769	1.133239	0.000134
 348	3.4526e+01	13.8157	66.366474	0.000385	3.851553	1.304941	0.000154
 349	3.4626e+01	13.8558	66.519886	0.000385	3.851553	1.304941	0.000154
 350	3.4725e+01	13.8878	66.701557	0.000456	4.561049	1.545325	0.000183
 351	3.4825e+01	13.9392	66.838819	0.000345	3.446126	1.167579	0.000138
 352	3.4925e+01	13.9793	66.984156	0.000365	3.648839	1.236260	0.000146
 353	3.5024e+01	14.0146	67.169864	0.000466	4.662406	1.579666	0.000187
 354	3.5123e+01	14.0531	67.299053	0.000324	3.243413	1.098898	0.000130
 355	3.5223e+01	14.1028	67.464575	0.000416	4.155623	1.407963	0.000166
 356	3.5322e+01	14.1317	67.638172	0.000436	4.358336	1.476644	0.000174
 357	3.5422e+01	14.1750	67.759286	0.000304	3.040699	1.030217	0.000122
 358	3.5522e+01	14.2071	67.932883	0.000436	4.358336	1.476644	0.000174
 359	3.5621e+01	14.2488	68.070146	0.000345	3.446126	1.167579	0.000138
 360	3.5721e+01	14.2905	68.215483	0.000365	3.648839	1.236260	0.000146
 361	3.5820e+01	14.3290	68.393117	0.000446	4.459693	1.510985	0.000179
 362	3.5919e+01	14.3675	68.534416	0.000355	3.547483	1.201920	0.000142
 363	3.6019e+01	14.4124	68.720125	0.000466	4.662406	1.579666	0.000187
 364	3.6118e+01	14.4638	68.857387	0.000345	3.446126	1.167579	0.000138
 365	3.6218e+01	14.4975	69.014835	0.000395	3.952909	1.339282	0.000158
 366	3.6318e+01	14.5311	69.152098	0.000345	3.446126	1.167579	0.000138
 367	3.6417e+01	14.5584	69.301472	0.000375	3.750196	1.270601	0.000150
 368	3.6517e+01	14.6081	69.475069	0.000436	4.358336	1.476644	0.000174
 369	3.6616e+01	14.6418	69.640591	0.000416	4.155623	1.407963	0.000166
 370	3.6715e+01	14.7012	69.794003	0.000385	3.851553	1.304941	0.000154
 371	3.6815e+01	14.7269	69.923191	0.000324	3.243413	1.098898	0.000130
 372	3.6914e+01	14.7718	70.080639	0.000395	3.952909	1.339282	0.000158
 373	3.7014e+01	14.8215	70.213865	0.000334	3.344769	1.133239	0.000134
 374	3.7114e+01	14.8536	70.395536	0.000456	4.561049	1.545325	0.000183
 375	3.7213e+01	14.8969	70.552984	0.000395	3.952909	1.339282	0.000158
 376	3.7313e+01	14.9354	70.698321	0.000365	3.648839	1.236260	0.000146
 377	3.7412e+01	14.9723	70.839621	0.000355	3.547483	1.201920	0.000142
 378	3.7511e+01	15.0124	71.013218	0.000436	4.358336	1.476644	0.000174
 379	3.7611e+01	15.0525	71.170666	0.000395	3.952909	1.339282	0.000158
 380	3.7711e+01	15.0990	71.316003	0.000365	3.648839	1.236260	0.000146
 381	3.7810e+01	15.1247	71.489600	0.000436	4.358336	1.476644	0.000174
 382	3.7910e+01	15.1728	71.610714	0.000304	3.040699	1.030217	0.000122
 383	3.8009e+01	15.2113	71.743939	0.000334	3.344769	1.133239	0.000134
 384	3.8108e+01	15.2530	71.913499	0.000426	4.256979	1.442304	0.000170
 385	3.8208e+01	15.2867	72.054799	0.000355	3.547483	1.201920	0.000142
 386	3.8307e+01	15.3268	72.224358	0.000426	4.256979	1.442304	0.000170
 387	3.8407e+01	15.3782	72.345472	0.000304	3.040699	1.030217	0.000122
 388	3.8507e+01	15.4135	72.523106	0.000446	4.459693	1.510985	0.000179
 389	3.8606e+01	15.4407	72.696703	0.000436	4.358336	1.476644	0.000174
 390	3.8706e+01	15.4937	72.833966	0.000345	3.446126	1.167579	0.000138
 391	3.8805e+01	15.5306	72.942969	0.000274	2.736630	0.927195	0.000110
 392	3.8904e+01	15.5787	73.132714	0.000476	4.763762	1.614006	0.000191
 393	3.9004e+01	15.6108	73.257865	0.000314	3.142056	1.064557	0.000126
 394	3.9103e+01	15.6493	73.395128	0.000345	3.446126	1.167579	0.000138
 395	3.9203e+01	15.6974	73.568725	0.000436	4.358336	1.476644	0.000174
 396	3.9303e+01	15.7279	73.701950	0.000334	3.344769	1.133239	0.000134
 397	3.9402e+01	15.7632	73.831138	0.000324	3.243413	1.098898	0.000130
 398	3.9502e+01	15.8097	74.008772	0.000446	4.459693	1.510985	0.000179
 399	3.9601e+01	15.8418	74.166221	0.000395	3.952909	1.339282	0.000158
 400	3.9700e+01	15.8883	74.295409	0.000324	3.243413	1.098898	0.000130
 401	3.9800e+01	15.9204	74.477080	0.000456	4.561049	1.545325	0.000183
 402	3.9900e+01	15.9605	74.590120	0.000284	2.837986	0.961536	0.000114
 403	3.9999e+01	16.0118	74.731420	0.000355	3.547483	1.201920	0.000142
 404	4.0099e+01	16.0439	74.884831	0.000385	3.851553	1.304941	0.000154
 405	4.0198e+01	16.0824	75.022093	0.000345	3.446126	1.167579	0.000138
 406	4.0297e+01	16.1274	75.183579	0.000405	4.054266	1.373622	0.000162
 407	4.0397e+01	16.1659	75.357176	0.000436	4.358336	1.476644	0.000174
 408	4.0496e+01	16.2108	75.494438	0.000345	3.446126	1.167579	0.000138
 409	4.0596e+01	16.2461	75.668035	0.000436	4.358336	1.476644	0.000174
 410	4.0696e+01	16.2926	75.777038	0.000274	2.736630	0.927195	0.000110
 411	4.0795e+01	16.3295	75.954672	0.000446	4.459693	1.510985	0.000179
 412	4.0895e+01	16.3648	76.071749	0.000294	2.939343	0.995876	0.000118
 413	4.0994e+01	16.4033	76.237271	0.000416	4.155623	1.407963	0.000166
 414	4.1093e+01	16.4466	76.350311	0.000284	2.837986	0.961536	0.000114
 415	4.1193e+01	16.4867	76.519871	0.000426	4.256979	1.442304	0.000170
 416	4.1292e+01	16.5172	76.673282	0.000385	3.851553	1.304941	0.000154
 417	4.1392e+01	16.5669	76.842842	0.000426	4.256979	1.442304	0.000170
 418	4.1492e+01	16.6070	76.984141	0.000355	3.547483	1.201920	0.000142
 419	4.1591e+01	16.6535	77.153701	0.000426	4.256979	1.442304	0.000170
 420	4.1691e+01	16.6840	77.286927	0.000334	3.344769	1.133239	0.000134
 421	4.1790e+01	16.7241	77.408041	0.000304	3.040699	1.030217	0.000122
 422	4.1889e+01	16.7562	77.581637	0.000436	4.358336	1.476644	0.000174
 423	4.1989e+01	16.7979	77.731012	0.000375	3.750196	1.270601	0.000150
 424	4.2089e+01	16.8412	77.868274	0.000345	3.446126	1.167579	0.000138
 425	4.2188e+01	16.8878	78.041871	0.000436	4.358336	1.476644	0.000174
 426	4.2288e+01	16.9166	78.158948	0.000294	2.939343	0.995876	0.000118
 427	4.2387e+01	16.9632	78.340619	0.000456	4.561049	1.545325	0.000183
 428	4.2486e+01	17.0033	78.494030	0.000385	3.851553	1.304941	0.000154
 429	4.2586e+01	17.0402	78.607070	0.000284	2.837986	0.961536	0.000114
 430	4.2685e+01	17.0851	78.792778	0.000466	4.662406	1.579666	0.000187
 431	4.2785e+01	17.1300	78.950226	0.000395	3.952909	1.339282	0.000158
 432	4.2885e+01	17.1589	79.079415	0.000324	3.243413	1.098898	0.000130
 433	4.2984e+01	17.2070	79.212640	0.000334	3.344769	1.133239	0.000134
 434	4.3084e+01	17.2407	79.366051	0.000385	3.851553	1.304941	0.000154
 435	4.3183e+01	17.2920	79.555797	0.000476	4.763762	1.614006	0.000191
 436	4.3282e+01	17.3161	79.721319	0.000416	4.155623	1.407963	0.000166
 437	4.3382e+01	17.3546	79.850508	0.000324	3.243413	1.098898	0.000130
 438	4.3481e+01	17.3947	80.016030	0.000416	4.155623	1.407963	0.000166
 439	4.3581e+01	17.4476	80.133107	0.000294	2.939343	0.995876	0.000118
 440	4.3681e+01	17.4877	80.270370	0.000345	3.446126	1.167579	0.000138
 441	4.3780e+01	17.5198	80.456078	0.000466	4.662406	1.579666	0.000187
 442	4.3880e+01	17.5567	80.617564	0.000405	4.054266	1.373622	0.000162
 443	4.3979e+01	17.6032	80.766938	0.000375	3.750196	1.270601	0.000150
 444	4.4078e+01	17.6482	80.932460	0.000416	4.155623	1.407963	0.000166
 445	4.4178e+01	17.6786	81.118168	0.000466	4.662406	1.579666	0.000187
 446	4.4278e+01	17.7139	81.223134	0.000264	2.635273	0.892855	0.000105
 447	4.4377e+01	17.7621	81.376545	0.000385	3.851553	1.304941	0.000154
 448	4.4477e+01	17.7974	81.525919	0.000375	3.750196	1.270601	0.000150
 449	4.4576e+01	17.8455	81.687405	0.000405	4.054266	1.373622	0.000162
 450	4.4675e+01	17.8744	81.808519	0.000304	3.040699	1.030217	0.000122
 451	4.4775e+01	17.9193	81.978078	0.000426	4.256979	1.442304	0.000170
 452	4.4874e+01	17.9674	82.143601	0.000416	4.155623	1.407963	0.000166
 453	4.4974e+01	18.0075	82.292975	0.000375	3.750196	1.270601	0.000150
 454	4.5074e+01	18.0300	82.458497	0.000416	4.155623	1.407963	0.000166
 455	4.5173e+01	18.0813	82.628057	0.000426	4.256979	1.442304	0.000170
 456	4.5273e+01	18.1150	82.757245	0.000324	3.243413	1.098898	0.000130
 457	4.5372e+01	18.1615	82.922768	0.000416	4.155623	1.407963	0.000166
 458	4.5471e+01	18.2032	83.047919	0.000314	3.142056	1.064557	0.000126
 459	4.5571e+01	18.2449	83.225553	0.000446	4.459693	1.510985	0.000179
 460	4.5670e+01	18.2802	83.399150	0.000436	4.358336	1.476644	0.000174
 461	4.5770e+01	18.3171	83.580821	0.000456	4.561049	1.545325	0.000183
 462	4.5870e+01	18.3588	83.714047	0.000334	3.344769	1.133239	0.000134
 463	4.5969e+01	18.4022	83.887644	0.000436	4.358336	1.476644	0.000174
 464	4.6069e+01	18.4407	84.037018	0.000375	3.750196	1.270601	0.000150
 465	4.6168e+01	18.4840	84.226763	0.000476	4.763762	1.614006	0.000191
 466	4.6267e+01	18.5241	84.380174	0.000385	3.851553	1.304941	0.000154
 467	4.6367e+01	18.5642	84.582031	0.000507	5.067832	1.717028	0.000203
 468	4.6467e+01	18.6059	84.691034	0.000274	2.736630	0.927195	0.000110
 469	4.6566e+01	18.6460	84.856556	0.000416	4.155623	1.407963	0.000166
 470	4.6666e+01	18.6813	85.046301	0.000476	4.763762	1.614006	0.000191
 471	4.6765e+01	18.7198	85.244121	0.000497	4.966476	1.682688	0.000199
 472	4.6864e+01	18.7583	85.381384	0.000345	3.446126	1.167579	0.000138
 473	4.6964e+01	18.8000	85.526721	0.000365	3.648839	1.236260	0.000146
 474	4.7063e+01	18.8433	85.720503	0.000487	4.865119	1.648347	0.000195
 475	4.7163e+01	18.8722	85.922360	0.000507	5.067832	1.717028	0.000203
 476	4.7263e+01	18.9155	86.075771	0.000385	3.851553	1.304941	0.000154
 477	4.7362e+01	18.9572	86.237257	0.000405	4.054266	1.373622	0.000162
 478	4.7462e+01	19.0037	86.414890	0.000446	4.459693	1.510985	0.000179
 479	4.7561e+01	19.0358	86.600599	0.000466	4.662406	1.579666	0.000187
 480	4.7660e+01	19.0743	86.770158	0.000426	4.256979	1.442304	0.000170
 481	4.7760e+01	19.1160	86.943755	0.000436	4.358336	1.476644	0.000174
 482	4.7859e+01	19.1497	87.125426	0.000456	4.561049	1.545325	0.000183
 483	4.7959e+01	19.1914	87.315172	0.000476	4.763762	1.614006	0.000191
 484	4.8059e+01	19.2428	87.464546	0.000375	3.750196	1.270601	0.000150
 485	4.8158e+01	19.2700	87.638143	0.000436	4.358336	1.476644	0.000174
 486	4.8258e+01	19.3069	87.819814	0.000456	4.561049	1.545325	0.000183
 487	4.8357e+01	19.3663	88.029745	0.000527	5.270546	1.785709	0.000211
 488	4.8456e+01	19.3920	88.179119	0.000375	3.750196	1.270601	0.000150
 489	4.8556e+01	19.4337	88.360790	0.000456	4.561049	1.545325	0.000183
 490	4.8656e+01	19.4850	88.558610	0.000497	4.966476	1.682688	0.000199
 491	4.8755e+01	19.5139	88.740281	0.000456	4.561049	1.545325	0.000183
 492	4.8855e+01	19.5524	88.934063	0.000487	4.865119	1.648347	0.000195
 493	4.8954e+01	19.5941	89.127846	0.000487	4.865119	1.648347	0.000195
 494	4.9053e+01	19.6358	89.321628	0.000487	4.865119	1.648347	0.000195
 495	4.9153e+01	19.6743	89.523485	0.000507	5.067832	1.717028	0.000203
 496	4.9252e+01	19.7128	89.709193	0.000466	4.662406	1.579666	0.000187
 497	4.9352e+01	19.7593	89.878753	0.000426	4.256979	1.442304	0.000170
 498	4.9452e+01	19.7978	90.108870	0.000578	5.777329	1.957412	0.000231
 499	4.9551e+01	19.8299	90.274392	0.000416	4.155623	1.407963	0.000166
 500	4.9651e+01	19.8748	90.496435	0.000557	5.574616	1.888731	0.000223
 501	4.9750e+01	19.9166	90.682143	0.000466	4.662406	1.579666	0.000187
 502	4.9849e+01	19.9518	90.888037	0.000517	5.169189	1.751369	0.000207
 503	4.9949e+01	19.9919	91.081819	0.000487	4.865119	1.648347	0.000195
 504	5.0048e+01	19.9567	91.085857	-0.000010	-0.101357	-0.034341	0.000004
 505	5.0148e+01	19.9182	91.073745	0.000030	0.304070	0.103022	-0.000012
 506	5.0248e+01	19.8716	91.037411	0.000091	0.912210	0.309065	-0.000037
 507	5.0347e+01	19.8315	91.009151	0.000071	0.709497	0.240384	-0.000028
 508	5.0447e+01	19.7882	91.009151	-0.000000	-0.000000	-0.000000	0.000000
 509	5.0546e+01	19.7513	90.960705	0.000122	1.216280	0.412087	-0.000049
 510	5.0645e+01	19.7144	90.904185	0.000142	1.418993	0.480768	-0.000057
 511	5.0745e+01	19.6759	90.879963	0.000061	0.608140	0.206043	-0.000024
 512	5.0844e+01	19.6294	90.823443	0.000142	1.418993	0.480768	-0.000057
 513	5.0944e+01	19.5829	90.807294	0.000041	0.405427	0.137362	-0.000016
 514	5.1044e+01	19.5700	90.779034	0.000071	0.709497	0.240384	-0.000028
 515	5.1143e+01	19.5187	90.734626	0.000111	1.114923	0.377746	-0.000045
 516	5.1242e+01	19.4738	90.682143	0.000132	1.317636	0.446427	-0.000053
 517	5.1342e+01	19.4321	90.641772	0.000101	1.013566	0.343406	-0.000041
 518	5.1441e+01	19.4048	90.629660	0.000030	0.304070	0.103022	-0.000012
 519	5.1541e+01	19.3519	90.581215	0.000122	1.216280	0.412087	-0.000049
 520	5.1641e+01	19.3150	90.528732	0.000132	1.317636	0.446427	-0.000053
 521	5.1740e+01	19.2716	90.484323	0.000111	1.114923	0.377746	-0.000045
 522	5.1840e+01	19.2348	90.460100	0.000061	0.608140	0.206043	-0.000024
 523	5.1939e+01	19.1979	90.379358	0.000203	2.027133	0.686811	-0.000081
 524	5.2038e+01	19.1529	90.363209	0.000041	0.405427	0.137362	-0.000016
 525	5.2138e+01	19.1176	90.318801	0.000111	1.114923	0.377746	-0.000045
 526	5.2237e+01	19.0823	90.234021	0.000213	2.128490	0.721152	-0.000085
 527	5.2337e+01	19.0342	90.229984	0.000010	0.101357	0.034341	-0.000004
 528	5.2437e+01	18.9941	90.165390	0.000162	1.621706	0.549449	-0.000065
 529	5.2536e+01	18.9556	90.133092	0.000081	0.810853	0.274724	-0.000032
 530	5.2636e+01	18.9187	90.072535	0.000152	1.520350	0.515108	-0.000061
 531	5.2735e+01	18.8754	90.024090	0.000122	1.216280	0.412087	-0.000049
 532	5.2834e+01	18.8417	90.003904	0.000051	0.506783	0.171703	-0.000020
 533	5.2934e+01	18.7984	89.931236	0.000182	1.824420	0.618130	-0.000073
 534	5.3033e+01	18.7551	89.898939	0.000081	0.810853	0.274724	-0.000032
 535	5.3133e+01	18.7182	89.854530	0.000111	1.114923	0.377746	-0.000045
 536	5.3233e+01	18.6845	89.806084	0.000122	1.216280	0.412087	-0.000049
 537	5.3332e+01	18.6316	89.733416	0.000182	1.824420	0.618130	-0.000073
 538	5.3431e+01	18.6075	89.689008	0.000111	1.114923	0.377746	-0.000045
 539	5.3531e+01	18.5626	89.652673	0.000091	0.912210	0.309065	-0.000037
 540	5.3630e+01	18.5273	89.612302	0.000101	1.013566	0.343406	-0.000041
 541	5.3730e+01	18.4776	89.555782	0.000142	1.418993	0.480768	-0.000057
 542	5.3830e+01	18.4423	89.503299	0.000132	1.317636	0.446427	-0.000053
 543	5.3929e+01	18.4006	89.438705	0.000162	1.621706	0.549449	-0.000065
 544	5.4029e+01	18.3637	89.386222	0.000132	1.317636	0.446427	-0.000053
 545	5.4128e+01	18.3171	89.317591	0.000172	1.723063	0.583790	-0.000069
 546	5.4227e+01	18.2738	89.248960	0.000172	1.723063	0.583790	-0.000069
 547	5.4327e+01	18.2321	89.208588	0.000101	1.013566	0.343406	-0.000041
 548	5.4426e+01	18.2064	89.119771	0.000223	2.229846	0.755492	-0.000089
 549	5.4526e+01	18.1599	89.107660	0.000030	0.304070	0.103022	-0.000012
 550	5.4626e+01	18.1198	89.039029	0.000172	1.723063	0.583790	-0.000069
 551	5.4725e+01	18.0877	88.982509	0.000142	1.418993	0.480768	-0.000057
 552	5.4825e+01	18.0492	88.950212	0.000081	0.810853	0.274724	-0.000032
 553	5.4924e+01	18.0043	88.853320	0.000243	2.432560	0.824173	-0.000097
 554	5.5023e+01	17.9658	88.800838	0.000132	1.317636	0.446427	-0.000053
 555	5.5123e+01	17.9225	88.736244	0.000162	1.621706	0.549449	-0.000065
 556	5.5222e+01	17.8824	88.671649	0.000162	1.621706	0.549449	-0.000065
 557	5.5322e+01	17.8407	88.574758	0.000243	2.432560	0.824173	-0.000097
 558	5.5422e+01	17.7974	88.518238	0.000142	1.418993	0.480768	-0.000057
 559	5.5521e+01	17.7605	88.461718	0.000142	1.418993	0.480768	-0.000057
 560	5.5620e+01	17.7220	88.421347	0.000101	1.013566	0.343406	-0.000041
 561	5.5720e+01	17.6851	88.352716	0.000172	1.723063	0.583790	-0.000069
 562	5.5819e+01	17.6578	88.267936	0.000213	2.128490	0.721152	-0.000085
 563	5.5919e+01	17.5984	88.183156	0.000213	2.128490	0.721152	-0.000085
 564	5.6019e+01	17.5583	88.102413	0.000203	2.027133	0.686811	-0.000081
 565	5.6118e+01	17.5262	88.086265	0.000041	0.405427	0.137362	-0.000016
 566	5.6218e+01	17.4910	87.985336	0.000253	2.533916	0.858514	-0.000101
 567	5.6317e+01	17.4444	87.924779	0.000152	1.520350	0.515108	-0.000061
 568	5.6416e+01	17.4075	87.844037	0.000203	2.027133	0.686811	-0.000081
 569	5.6516e+01	17.3658	87.743108	0.000253	2.533916	0.858514	-0.000101
 570	5.6615e+01	17.3289	87.686588	0.000142	1.418993	0.480768	-0.000057
 571	5.6715e+01	17.2840	87.621994	0.000162	1.621706	0.549449	-0.000065
 572	5.6815e+01	17.2407	87.541251	0.000203	2.027133	0.686811	-0.000081
 573	5.6914e+01	17.2038	87.464546	0.000193	1.925776	0.652471	-0.000077
 574	5.7014e+01	17.1685	87.403989	0.000152	1.520350	0.515108	-0.000061
 575	5.7113e+01	17.1172	87.339395	0.000162	1.621706	0.549449	-0.000065
 576	5.7212e+01	17.0835	87.218280	0.000304	3.040699	1.030217	-0.000122
 577	5.7312e+01	17.0466	87.157723	0.000152	1.520350	0.515108	-0.000061
 578	5.7411e+01	17.0033	87.048721	0.000274	2.736630	0.927195	-0.000110
 579	5.7511e+01	16.9599	87.020461	0.000071	0.709497	0.240384	-0.000028
 580	5.7611e+01	16.9198	86.879161	0.000355	3.547483	1.201920	-0.000142
 581	5.7710e+01	16.8781	86.790344	0.000223	2.229846	0.755492	-0.000089
 582	5.7809e+01	16.8509	86.741898	0.000122	1.216280	0.412087	-0.000049
 583	5.7909e+01	16.8059	86.636933	0.000264	2.635273	0.892855	-0.000105
 584	5.8008e+01	16.7642	86.588487	0.000122	1.216280	0.412087	-0.000049
 585	5.8108e+01	16.7209	86.471410	0.000294	2.939343	0.995876	-0.000118
 586	5.8208e+01	16.6920	86.422965	0.000122	1.216280	0.412087	-0.000049
 587	5.8307e+01	16.6311	86.297814	0.000314	3.142056	1.064557	-0.000126
 588	5.8407e+01	16.6038	86.196885	0.000253	2.533916	0.858514	-0.000101
 589	5.8506e+01	16.5685	86.108068	0.000223	2.229846	0.755492	-0.000089
 590	5.8605e+01	16.5332	86.027325	0.000203	2.027133	0.686811	-0.000081
 591	5.8705e+01	16.4835	85.962731	0.000162	1.621706	0.549449	-0.000065
 592	5.8804e+01	16.4450	85.922360	0.000101	1.013566	0.343406	-0.000041
 593	5.8904e+01	16.4065	85.785097	0.000345	3.446126	1.167579	-0.000138
 594	5.9004e+01	16.3648	85.688206	0.000243	2.432560	0.824173	-0.000097
 595	5.9103e+01	16.3215	85.587278	0.000253	2.533916	0.858514	-0.000101
 596	5.9203e+01	16.2862	85.546906	0.000101	1.013566	0.343406	-0.000041
 597	5.9302e+01	16.2461	85.433866	0.000284	2.837986	0.961536	-0.000114
 598	5.9401e+01	16.2092	85.308715	0.000314	3.142056	1.064557	-0.000126
 599	5.9501e+01	16.1659	85.232010	0.000193	1.925776	0.652471	-0.000077
 600	5.9600e+01	16.1225	85.171453	0.000152	1.520350	0.515108	-0.000061
 601	5.9700e+01	16.0921	85.046301	0.000314	3.142056	1.064557	-0.000126
 602	5.9800e+01	16.0439	84.985744	0.000152	1.520350	0.515108	-0.000061
 603	5.9899e+01	16.0054	84.905002	0.000203	2.027133	0.686811	-0.000081
 604	5.9998e+01	15.9669	84.771776	0.000334	3.344769	1.133239	-0.000134
 605	6.0098e+01	15.9364	84.695071	0.000193	1.925776	0.652471	-0.000077
 606	6.0197e+01	15.8963	84.569919	0.000314	3.142056	1.064557	-0.000126
 607	6.0297e+01	15.8466	84.473028	0.000243	2.432560	0.824173	-0.000097
 608	6.0397e+01	15.8065	84.376137	0.000243	2.432560	0.824173	-0.000097
 609	6.0496e+01	15.7696	84.279246	0.000243	2.432560	0.824173	-0.000097
 610	6.0596e+01	15.7279	84.182354	0.000243	2.432560	0.824173	-0.000097
 611	6.0695e+01	15.6878	84.061240	0.000304	3.040699	1.030217	-0.000122
 612	6.0794e+01	15.6573	83.964349	0.000243	2.432560	0.824173	-0.000097
 613	6.0894e+01	15.6156	83.855346	0.000274	2.736630	0.927195	-0.000110
 614	6.0993e+01	15.5771	83.746344	0.000274	2.736630	0.927195	-0.000110
 615	6.1093e+01	15.5386	83.641378	0.000264	2.635273	0.892855	-0.000105
 616	6.1193e+01	15.4873	83.560636	0.000203	2.027133	0.686811	-0.000081
 617	6.1292e+01	15.4568	83.451633	0.000274	2.736630	0.927195	-0.000110
 618	6.1392e+01	15.4247	83.318407	0.000334	3.344769	1.133239	-0.000134
 619	6.1491e+01	15.3669	83.229590	0.000223	2.229846	0.755492	-0.000089
 620	6.1590e+01	15.3349	83.092328	0.000345	3.446126	1.167579	-0.000138
 621	6.1690e+01	15.3012	83.019659	0.000182	1.824420	0.618130	-0.000073
 622	6.1789e+01	15.2530	82.910657	0.000274	2.736630	0.927195	-0.000110
 623	6.1889e+01	15.2049	82.757245	0.000385	3.851553	1.304941	-0.000154
 624	6.1989e+01	15.1760	82.660354	0.000243	2.432560	0.824173	-0.000097
 625	6.2088e+01	15.1343	82.583649	0.000193	1.925776	0.652471	-0.000077
 626	6.2188e+01	15.0958	82.454460	0.000324	3.243413	1.098898	-0.000130
 627	6.2287e+01	15.0589	82.329309	0.000314	3.142056	1.064557	-0.000126
 628	6.2386e+01	15.0220	82.252604	0.000193	1.925776	0.652471	-0.000077
 629	6.2486e+01	14.9771	82.139564	0.000284	2.837986	0.961536	-0.000114
 630	6.2586e+01	14.9306	82.038635	0.000253	2.533916	0.858514	-0.000101
 631	6.2685e+01	14.8889	81.909447	0.000324	3.243413	1.098898	-0.000130
 632	6.2785e+01	14.8472	81.784296	0.000314	3.142056	1.064557	-0.000126
 633	6.2884e+01	14.8103	81.659145	0.000314	3.142056	1.064557	-0.000126
 634	6.2983e+01	14.7670	81.558216	0.000253	2.533916	0.858514	-0.000101
 635	6.3083e+01	14.7220	81.449214	0.000274	2.736630	0.927195	-0.000110
 636	6.3182e+01	14.7012	81.336174	0.000284	2.837986	0.961536	-0.000114
 637	6.3282e+01	14.6579	81.198911	0.000345	3.446126	1.167579	-0.000138
 638	6.3382e+01	14.6065	81.110094	0.000223	2.229846	0.755492	-0.000089
 639	6.3481e+01	14.5809	80.960720	0.000375	3.750196	1.270601	-0.000150
 640	6.3581e+01	14.5408	80.884015	0.000193	1.925776	0.652471	-0.000077
 641	6.3680e+01	14.4926	80.775012	0.000274	2.736630	0.927195	-0.000110
 642	6.3779e+01	14.4590	80.686195	0.000223	2.229846	0.755492	-0.000089
 643	6.3879e+01	14.4140	80.532784	0.000385	3.851553	1.304941	-0.000154
 644	6.3978e+01	14.3707	80.399558	0.000334	3.344769	1.133239	-0.000134
 645	6.4078e+01	14.3338	80.298630	0.000253	2.533916	0.858514	-0.000101
 646	6.4177e+01	14.2857	80.169441	0.000324	3.243413	1.098898	-0.000130
 647	6.4277e+01	14.2504	80.120996	0.000122	1.216280	0.412087	-0.000049
 648	6.4376e+01	14.2151	79.947399	0.000436	4.358336	1.476644	-0.000174
 649	6.4476e+01	14.1766	79.798025	0.000375	3.750196	1.270601	-0.000150
 650	6.4576e+01	14.1333	79.709208	0.000223	2.229846	0.755492	-0.000089
 651	6.4675e+01	14.1012	79.571945	0.000345	3.446126	1.167579	-0.000138
 652	6.4775e+01	14.0547	79.466980	0.000264	2.635273	0.892855	-0.000105
 653	6.4874e+01	14.0162	79.313569	0.000385	3.851553	1.304941	-0.000154
 654	6.4974e+01	13.9793	79.212640	0.000253	2.533916	0.858514	-0.000101
 655	6.5073e+01	13.9408	79.115749	0.000243	2.432560	0.824173	-0.000097
 656	6.5172e+01	13.9023	78.998672	0.000294	2.939343	0.995876	-0.000118
 657	6.5272e+01	13.8574	78.877558	0.000304	3.040699	1.030217	-0.000122
 658	6.5371e+01	13.8173	78.756444	0.000304	3.040699	1.030217	-0.000122
 659	6.5471e+01	13.7868	78.647441	0.000274	2.736630	0.927195	-0.000110
 660	6.5570e+01	13.7386	78.494030	0.000385	3.851553	1.304941	-0.000154
 661	6.5670e+01	13.7018	78.393102	0.000253	2.533916	0.858514	-0.000101
 662	6.5769e+01	13.6456	78.247765	0.000365	3.648839	1.236260	-0.000146
 663	6.5869e+01	13.6247	78.179134	0.000172	1.723063	0.583790	-0.000069
 664	6.5969e+01	13.5782	77.997462	0.000456	4.561049	1.545325	-0.000183
 665	6.6068e+01	13.5397	77.880386	0.000294	2.939343	0.995876	-0.000118
 666	6.6168e+01	13.4996	77.771383	0.000274	2.736630	0.927195	-0.000110
 667	6.6267e+01	13.4579	77.626046	0.000365	3.648839	1.236260	-0.000146
 668	6.6367e+01	13.4130	77.521080	0.000264	2.635273	0.892855	-0.000105
 669	6.6466e+01	13.3841	77.408041	0.000284	2.837986	0.961536	-0.000114
 670	6.6566e+01	13.3392	77.262704	0.000365	3.648839	1.236260	-0.000146
 671	6.6665e+01	13.2911	77.109293	0.000385	3.851553	1.304941	-0.000154
 672	6.6764e+01	13.2510	77.000290	0.000274	2.736630	0.927195	-0.000110
 673	6.6864e+01	13.2221	76.895324	0.000264	2.635273	0.892855	-0.000105
 674	6.6963e+01	13.1772	76.766136	0.000324	3.243413	1.098898	-0.000130
 675	6.7063e+01	13.1371	76.608688	0.000395	3.952909	1.339282	-0.000158
 676	6.7162e+01	13.0986	76.499685	0.000274	2.736630	0.927195	-0.000110
 677	6.7262e+01	13.0552	76.394720	0.000264	2.635273	0.892855	-0.000105
 678	6.7362e+01	13.0216	76.225160	0.000426	4.256979	1.442304	-0.000170
 679	6.7461e+01	12.9750	76.120194	0.000264	2.635273	0.892855	-0.000105
 680	6.7561e+01	12.9478	76.011192	0.000274	2.736630	0.927195	-0.000110
 681	6.7660e+01	12.9012	75.845669	0.000416	4.155623	1.407963	-0.000166
 682	6.7760e+01	12.8547	75.700332	0.000365	3.648839	1.236260	-0.000146
 683	6.7859e+01	12.8146	75.623627	0.000193	1.925776	0.652471	-0.000077
 684	6.7959e+01	12.7857	75.498475	0.000314	3.142056	1.064557	-0.000126
 685	6.8058e+01	12.7488	75.304693	0.000487	4.865119	1.648347	-0.000195
 686	6.8157e+01	12.7039	75.215876	0.000223	2.229846	0.755492	-0.000089
 687	6.8257e+01	12.6622	75.082650	0.000334	3.344769	1.133239	-0.000134
 688	6.8356e+01	12.6269	74.953462	0.000324	3.243413	1.098898	-0.000130
 689	6.8456e+01	12.5884	74.836385	0.000294	2.939343	0.995876	-0.000118
 690	6.8555e+01	12.5515	74.674900	0.000405	4.054266	1.373622	-0.000162
 691	6.8655e+01	12.5034	74.517451	0.000395	3.952909	1.339282	-0.000158
 692	6.8754e+01	12.4585	74.412486	0.000264	2.635273	0.892855	-0.000105
 693	6.8854e+01	12.4200	74.327706	0.000213	2.128490	0.721152	-0.000085
 694	6.8954e+01	12.3815	74.178332	0.000375	3.750196	1.270601	-0.000150
 695	6.9053e+01	12.3462	74.041069	0.000345	3.446126	1.167579	-0.000138
 696	6.9153e+01	12.3077	73.907844	0.000334	3.344769	1.133239	-0.000134
 697	6.9252e+01	12.2612	73.750396	0.000395	3.952909	1.339282	-0.000158
 698	6.9352e+01	12.2226	73.633319	0.000294	2.939343	0.995876	-0.000118
 699	6.9451e+01	12.1777	73.512205	0.000304	3.040699	1.030217	-0.000122
 700	6.9550e+01	12.1505	73.378979	0.000334	3.344769	1.133239	-0.000134
 701	6.9650e+01	12.1039	73.245754	0.000334	3.344769	1.133239	-0.000134
 702	6.9749e+01	12.0702	73.108491	0.000345	3.446126	1.167579	-0.000138
 703	6.9849e+01	12.0317	72.983340	0.000314	3.142056	1.064557	-0.000126
 704	6.9948e+01	11.9836	72.817817	0.000416	4.155623	1.407963	-0.000166
 705	7.0048e+01	11.9435	72.676518	0.000355	3.547483	1.201920	-0.000142
 706	7.0147e+01	11.9114	72.555403	0.000304	3.040699	1.030217	-0.000122
 707	7.0247e+01	11.8681	72.414104	0.000355	3.547483	1.201920	-0.000142
 708	7.0347e+01	11.8280	72.280878	0.000334	3.344769	1.133239	-0.000134
 709	7.0446e+01	11.7943	72.143616	0.000345	3.446126	1.167579	-0.000138
 710	7.0546e+01	11.7414	72.002316	0.000355	3.547483	1.201920	-0.000142
 711	7.0645e+01	11.7061	71.877165	0.000314	3.142056	1.064557	-0.000126
 712	7.0745e+01	11.6628	71.756051	0.000304	3.040699	1.030217	-0.000122
 713	7.0844e+01	11.6243	71.606677	0.000375	3.750196	1.270601	-0.000150
 714	7.0944e+01	11.5906	71.457303	0.000375	3.750196	1.270601	-0.000150
 715	7.1043e+01	11.5441	71.344263	0.000284	2.837986	0.961536	-0.000114
 716	7.1142e+01	11.5136	71.190852	0.000385	3.851553	1.304941	-0.000154
 717	7.1242e+01	11.4703	71.041478	0.000375	3.750196	1.270601	-0.000150
 718	7.1341e+01	11.4221	70.928438	0.000284	2.837986	0.961536	-0.000114
 719	7.1441e+01	11.3884	70.775027	0.000385	3.851553	1.304941	-0.000154
 720	7.1540e+01	11.3483	70.609504	0.000416	4.155623	1.407963	-0.000166
 721	7.1640e+01	11.3066	70.464167	0.000365	3.648839	1.236260	-0.000146
 722	7.1740e+01	11.2633	70.326905	0.000345	3.446126	1.167579	-0.000138
 723	7.1839e+01	11.2344	70.173493	0.000385	3.851553	1.304941	-0.000154
 724	7.1939e+01	11.1911	70.040268	0.000334	3.344769	1.133239	-0.000134
 725	7.2038e+01	11.1542	69.923191	0.000294	2.939343	0.995876	-0.000118
 726	7.2138e+01	11.1061	69.765743	0.000395	3.952909	1.339282	-0.000158
 727	7.2237e+01	11.0692	69.604257	0.000405	4.054266	1.373622	-0.000162
 728	7.2337e+01	11.0371	69.475069	0.000324	3.243413	1.098898	-0.000130
 729	7.2436e+01	10.9922	69.333769	0.000355	3.547483	1.201920	-0.000142
 730	7.2535e+01	10.9457	69.144024	0.000476	4.763762	1.614006	-0.000191
 731	7.2635e+01	10.9152	69.047133	0.000243	2.432560	0.824173	-0.000097
 732	7.2734e+01	10.8623	68.909870	0.000345	3.446126	1.167579	-0.000138
 733	7.2834e+01	10.8222	68.728199	0.000456	4.561049	1.545325	-0.000183
 734	7.2933e+01	10.7965	68.578825	0.000375	3.750196	1.270601	-0.000150
 735	7.3033e+01	10.7500	68.409265	0.000426	4.256979	1.442304	-0.000170
 736	7.3132e+01	10.7099	68.284114	0.000314	3.142056	1.064557	-0.000126
 737	7.3232e+01	10.6665	68.134740	0.000375	3.750196	1.270601	-0.000150
 738	7.3332e+01	10.6296	67.993440	0.000355	3.547483	1.201920	-0.000142
 739	7.3431e+01	10.5944	67.868289	0.000314	3.142056	1.064557	-0.000126
 740	7.3531e+01	10.5494	67.710841	0.000395	3.952909	1.339282	-0.000158
 741	7.3630e+01	10.5029	67.549355	0.000405	4.054266	1.373622	-0.000162
 742	7.3730e+01	10.4772	67.412093	0.000345	3.446126	1.167579	-0.000138
 743	7.3829e+01	10.4339	67.254644	0.000395	3.952909	1.339282	-0.000158
 744	7.3928e+01	10.3890	67.105270	0.000375	3.750196	1.270601	-0.000150
 745	7.4028e+01	10.3457	66.899376	0.000517	5.169189	1.751369	-0.000207
 746	7.4127e+01	10.3152	66.786337	0.000284	2.837986	0.961536	-0.000114
 747	7.4227e+01	10.2719	66.641000	0.000365	3.648839	1.236260	-0.000146
 748	7.4326e+01	10.2334	66.495663	0.000365	3.648839	1.236260	-0.000146
 749	7.4426e+01	10.1949	66.362437	0.000334	3.344769	1.133239	-0.000134
 750	7.4525e+01	10.1548	66.184803	0.000446	4.459693	1.510985	-0.000179
 751	7.4625e+01	10.1163	66.051578	0.000334	3.344769	1.133239	-0.000134
 752	7.4725e+01	10.0682	65.898167	0.000385	3.851553	1.304941	-0.000154
 753	7.4824e+01	10.0329	65.716496	0.000456	4.561049	1.545325	-0.000183
 754	7.4924e+01	9.9960	65.563084	0.000385	3.851553	1.304941	-0.000154
 755	7.5023e+01	9.9655	65.425822	0.000345	3.446126	1.167579	-0.000138
 756	7.5123e+01	9.9093	65.252225	0.000436	4.358336	1.476644	-0.000174
 757	7.5222e+01	9.8821	65.114962	0.000345	3.446126	1.167579	-0.000138
 758	7.5322e+01	9.8275	64.925217	0.000476	4.763762	1.614006	-0.000191
 759	7.5421e+01	9.7938	64.820251	0.000264	2.635273	0.892855	-0.000105
 760	7.5520e+01	9.7585	64.670877	0.000375	3.750196	1.270601	-0.000150
 761	7.5620e+01	9.7184	64.521503	0.000375	3.750196	1.270601	-0.000150
 762	7.5719e+01	9.6703	64.291387	0.000578	5.777329	1.957412	-0.000231
 763	7.5819e+01	9.6382	64.194495	0.000243	2.432560	0.824173	-0.000097
 764	7.5918e+01	9.5917	64.037047	0.000395	3.952909	1.339282	-0.000158
 765	7.6018e+01	9.5596	63.867487	0.000426	4.256979	1.442304	-0.000170
 766	7.6118e+01	9.5083	63.701965	0.000416	4.155623	1.407963	-0.000166
 767	7.6217e+01	9.4714	63.548554	0.000385	3.851553	1.304941	-0.000154
 768	7.6317e+01	9.4441	63.370920	0.000446	4.459693	1.510985	-0.000179
 769	7.6416e+01	9.3960	63.209434	0.000405	4.054266	1.373622	-0.000162
 770	7.6516e+01	9.3543	63.088320	0.000304	3.040699	1.030217	-0.000122
 771	7.6615e+01	9.3174	62.922798	0.000416	4.155623	1.407963	-0.000166
 772	7.6715e+01	9.2821	62.749201	0.000436	4.358336	1.476644	-0.000174
 773	7.6814e+01	9.2436	62.595790	0.000385	3.851553	1.304941	-0.000154
 774	7.6913e+01	9.1923	62.450453	0.000365	3.648839	1.236260	-0.000146
 775	7.7013e+01	9.1634	62.256670	0.000487	4.865119	1.648347	-0.000195
 776	7.7112e+01	9.1104	62.087111	0.000426	4.256979	1.442304	-0.000170
 777	7.7212e+01	9.0800	61.937736	0.000375	3.750196	1.270601	-0.000150
 778	7.7311e+01	9.0302	61.768177	0.000426	4.256979	1.442304	-0.000170
 779	7.7411e+01	8.9965	61.614766	0.000385	3.851553	1.304941	-0.000154
 780	7.7510e+01	8.9596	61.429057	0.000466	4.662406	1.579666	-0.000187
 781	7.7610e+01	8.9131	61.307943	0.000304	3.040699	1.030217	-0.000122
 782	7.7710e+01	8.8746	61.158569	0.000375	3.750196	1.270601	-0.000150
 783	7.7809e+01	8.8297	60.972861	0.000466	4.662406	1.579666	-0.000187
 784	7.7909e+01	8.8024	60.815413	0.000395	3.952909	1.339282	-0.000158
 785	7.8008e+01	8.7511	60.653927	0.000405	4.054266	1.373622	-0.000162
 786	7.8108e+01	8.7190	60.480330	0.000436	4.358336	1.476644	-0.000174
 787	7.8207e+01	8.6725	60.302697	0.000446	4.459693	1.510985	-0.000179
 788	7.8306e+01	8.6436	60.121025	0.000456	4.561049	1.545325	-0.000183
 789	7.8406e+01	8.5875	59.967614	0.000385	3.851553	1.304941	-0.000154
 790	7.8505e+01	8.5602	59.814203	0.000385	3.851553	1.304941	-0.000154
 791	7.8605e+01	8.5201	59.660792	0.000385	3.851553	1.304941	-0.000154
 792	7.8704e+01	8.4832	59.467009	0.000487	4.865119	1.648347	-0.000195
 793	7.8804e+01	8.4351	59.297450	0.000426	4.256979	1.442304	-0.000170
 794	7.8903e+01	8.3917	59.107704	0.000476	4.763762	1.614006	-0.000191
 795	7.9003e+01	8.3629	58.962367	0.000365	3.648839	1.236260	-0.000146
 796	7.9103e+01	8.3083	58.804919	0.000395	3.952909	1.339282	-0.000158
 797	7.9202e+01	8.2746	58.647471	0.000395	3.952909	1.339282	-0.000158
 798	7.9302e+01	8.2393	58.485985	0.000405	4.054266	1.373622	-0.000162
 799	7.9401e+01	8.1976	58.288166	0.000497	4.966476	1.682688	-0.000199
 800	7.9501e+01	8.1575	58.102458	0.000466	4.662406	1.579666	-0.000187
 801	7.9600e+01	8.1158	57.997492	0.000264	2.635273	0.892855	-0.000105
 802	7.9700e+01	8.0869	57.811784	0.000466	4.662406	1.579666	-0.000187
 803	7.9799e+01	8.0372	57.634150	0.000446	4.459693	1.510985	-0.000179
 804	7.9898e+01	7.9971	57.468627	0.000416	4.155623	1.407963	-0.000166
 805	7.9998e+01	7.9618	57.315216	0.000385	3.851553	1.304941	-0.000154
 806	8.0097e+01	7.9233	57.177953	0.000345	3.446126	1.167579	-0.000138
 807	8.0197e+01	7.8864	56.963985	0.000537	5.371902	1.820050	-0.000215
 808	8.0296e+01	7.8383	56.818648	0.000365	3.648839	1.236260	-0.000146
 809	8.0396e+01	7.8030	56.645052	0.000436	4.358336	1.476644	-0.000174
 810	8.0496e+01	7.7613	56.447232	0.000497	4.966476	1.682688	-0.000199
 811	8.0595e+01	7.7148	56.322081	0.000314	3.142056	1.064557	-0.000126
 812	8.0695e+01	7.6827	56.148484	0.000436	4.358336	1.476644	-0.000174
 813	8.0794e+01	7.6426	55.978924	0.000426	4.256979	1.442304	-0.000170
 814	8.0894e+01	7.6009	55.768993	0.000527	5.270546	1.785709	-0.000211
 815	8.0993e+01	7.5575	55.619619	0.000375	3.750196	1.270601	-0.000150
 816	8.1093e+01	7.5190	55.458134	0.000405	4.054266	1.373622	-0.000162
 817	8.1192e+01	7.4789	55.308760	0.000375	3.750196	1.270601	-0.000150
 818	8.1291e+01	7.4420	55.135163	0.000436	4.358336	1.476644	-0.000174
 819	8.1391e+01	7.4083	54.977714	0.000395	3.952909	1.339282	-0.000158
 820	8.1490e+01	7.3586	54.800081	0.000446	4.459693	1.510985	-0.000179
 821	8.1590e+01	7.3201	54.594187	0.000517	5.169189	1.751369	-0.000207
 822	8.1689e+01	7.2800	54.456924	0.000345	3.446126	1.167579	-0.000138
 823	8.1789e+01	7.2367	54.267179	0.000476	4.763762	1.614006	-0.000191
 824	8.1888e+01	7.2030	54.105693	0.000405	4.054266	1.373622	-0.000162
 825	8.1988e+01	7.1709	53.911911	0.000487	4.865119	1.648347	-0.000195
 826	8.2088e+01	7.1196	53.738314	0.000436	4.358336	1.476644	-0.000174
 827	8.2187e+01	7.0811	53.584903	0.000385	3.851553	1.304941	-0.000154
 828	8.2287e+01	7.0362	53.391120	0.000487	4.865119	1.648347	-0.000195
 829	8.2386e+01	7.0025	53.205412	0.000466	4.662406	1.579666	-0.000187
 830	8.2486e+01	6.9608	53.052001	0.000385	3.851553	1.304941	-0.000154
 831	8.2585e+01	6.9158	52.850144	0.000507	5.067832	1.717028	-0.000203
 832	8.2684e+01	6.8806	52.692696	0.000395	3.952909	1.339282	-0.000158
 833	8.2784e+01	6.8404	52.502950	0.000476	4.763762	1.614006	-0.000191
 834	8.2883e+01	6.8003	52.341465	0.000405	4.054266	1.373622	-0.000162
 835	8.2983e+01	6.7650	52.200165	0.000355	3.547483	1.201920	-0.000142
 836	8.3082e+01	6.7185	52.018494	0.000456	4.561049	1.545325	-0.000183
 837	8.3182e+01	6.6816	51.824711	0.000487	4.865119	1.648347	-0.000195
 838	8.3281e+01	6.6447	51.651115	0.000436	4.358336	1.476644	-0.000174
 839	8.3381e+01	6.6078	51.469444	0.000456	4.561049	1.545325	-0.000183
 840	8.3481e+01	6.5709	51.303921	0.000416	4.155623	1.407963	-0.000166
 841	8.3580e+01	6.5292	51.122250	0.000456	4.561049	1.545325	-0.000183
 842	8.3680e+01	6.4891	50.944616	0.000446	4.459693	1.510985	-0.000179
 843	8.3779e+01	6.4538	50.775056	0.000426	4.256979	1.442304	-0.000170
 844	8.3879e+01	6.4073	50.609534	0.000416	4.155623	1.407963	-0.000166
 845	8.3978e+01	6.3688	50.435937	0.000436	4.358336	1.476644	-0.000174
 846	8.4078e+01	6.3351	50.250229	0.000466	4.662406	1.579666	-0.000187
 847	8.4177e+01	6.2774	50.056446	0.000487	4.865119	1.648347	-0.000195
 848	8.4276e+01	6.2565	49.866701	0.000476	4.763762	1.614006	-0.000191
 849	8.4376e+01	6.2116	49.717327	0.000375	3.750196	1.270601	-0.000150
 850	8.4475e+01	6.1795	49.503358	0.000537	5.371902	1.820050	-0.000215
 851	8.4575e+01	6.1282	49.378207	0.000314	3.142056	1.064557	-0.000126
 852	8.4674e+01	6.0881	49.188462	0.000476	4.763762	1.614006	-0.000191
 853	8.4774e+01	6.0399	48.986605	0.000507	5.067832	1.717028	-0.000203
 854	8.4874e+01	5.9998	48.800897	0.000466	4.662406	1.579666	-0.000187
 855	8.4973e+01	5.9661	48.611151	0.000476	4.763762	1.614006	-0.000191
 856	8.5073e+01	5.9292	48.449666	0.000405	4.054266	1.373622	-0.000162
 857	8.5172e+01	5.8875	48.235698	0.000537	5.371902	1.820050	-0.000215
 858	8.5272e+01	5.8522	48.066138	0.000426	4.256979	1.442304	-0.000170
 859	8.5371e+01	5.8057	47.908690	0.000395	3.952909	1.339282	-0.000158
 860	8.5471e+01	5.7736	47.722982	0.000466	4.662406	1.579666	-0.000187
 861	8.5570e+01	5.7432	47.496902	0.000568	5.675972	1.923071	-0.000227
 862	8.5669e+01	5.6902	47.335417	0.000405	4.054266	1.373622	-0.000162
 863	8.5769e+01	5.6501	47.145671	0.000476	4.763762	1.614006	-0.000191
 864	8.5868e+01	5.6116	46.955926	0.000476	4.763762	1.614006	-0.000191
 865	8.5968e+01	5.5731	46.806552	0.000375	3.750196	1.270601	-0.000150
 866	8.6067e+01	5.5346	46.596621	0.000527	5.270546	1.785709	-0.000211
 867	8.6167e+01	5.4881	46.439172	0.000395	3.952909	1.339282	-0.000158
 868	8.6266e+01	5.4560	46.241353	0.000497	4.966476	1.682688	-0.000199
 869	8.6366e+01	5.4143	46.043533	0.000497	4.966476	1.682688	-0.000199
 870	8.6466e+01	5.3774	45.878011	0.000416	4.155623	1.407963	-0.000166
 871	8.6565e+01	5.3357	45.700377	0.000446	4.459693	1.510985	-0.000179
 872	8.6665e+01	5.2908	45.490445	0.000527	5.270546	1.785709	-0.000211
 873	8.6764e+01	5.2458	45.332997	0.000395	3.952909	1.339282	-0.000158
 874	8.6864e+01	5.2154	45.139215	0.000487	4.865119	1.648347	-0.000195
 875	8.6963e+01	5.1753	44.933321	0.000517	5.169189	1.751369	-0.000207
 876	8.7063e+01	5.1287	44.747613	0.000466	4.662406	1.579666	-0.000187
 877	8.7162e+01	5.0902	44.574016	0.000436	4.358336	1.476644	-0.000174
 878	8.7261e+01	5.0630	44.360047	0.000537	5.371902	1.820050	-0.000215
 879	8.7361e+01	5.0132	44.182414	0.000446	4.459693	1.510985	-0.000179
 880	8.7460e+01	4.9747	44.020928	0.000405	4.054266	1.373622	-0.000162
 881	8.7560e+01	4.9346	43.766589	0.000639	6.385469	2.163455	-0.000256
 882	8.7659e+01	4.8897	43.601066	0.000416	4.155623	1.407963	-0.000166
 883	8.7759e+01	4.8624	43.423432	0.000446	4.459693	1.510985	-0.000179
 884	8.7859e+01	4.8207	43.265984	0.000395	3.952909	1.339282	-0.000158
 885	8.7958e+01	4.7614	43.015681	0.000628	6.284112	2.129115	-0.000252
 886	8.8058e+01	4.7325	42.793639	0.000557	5.574616	1.888731	-0.000223
 887	8.8157e+01	4.6892	42.652339	0.000355	3.547483	1.201920	-0.000142
 888	8.8257e+01	4.6539	42.470668	0.000456	4.561049	1.545325	-0.000183
 889	8.8356e+01	4.6154	42.264774	0.000517	5.169189	1.751369	-0.000207
 890	8.8456e+01	4.5737	42.058880	0.000517	5.169189	1.751369	-0.000207
 891	8.8555e+01	4.5400	41.857023	0.000507	5.067832	1.717028	-0.000203
 892	8.8654e+01	4.4967	41.667278	0.000476	4.763762	1.614006	-0.000191
 893	8.8754e+01	4.4517	41.441198	0.000568	5.675972	1.923071	-0.000227
 894	8.8853e+01	4.4213	41.283750	0.000395	3.952909	1.339282	-0.000158
 895	8.8953e+01	4.3828	41.069782	0.000537	5.371902	1.820050	-0.000215
 896	8.9052e+01	4.3378	40.867925	0.000507	5.067832	1.717028	-0.000203
 897	8.9152e+01	4.2945	40.706440	0.000405	4.054266	1.373622	-0.000162
 898	8.9251e+01	4.2560	40.460174	0.000618	6.182756	2.094774	-0.000248
 899	8.9351e+01	4.2159	40.274466	0.000466	4.662406	1.579666	-0.000187
 900	8.9451e+01	4.1742	40.088758	0.000466	4.662406	1.579666	-0.000187
 901	8.9550e+01	4.1421	39.858641	0.000578	5.777329	1.957412	-0.000231
 902	8.9650e+01	4.0908	39.681007	0.000446	4.459693	1.510985	-0.000179
 903	8.9749e+01	4.0555	39.450890	0.000578	5.777329	1.957412	-0.000231
 904	8.9849e+01	4.0234	39.265182	0.000466	4.662406	1.579666	-0.000187
 905	8.9948e+01	3.9785	39.014880	0.000628	6.284112	2.129115	-0.000252
 906	9.0047e+01	3.9368	38.869543	0.000365	3.648839	1.236260	-0.000146
 907	9.0147e+01	3.8967	38.647500	0.000557	5.574616	1.888731	-0.000223
 908	9.0246e+01	3.8534	38.405272	0.000608	6.081399	2.060434	-0.000243
 909	9.0346e+01	3.8101	38.243787	0.000405	4.054266	1.373622	-0.000162
 910	9.0445e+01	3.7780	38.033856	0.000527	5.270546	1.785709	-0.000211
 911	9.0545e+01	3.7330	37.827962	0.000517	5.169189	1.751369	-0.000207
 912	9.0644e+01	3.6978	37.609957	0.000547	5.473259	1.854390	-0.000219
 913	9.0744e+01	3.6577	37.412137	0.000497	4.966476	1.682688	-0.000199
 914	9.0844e+01	3.6127	37.182020	0.000578	5.777329	1.957412	-0.000231
 915	9.0943e+01	3.5774	36.964015	0.000547	5.473259	1.854390	-0.000219
 916	9.1043e+01	3.5309	36.786381	0.000446	4.459693	1.510985	-0.000179
 917	9.1142e+01	3.5036	36.580487	0.000517	5.169189	1.751369	-0.000207
 918	9.1242e+01	3.4651	36.370556	0.000527	5.270546	1.785709	-0.000211
 919	9.1341e+01	3.4202	36.213108	0.000395	3.952909	1.339282	-0.000158
 920	9.1441e+01	3.3737	35.934545	0.000699	6.993609	2.369499	-0.000280
 921	9.1540e+01	3.3304	35.724614	0.000527	5.270546	1.785709	-0.000211
 922	9.1639e+01	3.3111	35.518720	0.000517	5.169189	1.751369	-0.000207
 923	9.1739e+01	3.2662	35.324938	0.000487	4.865119	1.648347	-0.000195
 924	9.1838e+01	3.2197	35.062524	0.000659	6.588182	2.232137	-0.000264
 925	9.1938e+01	3.1732	34.876816	0.000466	4.662406	1.579666	-0.000187
 926	9.2037e+01	3.1427	34.654773	0.000557	5.574616	1.888731	-0.000223
 927	9.2137e+01	3.1010	34.444842	0.000527	5.270546	1.785709	-0.000211
 928	9.2237e+01	3.0657	34.230874	0.000537	5.371902	1.820050	-0.000215
 929	9.2336e+01	3.0144	34.012869	0.000547	5.473259	1.854390	-0.000219
 930	9.2436e+01	2.9903	33.831197	0.000456	4.561049	1.545325	-0.000183
 931	9.2535e+01	2.9374	33.597044	0.000588	5.878686	1.991753	-0.000235
 932	9.2635e+01	2.8924	33.370964	0.000568	5.675972	1.923071	-0.000227
 933	9.2734e+01	2.8652	33.148922	0.000557	5.574616	1.888731	-0.000223
 934	9.2834e+01	2.8234	32.983399	0.000416	4.155623	1.407963	-0.000166
 935	9.2933e+01	2.7801	32.729059	0.000639	6.385469	2.163455	-0.000256
 936	9.3032e+01	2.7432	32.498943	0.000578	5.777329	1.957412	-0.000231
 937	9.3132e+01	2.7031	32.272863	0.000568	5.675972	1.923071	-0.000227
 938	9.3231e+01	2.6582	32.066969	0.000517	5.169189	1.751369	-0.000207
 939	9.3331e+01	2.6229	31.869150	0.000497	4.966476	1.682688	-0.000199
 940	9.3430e+01	2.5828	31.634996	0.000588	5.878686	1.991753	-0.000235
 941	9.3530e+01	2.5459	31.412953	0.000557	5.574616	1.888731	-0.000223
 942	9.3629e+01	2.4994	31.174762	0.000598	5.980042	2.026093	-0.000239
 943	9.3729e+01	2.4609	30.968868	0.000517	5.169189	1.751369	-0.000207
 944	9.3829e+01	2.4192	30.758937	0.000527	5.270546	1.785709	-0.000211
 945	9.3928e+01	2.3839	30.528820	0.000578	5.777329	1.957412	-0.000231
 946	9.4028e+01	2.3502	30.298704	0.000578	5.777329	1.957412	-0.000231
 947	9.4127e+01	2.3069	30.060513	0.000598	5.980042	2.026093	-0.000239
 948	9.4227e+01	2.2652	29.818285	0.000608	6.081399	2.060434	-0.000243
 949	9.4326e+01	2.2251	29.632576	0.000466	4.662406	1.579666	-0.000187
 950	9.4425e+01	2.1866	29.382274	0.000628	6.284112	2.129115	-0.000252
 951	9.4525e+01	2.1417	29.164269	0.000547	5.473259	1.854390	-0.000219
 952	9.4624e+01	2.1096	28.958375	0.000517	5.169189	1.751369	-0.000207
 953	9.4724e+01	2.0582	28.732295	0.000568	5.675972	1.923071	-0.000227
 954	9.4823e+01	2.0294	28.481993	0.000628	6.284112	2.129115	-0.000252
 955	9.4923e+01	1.9892	28.276099	0.000517	5.169189	1.751369	-0.000207
 956	9.5022e+01	1.9427	28.021759	0.000639	6.385469	2.163455	-0.000256
 957	9.5122e+01	1.9058	27.767420	0.000639	6.385469	2.163455	-0.000256
 958	9.5222e+01	1.8673	27.549414	0.000547	5.473259	1.854390	-0.000219
 959	9.5321e+01	1.8240	27.287000	0.000659	6.588182	2.232137	-0.000264
 960	9.5421e+01	1.7935	27.077069	0.000527	5.270546	1.785709	-0.000211
 961	9.5520e+01	1.7438	26.855027	0.000557	5.574616	1.888731	-0.000223
 962	9.5620e+01	1.6989	26.645096	0.000527	5.270546	1.785709	-0.000211
 963	9.5719e+01	1.6684	26.394793	0.000628	6.284112	2.129115	-0.000252
 964	9.5819e+01	1.6283	26.148528	0.000618	6.182756	2.094774	-0.000248
 965	9.5918e+01	1.5866	25.902263	0.000618	6.182756	2.094774	-0.000248
 966	9.6017e+01	1.5465	25.700406	0.000507	5.067832	1.717028	-0.000203
 967	9.6117e+01	1.4935	25.446067	0.000639	6.385469	2.163455	-0.000256
 968	9.6216e+01	1.4711	25.236135	0.000527	5.270546	1.785709	-0.000211
 969	9.6316e+01	1.4197	24.993907	0.000608	6.081399	2.060434	-0.000243
 970	9.6415e+01	1.3764	24.800125	0.000487	4.865119	1.648347	-0.000195
 971	9.6515e+01	1.3460	24.529637	0.000679	6.790895	2.300818	-0.000272
 972	9.6615e+01	1.3107	24.323743	0.000517	5.169189	1.751369	-0.000207
 973	9.6714e+01	1.2786	24.081515	0.000608	6.081399	2.060434	-0.000243
 974	9.6814e+01	1.2288	23.843324	0.000598	5.980042	2.026093	-0.000239
 975	9.6913e+01	1.1855	23.605133	0.000598	5.980042	2.026093	-0.000239
 976	9.7013e+01	1.1470	23.350793	0.000639	6.385469	2.163455	-0.000256
 977	9.7112e+01	1.1085	23.100491	0.000628	6.284112	2.129115	-0.000252
 978	9.7212e+01	1.0572	22.886522	0.000537	5.371902	1.820050	-0.000215
 979	9.7311e+01	1.0299	22.644294	0.000608	6.081399	2.060434	-0.000243
 980	9.7410e+01	0.9866	22.410140	0.000588	5.878686	1.991753	-0.000235
 981	9.7510e+01	0.9353	22.143690	0.000669	6.689539	2.266477	-0.000268
 982	9.7609e+01	0.9080	21.937796	0.000517	5.169189	1.751369	-0.000207
 983	9.7709e+01	0.8695	21.663270	0.000689	6.892252	2.335158	-0.000276
 984	9.7808e+01	0.8342	21.453339	0.000527	5.270546	1.785709	-0.000211
 985	9.7908e+01	0.7845	21.243408	0.000527	5.270546	1.785709	-0.000211
 986	9.8007e+01	0.7363	20.964846	0.000699	6.993609	2.369499	-0.000280
 987	9.8107e+01	0.6978	20.754915	0.000527	5.270546	1.785709	-0.000211
 988	9.8207e+01	0.6609	20.496538	0.000649	6.486825	2.197796	-0.000260
 989	9.8306e+01	0.6289	20.238161	0.000649	6.486825	2.197796	-0.000260
 990	9.8406e+01	0.5871	20.044379	0.000487	4.865119	1.648347	-0.000195
 991	9.8505e+01	0.5486	19.769854	0.000689	6.892252	2.335158	-0.000276
 992	9.8605e+01	0.5134	19.567997	0.000507	5.067832	1.717028	-0.000203
 993	9.8704e+01	0.4684	19.317695	0.000628	6.284112	2.129115	-0.000252
 994	9.8803e+01	0.4299	19.047206	0.000679	6.790895	2.300818	-0.000272
 995	9.8903e+01	0.3834	18.800941	0.000618	6.182756	2.094774	-0.000248
 996	9.9002e+01	0.3545	18.591010	0.000527	5.270546	1.785709	-0.000211
 997	9.9102e+01	0.3144	18.332633	0.000649	6.486825	2.197796	-0.000260
 998	9.9201e+01	0.2647	18.090405	0.000608	6.081399	2.060434	-0.000243
 999	9.9301e+01	0.2310	17.876437	0.000537	5.371902	1.820050	-0.000215
1000	9.9400e+01	0.1845	17.589800	0.000720	7.196322	2.438180	-0.000288
1001	9.9500e+01	0.1460	17.351609	0.000598	5.980042	2.026093	-0.000239
1002	9.9600e+01	0.1123	17.073047	0.000699	6.993609	2.369499	-0.000280
1003	9.9699e+01	0.0674	16.818707	0.000639	6.385469	2.163455	-0.000256
1004	9.9799e+01	0.0257	16.580516	0.000598	5.980042	2.026093	-0.000239
1005	9.9898e+01	0.0000	16.423068	0.000395	3.952909	1.339282	-0.000158
1006	9.9998e+01	-0.0305	16.140469	0.000709	7.094965	2.403839	-0.000284
1007	1.0010e+02	-0.0866	15.882092	0.000649	6.486825	2.197796	-0.000260
1008	1.0020e+02	-0.1187	15.639864	0.000608	6.081399	2.060434	-0.000243
1009	1.0030e+02	-0.1636	15.417821	0.000557	5.574616	1.888731	-0.000223
1010	1.0040e+02	-0.2021	15.175593	0.000608	6.081399	2.060434	-0.000243
1011	1.0050e+02	-0.2454	14.909142	0.000669	6.689539	2.266477	-0.000268
1012	1.0059e+02	-0.2839	14.622506	0.000720	7.196322	2.438180	-0.000288
1013	1.0069e+02	-0.3144	14.412575	0.000527	5.270546	1.785709	-0.000211
1014	1.0079e+02	-0.3561	14.158235	0.000639	6.385469	2.163455	-0.000256
1015	1.0089e+02	-0.3995	13.944267	0.000537	5.371902	1.820050	-0.000215
1016	1.0099e+02	-0.4315	13.633407	0.000780	7.804462	2.644223	-0.000312
1017	1.0109e+02	-0.4781	13.395216	0.000598	5.980042	2.026093	-0.000239
1018	1.0119e+02	-0.5198	13.144914	0.000628	6.284112	2.129115	-0.000252
1019	1.0129e+02	-0.5631	12.906723	0.000598	5.980042	2.026093	-0.000239
1020	1.0139e+02	-0.5984	12.636235	0.000679	6.790895	2.300818	-0.000272
1021	1.0149e+02	-0.6401	12.418230	0.000547	5.473259	1.854390	-0.000219
1022	1.0159e+02	-0.6834	12.163890	0.000639	6.385469	2.163455	-0.000256
1023	1.0169e+02	-0.7139	11.889365	0.000689	6.892252	2.335158	-0.000276
1024	1.0179e+02	-0.7588	11.659248	0.000578	5.777329	1.957412	-0.000231
1025	1.0189e+02	-0.7941	11.396834	0.000659	6.588182	2.232137	-0.000264
1026	1.0199e+02	-0.8438	11.150569	0.000618	6.182756	2.094774	-0.000248
1027	1.0209e+02	-0.8759	10.900266	0.000628	6.284112	2.129115	-0.000252
1028	1.0219e+02	-0.9305	10.658038	0.000608	6.081399	2.060434	-0.000243
1029	1.0229e+02	-0.9609	10.383513	0.000689	6.892252	2.335158	-0.000276
1030	1.0239e+02	-0.9978	10.149359	0.000588	5.878686	1.991753	-0.000235
1031	1.0248e+02	-1.0428	9.886945	0.000659	6.588182	2.232137	-0.000264
1032	1.0258e+02	-1.0748	9.652792	0.000588	5.878686	1.991753	-0.000235
1033	1.0268e+02	-1.1182	9.402489	0.000628	6.284112	2.129115	-0.000252
1034	1.0278e+02	-1.1550	9.144112	0.000649	6.486825	2.197796	-0.000260
1035	1.0288e+02	-1.1919	8.881699	0.000659	6.588182	2.232137	-0.000264
1036	1.0298e+02	-1.2321	8.619285	0.000659	6.588182	2.232137	-0.000264
1037	1.0308e+02	-1.2898	8.373020	0.000618	6.182756	2.094774	-0.000248
1038	1.0318e+02	-1.3187	8.094457	0.000699	6.993609	2.369499	-0.000280
1039	1.0328e+02	-1.3572	7.888563	0.000517	5.169189	1.751369	-0.000207
1040	1.0338e+02	-1.3989	7.601927	0.000720	7.196322	2.438180	-0.000288
1041	1.0348e+02	-1.4374	7.335476	0.000669	6.689539	2.266477	-0.000268
1042	1.0358e+02	-1.4663	7.105359	0.000578	5.777329	1.957412	-0.000231
1043	1.0368e+02	-1.5160	6.863131	0.000608	6.081399	2.060434	-0.000243
1044	1.0378e+02	-1.5609	6.624940	0.000598	5.980042	2.026093	-0.000239
1045	1.0388e+02	-1.5914	6.366563	0.000649	6.486825	2.197796	-0.000260
1046	1.0398e+02	-1.6315	6.140483	0.000568	5.675972	1.923071	-0.000227
1047	1.0408e+02	-1.6796	5.849810	0.000730	7.297679	2.472520	-0.000292
1048	1.0418e+02	-1.7085	5.631804	0.000547	5.473259	1.854390	-0.000219
1049	1.0428e+02	-1.7518	5.357279	0.000689	6.892252	2.335158	-0.000276
1050	1.0438e+02	-1.7919	5.111014	0.000618	6.182756	2.094774	-0.000248
1051	1.0447e+02	-1.8352	4.856674	0.000639	6.385469	2.163455	-0.000256
1052	1.0457e+02	-1.8786	4.598298	0.000649	6.486825	2.197796	-0.000260
1053	1.0467e+02	-1.9171	4.364144	0.000588	5.878686	1.991753	-0.000235
1054	1.0477e+02	-1.9540	4.109804	0.000639	6.385469	2.163455	-0.000256
1055	1.0487e+02	-1.9973	3.835279	0.000689	6.892252	2.335158	-0.000276
1056	1.0497e+02	-2.0390	3.593051	0.000608	6.081399	2.060434	-0.000243
1057	1.0507e+02	-2.0839	3.358897	0.000588	5.878686	1.991753	-0.000235
1058	1.0517e+02	-2.1176	3.084372	0.000689	6.892252	2.335158	-0.000276
1059	1.0527e+02	-2.1577	2.813884	0.000679	6.790895	2.300818	-0.000272
1060	1.0537e+02	-2.1898	2.575693	0.000598	5.980042	2.026093	-0.000239
1061	1.0547e+02	-2.2299	2.333464	0.000608	6.081399	2.060434	-0.000243
1062	1.0557e+02	-2.2668	2.067013	0.000669	6.689539	2.266477	-0.000268
1063	1.0567e+02	-2.3101	1.828822	0.000598	5.980042	2.026093	-0.000239
1064	1.0577e+02	-2.3518	1.590631	0.000598	5.980042	2.026093	-0.000239
1065	1.0587e+02	-2.3967	1.340329	0.000628	6.284112	2.129115	-0.000252
1066	1.0597e+02	-2.4368	1.110212	0.000578	5.777329	1.957412	-0.000231
1067	1.0607e+02	-2.4689	0.843761	0.000669	6.689539	2.266477	-0.000268
1068	1.0617e+02	-2.5170	0.609607	0.000588	5.878686	1.991753	-0.000235
1069	1.0627e+02	-2.5539	0.339119	0.000679	6.790895	2.300818	-0.000272
1070	1.0637e+02	-2.5908	0.092854	0.000618	6.182756	2.094774	-0.000248
1071	1.0647e+02	-2.6277	-0.161485	0.000639	6.385469	2.163455	-0.000256
1072	1.0656e+02	-2.6662	-0.383528	0.000557	5.574616	1.888731	-0.000223
1073	1.0666e+02	-2.7112	-0.629793	0.000618	6.182756	2.094774	-0.000248
1074	1.0676e+02	-2.7545	-0.892207	0.000659	6.588182	2.232137	-0.000264
1075	1.0686e+02	-2.7882	-1.186918	0.000740	7.399035	2.506861	-0.000296
1076	1.0696e+02	-2.8299	-1.356478	0.000426	4.256979	1.442304	-0.000170
1077	1.0706e+02	-2.8716	-1.606780	0.000628	6.284112	2.129115	-0.000252
1078	1.0716e+02	-2.9101	-1.812674	0.000517	5.169189	1.751369	-0.000207
1079	1.0726e+02	-2.9502	-2.091236	0.000699	6.993609	2.369499	-0.000280
1080	1.0736e+02	-2.9951	-2.341539	0.000628	6.284112	2.129115	-0.000252
1081	1.0746e+02	-3.0320	-2.571655	0.000578	5.777329	1.957412	-0.000231
1082	1.0756e+02	-3.0689	-2.817921	0.000618	6.182756	2.094774	-0.000248
1083	1.0766e+02	-3.1154	-3.023815	0.000517	5.169189	1.751369	-0.000207
1084	1.0776e+02	-3.1475	-3.306414	0.000709	7.094965	2.403839	-0.000284
1085	1.0786e+02	-3.1940	-3.572865	0.000669	6.689539	2.266477	-0.000268
1086	1.0796e+02	-3.2277	-3.794908	0.000557	5.574616	1.888731	-0.000223
1087	1.0806e+02	-3.2678	-4.004839	0.000527	5.270546	1.785709	-0.000211
1088	1.0816e+02	-3.3095	-4.255141	0.000628	6.284112	2.129115	-0.000252
1089	1.0826e+02	-3.3432	-4.456998	0.000507	5.067832	1.717028	-0.000203
1090	1.0836e+02	-3.3994	-4.691152	0.000588	5.878686	1.991753	-0.000235
1091	1.0845e+02	-3.4170	-4.965677	0.000689	6.892252	2.335158	-0.000276
1092	1.0855e+02	-3.4700	-5.199831	0.000588	5.878686	1.991753	-0.000235
1093	1.0865e+02	-3.5020	-5.401688	0.000507	5.067832	1.717028	-0.000203
1094	1.0875e+02	-3.5630	-5.651990	0.000628	6.284112	2.129115	-0.000252
1095	1.0885e+02	-3.5871	-5.894218	0.000608	6.081399	2.060434	-0.000243
1096	1.0895e+02	-3.6272	-6.100112	0.000517	5.169189	1.751369	-0.000207
1097	1.0905e+02	-3.6689	-6.338303	0.000598	5.980042	2.026093	-0.000239
1098	1.0915e+02	-3.6994	-6.600717	0.000659	6.588182	2.232137	-0.000264
1099	1.0925e+02	-3.7459	-6.826797	0.000568	5.675972	1.923071	-0.000227
1100	1.0935e+02	-3.7844	-7.028653	0.000507	5.067832	1.717028	-0.000203
1101	1.0945e+02	-3.8229	-7.274919	0.000618	6.182756	2.094774	-0.000248
1102	1.0955e+02	-3.8662	-7.480813	0.000517	5.169189	1.751369	-0.000207
1103	1.0965e+02	-3.9127	-7.775523	0.000740	7.399035	2.506861	-0.000296
1104	1.0975e+02	-3.9464	-7.981417	0.000517	5.169189	1.751369	-0.000207
1105	1.0985e+02	-3.9833	-8.239794	0.000649	6.486825	2.197796	-0.000260
1106	1.0995e+02	-4.0379	-8.421465	0.000456	4.561049	1.545325	-0.000183
1107	1.1005e+02	-4.0764	-8.675805	0.000639	6.385469	2.163455	-0.000256
1108	1.1015e+02	-4.1004	-8.885736	0.000527	5.270546	1.785709	-0.000211
1109	1.1025e+02	-4.1469	-9.079518	0.000487	4.865119	1.648347	-0.000195
1110	1.1035e+02	-4.1822	-9.325784	0.000618	6.182756	2.094774	-0.000248
1111	1.1044e+02	-4.2320	-9.547826	0.000557	5.574616	1.888731	-0.000223
1112	1.1054e+02	-4.2641	-9.798128	0.000628	6.284112	2.129115	-0.000252
1113	1.1064e+02	-4.3058	-10.024208	0.000568	5.675972	1.923071	-0.000227
1114	1.1074e+02	-4.3459	-10.290659	0.000669	6.689539	2.266477	-0.000268
1115	1.1084e+02	-4.3828	-10.456182	0.000416	4.155623	1.407963	-0.000166
1116	1.1094e+02	-4.4261	-10.710521	0.000639	6.385469	2.163455	-0.000256
1117	1.1104e+02	-4.4694	-10.948712	0.000598	5.980042	2.026093	-0.000239
1118	1.1114e+02	-4.5047	-11.199015	0.000628	6.284112	2.129115	-0.000252
1119	1.1124e+02	-4.5480	-11.348389	0.000375	3.750196	1.270601	-0.000150
1120	1.1134e+02	-4.5881	-11.578505	0.000578	5.777329	1.957412	-0.000231
1121	1.1144e+02	-4.6154	-11.828808	0.000628	6.284112	2.129115	-0.000252
1122	1.1154e+02	-4.6635	-12.062962	0.000588	5.878686	1.991753	-0.000235
1123	1.1164e+02	-4.7068	-12.280967	0.000547	5.473259	1.854390	-0.000219
1124	1.1174e+02	-4.7373	-12.478787	0.000497	4.966476	1.682688	-0.000199
1125	1.1184e+02	-4.7870	-12.712940	0.000588	5.878686	1.991753	-0.000235
1126	1.1194e+02	-4.8303	-12.947094	0.000588	5.878686	1.991753	-0.000235
1127	1.1204e+02	-4.8656	-13.140877	0.000487	4.865119	1.648347	-0.000195
1128	1.1214e+02	-4.9057	-13.358882	0.000547	5.473259	1.854390	-0.000219
1129	1.1224e+02	-4.9378	-13.552665	0.000487	4.865119	1.648347	-0.000195
1130	1.1234e+02	-4.9827	-13.782781	0.000578	5.777329	1.957412	-0.000231
1131	1.1244e+02	-5.0148	-14.049232	0.000669	6.689539	2.266477	-0.000268
1132	1.1253e+02	-5.0710	-14.238978	0.000476	4.763762	1.614006	-0.000191
1133	1.1263e+02	-5.0999	-14.428723	0.000476	4.763762	1.614006	-0.000191
1134	1.1273e+02	-5.1464	-14.618469	0.000476	4.763762	1.614006	-0.000191
1135	1.1283e+02	-5.1769	-14.905105	0.000720	7.196322	2.438180	-0.000288
1136	1.1293e+02	-5.2218	-15.102925	0.000497	4.966476	1.682688	-0.000199
1137	1.1303e+02	-5.2571	-15.333042	0.000578	5.777329	1.957412	-0.000231
1138	1.1313e+02	-5.3020	-15.547010	0.000537	5.371902	1.820050	-0.000215
1139	1.1323e+02	-5.3405	-15.716569	0.000426	4.256979	1.442304	-0.000170
1140	1.1333e+02	-5.3886	-15.934575	0.000547	5.473259	1.854390	-0.000219
1141	1.1343e+02	-5.4239	-16.168729	0.000588	5.878686	1.991753	-0.000235
1142	1.1353e+02	-5.4592	-16.342325	0.000436	4.358336	1.476644	-0.000174
1143	1.1363e+02	-5.5025	-16.560331	0.000547	5.473259	1.854390	-0.000219
1144	1.1373e+02	-5.5378	-16.762188	0.000507	5.067832	1.717028	-0.000203
1145	1.1383e+02	-5.5731	-17.000379	0.000598	5.980042	2.026093	-0.000239
1146	1.1393e+02	-5.6228	-17.182050	0.000456	4.561049	1.545325	-0.000183
1147	1.1403e+02	-5.6694	-17.391981	0.000527	5.270546	1.785709	-0.000211
1148	1.1413e+02	-5.6998	-17.634209	0.000608	6.081399	2.060434	-0.000243
1149	1.1423e+02	-5.7464	-17.791657	0.000395	3.952909	1.339282	-0.000158
1150	1.1433e+02	-5.7817	-18.005625	0.000537	5.371902	1.820050	-0.000215
1151	1.1442e+02	-5.8250	-18.227668	0.000557	5.574616	1.888731	-0.000223
1152	1.1452e+02	-5.8554	-18.401265	0.000436	4.358336	1.476644	-0.000174
1153	1.1462e+02	-5.8956	-18.603121	0.000507	5.067832	1.717028	-0.000203
1154	1.1472e+02	-5.9565	-18.817090	0.000537	5.371902	1.820050	-0.000215
1155	1.1482e+02	-5.9790	-19.031058	0.000537	5.371902	1.820050	-0.000215
1156	1.1492e+02	-6.0191	-19.204655	0.000436	4.358336	1.476644	-0.000174
1157	1.1502e+02	-6.0624	-19.386326	0.000456	4.561049	1.545325	-0.000183
1158	1.1512e+02	-6.0993	-19.677000	0.000730	7.297679	2.472520	-0.000292
1159	1.1522e+02	-6.1426	-19.822336	0.000365	3.648839	1.236260	-0.000146
1160	1.1532e+02	-6.1747	-20.024193	0.000507	5.067832	1.717028	-0.000203
1161	1.1542e+02	-6.2132	-20.238161	0.000537	5.371902	1.820050	-0.000215
1162	1.1552e+02	-6.2661	-20.415795	0.000446	4.459693	1.510985	-0.000179
1163	1.1562e+02	-6.3014	-20.621689	0.000517	5.169189	1.751369	-0.000207
1164	1.1572e+02	-6.3335	-20.823546	0.000507	5.067832	1.717028	-0.000203
1165	1.1582e+02	-6.3800	-21.005217	0.000456	4.561049	1.545325	-0.000183
1166	1.1592e+02	-6.4201	-21.243408	0.000598	5.980042	2.026093	-0.000239
1167	1.1602e+02	-6.4538	-21.408931	0.000416	4.155623	1.407963	-0.000166
1168	1.1612e+02	-6.4891	-21.590602	0.000456	4.561049	1.545325	-0.000183
1169	1.1622e+02	-6.5308	-21.792459	0.000507	5.067832	1.717028	-0.000203
1170	1.1632e+02	-6.5758	-22.006427	0.000537	5.371902	1.820050	-0.000215
1171	1.1642e+02	-6.6191	-22.180024	0.000436	4.358336	1.476644	-0.000174
1172	1.1651e+02	-6.6544	-22.398029	0.000547	5.473259	1.854390	-0.000219
1173	1.1661e+02	-6.6945	-22.559515	0.000405	4.054266	1.373622	-0.000162
1174	1.1671e+02	-6.7249	-22.729074	0.000426	4.256979	1.442304	-0.000170
1175	1.1681e+02	-6.7779	-22.947080	0.000547	5.473259	1.854390	-0.000219
1176	1.1691e+02	-6.8164	-23.185271	0.000598	5.980042	2.026093	-0.000239
1177	1.1701e+02	-6.8565	-23.362905	0.000446	4.459693	1.510985	-0.000179
1178	1.1711e+02	-6.9014	-23.512279	0.000375	3.750196	1.270601	-0.000150
1179	1.1721e+02	-6.9399	-23.746432	0.000588	5.878686	1.991753	-0.000235
1180	1.1731e+02	-6.9768	-23.891769	0.000365	3.648839	1.236260	-0.000146
1181	1.1741e+02	-7.0169	-24.097663	0.000517	5.169189	1.751369	-0.000207
1182	1.1751e+02	-7.0538	-24.323743	0.000568	5.675972	1.923071	-0.000227
1183	1.1761e+02	-7.0939	-24.517525	0.000487	4.865119	1.648347	-0.000195
1184	1.1771e+02	-7.1324	-24.695159	0.000446	4.459693	1.510985	-0.000179
1185	1.1781e+02	-7.1661	-24.872793	0.000446	4.459693	1.510985	-0.000179
1186	1.1791e+02	-7.2078	-25.070613	0.000497	4.966476	1.682688	-0.000199
1187	1.1801e+02	-7.2511	-25.244210	0.000436	4.358336	1.476644	-0.000174
1188	1.1811e+02	-7.2912	-25.446067	0.000507	5.067832	1.717028	-0.000203
1189	1.1821e+02	-7.3362	-25.631775	0.000466	4.662406	1.579666	-0.000187
1190	1.1831e+02	-7.3731	-25.809409	0.000446	4.459693	1.510985	-0.000179
1191	1.1841e+02	-7.4019	-26.019340	0.000527	5.270546	1.785709	-0.000211
1192	1.1850e+02	-7.4517	-26.164677	0.000365	3.648839	1.236260	-0.000146
1193	1.1860e+02	-7.4950	-26.362496	0.000497	4.966476	1.682688	-0.000199
1194	1.1870e+02	-7.5255	-26.576465	0.000537	5.371902	1.820050	-0.000215
1195	1.1880e+02	-7.5591	-26.721801	0.000365	3.648839	1.236260	-0.000146
1196	1.1890e+02	-7.6201	-26.919621	0.000497	4.966476	1.682688	-0.000199
1197	1.1900e+02	-7.6522	-27.121478	0.000507	5.067832	1.717028	-0.000203
1198	1.1910e+02	-7.6891	-27.303149	0.000456	4.561049	1.545325	-0.000183
1199	1.1920e+02	-7.7324	-27.460597	0.000395	3.952909	1.339282	-0.000158
1200	1.1930e+02	-7.7645	-27.658417	0.000497	4.966476	1.682688	-0.000199
1201	1.1940e+02	-7.8094	-27.852199	0.000487	4.865119	1.648347	-0.000195
1202	1.1950e+02	-7.8495	-27.993499	0.000355	3.547483	1.201920	-0.000142
1203	1.1960e+02	-7.8992	-28.171133	0.000446	4.459693	1.510985	-0.000179
1204	1.1970e+02	-7.9313	-28.352804	0.000456	4.561049	1.545325	-0.000183
1205	1.1980e+02	-7.9586	-28.570810	0.000547	5.473259	1.854390	-0.000219
1206	1.1990e+02	-8.0115	-28.724221	0.000385	3.851553	1.304941	-0.000154
1207	1.2000e+02	-8.0436	-28.901855	0.000446	4.459693	1.510985	-0.000179
1208	1.2010e+02	-8.0869	-29.119860	0.000547	5.473259	1.854390	-0.000219
1209	1.2020e+02	-8.1319	-29.285383	0.000416	4.155623	1.407963	-0.000166
1210	1.2030e+02	-8.1655	-29.450905	0.000416	4.155623	1.407963	-0.000166
1211	1.2039e+02	-8.2105	-29.616428	0.000416	4.155623	1.407963	-0.000166
1212	1.2049e+02	-8.2458	-29.834433	0.000547	5.473259	1.854390	-0.000219
1213	1.2059e+02	-8.2939	-29.987844	0.000385	3.851553	1.304941	-0.000154
1214	1.2069e+02	-8.3260	-30.177590	0.000476	4.763762	1.614006	-0.000191
1215	1.2079e+02	-8.3693	-30.318889	0.000355	3.547483	1.201920	-0.000142
1216	1.2089e+02	-8.4094	-30.500561	0.000456	4.561049	1.545325	-0.000183
1217	1.2099e+02	-8.4559	-30.678194	0.000446	4.459693	1.510985	-0.000179
1218	1.2109e+02	-8.4752	-30.863903	0.000466	4.662406	1.579666	-0.000187
1219	1.2119e+02	-8.5233	-31.013277	0.000375	3.750196	1.270601	-0.000150
1220	1.2129e+02	-8.5698	-31.263579	0.000628	6.284112	2.129115	-0.000252
1221	1.2139e+02	-8.6051	-31.392767	0.000324	3.243413	1.098898	-0.000130
1222	1.2149e+02	-8.6468	-31.598661	0.000517	5.169189	1.751369	-0.000207
1223	1.2159e+02	-8.6998	-31.756110	0.000395	3.952909	1.339282	-0.000158
1224	1.2169e+02	-8.7222	-31.933744	0.000446	4.459693	1.510985	-0.000179
1225	1.2179e+02	-8.7623	-32.103303	0.000426	4.256979	1.442304	-0.000170
1226	1.2189e+02	-8.8024	-32.276900	0.000436	4.358336	1.476644	-0.000174
1227	1.2199e+02	-8.8506	-32.450497	0.000436	4.358336	1.476644	-0.000174
1228	1.2209e+02	-8.8794	-32.644280	0.000487	4.865119	1.648347	-0.000195
1229	1.2219e+02	-8.9243	-32.817876	0.000436	4.358336	1.476644	-0.000174
1230	1.2229e+02	-8.9612	-32.963213	0.000365	3.648839	1.236260	-0.000146
1231	1.2239e+02	-9.0110	-33.148922	0.000466	4.662406	1.579666	-0.000187
1232	1.2248e+02	-9.0447	-33.358853	0.000527	5.270546	1.785709	-0.000211
1233	1.2258e+02	-9.0864	-33.552635	0.000487	4.865119	1.648347	-0.000195
1234	1.2268e+02	-9.1249	-33.697972	0.000365	3.648839	1.236260	-0.000146
1235	1.2278e+02	-9.1682	-33.839272	0.000355	3.547483	1.201920	-0.000142
1236	1.2288e+02	-9.2115	-34.105723	0.000669	6.689539	2.266477	-0.000268
1237	1.2298e+02	-9.2532	-34.210688	0.000264	2.635273	0.892855	-0.000105
1238	1.2308e+02	-9.2901	-34.404471	0.000487	4.865119	1.648347	-0.000195
1239	1.2318e+02	-9.3110	-34.521548	0.000294	2.939343	0.995876	-0.000118
1240	1.2328e+02	-9.3623	-34.775887	0.000639	6.385469	2.163455	-0.000256
1241	1.2338e+02	-9.4040	-34.905076	0.000324	3.243413	1.098898	-0.000130
1242	1.2348e+02	-9.4393	-35.070598	0.000416	4.155623	1.407963	-0.000166
1243	1.2358e+02	-9.4794	-35.248232	0.000446	4.459693	1.510985	-0.000179
1244	1.2368e+02	-9.5307	-35.389532	0.000355	3.547483	1.201920	-0.000142
1245	1.2378e+02	-9.5644	-35.599463	0.000527	5.270546	1.785709	-0.000211
1246	1.2388e+02	-9.6029	-35.781134	0.000456	4.561049	1.545325	-0.000183
1247	1.2398e+02	-9.6334	-35.922434	0.000355	3.547483	1.201920	-0.000142
1248	1.2408e+02	-9.6848	-36.091993	0.000426	4.256979	1.442304	-0.000170
1249	1.2418e+02	-9.7313	-36.249442	0.000395	3.952909	1.339282	-0.000158
1250	1.2428e+02	-9.7602	-36.431113	0.000456	4.561049	1.545325	-0.000183
1251	1.2438e+02	-9.8019	-36.624895	0.000487	4.865119	1.648347	-0.000195
1252	1.2447e+02	-9.8452	-36.794455	0.000426	4.256979	1.442304	-0.000170
1253	1.2457e+02	-9.8853	-36.972089	0.000446	4.459693	1.510985	-0.000179
1254	1.2467e+02	-9.9174	-37.149723	0.000446	4.459693	1.510985	-0.000179
1255	1.2477e+02	-9.9639	-37.258726	0.000274	2.736630	0.927195	-0.000110
1256	1.2487e+02	-10.0024	-37.476731	0.000547	5.473259	1.854390	-0.000219
1257	1.2497e+02	-10.0361	-37.658402	0.000456	4.561049	1.545325	-0.000183
1258	1.2507e+02	-10.0762	-37.791628	0.000334	3.344769	1.133239	-0.000134
1259	1.2517e+02	-10.1147	-37.953113	0.000405	4.054266	1.373622	-0.000162
1260	1.2527e+02	-10.1628	-38.126710	0.000436	4.358336	1.476644	-0.000174
1261	1.2537e+02	-10.2013	-38.272047	0.000365	3.648839	1.236260	-0.000146
1262	1.2547e+02	-10.2382	-38.490052	0.000547	5.473259	1.854390	-0.000219
1263	1.2557e+02	-10.2767	-38.631352	0.000355	3.547483	1.201920	-0.000142
1264	1.2567e+02	-10.3232	-38.796874	0.000416	4.155623	1.407963	-0.000166
1265	1.2577e+02	-10.3633	-38.978546	0.000456	4.561049	1.545325	-0.000183
1266	1.2587e+02	-10.3922	-39.172328	0.000487	4.865119	1.648347	-0.000195
1267	1.2597e+02	-10.4387	-39.285368	0.000284	2.837986	0.961536	-0.000114
1268	1.2607e+02	-10.4724	-39.499336	0.000537	5.371902	1.820050	-0.000215
1269	1.2617e+02	-10.5206	-39.620450	0.000304	3.040699	1.030217	-0.000122
1270	1.2627e+02	-10.5494	-39.814233	0.000487	4.865119	1.648347	-0.000195
1271	1.2636e+02	-10.5960	-39.955532	0.000355	3.547483	1.201920	-0.000142
1272	1.2646e+02	-10.6377	-40.145278	0.000476	4.763762	1.614006	-0.000191
1273	1.2656e+02	-10.6810	-40.294652	0.000375	3.750196	1.270601	-0.000150
1274	1.2666e+02	-10.7131	-40.435952	0.000355	3.547483	1.201920	-0.000142
1275	1.2676e+02	-10.7516	-40.629734	0.000487	4.865119	1.648347	-0.000195
1276	1.2686e+02	-10.7997	-40.807368	0.000446	4.459693	1.510985	-0.000179
1277	1.2696e+02	-10.8398	-41.001151	0.000487	4.865119	1.648347	-0.000195
1278	1.2706e+02	-10.8799	-41.138413	0.000345	3.446126	1.167579	-0.000138
1279	1.2716e+02	-10.9200	-41.263564	0.000314	3.142056	1.064557	-0.000126
1280	1.2726e+02	-10.9553	-41.497718	0.000588	5.878686	1.991753	-0.000235
1281	1.2736e+02	-10.9954	-41.618832	0.000304	3.040699	1.030217	-0.000122
1282	1.2746e+02	-11.0451	-41.812615	0.000487	4.865119	1.648347	-0.000195
1283	1.2756e+02	-11.0740	-41.953915	0.000355	3.547483	1.201920	-0.000142
1284	1.2766e+02	-11.1205	-42.111363	0.000395	3.952909	1.339282	-0.000158
1285	1.2776e+02	-11.1590	-42.293034	0.000456	4.561049	1.545325	-0.000183
1286	1.2786e+02	-11.1959	-42.454519	0.000405	4.054266	1.373622	-0.000162
1287	1.2796e+02	-11.2328	-42.599856	0.000365	3.648839	1.236260	-0.000146
1288	1.2806e+02	-11.2794	-42.801713	0.000507	5.067832	1.717028	-0.000203
1289	1.2816e+02	-11.3147	-42.967236	0.000416	4.155623	1.407963	-0.000166
1290	1.2826e+02	-11.3580	-43.128721	0.000405	4.054266	1.373622	-0.000162
1291	1.2835e+02	-11.3997	-43.265984	0.000345	3.446126	1.167579	-0.000138
1292	1.2845e+02	-11.4318	-43.455729	0.000476	4.763762	1.614006	-0.000191
1293	1.2855e+02	-11.4719	-43.601066	0.000365	3.648839	1.236260	-0.000146
1294	1.2865e+02	-11.5152	-43.790811	0.000476	4.763762	1.614006	-0.000191
1295	1.2875e+02	-11.5649	-43.911925	0.000304	3.040699	1.030217	-0.000122
1296	1.2885e+02	-11.5938	-44.077448	0.000416	4.155623	1.407963	-0.000166
1297	1.2895e+02	-11.6339	-44.222785	0.000365	3.648839	1.236260	-0.000146
1298	1.2905e+02	-11.6660	-44.428679	0.000517	5.169189	1.751369	-0.000207
1299	1.2915e+02	-11.7205	-44.525570	0.000243	2.432560	0.824173	-0.000097
1300	1.2925e+02	-11.7526	-44.767798	0.000608	6.081399	2.060434	-0.000243
1301	1.2935e+02	-11.7991	-44.905061	0.000345	3.446126	1.167579	-0.000138
1302	1.2945e+02	-11.8248	-45.078658	0.000436	4.358336	1.476644	-0.000174
1303	1.2955e+02	-11.8777	-45.252254	0.000436	4.358336	1.476644	-0.000174
1304	1.2965e+02	-11.9130	-45.381443	0.000324	3.243413	1.098898	-0.000130
1305	1.2975e+02	-11.9596	-45.551003	0.000426	4.256979	1.442304	-0.000170
1306	1.2985e+02	-11.9836	-45.692302	0.000355	3.547483	1.201920	-0.000142
1307	1.2995e+02	-12.0430	-45.849751	0.000395	3.952909	1.339282	-0.000158
1308	1.3005e+02	-12.0847	-46.003162	0.000385	3.851553	1.304941	-0.000154
1309	1.3015e+02	-12.1216	-46.164647	0.000405	4.054266	1.373622	-0.000162
1310	1.3025e+02	-12.1553	-46.330170	0.000416	4.155623	1.407963	-0.000166
1311	1.3034e+02	-12.1970	-46.503767	0.000436	4.358336	1.476644	-0.000174
1312	1.3044e+02	-12.2403	-46.608732	0.000264	2.635273	0.892855	-0.000105
1313	1.3054e+02	-12.2772	-46.786366	0.000446	4.459693	1.510985	-0.000179
1314	1.3064e+02	-12.3109	-46.959963	0.000436	4.358336	1.476644	-0.000174
1315	1.3074e+02	-12.3558	-47.125485	0.000416	4.155623	1.407963	-0.000166
1316	1.3084e+02	-12.3879	-47.242562	0.000294	2.939343	0.995876	-0.000118
1317	1.3094e+02	-12.4248	-47.375788	0.000334	3.344769	1.133239	-0.000134
1318	1.3104e+02	-12.4713	-47.618016	0.000608	6.081399	2.060434	-0.000243
1319	1.3114e+02	-12.5130	-47.739130	0.000304	3.040699	1.030217	-0.000122
1320	1.3124e+02	-12.5547	-47.900616	0.000405	4.054266	1.373622	-0.000162
1321	1.3134e+02	-12.5932	-48.049990	0.000375	3.750196	1.270601	-0.000150
1322	1.3144e+02	-12.6253	-48.207438	0.000395	3.952909	1.339282	-0.000158
1323	1.3154e+02	-12.6654	-48.352775	0.000365	3.648839	1.236260	-0.000146
1324	1.3164e+02	-12.7071	-48.554632	0.000507	5.067832	1.717028	-0.000203
1325	1.3174e+02	-12.7408	-48.699968	0.000365	3.648839	1.236260	-0.000146
1326	1.3184e+02	-12.7922	-48.841268	0.000355	3.547483	1.201920	-0.000142
1327	1.3194e+02	-12.8210	-48.974494	0.000334	3.344769	1.133239	-0.000134
1328	1.3204e+02	-12.8724	-49.188462	0.000537	5.371902	1.820050	-0.000215
1329	1.3214e+02	-12.8980	-49.285353	0.000243	2.432560	0.824173	-0.000097
1330	1.3224e+02	-12.9365	-49.446839	0.000405	4.054266	1.373622	-0.000162
1331	1.3234e+02	-12.9863	-49.588138	0.000355	3.547483	1.201920	-0.000142
1332	1.3243e+02	-13.0328	-49.761735	0.000436	4.358336	1.476644	-0.000174
1333	1.3253e+02	-13.0681	-49.967629	0.000517	5.169189	1.751369	-0.000207
1334	1.3263e+02	-13.1146	-50.076632	0.000274	2.736630	0.927195	-0.000110
1335	1.3273e+02	-13.1531	-50.242154	0.000416	4.155623	1.407963	-0.000166
1336	1.3283e+02	-13.1980	-50.375380	0.000334	3.344769	1.133239	-0.000134
1337	1.3293e+02	-13.2317	-50.565125	0.000476	4.763762	1.614006	-0.000191
1338	1.3303e+02	-13.2638	-50.706425	0.000355	3.547483	1.201920	-0.000142
1339	1.3313e+02	-13.3103	-50.855799	0.000375	3.750196	1.270601	-0.000150
1340	1.3323e+02	-13.3408	-51.029396	0.000436	4.358336	1.476644	-0.000174
1341	1.3333e+02	-13.3889	-51.166658	0.000345	3.446126	1.167579	-0.000138
1342	1.3343e+02	-13.4290	-51.336218	0.000426	4.256979	1.442304	-0.000170
1343	1.3353e+02	-13.4675	-51.497703	0.000405	4.054266	1.373622	-0.000162
1344	1.3363e+02	-13.5044	-51.667263	0.000426	4.256979	1.442304	-0.000170
1345	1.3373e+02	-13.5461	-51.816637	0.000375	3.750196	1.270601	-0.000150
1346	1.3383e+02	-13.5830	-51.994271	0.000446	4.459693	1.510985	-0.000179
1347	1.3393e+02	-13.6376	-52.143645	0.000375	3.750196	1.270601	-0.000150
1348	1.3403e+02	-13.6584	-52.333391	0.000476	4.763762	1.614006	-0.000191
1349	1.3413e+02	-13.7066	-52.466616	0.000334	3.344769	1.133239	-0.000134
1350	1.3423e+02	-13.7483	-52.611953	0.000365	3.648839	1.236260	-0.000146
1351	1.3432e+02	-13.7948	-52.785550	0.000436	4.358336	1.476644	-0.000174
1352	1.3442e+02	-13.8301	-52.983369	0.000497	4.966476	1.682688	-0.000199
1353	1.3452e+02	-13.8702	-53.080261	0.000243	2.432560	0.824173	-0.000097
1354	1.3462e+02	-13.9167	-53.245783	0.000416	4.155623	1.407963	-0.000166
1355	1.3472e+02	-13.9392	-53.439566	0.000487	4.865119	1.648347	-0.000195
1356	1.3482e+02	-13.9825	-53.580866	0.000355	3.547483	1.201920	-0.000142
1357	1.3492e+02	-14.0178	-53.746388	0.000416	4.155623	1.407963	-0.000166
1358	1.3502e+02	-14.0643	-53.891725	0.000365	3.648839	1.236260	-0.000146
1359	1.3512e+02	-14.1044	-54.033025	0.000355	3.547483	1.201920	-0.000142
1360	1.3522e+02	-14.1397	-54.255067	0.000557	5.574616	1.888731	-0.000223
1361	1.3532e+02	-14.1894	-54.392330	0.000345	3.446126	1.167579	-0.000138
1362	1.3542e+02	-14.2199	-54.590149	0.000497	4.966476	1.682688	-0.000199
1363	1.3552e+02	-14.2584	-54.695115	0.000264	2.635273	0.892855	-0.000105
1364	1.3562e+02	-14.3146	-54.888897	0.000487	4.865119	1.648347	-0.000195
1365	1.3572e+02	-14.3418	-55.058457	0.000426	4.256979	1.442304	-0.000170
1366	1.3582e+02	-14.3819	-55.223980	0.000416	4.155623	1.407963	-0.000166
1367	1.3592e+02	-14.4188	-55.353168	0.000324	3.243413	1.098898	-0.000130
1368	1.3602e+02	-14.4686	-55.579248	0.000568	5.675972	1.923071	-0.000227
1369	1.3612e+02	-14.5039	-55.716510	0.000345	3.446126	1.167579	-0.000138
1370	1.3622e+02	-14.5424	-55.849736	0.000334	3.344769	1.133239	-0.000134
1371	1.3631e+02	-14.5745	-56.059667	0.000527	5.270546	1.785709	-0.000211
1372	1.3641e+02	-14.6242	-56.237301	0.000446	4.459693	1.510985	-0.000179
1373	1.3651e+02	-14.6563	-56.366489	0.000324	3.243413	1.098898	-0.000130
1374	1.3661e+02	-14.7092	-56.532012	0.000416	4.155623	1.407963	-0.000166
1375	1.3671e+02	-14.7397	-56.729831	0.000497	4.966476	1.682688	-0.000199
1376	1.3681e+02	-14.7750	-56.850945	0.000304	3.040699	1.030217	-0.000122
1377	1.3691e+02	-14.8247	-57.056839	0.000517	5.169189	1.751369	-0.000207
1378	1.3701e+02	-14.8568	-57.222362	0.000416	4.155623	1.407963	-0.000166
1379	1.3711e+02	-14.8985	-57.363662	0.000355	3.547483	1.201920	-0.000142
1380	1.3721e+02	-14.9370	-57.573593	0.000527	5.270546	1.785709	-0.000211
1381	1.3731e+02	-14.9803	-57.702781	0.000324	3.243413	1.098898	-0.000130
1382	1.3741e+02	-15.0285	-57.884452	0.000456	4.561049	1.545325	-0.000183
1383	1.3751e+02	-15.0686	-58.074198	0.000476	4.763762	1.614006	-0.000191
1384	1.3761e+02	-15.0894	-58.259906	0.000466	4.662406	1.579666	-0.000187
1385	1.3771e+02	-15.1456	-58.485985	0.000568	5.675972	1.923071	-0.000227
1386	1.3781e+02	-15.1728	-58.599025	0.000284	2.837986	0.961536	-0.000114
1387	1.3791e+02	-15.2145	-58.772622	0.000436	4.358336	1.476644	-0.000174
1388	1.3801e+02	-15.2595	-58.942182	0.000426	4.256979	1.442304	-0.000170
1389	1.3811e+02	-15.2980	-59.160187	0.000547	5.473259	1.854390	-0.000219
1390	1.3821e+02	-15.3429	-59.333784	0.000436	4.358336	1.476644	-0.000174
1391	1.3831e+02	-15.3782	-59.491232	0.000395	3.952909	1.339282	-0.000158
1392	1.3840e+02	-15.4183	-59.717312	0.000568	5.675972	1.923071	-0.000227
1393	1.3850e+02	-15.4536	-59.894946	0.000446	4.459693	1.510985	-0.000179
1394	1.3860e+02	-15.5049	-60.064506	0.000426	4.256979	1.442304	-0.000170
1395	1.3870e+02	-15.5418	-60.254251	0.000476	4.763762	1.614006	-0.000191
1396	1.3880e+02	-15.5803	-60.456108	0.000507	5.067832	1.717028	-0.000203
1397	1.3890e+02	-15.6172	-60.633742	0.000446	4.459693	1.510985	-0.000179
1398	1.3900e+02	-15.6541	-60.831561	0.000497	4.966476	1.682688	-0.000199
1399	1.3910e+02	-15.6974	-61.001121	0.000426	4.256979	1.442304	-0.000170
1400	1.3920e+02	-15.7439	-61.202978	0.000507	5.067832	1.717028	-0.000203
1401	1.3930e+02	-15.7824	-61.376575	0.000436	4.358336	1.476644	-0.000174
1402	1.3940e+02	-15.8177	-61.570357	0.000487	4.865119	1.648347	-0.000195
1403	1.3950e+02	-15.8627	-61.784325	0.000537	5.371902	1.820050	-0.000215
1404	1.3960e+02	-15.8947	-61.990219	0.000517	5.169189	1.751369	-0.000207
1405	1.3970e+02	-15.9381	-62.171890	0.000456	4.561049	1.545325	-0.000183
1406	1.3980e+02	-15.9814	-62.333376	0.000405	4.054266	1.373622	-0.000162
1407	1.3990e+02	-16.0167	-62.527158	0.000487	4.865119	1.648347	-0.000195
1408	1.4000e+02	-16.0503	-62.724978	0.000497	4.966476	1.682688	-0.000199
1409	1.4010e+02	-16.0985	-62.934909	0.000527	5.270546	1.785709	-0.000211
1410	1.4020e+02	-16.1322	-63.193286	0.000649	6.486825	2.197796	-0.000260
1411	1.4029e+02	-16.1771	-63.346697	0.000385	3.851553	1.304941	-0.000154
1412	1.4039e+02	-16.2172	-63.568739	0.000557	5.574616	1.888731	-0.000223
1413	1.4049e+02	-16.2621	-63.798856	0.000578	5.777329	1.957412	-0.000231
1414	1.4059e+02	-16.2942	-63.980527	0.000456	4.561049	1.545325	-0.000183
1415	1.4069e+02	-16.3343	-64.174310	0.000487	4.865119	1.648347	-0.000195
1416	1.4079e+02	-16.3808	-64.416538	0.000608	6.081399	2.060434	-0.000243
1417	1.4089e+02	-16.4129	-64.602246	0.000466	4.662406	1.579666	-0.000187
1418	1.4099e+02	-16.4610	-64.820251	0.000547	5.473259	1.854390	-0.000219
1419	1.4109e+02	-16.4899	-65.018071	0.000497	4.966476	1.682688	-0.000199
1420	1.4119e+02	-16.5445	-65.252225	0.000588	5.878686	1.991753	-0.000235
1421	1.4129e+02	-16.5765	-65.470230	0.000547	5.473259	1.854390	-0.000219
1422	1.4139e+02	-16.6247	-65.676124	0.000517	5.169189	1.751369	-0.000207
1423	1.4149e+02	-16.6551	-65.869907	0.000487	4.865119	1.648347	-0.000195
1424	1.4159e+02	-16.7017	-66.067726	0.000497	4.966476	1.682688	-0.000199
1425	1.4169e+02	-16.7305	-66.358400	0.000730	7.297679	2.472520	-0.000292
1426	1.4179e+02	-16.7755	-66.507774	0.000375	3.750196	1.270601	-0.000150
1427	1.4189e+02	-16.8092	-66.762114	0.000639	6.385469	2.163455	-0.000256
1428	1.4199e+02	-16.8493	-66.984156	0.000557	5.574616	1.888731	-0.000223
1429	1.4209e+02	-16.8813	-67.230421	0.000618	6.182756	2.094774	-0.000248
1430	1.4219e+02	-16.9375	-67.488798	0.000649	6.486825	2.197796	-0.000260
1431	1.4228e+02	-16.9728	-67.702766	0.000537	5.371902	1.820050	-0.000215
1432	1.4238e+02	-17.0065	-67.868289	0.000416	4.155623	1.407963	-0.000166
1433	1.4248e+02	-17.0418	-68.106480	0.000598	5.980042	2.026093	-0.000239
1434	1.4258e+02	-17.0899	-68.389079	0.000709	7.094965	2.403839	-0.000284
1435	1.4268e+02	-17.1348	-68.574788	0.000466	4.662406	1.579666	-0.000187
1436	1.4278e+02	-17.1749	-68.825090	0.000628	6.284112	2.129115	-0.000252
1437	1.4288e+02	-17.2118	-69.047133	0.000557	5.574616	1.888731	-0.000223
1438	1.4298e+02	-17.2519	-69.317621	0.000679	6.790895	2.300818	-0.000272
1439	1.4308e+02	-17.3000	-69.515440	0.000497	4.966476	1.682688	-0.000199
1440	1.4318e+02	-17.3385	-69.781891	0.000669	6.689539	2.266477	-0.000268
1441	1.4328e+02	-17.3738	-70.032194	0.000628	6.284112	2.129115	-0.000252
1442	1.4338e+02	-17.4156	-70.246162	0.000537	5.371902	1.820050	-0.000215
1443	1.4348e+02	-17.4492	-70.496464	0.000628	6.284112	2.129115	-0.000252
1444	1.4358e+02	-17.4942	-70.746767	0.000628	6.284112	2.129115	-0.000252
1445	1.4368e+02	-17.5198	-71.033403	0.000720	7.196322	2.438180	-0.000288
1446	1.4378e+02	-17.5663	-71.255446	0.000557	5.574616	1.888731	-0.000223
1447	1.4388e+02	-17.6129	-71.505748	0.000628	6.284112	2.129115	-0.000252
1448	1.4398e+02	-17.6417	-71.756051	0.000628	6.284112	2.129115	-0.000252
1449	1.4408e+02	-17.6931	-71.982130	0.000568	5.675972	1.923071	-0.000227
1450	1.4418e+02	-17.7332	-72.248581	0.000669	6.689539	2.266477	-0.000268
1451	1.4428e+02	-17.7669	-72.547329	0.000750	7.500392	2.541202	-0.000300
1452	1.4437e+02	-17.8118	-72.793594	0.000618	6.182756	2.094774	-0.000248
1453	1.4447e+02	-17.8551	-73.064083	0.000679	6.790895	2.300818	-0.000272
1454	1.4457e+02	-17.8856	-73.314385	0.000628	6.284112	2.129115	-0.000252
1455	1.4467e+02	-17.9337	-73.560650	0.000618	6.182756	2.094774	-0.000248
1456	1.4477e+02	-17.9738	-73.851324	0.000730	7.297679	2.472520	-0.000292
1457	1.4487e+02	-18.0171	-74.146035	0.000740	7.399035	2.506861	-0.000296
1458	1.4497e+02	-18.0508	-74.380189	0.000588	5.878686	1.991753	-0.000235
1459	1.4507e+02	-18.0893	-74.703160	0.000811	8.108532	2.747245	-0.000325
1460	1.4517e+02	-18.1262	-74.945388	0.000608	6.081399	2.060434	-0.000243
1461	1.4527e+02	-18.1744	-75.179542	0.000588	5.878686	1.991753	-0.000235
1462	1.4537e+02	-18.2161	-75.494438	0.000791	7.905819	2.678564	-0.000316
1463	1.4547e+02	-18.2481	-75.744741	0.000628	6.284112	2.129115	-0.000252
1464	1.4557e+02	-18.2834	-76.075786	0.000831	8.311245	2.815926	-0.000333
1465	1.4567e+02	-18.3284	-76.338200	0.000659	6.588182	2.232137	-0.000264
1466	1.4577e+02	-18.3749	-76.604651	0.000669	6.689539	2.266477	-0.000268
1467	1.4587e+02	-18.4102	-76.875139	0.000679	6.790895	2.300818	-0.000272
1468	1.4597e+02	-18.4535	-77.185998	0.000780	7.804462	2.644223	-0.000312
1469	1.4607e+02	-18.4984	-77.440338	0.000639	6.385469	2.163455	-0.000256
1470	1.4617e+02	-18.5289	-77.783494	0.000862	8.615315	2.918948	-0.000345
1471	1.4626e+02	-18.5754	-78.062057	0.000699	6.993609	2.369499	-0.000280
1472	1.4636e+02	-18.6139	-78.364842	0.000760	7.601749	2.575542	-0.000304
1473	1.4646e+02	-18.6492	-78.623218	0.000649	6.486825	2.197796	-0.000260
1474	1.4656e+02	-18.6861	-78.913892	0.000730	7.297679	2.472520	-0.000292
1475	1.4666e+02	-18.7294	-79.244937	0.000831	8.311245	2.815926	-0.000333
1476	1.4676e+02	-18.7599	-79.519463	0.000689	6.892252	2.335158	-0.000276
1477	1.4686e+02	-18.8000	-79.789951	0.000679	6.790895	2.300818	-0.000272
1478	1.4696e+02	-18.8433	-80.149256	0.000902	9.020742	3.056310	-0.000361
1479	1.4706e+02	-18.8963	-80.452041	0.000760	7.601749	2.575542	-0.000304
1480	1.4716e+02	-18.9299	-80.742715	0.000730	7.297679	2.472520	-0.000292
1481	1.4726e+02	-18.9636	-81.077797	0.000841	8.412602	2.850267	-0.000337
1482	1.4736e+02	-19.0070	-81.380582	0.000760	7.601749	2.575542	-0.000304
1483	1.4746e+02	-19.0422	-81.687405	0.000770	7.703105	2.609883	-0.000308
1484	1.4756e+02	-19.0840	-82.022487	0.000841	8.412602	2.850267	-0.000337
1485	1.4766e+02	-19.1241	-82.337383	0.000791	7.905819	2.678564	-0.000316
1486	1.4776e+02	-19.1690	-82.611909	0.000689	6.892252	2.335158	-0.000276
1487	1.4786e+02	-19.2011	-82.999474	0.000973	9.730238	3.296694	-0.000390
1488	1.4796e+02	-19.2460	-83.290147	0.000730	7.297679	2.472520	-0.000292
1489	1.4806e+02	-19.2893	-83.653490	0.000912	9.122098	3.090651	-0.000365
1490	1.4816e+02	-19.3198	-83.956275	0.000760	7.601749	2.575542	-0.000304
1491	1.4825e+02	-19.3727	-84.275209	0.000801	8.007175	2.712904	-0.000321
1492	1.4835e+02	-19.4000	-84.614328	0.000851	8.513958	2.884607	-0.000341
1493	1.4845e+02	-19.4417	-84.957484	0.000862	8.615315	2.918948	-0.000345
1494	1.4855e+02	-19.4850	-85.260270	0.000760	7.601749	2.575542	-0.000304
1495	1.4865e+02	-19.5155	-85.643798	0.000963	9.628882	3.262353	-0.000385
1496	1.4875e+02	-19.5732	-85.958694	0.000791	7.905819	2.678564	-0.000316
1497	1.4885e+02	-19.5989	-86.330111	0.000932	9.324812	3.159332	-0.000373
1498	1.4895e+02	-19.6454	-86.649044	0.000801	8.007175	2.712904	-0.000321
1499	1.4905e+02	-19.6855	-87.036609	0.000973	9.730238	3.296694	-0.000390
1500	1.4915e+02	-19.7224	-87.371692	0.000841	8.412602	2.850267	-0.000337
1501	1.4925e+02	-19.7593	-87.763294	0.000983	9.831595	3.331035	-0.000394
1502	1.4935e+02	-19.7994	-88.102413	0.000851	8.513958	2.884607	-0.000341
1503	1.4945e+02	-19.8508	-88.441533	0.000851	8.513958	2.884607	-0.000341
1504	1.4955e+02	-19.8845	-88.784689	0.000862	8.615315	2.918948	-0.000345
1505	1.4965e+02	-19.9198	-89.212626	0.001074	10.743805	3.640100	-0.000430
1506	1.4975e+02	-19.9631	-89.563856	0.000882	8.818028	2.987629	-0.000353
1507	1.4985e+02	-20.0000	-89.927199	0.000912	9.122098	3.090651	-0.000365
1508	1.4995e+02	-19.9647	-90.072535	-0.000365	-3.648839	-1.236260	-0.000146
1509	1.5005e+02	-19.9198	-90.185575	-0.000284	-2.837986	-0.961536	-0.000114
1510	1.5015e+02	-19.8764	-90.338986	-0.000385	-3.851553	-1.304941	-0.000154
1511	1.5025e+02	-19.8444	-90.456063	-0.000294	-2.939343	-0.995876	-0.000118
1512	1.5034e+02	-19.7978	-90.520658	-0.000162	-1.621706	-0.549449	-0.000065
1513	1.5044e+02	-19.7658	-90.613512	-0.000233	-2.331203	-0.789833	-0.000093
1514	1.5054e+02	-19.7160	-90.714440	-0.000253	-2.533916	-0.858514	-0.000101
1515	1.5064e+02	-19.6759	-90.799220	-0.000213	-2.128490	-0.721152	-0.000085
1516	1.5074e+02	-19.6358	-90.795183	0.000010	0.101357	0.034341	0.000004
1517	1.5084e+02	-19.5925	-90.859777	-0.000162	-1.621706	-0.549449	-0.000065
1518	1.5094e+02	-19.5652	-90.875925	-0.000041	-0.405427	-0.137362	-0.000016
1519	1.5104e+02	-19.5283	-90.980891	-0.000264	-2.635273	-0.892855	-0.000105
1520	1.5114e+02	-19.4850	-90.972817	0.000020	0.202713	0.068681	0.000008
1521	1.5124e+02	-19.4513	-91.013188	-0.000101	-1.013566	-0.343406	-0.000041
1522	1.5134e+02	-19.4064	-91.041448	-0.000071	-0.709497	-0.240384	-0.000028
1523	1.5144e+02	-19.3695	-91.021262	0.000051	0.506783	0.171703	0.000020
1524	1.5154e+02	-19.3214	-91.061634	-0.000101	-1.013566	-0.343406	-0.000041
1525	1.5164e+02	-19.2845	-91.069708	-0.000020	-0.202713	-0.068681	-0.000008
1526	1.5174e+02	-19.2524	-91.085857	-0.000041	-0.405427	-0.137362	-0.000016
1527	1.5184e+02	-19.2075	-91.069708	0.000041	0.405427	0.137362	0.000016
1528	1.5194e+02	-19.1610	-91.065671	0.000010	0.101357	0.034341	0.000004
1529	1.5204e+02	-19.1289	-91.037411	0.000071	0.709497	0.240384	0.000028
1530	1.5214e+02	-19.0856	-91.045485	-0.000020	-0.202713	-0.068681	-0.000008
1531	1.5224e+02	-19.0503	-91.009151	0.000091	0.912210	0.309065	0.000037
1532	1.5233e+02	-19.0005	-90.980891	0.000071	0.709497	0.240384	0.000028
1533	1.5243e+02	-18.9652	-90.932445	0.000122	1.216280	0.412087	0.000049
1534	1.5253e+02	-18.9412	-90.904185	0.000071	0.709497	0.240384	0.000028
1535	1.5263e+02	-18.8898	-90.924371	-0.000051	-0.506783	-0.171703	-0.000020
1536	1.5273e+02	-18.8529	-90.819406	0.000264	2.635273	0.892855	0.000105
1537	1.5283e+02	-18.7984	-90.815368	0.000010	0.101357	0.034341	0.000004
1538	1.5293e+02	-18.7631	-90.799220	0.000041	0.405427	0.137362	0.000016
1539	1.5303e+02	-18.7230	-90.734626	0.000162	1.621706	0.549449	0.000065
1540	1.5313e+02	-18.6845	-90.661957	0.000182	1.824420	0.618130	0.000073
1541	1.5323e+02	-18.6412	-90.625623	0.000091	0.912210	0.309065	0.000037
1542	1.5333e+02	-18.6155	-90.565066	0.000152	1.520350	0.515108	0.000061
1543	1.5343e+02	-18.5562	-90.508546	0.000142	1.418993	0.480768	0.000057
1544	1.5353e+02	-18.5273	-90.472212	0.000091	0.912210	0.309065	0.000037
1545	1.5363e+02	-18.4824	-90.423766	0.000122	1.216280	0.412087	0.000049
1546	1.5373e+02	-18.4519	-90.334949	0.000223	2.229846	0.755492	0.000089
1547	1.5383e+02	-18.4054	-90.322838	0.000030	0.304070	0.103022	0.000012
1548	1.5393e+02	-18.3733	-90.262281	0.000152	1.520350	0.515108	0.000061
1549	1.5403e+02	-18.3235	-90.157315	0.000264	2.635273	0.892855	0.000105
1550	1.5413e+02	-18.2963	-90.112907	0.000111	1.114923	0.377746	0.000045
1551	1.5422e+02	-18.2498	-90.052350	0.000152	1.520350	0.515108	0.000061
1552	1.5432e+02	-18.2032	-90.003904	0.000122	1.216280	0.412087	0.000049
1553	1.5442e+02	-18.1679	-89.911050	0.000233	2.331203	0.789833	0.000093
1554	1.5452e+02	-18.1326	-89.858567	0.000132	1.317636	0.446427	0.000053
1555	1.5462e+02	-18.0861	-89.745527	0.000284	2.837986	0.961536	0.000114
1556	1.5472e+02	-18.0556	-89.741490	0.000010	0.101357	0.034341	0.000004
1557	1.5482e+02	-18.0043	-89.644599	0.000243	2.432560	0.824173	0.000097
1558	1.5492e+02	-17.9722	-89.535596	0.000274	2.736630	0.927195	0.000110
1559	1.5502e+02	-17.9289	-89.471002	0.000162	1.621706	0.549449	0.000065
1560	1.5512e+02	-17.8920	-89.410445	0.000152	1.520350	0.515108	0.000061
1561	1.5522e+02	-17.8503	-89.329702	0.000203	2.027133	0.686811	0.000081
1562	1.5532e+02	-17.8182	-89.228774	0.000253	2.533916	0.858514	0.000101
1563	1.5542e+02	-17.7749	-89.204551	0.000061	0.608140	0.206043	0.000024
1564	1.5552e+02	-17.7284	-89.107660	0.000243	2.432560	0.824173	0.000097
1565	1.5562e+02	-17.6883	-89.059214	0.000122	1.216280	0.412087	0.000049
1566	1.5572e+02	-17.6610	-88.974435	0.000213	2.128490	0.721152	0.000085
1567	1.5582e+02	-17.6065	-88.853320	0.000304	3.040699	1.030217	0.000122
1568	1.5592e+02	-17.5712	-88.816986	0.000091	0.912210	0.309065	0.000037
1569	1.5602e+02	-17.5311	-88.703946	0.000284	2.837986	0.961536	0.000114
1570	1.5612e+02	-17.4926	-88.631278	0.000182	1.824420	0.618130	0.000073
1571	1.5622e+02	-17.4460	-88.526312	0.000264	2.635273	0.892855	0.000105
1572	1.5631e+02	-17.4156	-88.449607	0.000193	1.925776	0.652471	0.000077
1573	1.5641e+02	-17.3770	-88.308307	0.000355	3.547483	1.201920	0.000142
1574	1.5651e+02	-17.3305	-88.263899	0.000111	1.114923	0.377746	0.000045
1575	1.5661e+02	-17.2920	-88.187193	0.000193	1.925776	0.652471	0.000077
1576	1.5671e+02	-17.2519	-88.106450	0.000203	2.027133	0.686811	0.000081
1577	1.5681e+02	-17.2102	-88.013596	0.000233	2.331203	0.789833	0.000093
1578	1.5691e+02	-17.1733	-87.953039	0.000152	1.520350	0.515108	0.000061
1579	1.5701e+02	-17.1284	-87.827888	0.000314	3.142056	1.064557	0.000126
1580	1.5711e+02	-17.0915	-87.751182	0.000193	1.925776	0.652471	0.000077
1581	1.5721e+02	-17.0530	-87.654291	0.000243	2.432560	0.824173	0.000097
1582	1.5731e+02	-17.0161	-87.533177	0.000304	3.040699	1.030217	0.000122
1583	1.5741e+02	-16.9760	-87.448397	0.000213	2.128490	0.721152	0.000085
1584	1.5751e+02	-16.9327	-87.408026	0.000101	1.013566	0.343406	0.000041
1585	1.5761e+02	-16.8974	-87.286912	0.000304	3.040699	1.030217	0.000122
1586	1.5771e+02	-16.8525	-87.181946	0.000264	2.635273	0.892855	0.000105
1587	1.5781e+02	-16.8156	-87.105241	0.000193	1.925776	0.652471	0.000077
1588	1.5791e+02	-16.7690	-86.980089	0.000314	3.142056	1.064557	0.000126
1589	1.5801e+02	-16.7241	-86.907421	0.000182	1.824420	0.618130	0.000073
1590	1.5811e+02	-16.6936	-86.810530	0.000243	2.432560	0.824173	0.000097
1591	1.5821e+02	-16.6471	-86.717676	0.000233	2.331203	0.789833	0.000093
1592	1.5830e+02	-16.6134	-86.592524	0.000314	3.142056	1.064557	0.000126
1593	1.5840e+02	-16.5830	-86.471410	0.000304	3.040699	1.030217	0.000122
1594	1.5850e+02	-16.5445	-86.431039	0.000101	1.013566	0.343406	0.000041
1595	1.5860e+02	-16.4963	-86.309925	0.000304	3.040699	1.030217	0.000122
1596	1.5870e+02	-16.4674	-86.237257	0.000182	1.824420	0.618130	0.000073
1597	1.5880e+02	-16.4177	-86.132291	0.000264	2.635273	0.892855	0.000105
1598	1.5890e+02	-16.3792	-86.075771	0.000142	1.418993	0.480768	0.000057
1599	1.5900e+02	-16.3343	-85.894100	0.000456	4.561049	1.545325	0.000183
1600	1.5910e+02	-16.3054	-85.869877	0.000061	0.608140	0.206043	0.000024
1601	1.5920e+02	-16.2621	-85.720503	0.000375	3.750196	1.270601	0.000150
1602	1.5930e+02	-16.2188	-85.655909	0.000162	1.621706	0.549449	0.000065
1603	1.5940e+02	-16.1755	-85.546906	0.000274	2.736630	0.927195	0.000110
1604	1.5950e+02	-16.1306	-85.441941	0.000264	2.635273	0.892855	0.000105
1605	1.5960e+02	-16.0969	-85.320827	0.000304	3.040699	1.030217	0.000122
1606	1.5970e+02	-16.0568	-85.244121	0.000193	1.925776	0.652471	0.000077
1607	1.5980e+02	-16.0231	-85.098784	0.000365	3.648839	1.236260	0.000146
1608	1.5990e+02	-15.9766	-85.042264	0.000142	1.418993	0.480768	0.000057
1609	1.6000e+02	-15.9364	-84.896927	0.000365	3.648839	1.236260	0.000146
1610	1.6010e+02	-15.8996	-84.820222	0.000193	1.925776	0.652471	0.000077
1611	1.6019e+02	-15.8514	-84.747553	0.000182	1.824420	0.618130	0.000073
1612	1.6029e+02	-15.8129	-84.642588	0.000264	2.635273	0.892855	0.000105
1613	1.6039e+02	-15.7792	-84.505325	0.000345	3.446126	1.167579	0.000138
1614	1.6049e+02	-15.7343	-84.420545	0.000213	2.128490	0.721152	0.000085
1615	1.6059e+02	-15.7070	-84.319617	0.000253	2.533916	0.858514	0.000101
1616	1.6069e+02	-15.6573	-84.206577	0.000284	2.837986	0.961536	0.000114
1617	1.6079e+02	-15.6204	-84.117760	0.000223	2.229846	0.755492	0.000089
1618	1.6089e+02	-15.5771	-84.024906	0.000233	2.331203	0.789833	0.000093
1619	1.6099e+02	-15.5370	-83.923978	0.000253	2.533916	0.858514	0.000101
1620	1.6109e+02	-15.5033	-83.810938	0.000284	2.837986	0.961536	0.000114
1621	1.6119e+02	-15.4584	-83.742307	0.000172	1.723063	0.583790	0.000069
1622	1.6129e+02	-15.4167	-83.605044	0.000345	3.446126	1.167579	0.000138
1623	1.6139e+02	-15.3766	-83.496041	0.000274	2.736630	0.927195	0.000110
1624	1.6149e+02	-15.3397	-83.399150	0.000243	2.432560	0.824173	0.000097
1625	1.6159e+02	-15.3028	-83.302259	0.000243	2.432560	0.824173	0.000097
1626	1.6169e+02	-15.2579	-83.152885	0.000375	3.750196	1.270601	0.000150
1627	1.6179e+02	-15.2178	-83.120588	0.000081	0.810853	0.274724	0.000032
1628	1.6189e+02	-15.1744	-82.983325	0.000345	3.446126	1.167579	0.000138
1629	1.6199e+02	-15.1407	-82.866248	0.000294	2.939343	0.995876	0.000118
1630	1.6209e+02	-15.1039	-82.761283	0.000264	2.635273	0.892855	0.000105
1631	1.6219e+02	-15.0654	-82.628057	0.000334	3.344769	1.133239	0.000134
1632	1.6228e+02	-15.0204	-82.510980	0.000294	2.939343	0.995876	0.000118
1633	1.6238e+02	-14.9755	-82.466572	0.000111	1.114923	0.377746	0.000045
1634	1.6248e+02	-14.9402	-82.329309	0.000345	3.446126	1.167579	0.000138
1635	1.6258e+02	-14.8969	-82.248566	0.000203	2.027133	0.686811	0.000081
1636	1.6268e+02	-14.8584	-82.131489	0.000294	2.939343	0.995876	0.000118
1637	1.6278e+02	-14.8231	-82.010375	0.000304	3.040699	1.030217	0.000122
1638	1.6288e+02	-14.7878	-81.865038	0.000365	3.648839	1.236260	0.000146
1639	1.6298e+02	-14.7333	-81.820630	0.000111	1.114923	0.377746	0.000045
1640	1.6308e+02	-14.7140	-81.683367	0.000345	3.446126	1.167579	0.000138
1641	1.6318e+02	-14.6739	-81.590513	0.000233	2.331203	0.789833	0.000093
1642	1.6328e+02	-14.6194	-81.445176	0.000365	3.648839	1.236260	0.000146
1643	1.6338e+02	-14.5873	-81.340211	0.000264	2.635273	0.892855	0.000105
1644	1.6348e+02	-14.5536	-81.202948	0.000345	3.446126	1.167579	0.000138
1645	1.6358e+02	-14.5023	-81.106057	0.000243	2.432560	0.824173	0.000097
1646	1.6368e+02	-14.4573	-80.984943	0.000304	3.040699	1.030217	0.000122
1647	1.6378e+02	-14.4237	-80.908237	0.000193	1.925776	0.652471	0.000077
1648	1.6388e+02	-14.3803	-80.758863	0.000375	3.750196	1.270601	0.000150
1649	1.6398e+02	-14.3467	-80.678121	0.000203	2.027133	0.686811	0.000081
1650	1.6408e+02	-14.3049	-80.565081	0.000284	2.837986	0.961536	0.000114
1651	1.6418e+02	-14.2648	-80.387447	0.000446	4.459693	1.510985	0.000179
1652	1.6427e+02	-14.2360	-80.306704	0.000203	2.027133	0.686811	0.000081
1653	1.6437e+02	-14.1926	-80.189627	0.000294	2.939343	0.995876	0.000118
1654	1.6447e+02	-14.1445	-80.056402	0.000334	3.344769	1.133239	0.000134
1655	1.6457e+02	-14.1156	-79.923176	0.000334	3.344769	1.133239	0.000134
1656	1.6467e+02	-14.0659	-79.854545	0.000172	1.723063	0.583790	0.000069
1657	1.6477e+02	-14.0258	-79.733431	0.000304	3.040699	1.030217	0.000122
1658	1.6487e+02	-13.9873	-79.612317	0.000304	3.040699	1.030217	0.000122
1659	1.6497e+02	-13.9520	-79.543685	0.000172	1.723063	0.583790	0.000069
1660	1.6507e+02	-13.9039	-79.418534	0.000314	3.142056	1.064557	0.000126
1661	1.6517e+02	-13.8654	-79.281272	0.000345	3.446126	1.167579	0.000138
1662	1.6527e+02	-13.8253	-79.123823	0.000395	3.952909	1.339282	0.000158
1663	1.6537e+02	-13.7836	-79.022895	0.000253	2.533916	0.858514	0.000101
1664	1.6547e+02	-13.7403	-78.901781	0.000304	3.040699	1.030217	0.000122
1665	1.6557e+02	-13.6985	-78.788741	0.000284	2.837986	0.961536	0.000114
1666	1.6567e+02	-13.6761	-78.667627	0.000304	3.040699	1.030217	0.000122
1667	1.6577e+02	-13.6231	-78.578810	0.000223	2.229846	0.755492	0.000089
1668	1.6587e+02	-13.5911	-78.429436	0.000375	3.750196	1.270601	0.000150
1669	1.6597e+02	-13.5413	-78.304285	0.000314	3.142056	1.064557	0.000126
1670	1.6607e+02	-13.5044	-78.183171	0.000304	3.040699	1.030217	0.000122
1671	1.6616e+02	-13.4675	-78.058019	0.000314	3.142056	1.064557	0.000126
1672	1.6626e+02	-13.4290	-77.936905	0.000304	3.040699	1.030217	0.000122
1673	1.6636e+02	-13.3873	-77.811754	0.000314	3.142056	1.064557	0.000126
1674	1.6646e+02	-13.3440	-77.710826	0.000253	2.533916	0.858514	0.000101
1675	1.6656e+02	-13.3087	-77.565489	0.000365	3.648839	1.236260	0.000146
1676	1.6666e+02	-13.2702	-77.440338	0.000314	3.142056	1.064557	0.000126
1677	1.6676e+02	-13.2269	-77.355558	0.000213	2.128490	0.721152	0.000085
1678	1.6686e+02	-13.1852	-77.198110	0.000395	3.952909	1.339282	0.000158
1679	1.6696e+02	-13.1435	-77.097181	0.000253	2.533916	0.858514	0.000101
1680	1.6706e+02	-13.0986	-76.967993	0.000324	3.243413	1.098898	0.000130
1681	1.6716e+02	-13.0633	-76.842842	0.000314	3.142056	1.064557	0.000126
1682	1.6726e+02	-13.0135	-76.737876	0.000264	2.635273	0.892855	0.000105
1683	1.6736e+02	-12.9815	-76.600613	0.000345	3.446126	1.167579	0.000138
1684	1.6746e+02	-12.9478	-76.451239	0.000375	3.750196	1.270601	0.000150
1685	1.6756e+02	-12.9093	-76.313977	0.000345	3.446126	1.167579	0.000138
1686	1.6766e+02	-12.8676	-76.249383	0.000162	1.621706	0.549449	0.000065
1687	1.6776e+02	-12.8210	-76.136343	0.000284	2.837986	0.961536	0.000114
1688	1.6786e+02	-12.7873	-75.982932	0.000385	3.851553	1.304941	0.000154
1689	1.6796e+02	-12.7569	-75.857781	0.000314	3.142056	1.064557	0.000126
1690	1.6806e+02	-12.7103	-75.744741	0.000284	2.837986	0.961536	0.000114
1691	1.6816e+02	-12.6606	-75.595367	0.000375	3.750196	1.270601	0.000150
1692	1.6825e+02	-12.6285	-75.454067	0.000355	3.547483	1.201920	0.000142
1693	1.6835e+02	-12.5948	-75.353139	0.000253	2.533916	0.858514	0.000101
1694	1.6845e+02	-12.5467	-75.195690	0.000395	3.952909	1.339282	0.000158
1695	1.6855e+02	-12.5146	-75.074576	0.000304	3.040699	1.030217	0.000122
1696	1.6865e+02	-12.4745	-74.997871	0.000193	1.925776	0.652471	0.000077
1697	1.6875e+02	-12.4344	-74.832348	0.000416	4.155623	1.407963	0.000166
1698	1.6885e+02	-12.3927	-74.691048	0.000355	3.547483	1.201920	0.000142
1699	1.6895e+02	-12.3542	-74.557823	0.000334	3.344769	1.133239	0.000134
1700	1.6905e+02	-12.3125	-74.444783	0.000284	2.837986	0.961536	0.000114
1701	1.6915e+02	-12.2708	-74.323669	0.000304	3.040699	1.030217	0.000122
1702	1.6925e+02	-12.2291	-74.230815	0.000233	2.331203	0.789833	0.000093
1703	1.6935e+02	-12.1986	-74.081441	0.000375	3.750196	1.270601	0.000150
1704	1.6945e+02	-12.1521	-73.952252	0.000324	3.243413	1.098898	0.000130
1705	1.6955e+02	-12.1136	-73.814990	0.000345	3.446126	1.167579	0.000138
1706	1.6965e+02	-12.0767	-73.730210	0.000213	2.128490	0.721152	0.000085
1707	1.6975e+02	-12.0414	-73.556613	0.000436	4.358336	1.476644	0.000174
1708	1.6985e+02	-11.9884	-73.391091	0.000416	4.155623	1.407963	0.000166
1709	1.6995e+02	-11.9531	-73.286125	0.000264	2.635273	0.892855	0.000105
1710	1.7005e+02	-11.9162	-73.156937	0.000324	3.243413	1.098898	0.000130
1711	1.7015e+02	-11.8777	-73.031786	0.000314	3.142056	1.064557	0.000126
1712	1.7024e+02	-11.8296	-72.838003	0.000487	4.865119	1.648347	0.000195
1713	1.7034e+02	-11.7847	-72.745149	0.000233	2.331203	0.789833	0.000093
1714	1.7044e+02	-11.7510	-72.595775	0.000375	3.750196	1.270601	0.000150
1715	1.7054e+02	-11.7221	-72.478698	0.000294	2.939343	0.995876	0.000118
1716	1.7064e+02	-11.6756	-72.353547	0.000314	3.142056	1.064557	0.000126
1717	1.7074e+02	-11.6355	-72.240507	0.000284	2.837986	0.961536	0.000114
1718	1.7084e+02	-11.5906	-72.091133	0.000375	3.750196	1.270601	0.000150
1719	1.7094e+02	-11.5537	-71.957907	0.000334	3.344769	1.133239	0.000134
1720	1.7104e+02	-11.5104	-71.869090	0.000223	2.229846	0.755492	0.000089
1721	1.7114e+02	-11.4831	-71.671271	0.000497	4.966476	1.682688	0.000199
1722	1.7124e+02	-11.4382	-71.542082	0.000324	3.243413	1.098898	0.000130
1723	1.7134e+02	-11.3884	-71.400783	0.000355	3.547483	1.201920	0.000142
1724	1.7144e+02	-11.3660	-71.307929	0.000233	2.331203	0.789833	0.000093
1725	1.7154e+02	-11.3195	-71.138369	0.000426	4.256979	1.442304	0.000170
1726	1.7164e+02	-11.2681	-71.041478	0.000243	2.432560	0.824173	0.000097
1727	1.7174e+02	-11.2360	-70.888066	0.000385	3.851553	1.304941	0.000154
1728	1.7184e+02	-11.1943	-70.714470	0.000436	4.358336	1.476644	0.000174
1729	1.7194e+02	-11.1510	-70.641801	0.000182	1.824420	0.618130	0.000073
1730	1.7204e+02	-11.1109	-70.512613	0.000324	3.243413	1.098898	0.000130
1731	1.7213e+02	-11.0740	-70.399573	0.000284	2.837986	0.961536	0.000114
1732	1.7223e+02	-11.0451	-70.242125	0.000395	3.952909	1.339282	0.000158
1733	1.7233e+02	-10.9986	-70.104862	0.000345	3.446126	1.167579	0.000138
1734	1.7243e+02	-10.9537	-69.951451	0.000385	3.851553	1.304941	0.000154
1735	1.7253e+02	-10.9200	-69.818225	0.000334	3.344769	1.133239	0.000134
1736	1.7263e+02	-10.8735	-69.725371	0.000233	2.331203	0.789833	0.000093
1737	1.7273e+02	-10.8398	-69.559849	0.000416	4.155623	1.407963	0.000166
1738	1.7283e+02	-10.7885	-69.426623	0.000334	3.344769	1.133239	0.000134
1739	1.7293e+02	-10.7596	-69.309546	0.000294	2.939343	0.995876	0.000118
1740	1.7303e+02	-10.7083	-69.156135	0.000385	3.851553	1.304941	0.000154
1741	1.7313e+02	-10.6778	-69.014835	0.000355	3.547483	1.201920	0.000142
1742	1.7323e+02	-10.6361	-68.865461	0.000375	3.750196	1.270601	0.000150
1743	1.7333e+02	-10.5911	-68.768570	0.000243	2.432560	0.824173	0.000097
1744	1.7343e+02	-10.5559	-68.631308	0.000345	3.446126	1.167579	0.000138
1745	1.7353e+02	-10.5174	-68.465785	0.000416	4.155623	1.407963	0.000166
1746	1.7363e+02	-10.4821	-68.324485	0.000355	3.547483	1.201920	0.000142
1747	1.7373e+02	-10.4355	-68.187223	0.000345	3.446126	1.167579	0.000138
1748	1.7383e+02	-10.4002	-68.066109	0.000304	3.040699	1.030217	0.000122
1749	1.7393e+02	-10.3682	-67.908660	0.000395	3.952909	1.339282	0.000158
1750	1.7403e+02	-10.3200	-67.787546	0.000304	3.040699	1.030217	0.000122
1751	1.7413e+02	-10.2815	-67.638172	0.000375	3.750196	1.270601	0.000150
1752	1.7422e+02	-10.2382	-67.545318	0.000233	2.331203	0.789833	0.000093
1753	1.7432e+02	-10.1997	-67.363647	0.000456	4.561049	1.545325	0.000183
1754	1.7442e+02	-10.1564	-67.242533	0.000304	3.040699	1.030217	0.000122
1755	1.7452e+02	-10.1211	-67.117382	0.000314	3.142056	1.064557	0.000126
1756	1.7462e+02	-10.0842	-66.980119	0.000345	3.446126	1.167579	0.000138
1757	1.7472e+02	-10.0473	-66.798448	0.000456	4.561049	1.545325	0.000183
1758	1.7482e+02	-10.0040	-66.737891	0.000152	1.520350	0.515108	0.000061
1759	1.7492e+02	-9.9671	-66.572368	0.000416	4.155623	1.407963	0.000166
1760	1.7502e+02	-9.9254	-66.406846	0.000416	4.155623	1.407963	0.000166
1761	1.7512e+02	-9.8789	-66.273620	0.000334	3.344769	1.133239	0.000134
1762	1.7522e+02	-9.8420	-66.128283	0.000365	3.648839	1.236260	0.000146
1763	1.7532e+02	-9.8003	-66.023318	0.000264	2.635273	0.892855	0.000105
1764	1.7542e+02	-9.7634	-65.853758	0.000426	4.256979	1.442304	0.000170
1765	1.7552e+02	-9.7200	-65.680161	0.000436	4.358336	1.476644	0.000174
1766	1.7562e+02	-9.6783	-65.550973	0.000324	3.243413	1.098898	0.000130
1767	1.7572e+02	-9.6414	-65.425822	0.000314	3.142056	1.064557	0.000126
1768	1.7582e+02	-9.6078	-65.236076	0.000476	4.763762	1.614006	0.000191
1769	1.7592e+02	-9.5676	-65.155334	0.000203	2.027133	0.686811	0.000081
1770	1.7602e+02	-9.5163	-64.989811	0.000416	4.155623	1.407963	0.000166
1771	1.7612e+02	-9.4746	-64.880808	0.000274	2.736630	0.927195	0.000110
1772	1.7621e+02	-9.4505	-64.711249	0.000426	4.256979	1.442304	0.000170
1773	1.7631e+02	-9.4040	-64.569949	0.000355	3.547483	1.201920	0.000142
1774	1.7641e+02	-9.3623	-64.416538	0.000385	3.851553	1.304941	0.000154
1775	1.7651e+02	-9.3270	-64.287349	0.000324	3.243413	1.098898	0.000130
1776	1.7661e+02	-9.2805	-64.137975	0.000375	3.750196	1.270601	0.000150
1777	1.7671e+02	-9.2484	-63.988601	0.000375	3.750196	1.270601	0.000150
1778	1.7681e+02	-9.1987	-63.827116	0.000405	4.054266	1.373622	0.000162
1779	1.7691e+02	-9.1618	-63.734262	0.000233	2.331203	0.789833	0.000093
1780	1.7701e+02	-9.1265	-63.536442	0.000497	4.966476	1.682688	0.000199
1781	1.7711e+02	-9.0880	-63.395142	0.000355	3.547483	1.201920	0.000142
1782	1.7721e+02	-9.0495	-63.286140	0.000274	2.736630	0.927195	0.000110
1783	1.7731e+02	-9.0078	-63.169063	0.000294	2.939343	0.995876	0.000118
1784	1.7741e+02	-8.9628	-63.003540	0.000416	4.155623	1.407963	0.000166
1785	1.7751e+02	-8.9211	-62.846092	0.000395	3.952909	1.339282	0.000158
1786	1.7761e+02	-8.8907	-62.704792	0.000355	3.547483	1.201920	0.000142
1787	1.7771e+02	-8.8425	-62.547344	0.000395	3.952909	1.339282	0.000158
1788	1.7781e+02	-8.8088	-62.389896	0.000395	3.952909	1.339282	0.000158
1789	1.7791e+02	-8.7575	-62.268782	0.000304	3.040699	1.030217	0.000122
1790	1.7801e+02	-8.7174	-62.143630	0.000314	3.142056	1.064557	0.000126
1791	1.7810e+02	-8.6901	-61.957922	0.000466	4.662406	1.579666	0.000187
1792	1.7820e+02	-8.6436	-61.824697	0.000334	3.344769	1.133239	0.000134
1793	1.7830e+02	-8.6067	-61.679360	0.000365	3.648839	1.236260	0.000146
1794	1.7840e+02	-8.5554	-61.525949	0.000385	3.851553	1.304941	0.000154
1795	1.7850e+02	-8.5313	-61.404835	0.000304	3.040699	1.030217	0.000122
1796	1.7860e+02	-8.4944	-61.267572	0.000345	3.446126	1.167579	0.000138
1797	1.7870e+02	-8.4415	-61.102049	0.000416	4.155623	1.407963	0.000166
1798	1.7880e+02	-8.4078	-60.952675	0.000375	3.750196	1.270601	0.000150
1799	1.7890e+02	-8.3613	-60.795227	0.000395	3.952909	1.339282	0.000158
1800	1.7900e+02	-8.3244	-60.682187	0.000284	2.837986	0.961536	0.000114
1801	1.7910e+02	-8.2794	-60.516665	0.000416	4.155623	1.407963	0.000166
1802	1.7920e+02	-8.2474	-60.351142	0.000416	4.155623	1.407963	0.000166
1803	1.7930e+02	-8.2024	-60.189657	0.000405	4.054266	1.373622	0.000162
1804	1.7940e+02	-8.1736	-60.068543	0.000304	3.040699	1.030217	0.000122
1805	1.7950e+02	-8.1286	-59.882834	0.000466	4.662406	1.579666	0.000187
1806	1.7960e+02	-8.0918	-59.729423	0.000385	3.851553	1.304941	0.000154
1807	1.7970e+02	-8.0581	-59.571975	0.000395	3.952909	1.339282	0.000158
1808	1.7980e+02	-8.0051	-59.410490	0.000405	4.054266	1.373622	0.000162
1809	1.7990e+02	-7.9618	-59.269190	0.000355	3.547483	1.201920	0.000142
1810	1.8000e+02	-7.9313	-59.123853	0.000365	3.648839	1.236260	0.000146
1811	1.8009e+02	-7.8912	-58.921996	0.000507	5.067832	1.717028	0.000203
1812	1.8019e+02	-7.8559	-58.812993	0.000274	2.736630	0.927195	0.000110
1813	1.8029e+02	-7.8126	-58.615174	0.000497	4.966476	1.682688	0.000199
1814	1.8039e+02	-7.7613	-58.485985	0.000324	3.243413	1.098898	0.000130
1815	1.8049e+02	-7.7292	-58.356797	0.000324	3.243413	1.098898	0.000130
1816	1.8059e+02	-7.6891	-58.134755	0.000557	5.574616	1.888731	0.000223
1817	1.8069e+02	-7.6522	-58.013641	0.000304	3.040699	1.030217	0.000122
1818	1.8079e+02	-7.6041	-57.848118	0.000416	4.155623	1.407963	0.000166
1819	1.8089e+02	-7.5800	-57.678558	0.000426	4.256979	1.442304	0.000170
1820	1.8099e+02	-7.5367	-57.517073	0.000405	4.054266	1.373622	0.000162
1821	1.8109e+02	-7.4998	-57.387885	0.000324	3.243413	1.098898	0.000130
1822	1.8119e+02	-7.4485	-57.210251	0.000446	4.459693	1.510985	0.000179
1823	1.8129e+02	-7.4083	-57.068951	0.000355	3.547483	1.201920	0.000142
1824	1.8139e+02	-7.3570	-56.895354	0.000436	4.358336	1.476644	0.000174
1825	1.8149e+02	-7.3329	-56.725794	0.000426	4.256979	1.442304	0.000170
1826	1.8159e+02	-7.2880	-56.560272	0.000416	4.155623	1.407963	0.000166
1827	1.8169e+02	-7.2511	-56.435120	0.000314	3.142056	1.064557	0.000126
1828	1.8179e+02	-7.2126	-56.221152	0.000537	5.371902	1.820050	0.000215
1829	1.8189e+02	-7.1805	-56.083890	0.000345	3.446126	1.167579	0.000138
1830	1.8199e+02	-7.1228	-55.914330	0.000426	4.256979	1.442304	0.000170
1831	1.8209e+02	-7.1003	-55.748807	0.000416	4.155623	1.407963	0.000166
1832	1.8218e+02	-7.0522	-55.563099	0.000466	4.662406	1.579666	0.000187
1833	1.8228e+02	-7.0089	-55.437948	0.000314	3.142056	1.064557	0.000126
1834	1.8238e+02	-6.9704	-55.248203	0.000476	4.763762	1.614006	0.000191
1835	1.8248e+02	-6.9271	-55.054420	0.000487	4.865119	1.648347	0.000195
1836	1.8258e+02	-6.8966	-54.921195	0.000334	3.344769	1.133239	0.000134
1837	1.8268e+02	-6.8453	-54.731449	0.000476	4.763762	1.614006	0.000191
1838	1.8278e+02	-6.8148	-54.578038	0.000385	3.851553	1.304941	0.000154
1839	1.8288e+02	-6.7731	-54.412515	0.000416	4.155623	1.407963	0.000166
1840	1.8298e+02	-6.7217	-54.230844	0.000456	4.561049	1.545325	0.000183
1841	1.8308e+02	-6.6897	-54.097619	0.000334	3.344769	1.133239	0.000134
1842	1.8318e+02	-6.6592	-53.879614	0.000547	5.473259	1.854390	0.000219
1843	1.8328e+02	-6.6062	-53.738314	0.000355	3.547483	1.201920	0.000142
1844	1.8338e+02	-6.5741	-53.548568	0.000476	4.763762	1.614006	0.000191
1845	1.8348e+02	-6.5356	-53.403232	0.000365	3.648839	1.236260	0.000146
1846	1.8358e+02	-6.4955	-53.225598	0.000446	4.459693	1.510985	0.000179
1847	1.8368e+02	-6.4522	-53.060075	0.000416	4.155623	1.407963	0.000166
1848	1.8378e+02	-6.4169	-52.858218	0.000507	5.067832	1.717028	0.000203
1849	1.8388e+02	-6.3865	-52.704807	0.000385	3.851553	1.304941	0.000154
1850	1.8398e+02	-6.3415	-52.587730	0.000294	2.939343	0.995876	0.000118
1851	1.8407e+02	-6.3030	-52.397985	0.000476	4.763762	1.614006	0.000191
1852	1.8417e+02	-6.2517	-52.224388	0.000436	4.358336	1.476644	0.000174
1853	1.8427e+02	-6.2228	-52.046754	0.000446	4.459693	1.510985	0.000179
1854	1.8437e+02	-6.1843	-51.877194	0.000426	4.256979	1.442304	0.000170
1855	1.8447e+02	-6.1410	-51.671300	0.000517	5.169189	1.751369	0.000207
1856	1.8457e+02	-6.1025	-51.521926	0.000375	3.750196	1.270601	0.000150
1857	1.8467e+02	-6.0576	-51.336218	0.000466	4.662406	1.579666	0.000187
1858	1.8477e+02	-6.0239	-51.178770	0.000395	3.952909	1.339282	0.000158
1859	1.8487e+02	-5.9726	-50.964802	0.000537	5.371902	1.820050	0.000215
1860	1.8497e+02	-5.9373	-50.779093	0.000466	4.662406	1.579666	0.000187
1861	1.8507e+02	-5.8988	-50.621645	0.000395	3.952909	1.339282	0.000158
1862	1.8517e+02	-5.8635	-50.472271	0.000375	3.750196	1.270601	0.000150
1863	1.8527e+02	-5.8234	-50.274451	0.000497	4.966476	1.682688	0.000199
1864	1.8537e+02	-5.7801	-50.052409	0.000557	5.574616	1.888731	0.000223
1865	1.8547e+02	-5.7415	-49.878812	0.000436	4.358336	1.476644	0.000174
1866	1.8557e+02	-5.6982	-49.761735	0.000294	2.939343	0.995876	0.000118
1867	1.8567e+02	-5.6613	-49.576027	0.000466	4.662406	1.579666	0.000187
1868	1.8577e+02	-5.6180	-49.366096	0.000527	5.270546	1.785709	0.000211
1869	1.8587e+02	-5.5795	-49.188462	0.000446	4.459693	1.510985	0.000179
1870	1.8597e+02	-5.5346	-49.010828	0.000446	4.459693	1.510985	0.000179
1871	1.8606e+02	-5.5025	-48.796860	0.000537	5.371902	1.820050	0.000215
1872	1.8616e+02	-5.4576	-48.663634	0.000334	3.344769	1.133239	0.000134
1873	1.8626e+02	-5.4175	-48.429480	0.000588	5.878686	1.991753	0.000235
1874	1.8636e+02	-5.3758	-48.251846	0.000446	4.459693	1.510985	0.000179
1875	1.8646e+02	-5.3421	-48.070175	0.000456	4.561049	1.545325	0.000183
1876	1.8656e+02	-5.2908	-47.864281	0.000517	5.169189	1.751369	0.000207
1877	1.8666e+02	-5.2667	-47.702796	0.000405	4.054266	1.373622	0.000162
1878	1.8676e+02	-5.2266	-47.537273	0.000416	4.155623	1.407963	0.000166
1879	1.8686e+02	-5.1849	-47.367714	0.000426	4.256979	1.442304	0.000170
1880	1.8696e+02	-5.1416	-47.133560	0.000588	5.878686	1.991753	0.000235
1881	1.8706e+02	-5.0950	-46.947851	0.000466	4.662406	1.579666	0.000187
1882	1.8716e+02	-5.0581	-46.806552	0.000355	3.547483	1.201920	0.000142
1883	1.8726e+02	-5.0196	-46.584509	0.000557	5.574616	1.888731	0.000223
1884	1.8736e+02	-4.9747	-46.362467	0.000557	5.574616	1.888731	0.000223
1885	1.8746e+02	-4.9346	-46.184833	0.000446	4.459693	1.510985	0.000179
1886	1.8756e+02	-4.9009	-45.995087	0.000476	4.763762	1.614006	0.000191
1887	1.8766e+02	-4.8624	-45.817453	0.000446	4.459693	1.510985	0.000179
1888	1.8776e+02	-4.8207	-45.664042	0.000385	3.851553	1.304941	0.000154
1889	1.8786e+02	-4.7790	-45.454111	0.000527	5.270546	1.785709	0.000211
1890	1.8796e+02	-4.7453	-45.244180	0.000527	5.270546	1.785709	0.000211
1891	1.8806e+02	-4.6988	-45.102880	0.000355	3.547483	1.201920	0.000142
1892	1.8815e+02	-4.6587	-44.832392	0.000679	6.790895	2.300818	0.000272
1893	1.8825e+02	-4.6250	-44.678981	0.000385	3.851553	1.304941	0.000154
1894	1.8835e+02	-4.5865	-44.501347	0.000446	4.459693	1.510985	0.000179
1895	1.8845e+02	-4.5496	-44.287379	0.000537	5.371902	1.820050	0.000215
1896	1.8855e+02	-4.5047	-44.109745	0.000446	4.459693	1.510985	0.000179
1897	1.8865e+02	-4.4726	-43.879628	0.000578	5.777329	1.957412	0.000231
1898	1.8875e+02	-4.4277	-43.689883	0.000476	4.763762	1.614006	0.000191
1899	1.8885e+02	-4.3844	-43.524360	0.000416	4.155623	1.407963	0.000166
1900	1.8895e+02	-4.3427	-43.314429	0.000527	5.270546	1.785709	0.000211
1901	1.8905e+02	-4.3074	-43.136795	0.000446	4.459693	1.510985	0.000179
1902	1.8915e+02	-4.2689	-42.922827	0.000537	5.371902	1.820050	0.000215
1903	1.8925e+02	-4.2239	-42.737119	0.000466	4.662406	1.579666	0.000187
1904	1.8935e+02	-4.1838	-42.551411	0.000466	4.662406	1.579666	0.000187
1905	1.8945e+02	-4.1405	-42.345517	0.000517	5.169189	1.751369	0.000207
1906	1.8955e+02	-4.1036	-42.200180	0.000365	3.648839	1.236260	0.000146
1907	1.8965e+02	-4.0603	-41.961989	0.000598	5.980042	2.026093	0.000239
1908	1.8975e+02	-4.0250	-41.748021	0.000537	5.371902	1.820050	0.000215
1909	1.8985e+02	-3.9833	-41.574424	0.000436	4.358336	1.476644	0.000174
1910	1.8995e+02	-3.9528	-41.316047	0.000649	6.486825	2.197796	0.000260
1911	1.9004e+02	-3.9079	-41.203007	0.000284	2.837986	0.961536	0.000114
1912	1.9014e+02	-3.8694	-40.993076	0.000527	5.270546	1.785709	0.000211
1913	1.9024e+02	-3.8229	-40.791219	0.000507	5.067832	1.717028	0.000203
1914	1.9034e+02	-3.7828	-40.565140	0.000568	5.675972	1.923071	0.000227
1915	1.9044e+02	-3.7443	-40.355209	0.000527	5.270546	1.785709	0.000211
1916	1.9054e+02	-3.7042	-40.169501	0.000466	4.662406	1.579666	0.000187
1917	1.9064e+02	-3.6721	-40.012052	0.000395	3.952909	1.339282	0.000158
1918	1.9074e+02	-3.6191	-39.790010	0.000557	5.574616	1.888731	0.000223
1919	1.9084e+02	-3.5742	-39.576042	0.000537	5.371902	1.820050	0.000215
1920	1.9094e+02	-3.5454	-39.333813	0.000608	6.081399	2.060434	0.000243
1921	1.9104e+02	-3.5052	-39.140031	0.000487	4.865119	1.648347	0.000195
1922	1.9114e+02	-3.4603	-38.934137	0.000517	5.169189	1.751369	0.000207
1923	1.9124e+02	-3.4315	-38.756503	0.000446	4.459693	1.510985	0.000179
1924	1.9134e+02	-3.3817	-38.546572	0.000527	5.270546	1.785709	0.000211
1925	1.9144e+02	-3.3448	-38.377012	0.000426	4.256979	1.442304	0.000170
1926	1.9154e+02	-3.3095	-38.146896	0.000578	5.777329	1.957412	0.000231
1927	1.9164e+02	-3.2630	-37.932927	0.000537	5.371902	1.820050	0.000215
1928	1.9174e+02	-3.2277	-37.722996	0.000527	5.270546	1.785709	0.000211
1929	1.9184e+02	-3.1892	-37.533251	0.000476	4.763762	1.614006	0.000191
1930	1.9194e+02	-3.1523	-37.319283	0.000537	5.371902	1.820050	0.000215
1931	1.9203e+02	-3.1090	-37.137612	0.000456	4.561049	1.545325	0.000183
1932	1.9213e+02	-3.0705	-36.911532	0.000568	5.675972	1.923071	0.000227
1933	1.9223e+02	-3.0272	-36.709675	0.000507	5.067832	1.717028	0.000203
1934	1.9233e+02	-2.9935	-36.459373	0.000628	6.284112	2.129115	0.000252
1935	1.9243e+02	-2.9550	-36.261553	0.000497	4.966476	1.682688	0.000199
1936	1.9253e+02	-2.9133	-36.059696	0.000507	5.067832	1.717028	0.000203
1937	1.9263e+02	-2.8620	-35.833617	0.000568	5.675972	1.923071	0.000227
1938	1.9273e+02	-2.8331	-35.627723	0.000517	5.169189	1.751369	0.000207
1939	1.9283e+02	-2.7898	-35.393569	0.000588	5.878686	1.991753	0.000235
1940	1.9293e+02	-2.7464	-35.203824	0.000476	4.763762	1.614006	0.000191
1941	1.9303e+02	-2.7144	-34.945447	0.000649	6.486825	2.197796	0.000260
1942	1.9313e+02	-2.6678	-34.796073	0.000375	3.750196	1.270601	0.000150
1943	1.9323e+02	-2.6261	-34.545771	0.000628	6.284112	2.129115	0.000252
1944	1.9333e+02	-2.5892	-34.335839	0.000527	5.270546	1.785709	0.000211
1945	1.9343e+02	-2.5523	-34.129946	0.000517	5.169189	1.751369	0.000207
1946	1.9353e+02	-2.5042	-33.911940	0.000547	5.473259	1.854390	0.000219
1947	1.9363e+02	-2.4673	-33.706046	0.000517	5.169189	1.751369	0.000207
1948	1.9373e+02	-2.4272	-33.484004	0.000557	5.574616	1.888731	0.000223
1949	1.9383e+02	-2.3919	-33.290221	0.000487	4.865119	1.648347	0.000195
1950	1.9393e+02	-2.3534	-33.015696	0.000689	6.892252	2.335158	0.000276
1951	1.9403e+02	-2.3101	-32.797691	0.000547	5.473259	1.854390	0.000219
1952	1.9412e+02	-2.2764	-32.563537	0.000588	5.878686	1.991753	0.000235
1953	1.9422e+02	-2.2379	-32.381866	0.000456	4.561049	1.545325	0.000183
1954	1.9432e+02	-2.1914	-32.139638	0.000608	6.081399	2.060434	0.000243
1955	1.9442e+02	-2.1400	-31.913558	0.000568	5.675972	1.923071	0.000227
1956	1.9452e+02	-2.1096	-31.723813	0.000476	4.763762	1.614006	0.000191
1957	1.9462e+02	-2.0759	-31.461399	0.000659	6.588182	2.232137	0.000264
1958	1.9472e+02	-2.0278	-31.291839	0.000426	4.256979	1.442304	0.000170
1959	1.9482e+02	-1.9828	-31.069797	0.000557	5.574616	1.888731	0.000223
1960	1.9492e+02	-1.9572	-30.819494	0.000628	6.284112	2.129115	0.000252
1961	1.9502e+02	-1.9171	-30.625712	0.000487	4.865119	1.648347	0.000195
1962	1.9512e+02	-1.8737	-30.363298	0.000659	6.588182	2.232137	0.000264
1963	1.9522e+02	-1.8385	-30.141255	0.000557	5.574616	1.888731	0.000223
1964	1.9532e+02	-1.7983	-29.894990	0.000618	6.182756	2.094774	0.000248
1965	1.9542e+02	-1.7566	-29.693133	0.000507	5.067832	1.717028	0.000203
1966	1.9552e+02	-1.7149	-29.467054	0.000568	5.675972	1.923071	0.000227
1967	1.9562e+02	-1.6796	-29.228863	0.000598	5.980042	2.026093	0.000239
1968	1.9572e+02	-1.6299	-28.998746	0.000578	5.777329	1.957412	0.000231
1969	1.9582e+02	-1.6042	-28.788815	0.000527	5.270546	1.785709	0.000211
1970	1.9592e+02	-1.5529	-28.562735	0.000568	5.675972	1.923071	0.000227
1971	1.9601e+02	-1.5192	-28.296284	0.000669	6.689539	2.266477	0.000268
1972	1.9611e+02	-1.4679	-28.058093	0.000598	5.980042	2.026093	0.000239
1973	1.9621e+02	-1.4358	-27.856237	0.000507	5.067832	1.717028	0.000203
1974	1.9631e+02	-1.4005	-27.585748	0.000679	6.790895	2.300818	0.000272
1975	1.9641e+02	-1.3572	-27.387929	0.000497	4.966476	1.682688	0.000199
1976	1.9651e+02	-1.3203	-27.133589	0.000639	6.385469	2.163455	0.000256
1977	1.9661e+02	-1.2834	-26.879250	0.000639	6.385469	2.163455	0.000256
1978	1.9671e+02	-1.2353	-26.649133	0.000578	5.777329	1.957412	0.000231
1979	1.9681e+02	-1.2016	-26.386719	0.000659	6.588182	2.232137	0.000264
1980	1.9691e+02	-1.1631	-26.160640	0.000568	5.675972	1.923071	0.000227
1981	1.9701e+02	-1.1246	-25.882077	0.000699	6.993609	2.369499	0.000280
1982	1.9711e+02	-1.0780	-25.676183	0.000517	5.169189	1.751369	0.000207
1983	1.9721e+02	-1.0395	-25.425881	0.000628	6.284112	2.129115	0.000252
1984	1.9731e+02	-0.9914	-25.171541	0.000639	6.385469	2.163455	0.000256
1985	1.9741e+02	-0.9577	-24.953536	0.000547	5.473259	1.854390	0.000219
1986	1.9751e+02	-0.9160	-24.703234	0.000628	6.284112	2.129115	0.000252
1987	1.9761e+02	-0.8695	-24.440820	0.000659	6.588182	2.232137	0.000264
1988	1.9771e+02	-0.8422	-24.190517	0.000628	6.284112	2.129115	0.000252
1989	1.9781e+02	-0.8021	-23.948289	0.000608	6.081399	2.060434	0.000243
1990	1.9791e+02	-0.7524	-23.661653	0.000720	7.196322	2.438180	0.000288
1991	1.9800e+02	-0.7203	-23.459796	0.000507	5.067832	1.717028	0.000203
1992	1.9810e+02	-0.6786	-23.193345	0.000669	6.689539	2.266477	0.000268
1993	1.9820e+02	-0.6337	-22.926894	0.000669	6.689539	2.266477	0.000268
1994	1.9830e+02	-0.6000	-22.688703	0.000598	5.980042	2.026093	0.000239
1995	1.9840e+02	-0.5599	-22.418215	0.000679	6.790895	2.300818	0.000272
1996	1.9850e+02	-0.5150	-22.171949	0.000618	6.182756	2.094774	0.000248
1997	1.9860e+02	-0.4732	-21.917610	0.000639	6.385469	2.163455	0.000256
1998	1.9870e+02	-0.4315	-21.671345	0.000618	6.182756	2.094774	0.000248
1999	1.9880e+02	-0.3914	-21.376634	0.000740	7.399035	2.506861	0.000296
2000	1.9890e+02	-0.3577	-21.170740	0.000517	5.169189	1.751369	0.000207
2001	1.9900e+02	-0.3273	-20.867955	0.000760	7.601749	2.575542	0.000304
2002	1.9910e+02	-0.2775	-20.613615	0.000639	6.385469	2.163455	0.000256
2003	1.9920e+02	-0.2438	-20.355238	0.000649	6.486825	2.197796	0.000260
2004	1.9930e+02	-0.1957	-20.137233	0.000547	5.473259	1.854390	0.000219
2005	1.9940e+02	-0.1556	-19.850596	0.000720	7.196322	2.438180	0.000288
2006	1.9950e+02	-0.1219	-19.572034	0.000699	6.993609	2.369499	0.000280
2007	1.9960e+02	-0.0818	-19.349992	0.000557	5.574616	1.888731	0.000223
2008	1.9970e+02	-0.0321	-19.059318	0.000730	7.297679	2.472520	0.000292
2009	1.9980e+02	-0.0032	-18.817090	0.000730	7.297679	2.472520	0.000243

Center data before PMax,+/-Pr and +/-Vc Calc.

PMax (uC/cm2):	9.11e+01
Pr (uC/cm2):	1.64e+01
-Pr (uC/cm2):	-1.88e+01
PLoss (uC/cm2):	-1.56e+01
Vc:	5.41e-01
-Vc:	-2.60e+00
C (Max-Eff) (nF):	4.56e-01
K (Eff):	1.54e+03
Vert. (+/-Pr) Shift (uC/cm2):	-1.20e+00
Horiz. Shift (+/-Vc):	-1.03e+00
Offset (uC/cm2):	3.23e+00

A (Loop Area - uC/cm2·Volts):	-5.54e-02



Hysteresis Version: 5.48.1 - Radiant Technologies, Inc., 1999 - 9/12/24

