»»»»»»»»»»»»»»»»»»»»»»»»»»»»»»»»»»»» Hysteresis ««««««««««««««««««««««««««««««««««««
»»»  Executed Version:	5.48.1
»»»  Vision Version:	5.48.4 (R)
»»»  Vision Compiled:	9/18/24
»»»  Driver Version:	5.47.0
»»»  Windows Version:	Windows 8 or 8.1
»»»  Processor Information:	x86 (AMD or Intel) - 32 Processors
»»»  Tester Name:	PMF21124-494 (100V)
»»»  Tester S/N:	PMF21124-494
»»»  Internal Amp Type:	100V RevK 270k
»»»  Internal Amp S/N:	iAB2-596/K     
»»»  Execution Count:	1
»»»»»»»»»»»»»»»»»»»»»»»»»»»»»»»»»»»»»»»»»»««««««««««««««««««««««««««««««««««««««««««

Stored:	6/12/2025 - 15:33:22
Configured:	06/12/25 03:03:03 PM
Executed:	06/12/25 03:32:41 PM

»»»»»»»»»»»»»»»»»»»»»»»»»»»»»»»»»»» Sample Info ««««««««««««««««««««««««««««««««««««
Sample Name:	
Lot Name:	
Wafer Name:	
Die Row/Column:	0/0
Capacitor Number:	0
Sample Area (cm2):	1.00e-04
Sample Thickness (microns):	3.00e-01

Amplifier:	Internal

»»»»»»»»»»»»»»»»»»»»»»»»»»»»»»»»»»» Tester Info «««««««««««««««««««««««««««««««««««
Tester Name:	PMF21124-494 (100V)
Tester Serial Number:	PMF21124-494
Return Signal Amp. Level:	0.19 [Index: 3]

»»»»»»»»»»»»»»»»»»»»»»»»»»»»»»»» Hysteresis Info ««««««««««««««««««««««««««««««««««
Task Name:	Hyst-1570
Volts:	20.00
Field:	666.67 (kV/cm)
DCBias:	0.00
DCField:	0.00 (kV/cm)
Hysteresis Period (ms):	2.00e+02
Preset:	Enabled
Preset Delay (ms):	1.00e+03
Profile:	Standard Bipolar

»»»»»»»»»»»»»»»»»»»»»»»»»»»»»»»»»»»»»» Data «««««««««««««««««««««««««««««««««««««««
Points:	2009

Valid Data

Point	Time (ms)	Drive Voltage	Measured Polarization (uC/cm2)	Capacitance (uF)	Normalized Capacitance (uF/cm2)	Dielectric Constant	Instantaneous Current (mA)
   1	0.0000e+00	0.0000	-4.854656	-0.000010	-0.101361	-0.034342	-0.000004
   2	9.9500e-02	0.0289	-4.858693	-0.000010	-0.101361	-0.034342	-0.000004
   3	1.9900e-01	0.0690	-4.802173	0.000142	1.419050	0.480787	0.000057
   4	2.9850e-01	0.1187	-4.862730	-0.000152	-1.520411	-0.515129	-0.000061
   5	3.9800e-01	0.1492	-4.826396	0.000091	0.912246	0.309077	0.000037
   6	4.9750e-01	0.1845	-4.846581	-0.000051	-0.506804	-0.171710	-0.000020
   7	5.9700e-01	0.2310	-4.830433	0.000041	0.405443	0.137368	0.000016
   8	6.9650e-01	0.2695	-4.826396	0.000010	0.101361	0.034342	0.000004
   9	7.9600e-01	0.2968	-4.818322	0.000020	0.202721	0.068684	0.000008
  10	8.9550e-01	0.3433	-4.842544	-0.000061	-0.608164	-0.206052	-0.000024
  11	9.9500e-01	0.3914	-4.773913	0.000172	1.723132	0.583813	0.000069
  12	1.0945e+00	0.4187	-4.802173	-0.000071	-0.709525	-0.240394	-0.000028
  13	1.1940e+00	0.4588	-4.810247	-0.000020	-0.202721	-0.068684	-0.000008
  14	1.2935e+00	0.5101	-4.794099	0.000041	0.405443	0.137368	0.000016
  15	1.3930e+00	0.5503	-4.814284	-0.000051	-0.506804	-0.171710	-0.000020
  16	1.4925e+00	0.5823	-4.834470	-0.000051	-0.506804	-0.171710	-0.000020
  17	1.5920e+00	0.6208	-4.858693	-0.000061	-0.608164	-0.206052	-0.000024
  18	1.6915e+00	0.6609	-4.806210	0.000132	1.317689	0.446445	0.000053
  19	1.7910e+00	0.7075	-4.830433	-0.000061	-0.608164	-0.206052	-0.000024
  20	1.8905e+00	0.7556	-4.846581	-0.000041	-0.405443	-0.137368	-0.000016
  21	1.9900e+00	0.7845	-4.834470	0.000030	0.304082	0.103026	0.000012
  22	2.0895e+00	0.8326	-4.814284	0.000051	0.506804	0.171710	0.000020
  23	2.1890e+00	0.8663	-4.850619	-0.000091	-0.912246	-0.309077	-0.000037
  24	2.2885e+00	0.9160	-4.781987	0.000172	1.723132	0.583813	0.000069
  25	2.3880e+00	0.9417	-4.753727	0.000071	0.709525	0.240394	0.000028
  26	2.4875e+00	0.9850	-4.786024	-0.000081	-0.810886	-0.274736	-0.000032
  27	2.5870e+00	1.0251	-4.745653	0.000101	1.013607	0.343419	0.000041
  28	2.6865e+00	1.0572	-4.733542	0.000030	0.304082	0.103026	0.000012
  29	2.7860e+00	1.1069	-4.697207	0.000091	0.912246	0.309077	0.000037
  30	2.8855e+00	1.1326	-4.648762	0.000122	1.216329	0.412103	0.000049
  31	2.9850e+00	1.1839	-4.600316	0.000122	1.216329	0.412103	0.000049
  32	3.0845e+00	1.2192	-4.519573	0.000203	2.027214	0.686839	0.000081
  33	3.1840e+00	1.2609	-4.398459	0.000304	3.040821	1.030258	0.000122
  34	3.2835e+00	1.2994	-4.333865	0.000162	1.621771	0.549471	0.000065
  35	3.3830e+00	1.3508	-4.269271	0.000162	1.621771	0.549471	0.000065
  36	3.4825e+00	1.3925	-4.172380	0.000243	2.432657	0.824207	0.000097
  37	3.5820e+00	1.4165	-4.095674	0.000193	1.925854	0.652497	0.000077
  38	3.6815e+00	1.4695	-4.039154	0.000142	1.419050	0.480787	0.000057
  39	3.7810e+00	1.5064	-3.966486	0.000182	1.824493	0.618155	0.000073
  40	3.8805e+00	1.5433	-3.849409	0.000294	2.939461	0.995916	0.000118
  41	3.9800e+00	1.5930	-3.708109	0.000355	3.547625	1.201968	0.000142
  42	4.0795e+00	1.6283	-3.627366	0.000203	2.027214	0.686839	0.000081
  43	4.1790e+00	1.6700	-3.518364	0.000274	2.736739	0.927232	0.000110
  44	4.2785e+00	1.7037	-3.336693	0.000456	4.561232	1.545387	0.000183
  45	4.3780e+00	1.7390	-3.255950	0.000203	2.027214	0.686839	0.000081
  46	4.4775e+00	1.7791	-3.098502	0.000395	3.953068	1.339336	0.000158
  47	4.5770e+00	1.8320	-3.062167	0.000091	0.912246	0.309077	0.000037
  48	4.6765e+00	1.8577	-2.985462	0.000193	1.925854	0.652497	0.000077
  49	4.7760e+00	1.9058	-2.892608	0.000233	2.331296	0.789865	0.000093
  50	4.8755e+00	1.9524	-2.791679	0.000253	2.534018	0.858548	0.000101
  51	4.9750e+00	1.9828	-2.626157	0.000416	4.155789	1.408020	0.000166
  52	5.0745e+00	2.0261	-2.428337	0.000497	4.966675	1.682755	0.000199
  53	5.1740e+00	2.0598	-2.250703	0.000446	4.459871	1.511045	0.000179
  54	5.2735e+00	2.1080	-2.121515	0.000324	3.243543	1.098942	0.000130
  55	5.3730e+00	2.1433	-2.008475	0.000284	2.838100	0.961574	0.000114
  56	5.4725e+00	2.1866	-1.859101	0.000375	3.750346	1.270652	0.000150
  57	5.5720e+00	2.2331	-1.657244	0.000507	5.068036	1.717097	0.000203
  58	5.6715e+00	2.2620	-1.572464	0.000213	2.128575	0.721181	0.000085
  59	5.7710e+00	2.3005	-1.326199	0.000618	6.183004	2.094858	0.000248
  60	5.8705e+00	2.3358	-1.100119	0.000568	5.676200	1.923149	0.000227
  61	5.9700e+00	2.3807	-0.946708	0.000385	3.851707	1.304994	0.000154
  62	6.0695e+00	2.4352	-0.805409	0.000355	3.547625	1.201968	0.000142
  63	6.1690e+00	2.4609	-0.688332	0.000294	2.939461	0.995916	0.000118
  64	6.2685e+00	2.5042	-0.559143	0.000324	3.243543	1.098942	0.000130
  65	6.3680e+00	2.5315	-0.413806	0.000365	3.648986	1.236310	0.000146
  66	6.4675e+00	2.5828	-0.329027	0.000213	2.128575	0.721181	0.000085
  67	6.5670e+00	2.6133	-0.131207	0.000497	4.966675	1.682755	0.000199
  68	6.6665e+00	2.6550	0.070650	0.000507	5.068036	1.717097	0.000203
  69	6.7660e+00	2.6999	0.252321	0.000456	4.561232	1.545387	0.000183
  70	6.8655e+00	2.7336	0.361324	0.000274	2.736739	0.927232	0.000110
  71	6.9650e+00	2.7753	0.623737	0.000659	6.588446	2.232226	0.000264
  72	7.0645e+00	2.8170	0.821557	0.000497	4.966675	1.682755	0.000199
  73	7.1640e+00	2.8555	1.047637	0.000568	5.676200	1.923149	0.000227
  74	7.2635e+00	2.8972	1.217196	0.000426	4.257150	1.442361	0.000170
  75	7.3630e+00	2.9325	1.483647	0.000669	6.689807	2.266568	0.000268
  76	7.4625e+00	2.9759	1.689541	0.000517	5.169396	1.751439	0.000207
  77	7.5620e+00	3.0208	1.964067	0.000689	6.892529	2.335252	0.000276
  78	7.6615e+00	3.0545	2.145738	0.000456	4.561232	1.545387	0.000183
  79	7.7610e+00	3.0946	2.351632	0.000517	5.169396	1.751439	0.000207
  80	7.8605e+00	3.1315	2.593860	0.000608	6.081643	2.060516	0.000243
  81	7.9600e+00	3.1812	2.832051	0.000598	5.980282	2.026174	0.000239
  82	8.0595e+00	3.2245	3.050056	0.000547	5.473479	1.854465	0.000219
  83	8.1590e+00	3.2550	3.183282	0.000334	3.344904	1.133284	0.000134
  84	8.2585e+00	3.2983	3.332656	0.000375	3.750346	1.270652	0.000150
  85	8.3580e+00	3.3432	3.522401	0.000476	4.763954	1.614071	0.000191
  86	8.4575e+00	3.3881	3.643515	0.000304	3.040821	1.030258	0.000122
  87	8.5570e+00	3.4282	3.825186	0.000456	4.561232	1.545387	0.000183
  88	8.6565e+00	3.4555	4.002820	0.000446	4.459871	1.511045	0.000179
  89	8.7560e+00	3.5052	4.136046	0.000334	3.344904	1.133284	0.000134
  90	8.8555e+00	3.5405	4.305605	0.000426	4.257150	1.442361	0.000170
  91	8.9550e+00	3.5758	4.418645	0.000284	2.838100	0.961574	0.000114
  92	9.0545e+00	3.6095	4.600316	0.000456	4.561232	1.545387	0.000183
  93	9.1540e+00	3.6560	4.781987	0.000456	4.561232	1.545387	0.000183
  94	9.2535e+00	3.6929	4.967696	0.000466	4.662593	1.579729	0.000187
  95	9.3530e+00	3.7347	5.125144	0.000395	3.953068	1.339336	0.000158
  96	9.4525e+00	3.7732	5.294704	0.000426	4.257150	1.442361	0.000170
  97	9.5520e+00	3.8149	5.500597	0.000517	5.169396	1.751439	0.000207
  98	9.6515e+00	3.8582	5.714566	0.000537	5.372118	1.820123	0.000215
  99	9.7510e+00	3.8871	5.964868	0.000628	6.284364	2.129200	0.000252
 100	9.8505e+00	3.9336	6.162688	0.000497	4.966675	1.682755	0.000199
 101	9.9500e+00	3.9753	6.312062	0.000375	3.750346	1.270652	0.000150
 102	1.0050e+01	4.0122	6.501807	0.000476	4.763954	1.614071	0.000191
 103	1.0149e+01	4.0475	6.703664	0.000507	5.068036	1.717097	0.000203
 104	1.0248e+01	4.0892	6.893409	0.000476	4.763954	1.614071	0.000191
 105	1.0348e+01	4.1245	7.042783	0.000375	3.750346	1.270652	0.000150
 106	1.0447e+01	4.1662	7.220417	0.000446	4.459871	1.511045	0.000179
 107	1.0547e+01	4.2063	7.398051	0.000446	4.459871	1.511045	0.000179
 108	1.0646e+01	4.2544	7.636242	0.000598	5.980282	2.026174	0.000239
 109	1.0746e+01	4.2881	7.813876	0.000446	4.459871	1.511045	0.000179
 110	1.0845e+01	4.3330	7.991510	0.000446	4.459871	1.511045	0.000179
 111	1.0945e+01	4.3796	8.177218	0.000466	4.662593	1.579729	0.000187
 112	1.1044e+01	4.4165	8.399261	0.000557	5.574839	1.888807	0.000223
 113	1.1144e+01	4.4517	8.609192	0.000527	5.270757	1.785781	0.000211
 114	1.1243e+01	4.4967	8.794900	0.000466	4.662593	1.579729	0.000187
 115	1.1343e+01	4.5336	8.948311	0.000385	3.851707	1.304994	0.000154
 116	1.1443e+01	4.5705	9.182465	0.000588	5.878921	1.991833	0.000235
 117	1.1542e+01	4.6090	9.416619	0.000588	5.878921	1.991833	0.000235
 118	1.1642e+01	4.6635	9.606364	0.000476	4.763954	1.614071	0.000191
 119	1.1741e+01	4.6908	9.796110	0.000476	4.763954	1.614071	0.000191
 120	1.1841e+01	4.7389	10.026227	0.000578	5.777561	1.957491	0.000231
 121	1.1940e+01	4.7646	10.199823	0.000436	4.358511	1.476703	0.000174
 122	1.2040e+01	4.8079	10.405717	0.000517	5.169396	1.751439	0.000207
 123	1.2139e+01	4.8576	10.660057	0.000639	6.385725	2.163542	0.000256
 124	1.2239e+01	4.8897	10.857877	0.000497	4.966675	1.682755	0.000199
 125	1.2338e+01	4.9282	11.015325	0.000395	3.953068	1.339336	0.000158
 126	1.2438e+01	4.9731	11.221219	0.000517	5.169396	1.751439	0.000207
 127	1.2537e+01	5.0084	11.366556	0.000365	3.648986	1.236310	0.000146
 128	1.2636e+01	5.0581	11.548227	0.000456	4.561232	1.545387	0.000183
 129	1.2736e+01	5.0838	11.697601	0.000375	3.750346	1.270652	0.000150
 130	1.2835e+01	5.1368	11.919643	0.000557	5.574839	1.888807	0.000223
 131	1.2935e+01	5.1704	12.069017	0.000375	3.750346	1.270652	0.000150
 132	1.3034e+01	5.2138	12.307208	0.000598	5.980282	2.026174	0.000239
 133	1.3134e+01	5.2555	12.513102	0.000517	5.169396	1.751439	0.000207
 134	1.3233e+01	5.2908	12.686699	0.000436	4.358511	1.476703	0.000174
 135	1.3333e+01	5.3244	12.884519	0.000497	4.966675	1.682755	0.000199
 136	1.3432e+01	5.3678	13.062153	0.000446	4.459871	1.511045	0.000179
 137	1.3532e+01	5.4159	13.259972	0.000497	4.966675	1.682755	0.000199
 138	1.3632e+01	5.4448	13.465866	0.000517	5.169396	1.751439	0.000207
 139	1.3731e+01	5.4881	13.659649	0.000487	4.865314	1.648413	0.000195
 140	1.3831e+01	5.5250	13.841320	0.000456	4.561232	1.545387	0.000183
 141	1.3930e+01	5.5699	14.051251	0.000527	5.270757	1.785781	0.000211
 142	1.4030e+01	5.6100	14.273293	0.000557	5.574839	1.888807	0.000223
 143	1.4129e+01	5.6533	14.463039	0.000476	4.763954	1.614071	0.000191
 144	1.4229e+01	5.6902	14.656821	0.000487	4.865314	1.648413	0.000195
 145	1.4328e+01	5.7271	14.890975	0.000588	5.878921	1.991833	0.000235
 146	1.4428e+01	5.7704	15.084758	0.000487	4.865314	1.648413	0.000195
 147	1.4527e+01	5.8105	15.302763	0.000547	5.473479	1.854465	0.000219
 148	1.4627e+01	5.8490	15.476360	0.000436	4.358511	1.476703	0.000174
 149	1.4726e+01	5.8859	15.625734	0.000375	3.750346	1.270652	0.000150
 150	1.4825e+01	5.9308	15.835665	0.000527	5.270757	1.785781	0.000211
 151	1.4925e+01	5.9726	16.017336	0.000456	4.561232	1.545387	0.000183
 152	1.5024e+01	6.0062	16.235341	0.000547	5.473479	1.854465	0.000219
 153	1.5124e+01	6.0528	16.404901	0.000426	4.257150	1.442361	0.000170
 154	1.5223e+01	6.0833	16.562349	0.000395	3.953068	1.339336	0.000158
 155	1.5323e+01	6.1330	16.784392	0.000557	5.574839	1.888807	0.000223
 156	1.5422e+01	6.1603	16.966063	0.000456	4.561232	1.545387	0.000183
 157	1.5522e+01	6.2068	17.171957	0.000517	5.169396	1.751439	0.000207
 158	1.5621e+01	6.2453	17.389962	0.000547	5.473479	1.854465	0.000219
 159	1.5721e+01	6.2934	17.712933	0.000811	8.108857	2.747355	0.000325
 160	1.5820e+01	6.3207	17.971310	0.000649	6.487086	2.197884	0.000260
 161	1.5920e+01	6.3720	18.197389	0.000568	5.676200	1.923149	0.000227
 162	1.6020e+01	6.3961	18.411358	0.000537	5.372118	1.820123	0.000215
 163	1.6119e+01	6.4458	18.613214	0.000507	5.068036	1.717097	0.000203
 164	1.6218e+01	6.4763	18.778737	0.000416	4.155789	1.408020	0.000166
 165	1.6318e+01	6.5228	18.976557	0.000497	4.966675	1.682755	0.000199
 166	1.6418e+01	6.5645	19.089596	0.000284	2.838100	0.961574	0.000114
 167	1.6517e+01	6.6110	19.307602	0.000547	5.473479	1.854465	0.000219
 168	1.6616e+01	6.6479	19.654795	0.000872	8.717021	2.953407	0.000349
 169	1.6716e+01	6.6832	20.131177	0.001196	11.960564	4.052349	0.000479
 170	1.6816e+01	6.7153	20.518742	0.000973	9.730629	3.296826	0.000390
 171	1.6915e+01	6.7747	20.910345	0.000983	9.831989	3.331168	0.000394
 172	1.7015e+01	6.8100	21.350392	0.001105	11.048318	3.743271	0.000442
 173	1.7114e+01	6.8372	21.661252	0.000780	7.804775	2.644329	0.000312
 174	1.7213e+01	6.8806	21.955963	0.000740	7.399332	2.506962	0.000296
 175	1.7313e+01	6.9191	22.222414	0.000669	6.689807	2.266568	0.000268
 176	1.7413e+01	6.9592	22.472716	0.000628	6.284364	2.129200	0.000252
 177	1.7512e+01	7.0057	22.678610	0.000517	5.169396	1.751439	0.000207
 178	1.7611e+01	7.0410	22.856244	0.000446	4.459871	1.511045	0.000179
 179	1.7711e+01	7.0923	23.090398	0.000588	5.878921	1.991833	0.000235
 180	1.7811e+01	7.1276	23.259958	0.000426	4.257150	1.442361	0.000170
 181	1.7910e+01	7.1533	23.550631	0.000730	7.297971	2.472620	0.000292
 182	1.8009e+01	7.2094	23.776711	0.000568	5.676200	1.923149	0.000227
 183	1.8109e+01	7.2367	24.014902	0.000598	5.980282	2.026174	0.000239
 184	1.8209e+01	7.2752	24.277316	0.000659	6.588446	2.232226	0.000264
 185	1.8308e+01	7.3217	24.503395	0.000568	5.676200	1.923149	0.000227
 186	1.8407e+01	7.3618	24.685066	0.000456	4.561232	1.545387	0.000183
 187	1.8507e+01	7.4003	24.939406	0.000639	6.385725	2.163542	0.000256
 188	1.8607e+01	7.4356	25.137226	0.000497	4.966675	1.682755	0.000199
 189	1.8706e+01	7.4837	25.367342	0.000578	5.777561	1.957491	0.000231
 190	1.8805e+01	7.5206	25.524791	0.000395	3.953068	1.339336	0.000158
 191	1.8905e+01	7.5656	25.750870	0.000568	5.676200	1.923149	0.000227
 192	1.9005e+01	7.6009	25.936579	0.000466	4.662593	1.579729	0.000187
 193	1.9104e+01	7.6378	26.114213	0.000446	4.459871	1.511045	0.000179
 194	1.9203e+01	7.6843	26.328181	0.000537	5.372118	1.820123	0.000215
 195	1.9303e+01	7.7196	26.550223	0.000557	5.574839	1.888807	0.000223
 196	1.9402e+01	7.7645	26.703634	0.000385	3.851707	1.304994	0.000154
 197	1.9502e+01	7.8014	26.885305	0.000456	4.561232	1.545387	0.000183
 198	1.9602e+01	7.8367	27.046791	0.000405	4.054429	1.373678	0.000162
 199	1.9701e+01	7.8784	27.220388	0.000436	4.358511	1.476703	0.000174
 200	1.9800e+01	7.9041	27.389947	0.000426	4.257150	1.442361	0.000170
 201	1.9900e+01	7.9666	27.535284	0.000365	3.648986	1.236310	0.000146
 202	2.0000e+01	7.9987	27.725030	0.000476	4.763954	1.614071	0.000191
 203	2.0099e+01	8.0436	27.882478	0.000395	3.953068	1.339336	0.000158
 204	2.0198e+01	8.0773	28.043963	0.000405	4.054429	1.373678	0.000162
 205	2.0298e+01	8.1158	28.225635	0.000456	4.561232	1.545387	0.000183
 206	2.0398e+01	8.1575	28.387120	0.000405	4.054429	1.373678	0.000162
 207	2.0497e+01	8.2024	28.556680	0.000426	4.257150	1.442361	0.000170
 208	2.0596e+01	8.2393	28.734314	0.000446	4.459871	1.511045	0.000179
 209	2.0696e+01	8.2698	28.928096	0.000487	4.865314	1.648413	0.000195
 210	2.0796e+01	8.3228	29.117842	0.000476	4.763954	1.614071	0.000191
 211	2.0895e+01	8.3468	29.283364	0.000416	4.155789	1.408020	0.000166
 212	2.0994e+01	8.3885	29.440812	0.000395	3.953068	1.339336	0.000158
 213	2.1094e+01	8.4351	29.590186	0.000375	3.750346	1.270652	0.000150
 214	2.1194e+01	8.4655	29.763783	0.000436	4.358511	1.476703	0.000174
 215	2.1293e+01	8.5153	29.945454	0.000456	4.561232	1.545387	0.000183
 216	2.1392e+01	8.5618	30.155385	0.000527	5.270757	1.785781	0.000211
 217	2.1492e+01	8.5859	30.341094	0.000466	4.662593	1.579729	0.000187
 218	2.1591e+01	8.6372	30.502579	0.000405	4.054429	1.373678	0.000162
 219	2.1691e+01	8.6741	30.639842	0.000345	3.446264	1.167626	0.000138
 220	2.1791e+01	8.7126	30.857847	0.000547	5.473479	1.854465	0.000219
 221	2.1890e+01	8.7575	30.991072	0.000334	3.344904	1.133284	0.000134
 222	2.1989e+01	8.7896	31.184855	0.000487	4.865314	1.648413	0.000195
 223	2.2089e+01	8.8361	31.370563	0.000466	4.662593	1.579729	0.000187
 224	2.2189e+01	8.8810	31.410935	0.000101	1.013607	0.343419	0.000041
 225	2.2288e+01	8.9147	31.528012	0.000294	2.939461	0.995916	0.000118
 226	2.2387e+01	8.9628	31.616829	0.000223	2.229936	0.755523	0.000089
 227	2.2487e+01	8.9869	31.754091	0.000345	3.446264	1.167626	0.000138
 228	2.2587e+01	9.0350	31.830797	0.000193	1.925854	0.652497	0.000077
 229	2.2686e+01	9.0784	31.903465	0.000182	1.824493	0.618155	0.000073
 230	2.2785e+01	9.1120	32.012468	0.000274	2.736739	0.927232	0.000110
 231	2.2885e+01	9.1521	32.149730	0.000345	3.446264	1.167626	0.000138
 232	2.2985e+01	9.1955	32.218362	0.000172	1.723132	0.583813	0.000069
 233	2.3084e+01	9.2292	32.303142	0.000213	2.128575	0.721181	0.000085
 234	2.3183e+01	9.2725	32.404070	0.000253	2.534018	0.858548	0.000101
 235	2.3283e+01	9.3110	32.537295	0.000334	3.344904	1.133284	0.000134
 236	2.3383e+01	9.3447	32.682632	0.000365	3.648986	1.236310	0.000146
 237	2.3482e+01	9.3960	32.767412	0.000213	2.128575	0.721181	0.000085
 238	2.3581e+01	9.4377	32.888526	0.000304	3.040821	1.030258	0.000122
 239	2.3681e+01	9.4746	33.033863	0.000365	3.648986	1.236310	0.000146
 240	2.3780e+01	9.5179	33.163052	0.000324	3.243543	1.098942	0.000130
 241	2.3880e+01	9.5564	33.268017	0.000264	2.635379	0.892890	0.000105
 242	2.3980e+01	9.5933	33.360871	0.000233	2.331296	0.789865	0.000093
 243	2.4079e+01	9.6318	33.530431	0.000426	4.257150	1.442361	0.000170
 244	2.4178e+01	9.6639	33.615211	0.000213	2.128575	0.721181	0.000085
 245	2.4278e+01	9.7152	33.732288	0.000294	2.939461	0.995916	0.000118
 246	2.4378e+01	9.7457	33.869550	0.000345	3.446264	1.167626	0.000138
 247	2.4477e+01	9.7922	33.974516	0.000264	2.635379	0.892890	0.000105
 248	2.4576e+01	9.8452	34.127927	0.000385	3.851707	1.304994	0.000154
 249	2.4676e+01	9.8660	34.317672	0.000476	4.763954	1.614071	0.000191
 250	2.4776e+01	9.9174	34.426675	0.000274	2.736739	0.927232	0.000110
 251	2.4875e+01	9.9495	34.636606	0.000527	5.270757	1.785781	0.000211
 252	2.4974e+01	9.9880	34.822314	0.000466	4.662593	1.579729	0.000187
 253	2.5074e+01	10.0249	34.987837	0.000416	4.155789	1.408020	0.000166
 254	2.5174e+01	10.0746	35.121062	0.000334	3.344904	1.133284	0.000134
 255	2.5273e+01	10.1067	35.290622	0.000426	4.257150	1.442361	0.000170
 256	2.5372e+01	10.1548	35.516702	0.000568	5.676200	1.923149	0.000227
 257	2.5472e+01	10.1885	35.641853	0.000314	3.142182	1.064600	0.000126
 258	2.5572e+01	10.2206	35.807375	0.000416	4.155789	1.408020	0.000166
 259	2.5671e+01	10.2687	35.936564	0.000324	3.243543	1.098942	0.000130
 260	2.5770e+01	10.3200	36.094012	0.000395	3.953068	1.339336	0.000158
 261	2.5870e+01	10.3489	36.259535	0.000416	4.155789	1.408020	0.000166
 262	2.5970e+01	10.3874	36.404872	0.000365	3.648986	1.236310	0.000146
 263	2.6069e+01	10.4275	36.485614	0.000203	2.027214	0.686839	0.000081
 264	2.6169e+01	10.4724	36.618840	0.000334	3.344904	1.133284	0.000134
 265	2.6268e+01	10.5141	36.663248	0.000111	1.114968	0.377761	0.000045
 266	2.6367e+01	10.5526	36.796474	0.000334	3.344904	1.133284	0.000134
 267	2.6467e+01	10.5944	36.921625	0.000314	3.142182	1.064600	0.000126
 268	2.6567e+01	10.6361	37.034665	0.000284	2.838100	0.961574	0.000114
 269	2.6666e+01	10.6633	37.115407	0.000203	2.027214	0.686839	0.000081
 270	2.6765e+01	10.7083	37.248633	0.000334	3.344904	1.133284	0.000134
 271	2.6865e+01	10.7452	37.333413	0.000213	2.128575	0.721181	0.000085
 272	2.6965e+01	10.7917	37.494898	0.000405	4.054429	1.373678	0.000162
 273	2.7064e+01	10.8254	37.660421	0.000416	4.155789	1.408020	0.000166
 274	2.7163e+01	10.8639	37.813832	0.000385	3.851707	1.304994	0.000154
 275	2.7263e+01	10.9040	38.035874	0.000557	5.574839	1.888807	0.000223
 276	2.7363e+01	10.9537	38.148914	0.000284	2.838100	0.961574	0.000114
 277	2.7462e+01	10.9874	38.306362	0.000395	3.953068	1.339336	0.000158
 278	2.7561e+01	11.0259	38.447662	0.000355	3.547625	1.201968	0.000142
 279	2.7661e+01	11.0612	38.609148	0.000405	4.054429	1.373678	0.000162
 280	2.7761e+01	11.1141	38.766596	0.000395	3.953068	1.339336	0.000158
 281	2.7860e+01	11.1478	38.875599	0.000274	2.736739	0.927232	0.000110
 282	2.7959e+01	11.1895	39.008824	0.000334	3.344904	1.133284	0.000134
 283	2.8059e+01	11.2280	39.198569	0.000476	4.763954	1.614071	0.000191
 284	2.8159e+01	11.2681	39.335832	0.000345	3.446264	1.167626	0.000138
 285	2.8258e+01	11.3050	39.456946	0.000304	3.040821	1.030258	0.000122
 286	2.8358e+01	11.3532	39.606320	0.000375	3.750346	1.270652	0.000150
 287	2.8457e+01	11.3836	39.763768	0.000395	3.953068	1.339336	0.000158
 288	2.8556e+01	11.4205	39.925254	0.000405	4.054429	1.373678	0.000162
 289	2.8656e+01	11.4526	40.062516	0.000345	3.446264	1.167626	0.000138
 290	2.8756e+01	11.5136	40.191705	0.000324	3.243543	1.098942	0.000130
 291	2.8855e+01	11.5457	40.345116	0.000385	3.851707	1.304994	0.000154
 292	2.8954e+01	11.5890	40.478341	0.000334	3.344904	1.133284	0.000134
 293	2.9054e+01	11.6275	40.619641	0.000355	3.547625	1.201968	0.000142
 294	2.9154e+01	11.6676	40.773052	0.000385	3.851707	1.304994	0.000154
 295	2.9253e+01	11.7173	40.926464	0.000385	3.851707	1.304994	0.000154
 296	2.9352e+01	11.7430	41.104098	0.000446	4.459871	1.511045	0.000179
 297	2.9452e+01	11.7783	41.253472	0.000375	3.750346	1.270652	0.000150
 298	2.9552e+01	11.8248	41.394771	0.000355	3.547625	1.201968	0.000142
 299	2.9651e+01	11.8633	41.580480	0.000466	4.662593	1.579729	0.000187
 300	2.9750e+01	11.9034	41.721779	0.000355	3.547625	1.201968	0.000142
 301	2.9850e+01	11.9483	41.822708	0.000253	2.534018	0.858548	0.000101
 302	2.9950e+01	11.9868	41.996305	0.000436	4.358511	1.476703	0.000174
 303	3.0049e+01	12.0221	42.105307	0.000274	2.736739	0.927232	0.000110
 304	3.0148e+01	12.0670	42.238533	0.000334	3.344904	1.133284	0.000134
 305	3.0248e+01	12.1023	42.355610	0.000294	2.939461	0.995916	0.000118
 306	3.0348e+01	12.1408	42.509021	0.000385	3.851707	1.304994	0.000154
 307	3.0447e+01	12.1809	42.690692	0.000456	4.561232	1.545387	0.000183
 308	3.0547e+01	12.2162	42.779509	0.000223	2.229936	0.755523	0.000089
 309	3.0646e+01	12.2612	42.965217	0.000466	4.662593	1.579729	0.000187
 310	3.0745e+01	12.3125	43.054034	0.000223	2.229936	0.755523	0.000089
 311	3.0845e+01	12.3414	43.179185	0.000314	3.142182	1.064600	0.000126
 312	3.0945e+01	12.3847	43.421413	0.000608	6.081643	2.060516	0.000243
 313	3.1044e+01	12.4232	43.679790	0.000649	6.487086	2.197884	0.000260
 314	3.1143e+01	12.4665	43.889721	0.000527	5.270757	1.785781	0.000211
 315	3.1243e+01	12.5018	44.152135	0.000659	6.588446	2.232226	0.000264
 316	3.1343e+01	12.5451	44.293435	0.000355	3.547625	1.201968	0.000142
 317	3.1442e+01	12.5868	44.418586	0.000314	3.142182	1.064600	0.000126
 318	3.1541e+01	12.6221	44.567960	0.000375	3.750346	1.270652	0.000150
 319	3.1641e+01	12.6558	44.737520	0.000426	4.257150	1.442361	0.000170
 320	3.1741e+01	12.7039	44.907079	0.000426	4.257150	1.442361	0.000170
 321	3.1840e+01	12.7376	45.137196	0.000578	5.777561	1.957491	0.000231
 322	3.1939e+01	12.7825	45.250236	0.000284	2.838100	0.961574	0.000114
 323	3.2039e+01	12.8258	45.391536	0.000355	3.547625	1.201968	0.000142
 324	3.2139e+01	12.8595	45.548984	0.000395	3.953068	1.339336	0.000158
 325	3.2238e+01	12.9044	45.686247	0.000345	3.446264	1.167626	0.000138
 326	3.2337e+01	12.9301	45.762952	0.000193	1.925854	0.652497	0.000077
 327	3.2437e+01	12.9782	45.880029	0.000294	2.939461	0.995916	0.000118
 328	3.2536e+01	13.0103	45.997106	0.000294	2.939461	0.995916	0.000118
 329	3.2636e+01	13.0601	46.154554	0.000395	3.953068	1.339336	0.000158
 330	3.2736e+01	13.0937	46.320077	0.000416	4.155789	1.408020	0.000166
 331	3.2835e+01	13.1387	46.473488	0.000385	3.851707	1.304994	0.000154
 332	3.2934e+01	13.1788	46.606714	0.000334	3.344904	1.133284	0.000134
 333	3.3034e+01	13.2221	46.836830	0.000578	5.777561	1.957491	0.000231
 334	3.3133e+01	13.2494	46.941796	0.000264	2.635379	0.892890	0.000105
 335	3.3233e+01	13.2975	47.107318	0.000416	4.155789	1.408020	0.000166
 336	3.3333e+01	13.3408	47.264767	0.000395	3.953068	1.339336	0.000158
 337	3.3432e+01	13.3745	47.414141	0.000375	3.750346	1.270652	0.000150
 338	3.3532e+01	13.4194	47.575626	0.000405	4.054429	1.373678	0.000162
 339	3.3631e+01	13.4563	47.704814	0.000324	3.243543	1.098942	0.000130
 340	3.3730e+01	13.4932	47.862263	0.000395	3.953068	1.339336	0.000158
 341	3.3830e+01	13.5397	47.955117	0.000233	2.331296	0.789865	0.000093
 342	3.3929e+01	13.5766	48.096417	0.000355	3.547625	1.201968	0.000142
 343	3.4029e+01	13.6135	48.201382	0.000264	2.635379	0.892890	0.000105
 344	3.4129e+01	13.6536	48.318459	0.000294	2.939461	0.995916	0.000118
 345	3.4228e+01	13.6985	48.435536	0.000294	2.939461	0.995916	0.000118
 346	3.4328e+01	13.7403	48.645467	0.000527	5.270757	1.785781	0.000211
 347	3.4427e+01	13.7739	48.815027	0.000426	4.257150	1.442361	0.000170
 348	3.4526e+01	13.8173	49.037069	0.000557	5.574839	1.888807	0.000223
 349	3.4626e+01	13.8445	49.210666	0.000436	4.358511	1.476703	0.000174
 350	3.4725e+01	13.8991	49.444820	0.000588	5.878921	1.991833	0.000235
 351	3.4825e+01	13.9263	49.630528	0.000466	4.662593	1.579729	0.000187
 352	3.4925e+01	13.9825	49.856608	0.000568	5.676200	1.923149	0.000227
 353	3.5024e+01	14.0098	50.005982	0.000375	3.750346	1.270652	0.000150
 354	3.5123e+01	14.0563	50.159393	0.000385	3.851707	1.304994	0.000154
 355	3.5223e+01	14.0948	50.353175	0.000487	4.865314	1.648413	0.000195
 356	3.5322e+01	14.1301	50.514661	0.000405	4.054429	1.373678	0.000162
 357	3.5422e+01	14.1766	50.664035	0.000375	3.750346	1.270652	0.000150
 358	3.5522e+01	14.2199	50.805335	0.000355	3.547625	1.201968	0.000142
 359	3.5621e+01	14.2504	50.942597	0.000345	3.446264	1.167626	0.000138
 360	3.5721e+01	14.2953	51.108120	0.000416	4.155789	1.408020	0.000166
 361	3.5820e+01	14.3258	51.241345	0.000334	3.344904	1.133284	0.000134
 362	3.5919e+01	14.3771	51.398794	0.000395	3.953068	1.339336	0.000158
 363	3.6019e+01	14.4140	51.519908	0.000304	3.040821	1.030258	0.000122
 364	3.6118e+01	14.4509	51.657170	0.000345	3.446264	1.167626	0.000138
 365	3.6218e+01	14.4926	51.810581	0.000385	3.851707	1.304994	0.000154
 366	3.6318e+01	14.5343	51.931696	0.000304	3.040821	1.030258	0.000122
 367	3.6417e+01	14.5664	52.052810	0.000304	3.040821	1.030258	0.000122
 368	3.6517e+01	14.6049	52.109330	0.000142	1.419050	0.480787	0.000057
 369	3.6616e+01	14.6515	52.323298	0.000537	5.372118	1.820123	0.000215
 370	3.6715e+01	14.6932	52.428263	0.000264	2.635379	0.892890	0.000105
 371	3.6815e+01	14.7333	52.549377	0.000304	3.040821	1.030258	0.000122
 372	3.6914e+01	14.7702	52.694714	0.000365	3.648986	1.236310	0.000146
 373	3.7014e+01	14.8119	52.823903	0.000324	3.243543	1.098942	0.000130
 374	3.7114e+01	14.8520	52.977314	0.000385	3.851707	1.304994	0.000154
 375	3.7213e+01	14.8969	53.082279	0.000264	2.635379	0.892890	0.000105
 376	3.7313e+01	14.9306	53.187245	0.000264	2.635379	0.892890	0.000105
 377	3.7412e+01	14.9675	53.364879	0.000446	4.459871	1.511045	0.000179
 378	3.7511e+01	15.0140	53.473881	0.000274	2.736739	0.927232	0.000110
 379	3.7611e+01	15.0477	53.603070	0.000324	3.243543	1.098942	0.000130
 380	3.7711e+01	15.0878	53.712072	0.000274	2.736739	0.927232	0.000110
 381	3.7810e+01	15.1311	53.845298	0.000334	3.344904	1.133284	0.000134
 382	3.7910e+01	15.1664	53.982561	0.000345	3.446264	1.167626	0.000138
 383	3.8009e+01	15.2161	54.091563	0.000274	2.736739	0.927232	0.000110
 384	3.8108e+01	15.2530	54.228826	0.000345	3.446264	1.167626	0.000138
 385	3.8208e+01	15.2899	54.321680	0.000233	2.331296	0.789865	0.000093
 386	3.8307e+01	15.3252	54.430683	0.000274	2.736739	0.927232	0.000110
 387	3.8407e+01	15.3605	54.608317	0.000446	4.459871	1.511045	0.000179
 388	3.8507e+01	15.4199	54.709245	0.000253	2.534018	0.858548	0.000101
 389	3.8606e+01	15.4423	54.818248	0.000274	2.736739	0.927232	0.000110
 390	3.8706e+01	15.4825	54.971659	0.000385	3.851707	1.304994	0.000154
 391	3.8805e+01	15.5274	55.084699	0.000284	2.838100	0.961574	0.000114
 392	3.8904e+01	15.5675	55.181590	0.000243	2.432657	0.824207	0.000097
 393	3.9004e+01	15.6140	55.339038	0.000395	3.953068	1.339336	0.000158
 394	3.9103e+01	15.6461	55.456115	0.000294	2.939461	0.995916	0.000118
 395	3.9203e+01	15.6926	55.589341	0.000334	3.344904	1.133284	0.000134
 396	3.9303e+01	15.7215	55.674120	0.000213	2.128575	0.721181	0.000085
 397	3.9402e+01	15.7776	55.880014	0.000517	5.169396	1.751439	0.000207
 398	3.9502e+01	15.8161	55.960757	0.000203	2.027214	0.686839	0.000081
 399	3.9601e+01	15.8482	56.134354	0.000436	4.358511	1.476703	0.000174
 400	3.9700e+01	15.8915	56.186837	0.000132	1.317689	0.446445	0.000053
 401	3.9800e+01	15.9316	56.348322	0.000405	4.054429	1.373678	0.000162
 402	3.9900e+01	15.9573	56.429065	0.000203	2.027214	0.686839	0.000081
 403	3.9999e+01	16.0086	56.550179	0.000304	3.040821	1.030258	0.000122
 404	4.0099e+01	16.0455	56.667256	0.000294	2.939461	0.995916	0.000118
 405	4.0198e+01	16.0889	56.792407	0.000314	3.142182	1.064600	0.000126
 406	4.0297e+01	16.1241	56.941781	0.000375	3.750346	1.270652	0.000150
 407	4.0397e+01	16.1787	57.062895	0.000304	3.040821	1.030258	0.000122
 408	4.0496e+01	16.1979	57.167861	0.000264	2.635379	0.892890	0.000105
 409	4.0596e+01	16.2429	57.280900	0.000284	2.838100	0.961574	0.000114
 410	4.0696e+01	16.2814	57.402014	0.000304	3.040821	1.030258	0.000122
 411	4.0795e+01	16.3199	57.527166	0.000314	3.142182	1.064600	0.000126
 412	4.0895e+01	16.3664	57.624057	0.000243	2.432657	0.824207	0.000097
 413	4.0994e+01	16.4081	57.785542	0.000405	4.054429	1.373678	0.000162
 414	4.1093e+01	16.4546	57.878397	0.000233	2.331296	0.789865	0.000093
 415	4.1193e+01	16.4771	58.019696	0.000355	3.547625	1.201968	0.000142
 416	4.1292e+01	16.5220	58.136773	0.000294	2.939461	0.995916	0.000118
 417	4.1392e+01	16.5653	58.261924	0.000314	3.142182	1.064600	0.000126
 418	4.1492e+01	16.6102	58.407261	0.000365	3.648986	1.236310	0.000146
 419	4.1591e+01	16.6487	58.540487	0.000334	3.344904	1.133284	0.000134
 420	4.1691e+01	16.6840	58.637378	0.000243	2.432657	0.824207	0.000097
 421	4.1790e+01	16.7161	58.770604	0.000334	3.344904	1.133284	0.000134
 422	4.1889e+01	16.7690	58.867495	0.000243	2.432657	0.824207	0.000097
 423	4.1989e+01	16.8011	59.004757	0.000345	3.446264	1.167626	0.000138
 424	4.2089e+01	16.8396	59.125871	0.000304	3.040821	1.030258	0.000122
 425	4.2188e+01	16.8781	59.291394	0.000416	4.155789	1.408020	0.000166
 426	4.2288e+01	16.9279	59.404434	0.000284	2.838100	0.961574	0.000114
 427	4.2387e+01	16.9728	59.529585	0.000314	3.142182	1.064600	0.000126
 428	4.2486e+01	16.9968	59.662811	0.000334	3.344904	1.133284	0.000134
 429	4.2586e+01	17.0402	59.783925	0.000304	3.040821	1.030258	0.000122
 430	4.2685e+01	17.0771	59.917150	0.000334	3.344904	1.133284	0.000134
 431	4.2785e+01	17.1236	60.034227	0.000294	2.939461	0.995916	0.000118
 432	4.2885e+01	17.1685	60.171490	0.000345	3.446264	1.167626	0.000138
 433	4.2984e+01	17.2086	60.328938	0.000395	3.953068	1.339336	0.000158
 434	4.3084e+01	17.2471	60.470238	0.000355	3.547625	1.201968	0.000142
 435	4.3183e+01	17.2840	60.591352	0.000304	3.040821	1.030258	0.000122
 436	4.3282e+01	17.3257	60.696317	0.000264	2.635379	0.892890	0.000105
 437	4.3382e+01	17.3642	60.861840	0.000416	4.155789	1.408020	0.000166
 438	4.3481e+01	17.3915	60.966805	0.000264	2.635379	0.892890	0.000105
 439	4.3581e+01	17.4332	61.100031	0.000334	3.344904	1.133284	0.000134
 440	4.3681e+01	17.4797	61.221145	0.000304	3.040821	1.030258	0.000122
 441	4.3780e+01	17.5327	61.370519	0.000375	3.750346	1.270652	0.000150
 442	4.3880e+01	17.5583	61.471447	0.000253	2.534018	0.858548	0.000101
 443	4.3979e+01	17.5968	61.632933	0.000405	4.054429	1.373678	0.000162
 444	4.4078e+01	17.6385	61.745973	0.000284	2.838100	0.961574	0.000114
 445	4.4178e+01	17.6851	61.891309	0.000365	3.648986	1.236310	0.000146
 446	4.4278e+01	17.7171	62.004349	0.000284	2.838100	0.961574	0.000114
 447	4.4377e+01	17.7653	62.125463	0.000304	3.040821	1.030258	0.000122
 448	4.4477e+01	17.7942	62.218317	0.000233	2.331296	0.789865	0.000093
 449	4.4576e+01	17.8439	62.347506	0.000324	3.243543	1.098942	0.000130
 450	4.4675e+01	17.8808	62.460546	0.000284	2.838100	0.961574	0.000114
 451	4.4775e+01	17.9209	62.541288	0.000203	2.027214	0.686839	0.000081
 452	4.4874e+01	17.9674	62.714885	0.000436	4.358511	1.476703	0.000174
 453	4.4974e+01	17.9931	62.791591	0.000193	1.925854	0.652497	0.000077
 454	4.5074e+01	18.0476	62.932890	0.000355	3.547625	1.201968	0.000142
 455	4.5173e+01	18.0749	63.025745	0.000233	2.331296	0.789865	0.000093
 456	4.5273e+01	18.1182	63.183193	0.000395	3.953068	1.339336	0.000158
 457	4.5372e+01	18.1727	63.276047	0.000233	2.331296	0.789865	0.000093
 458	4.5471e+01	18.2016	63.421384	0.000365	3.648986	1.236310	0.000146
 459	4.5571e+01	18.2417	63.534424	0.000284	2.838100	0.961574	0.000114
 460	4.5670e+01	18.2818	63.647463	0.000284	2.838100	0.961574	0.000114
 461	4.5770e+01	18.3107	63.764540	0.000294	2.939461	0.995916	0.000118
 462	4.5870e+01	18.3572	63.833172	0.000172	1.723132	0.583813	0.000069
 463	4.5969e+01	18.3957	63.978509	0.000365	3.648986	1.236310	0.000146
 464	4.6069e+01	18.4407	64.135957	0.000395	3.953068	1.339336	0.000158
 465	4.6168e+01	18.4856	64.220737	0.000213	2.128575	0.721181	0.000085
 466	4.6267e+01	18.5257	64.325702	0.000264	2.635379	0.892890	0.000105
 467	4.6367e+01	18.5642	64.438742	0.000284	2.838100	0.961574	0.000114
 468	4.6467e+01	18.6027	64.563893	0.000314	3.142182	1.064600	0.000126
 469	4.6566e+01	18.6316	64.680970	0.000294	2.939461	0.995916	0.000118
 470	4.6666e+01	18.6685	64.773824	0.000233	2.331296	0.789865	0.000093
 471	4.6765e+01	18.7150	64.923198	0.000375	3.750346	1.270652	0.000150
 472	4.6864e+01	18.7551	65.052387	0.000324	3.243543	1.098942	0.000130
 473	4.6964e+01	18.7936	65.161389	0.000274	2.736739	0.927232	0.000110
 474	4.7063e+01	18.8337	65.286541	0.000314	3.142182	1.064600	0.000126
 475	4.7163e+01	18.8834	65.403618	0.000294	2.939461	0.995916	0.000118
 476	4.7263e+01	18.9171	65.504546	0.000253	2.534018	0.858548	0.000101
 477	4.7362e+01	18.9588	65.637771	0.000334	3.344904	1.133284	0.000134
 478	4.7462e+01	18.9845	65.758885	0.000304	3.040821	1.030258	0.000122
 479	4.7561e+01	19.0342	65.859814	0.000253	2.534018	0.858548	0.000101
 480	4.7660e+01	19.0872	65.984965	0.000314	3.142182	1.064600	0.000126
 481	4.7760e+01	19.1192	66.106079	0.000304	3.040821	1.030258	0.000122
 482	4.7859e+01	19.1577	66.231230	0.000314	3.142182	1.064600	0.000126
 483	4.7959e+01	19.1979	66.356382	0.000314	3.142182	1.064600	0.000126
 484	4.8059e+01	19.2364	66.477496	0.000304	3.040821	1.030258	0.000122
 485	4.8158e+01	19.2749	66.582461	0.000264	2.635379	0.892890	0.000105
 486	4.8258e+01	19.3102	66.719724	0.000345	3.446264	1.167626	0.000138
 487	4.8357e+01	19.3503	66.824689	0.000264	2.635379	0.892890	0.000105
 488	4.8456e+01	19.3968	66.945803	0.000304	3.040821	1.030258	0.000122
 489	4.8556e+01	19.4321	67.058843	0.000284	2.838100	0.961574	0.000114
 490	4.8656e+01	19.4786	67.192069	0.000334	3.344904	1.133284	0.000134
 491	4.8755e+01	19.5155	67.264737	0.000182	1.824493	0.618155	0.000073
 492	4.8855e+01	19.5444	67.389888	0.000314	3.142182	1.064600	0.000126
 493	4.8954e+01	19.5973	67.547337	0.000395	3.953068	1.339336	0.000158
 494	4.9053e+01	19.6294	67.620005	0.000182	1.824493	0.618155	0.000073
 495	4.9153e+01	19.6631	67.761305	0.000355	3.547625	1.201968	0.000142
 496	4.9252e+01	19.7160	67.838010	0.000193	1.925854	0.652497	0.000077
 497	4.9352e+01	19.7561	68.007570	0.000426	4.257150	1.442361	0.000170
 498	4.9452e+01	19.7882	68.128684	0.000304	3.040821	1.030258	0.000122
 499	4.9551e+01	19.8347	68.265947	0.000345	3.446264	1.167626	0.000138
 500	4.9651e+01	19.8636	68.370912	0.000264	2.635379	0.892890	0.000105
 501	4.9750e+01	19.9069	68.487989	0.000294	2.939461	0.995916	0.000118
 502	4.9849e+01	19.9454	68.613140	0.000314	3.142182	1.064600	0.000126
 503	4.9949e+01	19.9887	68.673697	0.000152	1.520411	0.515129	0.000061
 504	5.0048e+01	19.9502	68.819034	-0.000365	-3.648986	-1.236310	0.000146
 505	5.0148e+01	19.9133	68.879591	-0.000152	-1.520411	-0.515129	0.000061
 506	5.0248e+01	19.8652	68.932074	-0.000132	-1.317689	-0.446445	0.000053
 507	5.0347e+01	19.8395	68.936111	-0.000010	-0.101361	-0.034342	0.000004
 508	5.0447e+01	19.7930	69.045114	-0.000274	-2.736739	-0.927232	0.000110
 509	5.0546e+01	19.7561	69.033003	0.000030	0.304082	0.103026	-0.000012
 510	5.0645e+01	19.7160	69.045114	-0.000030	-0.304082	-0.103026	0.000012
 511	5.0745e+01	19.6631	69.093560	-0.000122	-1.216329	-0.412103	0.000049
 512	5.0844e+01	19.6294	69.109708	-0.000041	-0.405443	-0.137368	0.000016
 513	5.0944e+01	19.5797	69.129894	-0.000051	-0.506804	-0.171710	0.000020
 514	5.1044e+01	19.5604	69.133931	-0.000010	-0.101361	-0.034342	0.000004
 515	5.1143e+01	19.5107	69.158154	-0.000061	-0.608164	-0.206052	0.000024
 516	5.1242e+01	19.4674	69.186414	-0.000071	-0.709525	-0.240394	0.000028
 517	5.1342e+01	19.4337	69.202562	-0.000041	-0.405443	-0.137368	0.000016
 518	5.1441e+01	19.3888	69.214674	-0.000030	-0.304082	-0.103026	0.000012
 519	5.1541e+01	19.3567	69.202562	0.000030	0.304082	0.103026	-0.000012
 520	5.1641e+01	19.3214	69.178339	0.000061	0.608164	0.206052	-0.000024
 521	5.1740e+01	19.2797	69.194488	-0.000041	-0.405443	-0.137368	0.000016
 522	5.1840e+01	19.2412	69.186414	0.000020	0.202721	0.068684	-0.000008
 523	5.1939e+01	19.1930	69.166228	0.000051	0.506804	0.171710	-0.000020
 524	5.2038e+01	19.1513	69.190451	-0.000061	-0.608164	-0.206052	0.000024
 525	5.2138e+01	19.1176	69.166228	0.000061	0.608164	0.206052	-0.000024
 526	5.2237e+01	19.0695	69.190451	-0.000061	-0.608164	-0.206052	0.000024
 527	5.2337e+01	19.0422	69.166228	0.000061	0.608164	0.206052	-0.000024
 528	5.2437e+01	18.9989	69.170265	-0.000010	-0.101361	-0.034342	0.000004
 529	5.2536e+01	18.9604	69.146042	0.000061	0.608164	0.206052	-0.000024
 530	5.2636e+01	18.9203	69.166228	-0.000051	-0.506804	-0.171710	0.000020
 531	5.2735e+01	18.8818	69.166228	-0.000000	-0.000000	-0.000000	0.000000
 532	5.2834e+01	18.8433	69.150079	0.000041	0.405443	0.137368	-0.000016
 533	5.2934e+01	18.7936	69.182377	-0.000081	-0.810886	-0.274736	0.000032
 534	5.3033e+01	18.7551	69.154117	0.000071	0.709525	0.240394	-0.000028
 535	5.3133e+01	18.7182	69.137968	0.000041	0.405443	0.137368	-0.000016
 536	5.3233e+01	18.6765	69.178339	-0.000101	-1.013607	-0.343419	0.000041
 537	5.3332e+01	18.6332	69.129894	0.000122	1.216329	0.412103	-0.000049
 538	5.3431e+01	18.6091	69.121820	0.000020	0.202721	0.068684	-0.000008
 539	5.3531e+01	18.5594	69.142005	-0.000051	-0.506804	-0.171710	0.000020
 540	5.3630e+01	18.5209	69.162191	-0.000051	-0.506804	-0.171710	0.000020
 541	5.3730e+01	18.4856	69.158154	0.000010	0.101361	0.034342	-0.000004
 542	5.3830e+01	18.4374	69.146042	0.000030	0.304082	0.103026	-0.000012
 543	5.3929e+01	18.3957	69.137968	0.000020	0.202721	0.068684	-0.000008
 544	5.4029e+01	18.3653	69.121820	0.000041	0.405443	0.137368	-0.000016
 545	5.4128e+01	18.3203	69.133931	-0.000030	-0.304082	-0.103026	0.000012
 546	5.4227e+01	18.2770	69.142005	-0.000020	-0.202721	-0.068684	0.000008
 547	5.4327e+01	18.2321	69.113745	0.000071	0.709525	0.240394	-0.000028
 548	5.4426e+01	18.2032	69.146042	-0.000081	-0.810886	-0.274736	0.000032
 549	5.4526e+01	18.1599	69.113745	0.000081	0.810886	0.274736	-0.000032
 550	5.4626e+01	18.1166	69.117782	-0.000010	-0.101361	-0.034342	0.000004
 551	5.4725e+01	18.0797	69.133931	-0.000041	-0.405443	-0.137368	0.000016
 552	5.4825e+01	18.0332	69.150079	-0.000041	-0.405443	-0.137368	0.000016
 553	5.4924e+01	18.0027	69.146042	0.000010	0.101361	0.034342	-0.000004
 554	5.5023e+01	17.9674	69.089522	0.000142	1.419050	0.480787	-0.000057
 555	5.5123e+01	17.9145	69.129894	-0.000101	-1.013607	-0.343419	0.000041
 556	5.5222e+01	17.8695	69.137968	-0.000020	-0.202721	-0.068684	0.000008
 557	5.5322e+01	17.8439	69.113745	0.000061	0.608164	0.206052	-0.000024
 558	5.5422e+01	17.8006	69.142005	-0.000071	-0.709525	-0.240394	0.000028
 559	5.5521e+01	17.7605	69.117782	0.000061	0.608164	0.206052	-0.000024
 560	5.5620e+01	17.7220	69.117782	-0.000000	-0.000000	-0.000000	0.000000
 561	5.5720e+01	17.6786	69.117782	-0.000000	-0.000000	-0.000000	0.000000
 562	5.5819e+01	17.6417	69.117782	-0.000000	-0.000000	-0.000000	0.000000
 563	5.5919e+01	17.6129	69.089522	0.000071	0.709525	0.240394	-0.000028
 564	5.6019e+01	17.5583	69.073374	0.000041	0.405443	0.137368	-0.000016
 565	5.6118e+01	17.5198	69.089522	-0.000041	-0.405443	-0.137368	0.000016
 566	5.6218e+01	17.4845	69.089522	-0.000000	-0.000000	-0.000000	0.000000
 567	5.6317e+01	17.4412	69.085485	0.000010	0.101361	0.034342	-0.000004
 568	5.6416e+01	17.3995	69.093560	-0.000020	-0.202721	-0.068684	0.000008
 569	5.6516e+01	17.3626	69.089522	0.000010	0.101361	0.034342	-0.000004
 570	5.6615e+01	17.3289	69.089522	-0.000000	-0.000000	-0.000000	0.000000
 571	5.6715e+01	17.2744	69.069337	0.000051	0.506804	0.171710	-0.000020
 572	5.6815e+01	17.2375	69.045114	0.000061	0.608164	0.206052	-0.000024
 573	5.6914e+01	17.1958	69.028965	0.000041	0.405443	0.137368	-0.000016
 574	5.7014e+01	17.1669	69.053188	-0.000061	-0.608164	-0.206052	0.000024
 575	5.7113e+01	17.1220	69.004743	0.000122	1.216329	0.412103	-0.000049
 576	5.7212e+01	17.0851	68.992631	0.000030	0.304082	0.103026	-0.000012
 577	5.7312e+01	17.0466	68.964371	0.000071	0.709525	0.240394	-0.000028
 578	5.7411e+01	17.0001	68.924000	0.000101	1.013607	0.343419	-0.000041
 579	5.7511e+01	16.9632	68.924000	-0.000000	-0.000000	-0.000000	0.000000
 580	5.7611e+01	16.9295	68.863443	0.000152	1.520411	0.515129	-0.000061
 581	5.7710e+01	16.8846	68.802886	0.000152	1.520411	0.515129	-0.000061
 582	5.7809e+01	16.8460	68.831146	-0.000071	-0.709525	-0.240394	0.000028
 583	5.7909e+01	16.8124	68.758477	0.000182	1.824493	0.618155	-0.000073
 584	5.8008e+01	16.7739	68.722143	0.000091	0.912246	0.309077	-0.000037
 585	5.8108e+01	16.7225	68.649475	0.000182	1.824493	0.618155	-0.000073
 586	5.8208e+01	16.6840	68.637363	0.000030	0.304082	0.103026	-0.000012
 587	5.8307e+01	16.6375	68.596992	0.000101	1.013607	0.343419	-0.000041
 588	5.8407e+01	16.6086	68.564695	0.000081	0.810886	0.274736	-0.000032
 589	5.8506e+01	16.5621	68.492026	0.000182	1.824493	0.618155	-0.000073
 590	5.8605e+01	16.5188	68.419358	0.000182	1.824493	0.618155	-0.000073
 591	5.8705e+01	16.4851	68.314392	0.000264	2.635379	0.892890	-0.000105
 592	5.8804e+01	16.4514	68.269984	0.000111	1.114968	0.377761	-0.000045
 593	5.8904e+01	16.4017	68.205390	0.000162	1.621771	0.549471	-0.000065
 594	5.9004e+01	16.3696	68.140796	0.000162	1.621771	0.549471	-0.000065
 595	5.9103e+01	16.3311	68.112536	0.000071	0.709525	0.240394	-0.000028
 596	5.9203e+01	16.2830	68.031793	0.000203	2.027214	0.686839	-0.000081
 597	5.9302e+01	16.2445	67.951050	0.000203	2.027214	0.686839	-0.000081
 598	5.9401e+01	16.1995	67.902605	0.000122	1.216329	0.412103	-0.000049
 599	5.9501e+01	16.1707	67.850122	0.000132	1.317689	0.446445	-0.000053
 600	5.9600e+01	16.1193	67.757268	0.000233	2.331296	0.789865	-0.000093
 601	5.9700e+01	16.0872	67.684599	0.000182	1.824493	0.618155	-0.000073
 602	5.9800e+01	16.0391	67.607894	0.000193	1.925854	0.652497	-0.000077
 603	5.9899e+01	16.0006	67.583671	0.000061	0.608164	0.206052	-0.000024
 604	5.9998e+01	15.9733	67.458520	0.000314	3.142182	1.064600	-0.000126
 605	6.0098e+01	15.9364	67.309146	0.000375	3.750346	1.270652	-0.000150
 606	6.0197e+01	15.8931	67.236477	0.000182	1.824493	0.618155	-0.000073
 607	6.0297e+01	15.8514	67.091140	0.000365	3.648986	1.236310	-0.000146
 608	6.0397e+01	15.8065	67.010398	0.000203	2.027214	0.686839	-0.000081
 609	6.0496e+01	15.7600	66.917543	0.000233	2.331296	0.789865	-0.000093
 610	6.0596e+01	15.7311	66.772207	0.000365	3.648986	1.236310	-0.000146
 611	6.0695e+01	15.6894	66.683390	0.000223	2.229936	0.755523	-0.000089
 612	6.0794e+01	15.6493	66.566313	0.000294	2.939461	0.995916	-0.000118
 613	6.0894e+01	15.6092	66.465384	0.000253	2.534018	0.858548	-0.000101
 614	6.0993e+01	15.5707	66.364456	0.000253	2.534018	0.858548	-0.000101
 615	6.1093e+01	15.5386	66.255453	0.000274	2.736739	0.927232	-0.000110
 616	6.1193e+01	15.4889	66.162599	0.000233	2.331296	0.789865	-0.000093
 617	6.1292e+01	15.4584	66.057634	0.000264	2.635379	0.892890	-0.000105
 618	6.1392e+01	15.4054	65.964779	0.000233	2.331296	0.789865	-0.000093
 619	6.1491e+01	15.3605	65.823480	0.000355	3.547625	1.201968	-0.000142
 620	6.1590e+01	15.3397	65.742737	0.000203	2.027214	0.686839	-0.000081
 621	6.1690e+01	15.2883	65.645846	0.000243	2.432657	0.824207	-0.000097
 622	6.1789e+01	15.2514	65.585289	0.000152	1.520411	0.515129	-0.000061
 623	6.1889e+01	15.2033	65.452063	0.000334	3.344904	1.133284	-0.000134
 624	6.1989e+01	15.1728	65.371320	0.000203	2.027214	0.686839	-0.000081
 625	6.2088e+01	15.1279	65.254244	0.000294	2.939461	0.995916	-0.000118
 626	6.2188e+01	15.0766	65.133129	0.000304	3.040821	1.030258	-0.000122
 627	6.2287e+01	15.0461	64.987793	0.000365	3.648986	1.236310	-0.000146
 628	6.2386e+01	15.0060	64.794010	0.000487	4.865314	1.648413	-0.000195
 629	6.2486e+01	14.9675	64.600228	0.000487	4.865314	1.648413	-0.000195
 630	6.2586e+01	14.9322	64.378185	0.000557	5.574839	1.888807	-0.000223
 631	6.2685e+01	14.8905	64.204588	0.000436	4.358511	1.476703	-0.000174
 632	6.2785e+01	14.8520	64.035029	0.000426	4.257150	1.442361	-0.000170
 633	6.2884e+01	14.8087	63.841246	0.000487	4.865314	1.648413	-0.000195
 634	6.2983e+01	14.7686	63.712058	0.000324	3.243543	1.098942	-0.000130
 635	6.3083e+01	14.7301	63.518275	0.000487	4.865314	1.648413	-0.000195
 636	6.3182e+01	14.6916	63.393124	0.000314	3.142182	1.064600	-0.000126
 637	6.3282e+01	14.6579	63.247787	0.000365	3.648986	1.236310	-0.000146
 638	6.3382e+01	14.6081	63.094376	0.000385	3.851707	1.304994	-0.000154
 639	6.3481e+01	14.5793	62.936928	0.000395	3.953068	1.339336	-0.000158
 640	6.3581e+01	14.5360	62.831962	0.000264	2.635379	0.892890	-0.000105
 641	6.3680e+01	14.4798	62.658365	0.000436	4.358511	1.476703	-0.000174
 642	6.3779e+01	14.4477	62.525140	0.000334	3.344904	1.133284	-0.000134
 643	6.3879e+01	14.4156	62.440360	0.000213	2.128575	0.721181	-0.000085
 644	6.3978e+01	14.3771	62.270800	0.000426	4.257150	1.442361	-0.000170
 645	6.4078e+01	14.3258	62.181983	0.000223	2.229936	0.755523	-0.000089
 646	6.4177e+01	14.3001	62.056832	0.000314	3.142182	1.064600	-0.000126
 647	6.4277e+01	14.2536	61.867087	0.000476	4.763954	1.614071	-0.000191
 648	6.4376e+01	14.2151	61.790381	0.000193	1.925854	0.652497	-0.000077
 649	6.4476e+01	14.1718	61.673304	0.000294	2.939461	0.995916	-0.000118
 650	6.4576e+01	14.1317	61.527967	0.000365	3.648986	1.236310	-0.000146
 651	6.4675e+01	14.0964	61.427039	0.000253	2.534018	0.858548	-0.000101
 652	6.4775e+01	14.0611	61.297850	0.000324	3.243543	1.098942	-0.000130
 653	6.4874e+01	14.0098	61.196922	0.000253	2.534018	0.858548	-0.000101
 654	6.4974e+01	13.9745	61.079845	0.000294	2.939461	0.995916	-0.000118
 655	6.5073e+01	13.9392	60.986991	0.000233	2.331296	0.789865	-0.000093
 656	6.5172e+01	13.8862	60.869914	0.000294	2.939461	0.995916	-0.000118
 657	6.5272e+01	13.8558	60.764949	0.000264	2.635379	0.892890	-0.000105
 658	6.5371e+01	13.8124	60.595389	0.000426	4.257150	1.442361	-0.000170
 659	6.5471e+01	13.7804	60.518683	0.000193	1.925854	0.652497	-0.000077
 660	6.5570e+01	13.7322	60.425829	0.000233	2.331296	0.789865	-0.000093
 661	6.5670e+01	13.6921	60.324901	0.000253	2.534018	0.858548	-0.000101
 662	6.5769e+01	13.6600	60.171490	0.000385	3.851707	1.304994	-0.000154
 663	6.5869e+01	13.6103	60.090747	0.000203	2.027214	0.686839	-0.000081
 664	6.5969e+01	13.5718	59.977707	0.000284	2.838100	0.961574	-0.000114
 665	6.6068e+01	13.5285	59.913113	0.000162	1.621771	0.549471	-0.000065
 666	6.6168e+01	13.4948	59.844482	0.000172	1.723132	0.583813	-0.000069
 667	6.6267e+01	13.4483	59.755665	0.000223	2.229936	0.755523	-0.000089
 668	6.6367e+01	13.4274	59.670885	0.000213	2.128575	0.721181	-0.000085
 669	6.6466e+01	13.3809	59.541696	0.000324	3.243543	1.098942	-0.000130
 670	6.6566e+01	13.3408	59.481139	0.000152	1.520411	0.515129	-0.000061
 671	6.6665e+01	13.2991	59.384248	0.000243	2.432657	0.824207	-0.000097
 672	6.6764e+01	13.2590	59.299468	0.000213	2.128575	0.721181	-0.000085
 673	6.6864e+01	13.2221	59.178354	0.000304	3.040821	1.030258	-0.000122
 674	6.6963e+01	13.1756	59.081463	0.000243	2.432657	0.824207	-0.000097
 675	6.7063e+01	13.1419	58.928052	0.000385	3.851707	1.304994	-0.000154
 676	6.7162e+01	13.0986	58.806938	0.000304	3.040821	1.030258	-0.000122
 677	6.7262e+01	13.0488	58.722158	0.000213	2.128575	0.721181	-0.000085
 678	6.7362e+01	13.0232	58.625267	0.000243	2.432657	0.824207	-0.000097
 679	6.7461e+01	12.9670	58.496078	0.000324	3.243543	1.098942	-0.000130
 680	6.7561e+01	12.9333	58.387076	0.000274	2.736739	0.927232	-0.000110
 681	6.7660e+01	12.8996	58.298259	0.000223	2.229936	0.755523	-0.000089
 682	6.7760e+01	12.8643	58.201367	0.000243	2.432657	0.824207	-0.000097
 683	6.7859e+01	12.8226	58.056030	0.000365	3.648986	1.236310	-0.000146
 684	6.7959e+01	12.7793	57.898582	0.000395	3.953068	1.339336	-0.000158
 685	6.8058e+01	12.7376	57.777468	0.000304	3.040821	1.030258	-0.000122
 686	6.8157e+01	12.7039	57.708837	0.000172	1.723132	0.583813	-0.000069
 687	6.8257e+01	12.6574	57.591760	0.000294	2.939461	0.995916	-0.000118
 688	6.8356e+01	12.6157	57.418163	0.000436	4.358511	1.476703	-0.000174
 689	6.8456e+01	12.5868	57.313198	0.000264	2.635379	0.892890	-0.000105
 690	6.8555e+01	12.5419	57.232455	0.000203	2.027214	0.686839	-0.000081
 691	6.8655e+01	12.5066	57.123452	0.000274	2.736739	0.927232	-0.000110
 692	6.8754e+01	12.4665	57.010412	0.000284	2.838100	0.961574	-0.000114
 693	6.8854e+01	12.4200	56.905447	0.000264	2.635379	0.892890	-0.000105
 694	6.8954e+01	12.3847	56.788370	0.000294	2.939461	0.995916	-0.000118
 695	6.9053e+01	12.3430	56.679367	0.000274	2.736739	0.927232	-0.000110
 696	6.9153e+01	12.3029	56.562290	0.000294	2.939461	0.995916	-0.000118
 697	6.9252e+01	12.2644	56.497696	0.000162	1.621771	0.549471	-0.000065
 698	6.9352e+01	12.2243	56.400805	0.000243	2.432657	0.824207	-0.000097
 699	6.9451e+01	12.1841	56.267579	0.000334	3.344904	1.133284	-0.000134
 700	6.9550e+01	12.1440	56.174725	0.000233	2.331296	0.789865	-0.000093
 701	6.9650e+01	12.0991	56.065723	0.000274	2.736739	0.927232	-0.000110
 702	6.9749e+01	12.0735	55.980943	0.000213	2.128575	0.721181	-0.000085
 703	6.9849e+01	12.0205	55.839643	0.000355	3.547625	1.201968	-0.000142
 704	6.9948e+01	11.9788	55.766975	0.000182	1.824493	0.618155	-0.000073
 705	7.0048e+01	11.9371	55.702380	0.000162	1.621771	0.549471	-0.000065
 706	7.0147e+01	11.9114	55.585303	0.000294	2.939461	0.995916	-0.000118
 707	7.0247e+01	11.8713	55.516672	0.000172	1.723132	0.583813	-0.000069
 708	7.0347e+01	11.8152	55.427855	0.000223	2.229936	0.755523	-0.000089
 709	7.0446e+01	11.7927	55.314815	0.000284	2.838100	0.961574	-0.000114
 710	7.0546e+01	11.7414	55.209850	0.000264	2.635379	0.892890	-0.000105
 711	7.0645e+01	11.7141	55.161404	0.000122	1.216329	0.412103	-0.000049
 712	7.0745e+01	11.6644	55.096810	0.000162	1.621771	0.549471	-0.000065
 713	7.0844e+01	11.6291	54.971659	0.000314	3.142182	1.064600	-0.000126
 714	7.0944e+01	11.5810	54.915139	0.000142	1.419050	0.480787	-0.000057
 715	7.1043e+01	11.5425	54.818248	0.000243	2.432657	0.824207	-0.000097
 716	7.1142e+01	11.5088	54.753653	0.000162	1.621771	0.549471	-0.000065
 717	7.1242e+01	11.4671	54.680985	0.000182	1.824493	0.618155	-0.000073
 718	7.1341e+01	11.4221	54.576019	0.000264	2.635379	0.892890	-0.000105
 719	7.1441e+01	11.3772	54.479128	0.000243	2.432657	0.824207	-0.000097
 720	7.1540e+01	11.3451	54.374163	0.000264	2.635379	0.892890	-0.000105
 721	7.1640e+01	11.3098	54.253049	0.000304	3.040821	1.030258	-0.000122
 722	7.1740e+01	11.2569	54.111749	0.000355	3.547625	1.201968	-0.000142
 723	7.1839e+01	11.2232	54.010820	0.000253	2.534018	0.858548	-0.000101
 724	7.1939e+01	11.1879	53.885669	0.000314	3.142182	1.064600	-0.000126
 725	7.2038e+01	11.1462	53.792815	0.000233	2.331296	0.789865	-0.000093
 726	7.2138e+01	11.1061	53.679775	0.000284	2.838100	0.961574	-0.000114
 727	7.2237e+01	11.0596	53.615181	0.000162	1.621771	0.549471	-0.000065
 728	7.2337e+01	11.0323	53.546550	0.000172	1.723132	0.583813	-0.000069
 729	7.2436e+01	10.9858	53.425436	0.000304	3.040821	1.030258	-0.000122
 730	7.2535e+01	10.9489	53.300285	0.000314	3.142182	1.064600	-0.000126
 731	7.2635e+01	10.9088	53.110539	0.000476	4.763954	1.614071	-0.000191
 732	7.2734e+01	10.8671	52.803717	0.000770	7.703414	2.609987	-0.000308
 733	7.2834e+01	10.8254	52.533229	0.000679	6.791168	2.300910	-0.000272
 734	7.2933e+01	10.7885	52.307149	0.000568	5.676200	1.923149	-0.000227
 735	7.3033e+01	10.7484	52.121441	0.000466	4.662593	1.579729	-0.000187
 736	7.3132e+01	10.7083	51.867101	0.000639	6.385725	2.163542	-0.000256
 737	7.3232e+01	10.6665	51.717727	0.000375	3.750346	1.270652	-0.000150
 738	7.3332e+01	10.6264	51.523945	0.000487	4.865314	1.648413	-0.000195
 739	7.3431e+01	10.5863	51.398794	0.000314	3.142182	1.064600	-0.000126
 740	7.3531e+01	10.5478	51.257494	0.000355	3.547625	1.201968	-0.000142
 741	7.3630e+01	10.5093	51.184825	0.000182	1.824493	0.618155	-0.000073
 742	7.3730e+01	10.4724	51.063711	0.000304	3.040821	1.030258	-0.000122
 743	7.3829e+01	10.4355	50.978932	0.000213	2.128575	0.721181	-0.000085
 744	7.3928e+01	10.3970	50.926449	0.000132	1.317689	0.446445	-0.000053
 745	7.4028e+01	10.3441	50.817446	0.000274	2.736739	0.927232	-0.000110
 746	7.4127e+01	10.3072	50.704406	0.000284	2.838100	0.961574	-0.000114
 747	7.4227e+01	10.2687	50.635775	0.000172	1.723132	0.583813	-0.000069
 748	7.4326e+01	10.2286	50.526772	0.000274	2.736739	0.927232	-0.000110
 749	7.4426e+01	10.1917	50.450067	0.000193	1.925854	0.652497	-0.000077
 750	7.4525e+01	10.1420	50.405658	0.000111	1.114968	0.377761	-0.000045
 751	7.4625e+01	10.1131	50.300693	0.000264	2.635379	0.892890	-0.000105
 752	7.4725e+01	10.0666	50.159393	0.000355	3.547625	1.201968	-0.000142
 753	7.4824e+01	10.0377	50.046353	0.000284	2.838100	0.961574	-0.000114
 754	7.4924e+01	9.9912	49.953499	0.000233	2.331296	0.789865	-0.000093
 755	7.5023e+01	9.9478	49.796051	0.000395	3.953068	1.339336	-0.000158
 756	7.5123e+01	9.9077	49.646677	0.000375	3.750346	1.270652	-0.000150
 757	7.5222e+01	9.8789	49.481154	0.000416	4.155789	1.408020	-0.000166
 758	7.5322e+01	9.8275	49.368114	0.000284	2.838100	0.961574	-0.000114
 759	7.5421e+01	9.7906	49.234889	0.000334	3.344904	1.133284	-0.000134
 760	7.5520e+01	9.7505	49.105701	0.000324	3.243543	1.098942	-0.000130
 761	7.5620e+01	9.7233	48.992661	0.000284	2.838100	0.961574	-0.000114
 762	7.5719e+01	9.6815	48.835212	0.000395	3.953068	1.339336	-0.000158
 763	7.5819e+01	9.6302	48.754470	0.000203	2.027214	0.686839	-0.000081
 764	7.5918e+01	9.5949	48.677764	0.000193	1.925854	0.652497	-0.000077
 765	7.6018e+01	9.5548	48.520316	0.000395	3.953068	1.339336	-0.000158
 766	7.6118e+01	9.5067	48.403239	0.000294	2.939461	0.995916	-0.000118
 767	7.6217e+01	9.4762	48.274051	0.000324	3.243543	1.098942	-0.000130
 768	7.6317e+01	9.4345	48.156974	0.000294	2.939461	0.995916	-0.000118
 769	7.6416e+01	9.3896	48.003562	0.000385	3.851707	1.304994	-0.000154
 770	7.6516e+01	9.3575	47.894560	0.000274	2.736739	0.927232	-0.000110
 771	7.6615e+01	9.3094	47.801706	0.000233	2.331296	0.789865	-0.000093
 772	7.6715e+01	9.2773	47.644257	0.000395	3.953068	1.339336	-0.000158
 773	7.6814e+01	9.2356	47.555440	0.000223	2.229936	0.755523	-0.000089
 774	7.6913e+01	9.1971	47.406066	0.000375	3.750346	1.270652	-0.000150
 775	7.7013e+01	9.1602	47.305138	0.000253	2.534018	0.858548	-0.000101
 776	7.7112e+01	9.1265	47.143653	0.000405	4.054429	1.373678	-0.000162
 777	7.7212e+01	9.0800	46.986204	0.000395	3.953068	1.339336	-0.000158
 778	7.7311e+01	9.0334	46.857016	0.000324	3.243543	1.098942	-0.000130
 779	7.7411e+01	8.9965	46.748013	0.000274	2.736739	0.927232	-0.000110
 780	7.7510e+01	8.9500	46.614788	0.000334	3.344904	1.133284	-0.000134
 781	7.7610e+01	8.9115	46.412931	0.000507	5.068036	1.717097	-0.000203
 782	7.7710e+01	8.8826	46.392745	0.000051	0.506804	0.171710	-0.000020
 783	7.7809e+01	8.8361	46.203000	0.000476	4.763954	1.614071	-0.000191
 784	7.7909e+01	8.8008	46.081886	0.000304	3.040821	1.030258	-0.000122
 785	7.8008e+01	8.7559	45.989032	0.000233	2.331296	0.789865	-0.000093
 786	7.8108e+01	8.7222	45.871955	0.000294	2.939461	0.995916	-0.000118
 787	7.8207e+01	8.6821	45.694321	0.000446	4.459871	1.511045	-0.000179
 788	7.8306e+01	8.6308	45.512650	0.000456	4.561232	1.545387	-0.000183
 789	7.8406e+01	8.6115	45.326941	0.000466	4.662593	1.579729	-0.000187
 790	7.8505e+01	8.5586	45.104899	0.000557	5.574839	1.888807	-0.000223
 791	7.8605e+01	8.5169	44.991859	0.000284	2.838100	0.961574	-0.000114
 792	7.8704e+01	8.4768	44.806151	0.000466	4.662593	1.579729	-0.000187
 793	7.8804e+01	8.4270	44.640628	0.000416	4.155789	1.408020	-0.000166
 794	7.8903e+01	8.4014	44.487217	0.000385	3.851707	1.304994	-0.000154
 795	7.9003e+01	8.3548	44.305546	0.000456	4.561232	1.545387	-0.000183
 796	7.9103e+01	8.3196	44.168284	0.000345	3.446264	1.167626	-0.000138
 797	7.9202e+01	8.2746	44.043132	0.000314	3.142182	1.064600	-0.000126
 798	7.9302e+01	8.2345	43.901833	0.000355	3.547625	1.201968	-0.000142
 799	7.9401e+01	8.1944	43.756496	0.000365	3.648986	1.236310	-0.000146
 800	7.9501e+01	8.1607	43.639419	0.000294	2.939461	0.995916	-0.000118
 801	7.9600e+01	8.1222	43.486008	0.000385	3.851707	1.304994	-0.000154
 802	7.9700e+01	8.0805	43.360856	0.000314	3.142182	1.064600	-0.000126
 803	7.9799e+01	8.0468	43.227631	0.000334	3.344904	1.133284	-0.000134
 804	7.9898e+01	7.9971	43.110554	0.000294	2.939461	0.995916	-0.000118
 805	7.9998e+01	7.9586	42.969254	0.000355	3.547625	1.201968	-0.000142
 806	8.0097e+01	7.9121	42.880437	0.000223	2.229936	0.755523	-0.000089
 807	8.0197e+01	7.8768	42.706840	0.000436	4.358511	1.476703	-0.000174
 808	8.0296e+01	7.8415	42.573615	0.000334	3.344904	1.133284	-0.000134
 809	8.0396e+01	7.8094	42.460575	0.000284	2.838100	0.961574	-0.000114
 810	8.0496e+01	7.7565	42.327350	0.000334	3.344904	1.133284	-0.000134
 811	8.0595e+01	7.7244	42.210273	0.000294	2.939461	0.995916	-0.000118
 812	8.0695e+01	7.6875	42.077047	0.000334	3.344904	1.133284	-0.000134
 813	8.0794e+01	7.6394	41.972082	0.000264	2.635379	0.892890	-0.000105
 814	8.0894e+01	7.6073	41.855005	0.000294	2.939461	0.995916	-0.000118
 815	8.0993e+01	7.5591	41.741965	0.000284	2.838100	0.961574	-0.000114
 816	8.1093e+01	7.5190	41.612777	0.000324	3.243543	1.098942	-0.000130
 817	8.1192e+01	7.4805	41.471477	0.000355	3.547625	1.201968	-0.000142
 818	8.1291e+01	7.4388	41.354400	0.000294	2.939461	0.995916	-0.000118
 819	8.1391e+01	7.4051	41.128320	0.000568	5.676200	1.923149	-0.000227
 820	8.1490e+01	7.3698	41.019318	0.000274	2.736739	0.927232	-0.000110
 821	8.1590e+01	7.3185	40.837647	0.000456	4.561232	1.545387	-0.000183
 822	8.1689e+01	7.2896	40.631753	0.000517	5.169396	1.751439	-0.000207
 823	8.1789e+01	7.2479	40.498527	0.000334	3.344904	1.133284	-0.000134
 824	8.1888e+01	7.2094	40.308782	0.000476	4.763954	1.614071	-0.000191
 825	8.1988e+01	7.1629	40.147296	0.000405	4.054429	1.373678	-0.000162
 826	8.2088e+01	7.1164	40.010034	0.000345	3.446264	1.167626	-0.000138
 827	8.2187e+01	7.0747	39.876808	0.000334	3.344904	1.133284	-0.000134
 828	8.2287e+01	7.0426	39.723397	0.000385	3.851707	1.304994	-0.000154
 829	8.2386e+01	6.9977	39.626506	0.000243	2.432657	0.824207	-0.000097
 830	8.2486e+01	6.9624	39.561912	0.000162	1.621771	0.549471	-0.000065
 831	8.2585e+01	6.9255	39.432723	0.000324	3.243543	1.098942	-0.000130
 832	8.2684e+01	6.8790	39.351981	0.000203	2.027214	0.686839	-0.000081
 833	8.2784e+01	6.8324	39.242978	0.000274	2.736739	0.927232	-0.000110
 834	8.2883e+01	6.8100	39.069381	0.000436	4.358511	1.476703	-0.000174
 835	8.2983e+01	6.7586	38.932118	0.000345	3.446264	1.167626	-0.000138
 836	8.3082e+01	6.7217	38.774670	0.000395	3.953068	1.339336	-0.000158
 837	8.3182e+01	6.6816	38.718150	0.000142	1.419050	0.480787	-0.000057
 838	8.3281e+01	6.6447	38.528405	0.000476	4.763954	1.614071	-0.000191
 839	8.3381e+01	6.6094	38.435551	0.000233	2.331296	0.789865	-0.000093
 840	8.3481e+01	6.5677	38.298288	0.000345	3.446264	1.167626	-0.000138
 841	8.3580e+01	6.5260	38.205434	0.000233	2.331296	0.789865	-0.000093
 842	8.3680e+01	6.4795	38.064134	0.000355	3.547625	1.201968	-0.000142
 843	8.3779e+01	6.4410	37.850166	0.000537	5.372118	1.820123	-0.000215
 844	8.3879e+01	6.4041	37.737126	0.000284	2.838100	0.961574	-0.000114
 845	8.3978e+01	6.3688	37.632161	0.000264	2.635379	0.892890	-0.000105
 846	8.4078e+01	6.3191	37.458564	0.000436	4.358511	1.476703	-0.000174
 847	8.4177e+01	6.2854	37.341487	0.000294	2.939461	0.995916	-0.000118
 848	8.4276e+01	6.2549	37.163853	0.000446	4.459871	1.511045	-0.000179
 849	8.4376e+01	6.2036	37.014479	0.000375	3.750346	1.270652	-0.000150
 850	8.4475e+01	6.1651	36.881254	0.000334	3.344904	1.133284	-0.000134
 851	8.4575e+01	6.1218	36.768214	0.000284	2.838100	0.961574	-0.000114
 852	8.4674e+01	6.0913	36.622877	0.000365	3.648986	1.236310	-0.000146
 853	8.4774e+01	6.0480	36.477540	0.000365	3.648986	1.236310	-0.000146
 854	8.4874e+01	6.0030	36.352389	0.000314	3.142182	1.064600	-0.000126
 855	8.4973e+01	5.9677	36.162643	0.000476	4.763954	1.614071	-0.000191
 856	8.5073e+01	5.9244	36.041529	0.000304	3.040821	1.030258	-0.000122
 857	8.5172e+01	5.8891	35.900230	0.000355	3.547625	1.201968	-0.000142
 858	8.5272e+01	5.8522	35.730670	0.000426	4.257150	1.442361	-0.000170
 859	8.5371e+01	5.7993	35.585333	0.000365	3.648986	1.236310	-0.000146
 860	8.5471e+01	5.7704	35.419810	0.000416	4.155789	1.408020	-0.000166
 861	8.5570e+01	5.7303	35.230065	0.000476	4.763954	1.614071	-0.000191
 862	8.5669e+01	5.6806	35.072617	0.000395	3.953068	1.339336	-0.000158
 863	8.5769e+01	5.6437	34.907094	0.000416	4.155789	1.408020	-0.000166
 864	8.5868e+01	5.6132	34.749646	0.000395	3.953068	1.339336	-0.000158
 865	8.5968e+01	5.5587	34.584123	0.000416	4.155789	1.408020	-0.000166
 866	8.6067e+01	5.5298	34.438786	0.000365	3.648986	1.236310	-0.000146
 867	8.6167e+01	5.4849	34.305561	0.000334	3.344904	1.133284	-0.000134
 868	8.6266e+01	5.4512	34.136001	0.000426	4.257150	1.442361	-0.000170
 869	8.6366e+01	5.4063	33.978553	0.000395	3.953068	1.339336	-0.000158
 870	8.6466e+01	5.3694	33.853402	0.000314	3.142182	1.064600	-0.000126
 871	8.6565e+01	5.3389	33.683842	0.000426	4.257150	1.442361	-0.000170
 872	8.6665e+01	5.2924	33.526394	0.000395	3.953068	1.339336	-0.000158
 873	8.6764e+01	5.2474	33.372983	0.000385	3.851707	1.304994	-0.000154
 874	8.6864e+01	5.2138	33.167089	0.000517	5.169396	1.751439	-0.000207
 875	8.6963e+01	5.1624	33.062123	0.000264	2.635379	0.892890	-0.000105
 876	8.7063e+01	5.1303	32.908712	0.000385	3.851707	1.304994	-0.000154
 877	8.7162e+01	5.0870	32.690707	0.000547	5.473479	1.854465	-0.000219
 878	8.7261e+01	5.0549	32.557481	0.000334	3.344904	1.133284	-0.000134
 879	8.7361e+01	5.0100	32.440404	0.000294	2.939461	0.995916	-0.000118
 880	8.7460e+01	4.9731	32.262770	0.000446	4.459871	1.511045	-0.000179
 881	8.7560e+01	4.9266	32.097248	0.000416	4.155789	1.408020	-0.000166
 882	8.7659e+01	4.8897	31.911539	0.000466	4.662593	1.579729	-0.000187
 883	8.7759e+01	4.8560	31.774277	0.000345	3.446264	1.167626	-0.000138
 884	8.7859e+01	4.8191	31.653163	0.000304	3.040821	1.030258	-0.000122
 885	8.7958e+01	4.7710	31.475529	0.000446	4.459871	1.511045	-0.000179
 886	8.8058e+01	4.7325	31.358452	0.000294	2.939461	0.995916	-0.000118
 887	8.8157e+01	4.6940	31.176781	0.000456	4.561232	1.545387	-0.000183
 888	8.8257e+01	4.6491	31.031444	0.000365	3.648986	1.236310	-0.000146
 889	8.8356e+01	4.6090	30.890144	0.000355	3.547625	1.201968	-0.000142
 890	8.8456e+01	4.5640	30.720584	0.000426	4.257150	1.442361	-0.000170
 891	8.8555e+01	4.5336	30.559099	0.000405	4.054429	1.373678	-0.000162
 892	8.8654e+01	4.5047	30.385502	0.000436	4.358511	1.476703	-0.000174
 893	8.8754e+01	4.4566	30.219980	0.000416	4.155789	1.408020	-0.000166
 894	8.8853e+01	4.4132	30.066568	0.000385	3.851707	1.304994	-0.000154
 895	8.8953e+01	4.3828	29.876823	0.000476	4.763954	1.614071	-0.000191
 896	8.9052e+01	4.3330	29.751672	0.000314	3.142182	1.064600	-0.000126
 897	8.9152e+01	4.2913	29.618446	0.000334	3.344904	1.133284	-0.000134
 898	8.9251e+01	4.2576	29.448887	0.000426	4.257150	1.442361	-0.000170
 899	8.9351e+01	4.2191	29.287401	0.000405	4.054429	1.373678	-0.000162
 900	8.9451e+01	4.1662	29.154176	0.000334	3.344904	1.133284	-0.000134
 901	8.9550e+01	4.1325	29.020950	0.000334	3.344904	1.133284	-0.000134
 902	8.9650e+01	4.0956	28.891762	0.000324	3.243543	1.098942	-0.000130
 903	8.9749e+01	4.0619	28.706054	0.000466	4.662593	1.579729	-0.000187
 904	8.9849e+01	4.0154	28.568791	0.000345	3.446264	1.167626	-0.000138
 905	8.9948e+01	3.9785	28.375009	0.000487	4.865314	1.648413	-0.000195
 906	9.0047e+01	3.9320	28.249857	0.000314	3.142182	1.064600	-0.000126
 907	9.0147e+01	3.8983	28.072223	0.000446	4.459871	1.511045	-0.000179
 908	9.0246e+01	3.8518	27.938998	0.000334	3.344904	1.133284	-0.000134
 909	9.0346e+01	3.8133	27.785587	0.000385	3.851707	1.304994	-0.000154
 910	9.0445e+01	3.7780	27.571619	0.000537	5.372118	1.820123	-0.000215
 911	9.0545e+01	3.7427	27.422245	0.000375	3.750346	1.270652	-0.000150
 912	9.0644e+01	3.6913	27.236536	0.000466	4.662593	1.579729	-0.000187
 913	9.0744e+01	3.6544	27.054865	0.000456	4.561232	1.545387	-0.000183
 914	9.0844e+01	3.6111	26.853008	0.000507	5.068036	1.717097	-0.000203
 915	9.0943e+01	3.5694	26.703634	0.000375	3.750346	1.270652	-0.000150
 916	9.1043e+01	3.5277	26.501778	0.000507	5.068036	1.717097	-0.000203
 917	9.1142e+01	3.4924	26.332218	0.000426	4.257150	1.442361	-0.000170
 918	9.1242e+01	3.4603	26.243401	0.000223	2.229936	0.755523	-0.000089
 919	9.1341e+01	3.4058	26.073841	0.000426	4.257150	1.442361	-0.000170
 920	9.1441e+01	3.3753	25.928504	0.000365	3.648986	1.236310	-0.000146
 921	9.1540e+01	3.3320	25.726647	0.000507	5.068036	1.717097	-0.000203
 922	9.1639e+01	3.2999	25.601496	0.000314	3.142182	1.064600	-0.000126
 923	9.1739e+01	3.2566	25.444048	0.000395	3.953068	1.339336	-0.000158
 924	9.1838e+01	3.2101	25.298711	0.000365	3.648986	1.236310	-0.000146
 925	9.1938e+01	3.1716	25.096854	0.000507	5.068036	1.717097	-0.000203
 926	9.2037e+01	3.1283	24.943443	0.000385	3.851707	1.304994	-0.000154
 927	9.2137e+01	3.1042	24.769846	0.000436	4.358511	1.476703	-0.000174
 928	9.2237e+01	3.0609	24.584138	0.000466	4.662593	1.579729	-0.000187
 929	9.2336e+01	3.0176	24.426690	0.000395	3.953068	1.339336	-0.000158
 930	9.2436e+01	2.9807	24.277316	0.000375	3.750346	1.270652	-0.000150
 931	9.2535e+01	2.9406	24.123905	0.000385	3.851707	1.304994	-0.000154
 932	9.2635e+01	2.9053	23.970493	0.000385	3.851707	1.304994	-0.000154
 933	9.2734e+01	2.8603	23.809008	0.000405	4.054429	1.373678	-0.000162
 934	9.2834e+01	2.8202	23.651560	0.000395	3.953068	1.339336	-0.000158
 935	9.2933e+01	2.7769	23.526409	0.000314	3.142182	1.064600	-0.000126
 936	9.3032e+01	2.7288	23.385109	0.000355	3.547625	1.201968	-0.000142
 937	9.3132e+01	2.7063	23.227660	0.000395	3.953068	1.339336	-0.000158
 938	9.3231e+01	2.6614	23.082324	0.000365	3.648986	1.236310	-0.000146
 939	9.3331e+01	2.6181	22.997544	0.000213	2.128575	0.721181	-0.000085
 940	9.3430e+01	2.5860	22.836058	0.000405	4.054429	1.373678	-0.000162
 941	9.3530e+01	2.5331	22.698796	0.000345	3.446264	1.167626	-0.000138
 942	9.3629e+01	2.5010	22.533273	0.000416	4.155789	1.408020	-0.000166
 943	9.3729e+01	2.4609	22.327379	0.000517	5.169396	1.751439	-0.000207
 944	9.3829e+01	2.4192	22.137634	0.000476	4.763954	1.614071	-0.000191
 945	9.3928e+01	2.3759	21.976148	0.000405	4.054429	1.373678	-0.000162
 946	9.4028e+01	2.3326	21.794477	0.000456	4.561232	1.545387	-0.000183
 947	9.4127e+01	2.3053	21.669326	0.000314	3.142182	1.064600	-0.000126
 948	9.4227e+01	2.2556	21.467469	0.000507	5.068036	1.717097	-0.000203
 949	9.4326e+01	2.2187	21.273687	0.000487	4.865314	1.648413	-0.000195
 950	9.4425e+01	2.1753	21.092016	0.000456	4.561232	1.545387	-0.000183
 951	9.4525e+01	2.1384	20.902270	0.000476	4.763954	1.614071	-0.000191
 952	9.4624e+01	2.1015	20.700413	0.000507	5.068036	1.717097	-0.000203
 953	9.4724e+01	2.0566	20.542965	0.000395	3.953068	1.339336	-0.000158
 954	9.4823e+01	2.0197	20.333034	0.000527	5.270757	1.785781	-0.000211
 955	9.4923e+01	1.9812	20.147326	0.000466	4.662593	1.579729	-0.000187
 956	9.5022e+01	1.9459	19.961618	0.000466	4.662593	1.579729	-0.000187
 957	9.5122e+01	1.9026	19.783984	0.000446	4.459871	1.511045	-0.000179
 958	9.5222e+01	1.8673	19.606350	0.000446	4.459871	1.511045	-0.000179
 959	9.5321e+01	1.8240	19.356047	0.000628	6.284364	2.129200	-0.000252
 960	9.5421e+01	1.7695	19.230896	0.000314	3.142182	1.064600	-0.000126
 961	9.5520e+01	1.7422	19.012891	0.000547	5.473479	1.854465	-0.000219
 962	9.5620e+01	1.7069	18.774700	0.000598	5.980282	2.026174	-0.000239
 963	9.5719e+01	1.6652	18.536509	0.000598	5.980282	2.026174	-0.000239
 964	9.5819e+01	1.6123	18.318503	0.000547	5.473479	1.854465	-0.000219
 965	9.5918e+01	1.5818	18.120684	0.000497	4.966675	1.682755	-0.000199
 966	9.6017e+01	1.5465	17.918827	0.000507	5.068036	1.717097	-0.000203
 967	9.6117e+01	1.5032	17.708896	0.000527	5.270757	1.785781	-0.000211
 968	9.6216e+01	1.4663	17.527225	0.000456	4.561232	1.545387	-0.000183
 969	9.6316e+01	1.4165	17.349591	0.000446	4.459871	1.511045	-0.000179
 970	9.6415e+01	1.3877	17.111400	0.000598	5.980282	2.026174	-0.000239
 971	9.6515e+01	1.3395	16.921654	0.000476	4.763954	1.614071	-0.000191
 972	9.6615e+01	1.3091	16.760169	0.000405	4.054429	1.373678	-0.000162
 973	9.6714e+01	1.2706	16.626944	0.000334	3.344904	1.133284	-0.000134
 974	9.6814e+01	1.2208	16.441235	0.000466	4.662593	1.579729	-0.000187
 975	9.6913e+01	1.1807	16.251490	0.000476	4.763954	1.614071	-0.000191
 976	9.7013e+01	1.1567	16.081930	0.000426	4.257150	1.442361	-0.000170
 977	9.7112e+01	1.1069	15.884111	0.000497	4.966675	1.682755	-0.000199
 978	9.7212e+01	1.0668	15.746848	0.000345	3.446264	1.167626	-0.000138
 979	9.7311e+01	1.0251	15.520768	0.000568	5.676200	1.923149	-0.000227
 980	9.7410e+01	0.9802	15.335060	0.000466	4.662593	1.579729	-0.000187
 981	9.7510e+01	0.9449	15.189723	0.000365	3.648986	1.236310	-0.000146
 982	9.7609e+01	0.9016	15.016126	0.000436	4.358511	1.476703	-0.000174
 983	9.7709e+01	0.8711	14.786010	0.000578	5.777561	1.957491	-0.000231
 984	9.7808e+01	0.8166	14.600301	0.000466	4.662593	1.579729	-0.000187
 985	9.7908e+01	0.7781	14.402482	0.000497	4.966675	1.682755	-0.000199
 986	9.8007e+01	0.7476	14.228885	0.000436	4.358511	1.476703	-0.000174
 987	9.8107e+01	0.6994	14.071437	0.000395	3.953068	1.339336	-0.000158
 988	9.8207e+01	0.6658	13.853431	0.000547	5.473479	1.854465	-0.000219
 989	9.8306e+01	0.6224	13.631389	0.000557	5.574839	1.888807	-0.000223
 990	9.8406e+01	0.5904	13.465866	0.000416	4.155789	1.408020	-0.000166
 991	9.8505e+01	0.5503	13.312455	0.000385	3.851707	1.304994	-0.000154
 992	9.8605e+01	0.5166	13.142895	0.000426	4.257150	1.442361	-0.000170
 993	9.8704e+01	0.4765	12.945076	0.000497	4.966675	1.682755	-0.000199
 994	9.8803e+01	0.4251	12.779553	0.000416	4.155789	1.408020	-0.000166
 995	9.8903e+01	0.3866	12.549436	0.000578	5.777561	1.957491	-0.000231
 996	9.9002e+01	0.3449	12.408137	0.000355	3.547625	1.201968	-0.000142
 997	9.9102e+01	0.3144	12.190131	0.000547	5.473479	1.854465	-0.000219
 998	9.9201e+01	0.2615	12.020572	0.000426	4.257150	1.442361	-0.000170
 999	9.9301e+01	0.2262	11.814678	0.000517	5.169396	1.751439	-0.000207
1000	9.9400e+01	0.1893	11.689527	0.000314	3.142182	1.064600	-0.000126
1001	9.9500e+01	0.1492	11.475558	0.000537	5.372118	1.820123	-0.000215
1002	9.9600e+01	0.1059	11.310036	0.000416	4.155789	1.408020	-0.000166
1003	9.9699e+01	0.0658	11.152587	0.000395	3.953068	1.339336	-0.000158
1004	9.9799e+01	0.0337	10.970916	0.000456	4.561232	1.545387	-0.000183
1005	9.9898e+01	0.0016	10.841728	0.000324	3.243543	1.098942	-0.000130
1006	9.9998e+01	-0.0385	10.668131	0.000436	4.358511	1.476703	-0.000174
1007	1.0010e+02	-0.0818	10.446089	0.000557	5.574839	1.888807	-0.000223
1008	1.0020e+02	-0.1299	10.252306	0.000487	4.865314	1.648413	-0.000195
1009	1.0030e+02	-0.1684	10.086784	0.000416	4.155789	1.408020	-0.000166
1010	1.0040e+02	-0.2037	9.913187	0.000436	4.358511	1.476703	-0.000174
1011	1.0050e+02	-0.2374	9.703256	0.000527	5.270757	1.785781	-0.000211
1012	1.0059e+02	-0.2839	9.537733	0.000416	4.155789	1.408020	-0.000166
1013	1.0069e+02	-0.3273	9.275319	0.000659	6.588446	2.232226	-0.000264
1014	1.0079e+02	-0.3610	9.121908	0.000385	3.851707	1.304994	-0.000154
1015	1.0089e+02	-0.4059	8.879680	0.000608	6.081643	2.060516	-0.000243
1016	1.0099e+02	-0.4428	8.702046	0.000446	4.459871	1.511045	-0.000179
1017	1.0109e+02	-0.4893	8.488078	0.000537	5.372118	1.820123	-0.000215
1018	1.0119e+02	-0.5198	8.286221	0.000507	5.068036	1.717097	-0.000203
1019	1.0129e+02	-0.5615	8.068216	0.000547	5.473479	1.854465	-0.000219
1020	1.0139e+02	-0.6128	7.870396	0.000497	4.966675	1.682755	-0.000199
1021	1.0149e+02	-0.6385	7.668539	0.000507	5.068036	1.717097	-0.000203
1022	1.0159e+02	-0.6738	7.462645	0.000517	5.169396	1.751439	-0.000207
1023	1.0169e+02	-0.7155	7.248677	0.000537	5.372118	1.820123	-0.000215
1024	1.0179e+02	-0.7572	7.018560	0.000578	5.777561	1.957491	-0.000231
1025	1.0189e+02	-0.8021	6.723850	0.000740	7.399332	2.506962	-0.000296
1026	1.0199e+02	-0.8390	6.437213	0.000720	7.196611	2.438278	-0.000288
1027	1.0209e+02	-0.8775	6.194985	0.000608	6.081643	2.060516	-0.000243
1028	1.0219e+02	-0.9176	6.001202	0.000487	4.865314	1.648413	-0.000195
1029	1.0229e+02	-0.9577	5.795308	0.000517	5.169396	1.751439	-0.000207
1030	1.0239e+02	-1.0010	5.585377	0.000527	5.270757	1.785781	-0.000211
1031	1.0248e+02	-1.0460	5.427929	0.000395	3.953068	1.339336	-0.000158
1032	1.0258e+02	-1.0845	5.193775	0.000588	5.878921	1.991833	-0.000235
1033	1.0268e+02	-1.1149	4.999993	0.000487	4.865314	1.648413	-0.000195
1034	1.0278e+02	-1.1599	4.790062	0.000527	5.270757	1.785781	-0.000211
1035	1.0288e+02	-1.2000	4.563982	0.000568	5.676200	1.923149	-0.000227
1036	1.0298e+02	-1.2497	4.366162	0.000497	4.966675	1.682755	-0.000199
1037	1.0308e+02	-1.2786	4.249085	0.000294	2.939461	0.995916	-0.000118
1038	1.0318e+02	-1.3123	4.031080	0.000547	5.473479	1.854465	-0.000219
1039	1.0328e+02	-1.3684	3.909966	0.000304	3.040821	1.030258	-0.000122
1040	1.0338e+02	-1.4037	3.748481	0.000405	4.054429	1.373678	-0.000162
1041	1.0348e+02	-1.4390	3.599107	0.000375	3.750346	1.270652	-0.000150
1042	1.0358e+02	-1.4759	3.425510	0.000436	4.358511	1.476703	-0.000174
1043	1.0368e+02	-1.5128	3.074279	0.000882	8.818382	2.987749	-0.000353
1044	1.0378e+02	-1.5641	2.723048	0.000882	8.818382	2.987749	-0.000353
1045	1.0388e+02	-1.5882	2.392003	0.000831	8.311579	2.816039	-0.000333
1046	1.0398e+02	-1.6315	2.137663	0.000639	6.385725	2.163542	-0.000256
1047	1.0408e+02	-1.6748	1.895435	0.000608	6.081643	2.060516	-0.000243
1048	1.0418e+02	-1.7181	1.673393	0.000557	5.574839	1.888807	-0.000223
1049	1.0428e+02	-1.7631	1.443276	0.000578	5.777561	1.957491	-0.000231
1050	1.0438e+02	-1.7951	1.221234	0.000557	5.574839	1.888807	-0.000223
1051	1.0447e+02	-1.8368	0.995154	0.000568	5.676200	1.923149	-0.000227
1052	1.0457e+02	-1.8753	0.765037	0.000578	5.777561	1.957491	-0.000231
1053	1.0467e+02	-1.9219	0.530883	0.000588	5.878921	1.991833	-0.000235
1054	1.0477e+02	-1.9604	0.373435	0.000395	3.953068	1.339336	-0.000158
1055	1.0487e+02	-2.0005	0.151393	0.000557	5.574839	1.888807	-0.000223
1056	1.0497e+02	-2.0374	-0.034316	0.000466	4.662593	1.579729	-0.000187
1057	1.0507e+02	-2.0791	-0.264432	0.000578	5.777561	1.957491	-0.000231
1058	1.0517e+02	-2.1128	-0.490512	0.000568	5.676200	1.923149	-0.000227
1059	1.0527e+02	-2.1577	-0.672183	0.000456	4.561232	1.545387	-0.000183
1060	1.0537e+02	-2.2026	-0.793297	0.000304	3.040821	1.030258	-0.000122
1061	1.0547e+02	-2.2283	-0.930560	0.000345	3.446264	1.167626	-0.000138
1062	1.0557e+02	-2.2780	-1.124342	0.000487	4.865314	1.648413	-0.000195
1063	1.0567e+02	-2.3245	-1.314088	0.000476	4.763954	1.614071	-0.000191
1064	1.0577e+02	-2.3614	-1.423090	0.000274	2.736739	0.927232	-0.000110
1065	1.0587e+02	-2.4112	-1.596687	0.000436	4.358511	1.476703	-0.000174
1066	1.0597e+02	-2.4465	-1.818730	0.000557	5.574839	1.888807	-0.000223
1067	1.0607e+02	-2.4769	-1.988289	0.000426	4.257150	1.442361	-0.000170
1068	1.0617e+02	-2.5170	-2.169960	0.000456	4.561232	1.545387	-0.000183
1069	1.0627e+02	-2.5491	-2.339520	0.000426	4.257150	1.442361	-0.000170
1070	1.0637e+02	-2.5989	-2.553488	0.000537	5.372118	1.820123	-0.000215
1071	1.0647e+02	-2.6358	-2.735159	0.000456	4.561232	1.545387	-0.000183
1072	1.0656e+02	-2.6759	-2.965276	0.000578	5.777561	1.957491	-0.000231
1073	1.0666e+02	-2.7192	-3.183282	0.000547	5.473479	1.854465	-0.000219
1074	1.0676e+02	-2.7593	-3.364953	0.000456	4.561232	1.545387	-0.000183
1075	1.0686e+02	-2.7914	-3.643515	0.000699	6.993889	2.369594	-0.000280
1076	1.0696e+02	-2.8267	-3.837298	0.000487	4.865314	1.648413	-0.000195
1077	1.0706e+02	-2.8748	-4.047229	0.000527	5.270757	1.785781	-0.000211
1078	1.0716e+02	-2.9165	-4.232937	0.000466	4.662593	1.579729	-0.000187
1079	1.0726e+02	-2.9566	-4.414608	0.000456	4.561232	1.545387	-0.000183
1080	1.0736e+02	-2.9919	-4.616465	0.000507	5.068036	1.717097	-0.000203
1081	1.0746e+02	-3.0368	-4.786024	0.000426	4.257150	1.442361	-0.000170
1082	1.0756e+02	-3.0769	-4.999993	0.000537	5.372118	1.820123	-0.000215
1083	1.0766e+02	-3.1186	-5.197812	0.000497	4.966675	1.682755	-0.000199
1084	1.0776e+02	-3.1539	-5.436003	0.000598	5.980282	2.026174	-0.000239
1085	1.0786e+02	-3.1956	-5.629786	0.000487	4.865314	1.648413	-0.000195
1086	1.0796e+02	-3.2293	-5.839717	0.000527	5.270757	1.785781	-0.000211
1087	1.0806e+02	-3.2694	-6.090019	0.000628	6.284364	2.129200	-0.000252
1088	1.0816e+02	-3.3192	-6.344359	0.000639	6.385725	2.163542	-0.000256
1089	1.0826e+02	-3.3464	-6.578513	0.000588	5.878921	1.991833	-0.000235
1090	1.0836e+02	-3.3913	-6.768258	0.000476	4.763954	1.614071	-0.000191
1091	1.0845e+02	-3.4395	-7.071043	0.000760	7.602054	2.575645	-0.000304
1092	1.0855e+02	-3.4700	-7.329420	0.000649	6.487086	2.197884	-0.000260
1093	1.0865e+02	-3.5085	-7.531277	0.000507	5.068036	1.717097	-0.000203
1094	1.0875e+02	-3.5582	-7.793691	0.000659	6.588446	2.232226	-0.000264
1095	1.0885e+02	-3.5951	-8.031882	0.000598	5.980282	2.026174	-0.000239
1096	1.0895e+02	-3.6272	-8.249887	0.000547	5.473479	1.854465	-0.000219
1097	1.0905e+02	-3.6705	-8.427521	0.000446	4.459871	1.511045	-0.000179
1098	1.0915e+02	-3.6994	-8.693972	0.000669	6.689807	2.266568	-0.000268
1099	1.0925e+02	-3.7523	-8.855457	0.000405	4.054429	1.373678	-0.000162
1100	1.0935e+02	-3.7956	-9.045203	0.000476	4.763954	1.614071	-0.000191
1101	1.0945e+02	-3.8277	-9.251097	0.000517	5.169396	1.751439	-0.000207
1102	1.0955e+02	-3.8614	-9.428731	0.000446	4.459871	1.511045	-0.000179
1103	1.0965e+02	-3.9063	-9.630587	0.000507	5.068036	1.717097	-0.000203
1104	1.0975e+02	-3.9432	-9.828407	0.000497	4.966675	1.682755	-0.000199
1105	1.0985e+02	-3.9865	-10.002004	0.000436	4.358511	1.476703	-0.000174
1106	1.0995e+02	-4.0314	-10.228083	0.000568	5.676200	1.923149	-0.000227
1107	1.1005e+02	-4.0667	-10.389569	0.000405	4.054429	1.373678	-0.000162
1108	1.1015e+02	-4.1165	-10.623723	0.000588	5.878921	1.991833	-0.000235
1109	1.1025e+02	-4.1437	-10.821542	0.000497	4.966675	1.682755	-0.000199
1110	1.1035e+02	-4.1919	-11.031473	0.000527	5.270757	1.785781	-0.000211
1111	1.1044e+02	-4.2352	-11.265627	0.000588	5.878921	1.991833	-0.000235
1112	1.1054e+02	-4.2753	-11.447298	0.000456	4.561232	1.545387	-0.000183
1113	1.1064e+02	-4.3154	-11.653192	0.000517	5.169396	1.751439	-0.000207
1114	1.1074e+02	-4.3539	-11.867161	0.000537	5.372118	1.820123	-0.000215
1115	1.1084e+02	-4.3924	-12.036720	0.000426	4.257150	1.442361	-0.000170
1116	1.1094e+02	-4.4261	-12.234540	0.000497	4.966675	1.682755	-0.000199
1117	1.1104e+02	-4.4646	-12.440434	0.000517	5.169396	1.751439	-0.000207
1118	1.1114e+02	-4.5175	-12.614031	0.000436	4.358511	1.476703	-0.000174
1119	1.1124e+02	-4.5448	-12.819925	0.000517	5.169396	1.751439	-0.000207
1120	1.1134e+02	-4.5897	-13.029856	0.000527	5.270757	1.785781	-0.000211
1121	1.1144e+02	-4.6282	-13.195378	0.000416	4.155789	1.408020	-0.000166
1122	1.1154e+02	-4.6667	-13.409346	0.000537	5.372118	1.820123	-0.000215
1123	1.1164e+02	-4.7052	-13.591017	0.000456	4.561232	1.545387	-0.000183
1124	1.1174e+02	-4.7453	-13.776726	0.000466	4.662593	1.579729	-0.000187
1125	1.1184e+02	-4.7918	-13.966471	0.000476	4.763954	1.614071	-0.000191
1126	1.1194e+02	-4.8191	-14.164291	0.000497	4.966675	1.682755	-0.000199
1127	1.1204e+02	-4.8608	-14.358073	0.000487	4.865314	1.648413	-0.000195
1128	1.1214e+02	-4.9041	-14.527633	0.000426	4.257150	1.442361	-0.000170
1129	1.1224e+02	-4.9394	-14.697193	0.000426	4.257150	1.442361	-0.000170
1130	1.1234e+02	-4.9940	-14.886938	0.000476	4.763954	1.614071	-0.000191
1131	1.1244e+02	-5.0277	-15.117055	0.000578	5.777561	1.957491	-0.000231
1132	1.1253e+02	-5.0710	-15.278540	0.000405	4.054429	1.373678	-0.000162
1133	1.1263e+02	-5.1047	-15.496546	0.000547	5.473479	1.854465	-0.000219
1134	1.1273e+02	-5.1512	-15.621697	0.000314	3.142182	1.064600	-0.000126
1135	1.1283e+02	-5.1865	-15.831628	0.000527	5.270757	1.785781	-0.000211
1136	1.1293e+02	-5.2282	-16.049633	0.000547	5.473479	1.854465	-0.000219
1137	1.1303e+02	-5.2731	-16.199007	0.000375	3.750346	1.270652	-0.000150
1138	1.1313e+02	-5.3004	-16.417012	0.000547	5.473479	1.854465	-0.000219
1139	1.1323e+02	-5.3469	-16.626944	0.000527	5.270757	1.785781	-0.000211
1140	1.1333e+02	-5.3822	-16.820726	0.000487	4.865314	1.648413	-0.000195
1141	1.1343e+02	-5.4239	-16.957989	0.000345	3.446264	1.167626	-0.000138
1142	1.1353e+02	-5.4624	-17.147734	0.000476	4.763954	1.614071	-0.000191
1143	1.1363e+02	-5.5089	-17.349591	0.000507	5.068036	1.717097	-0.000203
1144	1.1373e+02	-5.5426	-17.563559	0.000537	5.372118	1.820123	-0.000215
1145	1.1383e+02	-5.5924	-17.729082	0.000416	4.155789	1.408020	-0.000166
1146	1.1393e+02	-5.6212	-17.934976	0.000517	5.169396	1.751439	-0.000207
1147	1.1403e+02	-5.6645	-18.132795	0.000497	4.966675	1.682755	-0.000199
1148	1.1413e+02	-5.6982	-18.334652	0.000507	5.068036	1.717097	-0.000203
1149	1.1423e+02	-5.7415	-18.520360	0.000466	4.662593	1.579729	-0.000187
1150	1.1433e+02	-5.7849	-18.706068	0.000466	4.662593	1.579729	-0.000187
1151	1.1442e+02	-5.8202	-18.883702	0.000446	4.459871	1.511045	-0.000179
1152	1.1452e+02	-5.8571	-19.089596	0.000517	5.169396	1.751439	-0.000207
1153	1.1462e+02	-5.9100	-19.259156	0.000426	4.257150	1.442361	-0.000170
1154	1.1472e+02	-5.9469	-19.477161	0.000547	5.473479	1.854465	-0.000219
1155	1.1482e+02	-5.9822	-19.650758	0.000436	4.358511	1.476703	-0.000174
1156	1.1492e+02	-6.0223	-19.824355	0.000436	4.358511	1.476703	-0.000174
1157	1.1502e+02	-6.0624	-20.014100	0.000476	4.763954	1.614071	-0.000191
1158	1.1512e+02	-6.1089	-20.224031	0.000527	5.270757	1.785781	-0.000211
1159	1.1522e+02	-6.1362	-20.417814	0.000487	4.865314	1.648413	-0.000195
1160	1.1532e+02	-6.1795	-20.595448	0.000446	4.459871	1.511045	-0.000179
1161	1.1542e+02	-6.2308	-20.728673	0.000334	3.344904	1.133284	-0.000134
1162	1.1552e+02	-6.2597	-20.918419	0.000476	4.763954	1.614071	-0.000191
1163	1.1562e+02	-6.3094	-21.116238	0.000497	4.966675	1.682755	-0.000199
1164	1.1572e+02	-6.3431	-21.261575	0.000365	3.648986	1.236310	-0.000146
1165	1.1582e+02	-6.3881	-21.479581	0.000547	5.473479	1.854465	-0.000219
1166	1.1592e+02	-6.4169	-21.628955	0.000375	3.750346	1.270652	-0.000150
1167	1.1602e+02	-6.4554	-21.786403	0.000395	3.953068	1.339336	-0.000158
1168	1.1612e+02	-6.4907	-21.951926	0.000416	4.155789	1.408020	-0.000166
1169	1.1622e+02	-6.5324	-22.121485	0.000426	4.257150	1.442361	-0.000170
1170	1.1632e+02	-6.5790	-22.270859	0.000375	3.750346	1.270652	-0.000150
1171	1.1642e+02	-6.6126	-22.448493	0.000446	4.459871	1.511045	-0.000179
1172	1.1651e+02	-6.6560	-22.642276	0.000487	4.865314	1.648413	-0.000195
1173	1.1661e+02	-6.7025	-22.803761	0.000405	4.054429	1.373678	-0.000162
1174	1.1671e+02	-6.7362	-22.989469	0.000466	4.662593	1.579729	-0.000187
1175	1.1681e+02	-6.7731	-23.154992	0.000416	4.155789	1.408020	-0.000166
1176	1.1691e+02	-6.8244	-23.316477	0.000405	4.054429	1.373678	-0.000162
1177	1.1701e+02	-6.8549	-23.465851	0.000375	3.750346	1.270652	-0.000150
1178	1.1711e+02	-6.8998	-23.675783	0.000527	5.270757	1.785781	-0.000211
1179	1.1721e+02	-6.9351	-23.764600	0.000223	2.229936	0.755523	-0.000089
1180	1.1731e+02	-6.9736	-23.954345	0.000476	4.763954	1.614071	-0.000191
1181	1.1741e+02	-7.0201	-24.047199	0.000233	2.331296	0.789865	-0.000093
1182	1.1751e+02	-7.0602	-24.224833	0.000446	4.459871	1.511045	-0.000179
1183	1.1761e+02	-7.0955	-24.390356	0.000416	4.155789	1.408020	-0.000166
1184	1.1771e+02	-7.1453	-24.527618	0.000345	3.446264	1.167626	-0.000138
1185	1.1781e+02	-7.1709	-24.685066	0.000395	3.953068	1.339336	-0.000158
1186	1.1791e+02	-7.2190	-24.794069	0.000274	2.736739	0.927232	-0.000110
1187	1.1801e+02	-7.2559	-24.983815	0.000476	4.763954	1.614071	-0.000191
1188	1.1811e+02	-7.3009	-25.125114	0.000355	3.547625	1.201968	-0.000142
1189	1.1821e+02	-7.3538	-25.322934	0.000497	4.966675	1.682755	-0.000199
1190	1.1831e+02	-7.3650	-25.431937	0.000274	2.736739	0.927232	-0.000110
1191	1.1841e+02	-7.4116	-25.597459	0.000416	4.155789	1.408020	-0.000166
1192	1.1850e+02	-7.4581	-25.775093	0.000446	4.459871	1.511045	-0.000179
1193	1.1860e+02	-7.4950	-25.948690	0.000436	4.358511	1.476703	-0.000174
1194	1.1870e+02	-7.5415	-26.069804	0.000304	3.040821	1.030258	-0.000122
1195	1.1880e+02	-7.5768	-26.227252	0.000395	3.953068	1.339336	-0.000158
1196	1.1890e+02	-7.6089	-26.388738	0.000405	4.054429	1.373678	-0.000162
1197	1.1900e+02	-7.6570	-26.562335	0.000436	4.358511	1.476703	-0.000174
1198	1.1910e+02	-7.6907	-26.731894	0.000426	4.257150	1.442361	-0.000170
1199	1.1920e+02	-7.7372	-26.865120	0.000334	3.344904	1.133284	-0.000134
1200	1.1930e+02	-7.7709	-27.018531	0.000385	3.851707	1.304994	-0.000154
1201	1.1940e+02	-7.8126	-27.188091	0.000426	4.257150	1.442361	-0.000170
1202	1.1950e+02	-7.8623	-27.389947	0.000507	5.068036	1.717097	-0.000203
1203	1.1960e+02	-7.8896	-27.494913	0.000264	2.635379	0.892890	-0.000105
1204	1.1970e+02	-7.9361	-27.676584	0.000456	4.561232	1.545387	-0.000183
1205	1.1980e+02	-7.9682	-27.809810	0.000334	3.344904	1.133284	-0.000134
1206	1.1990e+02	-8.0147	-28.019741	0.000527	5.270757	1.785781	-0.000211
1207	1.2000e+02	-8.0484	-28.177189	0.000395	3.953068	1.339336	-0.000158
1208	1.2010e+02	-8.0869	-28.310414	0.000334	3.344904	1.133284	-0.000134
1209	1.2020e+02	-8.1303	-28.496123	0.000466	4.662593	1.579729	-0.000187
1210	1.2030e+02	-8.1655	-28.641459	0.000365	3.648986	1.236310	-0.000146
1211	1.2039e+02	-8.2089	-28.823131	0.000456	4.561232	1.545387	-0.000183
1212	1.2049e+02	-8.2554	-28.984616	0.000405	4.054429	1.373678	-0.000162
1213	1.2059e+02	-8.2907	-29.105730	0.000304	3.040821	1.030258	-0.000122
1214	1.2069e+02	-8.3356	-29.271253	0.000416	4.155789	1.408020	-0.000166
1215	1.2079e+02	-8.3725	-29.481184	0.000527	5.270757	1.785781	-0.000211
1216	1.2089e+02	-8.4014	-29.634595	0.000385	3.851707	1.304994	-0.000154
1217	1.2099e+02	-8.4495	-29.747635	0.000284	2.838100	0.961574	-0.000114
1218	1.2109e+02	-8.4896	-29.929306	0.000456	4.561232	1.545387	-0.000183
1219	1.2119e+02	-8.5233	-30.078680	0.000375	3.750346	1.270652	-0.000150
1220	1.2129e+02	-8.5730	-30.256314	0.000446	4.459871	1.511045	-0.000179
1221	1.2139e+02	-8.6019	-30.417799	0.000405	4.054429	1.373678	-0.000162
1222	1.2149e+02	-8.6516	-30.591396	0.000436	4.358511	1.476703	-0.000174
1223	1.2159e+02	-8.6869	-30.712510	0.000304	3.040821	1.030258	-0.000122
1224	1.2169e+02	-8.7254	-30.865921	0.000385	3.851707	1.304994	-0.000154
1225	1.2179e+02	-8.7639	-31.039518	0.000436	4.358511	1.476703	-0.000174
1226	1.2189e+02	-8.8104	-31.221189	0.000456	4.561232	1.545387	-0.000183
1227	1.2199e+02	-8.8506	-31.362489	0.000355	3.547625	1.201968	-0.000142
1228	1.2209e+02	-8.8842	-31.483603	0.000304	3.040821	1.030258	-0.000122
1229	1.2219e+02	-8.9195	-31.673348	0.000476	4.763954	1.614071	-0.000191
1230	1.2229e+02	-8.9628	-31.810611	0.000345	3.446264	1.167626	-0.000138
1231	1.2239e+02	-9.0062	-31.939799	0.000324	3.243543	1.098942	-0.000130
1232	1.2248e+02	-9.0463	-32.101285	0.000405	4.054429	1.373678	-0.000162
1233	1.2258e+02	-9.0832	-32.254696	0.000385	3.851707	1.304994	-0.000154
1234	1.2268e+02	-9.1217	-32.448478	0.000487	4.865314	1.648413	-0.000195
1235	1.2278e+02	-9.1714	-32.605927	0.000395	3.953068	1.339336	-0.000158
1236	1.2288e+02	-9.2083	-32.759338	0.000385	3.851707	1.304994	-0.000154
1237	1.2298e+02	-9.2548	-32.941009	0.000456	4.561232	1.545387	-0.000183
1238	1.2308e+02	-9.2853	-33.098457	0.000395	3.953068	1.339336	-0.000158
1239	1.2318e+02	-9.3206	-33.268017	0.000426	4.257150	1.442361	-0.000170
1240	1.2328e+02	-9.3719	-33.449688	0.000456	4.561232	1.545387	-0.000183
1241	1.2338e+02	-9.4072	-33.643471	0.000487	4.865314	1.648413	-0.000195
1242	1.2348e+02	-9.4457	-33.792845	0.000375	3.750346	1.270652	-0.000150
1243	1.2358e+02	-9.4906	-33.942219	0.000375	3.750346	1.270652	-0.000150
1244	1.2368e+02	-9.5324	-34.164261	0.000557	5.574839	1.888807	-0.000223
1245	1.2378e+02	-9.5676	-34.321709	0.000395	3.953068	1.339336	-0.000158
1246	1.2388e+02	-9.6045	-34.458972	0.000345	3.446264	1.167626	-0.000138
1247	1.2398e+02	-9.6463	-34.632569	0.000436	4.358511	1.476703	-0.000174
1248	1.2408e+02	-9.6799	-34.773869	0.000355	3.547625	1.201968	-0.000142
1249	1.2418e+02	-9.7233	-34.943428	0.000426	4.257150	1.442361	-0.000170
1250	1.2428e+02	-9.7650	-35.100877	0.000395	3.953068	1.339336	-0.000158
1251	1.2438e+02	-9.8051	-35.282548	0.000456	4.561232	1.545387	-0.000183
1252	1.2447e+02	-9.8339	-35.427885	0.000365	3.648986	1.236310	-0.000146
1253	1.2457e+02	-9.8869	-35.593407	0.000416	4.155789	1.408020	-0.000166
1254	1.2467e+02	-9.9238	-35.750856	0.000395	3.953068	1.339336	-0.000158
1255	1.2477e+02	-9.9719	-35.936564	0.000466	4.662593	1.579729	-0.000187
1256	1.2487e+02	-9.9976	-36.077864	0.000355	3.547625	1.201968	-0.000142
1257	1.2497e+02	-10.0489	-36.303943	0.000568	5.676200	1.923149	-0.000227
1258	1.2507e+02	-10.0890	-36.376612	0.000182	1.824493	0.618155	-0.000073
1259	1.2517e+02	-10.1339	-36.566357	0.000476	4.763954	1.614071	-0.000191
1260	1.2527e+02	-10.1724	-36.715731	0.000375	3.750346	1.270652	-0.000150
1261	1.2537e+02	-10.2142	-36.848956	0.000334	3.344904	1.133284	-0.000134
1262	1.2547e+02	-10.2494	-37.002368	0.000385	3.851707	1.304994	-0.000154
1263	1.2557e+02	-10.2783	-37.151742	0.000375	3.750346	1.270652	-0.000150
1264	1.2567e+02	-10.3264	-37.276893	0.000314	3.142182	1.064600	-0.000126
1265	1.2577e+02	-10.3585	-37.438378	0.000405	4.054429	1.373678	-0.000162
1266	1.2587e+02	-10.4083	-37.599864	0.000405	4.054429	1.373678	-0.000162
1267	1.2597e+02	-10.4403	-37.737126	0.000345	3.446264	1.167626	-0.000138
1268	1.2607e+02	-10.4869	-37.874389	0.000345	3.446264	1.167626	-0.000138
1269	1.2617e+02	-10.5174	-38.011652	0.000345	3.446264	1.167626	-0.000138
1270	1.2627e+02	-10.5559	-38.140840	0.000324	3.243543	1.098942	-0.000130
1271	1.2636e+02	-10.6008	-38.261954	0.000304	3.040821	1.030258	-0.000122
1272	1.2646e+02	-10.6457	-38.439588	0.000446	4.459871	1.511045	-0.000179
1273	1.2656e+02	-10.6890	-38.548591	0.000274	2.736739	0.927232	-0.000110
1274	1.2666e+02	-10.7179	-38.738336	0.000476	4.763954	1.614071	-0.000191
1275	1.2676e+02	-10.7564	-38.879636	0.000355	3.547625	1.201968	-0.000142
1276	1.2686e+02	-10.7981	-38.980564	0.000253	2.534018	0.858548	-0.000101
1277	1.2696e+02	-10.8398	-39.158198	0.000446	4.459871	1.511045	-0.000179
1278	1.2706e+02	-10.8847	-39.271238	0.000284	2.838100	0.961574	-0.000114
1279	1.2716e+02	-10.9152	-39.477132	0.000517	5.169396	1.751439	-0.000207
1280	1.2726e+02	-10.9617	-39.590172	0.000284	2.838100	0.961574	-0.000114
1281	1.2736e+02	-11.0018	-39.759731	0.000426	4.257150	1.442361	-0.000170
1282	1.2746e+02	-11.0339	-39.909105	0.000375	3.750346	1.270652	-0.000150
1283	1.2756e+02	-11.0724	-40.010034	0.000253	2.534018	0.858548	-0.000101
1284	1.2766e+02	-11.1254	-40.171519	0.000405	4.054429	1.373678	-0.000162
1285	1.2776e+02	-11.1639	-40.304745	0.000334	3.344904	1.133284	-0.000134
1286	1.2786e+02	-11.1959	-40.417784	0.000284	2.838100	0.961574	-0.000114
1287	1.2796e+02	-11.2377	-40.563121	0.000365	3.648986	1.236310	-0.000146
1288	1.2806e+02	-11.2762	-40.748830	0.000466	4.662593	1.579729	-0.000187
1289	1.2816e+02	-11.3275	-40.869944	0.000304	3.040821	1.030258	-0.000122
1290	1.2826e+02	-11.3548	-41.019318	0.000375	3.750346	1.270652	-0.000150
1291	1.2835e+02	-11.4093	-41.140432	0.000304	3.040821	1.030258	-0.000122
1292	1.2845e+02	-11.4414	-41.285769	0.000365	3.648986	1.236310	-0.000146
1293	1.2855e+02	-11.4847	-41.435143	0.000375	3.750346	1.270652	-0.000150
1294	1.2865e+02	-11.5232	-41.588554	0.000385	3.851707	1.304994	-0.000154
1295	1.2875e+02	-11.5585	-41.725816	0.000345	3.446264	1.167626	-0.000138
1296	1.2885e+02	-11.5986	-41.871153	0.000365	3.648986	1.236310	-0.000146
1297	1.2895e+02	-11.6371	-41.976119	0.000264	2.635379	0.892890	-0.000105
1298	1.2905e+02	-11.6740	-42.137604	0.000405	4.054429	1.373678	-0.000162
1299	1.2915e+02	-11.7237	-42.282941	0.000365	3.648986	1.236310	-0.000146
1300	1.2925e+02	-11.7735	-42.400018	0.000294	2.939461	0.995916	-0.000118
1301	1.2935e+02	-11.7959	-42.525169	0.000314	3.142182	1.064600	-0.000126
1302	1.2945e+02	-11.8296	-42.626098	0.000253	2.534018	0.858548	-0.000101
1303	1.2955e+02	-11.8777	-42.767397	0.000355	3.547625	1.201968	-0.000142
1304	1.2965e+02	-11.9162	-42.920809	0.000385	3.851707	1.304994	-0.000154
1305	1.2975e+02	-11.9515	-43.062108	0.000355	3.547625	1.201968	-0.000142
1306	1.2985e+02	-12.0029	-43.187260	0.000314	3.142182	1.064600	-0.000126
1307	1.2995e+02	-12.0398	-43.316448	0.000324	3.243543	1.098942	-0.000130
1308	1.3005e+02	-12.0767	-43.433525	0.000294	2.939461	0.995916	-0.000118
1309	1.3015e+02	-12.1184	-43.582899	0.000375	3.750346	1.270652	-0.000150
1310	1.3025e+02	-12.1553	-43.712087	0.000324	3.243543	1.098942	-0.000130
1311	1.3034e+02	-12.2018	-43.869535	0.000395	3.953068	1.339336	-0.000158
1312	1.3044e+02	-12.2451	-43.974501	0.000264	2.635379	0.892890	-0.000105
1313	1.3054e+02	-12.2740	-44.115801	0.000355	3.547625	1.201968	-0.000142
1314	1.3064e+02	-12.3221	-44.257101	0.000355	3.547625	1.201968	-0.000142
1315	1.3074e+02	-12.3574	-44.398400	0.000355	3.547625	1.201968	-0.000142
1316	1.3084e+02	-12.3959	-44.539700	0.000355	3.547625	1.201968	-0.000142
1317	1.3094e+02	-12.4424	-44.672926	0.000334	3.344904	1.133284	-0.000134
1318	1.3104e+02	-12.4809	-44.814225	0.000355	3.547625	1.201968	-0.000142
1319	1.3114e+02	-12.5114	-44.931302	0.000294	2.939461	0.995916	-0.000118
1320	1.3124e+02	-12.5579	-45.064528	0.000334	3.344904	1.133284	-0.000134
1321	1.3134e+02	-12.5836	-45.234087	0.000426	4.257150	1.442361	-0.000170
1322	1.3144e+02	-12.6462	-45.363276	0.000324	3.243543	1.098942	-0.000130
1323	1.3154e+02	-12.6734	-45.528798	0.000416	4.155789	1.408020	-0.000166
1324	1.3164e+02	-12.7119	-45.662024	0.000334	3.344904	1.133284	-0.000134
1325	1.3174e+02	-12.7537	-45.811398	0.000375	3.750346	1.270652	-0.000150
1326	1.3184e+02	-12.7954	-45.936549	0.000314	3.142182	1.064600	-0.000126
1327	1.3194e+02	-12.8371	-46.073812	0.000345	3.446264	1.167626	-0.000138
1328	1.3204e+02	-12.8772	-46.211074	0.000345	3.446264	1.167626	-0.000138
1329	1.3214e+02	-12.9141	-46.324114	0.000284	2.838100	0.961574	-0.000114
1330	1.3224e+02	-12.9558	-46.449265	0.000314	3.142182	1.064600	-0.000126
1331	1.3234e+02	-12.9815	-46.594602	0.000365	3.648986	1.236310	-0.000146
1332	1.3243e+02	-13.0328	-46.739939	0.000365	3.648986	1.236310	-0.000146
1333	1.3253e+02	-13.0681	-46.869127	0.000324	3.243543	1.098942	-0.000130
1334	1.3263e+02	-13.0970	-46.978130	0.000274	2.736739	0.927232	-0.000110
1335	1.3273e+02	-13.1515	-47.127504	0.000375	3.750346	1.270652	-0.000150
1336	1.3283e+02	-13.2028	-47.264767	0.000345	3.446264	1.167626	-0.000138
1337	1.3293e+02	-13.2317	-47.349547	0.000213	2.128575	0.721181	-0.000085
1338	1.3303e+02	-13.2718	-47.531218	0.000456	4.561232	1.545387	-0.000183
1339	1.3313e+02	-13.3183	-47.632146	0.000253	2.534018	0.858548	-0.000101
1340	1.3323e+02	-13.3536	-47.781520	0.000375	3.750346	1.270652	-0.000150
1341	1.3333e+02	-13.4002	-47.926857	0.000365	3.648986	1.236310	-0.000146
1342	1.3343e+02	-13.4258	-48.039897	0.000284	2.838100	0.961574	-0.000114
1343	1.3353e+02	-13.4723	-48.120639	0.000203	2.027214	0.686839	-0.000081
1344	1.3363e+02	-13.5125	-48.278088	0.000395	3.953068	1.339336	-0.000158
1345	1.3373e+02	-13.5558	-48.423425	0.000365	3.648986	1.236310	-0.000146
1346	1.3383e+02	-13.5943	-48.548576	0.000314	3.142182	1.064600	-0.000126
1347	1.3393e+02	-13.6376	-48.653541	0.000264	2.635379	0.892890	-0.000105
1348	1.3403e+02	-13.6729	-48.802915	0.000375	3.750346	1.270652	-0.000150
1349	1.3413e+02	-13.7098	-48.944215	0.000355	3.547625	1.201968	-0.000142
1350	1.3423e+02	-13.7483	-49.033032	0.000223	2.229936	0.755523	-0.000089
1351	1.3432e+02	-13.7916	-49.198555	0.000416	4.155789	1.408020	-0.000166
1352	1.3442e+02	-13.8253	-49.347929	0.000375	3.750346	1.270652	-0.000150
1353	1.3452e+02	-13.8654	-49.477117	0.000324	3.243543	1.098942	-0.000130
1354	1.3462e+02	-13.9071	-49.590157	0.000284	2.838100	0.961574	-0.000114
1355	1.3472e+02	-13.9584	-49.719345	0.000324	3.243543	1.098942	-0.000130
1356	1.3482e+02	-13.9857	-49.792014	0.000182	1.824493	0.618155	-0.000073
1357	1.3492e+02	-14.0322	-49.949462	0.000395	3.953068	1.339336	-0.000158
1358	1.3502e+02	-14.0627	-50.119022	0.000426	4.257150	1.442361	-0.000170
1359	1.3512e+02	-14.1076	-50.183616	0.000162	1.621771	0.549471	-0.000065
1360	1.3522e+02	-14.1429	-50.296656	0.000284	2.838100	0.961574	-0.000114
1361	1.3532e+02	-14.1926	-50.486401	0.000476	4.763954	1.614071	-0.000191
1362	1.3542e+02	-14.2295	-50.595404	0.000274	2.736739	0.927232	-0.000110
1363	1.3552e+02	-14.2616	-50.688258	0.000233	2.331296	0.789865	-0.000093
1364	1.3562e+02	-14.3049	-50.849743	0.000405	4.054429	1.373678	-0.000162
1365	1.3572e+02	-14.3515	-50.938560	0.000223	2.229936	0.755523	-0.000089
1366	1.3582e+02	-14.3836	-51.100046	0.000405	4.054429	1.373678	-0.000162
1367	1.3592e+02	-14.4285	-51.241345	0.000355	3.547625	1.201968	-0.000142
1368	1.3602e+02	-14.4622	-51.414942	0.000436	4.358511	1.476703	-0.000174
1369	1.3612e+02	-14.5103	-51.495685	0.000203	2.027214	0.686839	-0.000081
1370	1.3622e+02	-14.5472	-51.645059	0.000375	3.750346	1.270652	-0.000150
1371	1.3631e+02	-14.5841	-51.733876	0.000223	2.229936	0.755523	-0.000089
1372	1.3641e+02	-14.6194	-51.867101	0.000334	3.344904	1.133284	-0.000134
1373	1.3651e+02	-14.6611	-52.048773	0.000456	4.561232	1.545387	-0.000183
1374	1.3661e+02	-14.7092	-52.161812	0.000284	2.838100	0.961574	-0.000114
1375	1.3671e+02	-14.7429	-52.295038	0.000334	3.344904	1.133284	-0.000134
1376	1.3681e+02	-14.7910	-52.432300	0.000345	3.446264	1.167626	-0.000138
1377	1.3691e+02	-14.8295	-52.549377	0.000294	2.939461	0.995916	-0.000118
1378	1.3701e+02	-14.8632	-52.678566	0.000324	3.243543	1.098942	-0.000130
1379	1.3711e+02	-14.9049	-52.815828	0.000345	3.446264	1.167626	-0.000138
1380	1.3721e+02	-14.9418	-52.928868	0.000284	2.838100	0.961574	-0.000114
1381	1.3731e+02	-14.9916	-53.041908	0.000284	2.838100	0.961574	-0.000114
1382	1.3741e+02	-15.0285	-53.122651	0.000203	2.027214	0.686839	-0.000081
1383	1.3751e+02	-15.0621	-53.243765	0.000304	3.040821	1.030258	-0.000122
1384	1.3761e+02	-15.0990	-53.417362	0.000436	4.358511	1.476703	-0.000174
1385	1.3771e+02	-15.1440	-53.518290	0.000253	2.534018	0.858548	-0.000101
1386	1.3781e+02	-15.1825	-53.607107	0.000223	2.229936	0.755523	-0.000089
1387	1.3791e+02	-15.2242	-53.728221	0.000304	3.040821	1.030258	-0.000122
1388	1.3801e+02	-15.2611	-53.865484	0.000345	3.446264	1.167626	-0.000138
1389	1.3811e+02	-15.3124	-53.966412	0.000253	2.534018	0.858548	-0.000101
1390	1.3821e+02	-15.3445	-54.144046	0.000446	4.459871	1.511045	-0.000179
1391	1.3831e+02	-15.3862	-54.232863	0.000223	2.229936	0.755523	-0.000089
1392	1.3840e+02	-15.4247	-54.349940	0.000294	2.939461	0.995916	-0.000118
1393	1.3850e+02	-15.4680	-54.462980	0.000284	2.838100	0.961574	-0.000114
1394	1.3860e+02	-15.4969	-54.592168	0.000324	3.243543	1.098942	-0.000130
1395	1.3870e+02	-15.5450	-54.717319	0.000314	3.142182	1.064600	-0.000126
1396	1.3880e+02	-15.5835	-54.838433	0.000304	3.040821	1.030258	-0.000122
1397	1.3890e+02	-15.6236	-54.955510	0.000294	2.939461	0.995916	-0.000118
1398	1.3900e+02	-15.6685	-55.072587	0.000294	2.939461	0.995916	-0.000118
1399	1.3910e+02	-15.6942	-55.193701	0.000304	3.040821	1.030258	-0.000122
1400	1.3920e+02	-15.7471	-55.335001	0.000355	3.547625	1.201968	-0.000142
1401	1.3930e+02	-15.7824	-55.395558	0.000152	1.520411	0.515129	-0.000061
1402	1.3940e+02	-15.8113	-55.544932	0.000375	3.750346	1.270652	-0.000150
1403	1.3950e+02	-15.8498	-55.629712	0.000213	2.128575	0.721181	-0.000085
1404	1.3960e+02	-15.9108	-55.746789	0.000294	2.939461	0.995916	-0.000118
1405	1.3970e+02	-15.9429	-55.863866	0.000294	2.939461	0.995916	-0.000118
1406	1.3980e+02	-15.9701	-56.029388	0.000416	4.155789	1.408020	-0.000166
1407	1.3990e+02	-16.0199	-56.098020	0.000172	1.723132	0.583813	-0.000069
1408	1.4000e+02	-16.0616	-56.275654	0.000446	4.459871	1.511045	-0.000179
1409	1.4010e+02	-16.1049	-56.364471	0.000223	2.229936	0.755523	-0.000089
1410	1.4020e+02	-16.1434	-56.505770	0.000355	3.547625	1.201968	-0.000142
1411	1.4029e+02	-16.1803	-56.630922	0.000314	3.142182	1.064600	-0.000126
1412	1.4039e+02	-16.2124	-56.735887	0.000264	2.635379	0.892890	-0.000105
1413	1.4049e+02	-16.2605	-56.828741	0.000233	2.331296	0.789865	-0.000093
1414	1.4059e+02	-16.2974	-56.994264	0.000416	4.155789	1.408020	-0.000166
1415	1.4069e+02	-16.3423	-57.111341	0.000294	2.939461	0.995916	-0.000118
1416	1.4079e+02	-16.3712	-57.236492	0.000314	3.142182	1.064600	-0.000126
1417	1.4089e+02	-16.4241	-57.317235	0.000203	2.027214	0.686839	-0.000081
1418	1.4099e+02	-16.4594	-57.486794	0.000426	4.257150	1.442361	-0.000170
1419	1.4109e+02	-16.5092	-57.603871	0.000294	2.939461	0.995916	-0.000118
1420	1.4119e+02	-16.5364	-57.712874	0.000274	2.736739	0.927232	-0.000110
1421	1.4129e+02	-16.5830	-57.801691	0.000223	2.229936	0.755523	-0.000089
1422	1.4139e+02	-16.6134	-57.963176	0.000405	4.054429	1.373678	-0.000162
1423	1.4149e+02	-16.6584	-58.072179	0.000274	2.736739	0.927232	-0.000110
1424	1.4159e+02	-16.7049	-58.193293	0.000304	3.040821	1.030258	-0.000122
1425	1.4169e+02	-16.7354	-58.310370	0.000294	2.939461	0.995916	-0.000118
1426	1.4179e+02	-16.7706	-58.459744	0.000375	3.750346	1.270652	-0.000150
1427	1.4189e+02	-16.8172	-58.588932	0.000324	3.243543	1.098942	-0.000130
1428	1.4199e+02	-16.8541	-58.701972	0.000284	2.838100	0.961574	-0.000114
1429	1.4209e+02	-16.8942	-58.831161	0.000324	3.243543	1.098942	-0.000130
1430	1.4219e+02	-16.9423	-58.948237	0.000294	2.939461	0.995916	-0.000118
1431	1.4228e+02	-16.9760	-59.053203	0.000264	2.635379	0.892890	-0.000105
1432	1.4238e+02	-17.0129	-59.194503	0.000355	3.547625	1.201968	-0.000142
1433	1.4248e+02	-17.0594	-59.271208	0.000193	1.925854	0.652497	-0.000077
1434	1.4258e+02	-17.0963	-59.412508	0.000355	3.547625	1.201968	-0.000142
1435	1.4268e+02	-17.1332	-59.505362	0.000233	2.331296	0.789865	-0.000093
1436	1.4278e+02	-17.1813	-59.618402	0.000284	2.838100	0.961574	-0.000114
1437	1.4288e+02	-17.2118	-59.739516	0.000304	3.040821	1.030258	-0.000122
1438	1.4298e+02	-17.2567	-59.860630	0.000304	3.040821	1.030258	-0.000122
1439	1.4308e+02	-17.3017	-59.977707	0.000294	2.939461	0.995916	-0.000118
1440	1.4318e+02	-17.3353	-60.078635	0.000253	2.534018	0.858548	-0.000101
1441	1.4328e+02	-17.3706	-60.228010	0.000375	3.750346	1.270652	-0.000150
1442	1.4338e+02	-17.4220	-60.312789	0.000213	2.128575	0.721181	-0.000085
1443	1.4348e+02	-17.4524	-60.446015	0.000334	3.344904	1.133284	-0.000134
1444	1.4358e+02	-17.4910	-60.611537	0.000416	4.155789	1.408020	-0.000166
1445	1.4368e+02	-17.5262	-60.712466	0.000253	2.534018	0.858548	-0.000101
1446	1.4378e+02	-17.5760	-60.845691	0.000334	3.344904	1.133284	-0.000134
1447	1.4388e+02	-17.6193	-60.942583	0.000243	2.432657	0.824207	-0.000097
1448	1.4398e+02	-17.6610	-61.063697	0.000304	3.040821	1.030258	-0.000122
1449	1.4408e+02	-17.6963	-61.225182	0.000405	4.054429	1.373678	-0.000162
1450	1.4418e+02	-17.7444	-61.330148	0.000264	2.635379	0.892890	-0.000105
1451	1.4428e+02	-17.7717	-61.471447	0.000355	3.547625	1.201968	-0.000142
1452	1.4437e+02	-17.8102	-61.556227	0.000213	2.128575	0.721181	-0.000085
1453	1.4447e+02	-17.8599	-61.673304	0.000294	2.939461	0.995916	-0.000118
1454	1.4457e+02	-17.8968	-61.810567	0.000345	3.446264	1.167626	-0.000138
1455	1.4467e+02	-17.9321	-61.923607	0.000284	2.838100	0.961574	-0.000114
1456	1.4477e+02	-17.9690	-62.068943	0.000365	3.648986	1.236310	-0.000146
1457	1.4487e+02	-18.0187	-62.177946	0.000274	2.736739	0.927232	-0.000110
1458	1.4497e+02	-18.0524	-62.282912	0.000264	2.635379	0.892890	-0.000105
1459	1.4507e+02	-18.0893	-62.408063	0.000314	3.142182	1.064600	-0.000126
1460	1.4517e+02	-18.1278	-62.549363	0.000355	3.547625	1.201968	-0.000142
1461	1.4527e+02	-18.1760	-62.686625	0.000345	3.446264	1.167626	-0.000138
1462	1.4537e+02	-18.2161	-62.795628	0.000274	2.736739	0.927232	-0.000110
1463	1.4547e+02	-18.2562	-62.932890	0.000345	3.446264	1.167626	-0.000138
1464	1.4557e+02	-18.2915	-63.009596	0.000193	1.925854	0.652497	-0.000077
1465	1.4567e+02	-18.3316	-63.154933	0.000365	3.648986	1.236310	-0.000146
1466	1.4577e+02	-18.3829	-63.251824	0.000243	2.432657	0.824207	-0.000097
1467	1.4587e+02	-18.4086	-63.413310	0.000405	4.054429	1.373678	-0.000162
1468	1.4597e+02	-18.4519	-63.554609	0.000355	3.547625	1.201968	-0.000142
1469	1.4607e+02	-18.4904	-63.679761	0.000314	3.142182	1.064600	-0.000126
1470	1.4617e+02	-18.5305	-63.772615	0.000233	2.331296	0.789865	-0.000093
1471	1.4626e+02	-18.5802	-63.885654	0.000284	2.838100	0.961574	-0.000114
1472	1.4636e+02	-18.6171	-64.002731	0.000294	2.939461	0.995916	-0.000118
1473	1.4646e+02	-18.6524	-64.127883	0.000314	3.142182	1.064600	-0.000126
1474	1.4656e+02	-18.6957	-64.257071	0.000324	3.243543	1.098942	-0.000130
1475	1.4666e+02	-18.7246	-64.390296	0.000334	3.344904	1.133284	-0.000134
1476	1.4676e+02	-18.7679	-64.511411	0.000304	3.040821	1.030258	-0.000122
1477	1.4686e+02	-18.8160	-64.620413	0.000274	2.736739	0.927232	-0.000110
1478	1.4696e+02	-18.8545	-64.737490	0.000294	2.939461	0.995916	-0.000118
1479	1.4706e+02	-18.8818	-64.854567	0.000294	2.939461	0.995916	-0.000118
1480	1.4716e+02	-18.9251	-64.999904	0.000365	3.648986	1.236310	-0.000146
1481	1.4726e+02	-18.9717	-65.116981	0.000294	2.939461	0.995916	-0.000118
1482	1.4736e+02	-19.0070	-65.274429	0.000395	3.953068	1.339336	-0.000158
1483	1.4746e+02	-19.0519	-65.343060	0.000172	1.723132	0.583813	-0.000069
1484	1.4756e+02	-19.0888	-65.431877	0.000223	2.229936	0.755523	-0.000089
1485	1.4766e+02	-19.1305	-65.601437	0.000426	4.257150	1.442361	-0.000170
1486	1.4776e+02	-19.1642	-65.718514	0.000294	2.939461	0.995916	-0.000118
1487	1.4786e+02	-19.2043	-65.823480	0.000264	2.635379	0.892890	-0.000105
1488	1.4796e+02	-19.2412	-65.956705	0.000334	3.344904	1.133284	-0.000134
1489	1.4806e+02	-19.2941	-66.077819	0.000304	3.040821	1.030258	-0.000122
1490	1.4816e+02	-19.3262	-66.178748	0.000253	2.534018	0.858548	-0.000101
1491	1.4825e+02	-19.3743	-66.316010	0.000345	3.446264	1.167626	-0.000138
1492	1.4835e+02	-19.4096	-66.425013	0.000274	2.736739	0.927232	-0.000110
1493	1.4845e+02	-19.4417	-66.534016	0.000274	2.736739	0.927232	-0.000110
1494	1.4855e+02	-19.4882	-66.671278	0.000345	3.446264	1.167626	-0.000138
1495	1.4865e+02	-19.5235	-66.772207	0.000253	2.534018	0.858548	-0.000101
1496	1.4875e+02	-19.5636	-66.905432	0.000334	3.344904	1.133284	-0.000134
1497	1.4885e+02	-19.6037	-66.953878	0.000122	1.216329	0.412103	-0.000049
1498	1.4895e+02	-19.6567	-67.115363	0.000405	4.054429	1.373678	-0.000162
1499	1.4905e+02	-19.6839	-67.260700	0.000365	3.648986	1.236310	-0.000146
1500	1.4915e+02	-19.7176	-67.361628	0.000253	2.534018	0.858548	-0.000101
1501	1.4925e+02	-19.7706	-67.502928	0.000355	3.547625	1.201968	-0.000142
1502	1.4935e+02	-19.8059	-67.599819	0.000243	2.432657	0.824207	-0.000097
1503	1.4945e+02	-19.8524	-67.716896	0.000294	2.939461	0.995916	-0.000118
1504	1.4955e+02	-19.8829	-67.878382	0.000405	4.054429	1.373678	-0.000162
1505	1.4965e+02	-19.9310	-67.951050	0.000182	1.824493	0.618155	-0.000073
1506	1.4975e+02	-19.9631	-68.072164	0.000304	3.040821	1.030258	-0.000122
1507	1.4985e+02	-20.0000	-68.189241	0.000294	2.939461	0.995916	-0.000118
1508	1.4995e+02	-19.9743	-68.302281	-0.000284	-2.838100	-0.961574	-0.000114
1509	1.5005e+02	-19.9198	-68.374949	-0.000182	-1.824493	-0.618155	-0.000073
1510	1.5015e+02	-19.8845	-68.496063	-0.000304	-3.040821	-1.030258	-0.000122
1511	1.5025e+02	-19.8379	-68.540472	-0.000111	-1.114968	-0.377761	-0.000045
1512	1.5034e+02	-19.8059	-68.584880	-0.000111	-1.114968	-0.377761	-0.000045
1513	1.5044e+02	-19.7738	-68.665623	-0.000203	-2.027214	-0.686839	-0.000081
1514	1.5054e+02	-19.7240	-68.718106	-0.000132	-1.317689	-0.446445	-0.000053
1515	1.5064e+02	-19.6936	-68.798849	-0.000203	-2.027214	-0.686839	-0.000081
1516	1.5074e+02	-19.6535	-68.867480	-0.000172	-1.723132	-0.583813	-0.000069
1517	1.5084e+02	-19.6053	-68.831146	0.000091	0.912246	0.309077	0.000037
1518	1.5094e+02	-19.5732	-68.895740	-0.000162	-1.621771	-0.549471	-0.000065
1519	1.5104e+02	-19.5219	-68.984557	-0.000223	-2.229936	-0.755523	-0.000089
1520	1.5114e+02	-19.4866	-68.996668	-0.000030	-0.304082	-0.103026	-0.000012
1521	1.5124e+02	-19.4433	-68.992631	0.000010	0.101361	0.034342	0.000004
1522	1.5134e+02	-19.4000	-69.028965	-0.000091	-0.912246	-0.309077	-0.000037
1523	1.5144e+02	-19.3695	-69.041077	-0.000030	-0.304082	-0.103026	-0.000012
1524	1.5154e+02	-19.3246	-69.077411	-0.000091	-0.912246	-0.309077	-0.000037
1525	1.5164e+02	-19.2813	-69.077411	0.000000	0.000000	0.000000	0.000000
1526	1.5174e+02	-19.2524	-69.105671	-0.000071	-0.709525	-0.240394	-0.000028
1527	1.5184e+02	-19.2155	-69.142005	-0.000091	-0.912246	-0.309077	-0.000037
1528	1.5194e+02	-19.1642	-69.109708	0.000081	0.810886	0.274736	0.000032
1529	1.5204e+02	-19.1305	-69.146042	-0.000091	-0.912246	-0.309077	-0.000037
1530	1.5214e+02	-19.0840	-69.162191	-0.000041	-0.405443	-0.137368	-0.000016
1531	1.5224e+02	-19.0535	-69.129894	0.000081	0.810886	0.274736	0.000032
1532	1.5233e+02	-19.0118	-69.162191	-0.000081	-0.810886	-0.274736	-0.000032
1533	1.5243e+02	-18.9636	-69.129894	0.000081	0.810886	0.274736	0.000032
1534	1.5253e+02	-18.9251	-69.182377	-0.000132	-1.317689	-0.446445	-0.000053
1535	1.5263e+02	-18.8914	-69.158154	0.000061	0.608164	0.206052	0.000024
1536	1.5273e+02	-18.8449	-69.150079	0.000020	0.202721	0.068684	0.000008
1537	1.5283e+02	-18.8160	-69.214674	-0.000162	-1.621771	-0.549471	-0.000065
1538	1.5293e+02	-18.7711	-69.190451	0.000061	0.608164	0.206052	0.000024
1539	1.5303e+02	-18.7262	-69.170265	0.000051	0.506804	0.171710	0.000020
1540	1.5313e+02	-18.6925	-69.154117	0.000041	0.405443	0.137368	0.000016
1541	1.5323e+02	-18.6492	-69.194488	-0.000101	-1.013607	-0.343419	-0.000041
1542	1.5333e+02	-18.6139	-69.150079	0.000111	1.114968	0.377761	0.000045
1543	1.5343e+02	-18.5738	-69.190451	-0.000101	-1.013607	-0.343419	-0.000041
1544	1.5353e+02	-18.5337	-69.174302	0.000041	0.405443	0.137368	0.000016
1545	1.5363e+02	-18.4968	-69.178339	-0.000010	-0.101361	-0.034342	-0.000004
1546	1.5373e+02	-18.4567	-69.182377	-0.000010	-0.101361	-0.034342	-0.000004
1547	1.5383e+02	-18.4070	-69.166228	0.000041	0.405443	0.137368	0.000016
1548	1.5393e+02	-18.3781	-69.198525	-0.000081	-0.810886	-0.274736	-0.000032
1549	1.5403e+02	-18.3380	-69.202562	-0.000010	-0.101361	-0.034342	-0.000004
1550	1.5413e+02	-18.2915	-69.186414	0.000041	0.405443	0.137368	0.000016
1551	1.5422e+02	-18.2546	-69.214674	-0.000071	-0.709525	-0.240394	-0.000028
1552	1.5432e+02	-18.2177	-69.194488	0.000051	0.506804	0.171710	0.000020
1553	1.5442e+02	-18.1679	-69.178339	0.000041	0.405443	0.137368	0.000016
1554	1.5452e+02	-18.1198	-69.186414	-0.000020	-0.202721	-0.068684	-0.000008
1555	1.5462e+02	-18.0974	-69.198525	-0.000030	-0.304082	-0.103026	-0.000012
1556	1.5472e+02	-18.0492	-69.186414	0.000030	0.304082	0.103026	0.000012
1557	1.5482e+02	-18.0107	-69.186414	0.000000	0.000000	0.000000	0.000000
1558	1.5492e+02	-17.9706	-69.190451	-0.000010	-0.101361	-0.034342	-0.000004
1559	1.5502e+02	-17.9369	-69.174302	0.000041	0.405443	0.137368	0.000016
1560	1.5512e+02	-17.9032	-69.146042	0.000071	0.709525	0.240394	0.000028
1561	1.5522e+02	-17.8551	-69.129894	0.000041	0.405443	0.137368	0.000016
1562	1.5532e+02	-17.8102	-69.166228	-0.000091	-0.912246	-0.309077	-0.000037
1563	1.5542e+02	-17.7797	-69.150079	0.000041	0.405443	0.137368	0.000016
1564	1.5552e+02	-17.7348	-69.142005	0.000020	0.202721	0.068684	0.000008
1565	1.5562e+02	-17.6995	-69.077411	0.000162	1.621771	0.549471	0.000065
1566	1.5572e+02	-17.6546	-69.129894	-0.000132	-1.317689	-0.446445	-0.000053
1567	1.5582e+02	-17.6177	-69.101634	0.000071	0.709525	0.240394	0.000028
1568	1.5592e+02	-17.5712	-69.097597	0.000010	0.101361	0.034342	0.000004
1569	1.5602e+02	-17.5359	-69.057225	0.000101	1.013607	0.343419	0.000041
1570	1.5612e+02	-17.4990	-69.089522	-0.000081	-0.810886	-0.274736	-0.000032
1571	1.5622e+02	-17.4492	-69.061263	0.000071	0.709525	0.240394	0.000028
1572	1.5631e+02	-17.4220	-69.016854	0.000111	1.114968	0.377761	0.000045
1573	1.5641e+02	-17.3851	-68.976483	0.000101	1.013607	0.343419	0.000041
1574	1.5651e+02	-17.3434	-68.996668	-0.000051	-0.506804	-0.171710	-0.000020
1575	1.5661e+02	-17.2952	-69.000705	-0.000010	-0.101361	-0.034342	-0.000004
1576	1.5671e+02	-17.2567	-68.956297	0.000111	1.114968	0.377761	0.000045
1577	1.5681e+02	-17.2198	-68.903814	0.000132	1.317689	0.446445	0.000053
1578	1.5691e+02	-17.1894	-68.903814	0.000000	0.000000	0.000000	0.000000
1579	1.5701e+02	-17.1509	-68.879591	0.000061	0.608164	0.206052	0.000024
1580	1.5711e+02	-17.1043	-68.859406	0.000051	0.506804	0.171710	0.000020
1581	1.5721e+02	-17.0626	-68.778663	0.000203	2.027214	0.686839	0.000081
1582	1.5731e+02	-17.0145	-68.693883	0.000213	2.128575	0.721181	0.000085
1583	1.5741e+02	-16.9808	-68.584880	0.000274	2.736739	0.927232	0.000110
1584	1.5751e+02	-16.9407	-68.524323	0.000152	1.520411	0.515129	0.000061
1585	1.5761e+02	-16.9022	-68.423395	0.000253	2.534018	0.858548	0.000101
1586	1.5771e+02	-16.8589	-68.346689	0.000193	1.925854	0.652497	0.000077
1587	1.5781e+02	-16.8220	-68.282095	0.000162	1.621771	0.549471	0.000065
1588	1.5791e+02	-16.7819	-68.193278	0.000223	2.229936	0.755523	0.000089
1589	1.5801e+02	-16.7370	-68.084276	0.000274	2.736739	0.927232	0.000110
1590	1.5811e+02	-16.7033	-67.995459	0.000223	2.229936	0.755523	0.000089
1591	1.5821e+02	-16.6584	-67.866270	0.000324	3.243543	1.098942	0.000130
1592	1.5830e+02	-16.6263	-67.870307	-0.000010	-0.101361	-0.034342	-0.000004
1593	1.5840e+02	-16.5878	-67.765342	0.000264	2.635379	0.892890	0.000105
1594	1.5850e+02	-16.5396	-67.668451	0.000243	2.432657	0.824207	0.000097
1595	1.5860e+02	-16.5076	-67.583671	0.000213	2.128575	0.721181	0.000085
1596	1.5870e+02	-16.4530	-67.486780	0.000243	2.432657	0.824207	0.000097
1597	1.5880e+02	-16.4161	-67.414111	0.000182	1.824493	0.618155	0.000073
1598	1.5890e+02	-16.3776	-67.321257	0.000233	2.331296	0.789865	0.000093
1599	1.5900e+02	-16.3391	-67.192069	0.000324	3.243543	1.098942	0.000130
1600	1.5910e+02	-16.2846	-67.167846	0.000061	0.608164	0.206052	0.000024
1601	1.5920e+02	-16.2621	-67.115363	0.000132	1.317689	0.446445	0.000053
1602	1.5930e+02	-16.2236	-66.998286	0.000294	2.939461	0.995916	0.000118
1603	1.5940e+02	-16.1835	-66.921581	0.000193	1.925854	0.652497	0.000077
1604	1.5950e+02	-16.1354	-66.869098	0.000132	1.317689	0.446445	0.000053
1605	1.5960e+02	-16.1017	-66.735872	0.000334	3.344904	1.133284	0.000134
1606	1.5970e+02	-16.0584	-66.675315	0.000152	1.520411	0.515129	0.000061
1607	1.5980e+02	-16.0263	-66.566313	0.000274	2.736739	0.927232	0.000110
1608	1.5990e+02	-15.9830	-66.469421	0.000243	2.432657	0.824207	0.000097
1609	1.6000e+02	-15.9461	-66.364456	0.000264	2.635379	0.892890	0.000105
1610	1.6010e+02	-15.9044	-66.303899	0.000152	1.520411	0.515129	0.000061
1611	1.6019e+02	-15.8643	-66.239305	0.000162	1.621771	0.549471	0.000065
1612	1.6029e+02	-15.8209	-66.158562	0.000203	2.027214	0.686839	0.000081
1613	1.6039e+02	-15.7792	-66.085893	0.000182	1.824493	0.618155	0.000073
1614	1.6049e+02	-15.7391	-66.025336	0.000152	1.520411	0.515129	0.000061
1615	1.6059e+02	-15.7006	-65.924408	0.000253	2.534018	0.858548	0.000101
1616	1.6069e+02	-15.6621	-65.839628	0.000213	2.128575	0.721181	0.000085
1617	1.6079e+02	-15.6140	-65.754848	0.000213	2.128575	0.721181	0.000085
1618	1.6089e+02	-15.5835	-65.653920	0.000253	2.534018	0.858548	0.000101
1619	1.6099e+02	-15.5498	-65.536843	0.000294	2.939461	0.995916	0.000118
1620	1.6109e+02	-15.5049	-65.456100	0.000203	2.027214	0.686839	0.000081
1621	1.6119e+02	-15.4504	-65.367283	0.000223	2.229936	0.755523	0.000089
1622	1.6129e+02	-15.4311	-65.254244	0.000284	2.838100	0.961574	0.000114
1623	1.6139e+02	-15.3862	-65.181575	0.000182	1.824493	0.618155	0.000073
1624	1.6149e+02	-15.3413	-65.145241	0.000091	0.912246	0.309077	0.000037
1625	1.6159e+02	-15.3092	-65.076610	0.000172	1.723132	0.583813	0.000069
1626	1.6169e+02	-15.2595	-64.979718	0.000243	2.432657	0.824207	0.000097
1627	1.6179e+02	-15.2290	-64.882827	0.000243	2.432657	0.824207	0.000097
1628	1.6189e+02	-15.1921	-64.765750	0.000294	2.939461	0.995916	0.000118
1629	1.6199e+02	-15.1472	-64.721342	0.000111	1.114968	0.377761	0.000045
1630	1.6209e+02	-15.1151	-64.584079	0.000345	3.446264	1.167626	0.000138
1631	1.6219e+02	-15.0605	-64.467002	0.000294	2.939461	0.995916	0.000118
1632	1.6228e+02	-15.0236	-64.422594	0.000111	1.114968	0.377761	0.000045
1633	1.6238e+02	-14.9739	-64.321665	0.000253	2.534018	0.858548	0.000101
1634	1.6248e+02	-14.9434	-64.208625	0.000284	2.838100	0.961574	0.000114
1635	1.6258e+02	-14.9146	-64.135957	0.000182	1.824493	0.618155	0.000073
1636	1.6268e+02	-14.8664	-64.067326	0.000172	1.723132	0.583813	0.000069
1637	1.6278e+02	-14.8231	-63.966397	0.000253	2.534018	0.858548	0.000101
1638	1.6288e+02	-14.7862	-63.873543	0.000233	2.331296	0.789865	0.000093
1639	1.6298e+02	-14.7525	-63.772615	0.000253	2.534018	0.858548	0.000101
1640	1.6308e+02	-14.7092	-63.671686	0.000253	2.534018	0.858548	0.000101
1641	1.6318e+02	-14.6739	-63.558646	0.000284	2.838100	0.961574	0.000114
1642	1.6328e+02	-14.6322	-63.522312	0.000091	0.912246	0.309077	0.000037
1643	1.6338e+02	-14.5825	-63.389087	0.000334	3.344904	1.133284	0.000134
1644	1.6348e+02	-14.5424	-63.288158	0.000253	2.534018	0.858548	0.000101
1645	1.6358e+02	-14.5103	-63.187230	0.000253	2.534018	0.858548	0.000101
1646	1.6368e+02	-14.4702	-63.086302	0.000253	2.534018	0.858548	0.000101
1647	1.6378e+02	-14.4301	-63.021707	0.000162	1.621771	0.549471	0.000065
1648	1.6388e+02	-14.3836	-62.896556	0.000314	3.142182	1.064600	0.000126
1649	1.6398e+02	-14.3450	-62.811776	0.000213	2.128575	0.721181	0.000085
1650	1.6408e+02	-14.3114	-62.751219	0.000152	1.520411	0.515129	0.000061
1651	1.6418e+02	-14.2616	-62.630105	0.000304	3.040821	1.030258	0.000122
1652	1.6427e+02	-14.2263	-62.500917	0.000324	3.243543	1.098942	0.000130
1653	1.6437e+02	-14.1878	-62.391914	0.000274	2.736739	0.927232	0.000110
1654	1.6447e+02	-14.1333	-62.311172	0.000203	2.027214	0.686839	0.000081
1655	1.6457e+02	-14.1076	-62.222355	0.000223	2.229936	0.755523	0.000089
1656	1.6467e+02	-14.0675	-62.101240	0.000304	3.040821	1.030258	0.000122
1657	1.6477e+02	-14.0306	-62.020498	0.000203	2.027214	0.686839	0.000081
1658	1.6487e+02	-13.9841	-61.955904	0.000162	1.621771	0.549471	0.000065
1659	1.6497e+02	-13.9456	-61.850938	0.000264	2.635379	0.892890	0.000105
1660	1.6507e+02	-13.9087	-61.733861	0.000294	2.939461	0.995916	0.000118
1661	1.6517e+02	-13.8606	-61.645044	0.000223	2.229936	0.755523	0.000089
1662	1.6527e+02	-13.8333	-61.560264	0.000213	2.128575	0.721181	0.000085
1663	1.6537e+02	-13.7852	-61.463373	0.000243	2.432657	0.824207	0.000097
1664	1.6547e+02	-13.7531	-61.301888	0.000405	4.054429	1.373678	0.000162
1665	1.6557e+02	-13.7098	-61.196922	0.000264	2.635379	0.892890	0.000105
1666	1.6567e+02	-13.6633	-61.112142	0.000213	2.128575	0.721181	0.000085
1667	1.6577e+02	-13.6376	-61.071771	0.000101	1.013607	0.343419	0.000041
1668	1.6587e+02	-13.5895	-60.906248	0.000416	4.155789	1.408020	0.000166
1669	1.6597e+02	-13.5477	-60.833580	0.000182	1.824493	0.618155	0.000073
1670	1.6607e+02	-13.5076	-60.785134	0.000122	1.216329	0.412103	0.000049
1671	1.6616e+02	-13.4740	-60.623649	0.000405	4.054429	1.373678	0.000162
1672	1.6626e+02	-13.4354	-60.474275	0.000375	3.750346	1.270652	0.000150
1673	1.6636e+02	-13.3969	-60.409681	0.000162	1.621771	0.549471	0.000065
1674	1.6646e+02	-13.3440	-60.328938	0.000203	2.027214	0.686839	0.000081
1675	1.6656e+02	-13.3135	-60.240121	0.000223	2.229936	0.755523	0.000089
1676	1.6666e+02	-13.2734	-60.139193	0.000253	2.534018	0.858548	0.000101
1677	1.6676e+02	-13.2253	-59.985781	0.000385	3.851707	1.304994	0.000154
1678	1.6686e+02	-13.1772	-59.909076	0.000193	1.925854	0.652497	0.000077
1679	1.6696e+02	-13.1547	-59.783925	0.000314	3.142182	1.064600	0.000126
1680	1.6706e+02	-13.1114	-59.699145	0.000213	2.128575	0.721181	0.000085
1681	1.6716e+02	-13.0697	-59.578031	0.000304	3.040821	1.030258	0.000122
1682	1.6726e+02	-13.0280	-59.477102	0.000253	2.534018	0.858548	0.000101
1683	1.6736e+02	-12.9863	-59.339840	0.000345	3.446264	1.167626	0.000138
1684	1.6746e+02	-12.9558	-59.279283	0.000152	1.520411	0.515129	0.000061
1685	1.6756e+02	-12.9157	-59.182391	0.000243	2.432657	0.824207	0.000097
1686	1.6766e+02	-12.8804	-59.077426	0.000264	2.635379	0.892890	0.000105
1687	1.6776e+02	-12.8371	-59.004757	0.000182	1.824493	0.618155	0.000073
1688	1.6786e+02	-12.7889	-58.895755	0.000274	2.736739	0.927232	0.000110
1689	1.6796e+02	-12.7617	-58.815012	0.000203	2.027214	0.686839	0.000081
1690	1.6806e+02	-12.7119	-58.714084	0.000253	2.534018	0.858548	0.000101
1691	1.6816e+02	-12.6799	-58.592970	0.000304	3.040821	1.030258	0.000122
1692	1.6825e+02	-12.6381	-58.508190	0.000213	2.128575	0.721181	0.000085
1693	1.6835e+02	-12.6029	-58.374964	0.000334	3.344904	1.133284	0.000134
1694	1.6845e+02	-12.5483	-58.261924	0.000284	2.838100	0.961574	0.000114
1695	1.6855e+02	-12.5178	-58.148885	0.000284	2.838100	0.961574	0.000114
1696	1.6865e+02	-12.4681	-58.068142	0.000203	2.027214	0.686839	0.000081
1697	1.6875e+02	-12.4408	-57.959139	0.000274	2.736739	0.927232	0.000110
1698	1.6885e+02	-12.4007	-57.866285	0.000233	2.331296	0.789865	0.000093
1699	1.6895e+02	-12.3446	-57.757282	0.000274	2.736739	0.927232	0.000110
1700	1.6905e+02	-12.3141	-57.644243	0.000284	2.838100	0.961574	0.000114
1701	1.6915e+02	-12.2708	-57.531203	0.000284	2.838100	0.961574	0.000114
1702	1.6925e+02	-12.2403	-57.446423	0.000213	2.128575	0.721181	0.000085
1703	1.6935e+02	-12.2002	-57.321272	0.000314	3.142182	1.064600	0.000126
1704	1.6945e+02	-12.1601	-57.232455	0.000223	2.229936	0.755523	0.000089
1705	1.6955e+02	-12.1120	-57.095192	0.000345	3.446264	1.167626	0.000138
1706	1.6965e+02	-12.0815	-57.046747	0.000122	1.216329	0.412103	0.000049
1707	1.6975e+02	-12.0382	-56.929670	0.000294	2.939461	0.995916	0.000118
1708	1.6985e+02	-11.9916	-56.925632	0.000010	0.101361	0.034342	0.000004
1709	1.6995e+02	-11.9531	-56.861038	0.000162	1.621771	0.549471	0.000065
1710	1.7005e+02	-11.9146	-56.764147	0.000243	2.432657	0.824207	0.000097
1711	1.7015e+02	-11.8729	-56.695516	0.000172	1.723132	0.583813	0.000069
1712	1.7024e+02	-11.8424	-56.643033	0.000132	1.317689	0.446445	0.000053
1713	1.7034e+02	-11.8007	-56.562290	0.000203	2.027214	0.686839	0.000081
1714	1.7044e+02	-11.7510	-56.517882	0.000111	1.114968	0.377761	0.000045
1715	1.7054e+02	-11.7205	-56.437139	0.000203	2.027214	0.686839	0.000081
1716	1.7064e+02	-11.6820	-56.360433	0.000193	1.925854	0.652497	0.000077
1717	1.7074e+02	-11.6371	-56.316025	0.000111	1.114968	0.377761	0.000045
1718	1.7084e+02	-11.5970	-56.275654	0.000101	1.013607	0.343419	0.000041
1719	1.7094e+02	-11.5649	-56.231245	0.000111	1.114968	0.377761	0.000045
1720	1.7104e+02	-11.5264	-56.170688	0.000152	1.520411	0.515129	0.000061
1721	1.7114e+02	-11.4767	-56.077834	0.000233	2.331296	0.789865	0.000093
1722	1.7124e+02	-11.4350	-55.964794	0.000284	2.838100	0.961574	0.000114
1723	1.7134e+02	-11.3965	-55.900200	0.000162	1.621771	0.549471	0.000065
1724	1.7144e+02	-11.3564	-55.851754	0.000122	1.216329	0.412103	0.000049
1725	1.7154e+02	-11.3211	-55.754863	0.000243	2.432657	0.824207	0.000097
1726	1.7164e+02	-11.2826	-55.666046	0.000223	2.229936	0.755523	0.000089
1727	1.7174e+02	-11.2377	-55.625675	0.000101	1.013607	0.343419	0.000041
1728	1.7184e+02	-11.2088	-55.544932	0.000203	2.027214	0.686839	0.000081
1729	1.7194e+02	-11.1606	-55.472264	0.000182	1.824493	0.618155	0.000073
1730	1.7204e+02	-11.1221	-55.427855	0.000111	1.114968	0.377761	0.000045
1731	1.7213e+02	-11.0836	-55.310778	0.000294	2.939461	0.995916	0.000118
1732	1.7223e+02	-11.0435	-55.246184	0.000162	1.621771	0.549471	0.000065
1733	1.7233e+02	-11.0082	-55.137181	0.000274	2.736739	0.927232	0.000110
1734	1.7243e+02	-10.9601	-55.052401	0.000213	2.128575	0.721181	0.000085
1735	1.7253e+02	-10.9184	-55.007993	0.000111	1.114968	0.377761	0.000045
1736	1.7263e+02	-10.8815	-54.939362	0.000172	1.723132	0.583813	0.000069
1737	1.7273e+02	-10.8478	-54.826322	0.000284	2.838100	0.961574	0.000114
1738	1.7283e+02	-10.8109	-54.757691	0.000172	1.723132	0.583813	0.000069
1739	1.7293e+02	-10.7564	-54.644651	0.000284	2.838100	0.961574	0.000114
1740	1.7303e+02	-10.7275	-54.620428	0.000061	0.608164	0.206052	0.000024
1741	1.7313e+02	-10.6874	-54.499314	0.000304	3.040821	1.030258	0.000122
1742	1.7323e+02	-10.6489	-54.378200	0.000304	3.040821	1.030258	0.000122
1743	1.7333e+02	-10.5960	-54.325717	0.000132	1.317689	0.446445	0.000053
1744	1.7343e+02	-10.5623	-54.253049	0.000182	1.824493	0.618155	0.000073
1745	1.7353e+02	-10.5190	-54.144046	0.000274	2.736739	0.927232	0.000110
1746	1.7363e+02	-10.4821	-54.047155	0.000243	2.432657	0.824207	0.000097
1747	1.7373e+02	-10.4387	-53.982561	0.000162	1.621771	0.549471	0.000065
1748	1.7383e+02	-10.4051	-53.881632	0.000253	2.534018	0.858548	0.000101
1749	1.7393e+02	-10.3585	-53.748407	0.000334	3.344904	1.133284	0.000134
1750	1.7403e+02	-10.3152	-53.663627	0.000213	2.128575	0.721181	0.000085
1751	1.7413e+02	-10.2879	-53.546550	0.000294	2.939461	0.995916	0.000118
1752	1.7422e+02	-10.2494	-53.425436	0.000304	3.040821	1.030258	0.000122
1753	1.7432e+02	-10.2029	-53.312396	0.000284	2.838100	0.961574	0.000114
1754	1.7442e+02	-10.1660	-53.171096	0.000355	3.547625	1.201968	0.000142
1755	1.7452e+02	-10.1259	-53.082279	0.000223	2.229936	0.755523	0.000089
1756	1.7462e+02	-10.0874	-52.981351	0.000253	2.534018	0.858548	0.000101
1757	1.7472e+02	-10.0457	-52.876385	0.000264	2.635379	0.892890	0.000105
1758	1.7482e+02	-10.0056	-52.674529	0.000507	5.068036	1.717097	0.000203
1759	1.7492e+02	-9.9639	-52.609934	0.000162	1.621771	0.549471	0.000065
1760	1.7502e+02	-9.9350	-52.476709	0.000334	3.344904	1.133284	0.000134
1761	1.7512e+02	-9.8917	-52.387892	0.000223	2.229936	0.755523	0.000089
1762	1.7522e+02	-9.8388	-52.250629	0.000345	3.446264	1.167626	0.000138
1763	1.7532e+02	-9.8019	-52.085107	0.000416	4.155789	1.408020	0.000166
1764	1.7542e+02	-9.7585	-51.992253	0.000233	2.331296	0.789865	0.000093
1765	1.7552e+02	-9.7345	-51.879213	0.000284	2.838100	0.961574	0.000114
1766	1.7562e+02	-9.6880	-51.745987	0.000334	3.344904	1.133284	0.000134
1767	1.7572e+02	-9.6463	-51.592576	0.000385	3.851707	1.304994	0.000154
1768	1.7582e+02	-9.6061	-51.459351	0.000334	3.344904	1.133284	0.000134
1769	1.7592e+02	-9.5789	-51.342274	0.000294	2.939461	0.995916	0.000118
1770	1.7602e+02	-9.5388	-51.225197	0.000294	2.939461	0.995916	0.000118
1771	1.7612e+02	-9.4858	-51.104083	0.000304	3.040821	1.030258	0.000122
1772	1.7621e+02	-9.4409	-50.999117	0.000264	2.635379	0.892890	0.000105
1773	1.7631e+02	-9.4136	-50.853780	0.000365	3.648986	1.236310	0.000146
1774	1.7641e+02	-9.3703	-50.797260	0.000142	1.419050	0.480787	0.000057
1775	1.7651e+02	-9.3302	-50.655961	0.000355	3.547625	1.201968	0.000142
1776	1.7661e+02	-9.2837	-50.498512	0.000395	3.953068	1.339336	0.000158
1777	1.7671e+02	-9.2516	-50.441992	0.000142	1.419050	0.480787	0.000057
1778	1.7681e+02	-9.2067	-50.365287	0.000193	1.925854	0.652497	0.000077
1779	1.7691e+02	-9.1698	-50.199764	0.000416	4.155789	1.408020	0.000166
1780	1.7701e+02	-9.1297	-50.102873	0.000243	2.432657	0.824207	0.000097
1781	1.7711e+02	-9.0928	-49.969648	0.000334	3.344904	1.133284	0.000134
1782	1.7721e+02	-9.0447	-49.868719	0.000253	2.534018	0.858548	0.000101
1783	1.7731e+02	-8.9981	-49.739531	0.000324	3.243543	1.098942	0.000130
1784	1.7741e+02	-8.9628	-49.634565	0.000264	2.635379	0.892890	0.000105
1785	1.7751e+02	-8.9163	-49.456931	0.000446	4.459871	1.511045	0.000179
1786	1.7761e+02	-8.8874	-49.311594	0.000365	3.648986	1.236310	0.000146
1787	1.7771e+02	-8.8506	-49.198555	0.000284	2.838100	0.961574	0.000114
1788	1.7781e+02	-8.8056	-49.081478	0.000294	2.939461	0.995916	0.000118
1789	1.7791e+02	-8.7735	-48.928067	0.000385	3.851707	1.304994	0.000154
1790	1.7801e+02	-8.7206	-48.806953	0.000304	3.040821	1.030258	0.000122
1791	1.7810e+02	-8.6949	-48.697950	0.000274	2.736739	0.927232	0.000110
1792	1.7820e+02	-8.6420	-48.613170	0.000213	2.128575	0.721181	0.000085
1793	1.7830e+02	-8.6067	-48.496093	0.000294	2.939461	0.995916	0.000118
1794	1.7840e+02	-8.5762	-48.358830	0.000345	3.446264	1.167626	0.000138
1795	1.7850e+02	-8.5297	-48.161011	0.000497	4.966675	1.682755	0.000199
1796	1.7860e+02	-8.4832	-48.015674	0.000365	3.648986	1.236310	0.000146
1797	1.7870e+02	-8.4607	-47.862263	0.000385	3.851707	1.304994	0.000154
1798	1.7880e+02	-8.4190	-47.737112	0.000314	3.142182	1.064600	0.000126
1799	1.7890e+02	-8.3757	-47.636183	0.000253	2.534018	0.858548	0.000101
1800	1.7900e+02	-8.3260	-47.515069	0.000304	3.040821	1.030258	0.000122
1801	1.7910e+02	-8.2907	-47.373769	0.000355	3.547625	1.201968	0.000142
1802	1.7920e+02	-8.2458	-47.260730	0.000284	2.838100	0.961574	0.000114
1803	1.7930e+02	-8.2121	-47.192098	0.000172	1.723132	0.583813	0.000069
1804	1.7940e+02	-8.1720	-47.091170	0.000253	2.534018	0.858548	0.000101
1805	1.7950e+02	-8.1286	-46.941796	0.000375	3.750346	1.270652	0.000150
1806	1.7960e+02	-8.0885	-46.869127	0.000182	1.824493	0.618155	0.000073
1807	1.7970e+02	-8.0500	-46.731865	0.000345	3.446264	1.167626	0.000138
1808	1.7980e+02	-8.0196	-46.663233	0.000172	1.723132	0.583813	0.000069
1809	1.7990e+02	-7.9586	-46.566342	0.000243	2.432657	0.824207	0.000097
1810	1.8000e+02	-7.9426	-46.445228	0.000304	3.040821	1.030258	0.000122
1811	1.8009e+02	-7.8912	-46.364485	0.000203	2.027214	0.686839	0.000081
1812	1.8019e+02	-7.8527	-46.239334	0.000314	3.142182	1.064600	0.000126
1813	1.8029e+02	-7.8174	-46.089960	0.000375	3.750346	1.270652	0.000150
1814	1.8039e+02	-7.7741	-46.001143	0.000223	2.229936	0.755523	0.000089
1815	1.8049e+02	-7.7324	-45.851769	0.000375	3.750346	1.270652	0.000150
1816	1.8059e+02	-7.6955	-45.726618	0.000314	3.142182	1.064600	0.000126
1817	1.8069e+02	-7.6506	-45.597430	0.000324	3.243543	1.098942	0.000130
1818	1.8079e+02	-7.6185	-45.512650	0.000213	2.128575	0.721181	0.000085
1819	1.8089e+02	-7.5800	-45.339053	0.000436	4.358511	1.476703	0.000174
1820	1.8099e+02	-7.5287	-45.326941	0.000030	0.304082	0.103026	0.000012
1821	1.8109e+02	-7.4934	-45.157382	0.000426	4.257150	1.442361	0.000170
1822	1.8119e+02	-7.4501	-45.044342	0.000284	2.838100	0.961574	0.000114
1823	1.8129e+02	-7.4164	-44.919191	0.000314	3.142182	1.064600	0.000126
1824	1.8139e+02	-7.3811	-44.790002	0.000324	3.243543	1.098942	0.000130
1825	1.8149e+02	-7.3426	-44.644666	0.000365	3.648986	1.236310	0.000146
1826	1.8159e+02	-7.2993	-44.503366	0.000355	3.547625	1.201968	0.000142
1827	1.8169e+02	-7.2543	-44.402437	0.000253	2.534018	0.858548	0.000101
1828	1.8179e+02	-7.2126	-44.297472	0.000264	2.635379	0.892890	0.000105
1829	1.8189e+02	-7.1757	-44.188469	0.000274	2.736739	0.927232	0.000110
1830	1.8199e+02	-7.1276	-44.107727	0.000203	2.027214	0.686839	0.000081
1831	1.8209e+02	-7.0955	-43.938167	0.000426	4.257150	1.442361	0.000170
1832	1.8218e+02	-7.0570	-43.821090	0.000294	2.939461	0.995916	0.000118
1833	1.8228e+02	-7.0153	-43.744384	0.000193	1.925854	0.652497	0.000077
1834	1.8238e+02	-6.9704	-43.599047	0.000365	3.648986	1.236310	0.000146
1835	1.8248e+02	-6.9415	-43.457748	0.000355	3.547625	1.201968	0.000142
1836	1.8258e+02	-6.8966	-43.344708	0.000284	2.838100	0.961574	0.000114
1837	1.8268e+02	-6.8565	-43.207445	0.000345	3.446264	1.167626	0.000138
1838	1.8278e+02	-6.8228	-43.106517	0.000253	2.534018	0.858548	0.000101
1839	1.8288e+02	-6.7747	-42.969254	0.000345	3.446264	1.167626	0.000138
1840	1.8298e+02	-6.7378	-42.811806	0.000395	3.953068	1.339336	0.000158
1841	1.8308e+02	-6.6977	-42.698766	0.000284	2.838100	0.961574	0.000114
1842	1.8318e+02	-6.6608	-42.537281	0.000405	4.054429	1.373678	0.000162
1843	1.8328e+02	-6.6159	-42.387907	0.000375	3.750346	1.270652	0.000150
1844	1.8338e+02	-6.5758	-42.278904	0.000274	2.736739	0.927232	0.000110
1845	1.8348e+02	-6.5356	-42.182013	0.000243	2.432657	0.824207	0.000097
1846	1.8358e+02	-6.4939	-42.012453	0.000426	4.257150	1.442361	0.000170
1847	1.8368e+02	-6.4618	-41.891339	0.000304	3.040821	1.030258	0.000122
1848	1.8378e+02	-6.4217	-41.758114	0.000334	3.344904	1.133284	0.000134
1849	1.8388e+02	-6.3816	-41.645074	0.000284	2.838100	0.961574	0.000114
1850	1.8398e+02	-6.3431	-41.548182	0.000243	2.432657	0.824207	0.000097
1851	1.8407e+02	-6.3030	-41.423031	0.000314	3.142182	1.064600	0.000126
1852	1.8417e+02	-6.2629	-41.249434	0.000436	4.358511	1.476703	0.000174
1853	1.8427e+02	-6.2212	-41.184840	0.000162	1.621771	0.549471	0.000065
1854	1.8437e+02	-6.1779	-41.019318	0.000416	4.155789	1.408020	0.000166
1855	1.8447e+02	-6.1426	-40.914352	0.000264	2.635379	0.892890	0.000105
1856	1.8457e+02	-6.1009	-40.797275	0.000294	2.939461	0.995916	0.000118
1857	1.8467e+02	-6.0592	-40.647901	0.000375	3.750346	1.270652	0.000150
1858	1.8477e+02	-6.0207	-40.506601	0.000355	3.547625	1.201968	0.000142
1859	1.8487e+02	-5.9822	-40.425859	0.000203	2.027214	0.686839	0.000081
1860	1.8497e+02	-5.9389	-40.264373	0.000405	4.054429	1.373678	0.000162
1861	1.8507e+02	-5.8972	-40.163445	0.000253	2.534018	0.858548	0.000101
1862	1.8517e+02	-5.8619	-40.042331	0.000304	3.040821	1.030258	0.000122
1863	1.8527e+02	-5.8218	-39.921217	0.000304	3.040821	1.030258	0.000122
1864	1.8537e+02	-5.7817	-39.779917	0.000355	3.547625	1.201968	0.000142
1865	1.8547e+02	-5.7448	-39.654766	0.000314	3.142182	1.064600	0.000126
1866	1.8557e+02	-5.7127	-39.529615	0.000314	3.142182	1.064600	0.000126
1867	1.8567e+02	-5.6613	-39.436760	0.000233	2.331296	0.789865	0.000093
1868	1.8577e+02	-5.6260	-39.291424	0.000365	3.648986	1.236310	0.000146
1869	1.8587e+02	-5.5843	-39.121864	0.000426	4.257150	1.442361	0.000170
1870	1.8597e+02	-5.5426	-38.960378	0.000405	4.054429	1.373678	0.000162
1871	1.8606e+02	-5.4961	-38.738336	0.000557	5.574839	1.888807	0.000223
1872	1.8616e+02	-5.4736	-38.621259	0.000294	2.939461	0.995916	0.000118
1873	1.8626e+02	-5.4255	-38.411328	0.000527	5.270757	1.785781	0.000211
1874	1.8636e+02	-5.3870	-38.286177	0.000314	3.142182	1.064600	0.000126
1875	1.8646e+02	-5.3421	-38.116617	0.000426	4.257150	1.442361	0.000170
1876	1.8656e+02	-5.2988	-37.967243	0.000375	3.750346	1.270652	0.000150
1877	1.8666e+02	-5.2683	-37.785572	0.000456	4.561232	1.545387	0.000183
1878	1.8676e+02	-5.2218	-37.624087	0.000405	4.054429	1.373678	0.000162
1879	1.8686e+02	-5.1833	-37.502972	0.000304	3.040821	1.030258	0.000122
1880	1.8696e+02	-5.1480	-37.305153	0.000497	4.966675	1.682755	0.000199
1881	1.8706e+02	-5.1111	-37.180002	0.000314	3.142182	1.064600	0.000126
1882	1.8716e+02	-5.0678	-37.030628	0.000375	3.750346	1.270652	0.000150
1883	1.8726e+02	-5.0309	-36.901439	0.000324	3.243543	1.098942	0.000130
1884	1.8736e+02	-4.9827	-36.768214	0.000334	3.344904	1.133284	0.000134
1885	1.8746e+02	-4.9394	-36.626914	0.000355	3.547625	1.201968	0.000142
1886	1.8756e+02	-4.9073	-36.457354	0.000426	4.257150	1.442361	0.000170
1887	1.8766e+02	-4.8608	-36.320092	0.000345	3.446264	1.167626	0.000138
1888	1.8776e+02	-4.8271	-36.126309	0.000487	4.865314	1.648413	0.000195
1889	1.8786e+02	-4.7870	-36.017306	0.000274	2.736739	0.927232	0.000110
1890	1.8796e+02	-4.7469	-35.795264	0.000557	5.574839	1.888807	0.000223
1891	1.8806e+02	-4.7100	-35.662039	0.000334	3.344904	1.133284	0.000134
1892	1.8815e+02	-4.6651	-35.484405	0.000446	4.459871	1.511045	0.000179
1893	1.8825e+02	-4.6282	-35.343105	0.000355	3.547625	1.201968	0.000142
1894	1.8835e+02	-4.5817	-35.221991	0.000304	3.040821	1.030258	0.000122
1895	1.8845e+02	-4.5592	-35.112988	0.000274	2.736739	0.927232	0.000110
1896	1.8855e+02	-4.5175	-34.975725	0.000345	3.446264	1.167626	0.000138
1897	1.8865e+02	-4.4646	-34.810203	0.000416	4.155789	1.408020	0.000166
1898	1.8875e+02	-4.4293	-34.648717	0.000405	4.054429	1.373678	0.000162
1899	1.8885e+02	-4.3796	-34.479158	0.000426	4.257150	1.442361	0.000170
1900	1.8895e+02	-4.3523	-34.349969	0.000324	3.243543	1.098942	0.000130
1901	1.8905e+02	-4.3058	-34.180410	0.000426	4.257150	1.442361	0.000170
1902	1.8915e+02	-4.2785	-34.018924	0.000405	4.054429	1.373678	0.000162
1903	1.8925e+02	-4.2223	-33.853402	0.000416	4.155789	1.408020	0.000166
1904	1.8935e+02	-4.1903	-33.699991	0.000385	3.851707	1.304994	0.000154
1905	1.8945e+02	-4.1405	-33.558691	0.000355	3.547625	1.201968	0.000142
1906	1.8955e+02	-4.1149	-33.360871	0.000497	4.966675	1.682755	0.000199
1907	1.8965e+02	-4.0715	-33.207460	0.000385	3.851707	1.304994	0.000154
1908	1.8975e+02	-4.0298	-33.094420	0.000284	2.838100	0.961574	0.000114
1909	1.8985e+02	-3.9994	-32.928898	0.000416	4.155789	1.408020	0.000166
1910	1.8995e+02	-3.9560	-32.759338	0.000426	4.257150	1.442361	0.000170
1911	1.9004e+02	-3.9127	-32.622075	0.000345	3.446264	1.167626	0.000138
1912	1.9014e+02	-3.8694	-32.513073	0.000274	2.736739	0.927232	0.000110
1913	1.9024e+02	-3.8293	-32.347550	0.000416	4.155789	1.408020	0.000166
1914	1.9034e+02	-3.7908	-32.246622	0.000253	2.534018	0.858548	0.000101
1915	1.9044e+02	-3.7443	-32.137619	0.000274	2.736739	0.927232	0.000110
1916	1.9054e+02	-3.7138	-31.984208	0.000385	3.851707	1.304994	0.000154
1917	1.9064e+02	-3.6721	-31.842908	0.000355	3.547625	1.201968	0.000142
1918	1.9074e+02	-3.6352	-31.701608	0.000355	3.547625	1.201968	0.000142
1919	1.9084e+02	-3.5903	-31.515900	0.000466	4.662593	1.579729	0.000187
1920	1.9094e+02	-3.5534	-31.414972	0.000253	2.534018	0.858548	0.000101
1921	1.9104e+02	-3.5036	-31.269635	0.000365	3.648986	1.236310	0.000146
1922	1.9114e+02	-3.4667	-31.140447	0.000324	3.243543	1.098942	0.000130
1923	1.9124e+02	-3.4379	-30.991072	0.000375	3.750346	1.270652	0.000150
1924	1.9134e+02	-3.3881	-30.861884	0.000324	3.243543	1.098942	0.000130
1925	1.9144e+02	-3.3496	-30.720584	0.000355	3.547625	1.201968	0.000142
1926	1.9154e+02	-3.3256	-30.607545	0.000284	2.838100	0.961574	0.000114
1927	1.9164e+02	-3.2678	-30.454133	0.000385	3.851707	1.304994	0.000154
1928	1.9174e+02	-3.2261	-30.292648	0.000405	4.054429	1.373678	0.000162
1929	1.9184e+02	-3.1940	-30.143274	0.000375	3.750346	1.270652	0.000150
1930	1.9194e+02	-3.1459	-30.006011	0.000345	3.446264	1.167626	0.000138
1931	1.9203e+02	-3.1138	-29.905083	0.000253	2.534018	0.858548	0.000101
1932	1.9213e+02	-3.0689	-29.695152	0.000527	5.270757	1.785781	0.000211
1933	1.9223e+02	-3.0368	-29.642669	0.000132	1.317689	0.446445	0.000053
1934	1.9233e+02	-2.9919	-29.501369	0.000355	3.547625	1.201968	0.000142
1935	1.9243e+02	-2.9614	-29.392367	0.000274	2.736739	0.927232	0.000110
1936	1.9253e+02	-2.9149	-29.202621	0.000476	4.763954	1.614071	0.000191
1937	1.9263e+02	-2.8684	-29.077470	0.000314	3.142182	1.064600	0.000126
1938	1.9273e+02	-2.8315	-29.008839	0.000172	1.723132	0.583813	0.000069
1939	1.9283e+02	-2.7930	-28.798908	0.000527	5.270757	1.785781	0.000211
1940	1.9293e+02	-2.7593	-28.633385	0.000416	4.155789	1.408020	0.000166
1941	1.9303e+02	-2.7208	-28.484011	0.000375	3.750346	1.270652	0.000150
1942	1.9313e+02	-2.6743	-28.318489	0.000416	4.155789	1.408020	0.000166
1943	1.9323e+02	-2.6374	-28.157003	0.000405	4.054429	1.373678	0.000162
1944	1.9333e+02	-2.6021	-28.011666	0.000365	3.648986	1.236310	0.000146
1945	1.9343e+02	-2.5523	-27.866329	0.000365	3.648986	1.236310	0.000146
1946	1.9353e+02	-2.5154	-27.716955	0.000375	3.750346	1.270652	0.000150
1947	1.9363e+02	-2.4801	-27.547396	0.000426	4.257150	1.442361	0.000170
1948	1.9373e+02	-2.4416	-27.446467	0.000253	2.534018	0.858548	0.000101
1949	1.9383e+02	-2.4047	-27.252685	0.000487	4.865314	1.648413	0.000195
1950	1.9393e+02	-2.3598	-27.091199	0.000405	4.054429	1.373678	0.000162
1951	1.9403e+02	-2.3213	-26.881268	0.000527	5.270757	1.785781	0.000211
1952	1.9412e+02	-2.2828	-26.727857	0.000385	3.851707	1.304994	0.000154
1953	1.9422e+02	-2.2411	-26.534075	0.000487	4.865314	1.648413	0.000195
1954	1.9432e+02	-2.2042	-26.348366	0.000466	4.662593	1.579729	0.000187
1955	1.9442e+02	-2.1561	-26.203030	0.000365	3.648986	1.236310	0.000146
1956	1.9452e+02	-2.1224	-26.089990	0.000284	2.838100	0.961574	0.000114
1957	1.9462e+02	-2.0775	-25.912356	0.000446	4.459871	1.511045	0.000179
1958	1.9472e+02	-2.0326	-25.738759	0.000436	4.358511	1.476703	0.000174
1959	1.9482e+02	-1.9973	-25.577273	0.000405	4.054429	1.373678	0.000162
1960	1.9492e+02	-1.9475	-25.452122	0.000314	3.142182	1.064600	0.000126
1961	1.9502e+02	-1.9203	-25.274488	0.000446	4.459871	1.511045	0.000179
1962	1.9512e+02	-1.8786	-25.133189	0.000355	3.547625	1.201968	0.000142
1963	1.9522e+02	-1.8352	-24.991889	0.000355	3.547625	1.201968	0.000142
1964	1.9532e+02	-1.7903	-24.834440	0.000395	3.953068	1.339336	0.000158
1965	1.9542e+02	-1.7566	-24.693141	0.000355	3.547625	1.201968	0.000142
1966	1.9552e+02	-1.7246	-24.572027	0.000304	3.040821	1.030258	0.000122
1967	1.9562e+02	-1.6732	-24.386318	0.000466	4.662593	1.579729	0.000187
1968	1.9572e+02	-1.6283	-24.200610	0.000466	4.662593	1.579729	0.000187
1969	1.9582e+02	-1.5946	-24.014902	0.000466	4.662593	1.579729	0.000187
1970	1.9592e+02	-1.5609	-23.849379	0.000416	4.155789	1.408020	0.000166
1971	1.9601e+02	-1.5160	-23.643485	0.000517	5.169396	1.751439	0.000207
1972	1.9611e+02	-1.4743	-23.473926	0.000426	4.257150	1.442361	0.000170
1973	1.9621e+02	-1.4422	-23.296292	0.000446	4.459871	1.511045	0.000179
1974	1.9631e+02	-1.4069	-23.159029	0.000345	3.446264	1.167626	0.000138
1975	1.9641e+02	-1.3604	-22.969284	0.000476	4.763954	1.614071	0.000191
1976	1.9651e+02	-1.3235	-22.819910	0.000375	3.750346	1.270652	0.000150
1977	1.9661e+02	-1.2770	-22.654387	0.000416	4.155789	1.408020	0.000166
1978	1.9671e+02	-1.2513	-22.525199	0.000324	3.243543	1.098942	0.000130
1979	1.9681e+02	-1.1952	-22.355639	0.000426	4.257150	1.442361	0.000170
1980	1.9691e+02	-1.1647	-22.169931	0.000466	4.662593	1.579729	0.000187
1981	1.9701e+02	-1.1198	-22.028631	0.000355	3.547625	1.201968	0.000142
1982	1.9711e+02	-1.0813	-21.762180	0.000669	6.689807	2.266568	0.000268
1983	1.9721e+02	-1.0411	-21.600695	0.000405	4.054429	1.373678	0.000162
1984	1.9731e+02	-0.9994	-21.410949	0.000476	4.763954	1.614071	0.000191
1985	1.9741e+02	-0.9593	-21.184870	0.000568	5.676200	1.923149	0.000227
1986	1.9751e+02	-0.9144	-21.015310	0.000426	4.257150	1.442361	0.000170
1987	1.9761e+02	-0.8823	-20.845750	0.000426	4.257150	1.442361	0.000170
1988	1.9771e+02	-0.8406	-20.700413	0.000365	3.648986	1.236310	0.000146
1989	1.9781e+02	-0.7973	-20.506631	0.000487	4.865314	1.648413	0.000195
1990	1.9791e+02	-0.7588	-20.304774	0.000507	5.068036	1.717097	0.000203
1991	1.9800e+02	-0.7155	-20.163474	0.000355	3.547625	1.201968	0.000142
1992	1.9810e+02	-0.6802	-20.006026	0.000395	3.953068	1.339336	0.000158
1993	1.9820e+02	-0.6497	-19.804169	0.000507	5.068036	1.717097	0.000203
1994	1.9830e+02	-0.6000	-19.650758	0.000385	3.851707	1.304994	0.000154
1995	1.9840e+02	-0.5679	-19.392382	0.000649	6.487086	2.197884	0.000260
1996	1.9850e+02	-0.5182	-19.113819	0.000699	6.993889	2.369594	0.000280
1997	1.9860e+02	-0.4749	-18.823145	0.000730	7.297971	2.472620	0.000292
1998	1.9870e+02	-0.4315	-18.560732	0.000659	6.588446	2.232226	0.000264
1999	1.9880e+02	-0.4011	-18.314466	0.000618	6.183004	2.094858	0.000248
2000	1.9890e+02	-0.3593	-17.999570	0.000791	7.906136	2.678671	0.000316
2001	1.9900e+02	-0.3225	-17.793676	0.000517	5.169396	1.751439	0.000207
2002	1.9910e+02	-0.2856	-17.535299	0.000649	6.487086	2.197884	0.000260
2003	1.9920e+02	-0.2454	-17.333442	0.000507	5.068036	1.717097	0.000203
2004	1.9930e+02	-0.1989	-17.107363	0.000568	5.676200	1.923149	0.000227
2005	1.9940e+02	-0.1668	-16.945877	0.000405	4.054429	1.373678	0.000162
2006	1.9950e+02	-0.1235	-16.723835	0.000557	5.574839	1.888807	0.000223
2007	1.9960e+02	-0.0834	-16.530052	0.000487	4.865314	1.648413	0.000195
2008	1.9970e+02	-0.0433	-16.340307	0.000476	4.763954	1.614071	0.000191
2009	1.9980e+02	0.0000	-16.130376	0.000476	4.763954	1.614071	0.000211

Center data before PMax,+/-Pr and +/-Vc Calc.

PMax (uC/cm2):	6.87e+01
Pr (uC/cm2):	1.08e+01
-Pr (uC/cm2):	-1.61e+01
PLoss (uC/cm2):	-1.13e+01
Vc:	2.64e+00
-Vc:	-2.03e+00
C (Max-Eff) (nF):	3.44e-01
K (Eff):	1.16e+03
Vert. (+/-Pr) Shift (uC/cm2):	-2.65e+00
Horiz. Shift (+/-Vc):	3.05e-01
Offset (uC/cm2):	4.83e+00

A (Loop Area - uC/cm2·Volts):	4.88e-02



Hysteresis Version: 5.48.1 - Radiant Technologies, Inc., 1999 - 9/12/24

