»»»»»»»»»»»»»»»»»»»»»»»»»»»»»»»»»»»» Hysteresis ««««««««««««««««««««««««««««««««««««
»»»  Executed Version:	5.48.1
»»»  Vision Version:	5.48.4 (R)
»»»  Vision Compiled:	9/18/24
»»»  Driver Version:	5.47.0
»»»  Windows Version:	Windows 8 or 8.1
»»»  Processor Information:	x86 (AMD or Intel) - 32 Processors
»»»  Tester Name:	PMF21124-494 (100V)
»»»  Tester S/N:	PMF21124-494
»»»  Internal Amp Type:	100V RevK 270k
»»»  Internal Amp S/N:	iAB2-596/K     
»»»  Execution Count:	1
»»»»»»»»»»»»»»»»»»»»»»»»»»»»»»»»»»»»»»»»»»««««««««««««««««««««««««««««««««««««««««««

Stored:	6/11/2025 - 11:49:39
Configured:	06/11/25 10:21:25 AM
Executed:	06/11/25 11:48:08 AM

»»»»»»»»»»»»»»»»»»»»»»»»»»»»»»»»»»» Sample Info ««««««««««««««««««««««««««««««««««««
Sample Name:	
Lot Name:	
Wafer Name:	
Die Row/Column:	0/0
Capacitor Number:	0
Sample Area (cm2):	1.00e-04
Sample Thickness (microns):	3.00e-01

Amplifier:	Internal

»»»»»»»»»»»»»»»»»»»»»»»»»»»»»»»»»»» Tester Info «««««««««««««««««««««««««««««««««««
Tester Name:	PMF21124-494 (100V)
Tester Serial Number:	PMF21124-494
Return Signal Amp. Level:	0.19 [Index: 3]

»»»»»»»»»»»»»»»»»»»»»»»»»»»»»»»» Hysteresis Info ««««««««««««««««««««««««««««««««««
Task Name:	Hyst-1175
Volts:	20.00
Field:	666.67 (kV/cm)
DCBias:	0.00
DCField:	0.00 (kV/cm)
Hysteresis Period (ms):	2.00e+02
Preset:	Enabled
Preset Delay (ms):	1.00e+03
Profile:	Standard Bipolar

»»»»»»»»»»»»»»»»»»»»»»»»»»»»»»»»»»»»»» Data «««««««««««««««««««««««««««««««««««««««
Points:	2009

Valid Data

Point	Time (ms)	Drive Voltage	Measured Polarization (uC/cm2)	Capacitance (uF)	Normalized Capacitance (uF/cm2)	Dielectric Constant	Instantaneous Current (mA)
   1	0.0000e+00	-0.0016	-4.156231	0.000051	0.506590	0.171637	0.000020
   2	9.9500e-02	0.0289	-4.136046	0.000051	0.506590	0.171637	0.000020
   3	1.9900e-01	0.0674	-4.172380	-0.000091	-0.911862	-0.308947	-0.000037
   4	2.9850e-01	0.1171	-4.132008	0.000101	1.013180	0.343275	0.000041
   5	3.9800e-01	0.1508	-4.172380	-0.000101	-1.013180	-0.343275	-0.000041
   6	4.9750e-01	0.1973	-4.136046	0.000091	0.911862	0.308947	0.000037
   7	5.9700e-01	0.2358	-4.059340	0.000193	1.925043	0.652222	0.000077
   8	6.9650e-01	0.2679	-4.091637	-0.000081	-0.810544	-0.274620	-0.000032
   9	7.9600e-01	0.2984	-4.067414	0.000061	0.607908	0.205965	0.000024
  10	8.9550e-01	0.3497	-4.010894	0.000142	1.418453	0.480585	0.000057
  11	9.9500e-01	0.3898	-4.023006	-0.000030	-0.303954	-0.102982	-0.000012
  12	1.0945e+00	0.4315	-3.946300	0.000193	1.925043	0.652222	0.000077
  13	1.1940e+00	0.4732	-3.926115	0.000051	0.506590	0.171637	0.000020
  14	1.2935e+00	0.5134	-3.857483	0.000172	1.722407	0.583567	0.000069
  15	1.3930e+00	0.5583	-3.800963	0.000142	1.418453	0.480585	0.000057
  16	1.4925e+00	0.5855	-3.756555	0.000111	1.114498	0.377602	0.000045
  17	1.5920e+00	0.6273	-3.756555	0.000000	0.000000	0.000000	0.000000
  18	1.6915e+00	0.6754	-3.671775	0.000213	2.127679	0.720877	0.000085
  19	1.7910e+00	0.7123	-3.578921	0.000233	2.330315	0.789532	0.000093
  20	1.8905e+00	0.7460	-3.542587	0.000091	0.911862	0.308947	0.000037
  21	1.9900e+00	0.7893	-3.506252	0.000091	0.911862	0.308947	0.000037
  22	2.0895e+00	0.8310	-3.401287	0.000263	2.634269	0.892514	0.000105
  23	2.1890e+00	0.8679	-3.377064	0.000061	0.607908	0.205965	0.000024
  24	2.2885e+00	0.9112	-3.296321	0.000203	2.026361	0.686550	0.000081
  25	2.3880e+00	0.9545	-3.195393	0.000253	2.532951	0.858187	0.000101
  26	2.4875e+00	0.9914	-3.126762	0.000172	1.722407	0.583567	0.000069
  27	2.5870e+00	1.0315	-3.054093	0.000182	1.823725	0.617895	0.000073
  28	2.6865e+00	1.0684	-2.941053	0.000284	2.836905	0.961169	0.000114
  29	2.7860e+00	1.1037	-2.916831	0.000061	0.607908	0.205965	0.000024
  30	2.8855e+00	1.1454	-2.771494	0.000365	3.647449	1.235789	0.000146
  31	2.9850e+00	1.1903	-2.706900	0.000162	1.621089	0.549240	0.000065
  32	3.0845e+00	1.2288	-2.626157	0.000203	2.026361	0.686550	0.000081
  33	3.1840e+00	1.2657	-2.521191	0.000263	2.634269	0.892514	0.000105
  34	3.2835e+00	1.2994	-2.416226	0.000263	2.634269	0.892514	0.000105
  35	3.3830e+00	1.3395	-2.375854	0.000101	1.013180	0.343275	0.000041
  36	3.4825e+00	1.3909	-2.250703	0.000314	3.140859	1.064152	0.000126
  37	3.5820e+00	1.4310	-2.121515	0.000324	3.242177	1.098479	0.000130
  38	3.6815e+00	1.4663	-1.976178	0.000365	3.647449	1.235789	0.000146
  39	3.7810e+00	1.5000	-1.899472	0.000193	1.925043	0.652222	0.000077
  40	3.8805e+00	1.5497	-1.778358	0.000304	3.039541	1.029824	0.000122
  41	3.9800e+00	1.5882	-1.604761	0.000436	4.356676	1.476082	0.000174
  42	4.0795e+00	1.6299	-1.560353	0.000111	1.114498	0.377602	0.000045
  43	4.1790e+00	1.6652	-1.402905	0.000395	3.951403	1.338772	0.000158
  44	4.2785e+00	1.7133	-1.253531	0.000375	3.748767	1.270117	0.000150
  45	4.3780e+00	1.7550	-1.132417	0.000304	3.039541	1.029824	0.000122
  46	4.4775e+00	1.7855	-1.007265	0.000314	3.140859	1.064152	0.000126
  47	4.5770e+00	1.8272	-0.833669	0.000436	4.356676	1.476082	0.000174
  48	4.6765e+00	1.8593	-0.720629	0.000284	2.836905	0.961169	0.000114
  49	4.7760e+00	1.8978	-0.547032	0.000436	4.356676	1.476082	0.000174
  50	4.8755e+00	1.9443	-0.425918	0.000304	3.039541	1.029824	0.000122
  51	4.9750e+00	1.9828	-0.268470	0.000395	3.951403	1.338772	0.000158
  52	5.0745e+00	2.0213	-0.143318	0.000314	3.140859	1.064152	0.000126
  53	5.1740e+00	2.0566	0.014130	0.000395	3.951403	1.338772	0.000158
  54	5.2735e+00	2.1064	0.175615	0.000405	4.052721	1.373099	0.000162
  55	5.3730e+00	2.1513	0.320952	0.000365	3.647449	1.235789	0.000146
  56	5.4725e+00	2.1802	0.458215	0.000344	3.444813	1.167134	0.000138
  57	5.5720e+00	2.2267	0.647960	0.000476	4.761948	1.613392	0.000191
  58	5.6715e+00	2.2604	0.805409	0.000395	3.951403	1.338772	0.000158
  59	5.7710e+00	2.3021	0.979005	0.000436	4.356676	1.476082	0.000174
  60	5.8705e+00	2.3454	1.120305	0.000355	3.546131	1.201462	0.000142
  61	5.9700e+00	2.3807	1.293902	0.000436	4.356676	1.476082	0.000174
  62	6.0695e+00	2.4208	1.443276	0.000375	3.748767	1.270117	0.000150
  63	6.1690e+00	2.4737	1.637059	0.000486	4.863266	1.647719	0.000195
  64	6.2685e+00	2.5058	1.790470	0.000385	3.850085	1.304444	0.000154
  65	6.3680e+00	2.5331	1.915621	0.000314	3.140859	1.064152	0.000126
  66	6.4675e+00	2.5860	2.161886	0.000618	6.180400	2.093976	0.000248
  67	6.5670e+00	2.6277	2.270889	0.000274	2.735587	0.926842	0.000110
  68	6.6665e+00	2.6694	2.456597	0.000466	4.660630	1.579064	0.000187
  69	6.7660e+00	2.7015	2.642305	0.000466	4.660630	1.579064	0.000187
  70	6.8655e+00	2.7416	2.795716	0.000385	3.850085	1.304444	0.000154
  71	6.9650e+00	2.7801	2.993536	0.000496	4.964584	1.682047	0.000199
  72	7.0645e+00	2.8267	3.155022	0.000405	4.052721	1.373099	0.000162
  73	7.1640e+00	2.8620	3.296321	0.000355	3.546131	1.201462	0.000142
  74	7.2635e+00	2.9053	3.461844	0.000415	4.154039	1.407427	0.000166
  75	7.3630e+00	2.9357	3.663701	0.000507	5.065902	1.716374	0.000203
  76	7.4625e+00	2.9871	3.821149	0.000395	3.951403	1.338772	0.000158
  77	7.5620e+00	3.0304	4.010894	0.000476	4.761948	1.613392	0.000191
  78	7.6615e+00	3.0561	4.208714	0.000496	4.964584	1.682047	0.000199
  79	7.7610e+00	3.1026	4.350014	0.000355	3.546131	1.201462	0.000142
  80	7.8605e+00	3.1427	4.483239	0.000334	3.343495	1.132807	0.000134
  81	7.9600e+00	3.1844	4.664910	0.000456	4.559312	1.544737	0.000183
  82	8.0595e+00	3.2197	4.790062	0.000314	3.140859	1.064152	0.000126
  83	8.1590e+00	3.2614	4.915213	0.000314	3.140859	1.064152	0.000126
  84	8.2585e+00	3.2983	5.113032	0.000496	4.964584	1.682047	0.000199
  85	8.3580e+00	3.3416	5.230109	0.000294	2.938223	0.995497	0.000118
  86	8.4575e+00	3.3689	5.395632	0.000415	4.154039	1.407427	0.000166
  87	8.5570e+00	3.4122	5.540969	0.000365	3.647449	1.235789	0.000146
  88	8.6565e+00	3.4555	5.690343	0.000375	3.748767	1.270117	0.000150
  89	8.7560e+00	3.4988	5.835680	0.000365	3.647449	1.235789	0.000146
  90	8.8555e+00	3.5405	5.985054	0.000375	3.748767	1.270117	0.000150
  91	8.9550e+00	3.5694	6.130391	0.000365	3.647449	1.235789	0.000146
  92	9.0545e+00	3.6143	6.275728	0.000365	3.647449	1.235789	0.000146
  93	9.1540e+00	3.6641	6.441250	0.000415	4.154039	1.407427	0.000166
  94	9.2535e+00	3.6962	6.598698	0.000395	3.951403	1.338772	0.000158
  95	9.3530e+00	3.7330	6.800555	0.000507	5.065902	1.716374	0.000203
  96	9.4525e+00	3.7699	6.941855	0.000355	3.546131	1.201462	0.000142
  97	9.5520e+00	3.8165	7.115452	0.000436	4.356676	1.476082	0.000174
  98	9.6515e+00	3.8630	7.268863	0.000385	3.850085	1.304444	0.000154
  99	9.7510e+00	3.8967	7.430348	0.000405	4.052721	1.373099	0.000162
 100	9.8505e+00	3.9448	7.575685	0.000365	3.647449	1.235789	0.000146
 101	9.9500e+00	3.9769	7.781579	0.000517	5.167220	1.750701	0.000207
 102	1.0050e+01	4.0090	7.934990	0.000385	3.850085	1.304444	0.000154
 103	1.0149e+01	4.0539	8.056104	0.000304	3.039541	1.029824	0.000122
 104	1.0248e+01	4.0988	8.225664	0.000426	4.255358	1.441754	0.000170
 105	1.0348e+01	4.1453	8.415409	0.000476	4.761948	1.613392	0.000191
 106	1.0447e+01	4.1774	8.560746	0.000365	3.647449	1.235789	0.000146
 107	1.0547e+01	4.2175	8.714157	0.000385	3.850085	1.304444	0.000154
 108	1.0646e+01	4.2528	8.843346	0.000324	3.242177	1.098479	0.000130
 109	1.0746e+01	4.2977	9.037128	0.000486	4.863266	1.647719	0.000195
 110	1.0845e+01	4.3362	9.198614	0.000405	4.052721	1.373099	0.000162
 111	1.0945e+01	4.3763	9.388359	0.000476	4.761948	1.613392	0.000191
 112	1.1044e+01	4.4132	9.578105	0.000476	4.761948	1.613392	0.000191
 113	1.1144e+01	4.4598	9.715367	0.000344	3.444813	1.167134	0.000138
 114	1.1243e+01	4.4935	9.925298	0.000527	5.268538	1.785029	0.000211
 115	1.1343e+01	4.5400	10.074672	0.000375	3.748767	1.270117	0.000150
 116	1.1443e+01	4.5785	10.256343	0.000456	4.559312	1.544737	0.000183
 117	1.1542e+01	4.6090	10.377457	0.000304	3.039541	1.029824	0.000122
 118	1.1642e+01	4.6571	10.567203	0.000476	4.761948	1.613392	0.000191
 119	1.1741e+01	4.6940	10.748874	0.000456	4.559312	1.544737	0.000183
 120	1.1841e+01	4.7373	10.874025	0.000314	3.140859	1.064152	0.000126
 121	1.1940e+01	4.7710	11.051659	0.000446	4.457994	1.510409	0.000179
 122	1.2040e+01	4.8191	11.241404	0.000476	4.761948	1.613392	0.000191
 123	1.2139e+01	4.8448	11.366556	0.000314	3.140859	1.064152	0.000126
 124	1.2239e+01	4.8977	11.548227	0.000456	4.559312	1.544737	0.000183
 125	1.2338e+01	4.9330	11.717786	0.000426	4.255358	1.441754	0.000170
 126	1.2438e+01	4.9731	11.863123	0.000365	3.647449	1.235789	0.000146
 127	1.2537e+01	5.0132	12.016535	0.000385	3.850085	1.304444	0.000154
 128	1.2636e+01	5.0549	12.169946	0.000385	3.850085	1.304444	0.000154
 129	1.2736e+01	5.0854	12.375840	0.000517	5.167220	1.750701	0.000207
 130	1.2835e+01	5.1287	12.557511	0.000456	4.559312	1.544737	0.000183
 131	1.2935e+01	5.1753	12.682662	0.000314	3.140859	1.064152	0.000126
 132	1.3034e+01	5.2186	12.832036	0.000375	3.748767	1.270117	0.000150
 133	1.3134e+01	5.2507	12.924890	0.000233	2.330315	0.789532	0.000093
 134	1.3233e+01	5.2972	13.142895	0.000547	5.471174	1.853684	0.000219
 135	1.3333e+01	5.3277	13.332641	0.000476	4.761948	1.613392	0.000191
 136	1.3432e+01	5.3742	13.510275	0.000446	4.457994	1.510409	0.000179
 137	1.3532e+01	5.4127	13.607166	0.000243	2.431633	0.823860	0.000097
 138	1.3632e+01	5.4560	13.817097	0.000527	5.268538	1.785029	0.000211
 139	1.3731e+01	5.4945	13.962434	0.000365	3.647449	1.235789	0.000146
 140	1.3831e+01	5.5314	14.119882	0.000395	3.951403	1.338772	0.000158
 141	1.3930e+01	5.5747	14.281368	0.000405	4.052721	1.373099	0.000162
 142	1.4030e+01	5.6084	14.402482	0.000304	3.039541	1.029824	0.000122
 143	1.4129e+01	5.6533	14.600301	0.000496	4.964584	1.682047	0.000199
 144	1.4229e+01	5.6982	14.729490	0.000324	3.242177	1.098479	0.000130
 145	1.4328e+01	5.7335	14.895012	0.000415	4.154039	1.407427	0.000166
 146	1.4428e+01	5.7608	15.064572	0.000426	4.255358	1.441754	0.000170
 147	1.4527e+01	5.8073	15.234132	0.000426	4.255358	1.441754	0.000170
 148	1.4627e+01	5.8426	15.367357	0.000334	3.343495	1.132807	0.000134
 149	1.4726e+01	5.8859	15.536917	0.000426	4.255358	1.441754	0.000170
 150	1.4825e+01	5.9260	15.678217	0.000355	3.546131	1.201462	0.000142
 151	1.4925e+01	5.9661	15.839702	0.000405	4.052721	1.373099	0.000162
 152	1.5024e+01	6.0014	16.021373	0.000456	4.559312	1.544737	0.000183
 153	1.5124e+01	6.0480	16.154599	0.000334	3.343495	1.132807	0.000134
 154	1.5223e+01	6.0881	16.291861	0.000344	3.444813	1.167134	0.000138
 155	1.5323e+01	6.1218	16.437198	0.000365	3.647449	1.235789	0.000146
 156	1.5422e+01	6.1683	16.606758	0.000426	4.255358	1.441754	0.000170
 157	1.5522e+01	6.2084	16.776318	0.000426	4.255358	1.441754	0.000170
 158	1.5621e+01	6.2581	16.901469	0.000314	3.140859	1.064152	0.000126
 159	1.5721e+01	6.2870	17.054880	0.000385	3.850085	1.304444	0.000154
 160	1.5820e+01	6.3351	17.216365	0.000405	4.052721	1.373099	0.000162
 161	1.5920e+01	6.3704	17.389962	0.000436	4.356676	1.476082	0.000174
 162	1.6020e+01	6.4105	17.555485	0.000415	4.154039	1.407427	0.000166
 163	1.6119e+01	6.4490	17.696785	0.000355	3.546131	1.201462	0.000142
 164	1.6218e+01	6.4875	17.878456	0.000456	4.559312	1.544737	0.000183
 165	1.6318e+01	6.5324	18.039941	0.000405	4.052721	1.373099	0.000162
 166	1.6418e+01	6.5725	18.177204	0.000344	3.444813	1.167134	0.000138
 167	1.6517e+01	6.5966	18.326578	0.000375	3.748767	1.270117	0.000150
 168	1.6616e+01	6.6495	18.508249	0.000456	4.559312	1.544737	0.000183
 169	1.6716e+01	6.6848	18.665697	0.000395	3.951403	1.338772	0.000158
 170	1.6816e+01	6.7217	18.855442	0.000476	4.761948	1.613392	0.000191
 171	1.6915e+01	6.7634	18.980594	0.000314	3.140859	1.064152	0.000126
 172	1.7015e+01	6.8068	19.121893	0.000355	3.546131	1.201462	0.000142
 173	1.7114e+01	6.8421	19.283379	0.000405	4.052721	1.373099	0.000162
 174	1.7213e+01	6.8886	19.509458	0.000567	5.673810	1.922339	0.000227
 175	1.7313e+01	6.9383	19.626535	0.000294	2.938223	0.995497	0.000118
 176	1.7413e+01	6.9656	19.792058	0.000415	4.154039	1.407427	0.000166
 177	1.7512e+01	7.0073	19.945469	0.000385	3.850085	1.304444	0.000154
 178	1.7611e+01	7.0442	20.098880	0.000385	3.850085	1.304444	0.000154
 179	1.7711e+01	7.0843	20.264403	0.000415	4.154039	1.407427	0.000166
 180	1.7811e+01	7.1244	20.417814	0.000385	3.850085	1.304444	0.000154
 181	1.7910e+01	7.1613	20.534891	0.000294	2.938223	0.995497	0.000118
 182	1.8009e+01	7.2014	20.736748	0.000507	5.065902	1.716374	0.000203
 183	1.8109e+01	7.2399	20.869973	0.000334	3.343495	1.132807	0.000134
 184	1.8209e+01	7.2848	21.015310	0.000365	3.647449	1.235789	0.000146
 185	1.8308e+01	7.3217	21.192944	0.000446	4.457994	1.510409	0.000179
 186	1.8407e+01	7.3586	21.350392	0.000395	3.951403	1.338772	0.000158
 187	1.8507e+01	7.4067	21.487655	0.000344	3.444813	1.167134	0.000138
 188	1.8607e+01	7.4485	21.624918	0.000344	3.444813	1.167134	0.000138
 189	1.8706e+01	7.4773	21.762180	0.000344	3.444813	1.167134	0.000138
 190	1.8805e+01	7.5222	21.927703	0.000415	4.154039	1.407427	0.000166
 191	1.8905e+01	7.5575	22.077077	0.000375	3.748767	1.270117	0.000150
 192	1.9005e+01	7.6105	22.246636	0.000426	4.255358	1.441754	0.000170
 193	1.9104e+01	7.6458	22.363713	0.000294	2.938223	0.995497	0.000118
 194	1.9203e+01	7.6827	22.545385	0.000456	4.559312	1.544737	0.000183
 195	1.9303e+01	7.7180	22.706870	0.000405	4.052721	1.373099	0.000162
 196	1.9402e+01	7.7613	22.832021	0.000314	3.140859	1.064152	0.000126
 197	1.9502e+01	7.8094	23.025804	0.000486	4.863266	1.647719	0.000195
 198	1.9602e+01	7.8447	23.134806	0.000274	2.735587	0.926842	0.000110
 199	1.9701e+01	7.8672	23.308403	0.000436	4.356676	1.476082	0.000174
 200	1.9800e+01	7.9121	23.445666	0.000344	3.444813	1.167134	0.000138
 201	1.9900e+01	7.9586	23.591003	0.000365	3.647449	1.235789	0.000146
 202	2.0000e+01	8.0083	23.748451	0.000395	3.951403	1.338772	0.000158
 203	2.0099e+01	8.0516	23.893788	0.000365	3.647449	1.235789	0.000146
 204	2.0198e+01	8.0725	24.010865	0.000294	2.938223	0.995497	0.000118
 205	2.0298e+01	8.1238	24.164276	0.000385	3.850085	1.304444	0.000154
 206	2.0398e+01	8.1479	24.257130	0.000233	2.330315	0.789532	0.000093
 207	2.0497e+01	8.2008	24.402467	0.000365	3.647449	1.235789	0.000146
 208	2.0596e+01	8.2393	24.551841	0.000375	3.748767	1.270117	0.000150
 209	2.0696e+01	8.2762	24.676992	0.000314	3.140859	1.064152	0.000126
 210	2.0796e+01	8.3179	24.777921	0.000253	2.532951	0.858187	0.000101
 211	2.0895e+01	8.3516	24.931332	0.000385	3.850085	1.304444	0.000154
 212	2.0994e+01	8.4094	25.060520	0.000324	3.242177	1.098479	0.000130
 213	2.1094e+01	8.4367	25.209894	0.000375	3.748767	1.270117	0.000150
 214	2.1194e+01	8.4896	25.331008	0.000304	3.039541	1.029824	0.000122
 215	2.1293e+01	8.5105	25.435974	0.000263	2.634269	0.892514	0.000105
 216	2.1392e+01	8.5586	25.613608	0.000446	4.457994	1.510409	0.000179
 217	2.1492e+01	8.6003	25.726647	0.000284	2.836905	0.961169	0.000114
 218	2.1591e+01	8.6404	25.827576	0.000253	2.532951	0.858187	0.000101
 219	2.1691e+01	8.6821	25.968876	0.000355	3.546131	1.201462	0.000142
 220	2.1791e+01	8.7254	26.162658	0.000486	4.863266	1.647719	0.000195
 221	2.1890e+01	8.7607	26.263587	0.000253	2.532951	0.858187	0.000101
 222	2.1989e+01	8.8040	26.421035	0.000395	3.951403	1.338772	0.000158
 223	2.2089e+01	8.8345	26.566372	0.000365	3.647449	1.235789	0.000146
 224	2.2189e+01	8.8810	26.687486	0.000304	3.039541	1.029824	0.000122
 225	2.2288e+01	8.9147	26.812637	0.000314	3.140859	1.064152	0.000126
 226	2.2387e+01	8.9484	26.945862	0.000334	3.343495	1.132807	0.000134
 227	2.2487e+01	8.9965	27.083125	0.000344	3.444813	1.167134	0.000138
 228	2.2587e+01	9.0399	27.208276	0.000314	3.140859	1.064152	0.000126
 229	2.2686e+01	9.0671	27.369762	0.000405	4.052721	1.373099	0.000162
 230	2.2785e+01	9.1153	27.486839	0.000294	2.938223	0.995497	0.000118
 231	2.2885e+01	9.1441	27.611990	0.000314	3.140859	1.064152	0.000126
 232	2.2985e+01	9.1939	27.737141	0.000314	3.140859	1.064152	0.000126
 233	2.3084e+01	9.2372	27.850181	0.000284	2.836905	0.961169	0.000114
 234	2.3183e+01	9.2725	28.007629	0.000395	3.951403	1.338772	0.000158
 235	2.3283e+01	9.3174	28.140855	0.000334	3.343495	1.132807	0.000134
 236	2.3383e+01	9.3575	28.286192	0.000365	3.647449	1.235789	0.000146
 237	2.3482e+01	9.3928	28.415380	0.000324	3.242177	1.098479	0.000130
 238	2.3581e+01	9.4345	28.552643	0.000344	3.444813	1.167134	0.000138
 239	2.3681e+01	9.4858	28.673757	0.000304	3.039541	1.029824	0.000122
 240	2.3780e+01	9.5211	28.835242	0.000405	4.052721	1.373099	0.000162
 241	2.3880e+01	9.5532	28.952319	0.000294	2.938223	0.995497	0.000118
 242	2.3980e+01	9.5885	29.105730	0.000385	3.850085	1.304444	0.000154
 243	2.4079e+01	9.6382	29.263178	0.000395	3.951403	1.338772	0.000158
 244	2.4178e+01	9.6783	29.356033	0.000233	2.330315	0.789532	0.000093
 245	2.4278e+01	9.7072	29.493295	0.000344	3.444813	1.167134	0.000138
 246	2.4378e+01	9.7650	29.638632	0.000365	3.647449	1.235789	0.000146
 247	2.4477e+01	9.7906	29.767820	0.000324	3.242177	1.098479	0.000130
 248	2.4576e+01	9.8388	29.884897	0.000294	2.938223	0.995497	0.000118
 249	2.4676e+01	9.8773	30.054457	0.000426	4.255358	1.441754	0.000170
 250	2.4776e+01	9.9077	30.163460	0.000274	2.735587	0.926842	0.000110
 251	2.4875e+01	9.9607	30.324945	0.000405	4.052721	1.373099	0.000162
 252	2.4974e+01	9.9912	30.437985	0.000284	2.836905	0.961169	0.000114
 253	2.5074e+01	10.0281	30.559099	0.000304	3.039541	1.029824	0.000122
 254	2.5174e+01	10.0714	30.700399	0.000355	3.546131	1.201462	0.000142
 255	2.5273e+01	10.1243	30.857847	0.000395	3.951403	1.338772	0.000158
 256	2.5372e+01	10.1580	31.047592	0.000476	4.761948	1.613392	0.000191
 257	2.5472e+01	10.1901	31.120261	0.000182	1.823725	0.617895	0.000073
 258	2.5572e+01	10.2398	31.273672	0.000385	3.850085	1.304444	0.000154
 259	2.5671e+01	10.2735	31.435157	0.000405	4.052721	1.373099	0.000162
 260	2.5770e+01	10.3152	31.540123	0.000263	2.634269	0.892514	0.000105
 261	2.5870e+01	10.3441	31.681423	0.000355	3.546131	1.201462	0.000142
 262	2.5970e+01	10.3922	31.766203	0.000213	2.127679	0.720877	0.000085
 263	2.6069e+01	10.4307	31.931725	0.000415	4.154039	1.407427	0.000166
 264	2.6169e+01	10.4740	32.056876	0.000314	3.140859	1.064152	0.000126
 265	2.6268e+01	10.5093	32.194139	0.000344	3.444813	1.167134	0.000138
 266	2.6367e+01	10.5575	32.335439	0.000355	3.546131	1.201462	0.000142
 267	2.6467e+01	10.5960	32.476738	0.000355	3.546131	1.201462	0.000142
 268	2.6567e+01	10.6313	32.589778	0.000284	2.836905	0.961169	0.000114
 269	2.6666e+01	10.6633	32.751264	0.000405	4.052721	1.373099	0.000162
 270	2.6765e+01	10.7147	32.860266	0.000274	2.735587	0.926842	0.000110
 271	2.6865e+01	10.7468	32.969269	0.000274	2.735587	0.926842	0.000110
 272	2.6965e+01	10.7933	33.134792	0.000415	4.154039	1.407427	0.000166
 273	2.7064e+01	10.8286	33.268017	0.000334	3.343495	1.132807	0.000134
 274	2.7163e+01	10.8655	33.401243	0.000334	3.343495	1.132807	0.000134
 275	2.7263e+01	10.9136	33.494097	0.000233	2.330315	0.789532	0.000093
 276	2.7363e+01	10.9553	33.647508	0.000385	3.850085	1.304444	0.000154
 277	2.7462e+01	10.9874	33.788808	0.000355	3.546131	1.201462	0.000142
 278	2.7561e+01	11.0307	33.942219	0.000385	3.850085	1.304444	0.000154
 279	2.7661e+01	11.0628	34.031036	0.000223	2.228997	0.755205	0.000089
 280	2.7761e+01	11.1093	34.196558	0.000415	4.154039	1.407427	0.000166
 281	2.7860e+01	11.1542	34.261152	0.000162	1.621089	0.549240	0.000065
 282	2.7959e+01	11.1927	34.446861	0.000466	4.660630	1.579064	0.000187
 283	2.8059e+01	11.2264	34.531641	0.000213	2.127679	0.720877	0.000085
 284	2.8159e+01	11.2697	34.701200	0.000426	4.255358	1.441754	0.000170
 285	2.8258e+01	11.3130	34.794054	0.000233	2.330315	0.789532	0.000093
 286	2.8358e+01	11.3516	34.870760	0.000193	1.925043	0.652222	0.000077
 287	2.8457e+01	11.3852	35.036283	0.000415	4.154039	1.407427	0.000166
 288	2.8556e+01	11.4221	35.141248	0.000263	2.634269	0.892514	0.000105
 289	2.8656e+01	11.4638	35.254288	0.000284	2.836905	0.961169	0.000114
 290	2.8756e+01	11.5056	35.359253	0.000263	2.634269	0.892514	0.000105
 291	2.8855e+01	11.5473	35.516702	0.000395	3.951403	1.338772	0.000158
 292	2.8954e+01	11.5842	35.609556	0.000233	2.330315	0.789532	0.000093
 293	2.9054e+01	11.6355	35.726633	0.000294	2.938223	0.995497	0.000118
 294	2.9154e+01	11.6676	35.847747	0.000304	3.039541	1.029824	0.000122
 295	2.9253e+01	11.7141	35.960787	0.000284	2.836905	0.961169	0.000114
 296	2.9352e+01	11.7478	36.089975	0.000324	3.242177	1.098479	0.000130
 297	2.9452e+01	11.7783	36.190903	0.000253	2.532951	0.858187	0.000101
 298	2.9552e+01	11.8184	36.303943	0.000284	2.836905	0.961169	0.000114
 299	2.9651e+01	11.8697	36.400834	0.000243	2.431633	0.823860	0.000097
 300	2.9750e+01	11.9098	36.534060	0.000334	3.343495	1.132807	0.000134
 301	2.9850e+01	11.9531	36.647100	0.000284	2.836905	0.961169	0.000114
 302	2.9950e+01	11.9788	36.752065	0.000263	2.634269	0.892514	0.000105
 303	3.0049e+01	12.0301	36.889328	0.000344	3.444813	1.167134	0.000138
 304	3.0148e+01	12.0606	36.982182	0.000233	2.330315	0.789532	0.000093
 305	3.0248e+01	12.1055	37.091185	0.000274	2.735587	0.926842	0.000110
 306	3.0348e+01	12.1473	37.216336	0.000314	3.140859	1.064152	0.000126
 307	3.0447e+01	12.1922	37.293041	0.000193	1.925043	0.652222	0.000077
 308	3.0547e+01	12.2259	37.414155	0.000304	3.039541	1.029824	0.000122
 309	3.0646e+01	12.2628	37.547381	0.000334	3.343495	1.132807	0.000134
 310	3.0745e+01	12.3045	37.632161	0.000213	2.127679	0.720877	0.000085
 311	3.0845e+01	12.3446	37.741163	0.000274	2.735587	0.926842	0.000110
 312	3.0945e+01	12.3863	37.870352	0.000324	3.242177	1.098479	0.000130
 313	3.1044e+01	12.4216	37.959169	0.000223	2.228997	0.755205	0.000089
 314	3.1143e+01	12.4697	38.100469	0.000355	3.546131	1.201462	0.000142
 315	3.1243e+01	12.5034	38.225620	0.000314	3.140859	1.064152	0.000126
 316	3.1343e+01	12.5515	38.322511	0.000243	2.431633	0.823860	0.000097
 317	3.1442e+01	12.5868	38.399217	0.000193	1.925043	0.652222	0.000077
 318	3.1541e+01	12.6253	38.560702	0.000405	4.052721	1.373099	0.000162
 319	3.1641e+01	12.6590	38.697965	0.000344	3.444813	1.167134	0.000138
 320	3.1741e+01	12.7039	38.794856	0.000243	2.431633	0.823860	0.000097
 321	3.1840e+01	12.7569	38.895784	0.000253	2.532951	0.858187	0.000101
 322	3.1939e+01	12.7954	39.029010	0.000334	3.343495	1.132807	0.000134
 323	3.2039e+01	12.8274	39.158198	0.000324	3.242177	1.098479	0.000130
 324	3.2139e+01	12.8643	39.255089	0.000243	2.431633	0.823860	0.000097
 325	3.2238e+01	12.9061	39.331795	0.000193	1.925043	0.652222	0.000077
 326	3.2337e+01	12.9446	39.460983	0.000324	3.242177	1.098479	0.000130
 327	3.2437e+01	12.9766	39.586134	0.000314	3.140859	1.064152	0.000126
 328	3.2536e+01	13.0264	39.678989	0.000233	2.330315	0.789532	0.000093
 329	3.2636e+01	13.0617	39.816251	0.000344	3.444813	1.167134	0.000138
 330	3.2736e+01	13.1002	39.949477	0.000334	3.343495	1.132807	0.000134
 331	3.2835e+01	13.1419	40.026182	0.000193	1.925043	0.652222	0.000077
 332	3.2934e+01	13.1772	40.155371	0.000324	3.242177	1.098479	0.000130
 333	3.3034e+01	13.2189	40.280522	0.000314	3.140859	1.064152	0.000126
 334	3.3133e+01	13.2654	40.377413	0.000243	2.431633	0.823860	0.000097
 335	3.3233e+01	13.2959	40.466230	0.000223	2.228997	0.755205	0.000089
 336	3.3333e+01	13.3344	40.579270	0.000284	2.836905	0.961169	0.000114
 337	3.3432e+01	13.3745	40.684235	0.000263	2.634269	0.892514	0.000105
 338	3.3532e+01	13.4178	40.801312	0.000294	2.938223	0.995497	0.000118
 339	3.3631e+01	13.4611	40.930501	0.000324	3.242177	1.098479	0.000130
 340	3.3730e+01	13.4948	40.978946	0.000122	1.215816	0.411930	0.000049
 341	3.3830e+01	13.5397	41.124283	0.000365	3.647449	1.235789	0.000146
 342	3.3929e+01	13.5718	41.269620	0.000365	3.647449	1.235789	0.000146
 343	3.4029e+01	13.6023	41.366511	0.000243	2.431633	0.823860	0.000097
 344	3.4129e+01	13.6633	41.495700	0.000324	3.242177	1.098479	0.000130
 345	3.4228e+01	13.7001	41.588554	0.000233	2.330315	0.789532	0.000093
 346	3.4328e+01	13.7386	41.677371	0.000223	2.228997	0.755205	0.000089
 347	3.4427e+01	13.7739	41.826745	0.000375	3.748767	1.270117	0.000150
 348	3.4526e+01	13.8189	41.935747	0.000274	2.735587	0.926842	0.000110
 349	3.4626e+01	13.8606	42.077047	0.000355	3.546131	1.201462	0.000142
 350	3.4725e+01	13.9023	42.234496	0.000395	3.951403	1.338772	0.000158
 351	3.4825e+01	13.9312	42.307164	0.000182	1.823725	0.617895	0.000073
 352	3.4925e+01	13.9745	42.428278	0.000304	3.039541	1.029824	0.000122
 353	3.5024e+01	14.0194	42.500946	0.000182	1.823725	0.617895	0.000073
 354	3.5123e+01	14.0595	42.678580	0.000446	4.457994	1.510409	0.000179
 355	3.5223e+01	14.0948	42.795657	0.000294	2.938223	0.995497	0.000118
 356	3.5322e+01	14.1365	42.868326	0.000182	1.823725	0.617895	0.000073
 357	3.5422e+01	14.1782	43.025774	0.000395	3.951403	1.338772	0.000158
 358	3.5522e+01	14.2199	43.126703	0.000253	2.532951	0.858187	0.000101
 359	3.5621e+01	14.2552	43.195334	0.000172	1.722407	0.583567	0.000069
 360	3.5721e+01	14.3001	43.352782	0.000395	3.951403	1.338772	0.000158
 361	3.5820e+01	14.3338	43.494082	0.000355	3.546131	1.201462	0.000142
 362	3.5919e+01	14.3803	43.586936	0.000233	2.330315	0.789532	0.000093
 363	3.6019e+01	14.4124	43.756496	0.000426	4.255358	1.441754	0.000170
 364	3.6118e+01	14.4541	43.833201	0.000193	1.925043	0.652222	0.000077
 365	3.6218e+01	14.4878	43.994687	0.000405	4.052721	1.373099	0.000162
 366	3.6318e+01	14.5360	44.051207	0.000142	1.418453	0.480585	0.000057
 367	3.6417e+01	14.5664	44.212692	0.000405	4.052721	1.373099	0.000162
 368	3.6517e+01	14.6162	44.321695	0.000274	2.735587	0.926842	0.000110
 369	3.6616e+01	14.6531	44.418586	0.000243	2.431633	0.823860	0.000097
 370	3.6715e+01	14.6964	44.555849	0.000344	3.444813	1.167134	0.000138
 371	3.6815e+01	14.7301	44.664851	0.000274	2.735587	0.926842	0.000110
 372	3.6914e+01	14.7734	44.765780	0.000253	2.532951	0.858187	0.000101
 373	3.7014e+01	14.8055	44.862671	0.000243	2.431633	0.823860	0.000097
 374	3.7114e+01	14.8552	45.024156	0.000405	4.052721	1.373099	0.000162
 375	3.7213e+01	14.8905	45.088750	0.000162	1.621089	0.549240	0.000065
 376	3.7313e+01	14.9402	45.246199	0.000395	3.951403	1.338772	0.000158
 377	3.7412e+01	14.9739	45.359239	0.000284	2.836905	0.961169	0.000114
 378	3.7511e+01	15.0092	45.452093	0.000233	2.330315	0.789532	0.000093
 379	3.7611e+01	15.0509	45.597430	0.000365	3.647449	1.235789	0.000146
 380	3.7711e+01	15.0974	45.734692	0.000344	3.444813	1.167134	0.000138
 381	3.7810e+01	15.1375	45.831583	0.000243	2.431633	0.823860	0.000097
 382	3.7910e+01	15.1728	45.916363	0.000213	2.127679	0.720877	0.000085
 383	3.8009e+01	15.2065	46.077849	0.000405	4.052721	1.373099	0.000162
 384	3.8108e+01	15.2498	46.166666	0.000223	2.228997	0.755205	0.000089
 385	3.8208e+01	15.2867	46.279706	0.000284	2.836905	0.961169	0.000114
 386	3.8307e+01	15.3300	46.376597	0.000243	2.431633	0.823860	0.000097
 387	3.8407e+01	15.3637	46.461377	0.000213	2.127679	0.720877	0.000085
 388	3.8507e+01	15.4167	46.602676	0.000355	3.546131	1.201462	0.000142
 389	3.8606e+01	15.4488	46.703605	0.000253	2.532951	0.858187	0.000101
 390	3.8706e+01	15.4953	46.784348	0.000203	2.026361	0.686550	0.000081
 391	3.8805e+01	15.5210	46.832793	0.000122	1.215816	0.411930	0.000049
 392	3.8904e+01	15.5659	46.998316	0.000415	4.154039	1.407427	0.000166
 393	3.9004e+01	15.6108	47.083096	0.000213	2.127679	0.720877	0.000085
 394	3.9103e+01	15.6445	47.179987	0.000243	2.431633	0.823860	0.000097
 395	3.9203e+01	15.6878	47.284952	0.000263	2.634269	0.892514	0.000105
 396	3.9303e+01	15.7311	47.414141	0.000324	3.242177	1.098479	0.000130
 397	3.9402e+01	15.7680	47.478735	0.000162	1.621089	0.549240	0.000065
 398	3.9502e+01	15.8097	47.591775	0.000284	2.836905	0.961169	0.000114
 399	3.9601e+01	15.8482	47.708852	0.000294	2.938223	0.995497	0.000118
 400	3.9700e+01	15.8899	47.813817	0.000263	2.634269	0.892514	0.000105
 401	3.9800e+01	15.9397	47.926857	0.000284	2.836905	0.961169	0.000114
 402	3.9900e+01	15.9733	48.064120	0.000344	3.444813	1.167134	0.000138
 403	3.9999e+01	16.0086	48.136788	0.000182	1.823725	0.617895	0.000073
 404	4.0099e+01	16.0455	48.265976	0.000324	3.242177	1.098479	0.000130
 405	4.0198e+01	16.0953	48.314422	0.000122	1.215816	0.411930	0.000049
 406	4.0297e+01	16.1225	48.459759	0.000365	3.647449	1.235789	0.000146
 407	4.0397e+01	16.1691	48.556650	0.000243	2.431633	0.823860	0.000097
 408	4.0496e+01	16.2092	48.693913	0.000344	3.444813	1.167134	0.000138
 409	4.0596e+01	16.2429	48.774655	0.000203	2.026361	0.686550	0.000081
 410	4.0696e+01	16.2910	48.883658	0.000274	2.735587	0.926842	0.000110
 411	4.0795e+01	16.3311	48.984586	0.000253	2.532951	0.858187	0.000101
 412	4.0895e+01	16.3712	49.109738	0.000314	3.140859	1.064152	0.000126
 413	4.0994e+01	16.4129	49.202592	0.000233	2.330315	0.789532	0.000093
 414	4.1093e+01	16.4498	49.372152	0.000426	4.255358	1.441754	0.000170
 415	4.1193e+01	16.4851	49.432709	0.000152	1.519771	0.514912	0.000061
 416	4.1292e+01	16.5316	49.545748	0.000284	2.836905	0.961169	0.000114
 417	4.1392e+01	16.5685	49.654751	0.000274	2.735587	0.926842	0.000110
 418	4.1492e+01	16.6054	49.763754	0.000274	2.735587	0.926842	0.000110
 419	4.1591e+01	16.6519	49.860645	0.000243	2.431633	0.823860	0.000097
 420	4.1691e+01	16.6904	49.965610	0.000263	2.634269	0.892514	0.000105
 421	4.1790e+01	16.7273	50.050390	0.000213	2.127679	0.720877	0.000085
 422	4.1889e+01	16.7626	50.203801	0.000385	3.850085	1.304444	0.000154
 423	4.1989e+01	16.7947	50.284544	0.000203	2.026361	0.686550	0.000081
 424	4.2089e+01	16.8444	50.377398	0.000233	2.330315	0.789532	0.000093
 425	4.2188e+01	16.8910	50.482364	0.000263	2.634269	0.892514	0.000105
 426	4.2288e+01	16.9214	50.603478	0.000304	3.039541	1.029824	0.000122
 427	4.2387e+01	16.9664	50.708443	0.000263	2.634269	0.892514	0.000105
 428	4.2486e+01	17.0097	50.785149	0.000193	1.925043	0.652222	0.000077
 429	4.2586e+01	17.0466	50.886077	0.000253	2.532951	0.858187	0.000101
 430	4.2685e+01	17.0787	51.019303	0.000334	3.343495	1.132807	0.000134
 431	4.2785e+01	17.1252	51.124268	0.000263	2.634269	0.892514	0.000105
 432	4.2885e+01	17.1653	51.229234	0.000263	2.634269	0.892514	0.000105
 433	4.2984e+01	17.2038	51.314014	0.000213	2.127679	0.720877	0.000085
 434	4.3084e+01	17.2439	51.410905	0.000243	2.431633	0.823860	0.000097
 435	4.3183e+01	17.2968	51.523945	0.000284	2.836905	0.961169	0.000114
 436	4.3282e+01	17.3273	51.592576	0.000172	1.722407	0.583567	0.000069
 437	4.3382e+01	17.3578	51.693505	0.000253	2.532951	0.858187	0.000101
 438	4.3481e+01	17.4059	51.846916	0.000385	3.850085	1.304444	0.000154
 439	4.3581e+01	17.4476	51.968030	0.000304	3.039541	1.029824	0.000122
 440	4.3681e+01	17.4861	52.048773	0.000203	2.026361	0.686550	0.000081
 441	4.3780e+01	17.5214	52.153738	0.000263	2.634269	0.892514	0.000105
 442	4.3880e+01	17.5615	52.250629	0.000243	2.431633	0.823860	0.000097
 443	4.3979e+01	17.6081	52.331372	0.000203	2.026361	0.686550	0.000081
 444	4.4078e+01	17.6417	52.444412	0.000284	2.836905	0.961169	0.000114
 445	4.4178e+01	17.6915	52.569563	0.000314	3.140859	1.064152	0.000126
 446	4.4278e+01	17.7188	52.678566	0.000274	2.735587	0.926842	0.000110
 447	4.4377e+01	17.7605	52.759308	0.000203	2.026361	0.686550	0.000081
 448	4.4477e+01	17.8086	52.880422	0.000304	3.039541	1.029824	0.000122
 449	4.4576e+01	17.8391	52.965202	0.000213	2.127679	0.720877	0.000085
 450	4.4675e+01	17.8840	53.086316	0.000304	3.039541	1.029824	0.000122
 451	4.4775e+01	17.9193	53.195319	0.000274	2.735587	0.926842	0.000110
 452	4.4874e+01	17.9546	53.288173	0.000233	2.330315	0.789532	0.000093
 453	4.4974e+01	18.0059	53.364879	0.000193	1.925043	0.652222	0.000077
 454	4.5074e+01	18.0380	53.510216	0.000365	3.647449	1.235789	0.000146
 455	4.5173e+01	18.0861	53.586921	0.000193	1.925043	0.652222	0.000077
 456	4.5273e+01	18.1262	53.712072	0.000314	3.140859	1.064152	0.000126
 457	4.5372e+01	18.1663	53.780704	0.000172	1.722407	0.583567	0.000069
 458	4.5471e+01	18.2000	53.881632	0.000253	2.532951	0.858187	0.000101
 459	4.5571e+01	18.2465	53.994672	0.000284	2.836905	0.961169	0.000114
 460	4.5670e+01	18.2754	54.087526	0.000233	2.330315	0.789532	0.000093
 461	4.5770e+01	18.3139	54.216714	0.000324	3.242177	1.098479	0.000130
 462	4.5870e+01	18.3588	54.297457	0.000203	2.026361	0.686550	0.000081
 463	4.5969e+01	18.3877	54.402423	0.000263	2.634269	0.892514	0.000105
 464	4.6069e+01	18.4455	54.523537	0.000304	3.039541	1.029824	0.000122
 465	4.6168e+01	18.4920	54.576019	0.000132	1.317134	0.446257	0.000053
 466	4.6267e+01	18.5193	54.717319	0.000355	3.546131	1.201462	0.000142
 467	4.6367e+01	18.5626	54.802099	0.000213	2.127679	0.720877	0.000085
 468	4.6467e+01	18.6011	54.898990	0.000243	2.431633	0.823860	0.000097
 469	4.6566e+01	18.6412	54.987807	0.000223	2.228997	0.755205	0.000089
 470	4.6666e+01	18.6781	55.100847	0.000284	2.836905	0.961169	0.000114
 471	4.6765e+01	18.7166	55.193701	0.000233	2.330315	0.789532	0.000093
 472	4.6864e+01	18.7615	55.298667	0.000263	2.634269	0.892514	0.000105
 473	4.6964e+01	18.8000	55.391521	0.000233	2.330315	0.789532	0.000093
 474	4.7063e+01	18.8417	55.500524	0.000274	2.735587	0.926842	0.000110
 475	4.7163e+01	18.8770	55.605489	0.000263	2.634269	0.892514	0.000105
 476	4.7263e+01	18.9139	55.682195	0.000193	1.925043	0.652222	0.000077
 477	4.7362e+01	18.9492	55.783123	0.000253	2.532951	0.858187	0.000101
 478	4.7462e+01	19.0021	55.920386	0.000344	3.444813	1.167134	0.000138
 479	4.7561e+01	19.0310	55.964794	0.000111	1.114498	0.377602	0.000045
 480	4.7660e+01	19.0759	56.037463	0.000182	1.823725	0.617895	0.000073
 481	4.7760e+01	19.1176	56.110131	0.000182	1.823725	0.617895	0.000073
 482	4.7859e+01	19.1561	56.247394	0.000344	3.444813	1.167134	0.000138
 483	4.7959e+01	19.1979	56.368508	0.000304	3.039541	1.029824	0.000122
 484	4.8059e+01	19.2412	56.433102	0.000162	1.621089	0.549240	0.000065
 485	4.8158e+01	19.2765	56.574402	0.000355	3.546131	1.201462	0.000142
 486	4.8258e+01	19.3118	56.651107	0.000193	1.925043	0.652222	0.000077
 487	4.8357e+01	19.3551	56.772221	0.000304	3.039541	1.029824	0.000122
 488	4.8456e+01	19.3952	56.844890	0.000182	1.823725	0.617895	0.000073
 489	4.8556e+01	19.4385	56.933707	0.000223	2.228997	0.755205	0.000089
 490	4.8656e+01	19.4690	57.046747	0.000284	2.836905	0.961169	0.000114
 491	4.8755e+01	19.5155	57.119415	0.000182	1.823725	0.617895	0.000073
 492	4.8855e+01	19.5524	57.232455	0.000284	2.836905	0.961169	0.000114
 493	4.8954e+01	19.5989	57.329346	0.000243	2.431633	0.823860	0.000097
 494	4.9053e+01	19.6390	57.430274	0.000253	2.532951	0.858187	0.000101
 495	4.9153e+01	19.6663	57.527166	0.000243	2.431633	0.823860	0.000097
 496	4.9252e+01	19.7096	57.603871	0.000193	1.925043	0.652222	0.000077
 497	4.9352e+01	19.7545	57.753245	0.000375	3.748767	1.270117	0.000150
 498	4.9452e+01	19.8026	57.821877	0.000172	1.722407	0.583567	0.000069
 499	4.9551e+01	19.8363	57.906656	0.000213	2.127679	0.720877	0.000085
 500	4.9651e+01	19.8684	58.031808	0.000314	3.140859	1.064152	0.000126
 501	4.9750e+01	19.9133	58.088328	0.000142	1.418453	0.480585	0.000057
 502	4.9849e+01	19.9599	58.197330	0.000274	2.735587	0.926842	0.000110
 503	4.9949e+01	20.0000	58.290184	0.000233	2.330315	0.789532	0.000093
 504	5.0048e+01	19.9486	58.391113	-0.000253	-2.532951	-0.858187	0.000101
 505	5.0148e+01	19.9198	58.471855	-0.000203	-2.026361	-0.686550	0.000081
 506	5.0248e+01	19.8764	58.512227	-0.000101	-1.013180	-0.343275	0.000041
 507	5.0347e+01	19.8299	58.560672	-0.000122	-1.215816	-0.411930	0.000049
 508	5.0447e+01	19.7930	58.673712	-0.000284	-2.836905	-0.961169	0.000114
 509	5.0546e+01	19.7529	58.661601	0.000030	0.303954	0.102982	-0.000012
 510	5.0645e+01	19.7128	58.677749	-0.000041	-0.405272	-0.137310	0.000016
 511	5.0745e+01	19.6823	58.750418	-0.000182	-1.823725	-0.617895	0.000073
 512	5.0844e+01	19.6358	58.778678	-0.000071	-0.709226	-0.240292	0.000028
 513	5.0944e+01	19.5957	58.802901	-0.000061	-0.607908	-0.205965	0.000024
 514	5.1044e+01	19.5540	58.851346	-0.000122	-1.215816	-0.411930	0.000049
 515	5.1143e+01	19.5107	58.859420	-0.000020	-0.202636	-0.068655	0.000008
 516	5.1242e+01	19.4770	58.859420	-0.000000	-0.000000	-0.000000	0.000000
 517	5.1342e+01	19.4401	58.867495	-0.000020	-0.202636	-0.068655	0.000008
 518	5.1441e+01	19.3952	58.879606	-0.000030	-0.303954	-0.102982	0.000012
 519	5.1541e+01	19.3535	58.932089	-0.000132	-1.317134	-0.446257	0.000053
 520	5.1641e+01	19.3150	58.911903	0.000051	0.506590	0.171637	-0.000020
 521	5.1740e+01	19.2765	58.936126	-0.000061	-0.607908	-0.205965	0.000024
 522	5.1840e+01	19.2348	58.919978	0.000041	0.405272	0.137310	-0.000016
 523	5.1939e+01	19.1946	58.915940	0.000010	0.101318	0.034327	-0.000004
 524	5.2038e+01	19.1594	58.883643	0.000081	0.810544	0.274620	-0.000032
 525	5.2138e+01	19.1160	58.915940	-0.000081	-0.810544	-0.274620	0.000032
 526	5.2237e+01	19.0743	58.899792	0.000041	0.405272	0.137310	-0.000016
 527	5.2337e+01	19.0342	58.940163	-0.000101	-1.013180	-0.343275	0.000041
 528	5.2437e+01	18.9957	58.887680	0.000132	1.317134	0.446257	-0.000053
 529	5.2536e+01	18.9524	58.895755	-0.000020	-0.202636	-0.068655	0.000008
 530	5.2636e+01	18.9251	58.863458	0.000081	0.810544	0.274620	-0.000032
 531	5.2735e+01	18.8722	58.867495	-0.000010	-0.101318	-0.034327	0.000004
 532	5.2834e+01	18.8433	58.819049	0.000122	1.215816	0.411930	-0.000049
 533	5.2934e+01	18.8000	58.806938	0.000030	0.303954	0.102982	-0.000012
 534	5.3033e+01	18.7567	58.778678	0.000071	0.709226	0.240292	-0.000028
 535	5.3133e+01	18.7246	58.790789	-0.000030	-0.303954	-0.102982	0.000012
 536	5.3233e+01	18.6765	58.742344	0.000122	1.215816	0.411930	-0.000049
 537	5.3332e+01	18.6460	58.734269	0.000020	0.202636	0.068655	-0.000008
 538	5.3431e+01	18.5963	58.645452	0.000223	2.228997	0.755205	-0.000089
 539	5.3531e+01	18.5626	58.637378	0.000020	0.202636	0.068655	-0.000008
 540	5.3630e+01	18.5225	58.556635	0.000203	2.026361	0.686550	-0.000081
 541	5.3730e+01	18.4776	58.544524	0.000030	0.303954	0.102982	-0.000012
 542	5.3830e+01	18.4439	58.500115	0.000111	1.114498	0.377602	-0.000045
 543	5.3929e+01	18.3973	58.483967	0.000041	0.405272	0.137310	-0.000016
 544	5.4029e+01	18.3653	58.391113	0.000233	2.330315	0.789532	-0.000093
 545	5.4128e+01	18.3235	58.342667	0.000122	1.215816	0.411930	-0.000049
 546	5.4227e+01	18.2786	58.282110	0.000152	1.519771	0.514912	-0.000061
 547	5.4327e+01	18.2481	58.286147	-0.000010	-0.101318	-0.034327	0.000004
 548	5.4426e+01	18.2016	58.237702	0.000122	1.215816	0.411930	-0.000049
 549	5.4526e+01	18.1631	58.148885	0.000223	2.228997	0.755205	-0.000089
 550	5.4626e+01	18.1246	58.084290	0.000162	1.621089	0.549240	-0.000065
 551	5.4725e+01	18.0813	57.999511	0.000213	2.127679	0.720877	-0.000085
 552	5.4825e+01	18.0460	57.975288	0.000061	0.607908	0.205965	-0.000024
 553	5.4924e+01	17.9995	57.922805	0.000132	1.317134	0.446257	-0.000053
 554	5.5023e+01	17.9610	57.825914	0.000243	2.431633	0.823860	-0.000097
 555	5.5123e+01	17.9193	57.773431	0.000132	1.317134	0.446257	-0.000053
 556	5.5222e+01	17.8872	57.733060	0.000101	1.013180	0.343275	-0.000041
 557	5.5322e+01	17.8439	57.628094	0.000263	2.634269	0.892514	-0.000105
 558	5.5422e+01	17.8054	57.563500	0.000162	1.621089	0.549240	-0.000065
 559	5.5521e+01	17.7605	57.515054	0.000122	1.215816	0.411930	-0.000049
 560	5.5620e+01	17.7204	57.466609	0.000122	1.215816	0.411930	-0.000049
 561	5.5720e+01	17.6915	57.357606	0.000274	2.735587	0.926842	-0.000110
 562	5.5819e+01	17.6466	57.284938	0.000182	1.823725	0.617895	-0.000073
 563	5.5919e+01	17.5936	57.228418	0.000142	1.418453	0.480585	-0.000057
 564	5.6019e+01	17.5583	57.167861	0.000152	1.519771	0.514912	-0.000061
 565	5.6118e+01	17.5246	57.091155	0.000193	1.925043	0.652222	-0.000077
 566	5.6218e+01	17.4829	57.018487	0.000182	1.823725	0.617895	-0.000073
 567	5.6317e+01	17.4380	56.974078	0.000111	1.114498	0.377602	-0.000045
 568	5.6416e+01	17.4027	56.897373	0.000193	1.925043	0.652222	-0.000077
 569	5.6516e+01	17.3610	56.828741	0.000172	1.722407	0.583567	-0.000069
 570	5.6615e+01	17.3321	56.723776	0.000263	2.634269	0.892514	-0.000105
 571	5.6715e+01	17.2872	56.691479	0.000081	0.810544	0.274620	-0.000032
 572	5.6815e+01	17.2487	56.643033	0.000122	1.215816	0.411930	-0.000049
 573	5.6914e+01	17.2070	56.538067	0.000263	2.634269	0.892514	-0.000105
 574	5.7014e+01	17.1637	56.465399	0.000182	1.823725	0.617895	-0.000073
 575	5.7113e+01	17.1220	56.400805	0.000162	1.621089	0.549240	-0.000065
 576	5.7212e+01	17.0915	56.328136	0.000182	1.823725	0.617895	-0.000073
 577	5.7312e+01	17.0434	56.247394	0.000203	2.026361	0.686550	-0.000081
 578	5.7411e+01	17.0001	56.182799	0.000162	1.621089	0.549240	-0.000065
 579	5.7511e+01	16.9664	56.089945	0.000233	2.330315	0.789532	-0.000093
 580	5.7611e+01	16.9263	56.033425	0.000142	1.418453	0.480585	-0.000057
 581	5.7710e+01	16.8781	55.960757	0.000182	1.823725	0.617895	-0.000073
 582	5.7809e+01	16.8380	55.871940	0.000223	2.228997	0.755205	-0.000089
 583	5.7909e+01	16.8108	55.771012	0.000253	2.532951	0.858187	-0.000101
 584	5.8008e+01	16.7706	55.714492	0.000142	1.418453	0.480585	-0.000057
 585	5.8108e+01	16.7338	55.637786	0.000193	1.925043	0.652222	-0.000077
 586	5.8208e+01	16.6888	55.593378	0.000111	1.114498	0.377602	-0.000045
 587	5.8307e+01	16.6471	55.496486	0.000243	2.431633	0.823860	-0.000097
 588	5.8407e+01	16.6166	55.411707	0.000213	2.127679	0.720877	-0.000085
 589	5.8506e+01	16.5605	55.367298	0.000111	1.114498	0.377602	-0.000045
 590	5.8605e+01	16.5332	55.274444	0.000233	2.330315	0.789532	-0.000093
 591	5.8705e+01	16.4851	55.193701	0.000203	2.026361	0.686550	-0.000081
 592	5.8804e+01	16.4498	55.108921	0.000213	2.127679	0.720877	-0.000085
 593	5.8904e+01	16.4049	55.044327	0.000162	1.621089	0.549240	-0.000065
 594	5.9004e+01	16.3696	54.955510	0.000223	2.228997	0.755205	-0.000089
 595	5.9103e+01	16.3295	54.854582	0.000253	2.532951	0.858187	-0.000101
 596	5.9203e+01	16.2958	54.737505	0.000294	2.938223	0.995497	-0.000118
 597	5.9302e+01	16.2461	54.709245	0.000071	0.709226	0.240292	-0.000028
 598	5.9401e+01	16.2060	54.628502	0.000203	2.026361	0.686550	-0.000081
 599	5.9501e+01	16.1610	54.523537	0.000263	2.634269	0.892514	-0.000105
 600	5.9600e+01	16.1306	54.454905	0.000172	1.722407	0.583567	-0.000069
 601	5.9700e+01	16.0872	54.378200	0.000193	1.925043	0.652222	-0.000077
 602	5.9800e+01	16.0439	54.321680	0.000142	1.418453	0.480585	-0.000057
 603	5.9899e+01	16.0070	54.228826	0.000233	2.330315	0.789532	-0.000093
 604	5.9998e+01	15.9637	54.127897	0.000253	2.532951	0.858187	-0.000101
 605	6.0098e+01	15.9364	54.059266	0.000172	1.722407	0.583567	-0.000069
 606	6.0197e+01	15.8883	53.946226	0.000284	2.836905	0.961169	-0.000114
 607	6.0297e+01	15.8498	53.885669	0.000152	1.519771	0.514912	-0.000061
 608	6.0397e+01	15.8017	53.772629	0.000284	2.836905	0.961169	-0.000114
 609	6.0496e+01	15.7664	53.716110	0.000142	1.418453	0.480585	-0.000057
 610	6.0596e+01	15.7279	53.627293	0.000223	2.228997	0.755205	-0.000089
 611	6.0695e+01	15.6894	53.526364	0.000253	2.532951	0.858187	-0.000101
 612	6.0794e+01	15.6445	53.477919	0.000122	1.215816	0.411930	-0.000049
 613	6.0894e+01	15.6156	53.401213	0.000193	1.925043	0.652222	-0.000077
 614	6.0993e+01	15.5707	53.312396	0.000223	2.228997	0.755205	-0.000089
 615	6.1093e+01	15.5354	53.239728	0.000182	1.823725	0.617895	-0.000073
 616	6.1193e+01	15.4937	53.138799	0.000253	2.532951	0.858187	-0.000101
 617	6.1292e+01	15.4536	53.037871	0.000253	2.532951	0.858187	-0.000101
 618	6.1392e+01	15.4119	52.953091	0.000213	2.127679	0.720877	-0.000085
 619	6.1491e+01	15.3734	52.815828	0.000344	3.444813	1.167134	-0.000138
 620	6.1590e+01	15.3349	52.775457	0.000101	1.013180	0.343275	-0.000041
 621	6.1690e+01	15.2835	52.666454	0.000274	2.735587	0.926842	-0.000110
 622	6.1789e+01	15.2530	52.557452	0.000274	2.735587	0.926842	-0.000110
 623	6.1889e+01	15.2097	52.488820	0.000172	1.722407	0.583567	-0.000069
 624	6.1989e+01	15.1696	52.363669	0.000314	3.140859	1.064152	-0.000126
 625	6.2088e+01	15.1343	52.282926	0.000203	2.026361	0.686550	-0.000081
 626	6.2188e+01	15.0894	52.198147	0.000213	2.127679	0.720877	-0.000085
 627	6.2287e+01	15.0461	52.125478	0.000182	1.823725	0.617895	-0.000073
 628	6.2386e+01	15.0124	52.036661	0.000223	2.228997	0.755205	-0.000089
 629	6.2486e+01	14.9691	51.955918	0.000203	2.026361	0.686550	-0.000081
 630	6.2586e+01	14.9354	51.867101	0.000223	2.228997	0.755205	-0.000089
 631	6.2685e+01	14.8889	51.725802	0.000355	3.546131	1.201462	-0.000142
 632	6.2785e+01	14.8584	51.661207	0.000162	1.621089	0.549240	-0.000065
 633	6.2884e+01	14.8151	51.532019	0.000324	3.242177	1.098479	-0.000130
 634	6.2983e+01	14.7814	51.455314	0.000193	1.925043	0.652222	-0.000077
 635	6.3083e+01	14.7301	51.358422	0.000243	2.431633	0.823860	-0.000097
 636	6.3182e+01	14.6932	51.305940	0.000132	1.317134	0.446257	-0.000053
 637	6.3282e+01	14.6547	51.172714	0.000334	3.343495	1.132807	-0.000134
 638	6.3382e+01	14.6178	51.100046	0.000182	1.823725	0.617895	-0.000073
 639	6.3481e+01	14.5696	50.978932	0.000304	3.039541	1.029824	-0.000122
 640	6.3581e+01	14.5343	50.902226	0.000193	1.925043	0.652222	-0.000077
 641	6.3680e+01	14.4926	50.760926	0.000355	3.546131	1.201462	-0.000142
 642	6.3779e+01	14.4477	50.692295	0.000172	1.722407	0.583567	-0.000069
 643	6.3879e+01	14.4140	50.587329	0.000263	2.634269	0.892514	-0.000105
 644	6.3978e+01	14.3755	50.474290	0.000284	2.836905	0.961169	-0.000114
 645	6.4078e+01	14.3290	50.429881	0.000111	1.114498	0.377602	-0.000045
 646	6.4177e+01	14.2889	50.324916	0.000263	2.634269	0.892514	-0.000105
 647	6.4277e+01	14.2456	50.219950	0.000263	2.634269	0.892514	-0.000105
 648	6.4376e+01	14.2103	50.147282	0.000182	1.823725	0.617895	-0.000073
 649	6.4476e+01	14.1750	50.022130	0.000314	3.140859	1.064152	-0.000126
 650	6.4576e+01	14.1301	49.909091	0.000284	2.836905	0.961169	-0.000114
 651	6.4675e+01	14.1028	49.832385	0.000193	1.925043	0.652222	-0.000077
 652	6.4775e+01	14.0563	49.719345	0.000284	2.836905	0.961169	-0.000114
 653	6.4874e+01	14.0098	49.614380	0.000263	2.634269	0.892514	-0.000105
 654	6.4974e+01	13.9777	49.529600	0.000213	2.127679	0.720877	-0.000085
 655	6.5073e+01	13.9296	49.404449	0.000314	3.140859	1.064152	-0.000126
 656	6.5172e+01	13.9087	49.295446	0.000274	2.735587	0.926842	-0.000110
 657	6.5272e+01	13.8606	49.242963	0.000132	1.317134	0.446257	-0.000053
 658	6.5371e+01	13.8189	49.109738	0.000334	3.343495	1.132807	-0.000134
 659	6.5471e+01	13.7772	49.033032	0.000193	1.925043	0.652222	-0.000077
 660	6.5570e+01	13.7338	48.948252	0.000213	2.127679	0.720877	-0.000085
 661	6.5670e+01	13.6953	48.847324	0.000253	2.532951	0.858187	-0.000101
 662	6.5769e+01	13.6584	48.782730	0.000162	1.621089	0.549240	-0.000065
 663	6.5869e+01	13.6199	48.661616	0.000304	3.039541	1.029824	-0.000122
 664	6.5969e+01	13.5750	48.580873	0.000203	2.026361	0.686550	-0.000081
 665	6.6068e+01	13.5413	48.500130	0.000203	2.026361	0.686550	-0.000081
 666	6.6168e+01	13.4980	48.374979	0.000314	3.140859	1.064152	-0.000126
 667	6.6267e+01	13.4515	48.314422	0.000152	1.519771	0.514912	-0.000061
 668	6.6367e+01	13.4114	48.185234	0.000324	3.242177	1.098479	-0.000130
 669	6.6466e+01	13.3729	48.128714	0.000142	1.418453	0.480585	-0.000057
 670	6.6566e+01	13.3488	48.019711	0.000274	2.735587	0.926842	-0.000110
 671	6.6665e+01	13.2943	47.947043	0.000182	1.823725	0.617895	-0.000073
 672	6.6764e+01	13.2622	47.813817	0.000334	3.343495	1.132807	-0.000134
 673	6.6864e+01	13.2173	47.745186	0.000172	1.722407	0.583567	-0.000069
 674	6.6963e+01	13.1724	47.656369	0.000223	2.228997	0.755205	-0.000089
 675	6.7063e+01	13.1339	47.579663	0.000193	1.925043	0.652222	-0.000077
 676	6.7162e+01	13.1018	47.490846	0.000223	2.228997	0.755205	-0.000089
 677	6.7262e+01	13.0569	47.406066	0.000213	2.127679	0.720877	-0.000085
 678	6.7362e+01	13.0264	47.333398	0.000182	1.823725	0.617895	-0.000073
 679	6.7461e+01	12.9766	47.179987	0.000385	3.850085	1.304444	-0.000154
 680	6.7561e+01	12.9301	47.099244	0.000203	2.026361	0.686550	-0.000081
 681	6.7660e+01	12.8980	47.014464	0.000213	2.127679	0.720877	-0.000085
 682	6.7760e+01	12.8627	46.909499	0.000263	2.634269	0.892514	-0.000105
 683	6.7859e+01	12.8258	46.832793	0.000193	1.925043	0.652222	-0.000077
 684	6.7959e+01	12.7873	46.792422	0.000101	1.013180	0.343275	-0.000041
 685	6.8058e+01	12.7472	46.647085	0.000365	3.647449	1.235789	-0.000146
 686	6.8157e+01	12.7135	46.598639	0.000122	1.215816	0.411930	-0.000049
 687	6.8257e+01	12.6622	46.513859	0.000213	2.127679	0.720877	-0.000085
 688	6.8356e+01	12.6285	46.388708	0.000314	3.140859	1.064152	-0.000126
 689	6.8456e+01	12.5836	46.312003	0.000193	1.925043	0.652222	-0.000077
 690	6.8555e+01	12.5499	46.247408	0.000162	1.621089	0.549240	-0.000065
 691	6.8655e+01	12.5066	46.126294	0.000304	3.039541	1.029824	-0.000122
 692	6.8754e+01	12.4601	46.065737	0.000152	1.519771	0.514912	-0.000061
 693	6.8854e+01	12.4232	45.964809	0.000253	2.532951	0.858187	-0.000101
 694	6.8954e+01	12.3863	45.867918	0.000243	2.431633	0.823860	-0.000097
 695	6.9053e+01	12.3462	45.791212	0.000193	1.925043	0.652222	-0.000077
 696	6.9153e+01	12.3029	45.682209	0.000274	2.735587	0.926842	-0.000110
 697	6.9252e+01	12.2563	45.589355	0.000233	2.330315	0.789532	-0.000093
 698	6.9352e+01	12.2226	45.508613	0.000203	2.026361	0.686550	-0.000081
 699	6.9451e+01	12.1874	45.427870	0.000203	2.026361	0.686550	-0.000081
 700	6.9550e+01	12.1424	45.314830	0.000284	2.836905	0.961169	-0.000114
 701	6.9650e+01	12.1168	45.278496	0.000091	0.911862	0.308947	-0.000037
 702	6.9749e+01	12.0735	45.129122	0.000375	3.748767	1.270117	-0.000150
 703	6.9849e+01	12.0237	45.092788	0.000091	0.911862	0.308947	-0.000037
 704	6.9948e+01	11.9820	44.959562	0.000334	3.343495	1.132807	-0.000134
 705	7.0048e+01	11.9451	44.842485	0.000294	2.938223	0.995497	-0.000118
 706	7.0147e+01	11.9066	44.798077	0.000111	1.114498	0.377602	-0.000045
 707	7.0247e+01	11.8665	44.672926	0.000314	3.140859	1.064152	-0.000126
 708	7.0347e+01	11.8328	44.612368	0.000152	1.519771	0.514912	-0.000061
 709	7.0446e+01	11.7959	44.539700	0.000182	1.823725	0.617895	-0.000073
 710	7.0546e+01	11.7414	44.414549	0.000314	3.140859	1.064152	-0.000126
 711	7.0645e+01	11.7141	44.333806	0.000203	2.026361	0.686550	-0.000081
 712	7.0745e+01	11.6628	44.261138	0.000182	1.823725	0.617895	-0.000073
 713	7.0844e+01	11.6339	44.176358	0.000213	2.127679	0.720877	-0.000085
 714	7.0944e+01	11.5842	44.071392	0.000263	2.634269	0.892514	-0.000105
 715	7.1043e+01	11.5489	44.002761	0.000172	1.722407	0.583567	-0.000069
 716	7.1142e+01	11.5136	43.861461	0.000355	3.546131	1.201462	-0.000142
 717	7.1242e+01	11.4719	43.768607	0.000233	2.330315	0.789532	-0.000093
 718	7.1341e+01	11.4221	43.663642	0.000263	2.634269	0.892514	-0.000105
 719	7.1441e+01	11.3836	43.623270	0.000101	1.013180	0.343275	-0.000041
 720	7.1540e+01	11.3483	43.490045	0.000334	3.343495	1.132807	-0.000134
 721	7.1640e+01	11.3082	43.429488	0.000152	1.519771	0.514912	-0.000061
 722	7.1740e+01	11.2665	43.320485	0.000274	2.735587	0.926842	-0.000110
 723	7.1839e+01	11.2136	43.235705	0.000213	2.127679	0.720877	-0.000085
 724	7.1939e+01	11.1927	43.114591	0.000304	3.039541	1.029824	-0.000122
 725	7.2038e+01	11.1446	43.001551	0.000284	2.836905	0.961169	-0.000114
 726	7.2138e+01	11.1061	42.912734	0.000223	2.228997	0.755205	-0.000089
 727	7.2237e+01	11.0644	42.856214	0.000142	1.418453	0.480585	-0.000057
 728	7.2337e+01	11.0291	42.731063	0.000314	3.140859	1.064152	-0.000126
 729	7.2436e+01	10.9874	42.613986	0.000294	2.938223	0.995497	-0.000118
 730	7.2535e+01	10.9441	42.517095	0.000243	2.431633	0.823860	-0.000097
 731	7.2635e+01	10.9136	42.424241	0.000233	2.330315	0.789532	-0.000093
 732	7.2734e+01	10.8703	42.299090	0.000314	3.140859	1.064152	-0.000126
 733	7.2834e+01	10.8254	42.210273	0.000223	2.228997	0.755205	-0.000089
 734	7.2933e+01	10.7869	42.073010	0.000344	3.444813	1.167134	-0.000138
 735	7.3033e+01	10.7516	41.984193	0.000223	2.228997	0.755205	-0.000089
 736	7.3132e+01	10.7179	41.875190	0.000274	2.735587	0.926842	-0.000110
 737	7.3232e+01	10.6681	41.778299	0.000243	2.431633	0.823860	-0.000097
 738	7.3332e+01	10.6329	41.657185	0.000304	3.039541	1.029824	-0.000122
 739	7.3431e+01	10.5976	41.564331	0.000233	2.330315	0.789532	-0.000093
 740	7.3531e+01	10.5494	41.447254	0.000294	2.938223	0.995497	-0.000118
 741	7.3630e+01	10.5061	41.374586	0.000182	1.823725	0.617895	-0.000073
 742	7.3730e+01	10.4788	41.293843	0.000203	2.026361	0.686550	-0.000081
 743	7.3829e+01	10.4275	41.144469	0.000375	3.748767	1.270117	-0.000150
 744	7.3928e+01	10.3954	41.059689	0.000213	2.127679	0.720877	-0.000085
 745	7.4028e+01	10.3521	40.966835	0.000233	2.330315	0.789532	-0.000093
 746	7.4127e+01	10.3168	40.845721	0.000304	3.039541	1.029824	-0.000122
 747	7.4227e+01	10.2767	40.744792	0.000253	2.532951	0.858187	-0.000101
 748	7.4326e+01	10.2318	40.639827	0.000263	2.634269	0.892514	-0.000105
 749	7.4426e+01	10.1933	40.498527	0.000355	3.546131	1.201462	-0.000142
 750	7.4525e+01	10.1532	40.421822	0.000193	1.925043	0.652222	-0.000077
 751	7.4625e+01	10.1211	40.312819	0.000274	2.735587	0.926842	-0.000110
 752	7.4725e+01	10.0698	40.187668	0.000314	3.140859	1.064152	-0.000126
 753	7.4824e+01	10.0345	40.050405	0.000344	3.444813	1.167134	-0.000138
 754	7.4924e+01	9.9847	39.973700	0.000193	1.925043	0.652222	-0.000077
 755	7.5023e+01	9.9607	39.864697	0.000274	2.735587	0.926842	-0.000110
 756	7.5123e+01	9.9174	39.755694	0.000274	2.735587	0.926842	-0.000110
 757	7.5222e+01	9.8805	39.646692	0.000274	2.735587	0.926842	-0.000110
 758	7.5322e+01	9.8243	39.537689	0.000274	2.735587	0.926842	-0.000110
 759	7.5421e+01	9.7938	39.424649	0.000284	2.836905	0.961169	-0.000114
 760	7.5520e+01	9.7489	39.319684	0.000263	2.634269	0.892514	-0.000105
 761	7.5620e+01	9.7152	39.166272	0.000385	3.850085	1.304444	-0.000154
 762	7.5719e+01	9.6783	39.133975	0.000081	0.810544	0.274620	-0.000032
 763	7.5819e+01	9.6270	38.996713	0.000344	3.444813	1.167134	-0.000138
 764	7.5918e+01	9.6061	38.879636	0.000294	2.938223	0.995497	-0.000118
 765	7.6018e+01	9.5548	38.762559	0.000294	2.938223	0.995497	-0.000118
 766	7.6118e+01	9.5067	38.669705	0.000233	2.330315	0.789532	-0.000093
 767	7.6217e+01	9.4794	38.548591	0.000304	3.039541	1.029824	-0.000122
 768	7.6317e+01	9.4345	38.447662	0.000253	2.532951	0.858187	-0.000101
 769	7.6416e+01	9.3976	38.358845	0.000223	2.228997	0.755205	-0.000089
 770	7.6516e+01	9.3623	38.270028	0.000223	2.228997	0.755205	-0.000089
 771	7.6615e+01	9.3158	38.193323	0.000193	1.925043	0.652222	-0.000077
 772	7.6715e+01	9.2805	38.023763	0.000426	4.255358	1.441754	-0.000170
 773	7.6814e+01	9.2404	37.955132	0.000172	1.722407	0.583567	-0.000069
 774	7.6913e+01	9.1955	37.821906	0.000334	3.343495	1.132807	-0.000134
 775	7.7013e+01	9.1602	37.749238	0.000182	1.823725	0.617895	-0.000073
 776	7.7112e+01	9.1185	37.656384	0.000233	2.330315	0.789532	-0.000093
 777	7.7212e+01	9.0751	37.535270	0.000304	3.039541	1.029824	-0.000122
 778	7.7311e+01	9.0382	37.418193	0.000294	2.938223	0.995497	-0.000118
 779	7.7411e+01	9.0014	37.329376	0.000223	2.228997	0.755205	-0.000089
 780	7.7510e+01	8.9628	37.208262	0.000304	3.039541	1.029824	-0.000122
 781	7.7610e+01	8.9195	37.107333	0.000253	2.532951	0.858187	-0.000101
 782	7.7710e+01	8.8778	36.998330	0.000274	2.735587	0.926842	-0.000110
 783	7.7809e+01	8.8377	36.925662	0.000182	1.823725	0.617895	-0.000073
 784	7.7909e+01	8.8024	36.808585	0.000294	2.938223	0.995497	-0.000118
 785	7.8008e+01	8.7543	36.731880	0.000193	1.925043	0.652222	-0.000077
 786	7.8108e+01	8.7206	36.594617	0.000344	3.444813	1.167134	-0.000138
 787	7.8207e+01	8.6693	36.521948	0.000182	1.823725	0.617895	-0.000073
 788	7.8306e+01	8.6372	36.392760	0.000324	3.242177	1.098479	-0.000130
 789	7.8406e+01	8.6003	36.283757	0.000274	2.735587	0.926842	-0.000110
 790	7.8505e+01	8.5602	36.186866	0.000243	2.431633	0.823860	-0.000097
 791	7.8605e+01	8.5217	36.053641	0.000334	3.343495	1.132807	-0.000134
 792	7.8704e+01	8.4768	35.972898	0.000203	2.026361	0.686550	-0.000081
 793	7.8804e+01	8.4367	35.843710	0.000324	3.242177	1.098479	-0.000130
 794	7.8903e+01	8.3998	35.714521	0.000324	3.242177	1.098479	-0.000130
 795	7.9003e+01	8.3661	35.597444	0.000294	2.938223	0.995497	-0.000118
 796	7.9103e+01	8.3196	35.520739	0.000193	1.925043	0.652222	-0.000077
 797	7.9202e+01	8.2843	35.411736	0.000274	2.735587	0.926842	-0.000110
 798	7.9302e+01	8.2393	35.266399	0.000365	3.647449	1.235789	-0.000146
 799	7.9401e+01	8.2008	35.173545	0.000233	2.330315	0.789532	-0.000093
 800	7.9501e+01	8.1623	35.048394	0.000314	3.140859	1.064152	-0.000126
 801	7.9600e+01	8.1174	34.919206	0.000324	3.242177	1.098479	-0.000130
 802	7.9700e+01	8.0693	34.866723	0.000132	1.317134	0.446257	-0.000053
 803	7.9799e+01	8.0388	34.701200	0.000415	4.154039	1.407427	-0.000166
 804	7.9898e+01	8.0147	34.624495	0.000193	1.925043	0.652222	-0.000077
 805	7.9998e+01	7.9634	34.519529	0.000263	2.634269	0.892514	-0.000105
 806	8.0097e+01	7.9281	34.426675	0.000233	2.330315	0.789532	-0.000093
 807	8.0197e+01	7.8832	34.277301	0.000375	3.748767	1.270117	-0.000150
 808	8.0296e+01	7.8383	34.168298	0.000274	2.735587	0.926842	-0.000110
 809	8.0396e+01	7.7950	34.047184	0.000304	3.039541	1.029824	-0.000122
 810	8.0496e+01	7.7613	33.938182	0.000274	2.735587	0.926842	-0.000110
 811	8.0595e+01	7.7212	33.829179	0.000274	2.735587	0.926842	-0.000110
 812	8.0695e+01	7.6875	33.683842	0.000365	3.647449	1.235789	-0.000146
 813	8.0794e+01	7.6490	33.574839	0.000274	2.735587	0.926842	-0.000110
 814	8.0894e+01	7.6041	33.457762	0.000294	2.938223	0.995497	-0.000118
 815	8.0993e+01	7.5559	33.336648	0.000304	3.039541	1.029824	-0.000122
 816	8.1093e+01	7.5255	33.191311	0.000365	3.647449	1.235789	-0.000146
 817	8.1192e+01	7.4741	33.114606	0.000193	1.925043	0.652222	-0.000077
 818	8.1291e+01	7.4420	32.973306	0.000355	3.546131	1.201462	-0.000142
 819	8.1391e+01	7.4019	32.844118	0.000324	3.242177	1.098479	-0.000130
 820	8.1490e+01	7.3602	32.767412	0.000193	1.925043	0.652222	-0.000077
 821	8.1590e+01	7.3201	32.589778	0.000446	4.457994	1.510409	-0.000179
 822	8.1689e+01	7.2896	32.496924	0.000233	2.330315	0.789532	-0.000093
 823	8.1789e+01	7.2431	32.367736	0.000324	3.242177	1.098479	-0.000130
 824	8.1888e+01	7.2062	32.262770	0.000263	2.634269	0.892514	-0.000105
 825	8.1988e+01	7.1645	32.097248	0.000415	4.154039	1.407427	-0.000166
 826	8.2088e+01	7.1180	31.964022	0.000334	3.343495	1.132807	-0.000134
 827	8.2187e+01	7.0843	31.818685	0.000365	3.647449	1.235789	-0.000146
 828	8.2287e+01	7.0281	31.709683	0.000274	2.735587	0.926842	-0.000110
 829	8.2386e+01	7.0057	31.592606	0.000294	2.938223	0.995497	-0.000118
 830	8.2486e+01	6.9768	31.471492	0.000304	3.039541	1.029824	-0.000122
 831	8.2585e+01	6.9158	31.285783	0.000466	4.660630	1.579064	-0.000187
 832	8.2684e+01	6.8822	31.241375	0.000111	1.114498	0.377602	-0.000045
 833	8.2784e+01	6.8404	31.108149	0.000334	3.343495	1.132807	-0.000134
 834	8.2883e+01	6.8068	30.995110	0.000284	2.836905	0.961169	-0.000114
 835	8.2983e+01	6.7731	30.841698	0.000385	3.850085	1.304444	-0.000154
 836	8.3082e+01	6.7233	30.716547	0.000314	3.140859	1.064152	-0.000126
 837	8.3182e+01	6.6864	30.583322	0.000334	3.343495	1.132807	-0.000134
 838	8.3281e+01	6.6479	30.421836	0.000405	4.052721	1.373099	-0.000162
 839	8.3381e+01	6.6062	30.377428	0.000111	1.114498	0.377602	-0.000045
 840	8.3481e+01	6.5565	30.244202	0.000334	3.343495	1.132807	-0.000134
 841	8.3580e+01	6.5260	30.139237	0.000263	2.634269	0.892514	-0.000105
 842	8.3680e+01	6.4843	29.985826	0.000385	3.850085	1.304444	-0.000154
 843	8.3779e+01	6.4506	29.840489	0.000365	3.647449	1.235789	-0.000146
 844	8.3879e+01	6.4105	29.723412	0.000294	2.938223	0.995497	-0.000118
 845	8.3978e+01	6.3688	29.594224	0.000324	3.242177	1.098479	-0.000130
 846	8.4078e+01	6.3335	29.481184	0.000284	2.836905	0.961169	-0.000114
 847	8.4177e+01	6.2886	29.351995	0.000324	3.242177	1.098479	-0.000130
 848	8.4276e+01	6.2501	29.218770	0.000334	3.343495	1.132807	-0.000134
 849	8.4376e+01	6.2100	29.089582	0.000324	3.242177	1.098479	-0.000130
 850	8.4475e+01	6.1731	28.964430	0.000314	3.140859	1.064152	-0.000126
 851	8.4575e+01	6.1362	28.819093	0.000365	3.647449	1.235789	-0.000146
 852	8.4674e+01	6.0849	28.734314	0.000213	2.127679	0.720877	-0.000085
 853	8.4774e+01	6.0447	28.588977	0.000365	3.647449	1.235789	-0.000146
 854	8.4874e+01	6.0014	28.471900	0.000294	2.938223	0.995497	-0.000118
 855	8.4973e+01	5.9710	28.338674	0.000334	3.343495	1.132807	-0.000134
 856	8.5073e+01	5.9325	28.245820	0.000233	2.330315	0.789532	-0.000093
 857	8.5172e+01	5.8923	28.132780	0.000284	2.836905	0.961169	-0.000114
 858	8.5272e+01	5.8522	27.967258	0.000415	4.154039	1.407427	-0.000166
 859	8.5371e+01	5.8041	27.854218	0.000284	2.836905	0.961169	-0.000114
 860	8.5471e+01	5.7656	27.729067	0.000314	3.140859	1.064152	-0.000126
 861	8.5570e+01	5.7319	27.587767	0.000355	3.546131	1.201462	-0.000142
 862	8.5669e+01	5.6854	27.511061	0.000193	1.925043	0.652222	-0.000077
 863	8.5769e+01	5.6469	27.373799	0.000344	3.444813	1.167134	-0.000138
 864	8.5868e+01	5.6100	27.317279	0.000142	1.418453	0.480585	-0.000057
 865	8.5968e+01	5.5779	27.200202	0.000294	2.938223	0.995497	-0.000118
 866	8.6067e+01	5.5314	27.107348	0.000233	2.330315	0.789532	-0.000093
 867	8.6167e+01	5.4833	26.970085	0.000344	3.444813	1.167134	-0.000138
 868	8.6266e+01	5.4464	26.873194	0.000243	2.431633	0.823860	-0.000097
 869	8.6366e+01	5.4111	26.719783	0.000385	3.850085	1.304444	-0.000154
 870	8.6466e+01	5.3790	26.614817	0.000263	2.634269	0.892514	-0.000105
 871	8.6565e+01	5.3261	26.473518	0.000355	3.546131	1.201462	-0.000142
 872	8.6665e+01	5.2827	26.368552	0.000263	2.634269	0.892514	-0.000105
 873	8.6764e+01	5.2587	26.231289	0.000344	3.444813	1.167134	-0.000138
 874	8.6864e+01	5.2122	26.134398	0.000243	2.431633	0.823860	-0.000097
 875	8.6963e+01	5.1753	26.061730	0.000182	1.823725	0.617895	-0.000073
 876	8.7063e+01	5.1351	25.928504	0.000334	3.343495	1.132807	-0.000134
 877	8.7162e+01	5.0950	25.767019	0.000405	4.052721	1.373099	-0.000162
 878	8.7261e+01	5.0549	25.674165	0.000233	2.330315	0.789532	-0.000093
 879	8.7361e+01	5.0100	25.565162	0.000274	2.735587	0.926842	-0.000110
 880	8.7460e+01	4.9667	25.468271	0.000243	2.431633	0.823860	-0.000097
 881	8.7560e+01	4.9330	25.343120	0.000314	3.140859	1.064152	-0.000126
 882	8.7659e+01	4.8993	25.217968	0.000314	3.140859	1.064152	-0.000126
 883	8.7759e+01	4.8528	25.080706	0.000344	3.444813	1.167134	-0.000138
 884	8.7859e+01	4.8127	24.967666	0.000284	2.836905	0.961169	-0.000114
 885	8.7958e+01	4.7758	24.890960	0.000193	1.925043	0.652222	-0.000077
 886	8.8058e+01	4.7293	24.713326	0.000446	4.457994	1.510409	-0.000179
 887	8.8157e+01	4.6972	24.624509	0.000223	2.228997	0.755205	-0.000089
 888	8.8257e+01	4.6603	24.487247	0.000344	3.444813	1.167134	-0.000138
 889	8.8356e+01	4.6090	24.390356	0.000243	2.431633	0.823860	-0.000097
 890	8.8456e+01	4.5689	24.245019	0.000365	3.647449	1.235789	-0.000146
 891	8.8555e+01	4.5400	24.160239	0.000213	2.127679	0.720877	-0.000085
 892	8.8654e+01	4.4951	24.022976	0.000344	3.444813	1.167134	-0.000138
 893	8.8754e+01	4.4582	23.926085	0.000243	2.431633	0.823860	-0.000097
 894	8.8853e+01	4.4165	23.776711	0.000375	3.748767	1.270117	-0.000150
 895	8.8953e+01	4.3763	23.695968	0.000203	2.026361	0.686550	-0.000081
 896	8.9052e+01	4.3411	23.550631	0.000365	3.647449	1.235789	-0.000146
 897	8.9152e+01	4.2897	23.441629	0.000274	2.735587	0.926842	-0.000110
 898	8.9251e+01	4.2576	23.316477	0.000314	3.140859	1.064152	-0.000126
 899	8.9351e+01	4.2095	23.191326	0.000314	3.140859	1.064152	-0.000126
 900	8.9451e+01	4.1806	23.086361	0.000263	2.634269	0.892514	-0.000105
 901	8.9550e+01	4.1389	22.920838	0.000415	4.154039	1.407427	-0.000166
 902	8.9650e+01	4.1004	22.811835	0.000274	2.735587	0.926842	-0.000110
 903	8.9749e+01	4.0523	22.682647	0.000324	3.242177	1.098479	-0.000130
 904	8.9849e+01	4.0122	22.517125	0.000415	4.154039	1.407427	-0.000166
 905	8.9948e+01	3.9785	22.379862	0.000344	3.444813	1.167134	-0.000138
 906	9.0047e+01	3.9336	22.250674	0.000324	3.242177	1.098479	-0.000130
 907	9.0147e+01	3.8935	22.149745	0.000253	2.532951	0.858187	-0.000101
 908	9.0246e+01	3.8518	22.008445	0.000355	3.546131	1.201462	-0.000142
 909	9.0346e+01	3.8133	21.883294	0.000314	3.140859	1.064152	-0.000126
 910	9.0445e+01	3.7764	21.717772	0.000415	4.154039	1.407427	-0.000166
 911	9.0545e+01	3.7395	21.596658	0.000304	3.039541	1.029824	-0.000122
 912	9.0644e+01	3.7026	21.443246	0.000385	3.850085	1.304444	-0.000154
 913	9.0744e+01	3.6593	21.318095	0.000314	3.140859	1.064152	-0.000126
 914	9.0844e+01	3.6240	21.205055	0.000284	2.836905	0.961169	-0.000114
 915	9.0943e+01	3.5758	20.991087	0.000537	5.369856	1.819356	-0.000215
 916	9.1043e+01	3.5325	20.874010	0.000294	2.938223	0.995497	-0.000118
 917	9.1142e+01	3.4972	20.744822	0.000324	3.242177	1.098479	-0.000130
 918	9.1242e+01	3.4507	20.611597	0.000334	3.343495	1.132807	-0.000134
 919	9.1341e+01	3.4122	20.450111	0.000405	4.052721	1.373099	-0.000162
 920	9.1441e+01	3.3801	20.296700	0.000385	3.850085	1.304444	-0.000154
 921	9.1540e+01	3.3368	20.163474	0.000334	3.343495	1.132807	-0.000134
 922	9.1639e+01	3.2967	20.010063	0.000385	3.850085	1.304444	-0.000154
 923	9.1739e+01	3.2598	19.888949	0.000304	3.039541	1.029824	-0.000122
 924	9.1838e+01	3.2261	19.743612	0.000365	3.647449	1.235789	-0.000146
 925	9.1938e+01	3.1764	19.606350	0.000344	3.444813	1.167134	-0.000138
 926	9.2037e+01	3.1411	19.481199	0.000314	3.140859	1.064152	-0.000126
 927	9.2137e+01	3.1010	19.307602	0.000436	4.356676	1.476082	-0.000174
 928	9.2237e+01	3.0593	19.154191	0.000385	3.850085	1.304444	-0.000154
 929	9.2336e+01	3.0095	19.025002	0.000324	3.242177	1.098479	-0.000130
 930	9.2436e+01	2.9791	18.847368	0.000446	4.457994	1.510409	-0.000179
 931	9.2535e+01	2.9374	18.689920	0.000395	3.951403	1.338772	-0.000158
 932	9.2635e+01	2.8940	18.528434	0.000405	4.052721	1.373099	-0.000162
 933	9.2734e+01	2.8587	18.439617	0.000223	2.228997	0.755205	-0.000089
 934	9.2834e+01	2.8154	18.290243	0.000375	3.748767	1.270117	-0.000150
 935	9.2933e+01	2.7769	18.080312	0.000527	5.268538	1.785029	-0.000211
 936	9.3032e+01	2.7432	17.979384	0.000253	2.532951	0.858187	-0.000101
 937	9.3132e+01	2.7079	17.874418	0.000263	2.634269	0.892514	-0.000105
 938	9.3231e+01	2.6678	17.696785	0.000446	4.457994	1.510409	-0.000179
 939	9.3331e+01	2.6277	17.539336	0.000395	3.951403	1.338772	-0.000158
 940	9.3430e+01	2.5812	17.422259	0.000294	2.938223	0.995497	-0.000118
 941	9.3530e+01	2.5507	17.256737	0.000415	4.154039	1.407427	-0.000166
 942	9.3629e+01	2.5122	17.091214	0.000415	4.154039	1.407427	-0.000166
 943	9.3729e+01	2.4705	16.957989	0.000334	3.343495	1.132807	-0.000134
 944	9.3829e+01	2.4176	16.760169	0.000496	4.964584	1.682047	-0.000199
 945	9.3928e+01	2.3807	16.622906	0.000344	3.444813	1.167134	-0.000138
 946	9.4028e+01	2.3390	16.453347	0.000426	4.255358	1.441754	-0.000170
 947	9.4127e+01	2.3069	16.328195	0.000314	3.140859	1.064152	-0.000126
 948	9.4227e+01	2.2539	16.158636	0.000426	4.255358	1.441754	-0.000170
 949	9.4326e+01	2.2187	16.049633	0.000274	2.735587	0.926842	-0.000110
 950	9.4425e+01	2.1882	15.855851	0.000486	4.863266	1.647719	-0.000195
 951	9.4525e+01	2.1433	15.718588	0.000344	3.444813	1.167134	-0.000138
 952	9.4624e+01	2.1080	15.565177	0.000385	3.850085	1.304444	-0.000154
 953	9.4724e+01	2.0663	15.435988	0.000324	3.242177	1.098479	-0.000130
 954	9.4823e+01	2.0197	15.298726	0.000344	3.444813	1.167134	-0.000138
 955	9.4923e+01	1.9812	15.125129	0.000436	4.356676	1.476082	-0.000174
 956	9.5022e+01	1.9491	14.967681	0.000395	3.951403	1.338772	-0.000158
 957	9.5122e+01	1.9058	14.862715	0.000263	2.634269	0.892514	-0.000105
 958	9.5222e+01	1.8625	14.701230	0.000405	4.052721	1.373099	-0.000162
 959	9.5321e+01	1.8272	14.527633	0.000436	4.356676	1.476082	-0.000174
 960	9.5421e+01	1.7791	14.366148	0.000405	4.052721	1.373099	-0.000162
 961	9.5520e+01	1.7518	14.224848	0.000355	3.546131	1.201462	-0.000142
 962	9.5620e+01	1.7053	14.115845	0.000274	2.735587	0.926842	-0.000110
 963	9.5719e+01	1.6652	13.934174	0.000456	4.559312	1.544737	-0.000183
 964	9.5819e+01	1.6299	13.796911	0.000344	3.444813	1.167134	-0.000138
 965	9.5918e+01	1.5770	13.643500	0.000385	3.850085	1.304444	-0.000154
 966	9.6017e+01	1.5481	13.526423	0.000294	2.938223	0.995497	-0.000118
 967	9.6117e+01	1.4984	13.389161	0.000344	3.444813	1.167134	-0.000138
 968	9.6216e+01	1.4663	13.223638	0.000415	4.154039	1.407427	-0.000166
 969	9.6316e+01	1.4358	13.098487	0.000314	3.140859	1.064152	-0.000126
 970	9.6415e+01	1.3812	12.932964	0.000415	4.154039	1.407427	-0.000166
 971	9.6515e+01	1.3443	12.807813	0.000314	3.140859	1.064152	-0.000126
 972	9.6615e+01	1.3010	12.630179	0.000446	4.457994	1.510409	-0.000179
 973	9.6714e+01	1.2625	12.513102	0.000294	2.938223	0.995497	-0.000118
 974	9.6814e+01	1.2353	12.327394	0.000466	4.660630	1.579064	-0.000187
 975	9.6913e+01	1.1871	12.198206	0.000324	3.242177	1.098479	-0.000130
 976	9.7013e+01	1.1470	12.040757	0.000395	3.951403	1.338772	-0.000158
 977	9.7112e+01	1.1053	11.891383	0.000375	3.748767	1.270117	-0.000150
 978	9.7212e+01	1.0636	11.746046	0.000365	3.647449	1.235789	-0.000146
 979	9.7311e+01	1.0267	11.608784	0.000344	3.444813	1.167134	-0.000138
 980	9.7410e+01	0.9786	11.459410	0.000375	3.748767	1.270117	-0.000150
 981	9.7510e+01	0.9449	11.314073	0.000365	3.647449	1.235789	-0.000146
 982	9.7609e+01	0.9112	11.140476	0.000436	4.356676	1.476082	-0.000174
 983	9.7709e+01	0.8695	10.974954	0.000415	4.154039	1.407427	-0.000166
 984	9.7808e+01	0.8278	10.833654	0.000355	3.546131	1.201462	-0.000142
 985	9.7908e+01	0.7845	10.651983	0.000456	4.559312	1.544737	-0.000183
 986	9.8007e+01	0.7508	10.494534	0.000395	3.951403	1.338772	-0.000158
 987	9.8107e+01	0.7043	10.369383	0.000314	3.140859	1.064152	-0.000126
 988	9.8207e+01	0.6674	10.183675	0.000466	4.660630	1.579064	-0.000187
 989	9.8306e+01	0.6257	10.026227	0.000395	3.951403	1.338772	-0.000158
 990	9.8406e+01	0.5888	9.905113	0.000304	3.039541	1.029824	-0.000122
 991	9.8505e+01	0.5535	9.707293	0.000496	4.964584	1.682047	-0.000199
 992	9.8605e+01	0.5150	9.578105	0.000324	3.242177	1.098479	-0.000130
 993	9.8704e+01	0.4684	9.392396	0.000466	4.660630	1.579064	-0.000187
 994	9.8803e+01	0.4347	9.238985	0.000385	3.850085	1.304444	-0.000154
 995	9.8903e+01	0.3882	9.097685	0.000355	3.546131	1.201462	-0.000142
 996	9.9002e+01	0.3449	8.911977	0.000466	4.660630	1.579064	-0.000187
 997	9.9102e+01	0.3032	8.790863	0.000304	3.039541	1.029824	-0.000122
 998	9.9201e+01	0.2695	8.584969	0.000517	5.167220	1.750701	-0.000207
 999	9.9301e+01	0.2310	8.463855	0.000304	3.039541	1.029824	-0.000122
1000	9.9400e+01	0.1925	8.266035	0.000496	4.964584	1.682047	-0.000199
1001	9.9500e+01	0.1444	8.116661	0.000375	3.748767	1.270117	-0.000150
1002	9.9600e+01	0.1139	7.947102	0.000426	4.255358	1.441754	-0.000170
1003	9.9699e+01	0.0722	7.817913	0.000324	3.242177	1.098479	-0.000130
1004	9.9799e+01	0.0305	7.616057	0.000507	5.065902	1.716374	-0.000203
1005	9.9898e+01	0.0096	7.442460	0.000436	4.356676	1.476082	-0.000174
1006	9.9998e+01	-0.0401	7.285011	0.000395	3.951403	1.338772	-0.000158
1007	1.0010e+02	-0.0690	7.139675	0.000365	3.647449	1.235789	-0.000146
1008	1.0020e+02	-0.1171	6.937818	0.000507	5.065902	1.716374	-0.000203
1009	1.0030e+02	-0.1540	6.800555	0.000344	3.444813	1.167134	-0.000138
1010	1.0040e+02	-0.1957	6.643107	0.000395	3.951403	1.338772	-0.000158
1011	1.0050e+02	-0.2390	6.469510	0.000436	4.356676	1.476082	-0.000174
1012	1.0059e+02	-0.2775	6.235356	0.000588	5.876446	1.990994	-0.000235
1013	1.0069e+02	-0.3144	6.085982	0.000375	3.748767	1.270117	-0.000150
1014	1.0079e+02	-0.3610	5.944682	0.000355	3.546131	1.201462	-0.000142
1015	1.0089e+02	-0.3978	5.799345	0.000365	3.647449	1.235789	-0.000146
1016	1.0099e+02	-0.4331	5.641897	0.000395	3.951403	1.338772	-0.000158
1017	1.0109e+02	-0.4716	5.488486	0.000385	3.850085	1.304444	-0.000154
1018	1.0119e+02	-0.5198	5.310852	0.000446	4.457994	1.510409	-0.000179
1019	1.0129e+02	-0.5551	5.141292	0.000426	4.255358	1.441754	-0.000170
1020	1.0139e+02	-0.6000	4.951547	0.000476	4.761948	1.613392	-0.000191
1021	1.0149e+02	-0.6337	4.769876	0.000456	4.559312	1.544737	-0.000183
1022	1.0159e+02	-0.6690	4.596279	0.000436	4.356676	1.476082	-0.000174
1023	1.0169e+02	-0.7139	4.430756	0.000415	4.154039	1.407427	-0.000166
1024	1.0179e+02	-0.7572	4.236974	0.000486	4.863266	1.647719	-0.000195
1025	1.0189e+02	-0.7957	4.055303	0.000456	4.559312	1.544737	-0.000183
1026	1.0199e+02	-0.8342	3.885743	0.000426	4.255358	1.441754	-0.000170
1027	1.0209e+02	-0.8743	3.724258	0.000405	4.052721	1.373099	-0.000162
1028	1.0219e+02	-0.9144	3.522401	0.000507	5.065902	1.716374	-0.000203
1029	1.0229e+02	-0.9609	3.324581	0.000496	4.964584	1.682047	-0.000199
1030	1.0239e+02	-0.9946	3.155022	0.000426	4.255358	1.441754	-0.000170
1031	1.0248e+02	-1.0444	3.005648	0.000375	3.748767	1.270117	-0.000150
1032	1.0258e+02	-1.0764	2.791679	0.000537	5.369856	1.819356	-0.000215
1033	1.0268e+02	-1.1165	2.646342	0.000365	3.647449	1.235789	-0.000146
1034	1.0278e+02	-1.1567	2.484857	0.000405	4.052721	1.373099	-0.000162
1035	1.0288e+02	-1.1968	2.274926	0.000527	5.268538	1.785029	-0.000211
1036	1.0298e+02	-1.2417	2.117478	0.000395	3.951403	1.338772	-0.000158
1037	1.0308e+02	-1.2738	1.947918	0.000426	4.255358	1.441754	-0.000170
1038	1.0318e+02	-1.3187	1.721838	0.000567	5.673810	1.922339	-0.000227
1039	1.0328e+02	-1.3636	1.600724	0.000304	3.039541	1.029824	-0.000122
1040	1.0338e+02	-1.3973	1.406942	0.000486	4.863266	1.647719	-0.000195
1041	1.0348e+02	-1.4342	1.241419	0.000415	4.154039	1.407427	-0.000166
1042	1.0358e+02	-1.4775	1.079934	0.000405	4.052721	1.373099	-0.000162
1043	1.0368e+02	-1.5192	0.878077	0.000507	5.065902	1.716374	-0.000203
1044	1.0378e+02	-1.5545	0.732740	0.000365	3.647449	1.235789	-0.000146
1045	1.0388e+02	-1.5930	0.534920	0.000496	4.964584	1.682047	-0.000199
1046	1.0398e+02	-1.6331	0.373435	0.000405	4.052721	1.373099	-0.000162
1047	1.0408e+02	-1.6748	0.179653	0.000486	4.863266	1.647719	-0.000195
1048	1.0418e+02	-1.7165	0.034316	0.000365	3.647449	1.235789	-0.000146
1049	1.0428e+02	-1.7534	-0.111021	0.000365	3.647449	1.235789	-0.000146
1050	1.0438e+02	-1.7919	-0.316915	0.000517	5.167220	1.750701	-0.000207
1051	1.0447e+02	-1.8304	-0.470326	0.000385	3.850085	1.304444	-0.000154
1052	1.0457e+02	-1.8753	-0.631812	0.000405	4.052721	1.373099	-0.000162
1053	1.0467e+02	-1.9106	-0.817520	0.000466	4.660630	1.579064	-0.000187
1054	1.0477e+02	-1.9491	-0.946708	0.000324	3.242177	1.098479	-0.000130
1055	1.0487e+02	-1.9989	-1.164714	0.000547	5.471174	1.853684	-0.000219
1056	1.0497e+02	-2.0310	-1.338310	0.000436	4.356676	1.476082	-0.000174
1057	1.0507e+02	-2.0759	-1.499796	0.000405	4.052721	1.373099	-0.000162
1058	1.0517e+02	-2.1144	-1.645133	0.000365	3.647449	1.235789	-0.000146
1059	1.0527e+02	-2.1545	-1.794507	0.000375	3.748767	1.270117	-0.000150
1060	1.0537e+02	-2.1882	-1.951955	0.000395	3.951403	1.338772	-0.000158
1061	1.0547e+02	-2.2331	-2.073069	0.000304	3.039541	1.029824	-0.000122
1062	1.0557e+02	-2.2668	-2.291075	0.000547	5.471174	1.853684	-0.000219
1063	1.0567e+02	-2.3165	-2.428337	0.000344	3.444813	1.167134	-0.000138
1064	1.0577e+02	-2.3550	-2.573674	0.000365	3.647449	1.235789	-0.000146
1065	1.0587e+02	-2.3855	-2.783605	0.000527	5.268538	1.785029	-0.000211
1066	1.0597e+02	-2.4256	-2.945091	0.000405	4.052721	1.373099	-0.000162
1067	1.0607e+02	-2.4737	-3.134836	0.000476	4.761948	1.613392	-0.000191
1068	1.0617e+02	-2.5106	-3.251913	0.000294	2.938223	0.995497	-0.000118
1069	1.0627e+02	-2.5523	-3.453770	0.000507	5.065902	1.716374	-0.000203
1070	1.0637e+02	-2.5908	-3.599107	0.000365	3.647449	1.235789	-0.000146
1071	1.0647e+02	-2.6277	-3.772703	0.000436	4.356676	1.476082	-0.000174
1072	1.0656e+02	-2.6630	-3.946300	0.000436	4.356676	1.476082	-0.000174
1073	1.0666e+02	-2.7112	-4.136046	0.000476	4.761948	1.613392	-0.000191
1074	1.0676e+02	-2.7497	-4.293494	0.000395	3.951403	1.338772	-0.000158
1075	1.0686e+02	-2.7849	-4.418645	0.000314	3.140859	1.064152	-0.000126
1076	1.0696e+02	-2.8267	-4.608390	0.000476	4.761948	1.613392	-0.000191
1077	1.0706e+02	-2.8748	-4.769876	0.000405	4.052721	1.373099	-0.000162
1078	1.0716e+02	-2.9085	-4.931361	0.000405	4.052721	1.373099	-0.000162
1079	1.0726e+02	-2.9582	-5.100921	0.000426	4.255358	1.441754	-0.000170
1080	1.0736e+02	-2.9935	-5.270481	0.000426	4.255358	1.441754	-0.000170
1081	1.0746e+02	-3.0288	-5.472337	0.000507	5.065902	1.716374	-0.000203
1082	1.0756e+02	-3.0673	-5.617674	0.000365	3.647449	1.235789	-0.000146
1083	1.0766e+02	-3.1106	-5.815494	0.000496	4.964584	1.682047	-0.000199
1084	1.0776e+02	-3.1523	-5.976979	0.000405	4.052721	1.373099	-0.000162
1085	1.0786e+02	-3.1972	-6.178836	0.000507	5.065902	1.716374	-0.000203
1086	1.0796e+02	-3.2197	-6.312062	0.000334	3.343495	1.132807	-0.000134
1087	1.0806e+02	-3.2758	-6.517956	0.000517	5.167220	1.750701	-0.000207
1088	1.0816e+02	-3.3143	-6.630995	0.000284	2.836905	0.961169	-0.000114
1089	1.0826e+02	-3.3432	-6.792481	0.000405	4.052721	1.373099	-0.000162
1090	1.0836e+02	-3.3865	-6.994338	0.000507	5.065902	1.716374	-0.000203
1091	1.0845e+02	-3.4266	-7.188120	0.000486	4.863266	1.647719	-0.000195
1092	1.0855e+02	-3.4684	-7.309234	0.000304	3.039541	1.029824	-0.000122
1093	1.0865e+02	-3.5101	-7.503017	0.000486	4.863266	1.647719	-0.000195
1094	1.0875e+02	-3.5405	-7.684688	0.000456	4.559312	1.544737	-0.000183
1095	1.0885e+02	-3.5999	-7.842136	0.000395	3.951403	1.338772	-0.000158
1096	1.0895e+02	-3.6304	-8.019770	0.000446	4.457994	1.510409	-0.000179
1097	1.0905e+02	-3.6689	-8.217590	0.000496	4.964584	1.682047	-0.000199
1098	1.0915e+02	-3.7074	-8.399261	0.000456	4.559312	1.544737	-0.000183
1099	1.0925e+02	-3.7507	-8.552672	0.000385	3.850085	1.304444	-0.000154
1100	1.0935e+02	-3.7860	-8.742417	0.000476	4.761948	1.613392	-0.000191
1101	1.0945e+02	-3.8229	-8.887754	0.000365	3.647449	1.235789	-0.000146
1102	1.0955e+02	-3.8630	-9.073463	0.000466	4.660630	1.579064	-0.000187
1103	1.0965e+02	-3.9015	-9.251097	0.000446	4.457994	1.510409	-0.000179
1104	1.0975e+02	-3.9432	-9.412582	0.000405	4.052721	1.373099	-0.000162
1105	1.0985e+02	-3.9833	-9.598290	0.000466	4.660630	1.579064	-0.000187
1106	1.0995e+02	-4.0298	-9.808221	0.000527	5.268538	1.785029	-0.000211
1107	1.1005e+02	-4.0635	-9.969707	0.000405	4.052721	1.373099	-0.000162
1108	1.1015e+02	-4.1116	-10.159452	0.000476	4.761948	1.613392	-0.000191
1109	1.1025e+02	-4.1453	-10.296715	0.000344	3.444813	1.167134	-0.000138
1110	1.1035e+02	-4.1903	-10.526831	0.000578	5.775128	1.956666	-0.000231
1111	1.1044e+02	-4.2304	-10.708503	0.000456	4.559312	1.544737	-0.000183
1112	1.1054e+02	-4.2705	-10.841728	0.000334	3.343495	1.132807	-0.000134
1113	1.1064e+02	-4.2977	-11.019362	0.000446	4.457994	1.510409	-0.000179
1114	1.1074e+02	-4.3427	-11.205070	0.000466	4.660630	1.579064	-0.000187
1115	1.1084e+02	-4.3812	-11.358481	0.000385	3.850085	1.304444	-0.000154
1116	1.1094e+02	-4.4245	-11.552264	0.000486	4.863266	1.647719	-0.000195
1117	1.1104e+02	-4.4566	-11.701638	0.000375	3.748767	1.270117	-0.000150
1118	1.1114e+02	-4.5079	-11.867161	0.000415	4.154039	1.407427	-0.000166
1119	1.1124e+02	-4.5432	-12.032683	0.000415	4.154039	1.407427	-0.000166
1120	1.1134e+02	-4.5801	-12.218391	0.000466	4.660630	1.579064	-0.000187
1121	1.1144e+02	-4.6202	-12.363728	0.000365	3.647449	1.235789	-0.000146
1122	1.1154e+02	-4.6651	-12.565585	0.000507	5.065902	1.716374	-0.000203
1123	1.1164e+02	-4.7052	-12.755330	0.000476	4.761948	1.613392	-0.000191
1124	1.1174e+02	-4.7357	-12.864333	0.000274	2.735587	0.926842	-0.000110
1125	1.1184e+02	-4.7742	-13.102524	0.000598	5.977764	2.025321	-0.000239
1126	1.1194e+02	-4.8159	-13.243824	0.000355	3.546131	1.201462	-0.000142
1127	1.1204e+02	-4.8672	-13.437606	0.000486	4.863266	1.647719	-0.000195
1128	1.1214e+02	-4.9041	-13.627352	0.000476	4.761948	1.613392	-0.000191
1129	1.1224e+02	-4.9362	-13.861506	0.000588	5.876446	1.990994	-0.000235
1130	1.1234e+02	-4.9827	-14.051251	0.000476	4.761948	1.613392	-0.000191
1131	1.1244e+02	-5.0277	-14.184476	0.000334	3.343495	1.132807	-0.000134
1132	1.1253e+02	-5.0614	-14.398445	0.000537	5.369856	1.819356	-0.000215
1133	1.1263e+02	-5.0950	-14.559930	0.000405	4.052721	1.373099	-0.000162
1134	1.1273e+02	-5.1448	-14.689118	0.000324	3.242177	1.098479	-0.000130
1135	1.1283e+02	-5.1801	-14.818307	0.000324	3.242177	1.098479	-0.000130
1136	1.1293e+02	-5.2282	-15.052461	0.000588	5.876446	1.990994	-0.000235
1137	1.1303e+02	-5.2571	-15.238169	0.000466	4.660630	1.579064	-0.000187
1138	1.1313e+02	-5.3052	-15.383506	0.000365	3.647449	1.235789	-0.000146
1139	1.1323e+02	-5.3453	-15.573251	0.000476	4.761948	1.613392	-0.000191
1140	1.1333e+02	-5.3790	-15.754922	0.000456	4.559312	1.544737	-0.000183
1141	1.1343e+02	-5.4175	-15.888148	0.000334	3.343495	1.132807	-0.000134
1142	1.1353e+02	-5.4672	-16.029447	0.000355	3.546131	1.201462	-0.000142
1143	1.1363e+02	-5.5025	-16.186896	0.000395	3.951403	1.338772	-0.000158
1144	1.1373e+02	-5.5522	-16.324158	0.000344	3.444813	1.167134	-0.000138
1145	1.1383e+02	-5.5731	-16.485644	0.000405	4.052721	1.373099	-0.000162
1146	1.1393e+02	-5.6180	-16.622906	0.000344	3.444813	1.167134	-0.000138
1147	1.1403e+02	-5.6581	-16.760169	0.000344	3.444813	1.167134	-0.000138
1148	1.1413e+02	-5.6982	-16.901469	0.000355	3.546131	1.201462	-0.000142
1149	1.1423e+02	-5.7464	-17.038731	0.000344	3.444813	1.167134	-0.000138
1150	1.1433e+02	-5.7849	-17.196180	0.000395	3.951403	1.338772	-0.000158
1151	1.1442e+02	-5.8298	-17.365739	0.000426	4.255358	1.441754	-0.000170
1152	1.1452e+02	-5.8619	-17.478779	0.000284	2.836905	0.961169	-0.000114
1153	1.1462e+02	-5.8988	-17.591819	0.000284	2.836905	0.961169	-0.000114
1154	1.1472e+02	-5.9405	-17.793676	0.000507	5.065902	1.716374	-0.000203
1155	1.1482e+02	-5.9806	-17.906716	0.000284	2.836905	0.961169	-0.000114
1156	1.1492e+02	-6.0207	-18.056090	0.000375	3.748767	1.270117	-0.000150
1157	1.1502e+02	-6.0592	-18.177204	0.000304	3.039541	1.029824	-0.000122
1158	1.1512e+02	-6.0977	-18.370986	0.000486	4.863266	1.647719	-0.000195
1159	1.1522e+02	-6.1298	-18.516323	0.000365	3.647449	1.235789	-0.000146
1160	1.1532e+02	-6.1763	-18.649549	0.000334	3.343495	1.132807	-0.000134
1161	1.1542e+02	-6.2116	-18.798923	0.000375	3.748767	1.270117	-0.000150
1162	1.1552e+02	-6.2597	-18.948297	0.000375	3.748767	1.270117	-0.000150
1163	1.1562e+02	-6.2998	-19.073448	0.000314	3.140859	1.064152	-0.000126
1164	1.1572e+02	-6.3415	-19.218785	0.000365	3.647449	1.235789	-0.000146
1165	1.1582e+02	-6.3736	-19.368159	0.000375	3.748767	1.270117	-0.000150
1166	1.1592e+02	-6.4201	-19.541756	0.000436	4.356676	1.476082	-0.000174
1167	1.1602e+02	-6.4506	-19.630573	0.000223	2.228997	0.755205	-0.000089
1168	1.1612e+02	-6.4955	-19.824355	0.000486	4.863266	1.647719	-0.000195
1169	1.1622e+02	-6.5421	-19.969692	0.000365	3.647449	1.235789	-0.000146
1170	1.1632e+02	-6.5709	-20.119066	0.000375	3.748767	1.270117	-0.000150
1171	1.1642e+02	-6.6094	-20.272477	0.000385	3.850085	1.304444	-0.000154
1172	1.1651e+02	-6.6592	-20.446074	0.000436	4.356676	1.476082	-0.000174
1173	1.1661e+02	-6.6897	-20.627745	0.000456	4.559312	1.544737	-0.000183
1174	1.1671e+02	-6.7298	-20.752896	0.000314	3.140859	1.064152	-0.000126
1175	1.1681e+02	-6.7779	-20.894196	0.000355	3.546131	1.201462	-0.000142
1176	1.1691e+02	-6.8132	-21.043570	0.000375	3.748767	1.270117	-0.000150
1177	1.1701e+02	-6.8404	-21.164684	0.000304	3.039541	1.029824	-0.000122
1178	1.1711e+02	-6.8822	-21.289835	0.000314	3.140859	1.064152	-0.000126
1179	1.1721e+02	-6.9335	-21.423061	0.000334	3.343495	1.132807	-0.000134
1180	1.1731e+02	-6.9704	-21.548212	0.000314	3.140859	1.064152	-0.000126
1181	1.1741e+02	-7.0089	-21.657215	0.000274	2.735587	0.926842	-0.000110
1182	1.1751e+02	-7.0490	-21.798514	0.000355	3.546131	1.201462	-0.000142
1183	1.1761e+02	-7.0939	-21.951926	0.000385	3.850085	1.304444	-0.000154
1184	1.1771e+02	-7.1340	-22.081114	0.000324	3.242177	1.098479	-0.000130
1185	1.1781e+02	-7.1757	-22.214339	0.000334	3.343495	1.132807	-0.000134
1186	1.1791e+02	-7.2078	-22.391973	0.000446	4.457994	1.510409	-0.000179
1187	1.1801e+02	-7.2559	-22.472716	0.000203	2.026361	0.686550	-0.000081
1188	1.1811e+02	-7.2928	-22.630164	0.000395	3.951403	1.338772	-0.000158
1189	1.1821e+02	-7.3378	-22.775501	0.000365	3.647449	1.235789	-0.000146
1190	1.1831e+02	-7.3650	-22.912764	0.000344	3.444813	1.167134	-0.000138
1191	1.1841e+02	-7.4132	-23.005618	0.000233	2.330315	0.789532	-0.000093
1192	1.1850e+02	-7.4485	-23.175178	0.000426	4.255358	1.441754	-0.000170
1193	1.1860e+02	-7.4902	-23.280143	0.000263	2.634269	0.892514	-0.000105
1194	1.1870e+02	-7.5271	-23.445666	0.000415	4.154039	1.407427	-0.000166
1195	1.1880e+02	-7.5736	-23.538520	0.000233	2.330315	0.789532	-0.000093
1196	1.1890e+02	-7.6121	-23.663671	0.000314	3.140859	1.064152	-0.000126
1197	1.1900e+02	-7.6426	-23.784785	0.000304	3.039541	1.029824	-0.000122
1198	1.1910e+02	-7.6923	-23.913974	0.000324	3.242177	1.098479	-0.000130
1199	1.1920e+02	-7.7324	-24.047199	0.000334	3.343495	1.132807	-0.000134
1200	1.1930e+02	-7.7693	-24.200610	0.000385	3.850085	1.304444	-0.000154
1201	1.1940e+02	-7.8014	-24.325761	0.000314	3.140859	1.064152	-0.000126
1202	1.1950e+02	-7.8479	-24.471098	0.000365	3.647449	1.235789	-0.000146
1203	1.1960e+02	-7.8896	-24.567990	0.000243	2.431633	0.823860	-0.000097
1204	1.1970e+02	-7.9265	-24.725438	0.000395	3.951403	1.338772	-0.000158
1205	1.1980e+02	-7.9586	-24.862700	0.000344	3.444813	1.167134	-0.000138
1206	1.1990e+02	-8.0067	-25.008037	0.000365	3.647449	1.235789	-0.000146
1207	1.2000e+02	-8.0436	-25.145300	0.000344	3.444813	1.167134	-0.000138
1208	1.2010e+02	-8.0901	-25.274488	0.000324	3.242177	1.098479	-0.000130
1209	1.2020e+02	-8.1335	-25.391565	0.000294	2.938223	0.995497	-0.000118
1210	1.2030e+02	-8.1671	-25.520754	0.000324	3.242177	1.098479	-0.000130
1211	1.2039e+02	-8.2105	-25.637831	0.000294	2.938223	0.995497	-0.000118
1212	1.2049e+02	-8.2474	-25.803353	0.000415	4.154039	1.407427	-0.000166
1213	1.2059e+02	-8.2875	-25.924467	0.000304	3.039541	1.029824	-0.000122
1214	1.2069e+02	-8.3276	-26.053655	0.000324	3.242177	1.098479	-0.000130
1215	1.2079e+02	-8.3693	-26.158621	0.000263	2.634269	0.892514	-0.000105
1216	1.2089e+02	-8.4046	-26.340292	0.000456	4.559312	1.544737	-0.000183
1217	1.2099e+02	-8.4479	-26.469480	0.000324	3.242177	1.098479	-0.000130
1218	1.2109e+02	-8.4832	-26.590595	0.000304	3.039541	1.029824	-0.000122
1219	1.2119e+02	-8.5297	-26.703634	0.000284	2.836905	0.961169	-0.000114
1220	1.2129e+02	-8.5714	-26.828786	0.000314	3.140859	1.064152	-0.000126
1221	1.2139e+02	-8.5971	-26.949900	0.000304	3.039541	1.029824	-0.000122
1222	1.2149e+02	-8.6436	-27.026605	0.000193	1.925043	0.652222	-0.000077
1223	1.2159e+02	-8.6837	-27.163868	0.000344	3.444813	1.167134	-0.000138
1224	1.2169e+02	-8.7286	-27.272870	0.000274	2.735587	0.926842	-0.000110
1225	1.2179e+02	-8.7623	-27.438393	0.000415	4.154039	1.407427	-0.000166
1226	1.2189e+02	-8.8137	-27.563544	0.000314	3.140859	1.064152	-0.000126
1227	1.2199e+02	-8.8425	-27.656398	0.000233	2.330315	0.789532	-0.000093
1228	1.2209e+02	-8.8842	-27.797698	0.000355	3.546131	1.201462	-0.000142
1229	1.2219e+02	-8.9227	-27.918812	0.000304	3.039541	1.029824	-0.000122
1230	1.2229e+02	-8.9564	-28.027815	0.000274	2.735587	0.926842	-0.000110
1231	1.2239e+02	-9.0046	-28.140855	0.000284	2.836905	0.961169	-0.000114
1232	1.2248e+02	-9.0415	-28.266006	0.000314	3.140859	1.064152	-0.000126
1233	1.2258e+02	-9.0912	-28.370971	0.000263	2.634269	0.892514	-0.000105
1234	1.2268e+02	-9.1185	-28.516308	0.000365	3.647449	1.235789	-0.000146
1235	1.2278e+02	-9.1698	-28.665682	0.000375	3.748767	1.270117	-0.000150
1236	1.2288e+02	-9.2067	-28.746425	0.000203	2.026361	0.686550	-0.000081
1237	1.2298e+02	-9.2372	-28.879651	0.000334	3.343495	1.132807	-0.000134
1238	1.2308e+02	-9.2821	-29.037099	0.000395	3.951403	1.338772	-0.000158
1239	1.2318e+02	-9.3302	-29.170324	0.000334	3.343495	1.132807	-0.000134
1240	1.2328e+02	-9.3703	-29.299513	0.000324	3.242177	1.098479	-0.000130
1241	1.2338e+02	-9.4040	-29.400441	0.000253	2.532951	0.858187	-0.000101
1242	1.2348e+02	-9.4393	-29.545778	0.000365	3.647449	1.235789	-0.000146
1243	1.2358e+02	-9.4906	-29.650743	0.000263	2.634269	0.892514	-0.000105
1244	1.2368e+02	-9.5195	-29.767820	0.000294	2.938223	0.995497	-0.000118
1245	1.2378e+02	-9.5660	-29.876823	0.000274	2.735587	0.926842	-0.000110
1246	1.2388e+02	-9.6078	-30.026197	0.000375	3.748767	1.270117	-0.000150
1247	1.2398e+02	-9.6479	-30.175571	0.000375	3.748767	1.270117	-0.000150
1248	1.2408e+02	-9.6815	-30.276499	0.000253	2.532951	0.858187	-0.000101
1249	1.2418e+02	-9.7217	-30.361279	0.000213	2.127679	0.720877	-0.000085
1250	1.2428e+02	-9.7521	-30.506616	0.000365	3.647449	1.235789	-0.000146
1251	1.2438e+02	-9.8019	-30.607545	0.000253	2.532951	0.858187	-0.000101
1252	1.2447e+02	-9.8388	-30.712510	0.000263	2.634269	0.892514	-0.000105
1253	1.2457e+02	-9.8757	-30.861884	0.000375	3.748767	1.270117	-0.000150
1254	1.2467e+02	-9.9238	-30.974924	0.000284	2.836905	0.961169	-0.000114
1255	1.2477e+02	-9.9655	-31.051630	0.000193	1.925043	0.652222	-0.000077
1256	1.2487e+02	-10.0008	-31.221189	0.000426	4.255358	1.441754	-0.000170
1257	1.2497e+02	-10.0457	-31.273672	0.000132	1.317134	0.446257	-0.000053
1258	1.2507e+02	-10.0730	-31.419009	0.000365	3.647449	1.235789	-0.000146
1259	1.2517e+02	-10.1243	-31.576457	0.000395	3.951403	1.338772	-0.000158
1260	1.2527e+02	-10.1692	-31.665274	0.000223	2.228997	0.755205	-0.000089
1261	1.2537e+02	-10.2093	-31.770240	0.000263	2.634269	0.892514	-0.000105
1262	1.2547e+02	-10.2366	-31.879242	0.000274	2.735587	0.926842	-0.000110
1263	1.2557e+02	-10.2831	-32.004394	0.000314	3.140859	1.064152	-0.000126
1264	1.2567e+02	-10.3200	-32.125508	0.000304	3.039541	1.029824	-0.000122
1265	1.2577e+02	-10.3569	-32.274882	0.000375	3.748767	1.270117	-0.000150
1266	1.2587e+02	-10.4018	-32.335439	0.000152	1.519771	0.514912	-0.000061
1267	1.2597e+02	-10.4403	-32.480776	0.000365	3.647449	1.235789	-0.000146
1268	1.2607e+02	-10.4788	-32.630150	0.000375	3.748767	1.270117	-0.000150
1269	1.2617e+02	-10.5174	-32.727041	0.000243	2.431633	0.823860	-0.000097
1270	1.2627e+02	-10.5494	-32.836044	0.000274	2.735587	0.926842	-0.000110
1271	1.2636e+02	-10.6024	-32.945046	0.000274	2.735587	0.926842	-0.000110
1272	1.2646e+02	-10.6361	-33.054049	0.000274	2.735587	0.926842	-0.000110
1273	1.2656e+02	-10.6858	-33.175163	0.000304	3.039541	1.029824	-0.000122
1274	1.2666e+02	-10.7131	-33.296277	0.000304	3.039541	1.029824	-0.000122
1275	1.2676e+02	-10.7548	-33.381057	0.000213	2.127679	0.720877	-0.000085
1276	1.2686e+02	-10.7965	-33.526394	0.000365	3.647449	1.235789	-0.000146
1277	1.2696e+02	-10.8414	-33.667693	0.000355	3.546131	1.201462	-0.000142
1278	1.2706e+02	-10.8799	-33.708065	0.000101	1.013180	0.343275	-0.000041
1279	1.2716e+02	-10.9200	-33.853402	0.000365	3.647449	1.235789	-0.000146
1280	1.2726e+02	-10.9537	-33.978553	0.000314	3.140859	1.064152	-0.000126
1281	1.2736e+02	-11.0050	-34.091593	0.000284	2.836905	0.961169	-0.000114
1282	1.2746e+02	-11.0387	-34.212707	0.000304	3.039541	1.029824	-0.000122
1283	1.2756e+02	-11.0756	-34.325747	0.000284	2.836905	0.961169	-0.000114
1284	1.2766e+02	-11.1173	-34.442824	0.000294	2.938223	0.995497	-0.000118
1285	1.2776e+02	-11.1462	-34.596235	0.000385	3.850085	1.304444	-0.000154
1286	1.2786e+02	-11.1959	-34.729460	0.000334	3.343495	1.132807	-0.000134
1287	1.2796e+02	-11.2377	-34.858649	0.000324	3.242177	1.098479	-0.000130
1288	1.2806e+02	-11.2681	-34.959577	0.000253	2.532951	0.858187	-0.000101
1289	1.2816e+02	-11.3179	-35.092802	0.000334	3.343495	1.132807	-0.000134
1290	1.2826e+02	-11.3564	-35.185657	0.000233	2.330315	0.789532	-0.000093
1291	1.2835e+02	-11.3901	-35.330993	0.000365	3.647449	1.235789	-0.000146
1292	1.2845e+02	-11.4382	-35.427885	0.000243	2.431633	0.823860	-0.000097
1293	1.2855e+02	-11.4719	-35.512665	0.000213	2.127679	0.720877	-0.000085
1294	1.2865e+02	-11.5216	-35.658001	0.000365	3.647449	1.235789	-0.000146
1295	1.2875e+02	-11.5505	-35.767004	0.000274	2.735587	0.926842	-0.000110
1296	1.2885e+02	-11.5874	-35.884081	0.000294	2.938223	0.995497	-0.000118
1297	1.2895e+02	-11.6291	-35.989047	0.000263	2.634269	0.892514	-0.000105
1298	1.2905e+02	-11.6724	-36.077864	0.000223	2.228997	0.755205	-0.000089
1299	1.2915e+02	-11.7189	-36.255497	0.000446	4.457994	1.510409	-0.000179
1300	1.2925e+02	-11.7590	-36.360463	0.000263	2.634269	0.892514	-0.000105
1301	1.2935e+02	-11.7911	-36.465429	0.000263	2.634269	0.892514	-0.000105
1302	1.2945e+02	-11.8392	-36.586543	0.000304	3.039541	1.029824	-0.000122
1303	1.2955e+02	-11.8745	-36.723805	0.000344	3.444813	1.167134	-0.000138
1304	1.2965e+02	-11.9227	-36.857031	0.000334	3.343495	1.132807	-0.000134
1305	1.2975e+02	-11.9435	-36.986219	0.000324	3.242177	1.098479	-0.000130
1306	1.2985e+02	-11.9948	-37.046776	0.000152	1.519771	0.514912	-0.000061
1307	1.2995e+02	-12.0350	-37.192113	0.000365	3.647449	1.235789	-0.000146
1308	1.3005e+02	-12.0638	-37.361673	0.000426	4.255358	1.441754	-0.000170
1309	1.3015e+02	-12.1168	-37.422230	0.000152	1.519771	0.514912	-0.000061
1310	1.3025e+02	-12.1537	-37.583715	0.000405	4.052721	1.373099	-0.000162
1311	1.3034e+02	-12.1858	-37.680606	0.000243	2.431633	0.823860	-0.000097
1312	1.3044e+02	-12.2291	-37.777498	0.000243	2.431633	0.823860	-0.000097
1313	1.3054e+02	-12.2692	-37.874389	0.000243	2.431633	0.823860	-0.000097
1314	1.3064e+02	-12.3109	-38.007614	0.000334	3.343495	1.132807	-0.000134
1315	1.3074e+02	-12.3446	-38.148914	0.000355	3.546131	1.201462	-0.000142
1316	1.3084e+02	-12.3911	-38.286177	0.000344	3.444813	1.167134	-0.000138
1317	1.3094e+02	-12.4376	-38.399217	0.000284	2.836905	0.961169	-0.000114
1318	1.3104e+02	-12.4729	-38.516294	0.000294	2.938223	0.995497	-0.000118
1319	1.3114e+02	-12.5114	-38.613185	0.000243	2.431633	0.823860	-0.000097
1320	1.3124e+02	-12.5483	-38.714113	0.000253	2.532951	0.858187	-0.000101
1321	1.3134e+02	-12.5932	-38.875599	0.000405	4.052721	1.373099	-0.000162
1322	1.3144e+02	-12.6333	-38.976527	0.000253	2.532951	0.858187	-0.000101
1323	1.3154e+02	-12.6750	-39.109752	0.000334	3.343495	1.132807	-0.000134
1324	1.3164e+02	-12.7135	-39.154161	0.000111	1.114498	0.377602	-0.000045
1325	1.3174e+02	-12.7537	-39.307572	0.000385	3.850085	1.304444	-0.000154
1326	1.3184e+02	-12.7889	-39.388315	0.000203	2.026361	0.686550	-0.000081
1327	1.3194e+02	-12.8258	-39.485206	0.000243	2.431633	0.823860	-0.000097
1328	1.3204e+02	-12.8595	-39.602283	0.000294	2.938223	0.995497	-0.000118
1329	1.3214e+02	-12.9012	-39.678989	0.000193	1.925043	0.652222	-0.000077
1330	1.3224e+02	-12.9446	-39.804140	0.000314	3.140859	1.064152	-0.000126
1331	1.3234e+02	-12.9911	-39.896994	0.000233	2.330315	0.789532	-0.000093
1332	1.3243e+02	-13.0280	-39.981774	0.000213	2.127679	0.720877	-0.000085
1333	1.3253e+02	-13.0729	-40.090776	0.000274	2.735587	0.926842	-0.000110
1334	1.3263e+02	-13.1034	-40.240150	0.000375	3.748767	1.270117	-0.000150
1335	1.3273e+02	-13.1435	-40.333005	0.000233	2.330315	0.789532	-0.000093
1336	1.3283e+02	-13.1900	-40.437970	0.000263	2.634269	0.892514	-0.000105
1337	1.3293e+02	-13.2301	-40.555047	0.000294	2.938223	0.995497	-0.000118
1338	1.3303e+02	-13.2734	-40.623678	0.000172	1.722407	0.583567	-0.000069
1339	1.3313e+02	-13.3167	-40.716532	0.000233	2.330315	0.789532	-0.000093
1340	1.3323e+02	-13.3456	-40.837647	0.000304	3.039541	1.029824	-0.000122
1341	1.3333e+02	-13.3841	-40.962798	0.000314	3.140859	1.064152	-0.000126
1342	1.3343e+02	-13.4290	-41.067763	0.000263	2.634269	0.892514	-0.000105
1343	1.3353e+02	-13.4707	-41.192915	0.000314	3.140859	1.064152	-0.000126
1344	1.3363e+02	-13.5076	-41.277694	0.000213	2.127679	0.720877	-0.000085
1345	1.3373e+02	-13.5542	-41.410920	0.000334	3.343495	1.132807	-0.000134
1346	1.3383e+02	-13.5862	-41.495700	0.000213	2.127679	0.720877	-0.000085
1347	1.3393e+02	-13.6231	-41.616814	0.000304	3.039541	1.029824	-0.000122
1348	1.3403e+02	-13.6649	-41.677371	0.000152	1.519771	0.514912	-0.000061
1349	1.3413e+02	-13.7130	-41.818671	0.000355	3.546131	1.201462	-0.000142
1350	1.3423e+02	-13.7483	-41.903450	0.000213	2.127679	0.720877	-0.000085
1351	1.3432e+02	-13.7868	-42.004379	0.000253	2.532951	0.858187	-0.000101
1352	1.3442e+02	-13.8301	-42.141641	0.000344	3.444813	1.167134	-0.000138
1353	1.3452e+02	-13.8622	-42.214310	0.000182	1.823725	0.617895	-0.000073
1354	1.3462e+02	-13.8959	-42.323313	0.000274	2.735587	0.926842	-0.000110
1355	1.3472e+02	-13.9456	-42.412129	0.000223	2.228997	0.755205	-0.000089
1356	1.3482e+02	-13.9841	-42.509021	0.000243	2.431633	0.823860	-0.000097
1357	1.3492e+02	-14.0306	-42.642246	0.000334	3.343495	1.132807	-0.000134
1358	1.3502e+02	-14.0531	-42.739137	0.000243	2.431633	0.823860	-0.000097
1359	1.3512e+02	-14.1060	-42.795657	0.000142	1.418453	0.480585	-0.000057
1360	1.3522e+02	-14.1429	-42.904660	0.000274	2.735587	0.926842	-0.000110
1361	1.3532e+02	-14.1814	-43.029811	0.000314	3.140859	1.064152	-0.000126
1362	1.3542e+02	-14.2183	-43.126703	0.000243	2.431633	0.823860	-0.000097
1363	1.3552e+02	-14.2713	-43.231668	0.000263	2.634269	0.892514	-0.000105
1364	1.3562e+02	-14.3114	-43.332596	0.000253	2.532951	0.858187	-0.000101
1365	1.3572e+02	-14.3450	-43.437562	0.000263	2.634269	0.892514	-0.000105
1366	1.3582e+02	-14.3868	-43.546565	0.000274	2.735587	0.926842	-0.000110
1367	1.3592e+02	-14.4269	-43.590973	0.000111	1.114498	0.377602	-0.000045
1368	1.3602e+02	-14.4590	-43.695939	0.000263	2.634269	0.892514	-0.000105
1369	1.3612e+02	-14.5071	-43.788793	0.000233	2.330315	0.789532	-0.000093
1370	1.3622e+02	-14.5472	-43.901833	0.000284	2.836905	0.961169	-0.000114
1371	1.3631e+02	-14.5889	-44.018910	0.000294	2.938223	0.995497	-0.000118
1372	1.3641e+02	-14.6274	-44.131949	0.000284	2.836905	0.961169	-0.000114
1373	1.3651e+02	-14.6707	-44.232878	0.000253	2.532951	0.858187	-0.000101
1374	1.3661e+02	-14.6980	-44.337843	0.000263	2.634269	0.892514	-0.000105
1375	1.3671e+02	-14.7381	-44.442809	0.000263	2.634269	0.892514	-0.000105
1376	1.3681e+02	-14.7830	-44.495292	0.000132	1.317134	0.446257	-0.000053
1377	1.3691e+02	-14.8215	-44.612368	0.000294	2.938223	0.995497	-0.000118
1378	1.3701e+02	-14.8616	-44.701185	0.000223	2.228997	0.755205	-0.000089
1379	1.3711e+02	-14.9017	-44.830374	0.000324	3.242177	1.098479	-0.000130
1380	1.3721e+02	-14.9386	-44.890931	0.000152	1.519771	0.514912	-0.000061
1381	1.3731e+02	-14.9787	-45.012045	0.000304	3.039541	1.029824	-0.000122
1382	1.3741e+02	-15.0204	-45.125085	0.000284	2.836905	0.961169	-0.000114
1383	1.3751e+02	-15.0718	-45.185642	0.000152	1.519771	0.514912	-0.000061
1384	1.3761e+02	-15.1055	-45.330979	0.000365	3.647449	1.235789	-0.000146
1385	1.3771e+02	-15.1472	-45.411721	0.000203	2.026361	0.686550	-0.000081
1386	1.3781e+02	-15.1776	-45.557058	0.000365	3.647449	1.235789	-0.000146
1387	1.3791e+02	-15.2290	-45.581281	0.000061	0.607908	0.205965	-0.000024
1388	1.3801e+02	-15.2498	-45.698358	0.000294	2.938223	0.995497	-0.000118
1389	1.3811e+02	-15.2948	-45.807361	0.000274	2.735587	0.926842	-0.000110
1390	1.3821e+02	-15.3445	-45.916363	0.000274	2.735587	0.926842	-0.000110
1391	1.3831e+02	-15.3782	-45.993069	0.000193	1.925043	0.652222	-0.000077
1392	1.3840e+02	-15.4215	-46.110146	0.000294	2.938223	0.995497	-0.000118
1393	1.3850e+02	-15.4536	-46.194926	0.000213	2.127679	0.720877	-0.000085
1394	1.3860e+02	-15.4985	-46.344300	0.000375	3.748767	1.270117	-0.000150
1395	1.3870e+02	-15.5466	-46.404857	0.000152	1.519771	0.514912	-0.000061
1396	1.3880e+02	-15.5787	-46.534045	0.000324	3.242177	1.098479	-0.000130
1397	1.3890e+02	-15.6236	-46.614788	0.000203	2.026361	0.686550	-0.000081
1398	1.3900e+02	-15.6589	-46.756088	0.000355	3.546131	1.201462	-0.000142
1399	1.3910e+02	-15.7022	-46.828756	0.000182	1.823725	0.617895	-0.000073
1400	1.3920e+02	-15.7423	-46.905462	0.000193	1.925043	0.652222	-0.000077
1401	1.3930e+02	-15.7712	-47.054836	0.000375	3.748767	1.270117	-0.000150
1402	1.3940e+02	-15.8161	-47.119430	0.000162	1.621089	0.549240	-0.000065
1403	1.3950e+02	-15.8530	-47.216321	0.000243	2.431633	0.823860	-0.000097
1404	1.3960e+02	-15.8931	-47.357621	0.000355	3.546131	1.201462	-0.000142
1405	1.3970e+02	-15.9348	-47.466623	0.000274	2.735587	0.926842	-0.000110
1406	1.3980e+02	-15.9685	-47.490846	0.000061	0.607908	0.205965	-0.000024
1407	1.3990e+02	-16.0231	-47.624072	0.000334	3.343495	1.132807	-0.000134
1408	1.4000e+02	-16.0536	-47.749223	0.000314	3.140859	1.064152	-0.000126
1409	1.4010e+02	-16.0937	-47.858226	0.000274	2.735587	0.926842	-0.000110
1410	1.4020e+02	-16.1322	-47.959154	0.000253	2.532951	0.858187	-0.000101
1411	1.4029e+02	-16.1771	-48.035860	0.000193	1.925043	0.652222	-0.000077
1412	1.4039e+02	-16.2060	-48.173122	0.000344	3.444813	1.167134	-0.000138
1413	1.4049e+02	-16.2589	-48.241754	0.000172	1.722407	0.583567	-0.000069
1414	1.4059e+02	-16.2974	-48.318459	0.000193	1.925043	0.652222	-0.000077
1415	1.4069e+02	-16.3407	-48.443610	0.000314	3.140859	1.064152	-0.000126
1416	1.4079e+02	-16.3632	-48.556650	0.000284	2.836905	0.961169	-0.000114
1417	1.4089e+02	-16.4161	-48.641430	0.000213	2.127679	0.720877	-0.000085
1418	1.4099e+02	-16.4562	-48.689876	0.000122	1.215816	0.411930	-0.000049
1419	1.4109e+02	-16.4931	-48.827138	0.000344	3.444813	1.167134	-0.000138
1420	1.4119e+02	-16.5332	-48.932104	0.000263	2.634269	0.892514	-0.000105
1421	1.4129e+02	-16.5733	-49.016884	0.000213	2.127679	0.720877	-0.000085
1422	1.4139e+02	-16.6102	-49.081478	0.000162	1.621089	0.549240	-0.000065
1423	1.4149e+02	-16.6535	-49.271223	0.000476	4.761948	1.613392	-0.000191
1424	1.4159e+02	-16.6953	-49.347929	0.000193	1.925043	0.652222	-0.000077
1425	1.4169e+02	-16.7354	-49.428671	0.000203	2.026361	0.686550	-0.000081
1426	1.4179e+02	-16.7755	-49.525563	0.000243	2.431633	0.823860	-0.000097
1427	1.4189e+02	-16.8108	-49.626491	0.000253	2.532951	0.858187	-0.000101
1428	1.4199e+02	-16.8541	-49.767791	0.000355	3.546131	1.201462	-0.000142
1429	1.4209e+02	-16.8958	-49.852571	0.000213	2.127679	0.720877	-0.000085
1430	1.4219e+02	-16.9279	-49.953499	0.000253	2.532951	0.858187	-0.000101
1431	1.4228e+02	-16.9744	-50.046353	0.000233	2.330315	0.789532	-0.000093
1432	1.4238e+02	-17.0049	-50.199764	0.000385	3.850085	1.304444	-0.000154
1433	1.4248e+02	-17.0626	-50.284544	0.000213	2.127679	0.720877	-0.000085
1434	1.4258e+02	-17.0947	-50.385473	0.000253	2.532951	0.858187	-0.000101
1435	1.4268e+02	-17.1300	-50.506587	0.000304	3.039541	1.029824	-0.000122
1436	1.4278e+02	-17.1781	-50.631738	0.000314	3.140859	1.064152	-0.000126
1437	1.4288e+02	-17.2150	-50.708443	0.000193	1.925043	0.652222	-0.000077
1438	1.4298e+02	-17.2551	-50.817446	0.000274	2.735587	0.926842	-0.000110
1439	1.4308e+02	-17.2920	-50.898189	0.000203	2.026361	0.686550	-0.000081
1440	1.4318e+02	-17.3466	-50.991043	0.000233	2.330315	0.789532	-0.000093
1441	1.4328e+02	-17.3803	-51.104083	0.000284	2.836905	0.961169	-0.000114
1442	1.4338e+02	-17.4107	-51.213085	0.000274	2.735587	0.926842	-0.000110
1443	1.4348e+02	-17.4621	-51.305940	0.000233	2.330315	0.789532	-0.000093
1444	1.4358e+02	-17.4893	-51.431091	0.000314	3.140859	1.064152	-0.000126
1445	1.4368e+02	-17.5359	-51.443202	0.000030	0.303954	0.102982	-0.000012
1446	1.4378e+02	-17.5680	-51.592576	0.000375	3.748767	1.270117	-0.000150
1447	1.4388e+02	-17.6113	-51.709653	0.000294	2.938223	0.995497	-0.000118
1448	1.4398e+02	-17.6482	-51.850953	0.000355	3.546131	1.201462	-0.000142
1449	1.4408e+02	-17.6947	-51.875176	0.000061	0.607908	0.205965	-0.000024
1450	1.4418e+02	-17.7252	-51.984178	0.000274	2.735587	0.926842	-0.000110
1451	1.4428e+02	-17.7749	-52.077032	0.000233	2.330315	0.789532	-0.000093
1452	1.4437e+02	-17.8102	-52.226406	0.000375	3.748767	1.270117	-0.000150
1453	1.4447e+02	-17.8455	-52.278889	0.000132	1.317134	0.446257	-0.000053
1454	1.4457e+02	-17.8984	-52.400003	0.000304	3.039541	1.029824	-0.000122
1455	1.4467e+02	-17.9273	-52.488820	0.000223	2.228997	0.755205	-0.000089
1456	1.4477e+02	-17.9690	-52.626083	0.000344	3.444813	1.167134	-0.000138
1457	1.4487e+02	-18.0107	-52.751234	0.000314	3.140859	1.064152	-0.000126
1458	1.4497e+02	-18.0476	-52.836014	0.000213	2.127679	0.720877	-0.000085
1459	1.4507e+02	-18.0893	-52.896571	0.000152	1.519771	0.514912	-0.000061
1460	1.4517e+02	-18.1326	-52.981351	0.000213	2.127679	0.720877	-0.000085
1461	1.4527e+02	-18.1760	-53.094391	0.000284	2.836905	0.961169	-0.000114
1462	1.4537e+02	-18.2016	-53.231653	0.000344	3.444813	1.167134	-0.000138
1463	1.4547e+02	-18.2514	-53.340656	0.000274	2.735587	0.926842	-0.000110
1464	1.4557e+02	-18.2947	-53.433510	0.000233	2.330315	0.789532	-0.000093
1465	1.4567e+02	-18.3171	-53.558661	0.000314	3.140859	1.064152	-0.000126
1466	1.4577e+02	-18.3797	-53.651515	0.000233	2.330315	0.789532	-0.000093
1467	1.4587e+02	-18.4070	-53.720147	0.000172	1.722407	0.583567	-0.000069
1468	1.4597e+02	-18.4407	-53.885669	0.000415	4.154039	1.407427	-0.000166
1469	1.4607e+02	-18.4888	-53.934115	0.000122	1.215816	0.411930	-0.000049
1470	1.4617e+02	-18.5337	-54.119823	0.000466	4.660630	1.579064	-0.000187
1471	1.4626e+02	-18.5706	-54.168269	0.000122	1.215816	0.411930	-0.000049
1472	1.4636e+02	-18.6011	-54.277271	0.000274	2.735587	0.926842	-0.000110
1473	1.4646e+02	-18.6460	-54.422608	0.000365	3.647449	1.235789	-0.000146
1474	1.4656e+02	-18.6925	-54.479128	0.000142	1.418453	0.480585	-0.000057
1475	1.4666e+02	-18.7262	-54.620428	0.000355	3.546131	1.201462	-0.000142
1476	1.4676e+02	-18.7743	-54.721356	0.000253	2.532951	0.858187	-0.000101
1477	1.4686e+02	-18.8064	-54.846508	0.000314	3.140859	1.064152	-0.000126
1478	1.4696e+02	-18.8497	-54.935325	0.000223	2.228997	0.755205	-0.000089
1479	1.4706e+02	-18.8898	-55.064513	0.000324	3.242177	1.098479	-0.000130
1480	1.4716e+02	-18.9251	-55.165441	0.000253	2.532951	0.858187	-0.000101
1481	1.4726e+02	-18.9733	-55.282518	0.000294	2.938223	0.995497	-0.000118
1482	1.4736e+02	-19.0102	-55.419781	0.000344	3.444813	1.167134	-0.000138
1483	1.4746e+02	-19.0406	-55.524746	0.000263	2.634269	0.892514	-0.000105
1484	1.4756e+02	-19.0888	-55.633749	0.000274	2.735587	0.926842	-0.000110
1485	1.4766e+02	-19.1273	-55.718529	0.000213	2.127679	0.720877	-0.000085
1486	1.4776e+02	-19.1626	-55.863866	0.000365	3.647449	1.235789	-0.000146
1487	1.4786e+02	-19.2139	-55.972868	0.000274	2.735587	0.926842	-0.000110
1488	1.4796e+02	-19.2556	-56.102057	0.000324	3.242177	1.098479	-0.000130
1489	1.4806e+02	-19.2829	-56.198948	0.000243	2.431633	0.823860	-0.000097
1490	1.4816e+02	-19.3310	-56.299876	0.000253	2.532951	0.858187	-0.000101
1491	1.4825e+02	-19.3631	-56.384656	0.000213	2.127679	0.720877	-0.000085
1492	1.4835e+02	-19.4032	-56.542105	0.000395	3.951403	1.338772	-0.000158
1493	1.4845e+02	-19.4417	-56.651107	0.000274	2.735587	0.926842	-0.000110
1494	1.4855e+02	-19.4722	-56.760110	0.000274	2.735587	0.926842	-0.000110
1495	1.4865e+02	-19.5203	-56.857001	0.000243	2.431633	0.823860	-0.000097
1496	1.4875e+02	-19.5668	-56.986190	0.000324	3.242177	1.098479	-0.000130
1497	1.4885e+02	-19.5989	-57.070969	0.000213	2.127679	0.720877	-0.000085
1498	1.4895e+02	-19.6422	-57.232455	0.000405	4.052721	1.373099	-0.000162
1499	1.4905e+02	-19.6807	-57.337420	0.000263	2.634269	0.892514	-0.000105
1500	1.4915e+02	-19.7192	-57.373755	0.000091	0.911862	0.308947	-0.000037
1501	1.4925e+02	-19.7593	-57.486794	0.000284	2.836905	0.961169	-0.000114
1502	1.4935e+02	-19.8026	-57.624057	0.000344	3.444813	1.167134	-0.000138
1503	1.4945e+02	-19.8460	-57.712874	0.000223	2.228997	0.755205	-0.000089
1504	1.4955e+02	-19.8797	-57.866285	0.000385	3.850085	1.304444	-0.000154
1505	1.4965e+02	-19.9198	-57.947028	0.000203	2.026361	0.686550	-0.000081
1506	1.4975e+02	-19.9534	-58.080253	0.000334	3.343495	1.132807	-0.000134
1507	1.4985e+02	-20.0032	-58.148885	0.000172	1.722407	0.583567	-0.000069
1508	1.4995e+02	-19.9631	-58.310370	-0.000405	-4.052721	-1.373099	-0.000162
1509	1.5005e+02	-19.9214	-58.415336	-0.000263	-2.634269	-0.892514	-0.000105
1510	1.5015e+02	-19.8877	-58.443596	-0.000071	-0.709226	-0.240292	-0.000028
1511	1.5025e+02	-19.8428	-58.516264	-0.000182	-1.823725	-0.617895	-0.000073
1512	1.5034e+02	-19.7978	-58.592970	-0.000193	-1.925043	-0.652222	-0.000077
1513	1.5044e+02	-19.7577	-58.633341	-0.000101	-1.013180	-0.343275	-0.000041
1514	1.5054e+02	-19.7192	-58.689861	-0.000142	-1.418453	-0.480585	-0.000057
1515	1.5064e+02	-19.6839	-58.742344	-0.000132	-1.317134	-0.446257	-0.000053
1516	1.5074e+02	-19.6262	-58.770604	-0.000071	-0.709226	-0.240292	-0.000028
1517	1.5084e+02	-19.5893	-58.758492	0.000030	0.303954	0.102982	0.000012
1518	1.5094e+02	-19.5604	-58.806938	-0.000122	-1.215816	-0.411930	-0.000049
1519	1.5104e+02	-19.5283	-58.831161	-0.000061	-0.607908	-0.205965	-0.000024
1520	1.5114e+02	-19.4834	-58.835198	-0.000010	-0.101318	-0.034327	-0.000004
1521	1.5124e+02	-19.4481	-58.875569	-0.000101	-1.013180	-0.343275	-0.000041
1522	1.5134e+02	-19.4048	-58.879606	-0.000010	-0.101318	-0.034327	-0.000004
1523	1.5144e+02	-19.3583	-58.867495	0.000030	0.303954	0.102982	0.000012
1524	1.5154e+02	-19.3262	-58.911903	-0.000111	-1.114498	-0.377602	-0.000045
1525	1.5164e+02	-19.2845	-58.891718	0.000051	0.506590	0.171637	0.000020
1526	1.5174e+02	-19.2396	-58.940163	-0.000122	-1.215816	-0.411930	-0.000049
1527	1.5184e+02	-19.2059	-58.928052	0.000030	0.303954	0.102982	0.000012
1528	1.5194e+02	-19.1658	-58.875569	0.000132	1.317134	0.446257	0.000053
1529	1.5204e+02	-19.1209	-58.891718	-0.000041	-0.405272	-0.137310	-0.000016
1530	1.5214e+02	-19.0856	-58.883643	0.000020	0.202636	0.068655	0.000008
1531	1.5224e+02	-19.0406	-58.851346	0.000081	0.810544	0.274620	0.000032
1532	1.5233e+02	-19.0037	-58.843272	0.000020	0.202636	0.068655	0.000008
1533	1.5243e+02	-18.9604	-58.835198	0.000020	0.202636	0.068655	0.000008
1534	1.5253e+02	-18.9299	-58.827123	0.000020	0.202636	0.068655	0.000008
1535	1.5263e+02	-18.8930	-58.823086	0.000010	0.101318	0.034327	0.000004
1536	1.5273e+02	-18.8513	-58.790789	0.000081	0.810544	0.274620	0.000032
1537	1.5283e+02	-18.8048	-58.758492	0.000081	0.810544	0.274620	0.000032
1538	1.5293e+02	-18.7695	-58.701972	0.000142	1.418453	0.480585	0.000057
1539	1.5303e+02	-18.7150	-58.693898	0.000020	0.202636	0.068655	0.000008
1540	1.5313e+02	-18.6749	-58.657564	0.000091	0.911862	0.308947	0.000037
1541	1.5323e+02	-18.6492	-58.649489	0.000020	0.202636	0.068655	0.000008
1542	1.5333e+02	-18.6027	-58.597007	0.000132	1.317134	0.446257	0.000053
1543	1.5343e+02	-18.5642	-58.597007	0.000000	0.000000	0.000000	0.000000
1544	1.5353e+02	-18.5289	-58.552598	0.000111	1.114498	0.377602	0.000045
1545	1.5363e+02	-18.4920	-58.496078	0.000142	1.418453	0.480585	0.000057
1546	1.5373e+02	-18.4583	-58.504153	-0.000020	-0.202636	-0.068655	-0.000008
1547	1.5383e+02	-18.4022	-58.451670	0.000132	1.317134	0.446257	0.000053
1548	1.5393e+02	-18.3685	-58.419373	0.000081	0.810544	0.274620	0.000032
1549	1.5403e+02	-18.3300	-58.346704	0.000182	1.823725	0.617895	0.000073
1550	1.5413e+02	-18.2883	-58.334593	0.000030	0.303954	0.102982	0.000012
1551	1.5422e+02	-18.2481	-58.253850	0.000203	2.026361	0.686550	0.000081
1552	1.5432e+02	-18.2145	-58.233664	0.000051	0.506590	0.171637	0.000020
1553	1.5442e+02	-18.1695	-58.177145	0.000142	1.418453	0.480585	0.000057
1554	1.5452e+02	-18.1326	-58.144847	0.000081	0.810544	0.274620	0.000032
1555	1.5462e+02	-18.1038	-58.068142	0.000193	1.925043	0.652222	0.000077
1556	1.5472e+02	-18.0444	-58.047956	0.000051	0.506590	0.171637	0.000020
1557	1.5482e+02	-18.0155	-57.995473	0.000132	1.317134	0.446257	0.000053
1558	1.5492e+02	-17.9674	-57.955102	0.000101	1.013180	0.343275	0.000041
1559	1.5502e+02	-17.9353	-57.926842	0.000071	0.709226	0.240292	0.000028
1560	1.5512e+02	-17.8920	-57.850137	0.000193	1.925043	0.652222	0.000077
1561	1.5522e+02	-17.8359	-57.850137	0.000000	0.000000	0.000000	0.000000
1562	1.5532e+02	-17.8134	-57.773431	0.000193	1.925043	0.652222	0.000077
1563	1.5542e+02	-17.7765	-57.660391	0.000284	2.836905	0.961169	0.000114
1564	1.5552e+02	-17.7364	-57.640205	0.000051	0.506590	0.171637	0.000020
1565	1.5562e+02	-17.6819	-57.607908	0.000081	0.810544	0.274620	0.000032
1566	1.5572e+02	-17.6546	-57.567537	0.000101	1.013180	0.343275	0.000041
1567	1.5582e+02	-17.6161	-57.482757	0.000213	2.127679	0.720877	0.000085
1568	1.5592e+02	-17.5631	-57.454497	0.000071	0.709226	0.240292	0.000028
1569	1.5602e+02	-17.5262	-57.377792	0.000193	1.925043	0.652222	0.000077
1570	1.5612e+02	-17.4829	-57.325309	0.000132	1.317134	0.446257	0.000053
1571	1.5622e+02	-17.4589	-57.264752	0.000152	1.519771	0.514912	0.000061
1572	1.5631e+02	-17.4059	-57.200158	0.000162	1.621089	0.549240	0.000065
1573	1.5641e+02	-17.3674	-57.163823	0.000091	0.911862	0.308947	0.000037
1574	1.5651e+02	-17.3321	-57.091155	0.000182	1.823725	0.617895	0.000073
1575	1.5661e+02	-17.2952	-57.038672	0.000132	1.317134	0.446257	0.000053
1576	1.5671e+02	-17.2535	-56.957930	0.000203	2.026361	0.686550	0.000081
1577	1.5681e+02	-17.2102	-56.889298	0.000172	1.722407	0.583567	0.000069
1578	1.5691e+02	-17.1733	-56.840853	0.000122	1.215816	0.411930	0.000049
1579	1.5701e+02	-17.1348	-56.747999	0.000233	2.330315	0.789532	0.000093
1580	1.5711e+02	-17.0979	-56.699553	0.000122	1.215816	0.411930	0.000049
1581	1.5721e+02	-17.0530	-56.638996	0.000152	1.519771	0.514912	0.000061
1582	1.5731e+02	-17.0049	-56.590550	0.000122	1.215816	0.411930	0.000049
1583	1.5741e+02	-16.9808	-56.489622	0.000253	2.532951	0.858187	0.000101
1584	1.5751e+02	-16.9343	-56.453288	0.000091	0.911862	0.308947	0.000037
1585	1.5761e+02	-16.8910	-56.412916	0.000101	1.013180	0.343275	0.000041
1586	1.5771e+02	-16.8477	-56.311988	0.000253	2.532951	0.858187	0.000101
1587	1.5781e+02	-16.8204	-56.231245	0.000203	2.026361	0.686550	0.000081
1588	1.5791e+02	-16.7706	-56.178762	0.000132	1.317134	0.446257	0.000053
1589	1.5801e+02	-16.7338	-56.106094	0.000182	1.823725	0.617895	0.000073
1590	1.5811e+02	-16.7017	-56.033425	0.000182	1.823725	0.617895	0.000073
1591	1.5821e+02	-16.6551	-55.984980	0.000122	1.215816	0.411930	0.000049
1592	1.5830e+02	-16.6086	-55.867903	0.000294	2.938223	0.995497	0.000118
1593	1.5840e+02	-16.5781	-55.811383	0.000142	1.418453	0.480585	0.000057
1594	1.5850e+02	-16.5364	-55.734677	0.000193	1.925043	0.652222	0.000077
1595	1.5860e+02	-16.4931	-55.666046	0.000172	1.722407	0.583567	0.000069
1596	1.5870e+02	-16.4562	-55.581266	0.000213	2.127679	0.720877	0.000085
1597	1.5880e+02	-16.4129	-55.569155	0.000030	0.303954	0.102982	0.000012
1598	1.5890e+02	-16.3776	-55.512635	0.000142	1.418453	0.480585	0.000057
1599	1.5900e+02	-16.3311	-55.375372	0.000344	3.444813	1.167134	0.000138
1600	1.5910e+02	-16.3022	-55.302704	0.000182	1.823725	0.617895	0.000073
1601	1.5920e+02	-16.2605	-55.286555	0.000041	0.405272	0.137310	0.000016
1602	1.5930e+02	-16.2156	-55.181590	0.000263	2.634269	0.892514	0.000105
1603	1.5940e+02	-16.1787	-55.080661	0.000253	2.532951	0.858187	0.000101
1604	1.5950e+02	-16.1354	-55.064513	0.000041	0.405272	0.137310	0.000016
1605	1.5960e+02	-16.0969	-54.999919	0.000162	1.621089	0.549240	0.000065
1606	1.5970e+02	-16.0520	-54.898990	0.000253	2.532951	0.858187	0.000101
1607	1.5980e+02	-16.0167	-54.818248	0.000203	2.026361	0.686550	0.000081
1608	1.5990e+02	-15.9717	-54.709245	0.000274	2.735587	0.926842	0.000110
1609	1.6000e+02	-15.9364	-54.644651	0.000162	1.621089	0.549240	0.000065
1610	1.6010e+02	-15.8899	-54.580057	0.000162	1.621089	0.549240	0.000065
1611	1.6019e+02	-15.8562	-54.458943	0.000304	3.039541	1.029824	0.000122
1612	1.6029e+02	-15.8209	-54.434720	0.000061	0.607908	0.205965	0.000024
1613	1.6039e+02	-15.7792	-54.321680	0.000284	2.836905	0.961169	0.000114
1614	1.6049e+02	-15.7343	-54.269197	0.000132	1.317134	0.446257	0.000053
1615	1.6059e+02	-15.7038	-54.188454	0.000203	2.026361	0.686550	0.000081
1616	1.6069e+02	-15.6557	-54.099637	0.000223	2.228997	0.755205	0.000089
1617	1.6079e+02	-15.6140	-53.994672	0.000263	2.634269	0.892514	0.000105
1618	1.6089e+02	-15.5739	-53.922003	0.000182	1.823725	0.617895	0.000073
1619	1.6099e+02	-15.5386	-53.926041	-0.000010	-0.101318	-0.034327	-0.000004
1620	1.6109e+02	-15.5001	-53.796852	0.000324	3.242177	1.098479	0.000130
1621	1.6119e+02	-15.4632	-53.764555	0.000081	0.810544	0.274620	0.000032
1622	1.6129e+02	-15.4311	-53.659590	0.000263	2.634269	0.892514	0.000105
1623	1.6139e+02	-15.3846	-53.578847	0.000203	2.026361	0.686550	0.000081
1624	1.6149e+02	-15.3381	-53.566736	0.000030	0.303954	0.102982	0.000012
1625	1.6159e+02	-15.3076	-53.457733	0.000274	2.735587	0.926842	0.000110
1626	1.6169e+02	-15.2627	-53.344693	0.000284	2.836905	0.961169	0.000114
1627	1.6179e+02	-15.2194	-53.308359	0.000091	0.911862	0.308947	0.000037
1628	1.6189e+02	-15.1728	-53.276062	0.000081	0.810544	0.274620	0.000032
1629	1.6199e+02	-15.1424	-53.167059	0.000274	2.735587	0.926842	0.000110
1630	1.6209e+02	-15.0990	-53.138799	0.000071	0.709226	0.240292	0.000028
1631	1.6219e+02	-15.0605	-53.058056	0.000203	2.026361	0.686550	0.000081
1632	1.6228e+02	-15.0124	-53.005574	0.000132	1.317134	0.446257	0.000053
1633	1.6238e+02	-14.9819	-52.868311	0.000344	3.444813	1.167134	0.000138
1634	1.6248e+02	-14.9402	-52.831977	0.000091	0.911862	0.308947	0.000037
1635	1.6258e+02	-14.8937	-52.771420	0.000152	1.519771	0.514912	0.000061
1636	1.6268e+02	-14.8600	-52.735086	0.000091	0.911862	0.308947	0.000037
1637	1.6278e+02	-14.8263	-52.613972	0.000304	3.039541	1.029824	0.000122
1638	1.6288e+02	-14.7750	-52.565526	0.000122	1.215816	0.411930	0.000049
1639	1.6298e+02	-14.7509	-52.468635	0.000243	2.431633	0.823860	0.000097
1640	1.6308e+02	-14.7156	-52.452486	0.000041	0.405272	0.137310	0.000016
1641	1.6318e+02	-14.6531	-52.363669	0.000223	2.228997	0.755205	0.000089
1642	1.6328e+02	-14.6162	-52.299075	0.000162	1.621089	0.549240	0.000065
1643	1.6338e+02	-14.5889	-52.157775	0.000355	3.546131	1.201462	0.000142
1644	1.6348e+02	-14.5456	-52.109330	0.000122	1.215816	0.411930	0.000049
1645	1.6358e+02	-14.4894	-52.016475	0.000233	2.330315	0.789532	0.000093
1646	1.6368e+02	-14.4686	-51.988215	0.000071	0.709226	0.240292	0.000028
1647	1.6378e+02	-14.4156	-51.887287	0.000253	2.532951	0.858187	0.000101
1648	1.6388e+02	-14.3852	-51.794433	0.000233	2.330315	0.789532	0.000093
1649	1.6398e+02	-14.3531	-51.733876	0.000152	1.519771	0.514912	0.000061
1650	1.6408e+02	-14.3033	-51.612762	0.000304	3.039541	1.029824	0.000122
1651	1.6418e+02	-14.2600	-51.548168	0.000162	1.621089	0.549240	0.000065
1652	1.6427e+02	-14.2247	-51.483573	0.000162	1.621089	0.549240	0.000065
1653	1.6437e+02	-14.1830	-51.378608	0.000263	2.634269	0.892514	0.000105
1654	1.6447e+02	-14.1509	-51.358422	0.000051	0.506590	0.171637	0.000020
1655	1.6457e+02	-14.1108	-51.233271	0.000314	3.140859	1.064152	0.000126
1656	1.6467e+02	-14.0675	-51.172714	0.000152	1.519771	0.514912	0.000061
1657	1.6477e+02	-14.0290	-51.079860	0.000233	2.330315	0.789532	0.000093
1658	1.6487e+02	-13.9873	-50.995080	0.000213	2.127679	0.720877	0.000085
1659	1.6497e+02	-13.9408	-50.914337	0.000203	2.026361	0.686550	0.000081
1660	1.6507e+02	-13.9087	-50.882040	0.000081	0.810544	0.274620	0.000032
1661	1.6517e+02	-13.8686	-50.789186	0.000233	2.330315	0.789532	0.000093
1662	1.6527e+02	-13.8269	-50.680183	0.000274	2.735587	0.926842	0.000110
1663	1.6537e+02	-13.7820	-50.619626	0.000152	1.519771	0.514912	0.000061
1664	1.6547e+02	-13.7499	-50.486401	0.000334	3.343495	1.132807	0.000134
1665	1.6557e+02	-13.7001	-50.486401	0.000000	0.000000	0.000000	0.000000
1666	1.6567e+02	-13.6681	-50.361250	0.000314	3.140859	1.064152	0.000126
1667	1.6577e+02	-13.6231	-50.316841	0.000111	1.114498	0.377602	0.000045
1668	1.6587e+02	-13.5798	-50.215913	0.000253	2.532951	0.858187	0.000101
1669	1.6597e+02	-13.5429	-50.123059	0.000233	2.330315	0.789532	0.000093
1670	1.6607e+02	-13.5060	-50.058465	0.000162	1.621089	0.549240	0.000065
1671	1.6616e+02	-13.4820	-49.888905	0.000426	4.255358	1.441754	0.000170
1672	1.6626e+02	-13.4306	-49.876793	0.000030	0.303954	0.102982	0.000012
1673	1.6636e+02	-13.3713	-49.743568	0.000334	3.343495	1.132807	0.000134
1674	1.6646e+02	-13.3392	-49.678974	0.000162	1.621089	0.549240	0.000065
1675	1.6656e+02	-13.3071	-49.590157	0.000223	2.228997	0.755205	0.000089
1676	1.6666e+02	-13.2718	-49.477117	0.000284	2.836905	0.961169	0.000114
1677	1.6676e+02	-13.2269	-49.465006	0.000030	0.303954	0.102982	0.000012
1678	1.6686e+02	-13.1884	-49.356003	0.000274	2.735587	0.926842	0.000110
1679	1.6696e+02	-13.1499	-49.291409	0.000162	1.621089	0.549240	0.000065
1680	1.6706e+02	-13.1114	-49.162220	0.000324	3.242177	1.098479	0.000130
1681	1.6716e+02	-13.0665	-49.077441	0.000213	2.127679	0.720877	0.000085
1682	1.6726e+02	-13.0232	-48.972475	0.000263	2.634269	0.892514	0.000105
1683	1.6736e+02	-12.9927	-48.859435	0.000284	2.836905	0.961169	0.000114
1684	1.6746e+02	-12.9478	-48.786767	0.000182	1.823725	0.617895	0.000073
1685	1.6756e+02	-12.9141	-48.710061	0.000193	1.925043	0.652222	0.000077
1686	1.6766e+02	-12.8804	-48.613170	0.000243	2.431633	0.823860	0.000097
1687	1.6776e+02	-12.8226	-48.540502	0.000182	1.823725	0.617895	0.000073
1688	1.6786e+02	-12.7841	-48.419387	0.000304	3.039541	1.029824	0.000122
1689	1.6796e+02	-12.7504	-48.310385	0.000274	2.735587	0.926842	0.000110
1690	1.6806e+02	-12.7200	-48.245791	0.000162	1.621089	0.549240	0.000065
1691	1.6816e+02	-12.6670	-48.112565	0.000334	3.343495	1.132807	0.000134
1692	1.6825e+02	-12.6301	-48.084305	0.000071	0.709226	0.240292	0.000028
1693	1.6835e+02	-12.5948	-47.938968	0.000365	3.647449	1.235789	0.000146
1694	1.6845e+02	-12.5563	-47.842077	0.000243	2.431633	0.823860	0.000097
1695	1.6855e+02	-12.5146	-47.789594	0.000132	1.317134	0.446257	0.000053
1696	1.6865e+02	-12.4729	-47.676554	0.000284	2.836905	0.961169	0.000114
1697	1.6875e+02	-12.4328	-47.567552	0.000274	2.735587	0.926842	0.000110
1698	1.6885e+02	-12.3991	-47.486809	0.000203	2.026361	0.686550	0.000081
1699	1.6895e+02	-12.3510	-47.466623	0.000051	0.506590	0.171637	0.000020
1700	1.6905e+02	-12.3157	-47.365695	0.000253	2.532951	0.858187	0.000101
1701	1.6915e+02	-12.2692	-47.293027	0.000182	1.823725	0.617895	0.000073
1702	1.6925e+02	-12.2275	-47.155764	0.000344	3.444813	1.167134	0.000138
1703	1.6935e+02	-12.1938	-47.062910	0.000233	2.330315	0.789532	0.000093
1704	1.6945e+02	-12.1585	-47.018501	0.000111	1.114498	0.377602	0.000045
1705	1.6955e+02	-12.1200	-46.909499	0.000274	2.735587	0.926842	0.000110
1706	1.6965e+02	-12.0751	-46.780310	0.000324	3.242177	1.098479	0.000130
1707	1.6975e+02	-12.0334	-46.699568	0.000203	2.026361	0.686550	0.000081
1708	1.6985e+02	-11.9900	-46.622862	0.000193	1.925043	0.652222	0.000077
1709	1.6995e+02	-11.9580	-46.554231	0.000172	1.722407	0.583567	0.000069
1710	1.7005e+02	-11.9178	-46.461377	0.000233	2.330315	0.789532	0.000093
1711	1.7015e+02	-11.8809	-46.380634	0.000203	2.026361	0.686550	0.000081
1712	1.7024e+02	-11.8408	-46.291817	0.000223	2.228997	0.755205	0.000089
1713	1.7034e+02	-11.8007	-46.178777	0.000284	2.836905	0.961169	0.000114
1714	1.7044e+02	-11.7462	-46.114183	0.000162	1.621089	0.549240	0.000065
1715	1.7054e+02	-11.7125	-46.049589	0.000162	1.621089	0.549240	0.000065
1716	1.7064e+02	-11.6708	-45.948660	0.000253	2.532951	0.858187	0.000101
1717	1.7074e+02	-11.6403	-45.855806	0.000233	2.330315	0.789532	0.000093
1718	1.7084e+02	-11.5922	-45.775064	0.000203	2.026361	0.686550	0.000081
1719	1.7094e+02	-11.5569	-45.678172	0.000243	2.431633	0.823860	0.000097
1720	1.7104e+02	-11.5184	-45.617615	0.000152	1.519771	0.514912	0.000061
1721	1.7114e+02	-11.4638	-45.504575	0.000284	2.836905	0.961169	0.000114
1722	1.7124e+02	-11.4350	-45.407684	0.000243	2.431633	0.823860	0.000097
1723	1.7134e+02	-11.3917	-45.326941	0.000203	2.026361	0.686550	0.000081
1724	1.7144e+02	-11.3660	-45.217939	0.000274	2.735587	0.926842	0.000110
1725	1.7154e+02	-11.3147	-45.149308	0.000172	1.722407	0.583567	0.000069
1726	1.7164e+02	-11.2713	-45.052416	0.000243	2.431633	0.823860	0.000097
1727	1.7174e+02	-11.2377	-44.963599	0.000223	2.228997	0.755205	0.000089
1728	1.7184e+02	-11.1975	-44.890931	0.000182	1.823725	0.617895	0.000073
1729	1.7194e+02	-11.1494	-44.769817	0.000304	3.039541	1.029824	0.000122
1730	1.7204e+02	-11.1189	-44.729445	0.000101	1.013180	0.343275	0.000041
1731	1.7213e+02	-11.0772	-44.616406	0.000284	2.836905	0.961169	0.000114
1732	1.7223e+02	-11.0403	-44.519514	0.000243	2.431633	0.823860	0.000097
1733	1.7233e+02	-10.9954	-44.450883	0.000172	1.722407	0.583567	0.000069
1734	1.7243e+02	-10.9601	-44.345918	0.000263	2.634269	0.892514	0.000105
1735	1.7253e+02	-10.9200	-44.253063	0.000233	2.330315	0.789532	0.000093
1736	1.7263e+02	-10.8815	-44.160209	0.000233	2.330315	0.789532	0.000093
1737	1.7273e+02	-10.8302	-44.047169	0.000284	2.836905	0.961169	0.000114
1738	1.7283e+02	-10.7917	-43.942204	0.000263	2.634269	0.892514	0.000105
1739	1.7293e+02	-10.7612	-43.873573	0.000172	1.722407	0.583567	0.000069
1740	1.7303e+02	-10.7179	-43.772644	0.000253	2.532951	0.858187	0.000101
1741	1.7313e+02	-10.6681	-43.687864	0.000213	2.127679	0.720877	0.000085
1742	1.7323e+02	-10.6345	-43.623270	0.000162	1.621089	0.549240	0.000065
1743	1.7333e+02	-10.5944	-43.538490	0.000213	2.127679	0.720877	0.000085
1744	1.7343e+02	-10.5575	-43.429488	0.000274	2.735587	0.926842	0.000110
1745	1.7353e+02	-10.5125	-43.312411	0.000294	2.938223	0.995497	0.000118
1746	1.7363e+02	-10.4821	-43.195334	0.000294	2.938223	0.995497	0.000118
1747	1.7373e+02	-10.4403	-43.126703	0.000172	1.722407	0.583567	0.000069
1748	1.7383e+02	-10.3970	-43.025774	0.000253	2.532951	0.858187	0.000101
1749	1.7393e+02	-10.3521	-42.928883	0.000243	2.431633	0.823860	0.000097
1750	1.7403e+02	-10.3248	-42.840066	0.000223	2.228997	0.755205	0.000089
1751	1.7413e+02	-10.2847	-42.727026	0.000284	2.836905	0.961169	0.000114
1752	1.7422e+02	-10.2462	-42.682618	0.000111	1.114498	0.377602	0.000045
1753	1.7432e+02	-10.2029	-42.585726	0.000243	2.431633	0.823860	0.000097
1754	1.7442e+02	-10.1564	-42.496909	0.000223	2.228997	0.755205	0.000089
1755	1.7452e+02	-10.1211	-42.343498	0.000385	3.850085	1.304444	0.000154
1756	1.7462e+02	-10.0746	-42.266793	0.000193	1.925043	0.652222	0.000077
1757	1.7472e+02	-10.0505	-42.177976	0.000223	2.228997	0.755205	0.000089
1758	1.7482e+02	-9.9960	-42.064936	0.000284	2.836905	0.961169	0.000114
1759	1.7492e+02	-9.9623	-41.964007	0.000253	2.532951	0.858187	0.000101
1760	1.7502e+02	-9.9222	-41.875190	0.000223	2.228997	0.755205	0.000089
1761	1.7512e+02	-9.8773	-41.750039	0.000314	3.140859	1.064152	0.000126
1762	1.7522e+02	-9.8372	-41.721779	0.000071	0.709226	0.240292	0.000028
1763	1.7532e+02	-9.8067	-41.612777	0.000274	2.735587	0.926842	0.000110
1764	1.7542e+02	-9.7666	-41.503774	0.000274	2.735587	0.926842	0.000110
1765	1.7552e+02	-9.7265	-41.378623	0.000314	3.140859	1.064152	0.000126
1766	1.7562e+02	-9.6767	-41.330177	0.000122	1.215816	0.411930	0.000049
1767	1.7572e+02	-9.6398	-41.233286	0.000243	2.431633	0.823860	0.000097
1768	1.7582e+02	-9.6029	-41.108135	0.000314	3.140859	1.064152	0.000126
1769	1.7592e+02	-9.5725	-41.035466	0.000182	1.823725	0.617895	0.000073
1770	1.7602e+02	-9.5211	-40.954723	0.000203	2.026361	0.686550	0.000081
1771	1.7612e+02	-9.4858	-40.837647	0.000294	2.938223	0.995497	0.000118
1772	1.7621e+02	-9.4441	-40.736718	0.000253	2.532951	0.858187	0.000101
1773	1.7631e+02	-9.4072	-40.635790	0.000253	2.532951	0.858187	0.000101
1774	1.7641e+02	-9.3607	-40.579270	0.000142	1.418453	0.480585	0.000057
1775	1.7651e+02	-9.3286	-40.470267	0.000274	2.735587	0.926842	0.000110
1776	1.7661e+02	-9.2869	-40.341079	0.000324	3.242177	1.098479	0.000130
1777	1.7671e+02	-9.2436	-40.228039	0.000284	2.836905	0.961169	0.000114
1778	1.7681e+02	-9.2019	-40.143259	0.000213	2.127679	0.720877	0.000085
1779	1.7691e+02	-9.1634	-40.022145	0.000304	3.039541	1.029824	0.000122
1780	1.7701e+02	-9.1281	-39.917180	0.000263	2.634269	0.892514	0.000105
1781	1.7711e+02	-9.0928	-39.808177	0.000274	2.735587	0.926842	0.000110
1782	1.7721e+02	-9.0479	-39.735509	0.000182	1.823725	0.617895	0.000073
1783	1.7731e+02	-8.9933	-39.630543	0.000263	2.634269	0.892514	0.000105
1784	1.7741e+02	-8.9628	-39.517503	0.000284	2.836905	0.961169	0.000114
1785	1.7751e+02	-8.9179	-39.404463	0.000284	2.836905	0.961169	0.000114
1786	1.7761e+02	-8.8858	-39.356018	0.000122	1.215816	0.411930	0.000049
1787	1.7771e+02	-8.8441	-39.271238	0.000213	2.127679	0.720877	0.000085
1788	1.7781e+02	-8.8104	-39.138012	0.000334	3.343495	1.132807	0.000134
1789	1.7791e+02	-8.7671	-39.033047	0.000263	2.634269	0.892514	0.000105
1790	1.7801e+02	-8.7158	-38.907896	0.000314	3.140859	1.064152	0.000126
1791	1.7810e+02	-8.6869	-38.855413	0.000132	1.317134	0.446257	0.000053
1792	1.7820e+02	-8.6452	-38.702002	0.000385	3.850085	1.304444	0.000154
1793	1.7830e+02	-8.6019	-38.564739	0.000344	3.444813	1.167134	0.000138
1794	1.7840e+02	-8.5634	-38.479959	0.000213	2.127679	0.720877	0.000085
1795	1.7850e+02	-8.5281	-38.330585	0.000375	3.748767	1.270117	0.000150
1796	1.7860e+02	-8.4928	-38.233694	0.000243	2.431633	0.823860	0.000097
1797	1.7870e+02	-8.4399	-38.120654	0.000284	2.836905	0.961169	0.000114
1798	1.7880e+02	-8.4142	-38.043949	0.000193	1.925043	0.652222	0.000077
1799	1.7890e+02	-8.3629	-37.926872	0.000294	2.938223	0.995497	0.000118
1800	1.7900e+02	-8.3260	-37.825943	0.000253	2.532951	0.858187	0.000101
1801	1.7910e+02	-8.2810	-37.716941	0.000274	2.735587	0.926842	0.000110
1802	1.7920e+02	-8.2361	-37.640235	0.000193	1.925043	0.652222	0.000077
1803	1.7930e+02	-8.2089	-37.515084	0.000314	3.140859	1.064152	0.000126
1804	1.7940e+02	-8.1671	-37.406081	0.000274	2.735587	0.926842	0.000110
1805	1.7950e+02	-8.1383	-37.313227	0.000233	2.330315	0.789532	0.000093
1806	1.7960e+02	-8.0885	-37.256707	0.000142	1.418453	0.480585	0.000057
1807	1.7970e+02	-8.0516	-37.135593	0.000304	3.039541	1.029824	0.000122
1808	1.7980e+02	-8.0019	-37.046776	0.000223	2.228997	0.755205	0.000089
1809	1.7990e+02	-7.9666	-36.925662	0.000304	3.039541	1.029824	0.000122
1810	1.8000e+02	-7.9265	-36.832808	0.000233	2.330315	0.789532	0.000093
1811	1.8009e+02	-7.8816	-36.723805	0.000274	2.735587	0.926842	0.000110
1812	1.8019e+02	-7.8511	-36.639025	0.000213	2.127679	0.720877	0.000085
1813	1.8029e+02	-7.8110	-36.530023	0.000274	2.735587	0.926842	0.000110
1814	1.8039e+02	-7.7629	-36.453317	0.000193	1.925043	0.652222	0.000077
1815	1.8049e+02	-7.7260	-36.364500	0.000223	2.228997	0.755205	0.000089
1816	1.8059e+02	-7.6923	-36.215126	0.000375	3.748767	1.270117	0.000150
1817	1.8069e+02	-7.6474	-36.106123	0.000274	2.735587	0.926842	0.000110
1818	1.8079e+02	-7.6041	-36.021344	0.000213	2.127679	0.720877	0.000085
1819	1.8089e+02	-7.5704	-35.916378	0.000263	2.634269	0.892514	0.000105
1820	1.8099e+02	-7.5383	-35.791227	0.000314	3.140859	1.064152	0.000126
1821	1.8109e+02	-7.4902	-35.670113	0.000304	3.039541	1.029824	0.000122
1822	1.8119e+02	-7.4388	-35.581296	0.000223	2.228997	0.755205	0.000089
1823	1.8129e+02	-7.4100	-35.484405	0.000243	2.431633	0.823860	0.000097
1824	1.8139e+02	-7.3650	-35.351179	0.000334	3.343495	1.132807	0.000134
1825	1.8149e+02	-7.3442	-35.274474	0.000193	1.925043	0.652222	0.000077
1826	1.8159e+02	-7.2880	-35.193731	0.000203	2.026361	0.686550	0.000081
1827	1.8169e+02	-7.2608	-35.048394	0.000365	3.647449	1.235789	0.000146
1828	1.8179e+02	-7.2126	-34.947466	0.000253	2.532951	0.858187	0.000101
1829	1.8189e+02	-7.1677	-34.858649	0.000223	2.228997	0.755205	0.000089
1830	1.8199e+02	-7.1292	-34.765794	0.000233	2.330315	0.789532	0.000093
1831	1.8209e+02	-7.0971	-34.685052	0.000203	2.026361	0.686550	0.000081
1832	1.8218e+02	-7.0570	-34.572012	0.000284	2.836905	0.961169	0.000114
1833	1.8228e+02	-7.0105	-34.454935	0.000294	2.938223	0.995497	0.000118
1834	1.8238e+02	-6.9720	-34.362081	0.000233	2.330315	0.789532	0.000093
1835	1.8248e+02	-6.9223	-34.236930	0.000314	3.140859	1.064152	0.000126
1836	1.8258e+02	-6.8918	-34.164261	0.000182	1.823725	0.617895	0.000073
1837	1.8268e+02	-6.8517	-34.026999	0.000344	3.444813	1.167134	0.000138
1838	1.8278e+02	-6.8148	-33.962404	0.000162	1.621089	0.549240	0.000065
1839	1.8288e+02	-6.7699	-33.817068	0.000365	3.647449	1.235789	0.000146
1840	1.8298e+02	-6.7394	-33.728251	0.000223	2.228997	0.755205	0.000089
1841	1.8308e+02	-6.6945	-33.611174	0.000294	2.938223	0.995497	0.000118
1842	1.8318e+02	-6.6576	-33.506208	0.000263	2.634269	0.892514	0.000105
1843	1.8328e+02	-6.6207	-33.409317	0.000243	2.431633	0.823860	0.000097
1844	1.8338e+02	-6.5790	-33.308388	0.000253	2.532951	0.858187	0.000101
1845	1.8348e+02	-6.5340	-33.167089	0.000355	3.546131	1.201462	0.000142
1846	1.8358e+02	-6.4859	-33.033863	0.000334	3.343495	1.132807	0.000134
1847	1.8368e+02	-6.4570	-32.989455	0.000111	1.114498	0.377602	0.000045
1848	1.8378e+02	-6.4282	-32.803746	0.000466	4.660630	1.579064	0.000187
1849	1.8388e+02	-6.3848	-32.735115	0.000172	1.722407	0.583567	0.000069
1850	1.8398e+02	-6.3415	-32.634187	0.000253	2.532951	0.858187	0.000101
1851	1.8407e+02	-6.2950	-32.517110	0.000294	2.938223	0.995497	0.000118
1852	1.8417e+02	-6.2661	-32.428293	0.000223	2.228997	0.755205	0.000089
1853	1.8427e+02	-6.2244	-32.311216	0.000294	2.938223	0.995497	0.000118
1854	1.8437e+02	-6.1731	-32.190102	0.000304	3.039541	1.029824	0.000122
1855	1.8447e+02	-6.1362	-32.113396	0.000193	1.925043	0.652222	0.000077
1856	1.8457e+02	-6.1009	-31.968059	0.000365	3.647449	1.235789	0.000146
1857	1.8467e+02	-6.0560	-31.846945	0.000304	3.039541	1.029824	0.000122
1858	1.8477e+02	-6.0255	-31.770240	0.000193	1.925043	0.652222	0.000077
1859	1.8487e+02	-5.9710	-31.604717	0.000415	4.154039	1.407427	0.000166
1860	1.8497e+02	-5.9341	-31.507826	0.000243	2.431633	0.823860	0.000097
1861	1.8507e+02	-5.8891	-31.419009	0.000223	2.228997	0.755205	0.000089
1862	1.8517e+02	-5.8587	-31.305969	0.000284	2.836905	0.961169	0.000114
1863	1.8527e+02	-5.8137	-31.196966	0.000274	2.735587	0.926842	0.000110
1864	1.8537e+02	-5.7817	-31.043555	0.000385	3.850085	1.304444	0.000154
1865	1.8547e+02	-5.7303	-30.966850	0.000193	1.925043	0.652222	0.000077
1866	1.8557e+02	-5.6982	-30.821513	0.000365	3.647449	1.235789	0.000146
1867	1.8567e+02	-5.6565	-30.700399	0.000304	3.039541	1.029824	0.000122
1868	1.8577e+02	-5.6180	-30.555062	0.000365	3.647449	1.235789	0.000146
1869	1.8587e+02	-5.5747	-30.490468	0.000162	1.621089	0.549240	0.000065
1870	1.8597e+02	-5.5426	-30.369354	0.000304	3.039541	1.029824	0.000122
1871	1.8606e+02	-5.4945	-30.219980	0.000375	3.748767	1.270117	0.000150
1872	1.8616e+02	-5.4640	-30.086754	0.000334	3.343495	1.132807	0.000134
1873	1.8626e+02	-5.4287	-29.993900	0.000233	2.330315	0.789532	0.000093
1874	1.8636e+02	-5.3758	-29.872786	0.000304	3.039541	1.029824	0.000122
1875	1.8646e+02	-5.3357	-29.727449	0.000365	3.647449	1.235789	0.000146
1876	1.8656e+02	-5.3068	-29.666892	0.000152	1.519771	0.514912	0.000061
1877	1.8666e+02	-5.2651	-29.533666	0.000334	3.343495	1.132807	0.000134
1878	1.8676e+02	-5.2250	-29.396404	0.000344	3.444813	1.167134	0.000138
1879	1.8686e+02	-5.1801	-29.279327	0.000294	2.938223	0.995497	0.000118
1880	1.8696e+02	-5.1384	-29.182436	0.000243	2.431633	0.823860	0.000097
1881	1.8706e+02	-5.1031	-29.041136	0.000355	3.546131	1.201462	0.000142
1882	1.8716e+02	-5.0581	-28.936170	0.000263	2.634269	0.892514	0.000105
1883	1.8726e+02	-5.0245	-28.823131	0.000284	2.836905	0.961169	0.000114
1884	1.8736e+02	-4.9860	-28.669719	0.000385	3.850085	1.304444	0.000154
1885	1.8746e+02	-4.9442	-28.584940	0.000213	2.127679	0.720877	0.000085
1886	1.8756e+02	-4.9106	-28.427491	0.000395	3.951403	1.338772	0.000158
1887	1.8766e+02	-4.8624	-28.350786	0.000193	1.925043	0.652222	0.000077
1888	1.8776e+02	-4.8271	-28.181226	0.000426	4.255358	1.441754	0.000170
1889	1.8786e+02	-4.7967	-28.112595	0.000172	1.722407	0.583567	0.000069
1890	1.8796e+02	-4.7405	-27.987444	0.000314	3.140859	1.064152	0.000126
1891	1.8806e+02	-4.7068	-27.821921	0.000415	4.154039	1.407427	0.000166
1892	1.8815e+02	-4.6667	-27.720993	0.000253	2.532951	0.858187	0.000101
1893	1.8825e+02	-4.6266	-27.587767	0.000334	3.343495	1.132807	0.000134
1894	1.8835e+02	-4.5833	-27.486839	0.000253	2.532951	0.858187	0.000101
1895	1.8845e+02	-4.5416	-27.337465	0.000375	3.748767	1.270117	0.000150
1896	1.8855e+02	-4.5031	-27.220388	0.000294	2.938223	0.995497	0.000118
1897	1.8865e+02	-4.4646	-27.111385	0.000274	2.735587	0.926842	0.000110
1898	1.8875e+02	-4.4261	-26.962011	0.000375	3.748767	1.270117	0.000150
1899	1.8885e+02	-4.3860	-26.873194	0.000223	2.228997	0.755205	0.000089
1900	1.8895e+02	-4.3346	-26.691523	0.000456	4.559312	1.544737	0.000183
1901	1.8905e+02	-4.3042	-26.562335	0.000324	3.242177	1.098479	0.000130
1902	1.8915e+02	-4.2512	-26.408923	0.000385	3.850085	1.304444	0.000154
1903	1.8925e+02	-4.2223	-26.255512	0.000385	3.850085	1.304444	0.000154
1904	1.8935e+02	-4.1919	-26.102101	0.000385	3.850085	1.304444	0.000154
1905	1.8945e+02	-4.1437	-25.993098	0.000274	2.735587	0.926842	0.000110
1906	1.8955e+02	-4.1084	-25.843724	0.000375	3.748767	1.270117	0.000150
1907	1.8965e+02	-4.0635	-25.722610	0.000304	3.039541	1.029824	0.000122
1908	1.8975e+02	-4.0330	-25.601496	0.000304	3.039541	1.029824	0.000122
1909	1.8985e+02	-3.9801	-25.464234	0.000344	3.444813	1.167134	0.000138
1910	1.8995e+02	-3.9384	-25.294674	0.000426	4.255358	1.441754	0.000170
1911	1.9004e+02	-3.9063	-25.157411	0.000344	3.444813	1.167134	0.000138
1912	1.9014e+02	-3.8678	-25.036297	0.000304	3.039541	1.029824	0.000122
1913	1.9024e+02	-3.8181	-24.886923	0.000375	3.748767	1.270117	0.000150
1914	1.9034e+02	-3.7812	-24.725438	0.000405	4.052721	1.373099	0.000162
1915	1.9044e+02	-3.7427	-24.620472	0.000263	2.634269	0.892514	0.000105
1916	1.9054e+02	-3.7010	-24.495321	0.000314	3.140859	1.064152	0.000126
1917	1.9064e+02	-3.6657	-24.354021	0.000355	3.546131	1.201462	0.000142
1918	1.9074e+02	-3.6224	-24.212722	0.000355	3.546131	1.201462	0.000142
1919	1.9084e+02	-3.5903	-24.075459	0.000344	3.444813	1.167134	0.000138
1920	1.9094e+02	-3.5470	-23.938196	0.000344	3.444813	1.167134	0.000138
1921	1.9104e+02	-3.5085	-23.809008	0.000324	3.242177	1.098479	0.000130
1922	1.9114e+02	-3.4667	-23.716154	0.000233	2.330315	0.789532	0.000093
1923	1.9124e+02	-3.4282	-23.591003	0.000314	3.140859	1.064152	0.000126
1924	1.9134e+02	-3.3946	-23.445666	0.000365	3.647449	1.235789	0.000146
1925	1.9144e+02	-3.3464	-23.348775	0.000243	2.431633	0.823860	0.000097
1926	1.9154e+02	-3.3095	-23.207475	0.000355	3.546131	1.201462	0.000142
1927	1.9164e+02	-3.2694	-23.102509	0.000263	2.634269	0.892514	0.000105
1928	1.9174e+02	-3.2213	-22.924875	0.000446	4.457994	1.510409	0.000179
1929	1.9184e+02	-3.1940	-22.803761	0.000304	3.039541	1.029824	0.000122
1930	1.9194e+02	-3.1507	-22.727056	0.000193	1.925043	0.652222	0.000077
1931	1.9203e+02	-3.1122	-22.573644	0.000385	3.850085	1.304444	0.000154
1932	1.9213e+02	-3.0753	-22.444456	0.000324	3.242177	1.098479	0.000130
1933	1.9223e+02	-3.0400	-22.299119	0.000365	3.647449	1.235789	0.000146
1934	1.9233e+02	-2.9871	-22.214339	0.000213	2.127679	0.720877	0.000085
1935	1.9243e+02	-2.9374	-22.077077	0.000344	3.444813	1.167134	0.000138
1936	1.9253e+02	-2.9101	-21.927703	0.000375	3.748767	1.270117	0.000150
1937	1.9263e+02	-2.8764	-21.830812	0.000243	2.431633	0.823860	0.000097
1938	1.9273e+02	-2.8251	-21.709697	0.000304	3.039541	1.029824	0.000122
1939	1.9283e+02	-2.7946	-21.568398	0.000355	3.546131	1.201462	0.000142
1940	1.9293e+02	-2.7448	-21.455358	0.000284	2.836905	0.961169	0.000114
1941	1.9303e+02	-2.7079	-21.350392	0.000263	2.634269	0.892514	0.000105
1942	1.9313e+02	-2.6775	-21.196981	0.000385	3.850085	1.304444	0.000154
1943	1.9323e+02	-2.6342	-21.047607	0.000375	3.748767	1.270117	0.000150
1944	1.9333e+02	-2.6005	-20.898233	0.000375	3.748767	1.270117	0.000150
1945	1.9343e+02	-2.5411	-20.805379	0.000233	2.330315	0.789532	0.000093
1946	1.9353e+02	-2.5090	-20.656005	0.000375	3.748767	1.270117	0.000150
1947	1.9363e+02	-2.4801	-20.506631	0.000375	3.748767	1.270117	0.000150
1948	1.9373e+02	-2.4352	-20.361294	0.000365	3.647449	1.235789	0.000146
1949	1.9383e+02	-2.3919	-20.203846	0.000395	3.951403	1.338772	0.000158
1950	1.9393e+02	-2.3534	-20.070620	0.000334	3.343495	1.132807	0.000134
1951	1.9403e+02	-2.3117	-19.941432	0.000324	3.242177	1.098479	0.000130
1952	1.9412e+02	-2.2716	-19.836466	0.000263	2.634269	0.892514	0.000105
1953	1.9422e+02	-2.2347	-19.715352	0.000304	3.039541	1.029824	0.000122
1954	1.9432e+02	-2.1898	-19.557904	0.000395	3.951403	1.338772	0.000158
1955	1.9442e+02	-2.1481	-19.424679	0.000334	3.343495	1.132807	0.000134
1956	1.9452e+02	-2.1144	-19.275305	0.000375	3.748767	1.270117	0.000150
1957	1.9462e+02	-2.0711	-19.158228	0.000294	2.938223	0.995497	0.000118
1958	1.9472e+02	-2.0310	-19.033076	0.000314	3.140859	1.064152	0.000126
1959	1.9482e+02	-1.9892	-18.899851	0.000334	3.343495	1.132807	0.000134
1960	1.9492e+02	-1.9572	-18.742403	0.000395	3.951403	1.338772	0.000158
1961	1.9502e+02	-1.9219	-18.609177	0.000334	3.343495	1.132807	0.000134
1962	1.9512e+02	-1.8673	-18.475952	0.000334	3.343495	1.132807	0.000134
1963	1.9522e+02	-1.8288	-18.310429	0.000415	4.154039	1.407427	0.000166
1964	1.9532e+02	-1.7887	-18.136832	0.000436	4.356676	1.476082	0.000174
1965	1.9542e+02	-1.7438	-18.003607	0.000334	3.343495	1.132807	0.000134
1966	1.9552e+02	-1.7037	-17.878456	0.000314	3.140859	1.064152	0.000126
1967	1.9562e+02	-1.6732	-17.692747	0.000466	4.660630	1.579064	0.000187
1968	1.9572e+02	-1.6331	-17.571633	0.000304	3.039541	1.029824	0.000122
1969	1.9582e+02	-1.5914	-17.422259	0.000375	3.748767	1.270117	0.000150
1970	1.9592e+02	-1.5465	-17.268848	0.000385	3.850085	1.304444	0.000154
1971	1.9601e+02	-1.5192	-17.123511	0.000365	3.647449	1.235789	0.000146
1972	1.9611e+02	-1.4807	-16.974137	0.000375	3.748767	1.270117	0.000150
1973	1.9621e+02	-1.4342	-16.832837	0.000355	3.546131	1.201462	0.000142
1974	1.9631e+02	-1.3925	-16.679426	0.000385	3.850085	1.304444	0.000154
1975	1.9641e+02	-1.3572	-16.546201	0.000334	3.343495	1.132807	0.000134
1976	1.9651e+02	-1.3107	-16.340307	0.000517	5.167220	1.750701	0.000207
1977	1.9661e+02	-1.2786	-16.215156	0.000314	3.140859	1.064152	0.000126
1978	1.9671e+02	-1.2353	-16.081930	0.000334	3.343495	1.132807	0.000134
1979	1.9681e+02	-1.1935	-15.932556	0.000375	3.748767	1.270117	0.000150
1980	1.9691e+02	-1.1550	-15.807405	0.000314	3.140859	1.064152	0.000126
1981	1.9701e+02	-1.1214	-15.666105	0.000355	3.546131	1.201462	0.000142
1982	1.9711e+02	-1.0748	-15.524805	0.000355	3.546131	1.201462	0.000142
1983	1.9721e+02	-1.0363	-15.355246	0.000426	4.255358	1.441754	0.000170
1984	1.9731e+02	-0.9914	-15.193760	0.000405	4.052721	1.373099	0.000162
1985	1.9741e+02	-0.9577	-15.052461	0.000355	3.546131	1.201462	0.000142
1986	1.9751e+02	-0.9224	-14.842530	0.000527	5.268538	1.785029	0.000211
1987	1.9761e+02	-0.8759	-14.693156	0.000375	3.748767	1.270117	0.000150
1988	1.9771e+02	-0.8374	-14.531670	0.000405	4.052721	1.373099	0.000162
1989	1.9781e+02	-0.8021	-14.406519	0.000314	3.140859	1.064152	0.000126
1990	1.9791e+02	-0.7636	-14.269256	0.000344	3.444813	1.167134	0.000138
1991	1.9800e+02	-0.7251	-14.079511	0.000476	4.761948	1.613392	0.000191
1992	1.9810e+02	-0.6609	-13.938211	0.000355	3.546131	1.201462	0.000142
1993	1.9820e+02	-0.6305	-13.857468	0.000203	2.026361	0.686550	0.000081
1994	1.9830e+02	-0.6048	-13.651574	0.000517	5.167220	1.750701	0.000207
1995	1.9840e+02	-0.5615	-13.502200	0.000375	3.748767	1.270117	0.000150
1996	1.9850e+02	-0.5230	-13.304381	0.000496	4.964584	1.682047	0.000199
1997	1.9860e+02	-0.4813	-13.146933	0.000395	3.951403	1.338772	0.000158
1998	1.9870e+02	-0.4428	-12.977373	0.000426	4.255358	1.441754	0.000170
1999	1.9880e+02	-0.3995	-12.848184	0.000324	3.242177	1.098479	0.000130
2000	1.9890e+02	-0.3610	-12.662476	0.000466	4.660630	1.579064	0.000187
2001	1.9900e+02	-0.3208	-12.492917	0.000426	4.255358	1.441754	0.000170
2002	1.9910e+02	-0.2839	-12.327394	0.000415	4.154039	1.407427	0.000166
2003	1.9920e+02	-0.2326	-12.194168	0.000334	3.343495	1.132807	0.000134
2004	1.9930e+02	-0.2005	-12.008460	0.000466	4.660630	1.579064	0.000187
2005	1.9940e+02	-0.1604	-11.810641	0.000496	4.964584	1.682047	0.000199
2006	1.9950e+02	-0.1219	-11.637044	0.000436	4.356676	1.476082	0.000174
2007	1.9960e+02	-0.0754	-11.483633	0.000385	3.850085	1.304444	0.000154
2008	1.9970e+02	-0.0385	-11.289850	0.000486	4.863266	1.647719	0.000195
2009	1.9980e+02	0.0032	-11.156625	0.000486	4.863266	1.647719	0.000134

Center data before PMax,+/-Pr and +/-Vc Calc.

PMax (uC/cm2):	5.83e+01
Pr (uC/cm2):	7.41e+00
-Pr (uC/cm2):	-1.12e+01
PLoss (uC/cm2):	-7.00e+00
Vc:	2.05e+00
-Vc:	-1.73e+00
C (Max-Eff) (nF):	2.91e-01
K (Eff):	9.88e+02
Vert. (+/-Pr) Shift (uC/cm2):	-1.87e+00
Horiz. Shift (+/-Vc):	1.64e-01
Offset (uC/cm2):	4.16e+00

A (Loop Area - uC/cm2·Volts):	7.30e-02



Hysteresis Version: 5.48.1 - Radiant Technologies, Inc., 1999 - 9/12/24

