»»»»»»»»»»»»»»»»»»»»»»»»»»»»»»»»»»»» Hysteresis ««««««««««««««««««««««««««««««««««««
»»»  Executed Version:	5.48.1
»»»  Vision Version:	5.48.4 (R)
»»»  Vision Compiled:	9/18/24
»»»  Driver Version:	5.47.0
»»»  Windows Version:	Windows 8 or 8.1
»»»  Processor Information:	x86 (AMD or Intel) - 32 Processors
»»»  Tester Name:	PMF21124-494 (100V)
»»»  Tester S/N:	PMF21124-494
»»»  Internal Amp Type:	100V RevK 270k
»»»  Internal Amp S/N:	iAB2-596/K     
»»»  Execution Count:	1
»»»»»»»»»»»»»»»»»»»»»»»»»»»»»»»»»»»»»»»»»»««««««««««««««««««««««««««««««««««««««««««

Stored:	6/11/2025 - 11:38:14
Configured:	06/11/25 10:21:25 AM
Executed:	06/11/25 11:37:23 AM

»»»»»»»»»»»»»»»»»»»»»»»»»»»»»»»»»»» Sample Info ««««««««««««««««««««««««««««««««««««
Sample Name:	
Lot Name:	
Wafer Name:	
Die Row/Column:	0/0
Capacitor Number:	0
Sample Area (cm2):	1.00e-04
Sample Thickness (microns):	3.00e-01

Amplifier:	Internal

»»»»»»»»»»»»»»»»»»»»»»»»»»»»»»»»»»» Tester Info «««««««««««««««««««««««««««««««««««
Tester Name:	PMF21124-494 (100V)
Tester Serial Number:	PMF21124-494
Return Signal Amp. Level:	0.19 [Index: 3]

»»»»»»»»»»»»»»»»»»»»»»»»»»»»»»»» Hysteresis Info ««««««««««««««««««««««««««««««««««
Task Name:	Hyst-1175
Volts:	20.00
Field:	666.67 (kV/cm)
DCBias:	0.00
DCField:	0.00 (kV/cm)
Hysteresis Period (ms):	2.00e+02
Preset:	Enabled
Preset Delay (ms):	1.00e+03
Profile:	Standard Bipolar

»»»»»»»»»»»»»»»»»»»»»»»»»»»»»»»»»»»»»» Data «««««««««««««««««««««««««««««««««««««««
Points:	2009

Valid Data

Point	Time (ms)	Drive Voltage	Measured Polarization (uC/cm2)	Capacitance (uF)	Normalized Capacitance (uF/cm2)	Dielectric Constant	Instantaneous Current (mA)
   1	0.0000e+00	0.0048	-7.500998	0.000304	3.040273	1.030072	0.000122
   2	9.9500e-02	0.0273	-7.379884	0.000304	3.040273	1.030072	0.000122
   3	1.9900e-01	0.0706	-7.206287	0.000436	4.357724	1.476437	0.000174
   4	2.9850e-01	0.1075	-7.036728	0.000426	4.256382	1.442101	0.000170
   5	3.9800e-01	0.1476	-6.863131	0.000436	4.357724	1.476437	0.000174
   6	4.9750e-01	0.1925	-6.685497	0.000446	4.459066	1.510773	0.000179
   7	5.9700e-01	0.2326	-6.503826	0.000456	4.560409	1.545108	0.000183
   8	6.9650e-01	0.2647	-6.281783	0.000557	5.573833	1.888466	0.000223
   9	7.9600e-01	0.3080	-6.120298	0.000405	4.053697	1.373430	0.000162
  10	8.9550e-01	0.3513	-5.930552	0.000476	4.763094	1.613780	0.000191
  11	9.9500e-01	0.3898	-5.773104	0.000395	3.952354	1.339094	0.000158
  12	1.0945e+00	0.4412	-5.591433	0.000456	4.560409	1.545108	0.000183
  13	1.1940e+00	0.4700	-5.401688	0.000476	4.763094	1.613780	0.000191
  14	1.2935e+00	0.5085	-5.264425	0.000345	3.445642	1.167415	0.000138
  15	1.3930e+00	0.5486	-5.046420	0.000547	5.472491	1.854130	0.000219
  16	1.4925e+00	0.5952	-4.840526	0.000517	5.168463	1.751123	0.000207
  17	1.5920e+00	0.6289	-4.695189	0.000365	3.648327	1.236087	0.000146
  18	1.6915e+00	0.6658	-4.541778	0.000385	3.851012	1.304758	0.000154
  19	1.7910e+00	0.7059	-4.291475	0.000628	6.283230	2.128816	0.000252
  20	1.8905e+00	0.7476	-4.170361	0.000304	3.040273	1.030072	0.000122
  21	1.9900e+00	0.7845	-3.968504	0.000507	5.067121	1.716787	0.000203
  22	2.0895e+00	0.8278	-3.786833	0.000456	4.560409	1.545108	0.000183
  23	2.1890e+00	0.8663	-3.597088	0.000476	4.763094	1.613780	0.000191
  24	2.2885e+00	0.9176	-3.439640	0.000395	3.952354	1.339094	0.000158
  25	2.3880e+00	0.9513	-3.225671	0.000537	5.371148	1.819794	0.000215
  26	2.4875e+00	0.9930	-3.035926	0.000476	4.763094	1.613780	0.000191
  27	2.5870e+00	1.0219	-2.878478	0.000395	3.952354	1.339094	0.000158
  28	2.6865e+00	1.0684	-2.700844	0.000446	4.459066	1.510773	0.000179
  29	2.7860e+00	1.1005	-2.503024	0.000497	4.965779	1.682451	0.000199
  30	2.8855e+00	1.1550	-2.309242	0.000486	4.864436	1.648116	0.000195
  31	2.9850e+00	1.1952	-2.204276	0.000263	2.634903	0.892729	0.000105
  32	3.0845e+00	1.2353	-1.958011	0.000618	6.181888	2.094480	0.000248
  33	3.1840e+00	1.2657	-1.812674	0.000365	3.648327	1.236087	0.000146
  34	3.2835e+00	1.3091	-1.614854	0.000497	4.965779	1.682451	0.000199
  35	3.3830e+00	1.3427	-1.425109	0.000476	4.763094	1.613780	0.000191
  36	3.4825e+00	1.3861	-1.259586	0.000416	4.155039	1.407765	0.000166
  37	3.5820e+00	1.4230	-1.090027	0.000426	4.256382	1.442101	0.000170
  38	3.6815e+00	1.4695	-0.932578	0.000395	3.952354	1.339094	0.000158
  39	3.7810e+00	1.5048	-0.714573	0.000547	5.472491	1.854130	0.000219
  40	3.8805e+00	1.5433	-0.528865	0.000466	4.661751	1.579444	0.000187
  41	3.9800e+00	1.5802	-0.379491	0.000375	3.749670	1.270422	0.000150
  42	4.0795e+00	1.6251	-0.161485	0.000547	5.472491	1.854130	0.000219
  43	4.1790e+00	1.6620	0.024223	0.000466	4.661751	1.579444	0.000187
  44	4.2785e+00	1.6989	0.193783	0.000426	4.256382	1.442101	0.000170
  45	4.3780e+00	1.7438	0.351231	0.000395	3.952354	1.339094	0.000158
  46	4.4775e+00	1.7871	0.549050	0.000497	4.965779	1.682451	0.000199
  47	4.5770e+00	1.8272	0.730722	0.000456	4.560409	1.545108	0.000183
  48	4.6765e+00	1.8770	0.920467	0.000476	4.763094	1.613780	0.000191
  49	4.7760e+00	1.9042	1.085990	0.000416	4.155039	1.407765	0.000166
  50	4.8755e+00	1.9459	1.243438	0.000395	3.952354	1.339094	0.000158
  51	4.9750e+00	1.9909	1.417035	0.000436	4.357724	1.476437	0.000174
  52	5.0745e+00	2.0261	1.590631	0.000436	4.357724	1.476437	0.000174
  53	5.1740e+00	2.0646	1.760191	0.000426	4.256382	1.442101	0.000170
  54	5.2735e+00	2.1096	1.970122	0.000527	5.269806	1.785459	0.000211
  55	5.3730e+00	2.1529	2.083162	0.000284	2.837588	0.961401	0.000114
  56	5.4725e+00	2.1818	2.297130	0.000537	5.371148	1.819794	0.000215
  57	5.5720e+00	2.2203	2.490913	0.000486	4.864436	1.648116	0.000195
  58	5.6715e+00	2.2604	2.644324	0.000385	3.851012	1.304758	0.000154
  59	5.7710e+00	2.3069	2.838106	0.000486	4.864436	1.648116	0.000195
  60	5.8705e+00	2.3438	3.027852	0.000476	4.763094	1.613780	0.000191
  61	5.9700e+00	2.3759	3.189337	0.000405	4.053697	1.373430	0.000162
  62	6.0695e+00	2.4176	3.338711	0.000375	3.749670	1.270422	0.000150
  63	6.1690e+00	2.4673	3.524419	0.000466	4.661751	1.579444	0.000187
  64	6.2685e+00	2.5058	3.665719	0.000355	3.546985	1.201751	0.000142
  65	6.3680e+00	2.5539	3.863539	0.000497	4.965779	1.682451	0.000199
  66	6.4675e+00	2.5876	4.037136	0.000436	4.357724	1.476437	0.000174
  67	6.5670e+00	2.6213	4.198621	0.000405	4.053697	1.373430	0.000162
  68	6.6665e+00	2.6614	4.368181	0.000426	4.256382	1.442101	0.000170
  69	6.7660e+00	2.7079	4.561963	0.000486	4.864436	1.648116	0.000195
  70	6.8655e+00	2.7464	4.735560	0.000436	4.357724	1.476437	0.000174
  71	6.9650e+00	2.7801	4.929343	0.000486	4.864436	1.648116	0.000195
  72	7.0645e+00	2.8234	5.074680	0.000365	3.648327	1.236087	0.000146
  73	7.1640e+00	2.8603	5.248276	0.000436	4.357724	1.476437	0.000174
  74	7.2635e+00	2.9005	5.421873	0.000436	4.357724	1.476437	0.000174
  75	7.3630e+00	2.9438	5.534913	0.000284	2.837588	0.961401	0.000114
  76	7.4625e+00	2.9775	5.720621	0.000466	4.661751	1.579444	0.000187
  77	7.5620e+00	3.0288	5.874032	0.000385	3.851012	1.304758	0.000154
  78	7.6615e+00	3.0657	6.055704	0.000456	4.560409	1.545108	0.000183
  79	7.7610e+00	3.0994	6.192966	0.000345	3.445642	1.167415	0.000138
  80	7.8605e+00	3.1491	6.419046	0.000568	5.675175	1.922802	0.000227
  81	7.9600e+00	3.1876	6.552271	0.000334	3.344300	1.133079	0.000134
  82	8.0595e+00	3.2261	6.746054	0.000486	4.864436	1.648116	0.000195
  83	8.1590e+00	3.2598	6.907539	0.000405	4.053697	1.373430	0.000162
  84	8.2585e+00	3.2999	7.048839	0.000355	3.546985	1.201751	0.000142
  85	8.3580e+00	3.3432	7.198213	0.000375	3.749670	1.270422	0.000150
  86	8.4575e+00	3.3737	7.387958	0.000476	4.763094	1.613780	0.000191
  87	8.5570e+00	3.4218	7.537332	0.000375	3.749670	1.270422	0.000150
  88	8.6565e+00	3.4587	7.714966	0.000446	4.459066	1.510773	0.000179
  89	8.7560e+00	3.5020	7.856266	0.000355	3.546985	1.201751	0.000142
  90	8.8555e+00	3.5373	8.050049	0.000486	4.864436	1.648116	0.000195
  91	8.9550e+00	3.5758	8.203460	0.000385	3.851012	1.304758	0.000154
  92	9.0545e+00	3.6224	8.385131	0.000456	4.560409	1.545108	0.000183
  93	9.1540e+00	3.6448	8.530468	0.000365	3.648327	1.236087	0.000146
  94	9.2535e+00	3.6962	8.659656	0.000324	3.242957	1.098744	0.000130
  95	9.3530e+00	3.7475	8.809030	0.000375	3.749670	1.270422	0.000150
  96	9.4525e+00	3.7828	9.014924	0.000517	5.168463	1.751123	0.000207
  97	9.5520e+00	3.8165	9.168335	0.000385	3.851012	1.304758	0.000154
  98	9.6515e+00	3.8550	9.313672	0.000365	3.648327	1.236087	0.000146
  99	9.7510e+00	3.8967	9.475158	0.000405	4.053697	1.373430	0.000162
 100	9.8505e+00	3.9352	9.681051	0.000517	5.168463	1.751123	0.000207
 101	9.9500e+00	3.9721	9.806203	0.000314	3.141615	1.064408	0.000126
 102	1.0050e+01	4.0234	9.971725	0.000416	4.155039	1.407765	0.000166
 103	1.0149e+01	4.0539	10.145322	0.000436	4.357724	1.476437	0.000174
 104	1.0248e+01	4.0972	10.310845	0.000416	4.155039	1.407765	0.000166
 105	1.0348e+01	4.1357	10.452144	0.000355	3.546985	1.201751	0.000142
 106	1.0447e+01	4.1726	10.621704	0.000426	4.256382	1.442101	0.000170
 107	1.0547e+01	4.2175	10.763004	0.000355	3.546985	1.201751	0.000142
 108	1.0646e+01	4.2560	10.952749	0.000476	4.763094	1.613780	0.000191
 109	1.0746e+01	4.2929	11.118272	0.000416	4.155039	1.407765	0.000166
 110	1.0845e+01	4.3362	11.291869	0.000436	4.357724	1.476437	0.000174
 111	1.0945e+01	4.3780	11.417020	0.000314	3.141615	1.064408	0.000126
 112	1.1044e+01	4.4084	11.578505	0.000405	4.053697	1.373430	0.000162
 113	1.1144e+01	4.4517	11.723842	0.000365	3.648327	1.236087	0.000146
 114	1.1243e+01	4.4967	11.881290	0.000395	3.952354	1.339094	0.000158
 115	1.1343e+01	4.5416	12.038739	0.000395	3.952354	1.339094	0.000158
 116	1.1443e+01	4.5801	12.212336	0.000436	4.357724	1.476437	0.000174
 117	1.1542e+01	4.6138	12.353635	0.000355	3.546985	1.201751	0.000142
 118	1.1642e+01	4.6571	12.547418	0.000486	4.864436	1.648116	0.000195
 119	1.1741e+01	4.6972	12.664495	0.000294	2.938930	0.995736	0.000118
 120	1.1841e+01	4.7293	12.834055	0.000426	4.256382	1.442101	0.000170
 121	1.1940e+01	4.7614	12.991503	0.000395	3.952354	1.339094	0.000158
 122	1.2040e+01	4.8127	13.157025	0.000416	4.155039	1.407765	0.000166
 123	1.2139e+01	4.8512	13.286214	0.000324	3.242957	1.098744	0.000130
 124	1.2239e+01	4.8961	13.467885	0.000456	4.560409	1.545108	0.000183
 125	1.2338e+01	4.9282	13.605147	0.000345	3.445642	1.167415	0.000138
 126	1.2438e+01	4.9811	13.766633	0.000405	4.053697	1.373430	0.000162
 127	1.2537e+01	5.0100	13.916007	0.000375	3.749670	1.270422	0.000150
 128	1.2636e+01	5.0501	14.077492	0.000405	4.053697	1.373430	0.000162
 129	1.2736e+01	5.0918	14.255126	0.000446	4.459066	1.510773	0.000179
 130	1.2835e+01	5.1335	14.372203	0.000294	2.938930	0.995736	0.000118
 131	1.2935e+01	5.1640	14.517540	0.000365	3.648327	1.236087	0.000146
 132	1.3034e+01	5.2025	14.674988	0.000395	3.952354	1.339094	0.000158
 133	1.3134e+01	5.2619	14.844548	0.000426	4.256382	1.442101	0.000170
 134	1.3233e+01	5.2940	14.957588	0.000284	2.837588	0.961401	0.000114
 135	1.3333e+01	5.3341	15.139259	0.000456	4.560409	1.545108	0.000183
 136	1.3432e+01	5.3710	15.260373	0.000304	3.040273	1.030072	0.000122
 137	1.3532e+01	5.4207	15.413784	0.000385	3.851012	1.304758	0.000154
 138	1.3632e+01	5.4448	15.599492	0.000466	4.661751	1.579444	0.000187
 139	1.3731e+01	5.4881	15.732718	0.000334	3.344300	1.133079	0.000134
 140	1.3831e+01	5.5266	15.865943	0.000334	3.344300	1.133079	0.000134
 141	1.3930e+01	5.5795	16.055689	0.000476	4.763094	1.613780	0.000191
 142	1.4030e+01	5.6004	16.192951	0.000345	3.445642	1.167415	0.000138
 143	1.4129e+01	5.6469	16.330214	0.000345	3.445642	1.167415	0.000138
 144	1.4229e+01	5.6918	16.475551	0.000365	3.648327	1.236087	0.000146
 145	1.4328e+01	5.7287	16.612814	0.000345	3.445642	1.167415	0.000138
 146	1.4428e+01	5.7752	16.786410	0.000436	4.357724	1.476437	0.000174
 147	1.4527e+01	5.8073	16.951933	0.000416	4.155039	1.407765	0.000166
 148	1.4627e+01	5.8426	17.052861	0.000253	2.533560	0.858394	0.000101
 149	1.4726e+01	5.8891	17.194161	0.000355	3.546985	1.201751	0.000142
 150	1.4825e+01	5.9308	17.331424	0.000345	3.445642	1.167415	0.000138
 151	1.4925e+01	5.9774	17.549429	0.000547	5.472491	1.854130	0.000219
 152	1.5024e+01	6.0095	17.630172	0.000203	2.026848	0.686715	0.000081
 153	1.5124e+01	6.0576	17.787620	0.000395	3.952354	1.339094	0.000158
 154	1.5223e+01	6.0897	17.932957	0.000365	3.648327	1.236087	0.000146
 155	1.5323e+01	6.1250	18.090405	0.000395	3.952354	1.339094	0.000158
 156	1.5422e+01	6.1635	18.247854	0.000395	3.952354	1.339094	0.000158
 157	1.5522e+01	6.2116	18.401265	0.000385	3.851012	1.304758	0.000154
 158	1.5621e+01	6.2469	18.566787	0.000416	4.155039	1.407765	0.000166
 159	1.5721e+01	6.2918	18.691938	0.000314	3.141615	1.064408	0.000126
 160	1.5820e+01	6.3255	18.857461	0.000416	4.155039	1.407765	0.000166
 161	1.5920e+01	6.3704	18.978575	0.000304	3.040273	1.030072	0.000122
 162	1.6020e+01	6.4201	19.127949	0.000375	3.749670	1.270422	0.000150
 163	1.6119e+01	6.4378	19.285397	0.000395	3.952354	1.339094	0.000158
 164	1.6218e+01	6.4827	19.434771	0.000375	3.749670	1.270422	0.000150
 165	1.6318e+01	6.5180	19.547811	0.000284	2.837588	0.961401	0.000114
 166	1.6418e+01	6.5645	19.729482	0.000456	4.560409	1.545108	0.000183
 167	1.6517e+01	6.6046	19.862708	0.000334	3.344300	1.133079	0.000134
 168	1.6616e+01	6.6560	19.991896	0.000324	3.242957	1.098744	0.000130
 169	1.6716e+01	6.6832	20.129159	0.000345	3.445642	1.167415	0.000138
 170	1.6816e+01	6.7265	20.254310	0.000314	3.141615	1.064408	0.000126
 171	1.6915e+01	6.7699	20.387535	0.000334	3.344300	1.133079	0.000134
 172	1.7015e+01	6.8116	20.553058	0.000416	4.155039	1.407765	0.000166
 173	1.7114e+01	6.8469	20.686284	0.000334	3.344300	1.133079	0.000134
 174	1.7213e+01	6.8822	20.823546	0.000345	3.445642	1.167415	0.000138
 175	1.7313e+01	6.9255	20.980994	0.000395	3.952354	1.339094	0.000158
 176	1.7413e+01	6.9704	21.094034	0.000284	2.837588	0.961401	0.000114
 177	1.7512e+01	7.0137	21.279742	0.000466	4.661751	1.579444	0.000187
 178	1.7611e+01	7.0442	21.400857	0.000304	3.040273	1.030072	0.000122
 179	1.7711e+01	7.0779	21.517933	0.000294	2.938930	0.995736	0.000118
 180	1.7811e+01	7.1244	21.643085	0.000314	3.141615	1.064408	0.000126
 181	1.7910e+01	7.1661	21.780347	0.000345	3.445642	1.167415	0.000138
 182	1.8009e+01	7.1854	21.929721	0.000375	3.749670	1.270422	0.000150
 183	1.8109e+01	7.2431	22.095244	0.000416	4.155039	1.407765	0.000166
 184	1.8209e+01	7.2800	22.240581	0.000365	3.648327	1.236087	0.000146
 185	1.8308e+01	7.3249	22.353621	0.000284	2.837588	0.961401	0.000114
 186	1.8407e+01	7.3618	22.446475	0.000233	2.330876	0.789722	0.000093
 187	1.8507e+01	7.4019	22.611997	0.000416	4.155039	1.407765	0.000166
 188	1.8607e+01	7.4420	22.785594	0.000436	4.357724	1.476437	0.000174
 189	1.8706e+01	7.4773	22.926894	0.000355	3.546985	1.201751	0.000142
 190	1.8805e+01	7.5287	23.019748	0.000233	2.330876	0.789722	0.000093
 191	1.8905e+01	7.5736	23.112602	0.000233	2.330876	0.789722	0.000093
 192	1.9005e+01	7.6025	23.270050	0.000395	3.952354	1.339094	0.000158
 193	1.9104e+01	7.6442	23.427499	0.000395	3.952354	1.339094	0.000158
 194	1.9203e+01	7.6843	23.564761	0.000345	3.445642	1.167415	0.000138
 195	1.9303e+01	7.7164	23.693950	0.000324	3.242957	1.098744	0.000130
 196	1.9402e+01	7.7613	23.831212	0.000345	3.445642	1.167415	0.000138
 197	1.9502e+01	7.8046	23.960401	0.000324	3.242957	1.098744	0.000130
 198	1.9602e+01	7.8399	24.093626	0.000334	3.344300	1.133079	0.000134
 199	1.9701e+01	7.8864	24.218777	0.000314	3.141615	1.064408	0.000126
 200	1.9800e+01	7.9105	24.339891	0.000304	3.040273	1.030072	0.000122
 201	1.9900e+01	7.9602	24.505414	0.000416	4.155039	1.407765	0.000166
 202	2.0000e+01	8.0083	24.586157	0.000203	2.026848	0.686715	0.000081
 203	2.0099e+01	8.0452	24.723419	0.000345	3.445642	1.167415	0.000138
 204	2.0198e+01	8.0837	24.872793	0.000375	3.749670	1.270422	0.000150
 205	2.0298e+01	8.1158	24.953536	0.000203	2.026848	0.686715	0.000081
 206	2.0398e+01	8.1543	25.167504	0.000537	5.371148	1.819794	0.000215
 207	2.0497e+01	8.2024	25.248247	0.000203	2.026848	0.686715	0.000081
 208	2.0596e+01	8.2442	25.381472	0.000334	3.344300	1.133079	0.000134
 209	2.0696e+01	8.2698	25.546995	0.000416	4.155039	1.407765	0.000166
 210	2.0796e+01	8.3212	25.672146	0.000314	3.141615	1.064408	0.000126
 211	2.0895e+01	8.3581	25.756926	0.000213	2.128191	0.721051	0.000085
 212	2.0994e+01	8.4062	25.898226	0.000355	3.546985	1.201751	0.000142
 213	2.1094e+01	8.4383	26.059711	0.000405	4.053697	1.373430	0.000162
 214	2.1194e+01	8.4768	26.148528	0.000223	2.229533	0.755386	0.000089
 215	2.1293e+01	8.5137	26.297902	0.000375	3.749670	1.270422	0.000150
 216	2.1392e+01	8.5650	26.435165	0.000345	3.445642	1.167415	0.000138
 217	2.1492e+01	8.5955	26.523982	0.000223	2.229533	0.755386	0.000089
 218	2.1591e+01	8.6324	26.657207	0.000334	3.344300	1.133079	0.000134
 219	2.1691e+01	8.6709	26.818693	0.000405	4.053697	1.373430	0.000162
 220	2.1791e+01	8.7206	26.939807	0.000304	3.040273	1.030072	0.000122
 221	2.1890e+01	8.7511	27.056884	0.000294	2.938930	0.995736	0.000118
 222	2.1989e+01	8.7880	27.169924	0.000284	2.837588	0.961401	0.000114
 223	2.2089e+01	8.8329	27.287000	0.000294	2.938930	0.995736	0.000118
 224	2.2189e+01	8.8826	27.456560	0.000426	4.256382	1.442101	0.000170
 225	2.2288e+01	8.9099	27.569600	0.000284	2.837588	0.961401	0.000114
 226	2.2387e+01	8.9661	27.650343	0.000203	2.026848	0.686715	0.000081
 227	2.2487e+01	8.9997	27.823940	0.000436	4.357724	1.476437	0.000174
 228	2.2587e+01	9.0382	27.953128	0.000324	3.242957	1.098744	0.000130
 229	2.2686e+01	9.0800	28.062131	0.000274	2.736245	0.927065	0.000110
 230	2.2785e+01	9.1185	28.159022	0.000243	2.432218	0.824058	0.000097
 231	2.2885e+01	9.1570	28.316470	0.000395	3.952354	1.339094	0.000158
 232	2.2985e+01	9.2003	28.461807	0.000365	3.648327	1.236087	0.000146
 233	2.3084e+01	9.2420	28.546587	0.000213	2.128191	0.721051	0.000085
 234	2.3183e+01	9.2725	28.671738	0.000314	3.141615	1.064408	0.000126
 235	2.3283e+01	9.3222	28.784778	0.000284	2.837588	0.961401	0.000114
 236	2.3383e+01	9.3623	28.885706	0.000253	2.533560	0.858394	0.000101
 237	2.3482e+01	9.3976	29.022969	0.000345	3.445642	1.167415	0.000138
 238	2.3581e+01	9.4425	29.172343	0.000375	3.749670	1.270422	0.000150
 239	2.3681e+01	9.4714	29.265197	0.000233	2.330876	0.789722	0.000093
 240	2.3780e+01	9.5067	29.406497	0.000355	3.546985	1.201751	0.000142
 241	2.3880e+01	9.5564	29.507425	0.000253	2.533560	0.858394	0.000101
 242	2.3980e+01	9.6013	29.624502	0.000294	2.938930	0.995736	0.000118
 243	2.4079e+01	9.6350	29.753690	0.000324	3.242957	1.098744	0.000130
 244	2.4178e+01	9.6767	29.890953	0.000345	3.445642	1.167415	0.000138
 245	2.4278e+01	9.7088	30.032253	0.000355	3.546985	1.201751	0.000142
 246	2.4378e+01	9.7602	30.133181	0.000253	2.533560	0.858394	0.000101
 247	2.4477e+01	9.7890	30.266407	0.000334	3.344300	1.133079	0.000134
 248	2.4576e+01	9.8339	30.314852	0.000122	1.216109	0.412029	0.000049
 249	2.4676e+01	9.8773	30.476338	0.000405	4.053697	1.373430	0.000162
 250	2.4776e+01	9.9110	30.637823	0.000405	4.053697	1.373430	0.000162
 251	2.4875e+01	9.9559	30.706454	0.000172	1.722821	0.583708	0.000069
 252	2.4974e+01	9.9928	30.884088	0.000446	4.459066	1.510773	0.000179
 253	2.5074e+01	10.0313	30.944645	0.000152	1.520136	0.515036	0.000061
 254	2.5174e+01	10.0698	31.077871	0.000334	3.344300	1.133079	0.000134
 255	2.5273e+01	10.1211	31.198985	0.000304	3.040273	1.030072	0.000122
 256	2.5372e+01	10.1580	31.336248	0.000345	3.445642	1.167415	0.000138
 257	2.5472e+01	10.1901	31.453325	0.000294	2.938930	0.995736	0.000118
 258	2.5572e+01	10.2350	31.574439	0.000304	3.040273	1.030072	0.000122
 259	2.5671e+01	10.2703	31.695553	0.000304	3.040273	1.030072	0.000122
 260	2.5770e+01	10.3168	31.824741	0.000324	3.242957	1.098744	0.000130
 261	2.5870e+01	10.3521	31.917595	0.000233	2.330876	0.789722	0.000093
 262	2.5970e+01	10.3954	32.091192	0.000436	4.357724	1.476437	0.000174
 263	2.6069e+01	10.4291	32.175972	0.000213	2.128191	0.721051	0.000085
 264	2.6169e+01	10.4756	32.317272	0.000355	3.546985	1.201751	0.000142
 265	2.6268e+01	10.5174	32.414163	0.000243	2.432218	0.824058	0.000097
 266	2.6367e+01	10.5575	32.519128	0.000263	2.634903	0.892729	0.000105
 267	2.6467e+01	10.6008	32.668502	0.000375	3.749670	1.270422	0.000150
 268	2.6567e+01	10.6345	32.838062	0.000426	4.256382	1.442101	0.000170
 269	2.6666e+01	10.6810	32.918805	0.000203	2.026848	0.686715	0.000081
 270	2.6765e+01	10.7179	33.039919	0.000304	3.040273	1.030072	0.000122
 271	2.6865e+01	10.7468	33.148922	0.000274	2.736245	0.927065	0.000110
 272	2.6965e+01	10.7917	33.265998	0.000294	2.938930	0.995736	0.000118
 273	2.7064e+01	10.8270	33.399224	0.000334	3.344300	1.133079	0.000134
 274	2.7163e+01	10.8735	33.504189	0.000263	2.634903	0.892729	0.000105
 275	2.7263e+01	10.9104	33.617229	0.000284	2.837588	0.961401	0.000114
 276	2.7363e+01	10.9505	33.754492	0.000345	3.445642	1.167415	0.000138
 277	2.7462e+01	10.9858	33.883680	0.000324	3.242957	1.098744	0.000130
 278	2.7561e+01	11.0179	34.000757	0.000294	2.938930	0.995736	0.000118
 279	2.7661e+01	11.0708	34.109760	0.000274	2.736245	0.927065	0.000110
 280	2.7761e+01	11.1125	34.247022	0.000345	3.445642	1.167415	0.000138
 281	2.7860e+01	11.1494	34.364099	0.000294	2.938930	0.995736	0.000118
 282	2.7959e+01	11.1879	34.452916	0.000223	2.229533	0.755386	0.000089
 283	2.8059e+01	11.2184	34.569993	0.000294	2.938930	0.995736	0.000118
 284	2.8159e+01	11.2617	34.723404	0.000385	3.851012	1.304758	0.000154
 285	2.8258e+01	11.3130	34.832407	0.000274	2.736245	0.927065	0.000110
 286	2.8358e+01	11.3403	34.945447	0.000284	2.837588	0.961401	0.000114
 287	2.8457e+01	11.3949	35.094821	0.000375	3.749670	1.270422	0.000150
 288	2.8556e+01	11.4318	35.211898	0.000294	2.938930	0.995736	0.000118
 289	2.8656e+01	11.4638	35.337049	0.000314	3.141615	1.064408	0.000126
 290	2.8756e+01	11.5120	35.442015	0.000263	2.634903	0.892729	0.000105
 291	2.8855e+01	11.5425	35.571203	0.000324	3.242957	1.098744	0.000130
 292	2.8954e+01	11.5954	35.647909	0.000193	1.925506	0.652379	0.000077
 293	2.9054e+01	11.6355	35.813431	0.000416	4.155039	1.407765	0.000166
 294	2.9154e+01	11.6740	35.906285	0.000233	2.330876	0.789722	0.000093
 295	2.9253e+01	11.7045	36.011251	0.000263	2.634903	0.892729	0.000105
 296	2.9352e+01	11.7510	36.140439	0.000324	3.242957	1.098744	0.000130
 297	2.9452e+01	11.7815	36.253479	0.000284	2.837588	0.961401	0.000114
 298	2.9552e+01	11.8232	36.394779	0.000355	3.546985	1.201751	0.000142
 299	2.9651e+01	11.8665	36.511856	0.000294	2.938930	0.995736	0.000118
 300	2.9750e+01	11.9162	36.628933	0.000294	2.938930	0.995736	0.000118
 301	2.9850e+01	11.9419	36.733898	0.000263	2.634903	0.892729	0.000105
 302	2.9950e+01	11.9852	36.867124	0.000334	3.344300	1.133079	0.000134
 303	3.0049e+01	12.0350	36.968052	0.000253	2.533560	0.858394	0.000101
 304	3.0148e+01	12.0622	37.101277	0.000334	3.344300	1.133079	0.000134
 305	3.0248e+01	12.1055	37.194132	0.000233	2.330876	0.789722	0.000093
 306	3.0348e+01	12.1440	37.299097	0.000263	2.634903	0.892729	0.000105
 307	3.0447e+01	12.1793	37.444434	0.000365	3.648327	1.236087	0.000146
 308	3.0547e+01	12.2275	37.537288	0.000233	2.330876	0.789722	0.000093
 309	3.0646e+01	12.2644	37.690699	0.000385	3.851012	1.304758	0.000154
 310	3.0745e+01	12.3045	37.787591	0.000243	2.432218	0.824058	0.000097
 311	3.0845e+01	12.3446	37.908705	0.000304	3.040273	1.030072	0.000122
 312	3.0945e+01	12.3863	38.041930	0.000334	3.344300	1.133079	0.000134
 313	3.1044e+01	12.4280	38.183230	0.000355	3.546985	1.201751	0.000142
 314	3.1143e+01	12.4601	38.259935	0.000193	1.925506	0.652379	0.000077
 315	3.1243e+01	12.5034	38.401235	0.000355	3.546985	1.201751	0.000142
 316	3.1343e+01	12.5435	38.514275	0.000284	2.837588	0.961401	0.000114
 317	3.1442e+01	12.5900	38.643463	0.000324	3.242957	1.098744	0.000130
 318	3.1541e+01	12.6317	38.740355	0.000243	2.432218	0.824058	0.000097
 319	3.1641e+01	12.6590	38.881654	0.000355	3.546985	1.201751	0.000142
 320	3.1741e+01	12.7023	38.990657	0.000274	2.736245	0.927065	0.000110
 321	3.1840e+01	12.7504	39.079474	0.000223	2.229533	0.755386	0.000089
 322	3.1939e+01	12.7857	39.196551	0.000294	2.938930	0.995736	0.000118
 323	3.2039e+01	12.8210	39.362073	0.000416	4.155039	1.407765	0.000166
 324	3.2139e+01	12.8547	39.475113	0.000284	2.837588	0.961401	0.000114
 325	3.2238e+01	12.9173	39.576042	0.000253	2.533560	0.858394	0.000101
 326	3.2337e+01	12.9397	39.656784	0.000203	2.026848	0.686715	0.000081
 327	3.2437e+01	12.9879	39.769824	0.000284	2.837588	0.961401	0.000114
 328	3.2536e+01	13.0264	39.874790	0.000263	2.634903	0.892729	0.000105
 329	3.2636e+01	13.0649	40.040312	0.000416	4.155039	1.407765	0.000166
 330	3.2736e+01	13.1034	40.153352	0.000284	2.837588	0.961401	0.000114
 331	3.2835e+01	13.1339	40.238132	0.000213	2.128191	0.721051	0.000085
 332	3.2934e+01	13.1804	40.395580	0.000395	3.952354	1.339094	0.000158
 333	3.3034e+01	13.2189	40.496509	0.000253	2.533560	0.858394	0.000101
 334	3.3133e+01	13.2542	40.577251	0.000203	2.026848	0.686715	0.000081
 335	3.3233e+01	13.2991	40.698365	0.000304	3.040273	1.030072	0.000122
 336	3.3333e+01	13.3376	40.859851	0.000405	4.053697	1.373430	0.000162
 337	3.3432e+01	13.3793	40.932519	0.000182	1.824164	0.618043	0.000073
 338	3.3532e+01	13.4210	41.094005	0.000405	4.053697	1.373430	0.000162
 339	3.3631e+01	13.4563	41.150525	0.000142	1.418794	0.480700	0.000057
 340	3.3730e+01	13.4980	41.320084	0.000426	4.256382	1.442101	0.000170
 341	3.3830e+01	13.5445	41.404864	0.000213	2.128191	0.721051	0.000085
 342	3.3929e+01	13.5814	41.501755	0.000243	2.432218	0.824058	0.000097
 343	3.4029e+01	13.6215	41.643055	0.000355	3.546985	1.201751	0.000142
 344	3.4129e+01	13.6584	41.768206	0.000314	3.141615	1.064408	0.000126
 345	3.4228e+01	13.6969	41.889320	0.000304	3.040273	1.030072	0.000122
 346	3.4328e+01	13.7338	41.986212	0.000243	2.432218	0.824058	0.000097
 347	3.4427e+01	13.7804	42.083103	0.000243	2.432218	0.824058	0.000097
 348	3.4526e+01	13.8189	42.212291	0.000324	3.242957	1.098744	0.000130
 349	3.4626e+01	13.8509	42.329368	0.000294	2.938930	0.995736	0.000118
 350	3.4725e+01	13.8975	42.466631	0.000345	3.445642	1.167415	0.000138
 351	3.4825e+01	13.9376	42.563522	0.000243	2.432218	0.824058	0.000097
 352	3.4925e+01	13.9681	42.668488	0.000263	2.634903	0.892729	0.000105
 353	3.5024e+01	14.0146	42.773453	0.000263	2.634903	0.892729	0.000105
 354	3.5123e+01	14.0515	42.902641	0.000324	3.242957	1.098744	0.000130
 355	3.5223e+01	14.0964	43.007607	0.000263	2.634903	0.892729	0.000105
 356	3.5322e+01	14.1285	43.092387	0.000213	2.128191	0.721051	0.000085
 357	3.5422e+01	14.1766	43.225612	0.000334	3.344300	1.133079	0.000134
 358	3.5522e+01	14.2199	43.326541	0.000253	2.533560	0.858394	0.000101
 359	3.5621e+01	14.2504	43.455729	0.000324	3.242957	1.098744	0.000130
 360	3.5721e+01	14.2873	43.572806	0.000294	2.938930	0.995736	0.000118
 361	3.5820e+01	14.3515	43.661623	0.000223	2.229533	0.755386	0.000089
 362	3.5919e+01	14.3707	43.742366	0.000203	2.026848	0.686715	0.000081
 363	3.6019e+01	14.4124	43.891740	0.000375	3.749670	1.270422	0.000150
 364	3.6118e+01	14.4622	43.972482	0.000203	2.026848	0.686715	0.000081
 365	3.6218e+01	14.4926	44.109745	0.000345	3.445642	1.167415	0.000138
 366	3.6318e+01	14.5360	44.206636	0.000243	2.432218	0.824058	0.000097
 367	3.6417e+01	14.5761	44.303528	0.000243	2.432218	0.824058	0.000097
 368	3.6517e+01	14.6097	44.424642	0.000304	3.040273	1.030072	0.000122
 369	3.6616e+01	14.6547	44.549793	0.000314	3.141615	1.064408	0.000126
 370	3.6715e+01	14.6916	44.642647	0.000233	2.330876	0.789722	0.000093
 371	3.6815e+01	14.7333	44.727427	0.000213	2.128191	0.721051	0.000085
 372	3.6914e+01	14.7766	44.868727	0.000355	3.546985	1.201751	0.000142
 373	3.7014e+01	14.8071	44.969655	0.000253	2.533560	0.858394	0.000101
 374	3.7114e+01	14.8568	45.086732	0.000294	2.938930	0.995736	0.000118
 375	3.7213e+01	14.8841	45.187660	0.000253	2.533560	0.858394	0.000101
 376	3.7313e+01	14.9402	45.292626	0.000263	2.634903	0.892729	0.000105
 377	3.7412e+01	14.9707	45.377406	0.000213	2.128191	0.721051	0.000085
 378	3.7511e+01	15.0092	45.506594	0.000324	3.242957	1.098744	0.000130
 379	3.7611e+01	15.0509	45.607522	0.000253	2.533560	0.858394	0.000101
 380	3.7711e+01	15.0974	45.744785	0.000345	3.445642	1.167415	0.000138
 381	3.7810e+01	15.1391	45.837639	0.000233	2.330876	0.789722	0.000093
 382	3.7910e+01	15.1728	45.890122	0.000132	1.317451	0.446365	0.000053
 383	3.8009e+01	15.2129	46.055644	0.000416	4.155039	1.407765	0.000166
 384	3.8108e+01	15.2498	46.128313	0.000182	1.824164	0.618043	0.000073
 385	3.8208e+01	15.2883	46.293836	0.000416	4.155039	1.407765	0.000166
 386	3.8307e+01	15.3317	46.398801	0.000263	2.634903	0.892729	0.000105
 387	3.8407e+01	15.3669	46.471469	0.000182	1.824164	0.618043	0.000073
 388	3.8507e+01	15.4087	46.620844	0.000375	3.749670	1.270422	0.000150
 389	3.8606e+01	15.4536	46.705623	0.000213	2.128191	0.721051	0.000085
 390	3.8706e+01	15.4889	46.806552	0.000253	2.533560	0.858394	0.000101
 391	3.8805e+01	15.5306	46.919592	0.000284	2.837588	0.961401	0.000114
 392	3.8904e+01	15.5707	47.004371	0.000213	2.128191	0.721051	0.000085
 393	3.9004e+01	15.6044	47.149708	0.000365	3.648327	1.236087	0.000146
 394	3.9103e+01	15.6541	47.258711	0.000274	2.736245	0.927065	0.000110
 395	3.9203e+01	15.6910	47.323305	0.000162	1.621479	0.549372	0.000065
 396	3.9303e+01	15.7343	47.484791	0.000405	4.053697	1.373430	0.000162
 397	3.9402e+01	15.7744	47.545348	0.000152	1.520136	0.515036	0.000061
 398	3.9502e+01	15.8049	47.646276	0.000253	2.533560	0.858394	0.000101
 399	3.9601e+01	15.8530	47.791613	0.000365	3.648327	1.236087	0.000146
 400	3.9700e+01	15.8867	47.876393	0.000213	2.128191	0.721051	0.000085
 401	3.9800e+01	15.9316	48.001544	0.000314	3.141615	1.064408	0.000126
 402	3.9900e+01	15.9589	48.110547	0.000274	2.736245	0.927065	0.000110
 403	3.9999e+01	16.0135	48.227624	0.000294	2.938930	0.995736	0.000118
 404	4.0099e+01	16.0471	48.328552	0.000253	2.533560	0.858394	0.000101
 405	4.0198e+01	16.0889	48.429480	0.000253	2.533560	0.858394	0.000101
 406	4.0297e+01	16.1193	48.566743	0.000345	3.445642	1.167415	0.000138
 407	4.0397e+01	16.1659	48.635374	0.000172	1.722821	0.583708	0.000069
 408	4.0496e+01	16.2011	48.736303	0.000253	2.533560	0.858394	0.000101
 409	4.0596e+01	16.2445	48.865491	0.000324	3.242957	1.098744	0.000130
 410	4.0696e+01	16.2878	48.958345	0.000233	2.330876	0.789722	0.000093
 411	4.0795e+01	16.3311	49.071385	0.000284	2.837588	0.961401	0.000114
 412	4.0895e+01	16.3648	49.172313	0.000253	2.533560	0.858394	0.000101
 413	4.0994e+01	16.4161	49.249019	0.000193	1.925506	0.652379	0.000077
 414	4.1093e+01	16.4514	49.402430	0.000385	3.851012	1.304758	0.000154
 415	4.1193e+01	16.4819	49.479136	0.000193	1.925506	0.652379	0.000077
 416	4.1292e+01	16.5300	49.571990	0.000233	2.330876	0.789722	0.000093
 417	4.1392e+01	16.5621	49.717327	0.000365	3.648327	1.236087	0.000146
 418	4.1492e+01	16.6038	49.826329	0.000274	2.736245	0.927065	0.000110
 419	4.1591e+01	16.6519	49.915146	0.000223	2.229533	0.755386	0.000089
 420	4.1691e+01	16.6936	50.016075	0.000253	2.533560	0.858394	0.000101
 421	4.1790e+01	16.7289	50.137189	0.000304	3.040273	1.030072	0.000122
 422	4.1889e+01	16.7674	50.274451	0.000345	3.445642	1.167415	0.000138
 423	4.1989e+01	16.8043	50.367305	0.000233	2.330876	0.789722	0.000093
 424	4.2089e+01	16.8428	50.472271	0.000263	2.634903	0.892729	0.000105
 425	4.2188e+01	16.8813	50.553014	0.000203	2.026848	0.686715	0.000081
 426	4.2288e+01	16.9247	50.674128	0.000304	3.040273	1.030072	0.000122
 427	4.2387e+01	16.9583	50.811390	0.000345	3.445642	1.167415	0.000138
 428	4.2486e+01	17.0097	50.908282	0.000243	2.432218	0.824058	0.000097
 429	4.2586e+01	17.0434	51.005173	0.000243	2.432218	0.824058	0.000097
 430	4.2685e+01	17.0771	51.154547	0.000375	3.749670	1.270422	0.000150
 431	4.2785e+01	17.1188	51.231253	0.000193	1.925506	0.652379	0.000077
 432	4.2885e+01	17.1749	51.340255	0.000274	2.736245	0.927065	0.000110
 433	4.2984e+01	17.1974	51.469444	0.000324	3.242957	1.098744	0.000130
 434	4.3084e+01	17.2439	51.582483	0.000284	2.837588	0.961401	0.000114
 435	4.3183e+01	17.2872	51.711672	0.000324	3.242957	1.098744	0.000130
 436	4.3282e+01	17.3161	51.784340	0.000182	1.824164	0.618043	0.000073
 437	4.3382e+01	17.3674	51.897380	0.000284	2.837588	0.961401	0.000114
 438	4.3481e+01	17.3979	52.006383	0.000274	2.736245	0.927065	0.000110
 439	4.3581e+01	17.4444	52.151719	0.000365	3.648327	1.236087	0.000146
 440	4.3681e+01	17.4813	52.297056	0.000365	3.648327	1.236087	0.000146
 441	4.3780e+01	17.5278	52.389910	0.000233	2.330876	0.789722	0.000093
 442	4.3880e+01	17.5631	52.478727	0.000223	2.229533	0.755386	0.000089
 443	4.3979e+01	17.6000	52.599842	0.000304	3.040273	1.030072	0.000122
 444	4.4078e+01	17.6385	52.724993	0.000314	3.141615	1.064408	0.000126
 445	4.4178e+01	17.6851	52.850144	0.000314	3.141615	1.064408	0.000126
 446	4.4278e+01	17.7188	52.959147	0.000274	2.736245	0.927065	0.000110
 447	4.4377e+01	17.7540	53.056038	0.000243	2.432218	0.824058	0.000097
 448	4.4477e+01	17.7990	53.201375	0.000365	3.648327	1.236087	0.000146
 449	4.4576e+01	17.8439	53.290192	0.000223	2.229533	0.755386	0.000089
 450	4.4675e+01	17.8808	53.427454	0.000345	3.445642	1.167415	0.000138
 451	4.4775e+01	17.9241	53.548568	0.000304	3.040273	1.030072	0.000122
 452	4.4874e+01	17.9642	53.681794	0.000334	3.344300	1.133079	0.000134
 453	4.4974e+01	17.9995	53.766574	0.000213	2.128191	0.721051	0.000085
 454	4.5074e+01	18.0476	53.883651	0.000294	2.938930	0.995736	0.000118
 455	4.5173e+01	18.0797	54.037062	0.000385	3.851012	1.304758	0.000154
 456	4.5273e+01	18.1134	54.142027	0.000263	2.634903	0.892729	0.000105
 457	4.5372e+01	18.1551	54.242956	0.000253	2.533560	0.858394	0.000101
 458	4.5471e+01	18.1984	54.388293	0.000365	3.648327	1.236087	0.000146
 459	4.5571e+01	18.2369	54.460961	0.000182	1.824164	0.618043	0.000073
 460	4.5670e+01	18.2738	54.598224	0.000345	3.445642	1.167415	0.000138
 461	4.5770e+01	18.3155	54.711264	0.000284	2.837588	0.961401	0.000114
 462	4.5870e+01	18.3620	54.828340	0.000294	2.938930	0.995736	0.000118
 463	4.5969e+01	18.4038	54.961566	0.000334	3.344300	1.133079	0.000134
 464	4.6069e+01	18.4407	55.074606	0.000284	2.837588	0.961401	0.000114
 465	4.6168e+01	18.4759	55.167460	0.000233	2.330876	0.789722	0.000093
 466	4.6267e+01	18.5177	55.292611	0.000314	3.141615	1.064408	0.000126
 467	4.6367e+01	18.5642	55.425837	0.000334	3.344300	1.133079	0.000134
 468	4.6467e+01	18.5963	55.546951	0.000304	3.040273	1.030072	0.000122
 469	4.6566e+01	18.6380	55.692288	0.000365	3.648327	1.236087	0.000146
 470	4.6666e+01	18.6877	55.773030	0.000203	2.026848	0.686715	0.000081
 471	4.6765e+01	18.7278	55.926441	0.000385	3.851012	1.304758	0.000154
 472	4.6864e+01	18.7583	56.035444	0.000274	2.736245	0.927065	0.000110
 473	4.6964e+01	18.8080	56.172707	0.000345	3.445642	1.167415	0.000138
 474	4.7063e+01	18.8353	56.285746	0.000284	2.837588	0.961401	0.000114
 475	4.7163e+01	18.8802	56.423009	0.000345	3.445642	1.167415	0.000138
 476	4.7263e+01	18.9235	56.519900	0.000243	2.432218	0.824058	0.000097
 477	4.7362e+01	18.9588	56.657163	0.000345	3.445642	1.167415	0.000138
 478	4.7462e+01	19.0037	56.766166	0.000274	2.736245	0.927065	0.000110
 479	4.7561e+01	19.0310	56.931688	0.000416	4.155039	1.407765	0.000166
 480	4.7660e+01	19.0823	57.032617	0.000253	2.533560	0.858394	0.000101
 481	4.7760e+01	19.1192	57.190065	0.000395	3.952354	1.339094	0.000158
 482	4.7859e+01	19.1529	57.299068	0.000274	2.736245	0.927065	0.000110
 483	4.7959e+01	19.1946	57.444404	0.000365	3.648327	1.236087	0.000146
 484	4.8059e+01	19.2492	57.569556	0.000314	3.141615	1.064408	0.000126
 485	4.8158e+01	19.2765	57.702781	0.000334	3.344300	1.133079	0.000134
 486	4.8258e+01	19.3166	57.815821	0.000284	2.837588	0.961401	0.000114
 487	4.8357e+01	19.3535	57.961158	0.000365	3.648327	1.236087	0.000146
 488	4.8456e+01	19.4064	58.102458	0.000355	3.546985	1.201751	0.000142
 489	4.8556e+01	19.4369	58.203386	0.000253	2.533560	0.858394	0.000101
 490	4.8656e+01	19.4674	58.348723	0.000365	3.648327	1.236087	0.000146
 491	4.8755e+01	19.5107	58.490023	0.000355	3.546985	1.201751	0.000142
 492	4.8855e+01	19.5620	58.599025	0.000274	2.736245	0.927065	0.000110
 493	4.8954e+01	19.6005	58.740325	0.000355	3.546985	1.201751	0.000142
 494	4.9053e+01	19.6326	58.881625	0.000355	3.546985	1.201751	0.000142
 495	4.9153e+01	19.6743	58.986590	0.000263	2.634903	0.892729	0.000105
 496	4.9252e+01	19.7096	59.152113	0.000416	4.155039	1.407765	0.000166
 497	4.9352e+01	19.7497	59.297450	0.000365	3.648327	1.236087	0.000146
 498	4.9452e+01	19.7946	59.434712	0.000345	3.445642	1.167415	0.000138
 499	4.9551e+01	19.8283	59.535641	0.000253	2.533560	0.858394	0.000101
 500	4.9651e+01	19.8764	59.725386	0.000476	4.763094	1.613780	0.000191
 501	4.9750e+01	19.9101	59.842463	0.000294	2.938930	0.995736	0.000118
 502	4.9849e+01	19.9438	59.995874	0.000385	3.851012	1.304758	0.000154
 503	4.9949e+01	19.9984	60.108914	0.000284	2.837588	0.961401	0.000114
 504	5.0048e+01	19.9551	60.100840	0.000020	0.202685	0.068671	-0.000008
 505	5.0148e+01	19.9133	60.068543	0.000081	0.810739	0.274686	-0.000032
 506	5.0248e+01	19.8748	60.024134	0.000111	1.114767	0.377693	-0.000045
 507	5.0347e+01	19.8347	59.991837	0.000081	0.810739	0.274686	-0.000032
 508	5.0447e+01	19.7898	59.979726	0.000030	0.304027	0.103007	-0.000012
 509	5.0546e+01	19.7529	59.939354	0.000101	1.013424	0.343357	-0.000041
 510	5.0645e+01	19.7128	59.874760	0.000162	1.621479	0.549372	-0.000065
 511	5.0745e+01	19.6663	59.846500	0.000071	0.709397	0.240350	-0.000028
 512	5.0844e+01	19.6310	59.830352	0.000041	0.405370	0.137343	-0.000016
 513	5.0944e+01	19.5909	59.761720	0.000172	1.722821	0.583708	-0.000069
 514	5.1044e+01	19.5540	59.725386	0.000091	0.912082	0.309022	-0.000037
 515	5.1143e+01	19.5203	59.693089	0.000081	0.810739	0.274686	-0.000032
 516	5.1242e+01	19.4658	59.636569	0.000142	1.418794	0.480700	-0.000057
 517	5.1342e+01	19.4321	59.576012	0.000152	1.520136	0.515036	-0.000061
 518	5.1441e+01	19.3872	59.580049	-0.000010	-0.101342	-0.034336	0.000004
 519	5.1541e+01	19.3551	59.503344	0.000193	1.925506	0.652379	-0.000077
 520	5.1641e+01	19.3230	59.454898	0.000122	1.216109	0.412029	-0.000049
 521	5.1740e+01	19.2733	59.430675	0.000061	0.608055	0.206014	-0.000024
 522	5.1840e+01	19.2364	59.345895	0.000213	2.128191	0.721051	-0.000085
 523	5.1939e+01	19.1995	59.309561	0.000091	0.912082	0.309022	-0.000037
 524	5.2038e+01	19.1594	59.265153	0.000111	1.114767	0.377693	-0.000045
 525	5.2138e+01	19.1160	59.224781	0.000101	1.013424	0.343357	-0.000041
 526	5.2237e+01	19.0775	59.180373	0.000111	1.114767	0.377693	-0.000045
 527	5.2337e+01	19.0342	59.115779	0.000162	1.621479	0.549372	-0.000065
 528	5.2437e+01	18.9957	59.075407	0.000101	1.013424	0.343357	-0.000041
 529	5.2536e+01	18.9540	59.010813	0.000162	1.621479	0.549372	-0.000065
 530	5.2636e+01	18.9219	58.950256	0.000152	1.520136	0.515036	-0.000061
 531	5.2735e+01	18.8850	58.913922	0.000091	0.912082	0.309022	-0.000037
 532	5.2834e+01	18.8417	58.845291	0.000172	1.722821	0.583708	-0.000069
 533	5.2934e+01	18.8016	58.808956	0.000091	0.912082	0.309022	-0.000037
 534	5.3033e+01	18.7615	58.712065	0.000243	2.432218	0.824058	-0.000097
 535	5.3133e+01	18.7182	58.679768	0.000081	0.810739	0.274686	-0.000032
 536	5.3233e+01	18.6797	58.599025	0.000203	2.026848	0.686715	-0.000081
 537	5.3332e+01	18.6428	58.578840	0.000051	0.506712	0.171679	-0.000020
 538	5.3431e+01	18.5915	58.477911	0.000253	2.533560	0.858394	-0.000101
 539	5.3531e+01	18.5658	58.457725	0.000051	0.506712	0.171679	-0.000020
 540	5.3630e+01	18.5193	58.376983	0.000203	2.026848	0.686715	-0.000081
 541	5.3730e+01	18.4792	58.304314	0.000182	1.824164	0.618043	-0.000073
 542	5.3830e+01	18.4423	58.227609	0.000193	1.925506	0.652379	-0.000077
 543	5.3929e+01	18.4038	58.219534	0.000020	0.202685	0.068671	-0.000008
 544	5.4029e+01	18.3685	58.171089	0.000122	1.216109	0.412029	-0.000049
 545	5.4128e+01	18.3235	58.114569	0.000142	1.418794	0.480700	-0.000057
 546	5.4227e+01	18.2834	58.013641	0.000253	2.533560	0.858394	-0.000101
 547	5.4327e+01	18.2369	57.940972	0.000182	1.824164	0.618043	-0.000073
 548	5.4426e+01	18.1984	57.880415	0.000152	1.520136	0.515036	-0.000061
 549	5.4526e+01	18.1551	57.864267	0.000041	0.405370	0.137343	-0.000016
 550	5.4626e+01	18.1262	57.759301	0.000263	2.634903	0.892729	-0.000105
 551	5.4725e+01	18.0813	57.698744	0.000152	1.520136	0.515036	-0.000061
 552	5.4825e+01	18.0380	57.658373	0.000101	1.013424	0.343357	-0.000041
 553	5.4924e+01	18.0059	57.589741	0.000172	1.722821	0.583708	-0.000069
 554	5.5023e+01	17.9562	57.484776	0.000263	2.634903	0.892729	-0.000105
 555	5.5123e+01	17.9289	57.399996	0.000213	2.128191	0.721051	-0.000085
 556	5.5222e+01	17.8792	57.363662	0.000091	0.912082	0.309022	-0.000037
 557	5.5322e+01	17.8391	57.323290	0.000101	1.013424	0.343357	-0.000041
 558	5.5422e+01	17.8006	57.254659	0.000172	1.722821	0.583708	-0.000069
 559	5.5521e+01	17.7540	57.190065	0.000162	1.621479	0.549372	-0.000065
 560	5.5620e+01	17.7284	57.097211	0.000233	2.330876	0.789722	-0.000093
 561	5.5720e+01	17.6802	57.068951	0.000071	0.709397	0.240350	-0.000028
 562	5.5819e+01	17.6353	56.947837	0.000304	3.040273	1.030072	-0.000122
 563	5.5919e+01	17.6049	56.859020	0.000223	2.229533	0.755386	-0.000089
 564	5.6019e+01	17.5567	56.834797	0.000061	0.608055	0.206014	-0.000024
 565	5.6118e+01	17.5230	56.741943	0.000233	2.330876	0.789722	-0.000093
 566	5.6218e+01	17.4829	56.661200	0.000203	2.026848	0.686715	-0.000081
 567	5.6317e+01	17.4508	56.596606	0.000162	1.621479	0.549372	-0.000065
 568	5.6416e+01	17.4027	56.519900	0.000193	1.925506	0.652379	-0.000077
 569	5.6516e+01	17.3562	56.431083	0.000223	2.229533	0.755386	-0.000089
 570	5.6615e+01	17.3097	56.378601	0.000132	1.317451	0.446365	-0.000053
 571	5.6715e+01	17.2888	56.322081	0.000142	1.418794	0.480700	-0.000057
 572	5.6815e+01	17.2471	56.225189	0.000243	2.432218	0.824058	-0.000097
 573	5.6914e+01	17.2022	56.188855	0.000091	0.912082	0.309022	-0.000037
 574	5.7014e+01	17.1637	56.079853	0.000274	2.736245	0.927065	-0.000110
 575	5.7113e+01	17.1204	55.995073	0.000213	2.128191	0.721051	-0.000085
 576	5.7212e+01	17.0867	55.942590	0.000132	1.317451	0.446365	-0.000053
 577	5.7312e+01	17.0386	55.833587	0.000274	2.736245	0.927065	-0.000110
 578	5.7411e+01	17.0033	55.764956	0.000172	1.722821	0.583708	-0.000069
 579	5.7511e+01	16.9664	55.712473	0.000132	1.317451	0.446365	-0.000053
 580	5.7611e+01	16.9391	55.603471	0.000274	2.736245	0.927065	-0.000110
 581	5.7710e+01	16.8829	55.518691	0.000213	2.128191	0.721051	-0.000085
 582	5.7809e+01	16.8412	55.441985	0.000193	1.925506	0.652379	-0.000077
 583	5.7909e+01	16.8043	55.377391	0.000162	1.621479	0.549372	-0.000065
 584	5.8008e+01	16.7658	55.292611	0.000213	2.128191	0.721051	-0.000085
 585	5.8108e+01	16.7145	55.211868	0.000203	2.026848	0.686715	-0.000081
 586	5.8208e+01	16.6888	55.147274	0.000162	1.621479	0.549372	-0.000065
 587	5.8307e+01	16.6455	55.070569	0.000193	1.925506	0.652379	-0.000077
 588	5.8407e+01	16.6102	54.969640	0.000253	2.533560	0.858394	-0.000101
 589	5.8506e+01	16.5669	54.888897	0.000203	2.026848	0.686715	-0.000081
 590	5.8605e+01	16.5284	54.816229	0.000182	1.824164	0.618043	-0.000073
 591	5.8705e+01	16.4835	54.743561	0.000182	1.824164	0.618043	-0.000073
 592	5.8804e+01	16.4466	54.670892	0.000182	1.824164	0.618043	-0.000073
 593	5.8904e+01	16.4081	54.557852	0.000284	2.837588	0.961401	-0.000114
 594	5.9004e+01	16.3680	54.485184	0.000182	1.824164	0.618043	-0.000073
 595	5.9103e+01	16.3215	54.392330	0.000233	2.330876	0.789722	-0.000093
 596	5.9203e+01	16.2862	54.351958	0.000101	1.013424	0.343357	-0.000041
 597	5.9302e+01	16.2573	54.263141	0.000223	2.229533	0.755386	-0.000089
 598	5.9401e+01	16.2044	54.194510	0.000172	1.722821	0.583708	-0.000069
 599	5.9501e+01	16.1707	54.105693	0.000223	2.229533	0.755386	-0.000089
 600	5.9600e+01	16.1322	54.000728	0.000263	2.634903	0.892729	-0.000105
 601	5.9700e+01	16.1017	53.960356	0.000101	1.013424	0.343357	-0.000041
 602	5.9800e+01	16.0471	53.847316	0.000284	2.837588	0.961401	-0.000114
 603	5.9899e+01	16.0054	53.786759	0.000152	1.520136	0.515036	-0.000061
 604	5.9998e+01	15.9605	53.701980	0.000213	2.128191	0.721051	-0.000085
 605	6.0098e+01	15.9300	53.597014	0.000263	2.634903	0.892729	-0.000105
 606	6.0197e+01	15.8819	53.500123	0.000243	2.432218	0.824058	-0.000097
 607	6.0297e+01	15.8466	53.427454	0.000182	1.824164	0.618043	-0.000073
 608	6.0397e+01	15.8049	53.370934	0.000142	1.418794	0.480700	-0.000057
 609	6.0496e+01	15.7760	53.282117	0.000223	2.229533	0.755386	-0.000089
 610	6.0596e+01	15.7327	53.217523	0.000162	1.621479	0.549372	-0.000065
 611	6.0695e+01	15.6910	53.128706	0.000223	2.229533	0.755386	-0.000089
 612	6.0794e+01	15.6493	53.031815	0.000243	2.432218	0.824058	-0.000097
 613	6.0894e+01	15.6076	52.959147	0.000182	1.824164	0.618043	-0.000073
 614	6.0993e+01	15.5707	52.882441	0.000193	1.925506	0.652379	-0.000077
 615	6.1093e+01	15.5386	52.741141	0.000355	3.546985	1.201751	-0.000142
 616	6.1193e+01	15.4985	52.704807	0.000091	0.912082	0.309022	-0.000037
 617	6.1292e+01	15.4456	52.579656	0.000314	3.141615	1.064408	-0.000126
 618	6.1392e+01	15.4103	52.527173	0.000132	1.317451	0.446365	-0.000053
 619	6.1491e+01	15.3814	52.389910	0.000345	3.445642	1.167415	-0.000138
 620	6.1590e+01	15.3300	52.361651	0.000071	0.709397	0.240350	-0.000028
 621	6.1690e+01	15.2932	52.280908	0.000203	2.026848	0.686715	-0.000081
 622	6.1789e+01	15.2530	52.175942	0.000263	2.634903	0.892729	-0.000105
 623	6.1889e+01	15.2242	52.103274	0.000182	1.824164	0.618043	-0.000073
 624	6.1989e+01	15.1712	52.022531	0.000203	2.026848	0.686715	-0.000081
 625	6.2088e+01	15.1263	51.917566	0.000263	2.634903	0.892729	-0.000105
 626	6.2188e+01	15.0990	51.816637	0.000253	2.533560	0.858394	-0.000101
 627	6.2287e+01	15.0557	51.739932	0.000193	1.925506	0.652379	-0.000077
 628	6.2386e+01	15.0108	51.675337	0.000162	1.621479	0.549372	-0.000065
 629	6.2486e+01	14.9643	51.586520	0.000223	2.229533	0.755386	-0.000089
 630	6.2586e+01	14.9274	51.497703	0.000223	2.229533	0.755386	-0.000089
 631	6.2685e+01	14.8825	51.420998	0.000193	1.925506	0.652379	-0.000077
 632	6.2785e+01	14.8520	51.356404	0.000162	1.621479	0.549372	-0.000065
 633	6.2884e+01	14.8247	51.223178	0.000334	3.344300	1.133079	-0.000134
 634	6.2983e+01	14.7670	51.146473	0.000193	1.925506	0.652379	-0.000077
 635	6.3083e+01	14.7333	51.045544	0.000253	2.533560	0.858394	-0.000101
 636	6.3182e+01	14.6980	51.005173	0.000101	1.013424	0.343357	-0.000041
 637	6.3282e+01	14.6482	50.900207	0.000263	2.634903	0.892729	-0.000105
 638	6.3382e+01	14.6097	50.827539	0.000182	1.824164	0.618043	-0.000073
 639	6.3481e+01	14.5729	50.690276	0.000345	3.445642	1.167415	-0.000138
 640	6.3581e+01	14.5343	50.645868	0.000111	1.114767	0.377693	-0.000045
 641	6.3680e+01	14.4958	50.528791	0.000294	2.938930	0.995736	-0.000118
 642	6.3779e+01	14.4541	50.444011	0.000213	2.128191	0.721051	-0.000085
 643	6.3879e+01	14.4188	50.367305	0.000193	1.925506	0.652379	-0.000077
 644	6.3978e+01	14.3803	50.246191	0.000304	3.040273	1.030072	-0.000122
 645	6.4078e+01	14.3338	50.181597	0.000162	1.621479	0.549372	-0.000065
 646	6.4177e+01	14.2921	50.112966	0.000172	1.722821	0.583708	-0.000069
 647	6.4277e+01	14.2552	49.975703	0.000345	3.445642	1.167415	-0.000138
 648	6.4376e+01	14.2135	49.898998	0.000193	1.925506	0.652379	-0.000077
 649	6.4476e+01	14.1766	49.850552	0.000122	1.216109	0.412029	-0.000049
 650	6.4576e+01	14.1413	49.705215	0.000365	3.648327	1.236087	-0.000146
 651	6.4675e+01	14.0964	49.620435	0.000213	2.128191	0.721051	-0.000085
 652	6.4775e+01	14.0579	49.551804	0.000172	1.722821	0.583708	-0.000069
 653	6.4874e+01	14.0146	49.410504	0.000355	3.546985	1.201751	-0.000142
 654	6.4974e+01	13.9729	49.358022	0.000132	1.317451	0.446365	-0.000053
 655	6.5073e+01	13.9440	49.293427	0.000162	1.621479	0.549372	-0.000065
 656	6.5172e+01	13.8911	49.212685	0.000203	2.026848	0.686715	-0.000081
 657	6.5272e+01	13.8477	49.107719	0.000263	2.634903	0.892729	-0.000105
 658	6.5371e+01	13.8189	48.994679	0.000284	2.837588	0.961401	-0.000114
 659	6.5471e+01	13.7788	48.922011	0.000182	1.824164	0.618043	-0.000073
 660	6.5570e+01	13.7322	48.837231	0.000213	2.128191	0.721051	-0.000085
 661	6.5670e+01	13.7018	48.732265	0.000263	2.634903	0.892729	-0.000105
 662	6.5769e+01	13.6649	48.643449	0.000223	2.229533	0.755386	-0.000089
 663	6.5869e+01	13.6215	48.574817	0.000172	1.722821	0.583708	-0.000069
 664	6.5969e+01	13.5734	48.469852	0.000263	2.634903	0.892729	-0.000105
 665	6.6068e+01	13.5381	48.385072	0.000213	2.128191	0.721051	-0.000085
 666	6.6168e+01	13.4836	48.272032	0.000284	2.837588	0.961401	-0.000114
 667	6.6267e+01	13.4611	48.158992	0.000284	2.837588	0.961401	-0.000114
 668	6.6367e+01	13.4146	48.118621	0.000101	1.013424	0.343357	-0.000041
 669	6.6466e+01	13.3793	48.017692	0.000253	2.533560	0.858394	-0.000101
 670	6.6566e+01	13.3376	47.896578	0.000304	3.040273	1.030072	-0.000122
 671	6.6665e+01	13.3007	47.779501	0.000294	2.938930	0.995736	-0.000118
 672	6.6764e+01	13.2654	47.735093	0.000111	1.114767	0.377693	-0.000045
 673	6.6864e+01	13.2060	47.642239	0.000233	2.330876	0.789722	-0.000093
 674	6.6963e+01	13.1804	47.533236	0.000274	2.736245	0.927065	-0.000110
 675	6.7063e+01	13.1387	47.420196	0.000284	2.837588	0.961401	-0.000114
 676	6.7162e+01	13.1002	47.307157	0.000284	2.837588	0.961401	-0.000114
 677	6.7262e+01	13.0552	47.242562	0.000162	1.621479	0.549372	-0.000065
 678	6.7362e+01	13.0200	47.149708	0.000233	2.330876	0.789722	-0.000093
 679	6.7461e+01	12.9815	47.036668	0.000284	2.837588	0.961401	-0.000114
 680	6.7561e+01	12.9333	46.976111	0.000152	1.520136	0.515036	-0.000061
 681	6.7660e+01	12.9044	46.838849	0.000345	3.445642	1.167415	-0.000138
 682	6.7760e+01	12.8676	46.745995	0.000233	2.330876	0.789722	-0.000093
 683	6.7859e+01	12.8258	46.645066	0.000253	2.533560	0.858394	-0.000101
 684	6.7959e+01	12.7809	46.544138	0.000253	2.533560	0.858394	-0.000101
 685	6.8058e+01	12.7440	46.467432	0.000193	1.925506	0.652379	-0.000077
 686	6.8157e+01	12.7023	46.366504	0.000253	2.533560	0.858394	-0.000101
 687	6.8257e+01	12.6574	46.257501	0.000274	2.736245	0.927065	-0.000110
 688	6.8356e+01	12.6269	46.136387	0.000304	3.040273	1.030072	-0.000122
 689	6.8456e+01	12.5836	46.075830	0.000152	1.520136	0.515036	-0.000061
 690	6.8555e+01	12.5387	45.987013	0.000223	2.229533	0.755386	-0.000089
 691	6.8655e+01	12.5034	45.825528	0.000405	4.053697	1.373430	-0.000162
 692	6.8754e+01	12.4665	45.769008	0.000142	1.418794	0.480700	-0.000057
 693	6.8854e+01	12.4264	45.708451	0.000152	1.520136	0.515036	-0.000061
 694	6.8954e+01	12.3911	45.559077	0.000375	3.749670	1.270422	-0.000150
 695	6.9053e+01	12.3430	45.450074	0.000274	2.736245	0.927065	-0.000110
 696	6.9153e+01	12.3093	45.332997	0.000294	2.938930	0.995736	-0.000118
 697	6.9252e+01	12.2499	45.256292	0.000193	1.925506	0.652379	-0.000077
 698	6.9352e+01	12.2275	45.143252	0.000284	2.837588	0.961401	-0.000114
 699	6.9451e+01	12.1777	45.070583	0.000182	1.824164	0.618043	-0.000073
 700	6.9550e+01	12.1408	44.917172	0.000385	3.851012	1.304758	-0.000154
 701	6.9650e+01	12.1136	44.824318	0.000233	2.330876	0.789722	-0.000093
 702	6.9749e+01	12.0622	44.739538	0.000213	2.128191	0.721051	-0.000085
 703	6.9849e+01	12.0301	44.674944	0.000162	1.621479	0.549372	-0.000065
 704	6.9948e+01	11.9836	44.557867	0.000294	2.938930	0.995736	-0.000118
 705	7.0048e+01	11.9499	44.432716	0.000314	3.141615	1.064408	-0.000126
 706	7.0147e+01	11.9098	44.323713	0.000274	2.736245	0.927065	-0.000110
 707	7.0247e+01	11.8617	44.218748	0.000263	2.634903	0.892729	-0.000105
 708	7.0347e+01	11.8296	44.113782	0.000263	2.634903	0.892729	-0.000105
 709	7.0446e+01	11.7783	44.008817	0.000263	2.634903	0.892729	-0.000105
 710	7.0546e+01	11.7494	43.907888	0.000253	2.533560	0.858394	-0.000101
 711	7.0645e+01	11.6981	43.778700	0.000324	3.242957	1.098744	-0.000130
 712	7.0745e+01	11.6692	43.685846	0.000233	2.330876	0.789722	-0.000093
 713	7.0844e+01	11.6243	43.584917	0.000253	2.533560	0.858394	-0.000101
 714	7.0944e+01	11.5874	43.488026	0.000243	2.432218	0.824058	-0.000097
 715	7.1043e+01	11.5457	43.391135	0.000243	2.432218	0.824058	-0.000097
 716	7.1142e+01	11.5072	43.265984	0.000314	3.141615	1.064408	-0.000126
 717	7.1242e+01	11.4671	43.169092	0.000243	2.432218	0.824058	-0.000097
 718	7.1341e+01	11.4270	43.092387	0.000193	1.925506	0.652379	-0.000077
 719	7.1441e+01	11.3852	42.934939	0.000395	3.952354	1.339094	-0.000158
 720	7.1540e+01	11.3403	42.858233	0.000193	1.925506	0.652379	-0.000077
 721	7.1640e+01	11.3050	42.725008	0.000334	3.344300	1.133079	-0.000134
 722	7.1740e+01	11.2729	42.616005	0.000274	2.736245	0.927065	-0.000110
 723	7.1839e+01	11.2264	42.527188	0.000223	2.229533	0.755386	-0.000089
 724	7.1939e+01	11.1927	42.430297	0.000243	2.432218	0.824058	-0.000097
 725	7.2038e+01	11.1478	42.280923	0.000375	3.749670	1.270422	-0.000150
 726	7.2138e+01	11.1093	42.232477	0.000122	1.216109	0.412029	-0.000049
 727	7.2237e+01	11.0676	42.119437	0.000284	2.837588	0.961401	-0.000114
 728	7.2337e+01	11.0371	41.961989	0.000395	3.952354	1.339094	-0.000158
 729	7.2436e+01	10.9890	41.852986	0.000274	2.736245	0.927065	-0.000110
 730	7.2535e+01	10.9505	41.764169	0.000223	2.229533	0.755386	-0.000089
 731	7.2635e+01	10.9056	41.671315	0.000233	2.330876	0.789722	-0.000093
 732	7.2734e+01	10.8719	41.550201	0.000304	3.040273	1.030072	-0.000122
 733	7.2834e+01	10.8318	41.421013	0.000324	3.242957	1.098744	-0.000130
 734	7.2933e+01	10.7820	41.291824	0.000324	3.242957	1.098744	-0.000130
 735	7.3033e+01	10.7371	41.215119	0.000193	1.925506	0.652379	-0.000077
 736	7.3132e+01	10.7115	41.146487	0.000172	1.722821	0.583708	-0.000069
 737	7.3232e+01	10.6681	40.985002	0.000405	4.053697	1.373430	-0.000162
 738	7.3332e+01	10.6280	40.859851	0.000314	3.141615	1.064408	-0.000126
 739	7.3431e+01	10.5927	40.787182	0.000182	1.824164	0.618043	-0.000073
 740	7.3531e+01	10.5430	40.686254	0.000253	2.533560	0.858394	-0.000101
 741	7.3630e+01	10.5125	40.532843	0.000385	3.851012	1.304758	-0.000154
 742	7.3730e+01	10.4644	40.439989	0.000233	2.330876	0.789722	-0.000093
 743	7.3829e+01	10.4291	40.330986	0.000274	2.736245	0.927065	-0.000110
 744	7.3928e+01	10.4002	40.173538	0.000395	3.952354	1.339094	-0.000158
 745	7.4028e+01	10.3505	40.076646	0.000243	2.432218	0.824058	-0.000097
 746	7.4127e+01	10.3104	39.947458	0.000324	3.242957	1.098744	-0.000130
 747	7.4227e+01	10.2655	39.834418	0.000284	2.837588	0.961401	-0.000114
 748	7.4326e+01	10.2286	39.729453	0.000263	2.634903	0.892729	-0.000105
 749	7.4426e+01	10.1901	39.604302	0.000314	3.141615	1.064408	-0.000126
 750	7.4525e+01	10.1420	39.527596	0.000193	1.925506	0.652379	-0.000077
 751	7.4625e+01	10.1099	39.353999	0.000436	4.357724	1.476437	-0.000174
 752	7.4725e+01	10.0746	39.265182	0.000223	2.229533	0.755386	-0.000089
 753	7.4824e+01	10.0200	39.115808	0.000375	3.749670	1.270422	-0.000150
 754	7.4924e+01	9.9863	39.047177	0.000172	1.722821	0.583708	-0.000069
 755	7.5023e+01	9.9511	38.934137	0.000284	2.837588	0.961401	-0.000114
 756	7.5123e+01	9.9126	38.813023	0.000304	3.040273	1.030072	-0.000122
 757	7.5222e+01	9.8789	38.736317	0.000193	1.925506	0.652379	-0.000077
 758	7.5322e+01	9.8356	38.586943	0.000375	3.749670	1.270422	-0.000150
 759	7.5421e+01	9.7890	38.449681	0.000345	3.445642	1.167415	-0.000138
 760	7.5520e+01	9.7602	38.364901	0.000213	2.128191	0.721051	-0.000085
 761	7.5620e+01	9.7056	38.235713	0.000324	3.242957	1.098744	-0.000130
 762	7.5719e+01	9.6687	38.134784	0.000253	2.533560	0.858394	-0.000101
 763	7.5819e+01	9.6318	38.021744	0.000284	2.837588	0.961401	-0.000114
 764	7.5918e+01	9.5933	37.896593	0.000314	3.141615	1.064408	-0.000126
 765	7.6018e+01	9.5484	37.787591	0.000274	2.736245	0.927065	-0.000110
 766	7.6118e+01	9.5131	37.678588	0.000274	2.736245	0.927065	-0.000110
 767	7.6217e+01	9.4730	37.569585	0.000274	2.736245	0.927065	-0.000110
 768	7.6317e+01	9.4345	37.424248	0.000365	3.648327	1.236087	-0.000146
 769	7.6416e+01	9.3928	37.319283	0.000263	2.634903	0.892729	-0.000105
 770	7.6516e+01	9.3623	37.198169	0.000304	3.040273	1.030072	-0.000122
 771	7.6615e+01	9.3190	37.125500	0.000182	1.824164	0.618043	-0.000073
 772	7.6715e+01	9.2789	36.976126	0.000375	3.749670	1.270422	-0.000150
 773	7.6814e+01	9.2324	36.891346	0.000213	2.128191	0.721051	-0.000085
 774	7.6913e+01	9.1939	36.750047	0.000355	3.546985	1.201751	-0.000142
 775	7.7013e+01	9.1570	36.637007	0.000284	2.837588	0.961401	-0.000114
 776	7.7112e+01	9.1249	36.556264	0.000203	2.026848	0.686715	-0.000081
 777	7.7212e+01	9.0735	36.406890	0.000375	3.749670	1.270422	-0.000150
 778	7.7311e+01	9.0415	36.289813	0.000294	2.938930	0.995736	-0.000118
 779	7.7411e+01	8.9965	36.160625	0.000324	3.242957	1.098744	-0.000130
 780	7.7510e+01	8.9532	36.067771	0.000233	2.330876	0.789722	-0.000093
 781	7.7610e+01	8.9276	35.950694	0.000294	2.938930	0.995736	-0.000118
 782	7.7710e+01	8.8746	35.853802	0.000243	2.432218	0.824058	-0.000097
 783	7.7809e+01	8.8425	35.700391	0.000385	3.851012	1.304758	-0.000154
 784	7.7909e+01	8.7960	35.603500	0.000243	2.432218	0.824058	-0.000097
 785	7.8008e+01	8.7623	35.530832	0.000182	1.824164	0.618043	-0.000073
 786	7.8108e+01	8.7270	35.405680	0.000314	3.141615	1.064408	-0.000126
 787	7.8207e+01	8.6789	35.276492	0.000324	3.242957	1.098744	-0.000130
 788	7.8306e+01	8.6292	35.175564	0.000253	2.533560	0.858394	-0.000101
 789	7.8406e+01	8.6131	35.001967	0.000436	4.357724	1.476437	-0.000174
 790	7.8505e+01	8.5554	34.913150	0.000223	2.229533	0.755386	-0.000089
 791	7.8605e+01	8.5153	34.812221	0.000253	2.533560	0.858394	-0.000101
 792	7.8704e+01	8.4768	34.646699	0.000416	4.155039	1.407765	-0.000166
 793	7.8804e+01	8.4399	34.578068	0.000172	1.722821	0.583708	-0.000069
 794	7.8903e+01	8.3998	34.448879	0.000324	3.242957	1.098744	-0.000130
 795	7.9003e+01	8.3597	34.319691	0.000324	3.242957	1.098744	-0.000130
 796	7.9103e+01	8.3212	34.186465	0.000334	3.344300	1.133079	-0.000134
 797	7.9202e+01	8.2730	34.133983	0.000132	1.317451	0.446365	-0.000053
 798	7.9302e+01	8.2393	33.980572	0.000385	3.851012	1.304758	-0.000154
 799	7.9401e+01	8.2040	33.867532	0.000284	2.837588	0.961401	-0.000114
 800	7.9501e+01	8.1655	33.766603	0.000253	2.533560	0.858394	-0.000101
 801	7.9600e+01	8.1142	33.609155	0.000395	3.952354	1.339094	-0.000158
 802	7.9700e+01	8.0837	33.484004	0.000314	3.141615	1.064408	-0.000126
 803	7.9799e+01	8.0420	33.391150	0.000233	2.330876	0.789722	-0.000093
 804	7.9898e+01	8.0035	33.265998	0.000314	3.141615	1.064408	-0.000126
 805	7.9998e+01	7.9570	33.116624	0.000375	3.749670	1.270422	-0.000150
 806	8.0097e+01	7.9217	33.019733	0.000243	2.432218	0.824058	-0.000097
 807	8.0197e+01	7.8848	32.902656	0.000294	2.938930	0.995736	-0.000118
 808	8.0296e+01	7.8351	32.741171	0.000405	4.053697	1.373430	-0.000162
 809	8.0396e+01	7.7998	32.624094	0.000294	2.938930	0.995736	-0.000118
 810	8.0496e+01	7.7613	32.535277	0.000223	2.229533	0.755386	-0.000089
 811	8.0595e+01	7.7276	32.450497	0.000213	2.128191	0.721051	-0.000085
 812	8.0695e+01	7.6843	32.293049	0.000395	3.952354	1.339094	-0.000158
 813	8.0794e+01	7.6442	32.204232	0.000223	2.229533	0.755386	-0.000089
 814	8.0894e+01	7.6073	32.046783	0.000395	3.952354	1.339094	-0.000158
 815	8.0993e+01	7.5704	31.945855	0.000253	2.533560	0.858394	-0.000101
 816	8.1093e+01	7.5303	31.776295	0.000426	4.256382	1.442101	-0.000170
 817	8.1192e+01	7.4837	31.739961	0.000091	0.912082	0.309022	-0.000037
 818	8.1291e+01	7.4404	31.550216	0.000476	4.763094	1.613780	-0.000191
 819	8.1391e+01	7.4083	31.441213	0.000274	2.736245	0.927065	-0.000110
 820	8.1490e+01	7.3698	31.332210	0.000274	2.736245	0.927065	-0.000110
 821	8.1590e+01	7.3137	31.190911	0.000355	3.546985	1.201751	-0.000142
 822	8.1689e+01	7.2848	31.118242	0.000182	1.824164	0.618043	-0.000073
 823	8.1789e+01	7.2511	30.989054	0.000324	3.242957	1.098744	-0.000130
 824	8.1888e+01	7.2110	30.827568	0.000405	4.053697	1.373430	-0.000162
 825	8.1988e+01	7.1645	30.694343	0.000334	3.344300	1.133079	-0.000134
 826	8.2088e+01	7.1308	30.601489	0.000233	2.330876	0.789722	-0.000093
 827	8.2187e+01	7.0859	30.484412	0.000294	2.938930	0.995736	-0.000118
 828	8.2287e+01	7.0410	30.367335	0.000294	2.938930	0.995736	-0.000118
 829	8.2386e+01	6.9993	30.246221	0.000304	3.040273	1.030072	-0.000122
 830	8.2486e+01	6.9640	30.141255	0.000263	2.634903	0.892729	-0.000105
 831	8.2585e+01	6.9207	29.971696	0.000426	4.256382	1.442101	-0.000170
 832	8.2684e+01	6.8838	29.882879	0.000223	2.229533	0.755386	-0.000089
 833	8.2784e+01	6.8356	29.745616	0.000345	3.445642	1.167415	-0.000138
 834	8.2883e+01	6.8036	29.648725	0.000243	2.432218	0.824058	-0.000097
 835	8.2983e+01	6.7634	29.507425	0.000355	3.546985	1.201751	-0.000142
 836	8.3082e+01	6.7282	29.410534	0.000243	2.432218	0.824058	-0.000097
 837	8.3182e+01	6.6800	29.253086	0.000395	3.952354	1.339094	-0.000158
 838	8.3281e+01	6.6431	29.123897	0.000324	3.242957	1.098744	-0.000130
 839	8.3381e+01	6.6094	29.014895	0.000274	2.736245	0.927065	-0.000110
 840	8.3481e+01	6.5645	28.881669	0.000334	3.344300	1.133079	-0.000134
 841	8.3580e+01	6.5212	28.748444	0.000334	3.344300	1.133079	-0.000134
 842	8.3680e+01	6.4859	28.651552	0.000243	2.432218	0.824058	-0.000097
 843	8.3779e+01	6.4442	28.534475	0.000294	2.938930	0.995736	-0.000118
 844	8.3879e+01	6.4169	28.364916	0.000426	4.256382	1.442101	-0.000170
 845	8.3978e+01	6.3672	28.259950	0.000263	2.634903	0.892729	-0.000105
 846	8.4078e+01	6.3351	28.183245	0.000193	1.925506	0.652379	-0.000077
 847	8.4177e+01	6.2950	28.025796	0.000395	3.952354	1.339094	-0.000158
 848	8.4276e+01	6.2501	27.876422	0.000375	3.749670	1.270422	-0.000150
 849	8.4376e+01	6.2052	27.743197	0.000334	3.344300	1.133079	-0.000134
 850	8.4475e+01	6.1747	27.654380	0.000223	2.229533	0.755386	-0.000089
 851	8.4575e+01	6.1314	27.460597	0.000486	4.864436	1.648116	-0.000195
 852	8.4674e+01	6.0784	27.371780	0.000223	2.229533	0.755386	-0.000089
 853	8.4774e+01	6.0431	27.250666	0.000304	3.040273	1.030072	-0.000122
 854	8.4874e+01	6.0062	27.105329	0.000365	3.648327	1.236087	-0.000146
 855	8.4973e+01	5.9774	26.988252	0.000294	2.938930	0.995736	-0.000118
 856	8.5073e+01	5.9308	26.826767	0.000405	4.053697	1.373430	-0.000162
 857	8.5172e+01	5.8875	26.741987	0.000213	2.128191	0.721051	-0.000085
 858	8.5272e+01	5.8538	26.560316	0.000456	4.560409	1.545108	-0.000183
 859	8.5371e+01	5.8137	26.475536	0.000213	2.128191	0.721051	-0.000085
 860	8.5471e+01	5.7672	26.326162	0.000375	3.749670	1.270422	-0.000150
 861	8.5570e+01	5.7351	26.160640	0.000416	4.155039	1.407765	-0.000166
 862	8.5669e+01	5.6982	26.067785	0.000233	2.330876	0.789722	-0.000093
 863	8.5769e+01	5.6517	25.926486	0.000355	3.546985	1.201751	-0.000142
 864	8.5868e+01	5.6036	25.789223	0.000345	3.445642	1.167415	-0.000138
 865	8.5968e+01	5.5763	25.651960	0.000345	3.445642	1.167415	-0.000138
 866	8.6067e+01	5.5250	25.522772	0.000324	3.242957	1.098744	-0.000130
 867	8.6167e+01	5.4881	25.405695	0.000294	2.938930	0.995736	-0.000118
 868	8.6266e+01	5.4480	25.256321	0.000375	3.749670	1.270422	-0.000150
 869	8.6366e+01	5.4063	25.131170	0.000314	3.141615	1.064408	-0.000126
 870	8.6466e+01	5.3710	25.001982	0.000324	3.242957	1.098744	-0.000130
 871	8.6565e+01	5.3325	24.832422	0.000426	4.256382	1.442101	-0.000170
 872	8.6665e+01	5.2908	24.683048	0.000375	3.749670	1.270422	-0.000150
 873	8.6764e+01	5.2507	24.561934	0.000304	3.040273	1.030072	-0.000122
 874	8.6864e+01	5.2089	24.396411	0.000416	4.155039	1.407765	-0.000166
 875	8.6963e+01	5.1801	24.283371	0.000284	2.837588	0.961401	-0.000114
 876	8.7063e+01	5.1319	24.166295	0.000294	2.938930	0.995736	-0.000118
 877	8.7162e+01	5.0966	24.004809	0.000405	4.053697	1.373430	-0.000162
 878	8.7261e+01	5.0565	23.859472	0.000365	3.648327	1.236087	-0.000146
 879	8.7361e+01	5.0100	23.730284	0.000324	3.242957	1.098744	-0.000130
 880	8.7460e+01	4.9715	23.597058	0.000334	3.344300	1.133079	-0.000134
 881	8.7560e+01	4.9362	23.455759	0.000355	3.546985	1.201751	-0.000142
 882	8.7659e+01	4.8993	23.306385	0.000375	3.749670	1.270422	-0.000150
 883	8.7759e+01	4.8544	23.189308	0.000294	2.938930	0.995736	-0.000118
 884	8.7859e+01	4.8191	23.015711	0.000436	4.357724	1.476437	-0.000174
 885	8.7958e+01	4.7630	22.902671	0.000284	2.837588	0.961401	-0.000114
 886	8.8058e+01	4.7309	22.729074	0.000436	4.357724	1.476437	-0.000174
 887	8.8157e+01	4.6988	22.599886	0.000324	3.242957	1.098744	-0.000130
 888	8.8257e+01	4.6619	22.502995	0.000243	2.432218	0.824058	-0.000097
 889	8.8356e+01	4.6154	22.329398	0.000436	4.357724	1.476437	-0.000174
 890	8.8456e+01	4.5769	22.143690	0.000466	4.661751	1.579444	-0.000187
 891	8.8555e+01	4.5400	22.038724	0.000263	2.634903	0.892729	-0.000105
 892	8.8654e+01	4.4902	21.917610	0.000304	3.040273	1.030072	-0.000122
 893	8.8754e+01	4.4566	21.735939	0.000456	4.560409	1.545108	-0.000183
 894	8.8853e+01	4.4213	21.606750	0.000324	3.242957	1.098744	-0.000130
 895	8.8953e+01	4.3731	21.461414	0.000365	3.648327	1.236087	-0.000146
 896	8.9052e+01	4.3298	21.336262	0.000314	3.141615	1.064408	-0.000126
 897	8.9152e+01	4.3026	21.194963	0.000355	3.546985	1.201751	-0.000142
 898	8.9251e+01	4.2560	21.017329	0.000446	4.459066	1.510773	-0.000179
 899	8.9351e+01	4.2095	20.888140	0.000324	3.242957	1.098744	-0.000130
 900	8.9451e+01	4.1742	20.742803	0.000365	3.648327	1.236087	-0.000146
 901	8.9550e+01	4.1373	20.581318	0.000405	4.053697	1.373430	-0.000162
 902	8.9650e+01	4.0924	20.435981	0.000365	3.648327	1.236087	-0.000146
 903	8.9749e+01	4.0475	20.310830	0.000314	3.141615	1.064408	-0.000126
 904	8.9849e+01	4.0122	20.092825	0.000547	5.472491	1.854130	-0.000219
 905	8.9948e+01	3.9833	19.979785	0.000284	2.837588	0.961401	-0.000114
 906	9.0047e+01	3.9400	19.814262	0.000416	4.155039	1.407765	-0.000166
 907	9.0147e+01	3.8871	19.677000	0.000345	3.445642	1.167415	-0.000138
 908	9.0246e+01	3.8518	19.527626	0.000375	3.749670	1.270422	-0.000150
 909	9.0346e+01	3.8213	19.406511	0.000304	3.040273	1.030072	-0.000122
 910	9.0445e+01	3.7860	19.220803	0.000466	4.661751	1.579444	-0.000187
 911	9.0545e+01	3.7395	19.095652	0.000314	3.141615	1.064408	-0.000126
 912	9.0644e+01	3.6913	18.918018	0.000446	4.459066	1.510773	-0.000179
 913	9.0744e+01	3.6673	18.764607	0.000385	3.851012	1.304758	-0.000154
 914	9.0844e+01	3.6143	18.623307	0.000355	3.546985	1.201751	-0.000142
 915	9.0943e+01	3.5710	18.449710	0.000436	4.357724	1.476437	-0.000174
 916	9.1043e+01	3.5438	18.340708	0.000274	2.736245	0.927065	-0.000110
 917	9.1142e+01	3.4940	18.179222	0.000405	4.053697	1.373430	-0.000162
 918	9.1242e+01	3.4619	18.005625	0.000436	4.357724	1.476437	-0.000174
 919	9.1341e+01	3.4218	17.868363	0.000345	3.445642	1.167415	-0.000138
 920	9.1441e+01	3.3849	17.702840	0.000416	4.155039	1.407765	-0.000166
 921	9.1540e+01	3.3496	17.561540	0.000355	3.546985	1.201751	-0.000142
 922	9.1639e+01	3.3015	17.404092	0.000395	3.952354	1.339094	-0.000158
 923	9.1739e+01	3.2582	17.226458	0.000446	4.459066	1.510773	-0.000179
 924	9.1838e+01	3.2261	17.089196	0.000345	3.445642	1.167415	-0.000138
 925	9.1938e+01	3.1812	16.911562	0.000446	4.459066	1.510773	-0.000179
 926	9.2037e+01	3.1475	16.786410	0.000314	3.141615	1.064408	-0.000126
 927	9.2137e+01	3.0930	16.632999	0.000385	3.851012	1.304758	-0.000154
 928	9.2237e+01	3.0609	16.467477	0.000416	4.155039	1.407765	-0.000166
 929	9.2336e+01	3.0127	16.334251	0.000334	3.344300	1.133079	-0.000134
 930	9.2436e+01	2.9871	16.201026	0.000334	3.344300	1.133079	-0.000134
 931	9.2535e+01	2.9390	16.007243	0.000486	4.864436	1.648116	-0.000195
 932	9.2635e+01	2.9021	15.821535	0.000466	4.661751	1.579444	-0.000187
 933	9.2734e+01	2.8587	15.684272	0.000345	3.445642	1.167415	-0.000138
 934	9.2834e+01	2.8202	15.510676	0.000436	4.357724	1.476437	-0.000174
 935	9.2933e+01	2.7882	15.357264	0.000385	3.851012	1.304758	-0.000154
 936	9.3032e+01	2.7400	15.220002	0.000345	3.445642	1.167415	-0.000138
 937	9.3132e+01	2.7063	15.054479	0.000416	4.155039	1.407765	-0.000166
 938	9.3231e+01	2.6566	14.901068	0.000385	3.851012	1.304758	-0.000154
 939	9.3331e+01	2.6197	14.739583	0.000405	4.053697	1.373430	-0.000162
 940	9.3430e+01	2.5860	14.626543	0.000284	2.837588	0.961401	-0.000114
 941	9.3530e+01	2.5363	14.404500	0.000557	5.573833	1.888466	-0.000223
 942	9.3629e+01	2.5026	14.283386	0.000304	3.040273	1.030072	-0.000122
 943	9.3729e+01	2.4593	14.073455	0.000527	5.269806	1.785459	-0.000211
 944	9.3829e+01	2.4256	13.964453	0.000274	2.736245	0.927065	-0.000110
 945	9.3928e+01	2.3823	13.766633	0.000497	4.965779	1.682451	-0.000199
 946	9.4028e+01	2.3374	13.641482	0.000314	3.141615	1.064408	-0.000126
 947	9.4127e+01	2.3037	13.479996	0.000405	4.053697	1.373430	-0.000162
 948	9.4227e+01	2.2684	13.326585	0.000385	3.851012	1.304758	-0.000154
 949	9.4326e+01	2.2251	13.173174	0.000385	3.851012	1.304758	-0.000154
 950	9.4425e+01	2.1818	12.995540	0.000446	4.459066	1.510773	-0.000179
 951	9.4525e+01	2.1449	12.805795	0.000476	4.763094	1.613780	-0.000191
 952	9.4624e+01	2.1031	12.652383	0.000385	3.851012	1.304758	-0.000154
 953	9.4724e+01	2.0614	12.486861	0.000416	4.155039	1.407765	-0.000166
 954	9.4823e+01	2.0245	12.365747	0.000304	3.040273	1.030072	-0.000122
 955	9.4923e+01	2.0005	12.192150	0.000436	4.357724	1.476437	-0.000174
 956	9.5022e+01	1.9395	11.998367	0.000486	4.864436	1.648116	-0.000195
 957	9.5122e+01	1.9106	11.824771	0.000436	4.357724	1.476437	-0.000174
 958	9.5222e+01	1.8641	11.655211	0.000426	4.256382	1.442101	-0.000170
 959	9.5321e+01	1.8208	11.534097	0.000304	3.040273	1.030072	-0.000122
 960	9.5421e+01	1.7855	11.368574	0.000416	4.155039	1.407765	-0.000166
 961	9.5520e+01	1.7550	11.194977	0.000436	4.357724	1.476437	-0.000174
 962	9.5620e+01	1.6989	10.989083	0.000517	5.168463	1.751123	-0.000207
 963	9.5719e+01	1.6652	10.855858	0.000334	3.344300	1.133079	-0.000134
 964	9.5819e+01	1.6187	10.649964	0.000517	5.168463	1.751123	-0.000207
 965	9.5918e+01	1.5834	10.524813	0.000314	3.141615	1.064408	-0.000126
 966	9.6017e+01	1.5481	10.351216	0.000436	4.357724	1.476437	-0.000174
 967	9.6117e+01	1.5064	10.165508	0.000466	4.661751	1.579444	-0.000187
 968	9.6216e+01	1.4743	10.028245	0.000345	3.445642	1.167415	-0.000138
 969	9.6316e+01	1.4342	9.834463	0.000486	4.864436	1.648116	-0.000195
 970	9.6415e+01	1.3893	9.709311	0.000314	3.141615	1.064408	-0.000126
 971	9.6515e+01	1.3395	9.535715	0.000436	4.357724	1.476437	-0.000174
 972	9.6615e+01	1.2962	9.337895	0.000497	4.965779	1.682451	-0.000199
 973	9.6714e+01	1.2657	9.180447	0.000395	3.952354	1.339094	-0.000158
 974	9.6814e+01	1.2304	8.982627	0.000497	4.965779	1.682451	-0.000199
 975	9.6913e+01	1.1887	8.861513	0.000304	3.040273	1.030072	-0.000122
 976	9.7013e+01	1.1470	8.663693	0.000497	4.965779	1.682451	-0.000199
 977	9.7112e+01	1.1117	8.465874	0.000497	4.965779	1.682451	-0.000199
 978	9.7212e+01	1.0668	8.320537	0.000365	3.648327	1.236087	-0.000146
 979	9.7311e+01	1.0331	8.167126	0.000385	3.851012	1.304758	-0.000154
 980	9.7410e+01	0.9818	7.969306	0.000497	4.965779	1.682451	-0.000199
 981	9.7510e+01	0.9481	7.799746	0.000426	4.256382	1.442101	-0.000170
 982	9.7609e+01	0.9112	7.634224	0.000416	4.155039	1.407765	-0.000166
 983	9.7709e+01	0.8743	7.424293	0.000527	5.269806	1.785459	-0.000211
 984	9.7808e+01	0.8278	7.303179	0.000304	3.040273	1.030072	-0.000122
 985	9.7908e+01	0.7829	7.097285	0.000517	5.168463	1.751123	-0.000207
 986	9.8007e+01	0.7476	6.943873	0.000385	3.851012	1.304758	-0.000154
 987	9.8107e+01	0.7091	6.770277	0.000436	4.357724	1.476437	-0.000174
 988	9.8207e+01	0.6642	6.608791	0.000405	4.053697	1.373430	-0.000162
 989	9.8306e+01	0.6273	6.419046	0.000476	4.763094	1.613780	-0.000191
 990	9.8406e+01	0.5936	6.233338	0.000466	4.661751	1.579444	-0.000187
 991	9.8505e+01	0.5519	6.067815	0.000416	4.155039	1.407765	-0.000166
 992	9.8605e+01	0.5166	5.882107	0.000466	4.661751	1.579444	-0.000187
 993	9.8704e+01	0.4732	5.708510	0.000436	4.357724	1.476437	-0.000174
 994	9.8803e+01	0.4251	5.538950	0.000426	4.256382	1.442101	-0.000170
 995	9.8903e+01	0.3818	5.357279	0.000456	4.560409	1.545108	-0.000183
 996	9.9002e+01	0.3449	5.199831	0.000395	3.952354	1.339094	-0.000158
 997	9.9102e+01	0.3064	5.002011	0.000497	4.965779	1.682451	-0.000199
 998	9.9201e+01	0.2711	4.856674	0.000365	3.648327	1.236087	-0.000146
 999	9.9301e+01	0.2278	4.658855	0.000497	4.965779	1.682451	-0.000199
1000	9.9400e+01	0.1861	4.489295	0.000426	4.256382	1.442101	-0.000170
1001	9.9500e+01	0.1492	4.315698	0.000436	4.357724	1.476437	-0.000174
1002	9.9600e+01	0.1091	4.162287	0.000385	3.851012	1.304758	-0.000154
1003	9.9699e+01	0.0722	3.996764	0.000416	4.155039	1.407765	-0.000166
1004	9.9799e+01	0.0305	3.790870	0.000517	5.168463	1.751123	-0.000207
1005	9.9898e+01	-0.0048	3.665719	0.000314	3.141615	1.064408	-0.000126
1006	9.9998e+01	-0.0481	3.431565	0.000588	5.877860	1.991473	-0.000235
1007	1.0010e+02	-0.0834	3.282191	0.000375	3.749670	1.270422	-0.000150
1008	1.0020e+02	-0.1171	3.080335	0.000507	5.067121	1.716787	-0.000203
1009	1.0030e+02	-0.1620	2.926923	0.000385	3.851012	1.304758	-0.000154
1010	1.0040e+02	-0.2005	2.716992	0.000527	5.269806	1.785459	-0.000211
1011	1.0050e+02	-0.2454	2.575693	0.000355	3.546985	1.201751	-0.000142
1012	1.0059e+02	-0.2823	2.385947	0.000476	4.763094	1.613780	-0.000191
1013	1.0069e+02	-0.3208	2.188128	0.000497	4.965779	1.682451	-0.000199
1014	1.0079e+02	-0.3481	2.046828	0.000355	3.546985	1.201751	-0.000142
1015	1.0089e+02	-0.3962	1.853045	0.000486	4.864436	1.648116	-0.000195
1016	1.0099e+02	-0.4364	1.675411	0.000446	4.459066	1.510773	-0.000179
1017	1.0109e+02	-0.4861	1.477592	0.000497	4.965779	1.682451	-0.000199
1018	1.0119e+02	-0.5262	1.279772	0.000497	4.965779	1.682451	-0.000199
1019	1.0129e+02	-0.5470	1.126361	0.000385	3.851012	1.304758	-0.000154
1020	1.0139e+02	-0.6000	0.928541	0.000497	4.965779	1.682451	-0.000199
1021	1.0149e+02	-0.6353	0.750907	0.000446	4.459066	1.510773	-0.000179
1022	1.0159e+02	-0.6738	0.561162	0.000476	4.763094	1.613780	-0.000191
1023	1.0169e+02	-0.7155	0.371416	0.000476	4.763094	1.613780	-0.000191
1024	1.0179e+02	-0.7604	0.201857	0.000426	4.256382	1.442101	-0.000170
1025	1.0189e+02	-0.7973	-0.008074	0.000527	5.269806	1.785459	-0.000211
1026	1.0199e+02	-0.8374	-0.218005	0.000527	5.269806	1.785459	-0.000211
1027	1.0209e+02	-0.8807	-0.367379	0.000375	3.749670	1.270422	-0.000150
1028	1.0219e+02	-0.9208	-0.540976	0.000436	4.357724	1.476437	-0.000174
1029	1.0229e+02	-0.9609	-0.746870	0.000517	5.168463	1.751123	-0.000207
1030	1.0239e+02	-1.0026	-0.912393	0.000416	4.155039	1.407765	-0.000166
1031	1.0248e+02	-1.0395	-1.081952	0.000426	4.256382	1.442101	-0.000170
1032	1.0258e+02	-1.0716	-1.287846	0.000517	5.168463	1.751123	-0.000207
1033	1.0268e+02	-1.1214	-1.449332	0.000405	4.053697	1.373430	-0.000162
1034	1.0278e+02	-1.1583	-1.618891	0.000426	4.256382	1.442101	-0.000170
1035	1.0288e+02	-1.2000	-1.832860	0.000537	5.371148	1.819794	-0.000215
1036	1.0298e+02	-1.2369	-2.002419	0.000426	4.256382	1.442101	-0.000170
1037	1.0308e+02	-1.2770	-2.184090	0.000456	4.560409	1.545108	-0.000183
1038	1.0318e+02	-1.3091	-2.369799	0.000466	4.661751	1.579444	-0.000187
1039	1.0328e+02	-1.3604	-2.547433	0.000446	4.459066	1.510773	-0.000179
1040	1.0338e+02	-1.3845	-2.753327	0.000517	5.168463	1.751123	-0.000207
1041	1.0348e+02	-1.4326	-2.906738	0.000385	3.851012	1.304758	-0.000154
1042	1.0358e+02	-1.4759	-3.116669	0.000527	5.269806	1.785459	-0.000211
1043	1.0368e+02	-1.5128	-3.262006	0.000365	3.648327	1.236087	-0.000146
1044	1.0378e+02	-1.5545	-3.467900	0.000517	5.168463	1.751123	-0.000207
1045	1.0388e+02	-1.5866	-3.669756	0.000507	5.067121	1.716787	-0.000203
1046	1.0398e+02	-1.6411	-3.819130	0.000375	3.749670	1.270422	-0.000150
1047	1.0408e+02	-1.6764	-4.033099	0.000537	5.371148	1.819794	-0.000215
1048	1.0418e+02	-1.7149	-4.190547	0.000395	3.952354	1.339094	-0.000158
1049	1.0428e+02	-1.7582	-4.368181	0.000446	4.459066	1.510773	-0.000179
1050	1.0438e+02	-1.7919	-4.537741	0.000426	4.256382	1.442101	-0.000170
1051	1.0447e+02	-1.8368	-4.735560	0.000497	4.965779	1.682451	-0.000199
1052	1.0457e+02	-1.8721	-4.876860	0.000355	3.546985	1.201751	-0.000142
1053	1.0467e+02	-1.9090	-5.094865	0.000547	5.472491	1.854130	-0.000219
1054	1.0477e+02	-1.9507	-5.288648	0.000486	4.864436	1.648116	-0.000195
1055	1.0487e+02	-2.0037	-5.425910	0.000345	3.445642	1.167415	-0.000138
1056	1.0497e+02	-2.0342	-5.643916	0.000547	5.472491	1.854130	-0.000219
1057	1.0507e+02	-2.0775	-5.801364	0.000395	3.952354	1.339094	-0.000158
1058	1.0517e+02	-2.1128	-5.970924	0.000426	4.256382	1.442101	-0.000170
1059	1.0527e+02	-2.1561	-6.160669	0.000476	4.763094	1.613780	-0.000191
1060	1.0537e+02	-2.1930	-6.301969	0.000355	3.546985	1.201751	-0.000142
1061	1.0547e+02	-2.2443	-6.455380	0.000385	3.851012	1.304758	-0.000154
1062	1.0557e+02	-2.2732	-6.693571	0.000598	5.979203	2.025809	-0.000239
1063	1.0567e+02	-2.3213	-6.826797	0.000334	3.344300	1.133079	-0.000134
1064	1.0577e+02	-2.3518	-7.040765	0.000537	5.371148	1.819794	-0.000215
1065	1.0587e+02	-2.3935	-7.202250	0.000405	4.053697	1.373430	-0.000162
1066	1.0597e+02	-2.4368	-7.375847	0.000436	4.357724	1.476437	-0.000174
1067	1.0607e+02	-2.4625	-7.541370	0.000416	4.155039	1.407765	-0.000166
1068	1.0617e+02	-2.5106	-7.723041	0.000456	4.560409	1.545108	-0.000183
1069	1.0627e+02	-2.5443	-7.904712	0.000456	4.560409	1.545108	-0.000183
1070	1.0637e+02	-2.5956	-8.070234	0.000416	4.155039	1.407765	-0.000166
1071	1.0647e+02	-2.6277	-8.195386	0.000314	3.141615	1.064408	-0.000126
1072	1.0656e+02	-2.6678	-8.425502	0.000578	5.776518	1.957137	-0.000231
1073	1.0666e+02	-2.7208	-8.599099	0.000436	4.357724	1.476437	-0.000174
1074	1.0676e+02	-2.7448	-8.744436	0.000365	3.648327	1.236087	-0.000146
1075	1.0686e+02	-2.7946	-8.905921	0.000405	4.053697	1.373430	-0.000162
1076	1.0696e+02	-2.8251	-9.115852	0.000527	5.269806	1.785459	-0.000211
1077	1.0706e+02	-2.8668	-9.281375	0.000416	4.155039	1.407765	-0.000166
1078	1.0716e+02	-2.9149	-9.479195	0.000497	4.965779	1.682451	-0.000199
1079	1.0726e+02	-2.9534	-9.612420	0.000334	3.344300	1.133079	-0.000134
1080	1.0736e+02	-2.9855	-9.765831	0.000385	3.851012	1.304758	-0.000154
1081	1.0746e+02	-3.0240	-9.903094	0.000345	3.445642	1.167415	-0.000138
1082	1.0756e+02	-3.0657	-10.121099	0.000547	5.472491	1.854130	-0.000219
1083	1.0766e+02	-3.1074	-10.314882	0.000486	4.864436	1.648116	-0.000195
1084	1.0776e+02	-3.1523	-10.452144	0.000345	3.445642	1.167415	-0.000138
1085	1.0786e+02	-3.1956	-10.637853	0.000466	4.661751	1.579444	-0.000187
1086	1.0796e+02	-3.2293	-10.754930	0.000294	2.938930	0.995736	-0.000118
1087	1.0806e+02	-3.2710	-10.924489	0.000426	4.256382	1.442101	-0.000170
1088	1.0816e+02	-3.3176	-11.098086	0.000436	4.357724	1.476437	-0.000174
1089	1.0826e+02	-3.3480	-11.279757	0.000456	4.560409	1.545108	-0.000183
1090	1.0836e+02	-3.3817	-11.392797	0.000284	2.837588	0.961401	-0.000114
1091	1.0845e+02	-3.4282	-11.578505	0.000466	4.661751	1.579444	-0.000187
1092	1.0855e+02	-3.4700	-11.739991	0.000405	4.053697	1.373430	-0.000162
1093	1.0865e+02	-3.5036	-11.905513	0.000416	4.155039	1.407765	-0.000166
1094	1.0875e+02	-3.5486	-12.066999	0.000405	4.053697	1.373430	-0.000162
1095	1.0885e+02	-3.5871	-12.236558	0.000426	4.256382	1.442101	-0.000170
1096	1.0895e+02	-3.6272	-12.406118	0.000426	4.256382	1.442101	-0.000170
1097	1.0905e+02	-3.6705	-12.563566	0.000395	3.952354	1.339094	-0.000158
1098	1.0915e+02	-3.7058	-12.692755	0.000324	3.242957	1.098744	-0.000130
1099	1.0925e+02	-3.7475	-12.866352	0.000436	4.357724	1.476437	-0.000174
1100	1.0935e+02	-3.7908	-13.015726	0.000375	3.749670	1.270422	-0.000150
1101	1.0945e+02	-3.8293	-13.169137	0.000385	3.851012	1.304758	-0.000154
1102	1.0955e+02	-3.8534	-13.334659	0.000416	4.155039	1.407765	-0.000166
1103	1.0965e+02	-3.9047	-13.471922	0.000345	3.445642	1.167415	-0.000138
1104	1.0975e+02	-3.9448	-13.657630	0.000466	4.661751	1.579444	-0.000187
1105	1.0985e+02	-3.9801	-13.782781	0.000314	3.141615	1.064408	-0.000126
1106	1.0995e+02	-4.0330	-13.956378	0.000436	4.357724	1.476437	-0.000174
1107	1.1005e+02	-4.0603	-14.101715	0.000365	3.648327	1.236087	-0.000146
1108	1.1015e+02	-4.1020	-14.234941	0.000334	3.344300	1.133079	-0.000134
1109	1.1025e+02	-4.1437	-14.400463	0.000416	4.155039	1.407765	-0.000166
1110	1.1035e+02	-4.1822	-14.541763	0.000355	3.546985	1.201751	-0.000142
1111	1.1044e+02	-4.2255	-14.711323	0.000426	4.256382	1.442101	-0.000170
1112	1.1054e+02	-4.2657	-14.848585	0.000345	3.445642	1.167415	-0.000138
1113	1.1064e+02	-4.3122	-15.001996	0.000385	3.851012	1.304758	-0.000154
1114	1.1074e+02	-4.3475	-15.147333	0.000365	3.648327	1.236087	-0.000146
1115	1.1084e+02	-4.3812	-15.316893	0.000426	4.256382	1.442101	-0.000170
1116	1.1094e+02	-4.4261	-15.454156	0.000345	3.445642	1.167415	-0.000138
1117	1.1104e+02	-4.4630	-15.587381	0.000334	3.344300	1.133079	-0.000134
1118	1.1114e+02	-4.5111	-15.724644	0.000345	3.445642	1.167415	-0.000138
1119	1.1124e+02	-4.5432	-15.865943	0.000355	3.546985	1.201751	-0.000142
1120	1.1134e+02	-4.5769	-16.031466	0.000416	4.155039	1.407765	-0.000166
1121	1.1144e+02	-4.6330	-16.196989	0.000416	4.155039	1.407765	-0.000166
1122	1.1154e+02	-4.6699	-16.342325	0.000365	3.648327	1.236087	-0.000146
1123	1.1164e+02	-4.7068	-16.439217	0.000243	2.432218	0.824058	-0.000097
1124	1.1174e+02	-4.7389	-16.600702	0.000405	4.053697	1.373430	-0.000162
1125	1.1184e+02	-4.7822	-16.758150	0.000395	3.952354	1.339094	-0.000158
1126	1.1194e+02	-4.8159	-16.895413	0.000345	3.445642	1.167415	-0.000138
1127	1.1204e+02	-4.8737	-17.028639	0.000334	3.344300	1.133079	-0.000134
1128	1.1214e+02	-4.8993	-17.173975	0.000365	3.648327	1.236087	-0.000146
1129	1.1224e+02	-4.9442	-17.311238	0.000345	3.445642	1.167415	-0.000138
1130	1.1234e+02	-4.9876	-17.456575	0.000365	3.648327	1.236087	-0.000146
1131	1.1244e+02	-5.0212	-17.626135	0.000426	4.256382	1.442101	-0.000170
1132	1.1253e+02	-5.0614	-17.723026	0.000243	2.432218	0.824058	-0.000097
1133	1.1263e+02	-5.0983	-17.916808	0.000486	4.864436	1.648116	-0.000195
1134	1.1273e+02	-5.1432	-18.062145	0.000365	3.648327	1.236087	-0.000146
1135	1.1283e+02	-5.1833	-18.195371	0.000334	3.344300	1.133079	-0.000134
1136	1.1293e+02	-5.2202	-18.308411	0.000284	2.837588	0.961401	-0.000114
1137	1.1303e+02	-5.2539	-18.433562	0.000314	3.141615	1.064408	-0.000126
1138	1.1313e+02	-5.2908	-18.615233	0.000456	4.560409	1.545108	-0.000183
1139	1.1323e+02	-5.3453	-18.716161	0.000253	2.533560	0.858394	-0.000101
1140	1.1333e+02	-5.3742	-18.853424	0.000345	3.445642	1.167415	-0.000138
1141	1.1343e+02	-5.4127	-18.998761	0.000365	3.648327	1.236087	-0.000146
1142	1.1353e+02	-5.4528	-19.119875	0.000304	3.040273	1.030072	-0.000122
1143	1.1363e+02	-5.4977	-19.285397	0.000416	4.155039	1.407765	-0.000166
1144	1.1373e+02	-5.5362	-19.430734	0.000365	3.648327	1.236087	-0.000146
1145	1.1383e+02	-5.5827	-19.555886	0.000314	3.141615	1.064408	-0.000126
1146	1.1393e+02	-5.6132	-19.697185	0.000355	3.546985	1.201751	-0.000142
1147	1.1403e+02	-5.6678	-19.818299	0.000304	3.040273	1.030072	-0.000122
1148	1.1413e+02	-5.6998	-19.979785	0.000405	4.053697	1.373430	-0.000162
1149	1.1423e+02	-5.7335	-20.080713	0.000253	2.533560	0.858394	-0.000101
1150	1.1433e+02	-5.7784	-20.217976	0.000345	3.445642	1.167415	-0.000138
1151	1.1442e+02	-5.8250	-20.331016	0.000284	2.837588	0.961401	-0.000114
1152	1.1452e+02	-5.8603	-20.472315	0.000355	3.546985	1.201751	-0.000142
1153	1.1462e+02	-5.8972	-20.621689	0.000375	3.749670	1.270422	-0.000150
1154	1.1472e+02	-5.9357	-20.754915	0.000334	3.344300	1.133079	-0.000134
1155	1.1482e+02	-5.9822	-20.916400	0.000405	4.053697	1.373430	-0.000162
1156	1.1492e+02	-6.0271	-21.017329	0.000253	2.533560	0.858394	-0.000101
1157	1.1502e+02	-6.0608	-21.130368	0.000284	2.837588	0.961401	-0.000114
1158	1.1512e+02	-6.0961	-21.283780	0.000385	3.851012	1.304758	-0.000154
1159	1.1522e+02	-6.1330	-21.404894	0.000304	3.040273	1.030072	-0.000122
1160	1.1532e+02	-6.1827	-21.534082	0.000324	3.242957	1.098744	-0.000130
1161	1.1542e+02	-6.2260	-21.675382	0.000355	3.546985	1.201751	-0.000142
1162	1.1552e+02	-6.2726	-21.812644	0.000345	3.445642	1.167415	-0.000138
1163	1.1562e+02	-6.2982	-21.933758	0.000304	3.040273	1.030072	-0.000122
1164	1.1572e+02	-6.3463	-22.066984	0.000334	3.344300	1.133079	-0.000134
1165	1.1582e+02	-6.3800	-22.180024	0.000284	2.837588	0.961401	-0.000114
1166	1.1592e+02	-6.4233	-22.301138	0.000304	3.040273	1.030072	-0.000122
1167	1.1602e+02	-6.4554	-22.430326	0.000324	3.242957	1.098744	-0.000130
1168	1.1612e+02	-6.4971	-22.571626	0.000355	3.546985	1.201751	-0.000142
1169	1.1622e+02	-6.5324	-22.704851	0.000334	3.344300	1.133079	-0.000134
1170	1.1632e+02	-6.5790	-22.862300	0.000395	3.952354	1.339094	-0.000158
1171	1.1642e+02	-6.6175	-22.955154	0.000233	2.330876	0.789722	-0.000093
1172	1.1651e+02	-6.6576	-23.088379	0.000334	3.344300	1.133079	-0.000134
1173	1.1661e+02	-6.6945	-23.181233	0.000233	2.330876	0.789722	-0.000093
1174	1.1671e+02	-6.7378	-23.306385	0.000314	3.141615	1.064408	-0.000126
1175	1.1681e+02	-6.7667	-23.443647	0.000345	3.445642	1.167415	-0.000138
1176	1.1691e+02	-6.8084	-23.601096	0.000395	3.952354	1.339094	-0.000158
1177	1.1701e+02	-6.8485	-23.722210	0.000304	3.040273	1.030072	-0.000122
1178	1.1711e+02	-6.8982	-23.847361	0.000314	3.141615	1.064408	-0.000126
1179	1.1721e+02	-6.9319	-23.948289	0.000253	2.533560	0.858394	-0.000101
1180	1.1731e+02	-6.9704	-24.101700	0.000385	3.851012	1.304758	-0.000154
1181	1.1741e+02	-7.0121	-24.218777	0.000294	2.938930	0.995736	-0.000118
1182	1.1751e+02	-7.0554	-24.376226	0.000395	3.952354	1.339094	-0.000158
1183	1.1761e+02	-7.0955	-24.481191	0.000263	2.634903	0.892729	-0.000105
1184	1.1771e+02	-7.1260	-24.606342	0.000314	3.141615	1.064408	-0.000126
1185	1.1781e+02	-7.1773	-24.735531	0.000324	3.242957	1.098744	-0.000130
1186	1.1791e+02	-7.2110	-24.872793	0.000345	3.445642	1.167415	-0.000138
1187	1.1801e+02	-7.2479	-24.953536	0.000203	2.026848	0.686715	-0.000081
1188	1.1811e+02	-7.2896	-25.110984	0.000395	3.952354	1.339094	-0.000158
1189	1.1821e+02	-7.3281	-25.232098	0.000304	3.040273	1.030072	-0.000122
1190	1.1831e+02	-7.3714	-25.377435	0.000365	3.648327	1.236087	-0.000146
1191	1.1841e+02	-7.4100	-25.490475	0.000284	2.837588	0.961401	-0.000114
1192	1.1850e+02	-7.4485	-25.635812	0.000365	3.648327	1.236087	-0.000146
1193	1.1860e+02	-7.4950	-25.769037	0.000334	3.344300	1.133079	-0.000134
1194	1.1870e+02	-7.5319	-25.841706	0.000182	1.824164	0.618043	-0.000073
1195	1.1880e+02	-7.5784	-25.966857	0.000314	3.141615	1.064408	-0.000126
1196	1.1890e+02	-7.6169	-26.128342	0.000405	4.053697	1.373430	-0.000162
1197	1.1900e+02	-7.6506	-26.269642	0.000355	3.546985	1.201751	-0.000142
1198	1.1910e+02	-7.6955	-26.378645	0.000274	2.736245	0.927065	-0.000110
1199	1.1920e+02	-7.7260	-26.503796	0.000314	3.141615	1.064408	-0.000126
1200	1.1930e+02	-7.7645	-26.624910	0.000304	3.040273	1.030072	-0.000122
1201	1.1940e+02	-7.8126	-26.729876	0.000263	2.634903	0.892729	-0.000105
1202	1.1950e+02	-7.8463	-26.895398	0.000416	4.155039	1.407765	-0.000166
1203	1.1960e+02	-7.8880	-27.008438	0.000284	2.837588	0.961401	-0.000114
1204	1.1970e+02	-7.9201	-27.117441	0.000274	2.736245	0.927065	-0.000110
1205	1.1980e+02	-7.9682	-27.234518	0.000294	2.938930	0.995736	-0.000118
1206	1.1990e+02	-8.0019	-27.383892	0.000375	3.749670	1.270422	-0.000150
1207	1.2000e+02	-8.0532	-27.480783	0.000243	2.432218	0.824058	-0.000097
1208	1.2010e+02	-8.0901	-27.569600	0.000223	2.229533	0.755386	-0.000089
1209	1.2020e+02	-8.1206	-27.743197	0.000436	4.357724	1.476437	-0.000174
1210	1.2030e+02	-8.1623	-27.896608	0.000385	3.851012	1.304758	-0.000154
1211	1.2039e+02	-8.2073	-27.997536	0.000253	2.533560	0.858394	-0.000101
1212	1.2049e+02	-8.2474	-28.126725	0.000324	3.242957	1.098744	-0.000130
1213	1.2059e+02	-8.2907	-28.223616	0.000243	2.432218	0.824058	-0.000097
1214	1.2069e+02	-8.3244	-28.377027	0.000385	3.851012	1.304758	-0.000154
1215	1.2079e+02	-8.3629	-28.481993	0.000263	2.634903	0.892729	-0.000105
1216	1.2089e+02	-8.4078	-28.619255	0.000345	3.445642	1.167415	-0.000138
1217	1.2099e+02	-8.4543	-28.740369	0.000304	3.040273	1.030072	-0.000122
1218	1.2109e+02	-8.4880	-28.821112	0.000203	2.026848	0.686715	-0.000081
1219	1.2119e+02	-8.5345	-28.998746	0.000446	4.459066	1.510773	-0.000179
1220	1.2129e+02	-8.5650	-29.136009	0.000345	3.445642	1.167415	-0.000138
1221	1.2139e+02	-8.6051	-29.216751	0.000203	2.026848	0.686715	-0.000081
1222	1.2149e+02	-8.6340	-29.354014	0.000345	3.445642	1.167415	-0.000138
1223	1.2159e+02	-8.6805	-29.479165	0.000314	3.141615	1.064408	-0.000126
1224	1.2169e+02	-8.7238	-29.608354	0.000324	3.242957	1.098744	-0.000130
1225	1.2179e+02	-8.7607	-29.709282	0.000253	2.533560	0.858394	-0.000101
1226	1.2189e+02	-8.8024	-29.818285	0.000274	2.736245	0.927065	-0.000110
1227	1.2199e+02	-8.8425	-29.959584	0.000355	3.546985	1.201751	-0.000142
1228	1.2209e+02	-8.8874	-30.104921	0.000365	3.648327	1.236087	-0.000146
1229	1.2219e+02	-8.9227	-30.189701	0.000213	2.128191	0.721051	-0.000085
1230	1.2229e+02	-8.9709	-30.339075	0.000375	3.749670	1.270422	-0.000150
1231	1.2239e+02	-9.0030	-30.452115	0.000284	2.837588	0.961401	-0.000114
1232	1.2248e+02	-9.0527	-30.569192	0.000294	2.938930	0.995736	-0.000118
1233	1.2258e+02	-9.0816	-30.730677	0.000405	4.053697	1.373430	-0.000162
1234	1.2268e+02	-9.1217	-30.803346	0.000182	1.824164	0.618043	-0.000073
1235	1.2278e+02	-9.1666	-30.948683	0.000365	3.648327	1.236087	-0.000146
1236	1.2288e+02	-9.1987	-31.041537	0.000233	2.330876	0.789722	-0.000093
1237	1.2298e+02	-9.2500	-31.198985	0.000395	3.952354	1.339094	-0.000158
1238	1.2308e+02	-9.2869	-31.291839	0.000233	2.330876	0.789722	-0.000093
1239	1.2318e+02	-9.3206	-31.408916	0.000294	2.938930	0.995736	-0.000118
1240	1.2328e+02	-9.3591	-31.513882	0.000263	2.634903	0.892729	-0.000105
1241	1.2338e+02	-9.4072	-31.643070	0.000324	3.242957	1.098744	-0.000130
1242	1.2348e+02	-9.4586	-31.780333	0.000345	3.445642	1.167415	-0.000138
1243	1.2358e+02	-9.4842	-31.844927	0.000162	1.621479	0.549372	-0.000065
1244	1.2368e+02	-9.5147	-32.026598	0.000456	4.560409	1.545108	-0.000183
1245	1.2378e+02	-9.5676	-32.139638	0.000284	2.837588	0.961401	-0.000114
1246	1.2388e+02	-9.5949	-32.272863	0.000334	3.344300	1.133079	-0.000134
1247	1.2398e+02	-9.6479	-32.430311	0.000395	3.952354	1.339094	-0.000158
1248	1.2408e+02	-9.6880	-32.535277	0.000263	2.634903	0.892729	-0.000105
1249	1.2418e+02	-9.7152	-32.652354	0.000294	2.938930	0.995736	-0.000118
1250	1.2428e+02	-9.7618	-32.769431	0.000294	2.938930	0.995736	-0.000118
1251	1.2438e+02	-9.7987	-32.894582	0.000314	3.141615	1.064408	-0.000126
1252	1.2447e+02	-9.8436	-32.995510	0.000253	2.533560	0.858394	-0.000101
1253	1.2457e+02	-9.8805	-33.080290	0.000213	2.128191	0.721051	-0.000085
1254	1.2467e+02	-9.9238	-33.229664	0.000375	3.749670	1.270422	-0.000150
1255	1.2477e+02	-9.9703	-33.330593	0.000253	2.533560	0.858394	-0.000101
1256	1.2487e+02	-9.9976	-33.467855	0.000345	3.445642	1.167415	-0.000138
1257	1.2497e+02	-10.0441	-33.584932	0.000294	2.938930	0.995736	-0.000118
1258	1.2507e+02	-10.0810	-33.697972	0.000284	2.837588	0.961401	-0.000114
1259	1.2517e+02	-10.1259	-33.811012	0.000284	2.837588	0.961401	-0.000114
1260	1.2527e+02	-10.1596	-33.952312	0.000355	3.546985	1.201751	-0.000142
1261	1.2537e+02	-10.1997	-34.041129	0.000223	2.229533	0.755386	-0.000089
1262	1.2547e+02	-10.2494	-34.198577	0.000395	3.952354	1.339094	-0.000158
1263	1.2557e+02	-10.2847	-34.247022	0.000122	1.216109	0.412029	-0.000049
1264	1.2567e+02	-10.3200	-34.376211	0.000324	3.242957	1.098744	-0.000130
1265	1.2577e+02	-10.3553	-34.525585	0.000375	3.749670	1.270422	-0.000150
1266	1.2587e+02	-10.3954	-34.622476	0.000243	2.432218	0.824058	-0.000097
1267	1.2597e+02	-10.4452	-34.743590	0.000304	3.040273	1.030072	-0.000122
1268	1.2607e+02	-10.4772	-34.856630	0.000284	2.837588	0.961401	-0.000114
1269	1.2617e+02	-10.5190	-34.949484	0.000233	2.330876	0.789722	-0.000093
1270	1.2627e+02	-10.5623	-35.090784	0.000355	3.546985	1.201751	-0.000142
1271	1.2636e+02	-10.5960	-35.191712	0.000253	2.533560	0.858394	-0.000101
1272	1.2646e+02	-10.6361	-35.328975	0.000345	3.445642	1.167415	-0.000138
1273	1.2656e+02	-10.6778	-35.433940	0.000263	2.634903	0.892729	-0.000105
1274	1.2666e+02	-10.7211	-35.555054	0.000304	3.040273	1.030072	-0.000122
1275	1.2676e+02	-10.7676	-35.680206	0.000314	3.141615	1.064408	-0.000126
1276	1.2686e+02	-10.7901	-35.781134	0.000253	2.533560	0.858394	-0.000101
1277	1.2696e+02	-10.8366	-35.890137	0.000274	2.736245	0.927065	-0.000110
1278	1.2706e+02	-10.8735	-36.003177	0.000284	2.837588	0.961401	-0.000114
1279	1.2716e+02	-10.9200	-36.140439	0.000345	3.445642	1.167415	-0.000138
1280	1.2726e+02	-10.9521	-36.277702	0.000345	3.445642	1.167415	-0.000138
1281	1.2736e+02	-10.9938	-36.350370	0.000182	1.824164	0.618043	-0.000073
1282	1.2746e+02	-11.0419	-36.467447	0.000294	2.938930	0.995736	-0.000118
1283	1.2756e+02	-11.0756	-36.608747	0.000355	3.546985	1.201751	-0.000142
1284	1.2766e+02	-11.1125	-36.653155	0.000111	1.114767	0.377693	-0.000045
1285	1.2776e+02	-11.1526	-36.794455	0.000355	3.546985	1.201751	-0.000142
1286	1.2786e+02	-11.2024	-36.907495	0.000284	2.837588	0.961401	-0.000114
1287	1.2796e+02	-11.2296	-37.012460	0.000263	2.634903	0.892729	-0.000105
1288	1.2806e+02	-11.2633	-37.129537	0.000294	2.938930	0.995736	-0.000118
1289	1.2816e+02	-11.3082	-37.234503	0.000263	2.634903	0.892729	-0.000105
1290	1.2826e+02	-11.3596	-37.355617	0.000304	3.040273	1.030072	-0.000122
1291	1.2835e+02	-11.3981	-37.484805	0.000324	3.242957	1.098744	-0.000130
1292	1.2845e+02	-11.4382	-37.581697	0.000243	2.432218	0.824058	-0.000097
1293	1.2855e+02	-11.4767	-37.694736	0.000284	2.837588	0.961401	-0.000114
1294	1.2865e+02	-11.5328	-37.775479	0.000203	2.026848	0.686715	-0.000081
1295	1.2875e+02	-11.5601	-37.924853	0.000375	3.749670	1.270422	-0.000150
1296	1.2885e+02	-11.5906	-38.029819	0.000263	2.634903	0.892729	-0.000105
1297	1.2895e+02	-11.6291	-38.126710	0.000243	2.432218	0.824058	-0.000097
1298	1.2905e+02	-11.6804	-38.227638	0.000253	2.533560	0.858394	-0.000101
1299	1.2915e+02	-11.7141	-38.336641	0.000274	2.736245	0.927065	-0.000110
1300	1.2925e+02	-11.7654	-38.449681	0.000284	2.837588	0.961401	-0.000114
1301	1.2935e+02	-11.8007	-38.510238	0.000152	1.520136	0.515036	-0.000061
1302	1.2945e+02	-11.8376	-38.667686	0.000395	3.952354	1.339094	-0.000158
1303	1.2955e+02	-11.8793	-38.784763	0.000294	2.938930	0.995736	-0.000118
1304	1.2965e+02	-11.9098	-38.885691	0.000253	2.533560	0.858394	-0.000101
1305	1.2975e+02	-11.9499	-39.010843	0.000314	3.141615	1.064408	-0.000126
1306	1.2985e+02	-11.9916	-39.107734	0.000243	2.432218	0.824058	-0.000097
1307	1.2995e+02	-12.0334	-39.188477	0.000203	2.026848	0.686715	-0.000081
1308	1.3005e+02	-12.0735	-39.261145	0.000182	1.824164	0.618043	-0.000073
1309	1.3015e+02	-12.1104	-39.418593	0.000395	3.952354	1.339094	-0.000158
1310	1.3025e+02	-12.1553	-39.519522	0.000253	2.533560	0.858394	-0.000101
1311	1.3034e+02	-12.1890	-39.628524	0.000274	2.736245	0.927065	-0.000110
1312	1.3044e+02	-12.2419	-39.741564	0.000284	2.837588	0.961401	-0.000114
1313	1.3054e+02	-12.2740	-39.866715	0.000314	3.141615	1.064408	-0.000126
1314	1.3064e+02	-12.3077	-39.975718	0.000274	2.736245	0.927065	-0.000110
1315	1.3074e+02	-12.3446	-40.052424	0.000193	1.925506	0.652379	-0.000077
1316	1.3084e+02	-12.3863	-40.181612	0.000324	3.242957	1.098744	-0.000130
1317	1.3094e+02	-12.4328	-40.314837	0.000334	3.344300	1.133079	-0.000134
1318	1.3104e+02	-12.4761	-40.359246	0.000111	1.114767	0.377693	-0.000045
1319	1.3114e+02	-12.5114	-40.488434	0.000324	3.242957	1.098744	-0.000130
1320	1.3124e+02	-12.5499	-40.561103	0.000182	1.824164	0.618043	-0.000073
1321	1.3134e+02	-12.5900	-40.682217	0.000304	3.040273	1.030072	-0.000122
1322	1.3144e+02	-12.6317	-40.795257	0.000284	2.837588	0.961401	-0.000114
1323	1.3154e+02	-12.6718	-40.900222	0.000263	2.634903	0.892729	-0.000105
1324	1.3164e+02	-12.7055	-41.005188	0.000263	2.634903	0.892729	-0.000105
1325	1.3174e+02	-12.7537	-41.085930	0.000203	2.026848	0.686715	-0.000081
1326	1.3184e+02	-12.7938	-41.243379	0.000395	3.952354	1.339094	-0.000158
1327	1.3194e+02	-12.8307	-41.324121	0.000203	2.026848	0.686715	-0.000081
1328	1.3204e+02	-12.8676	-41.408901	0.000213	2.128191	0.721051	-0.000085
1329	1.3214e+02	-12.9028	-41.530015	0.000304	3.040273	1.030072	-0.000122
1330	1.3224e+02	-12.9462	-41.606721	0.000193	1.925506	0.652379	-0.000077
1331	1.3234e+02	-12.9815	-41.715724	0.000274	2.736245	0.927065	-0.000110
1332	1.3243e+02	-13.0280	-41.824726	0.000274	2.736245	0.927065	-0.000110
1333	1.3253e+02	-13.0745	-41.917580	0.000233	2.330876	0.789722	-0.000093
1334	1.3263e+02	-13.1114	-42.018509	0.000253	2.533560	0.858394	-0.000101
1335	1.3273e+02	-13.1419	-42.151734	0.000334	3.344300	1.133079	-0.000134
1336	1.3283e+02	-13.1852	-42.272848	0.000304	3.040273	1.030072	-0.000122
1337	1.3293e+02	-13.2285	-42.353591	0.000203	2.026848	0.686715	-0.000081
1338	1.3303e+02	-13.2718	-42.434334	0.000203	2.026848	0.686715	-0.000081
1339	1.3313e+02	-13.3103	-42.551411	0.000294	2.938930	0.995736	-0.000118
1340	1.3323e+02	-13.3472	-42.656376	0.000263	2.634903	0.892729	-0.000105
1341	1.3333e+02	-13.3921	-42.761342	0.000263	2.634903	0.892729	-0.000105
1342	1.3343e+02	-13.4322	-42.886493	0.000314	3.141615	1.064408	-0.000126
1343	1.3353e+02	-13.4659	-42.959161	0.000182	1.824164	0.618043	-0.000073
1344	1.3363e+02	-13.4948	-43.068164	0.000274	2.736245	0.927065	-0.000110
1345	1.3373e+02	-13.5429	-43.185241	0.000294	2.938930	0.995736	-0.000118
1346	1.3383e+02	-13.5927	-43.265984	0.000203	2.026848	0.686715	-0.000081
1347	1.3393e+02	-13.6215	-43.383061	0.000294	2.938930	0.995736	-0.000118
1348	1.3403e+02	-13.6584	-43.500138	0.000294	2.938930	0.995736	-0.000118
1349	1.3413e+02	-13.7098	-43.576843	0.000193	1.925506	0.652379	-0.000077
1350	1.3423e+02	-13.7531	-43.701994	0.000314	3.141615	1.064408	-0.000126
1351	1.3432e+02	-13.7868	-43.794848	0.000233	2.330876	0.789722	-0.000093
1352	1.3442e+02	-13.8301	-43.940185	0.000365	3.648327	1.236087	-0.000146
1353	1.3452e+02	-13.8638	-43.984594	0.000111	1.114767	0.377693	-0.000045
1354	1.3462e+02	-13.9071	-44.089559	0.000263	2.634903	0.892729	-0.000105
1355	1.3472e+02	-13.9392	-44.202599	0.000284	2.837588	0.961401	-0.000114
1356	1.3482e+02	-13.9873	-44.323713	0.000304	3.040273	1.030072	-0.000122
1357	1.3492e+02	-14.0306	-44.420605	0.000243	2.432218	0.824058	-0.000097
1358	1.3502e+02	-14.0675	-44.525570	0.000263	2.634903	0.892729	-0.000105
1359	1.3512e+02	-14.0996	-44.670907	0.000365	3.648327	1.236087	-0.000146
1360	1.3522e+02	-14.1397	-44.759724	0.000223	2.229533	0.755386	-0.000089
1361	1.3532e+02	-14.1814	-44.868727	0.000274	2.736245	0.927065	-0.000110
1362	1.3542e+02	-14.2247	-44.933321	0.000162	1.621479	0.549372	-0.000065
1363	1.3552e+02	-14.2584	-45.066546	0.000334	3.344300	1.133079	-0.000134
1364	1.3562e+02	-14.3065	-45.151326	0.000213	2.128191	0.721051	-0.000085
1365	1.3572e+02	-14.3450	-45.244180	0.000233	2.330876	0.789722	-0.000093
1366	1.3582e+02	-14.3803	-45.349146	0.000263	2.634903	0.892729	-0.000105
1367	1.3592e+02	-14.4221	-45.502557	0.000385	3.851012	1.304758	-0.000154
1368	1.3602e+02	-14.4654	-45.583300	0.000203	2.026848	0.686715	-0.000081
1369	1.3612e+02	-14.5039	-45.708451	0.000314	3.141615	1.064408	-0.000126
1370	1.3622e+02	-14.5520	-45.756896	0.000122	1.216109	0.412029	-0.000049
1371	1.3631e+02	-14.5809	-45.853788	0.000243	2.432218	0.824058	-0.000097
1372	1.3641e+02	-14.6162	-45.999125	0.000365	3.648327	1.236087	-0.000146
1373	1.3651e+02	-14.6611	-46.112164	0.000284	2.837588	0.961401	-0.000114
1374	1.3661e+02	-14.6916	-46.192907	0.000203	2.026848	0.686715	-0.000081
1375	1.3671e+02	-14.7365	-46.301910	0.000274	2.736245	0.927065	-0.000110
1376	1.3681e+02	-14.7814	-46.423024	0.000304	3.040273	1.030072	-0.000122
1377	1.3691e+02	-14.8215	-46.552212	0.000324	3.242957	1.098744	-0.000130
1378	1.3701e+02	-14.8632	-46.608732	0.000142	1.418794	0.480700	-0.000057
1379	1.3711e+02	-14.8937	-46.721772	0.000284	2.837588	0.961401	-0.000114
1380	1.3721e+02	-14.9434	-46.798477	0.000193	1.925506	0.652379	-0.000077
1381	1.3731e+02	-14.9803	-46.931703	0.000334	3.344300	1.133079	-0.000134
1382	1.3741e+02	-15.0220	-47.052817	0.000304	3.040273	1.030072	-0.000122
1383	1.3751e+02	-15.0589	-47.157783	0.000263	2.634903	0.892729	-0.000105
1384	1.3761e+02	-15.1022	-47.258711	0.000253	2.533560	0.858394	-0.000101
1385	1.3771e+02	-15.1359	-47.343491	0.000213	2.128191	0.721051	-0.000085
1386	1.3781e+02	-15.1825	-47.472679	0.000324	3.242957	1.098744	-0.000130
1387	1.3791e+02	-15.2306	-47.541310	0.000172	1.722821	0.583708	-0.000069
1388	1.3801e+02	-15.2675	-47.650313	0.000274	2.736245	0.927065	-0.000110
1389	1.3811e+02	-15.2932	-47.771427	0.000304	3.040273	1.030072	-0.000122
1390	1.3821e+02	-15.3397	-47.876393	0.000263	2.634903	0.892729	-0.000105
1391	1.3831e+02	-15.3846	-48.005581	0.000324	3.242957	1.098744	-0.000130
1392	1.3840e+02	-15.4215	-48.082287	0.000193	1.925506	0.652379	-0.000077
1393	1.3850e+02	-15.4488	-48.203401	0.000304	3.040273	1.030072	-0.000122
1394	1.3860e+02	-15.5001	-48.284143	0.000203	2.026848	0.686715	-0.000081
1395	1.3870e+02	-15.5434	-48.381035	0.000243	2.432218	0.824058	-0.000097
1396	1.3880e+02	-15.5819	-48.514260	0.000334	3.344300	1.133079	-0.000134
1397	1.3890e+02	-15.6236	-48.611151	0.000243	2.432218	0.824058	-0.000097
1398	1.3900e+02	-15.6669	-48.712080	0.000253	2.533560	0.858394	-0.000101
1399	1.3910e+02	-15.6990	-48.821082	0.000274	2.736245	0.927065	-0.000110
1400	1.3920e+02	-15.7359	-48.913937	0.000233	2.330876	0.789722	-0.000093
1401	1.3930e+02	-15.7760	-49.014865	0.000253	2.533560	0.858394	-0.000101
1402	1.3940e+02	-15.8177	-49.127905	0.000284	2.837588	0.961401	-0.000114
1403	1.3950e+02	-15.8546	-49.240945	0.000284	2.837588	0.961401	-0.000114
1404	1.3960e+02	-15.8963	-49.325724	0.000213	2.128191	0.721051	-0.000085
1405	1.3970e+02	-15.9429	-49.422616	0.000243	2.432218	0.824058	-0.000097
1406	1.3980e+02	-15.9798	-49.559878	0.000345	3.445642	1.167415	-0.000138
1407	1.3990e+02	-16.0183	-49.685030	0.000314	3.141615	1.064408	-0.000126
1408	1.4000e+02	-16.0616	-49.773847	0.000223	2.229533	0.755386	-0.000089
1409	1.4010e+02	-16.0969	-49.866701	0.000233	2.330876	0.789722	-0.000093
1410	1.4020e+02	-16.1402	-49.999926	0.000334	3.344300	1.133079	-0.000134
1411	1.4029e+02	-16.1835	-50.044335	0.000111	1.114767	0.377693	-0.000045
1412	1.4039e+02	-16.2172	-50.189671	0.000365	3.648327	1.236087	-0.000146
1413	1.4049e+02	-16.2573	-50.274451	0.000213	2.128191	0.721051	-0.000085
1414	1.4059e+02	-16.2974	-50.387491	0.000284	2.837588	0.961401	-0.000114
1415	1.4069e+02	-16.3311	-50.488420	0.000253	2.533560	0.858394	-0.000101
1416	1.4079e+02	-16.3808	-50.625682	0.000345	3.445642	1.167415	-0.000138
1417	1.4089e+02	-16.4177	-50.730648	0.000263	2.634903	0.892729	-0.000105
1418	1.4099e+02	-16.4546	-50.863873	0.000334	3.344300	1.133079	-0.000134
1419	1.4109e+02	-16.4979	-50.932504	0.000172	1.722821	0.583708	-0.000069
1420	1.4119e+02	-16.5380	-51.013247	0.000203	2.026848	0.686715	-0.000081
1421	1.4129e+02	-16.5749	-51.182807	0.000426	4.256382	1.442101	-0.000170
1422	1.4139e+02	-16.6166	-51.271624	0.000223	2.229533	0.755386	-0.000089
1423	1.4149e+02	-16.6600	-51.340255	0.000172	1.722821	0.583708	-0.000069
1424	1.4159e+02	-16.6985	-51.461369	0.000304	3.040273	1.030072	-0.000122
1425	1.4169e+02	-16.7305	-51.554223	0.000233	2.330876	0.789722	-0.000093
1426	1.4179e+02	-16.7787	-51.626892	0.000182	1.824164	0.618043	-0.000073
1427	1.4189e+02	-16.8156	-51.780303	0.000385	3.851012	1.304758	-0.000154
1428	1.4199e+02	-16.8460	-51.857009	0.000193	1.925506	0.652379	-0.000077
1429	1.4209e+02	-16.8942	-52.010420	0.000385	3.851012	1.304758	-0.000154
1430	1.4219e+02	-16.9311	-52.046754	0.000091	0.912082	0.309022	-0.000037
1431	1.4228e+02	-16.9744	-52.179979	0.000334	3.344300	1.133079	-0.000134
1432	1.4238e+02	-17.0161	-52.317242	0.000345	3.445642	1.167415	-0.000138
1433	1.4248e+02	-17.0562	-52.406059	0.000223	2.229533	0.755386	-0.000089
1434	1.4258e+02	-17.0947	-52.523136	0.000294	2.938930	0.995736	-0.000118
1435	1.4268e+02	-17.1364	-52.640213	0.000294	2.938930	0.995736	-0.000118
1436	1.4278e+02	-17.1765	-52.737104	0.000243	2.432218	0.824058	-0.000097
1437	1.4288e+02	-17.2150	-52.805735	0.000172	1.722821	0.583708	-0.000069
1438	1.4298e+02	-17.2567	-52.942998	0.000345	3.445642	1.167415	-0.000138
1439	1.4308e+02	-17.3081	-53.023741	0.000203	2.026848	0.686715	-0.000081
1440	1.4318e+02	-17.3337	-53.136781	0.000284	2.837588	0.961401	-0.000114
1441	1.4328e+02	-17.3690	-53.205412	0.000172	1.722821	0.583708	-0.000069
1442	1.4338e+02	-17.4139	-53.346712	0.000355	3.546985	1.201751	-0.000142
1443	1.4348e+02	-17.4524	-53.403232	0.000142	1.418794	0.480700	-0.000057
1444	1.4358e+02	-17.4926	-53.508197	0.000263	2.634903	0.892729	-0.000105
1445	1.4368e+02	-17.5246	-53.649497	0.000355	3.546985	1.201751	-0.000142
1446	1.4378e+02	-17.5696	-53.730240	0.000203	2.026848	0.686715	-0.000081
1447	1.4388e+02	-17.6065	-53.847316	0.000294	2.938930	0.995736	-0.000118
1448	1.4398e+02	-17.6514	-53.940171	0.000233	2.330876	0.789722	-0.000093
1449	1.4408e+02	-17.6915	-54.085507	0.000365	3.648327	1.236087	-0.000146
1450	1.4418e+02	-17.7284	-54.150102	0.000162	1.621479	0.549372	-0.000065
1451	1.4428e+02	-17.7765	-54.246993	0.000243	2.432218	0.824058	-0.000097
1452	1.4437e+02	-17.8054	-54.343884	0.000243	2.432218	0.824058	-0.000097
1453	1.4447e+02	-17.8503	-54.469035	0.000314	3.141615	1.064408	-0.000126
1454	1.4457e+02	-17.8888	-54.565927	0.000243	2.432218	0.824058	-0.000097
1455	1.4467e+02	-17.9193	-54.654744	0.000223	2.229533	0.755386	-0.000089
1456	1.4477e+02	-17.9690	-54.771821	0.000294	2.938930	0.995736	-0.000118
1457	1.4487e+02	-18.0075	-54.864675	0.000233	2.330876	0.789722	-0.000093
1458	1.4497e+02	-18.0540	-54.977714	0.000284	2.837588	0.961401	-0.000114
1459	1.4507e+02	-18.0877	-55.046346	0.000172	1.722821	0.583708	-0.000069
1460	1.4517e+02	-18.1278	-55.163423	0.000294	2.938930	0.995736	-0.000118
1461	1.4527e+02	-18.1679	-55.292611	0.000324	3.242957	1.098744	-0.000130
1462	1.4537e+02	-18.2177	-55.385465	0.000233	2.330876	0.789722	-0.000093
1463	1.4547e+02	-18.2481	-55.506579	0.000304	3.040273	1.030072	-0.000122
1464	1.4557e+02	-18.2963	-55.615582	0.000274	2.736245	0.927065	-0.000110
1465	1.4567e+02	-18.3332	-55.700362	0.000213	2.128191	0.721051	-0.000085
1466	1.4577e+02	-18.3685	-55.821476	0.000304	3.040273	1.030072	-0.000122
1467	1.4587e+02	-18.4134	-55.946627	0.000314	3.141615	1.064408	-0.000126
1468	1.4597e+02	-18.4391	-55.982961	0.000091	0.912082	0.309022	-0.000037
1469	1.4607e+02	-18.4984	-56.120224	0.000345	3.445642	1.167415	-0.000138
1470	1.4617e+02	-18.5337	-56.225189	0.000263	2.634903	0.892729	-0.000105
1471	1.4626e+02	-18.5674	-56.370526	0.000365	3.648327	1.236087	-0.000146
1472	1.4636e+02	-18.6075	-56.443195	0.000182	1.824164	0.618043	-0.000073
1473	1.4646e+02	-18.6460	-56.515863	0.000182	1.824164	0.618043	-0.000073
1474	1.4656e+02	-18.6909	-56.661200	0.000365	3.648327	1.236087	-0.000146
1475	1.4666e+02	-18.7342	-56.737906	0.000193	1.925506	0.652379	-0.000077
1476	1.4676e+02	-18.7631	-56.822686	0.000213	2.128191	0.721051	-0.000085
1477	1.4686e+02	-18.8096	-56.959948	0.000345	3.445642	1.167415	-0.000138
1478	1.4696e+02	-18.8497	-57.020505	0.000152	1.520136	0.515036	-0.000061
1479	1.4706e+02	-18.8866	-57.137582	0.000294	2.938930	0.995736	-0.000118
1480	1.4716e+02	-18.9235	-57.250622	0.000284	2.837588	0.961401	-0.000114
1481	1.4726e+02	-18.9668	-57.391922	0.000355	3.546985	1.201751	-0.000142
1482	1.4736e+02	-19.0086	-57.496887	0.000263	2.634903	0.892729	-0.000105
1483	1.4746e+02	-19.0487	-57.569556	0.000182	1.824164	0.618043	-0.000073
1484	1.4756e+02	-19.0920	-57.674521	0.000263	2.634903	0.892729	-0.000105
1485	1.4766e+02	-19.1209	-57.775450	0.000253	2.533560	0.858394	-0.000101
1486	1.4776e+02	-19.1594	-57.892526	0.000294	2.938930	0.995736	-0.000118
1487	1.4786e+02	-19.1979	-58.005566	0.000284	2.837588	0.961401	-0.000114
1488	1.4796e+02	-19.2508	-58.058049	0.000132	1.317451	0.446365	-0.000053
1489	1.4806e+02	-19.2861	-58.219534	0.000405	4.053697	1.373430	-0.000162
1490	1.4816e+02	-19.3246	-58.312389	0.000233	2.330876	0.789722	-0.000093
1491	1.4825e+02	-19.3583	-58.385057	0.000182	1.824164	0.618043	-0.000073
1492	1.4835e+02	-19.4032	-58.518283	0.000334	3.344300	1.133079	-0.000134
1493	1.4845e+02	-19.4417	-58.635359	0.000294	2.938930	0.995736	-0.000118
1494	1.4855e+02	-19.4802	-58.716102	0.000203	2.026848	0.686715	-0.000081
1495	1.4865e+02	-19.5267	-58.877588	0.000405	4.053697	1.373430	-0.000162
1496	1.4875e+02	-19.5524	-58.954293	0.000193	1.925506	0.652379	-0.000077
1497	1.4885e+02	-19.5877	-59.047147	0.000233	2.330876	0.789722	-0.000093
1498	1.4895e+02	-19.6438	-59.156150	0.000274	2.736245	0.927065	-0.000110
1499	1.4905e+02	-19.6775	-59.261115	0.000263	2.634903	0.892729	-0.000105
1500	1.4915e+02	-19.7192	-59.353970	0.000233	2.330876	0.789722	-0.000093
1501	1.4925e+02	-19.7690	-59.454898	0.000253	2.533560	0.858394	-0.000101
1502	1.4935e+02	-19.8075	-59.576012	0.000304	3.040273	1.030072	-0.000122
1503	1.4945e+02	-19.8460	-59.701163	0.000314	3.141615	1.064408	-0.000126
1504	1.4955e+02	-19.8797	-59.769795	0.000172	1.722821	0.583708	-0.000069
1505	1.4965e+02	-19.9182	-59.866686	0.000243	2.432218	0.824058	-0.000097
1506	1.4975e+02	-19.9679	-59.971651	0.000263	2.634903	0.892729	-0.000105
1507	1.4985e+02	-20.0000	-60.108914	0.000345	3.445642	1.167415	-0.000138
1508	1.4995e+02	-19.9599	-60.084691	0.000061	0.608055	0.206014	0.000024
1509	1.5005e+02	-19.9198	-60.020097	0.000162	1.621479	0.549372	0.000065
1510	1.5015e+02	-19.8716	-59.967614	0.000132	1.317451	0.446365	0.000053
1511	1.5025e+02	-19.8347	-59.894946	0.000182	1.824164	0.618043	0.000073
1512	1.5034e+02	-19.7946	-59.838426	0.000142	1.418794	0.480700	0.000057
1513	1.5044e+02	-19.7690	-59.834389	0.000010	0.101342	0.034336	0.000004
1514	1.5054e+02	-19.7160	-59.737498	0.000243	2.432218	0.824058	0.000097
1515	1.5064e+02	-19.6775	-59.693089	0.000111	1.114767	0.377693	0.000045
1516	1.5074e+02	-19.6390	-59.652718	0.000101	1.013424	0.343357	0.000041
1517	1.5084e+02	-19.5989	-59.563901	0.000223	2.229533	0.755386	0.000089
1518	1.5094e+02	-19.5684	-59.523529	0.000101	1.013424	0.343357	0.000041
1519	1.5104e+02	-19.5283	-59.467009	0.000142	1.418794	0.480700	0.000057
1520	1.5114e+02	-19.4786	-59.390304	0.000193	1.925506	0.652379	0.000077
1521	1.5124e+02	-19.4449	-59.341858	0.000122	1.216109	0.412029	0.000049
1522	1.5134e+02	-19.4048	-59.269190	0.000182	1.824164	0.618043	0.000073
1523	1.5144e+02	-19.3695	-59.212670	0.000142	1.418794	0.480700	0.000057
1524	1.5154e+02	-19.3230	-59.168261	0.000111	1.114767	0.377693	0.000045
1525	1.5164e+02	-19.2909	-59.095593	0.000182	1.824164	0.618043	0.000073
1526	1.5174e+02	-19.2444	-58.974479	0.000304	3.040273	1.030072	0.000122
1527	1.5184e+02	-19.2091	-58.990627	-0.000041	-0.405370	-0.137343	-0.000016
1528	1.5194e+02	-19.1642	-58.885662	0.000263	2.634903	0.892729	0.000105
1529	1.5204e+02	-19.1289	-58.825105	0.000152	1.520136	0.515036	0.000061
1530	1.5214e+02	-19.0952	-58.748399	0.000193	1.925506	0.652379	0.000077
1531	1.5224e+02	-19.0390	-58.699954	0.000122	1.216109	0.412029	0.000049
1532	1.5233e+02	-18.9957	-58.631322	0.000172	1.722821	0.583708	0.000069
1533	1.5243e+02	-18.9668	-58.558654	0.000182	1.824164	0.618043	0.000073
1534	1.5253e+02	-18.9283	-58.522320	0.000091	0.912082	0.309022	0.000037
1535	1.5263e+02	-18.8850	-58.425428	0.000243	2.432218	0.824058	0.000097
1536	1.5273e+02	-18.8481	-58.397168	0.000071	0.709397	0.240350	0.000028
1537	1.5283e+02	-18.8080	-58.300277	0.000243	2.432218	0.824058	0.000097
1538	1.5293e+02	-18.7695	-58.211460	0.000223	2.229533	0.755386	0.000089
1539	1.5303e+02	-18.7166	-58.163015	0.000122	1.216109	0.412029	0.000049
1540	1.5313e+02	-18.6829	-58.090346	0.000182	1.824164	0.618043	0.000073
1541	1.5323e+02	-18.6460	-58.029789	0.000152	1.520136	0.515036	0.000061
1542	1.5333e+02	-18.6091	-57.953084	0.000193	1.925506	0.652379	0.000077
1543	1.5343e+02	-18.5658	-57.884452	0.000172	1.722821	0.583708	0.000069
1544	1.5353e+02	-18.5305	-57.803709	0.000203	2.026848	0.686715	0.000081
1545	1.5363e+02	-18.4856	-57.783524	0.000051	0.506712	0.171679	0.000020
1546	1.5373e+02	-18.4439	-57.670484	0.000284	2.837588	0.961401	0.000114
1547	1.5383e+02	-18.4054	-57.577630	0.000233	2.330876	0.789722	0.000093
1548	1.5393e+02	-18.3733	-57.525147	0.000132	1.317451	0.446365	0.000053
1549	1.5403e+02	-18.3300	-57.452479	0.000182	1.824164	0.618043	0.000073
1550	1.5413e+02	-18.2866	-57.379810	0.000182	1.824164	0.618043	0.000073
1551	1.5422e+02	-18.2433	-57.303105	0.000193	1.925506	0.652379	0.000077
1552	1.5432e+02	-18.2064	-57.218325	0.000213	2.128191	0.721051	0.000085
1553	1.5442e+02	-18.1695	-57.145656	0.000182	1.824164	0.618043	0.000073
1554	1.5452e+02	-18.1326	-57.056839	0.000223	2.229533	0.755386	0.000089
1555	1.5462e+02	-18.0861	-56.996282	0.000152	1.520136	0.515036	0.000061
1556	1.5472e+02	-18.0508	-56.947837	0.000122	1.216109	0.412029	0.000049
1557	1.5482e+02	-18.0043	-56.879205	0.000172	1.722821	0.583708	0.000069
1558	1.5492e+02	-17.9738	-56.786351	0.000233	2.330876	0.789722	0.000093
1559	1.5502e+02	-17.9337	-56.713683	0.000182	1.824164	0.618043	0.000073
1560	1.5512e+02	-17.8824	-56.632940	0.000203	2.026848	0.686715	0.000081
1561	1.5522e+02	-17.8535	-56.572383	0.000152	1.520136	0.515036	0.000061
1562	1.5532e+02	-17.8150	-56.519900	0.000132	1.317451	0.446365	0.000053
1563	1.5542e+02	-17.7701	-56.443195	0.000193	1.925506	0.652379	0.000077
1564	1.5552e+02	-17.7316	-56.330155	0.000284	2.837588	0.961401	0.000114
1565	1.5562e+02	-17.6963	-56.261524	0.000172	1.722821	0.583708	0.000069
1566	1.5572e+02	-17.6514	-56.156558	0.000263	2.634903	0.892729	0.000105
1567	1.5582e+02	-17.6145	-56.128298	0.000071	0.709397	0.240350	0.000028
1568	1.5592e+02	-17.5680	-56.067741	0.000152	1.520136	0.515036	0.000061
1569	1.5602e+02	-17.5327	-56.007184	0.000152	1.520136	0.515036	0.000061
1570	1.5612e+02	-17.4990	-55.898181	0.000274	2.736245	0.927065	0.000110
1571	1.5622e+02	-17.4476	-55.837624	0.000152	1.520136	0.515036	0.000061
1572	1.5631e+02	-17.4123	-55.768993	0.000172	1.722821	0.583708	0.000069
1573	1.5641e+02	-17.3770	-55.708436	0.000152	1.520136	0.515036	0.000061
1574	1.5651e+02	-17.3289	-55.579248	0.000324	3.242957	1.098744	0.000130
1575	1.5661e+02	-17.2968	-55.518691	0.000152	1.520136	0.515036	0.000061
1576	1.5671e+02	-17.2519	-55.458134	0.000152	1.520136	0.515036	0.000061
1577	1.5681e+02	-17.2134	-55.413725	0.000111	1.114767	0.377693	0.000045
1578	1.5691e+02	-17.1717	-55.296648	0.000294	2.938930	0.995736	0.000118
1579	1.5701e+02	-17.1316	-55.252240	0.000111	1.114767	0.377693	0.000045
1580	1.5711e+02	-17.0931	-55.135163	0.000294	2.938930	0.995736	0.000118
1581	1.5721e+02	-17.0610	-55.098829	0.000091	0.912082	0.309022	0.000037
1582	1.5731e+02	-17.0113	-55.018086	0.000203	2.026848	0.686715	0.000081
1583	1.5741e+02	-16.9776	-54.909083	0.000274	2.736245	0.927065	0.000110
1584	1.5751e+02	-16.9343	-54.840452	0.000172	1.722821	0.583708	0.000069
1585	1.5761e+02	-16.8894	-54.808155	0.000081	0.810739	0.274686	0.000032
1586	1.5771e+02	-16.8525	-54.711264	0.000243	2.432218	0.824058	0.000097
1587	1.5781e+02	-16.8092	-54.602261	0.000274	2.736245	0.927065	0.000110
1588	1.5791e+02	-16.7690	-54.557852	0.000111	1.114767	0.377693	0.000045
1589	1.5801e+02	-16.7305	-54.448850	0.000274	2.736245	0.927065	0.000110
1590	1.5811e+02	-16.6936	-54.376181	0.000182	1.824164	0.618043	0.000073
1591	1.5821e+02	-16.6535	-54.303513	0.000182	1.824164	0.618043	0.000073
1592	1.5830e+02	-16.6150	-54.230844	0.000182	1.824164	0.618043	0.000073
1593	1.5840e+02	-16.5862	-54.137990	0.000233	2.330876	0.789722	0.000093
1594	1.5850e+02	-16.5332	-54.061285	0.000193	1.925506	0.652379	0.000077
1595	1.5860e+02	-16.4979	-53.972468	0.000223	2.229533	0.755386	0.000089
1596	1.5870e+02	-16.4578	-53.932096	0.000101	1.013424	0.343357	0.000041
1597	1.5880e+02	-16.4081	-53.859428	0.000182	1.824164	0.618043	0.000073
1598	1.5890e+02	-16.3760	-53.766574	0.000233	2.330876	0.789722	0.000093
1599	1.5900e+02	-16.3343	-53.657571	0.000274	2.736245	0.927065	0.000110
1600	1.5910e+02	-16.2910	-53.568754	0.000223	2.229533	0.755386	0.000089
1601	1.5920e+02	-16.2493	-53.544531	0.000061	0.608055	0.206014	0.000024
1602	1.5930e+02	-16.2172	-53.463789	0.000203	2.026848	0.686715	0.000081
1603	1.5940e+02	-16.1771	-53.334600	0.000324	3.242957	1.098744	0.000130
1604	1.5950e+02	-16.1338	-53.286155	0.000122	1.216109	0.412029	0.000049
1605	1.5960e+02	-16.1001	-53.165041	0.000304	3.040273	1.030072	0.000122
1606	1.5970e+02	-16.0568	-53.116595	0.000122	1.216109	0.412029	0.000049
1607	1.5980e+02	-16.0102	-53.035852	0.000203	2.026848	0.686715	0.000081
1608	1.5990e+02	-15.9733	-52.902627	0.000334	3.344300	1.133079	0.000134
1609	1.6000e+02	-15.9364	-52.846107	0.000142	1.418794	0.480700	0.000057
1610	1.6010e+02	-15.9012	-52.741141	0.000263	2.634903	0.892729	0.000105
1611	1.6019e+02	-15.8514	-52.696733	0.000111	1.114767	0.377693	0.000045
1612	1.6029e+02	-15.8097	-52.607916	0.000223	2.229533	0.755386	0.000089
1613	1.6039e+02	-15.7776	-52.506987	0.000253	2.533560	0.858394	0.000101
1614	1.6049e+02	-15.7407	-52.422208	0.000213	2.128191	0.721051	0.000085
1615	1.6059e+02	-15.6926	-52.333391	0.000223	2.229533	0.755386	0.000089
1616	1.6069e+02	-15.6573	-52.293019	0.000101	1.013424	0.343357	0.000041
1617	1.6079e+02	-15.6172	-52.184017	0.000274	2.736245	0.927065	0.000110
1618	1.6089e+02	-15.5899	-52.095200	0.000223	2.229533	0.755386	0.000089
1619	1.6099e+02	-15.5482	-52.010420	0.000213	2.128191	0.721051	0.000085
1620	1.6109e+02	-15.5049	-51.913528	0.000243	2.432218	0.824058	0.000097
1621	1.6119e+02	-15.4536	-51.840860	0.000182	1.824164	0.618043	0.000073
1622	1.6129e+02	-15.4231	-51.772229	0.000172	1.722821	0.583708	0.000069
1623	1.6139e+02	-15.3782	-51.663226	0.000274	2.736245	0.927065	0.000110
1624	1.6149e+02	-15.3397	-51.590558	0.000182	1.824164	0.618043	0.000073
1625	1.6159e+02	-15.2980	-51.473481	0.000294	2.938930	0.995736	0.000118
1626	1.6169e+02	-15.2563	-51.416961	0.000142	1.418794	0.480700	0.000057
1627	1.6179e+02	-15.2274	-51.316032	0.000253	2.533560	0.858394	0.000101
1628	1.6189e+02	-15.1776	-51.211067	0.000263	2.634903	0.892729	0.000105
1629	1.6199e+02	-15.1472	-51.150510	0.000152	1.520136	0.515036	0.000061
1630	1.6209e+02	-15.1103	-51.049581	0.000253	2.533560	0.858394	0.000101
1631	1.6219e+02	-15.0686	-50.924430	0.000314	3.141615	1.064408	0.000126
1632	1.6228e+02	-15.0172	-50.880022	0.000111	1.114767	0.377693	0.000045
1633	1.6238e+02	-14.9900	-50.746796	0.000334	3.344300	1.133079	0.000134
1634	1.6248e+02	-14.9386	-50.710462	0.000091	0.912082	0.309022	0.000037
1635	1.6258e+02	-14.8889	-50.633756	0.000193	1.925506	0.652379	0.000077
1636	1.6268e+02	-14.8616	-50.504568	0.000324	3.242957	1.098744	0.000130
1637	1.6278e+02	-14.8199	-50.444011	0.000152	1.520136	0.515036	0.000061
1638	1.6288e+02	-14.7846	-50.351157	0.000233	2.330876	0.789722	0.000093
1639	1.6298e+02	-14.7429	-50.266377	0.000213	2.128191	0.721051	0.000085
1640	1.6308e+02	-14.7076	-50.161412	0.000263	2.634903	0.892729	0.000105
1641	1.6318e+02	-14.6563	-50.048372	0.000284	2.837588	0.961401	0.000114
1642	1.6328e+02	-14.6226	-49.991852	0.000142	1.418794	0.480700	0.000057
1643	1.6338e+02	-14.5889	-49.870738	0.000304	3.040273	1.030072	0.000122
1644	1.6348e+02	-14.5424	-49.834404	0.000091	0.912082	0.309022	0.000037
1645	1.6358e+02	-14.5103	-49.701178	0.000334	3.344300	1.133079	0.000134
1646	1.6368e+02	-14.4734	-49.644658	0.000142	1.418794	0.480700	0.000057
1647	1.6378e+02	-14.4301	-49.551804	0.000233	2.330876	0.789722	0.000093
1648	1.6388e+02	-14.3836	-49.446839	0.000263	2.634903	0.892729	0.000105
1649	1.6398e+02	-14.3402	-49.362059	0.000213	2.128191	0.721051	0.000085
1650	1.6408e+02	-14.3065	-49.261130	0.000253	2.533560	0.858394	0.000101
1651	1.6418e+02	-14.2648	-49.160202	0.000253	2.533560	0.858394	0.000101
1652	1.6427e+02	-14.2279	-49.059273	0.000253	2.533560	0.858394	0.000101
1653	1.6437e+02	-14.1894	-49.006791	0.000132	1.317451	0.446365	0.000053
1654	1.6447e+02	-14.1493	-48.905862	0.000253	2.533560	0.858394	0.000101
1655	1.6457e+02	-14.0980	-48.800897	0.000263	2.634903	0.892729	0.000105
1656	1.6467e+02	-14.0707	-48.712080	0.000223	2.229533	0.755386	0.000089
1657	1.6477e+02	-14.0354	-48.635374	0.000193	1.925506	0.652379	0.000077
1658	1.6487e+02	-13.9841	-48.522334	0.000284	2.837588	0.961401	0.000114
1659	1.6497e+02	-13.9424	-48.389109	0.000334	3.344300	1.133079	0.000134
1660	1.6507e+02	-13.9071	-48.324515	0.000162	1.621479	0.549372	0.000065
1661	1.6517e+02	-13.8654	-48.239735	0.000213	2.128191	0.721051	0.000085
1662	1.6527e+02	-13.8205	-48.130732	0.000274	2.736245	0.927065	0.000110
1663	1.6537e+02	-13.7900	-48.078250	0.000132	1.317451	0.446365	0.000053
1664	1.6547e+02	-13.7499	-47.969247	0.000274	2.736245	0.927065	0.000110
1665	1.6557e+02	-13.7018	-47.884467	0.000213	2.128191	0.721051	0.000085
1666	1.6567e+02	-13.6697	-47.783539	0.000253	2.533560	0.858394	0.000101
1667	1.6577e+02	-13.6344	-47.706833	0.000193	1.925506	0.652379	0.000077
1668	1.6587e+02	-13.5814	-47.605905	0.000253	2.533560	0.858394	0.000101
1669	1.6597e+02	-13.5477	-47.492865	0.000284	2.837588	0.961401	0.000114
1670	1.6607e+02	-13.5076	-47.363676	0.000324	3.242957	1.098744	0.000130
1671	1.6616e+02	-13.4643	-47.311194	0.000132	1.317451	0.446365	0.000053
1672	1.6626e+02	-13.4322	-47.226414	0.000213	2.128191	0.721051	0.000085
1673	1.6636e+02	-13.3953	-47.105300	0.000304	3.040273	1.030072	0.000122
1674	1.6646e+02	-13.3504	-47.004371	0.000253	2.533560	0.858394	0.000101
1675	1.6656e+02	-13.3087	-46.939777	0.000162	1.621479	0.549372	0.000065
1676	1.6666e+02	-13.2638	-46.838849	0.000253	2.533560	0.858394	0.000101
1677	1.6676e+02	-13.2205	-46.766180	0.000182	1.824164	0.618043	0.000073
1678	1.6686e+02	-13.1820	-46.632955	0.000334	3.344300	1.133079	0.000134
1679	1.6696e+02	-13.1531	-46.548175	0.000213	2.128191	0.721051	0.000085
1680	1.6706e+02	-13.1098	-46.431098	0.000294	2.938930	0.995736	0.000118
1681	1.6716e+02	-13.0649	-46.386690	0.000111	1.114767	0.377693	0.000045
1682	1.6726e+02	-13.0312	-46.245390	0.000355	3.546985	1.201751	0.000142
1683	1.6736e+02	-12.9782	-46.160610	0.000213	2.128191	0.721051	0.000085
1684	1.6746e+02	-12.9430	-46.067756	0.000233	2.330876	0.789722	0.000093
1685	1.6756e+02	-12.9141	-45.999125	0.000172	1.722821	0.583708	0.000069
1686	1.6766e+02	-12.8692	-45.873973	0.000314	3.141615	1.064408	0.000126
1687	1.6776e+02	-12.8387	-45.805342	0.000172	1.722821	0.583708	0.000069
1688	1.6786e+02	-12.7873	-45.712488	0.000233	2.330876	0.789722	0.000093
1689	1.6796e+02	-12.7488	-45.591374	0.000304	3.040273	1.030072	0.000122
1690	1.6806e+02	-12.7087	-45.506594	0.000213	2.128191	0.721051	0.000085
1691	1.6816e+02	-12.6750	-45.437963	0.000172	1.722821	0.583708	0.000069
1692	1.6825e+02	-12.6301	-45.365294	0.000182	1.824164	0.618043	0.000073
1693	1.6835e+02	-12.5932	-45.191697	0.000436	4.357724	1.476437	0.000174
1694	1.6845e+02	-12.5499	-45.143252	0.000122	1.216109	0.412029	0.000049
1695	1.6855e+02	-12.5130	-45.026175	0.000294	2.938930	0.995736	0.000118
1696	1.6865e+02	-12.4777	-44.921209	0.000263	2.634903	0.892729	0.000105
1697	1.6875e+02	-12.4360	-44.828355	0.000233	2.330876	0.789722	0.000093
1698	1.6885e+02	-12.3991	-44.796058	0.000081	0.810739	0.274686	0.000032
1699	1.6895e+02	-12.3510	-44.646684	0.000375	3.749670	1.270422	0.000150
1700	1.6905e+02	-12.3141	-44.574016	0.000182	1.824164	0.618043	0.000073
1701	1.6915e+02	-12.2772	-44.469050	0.000263	2.634903	0.892729	0.000105
1702	1.6925e+02	-12.2355	-44.376196	0.000233	2.330876	0.789722	0.000093
1703	1.6935e+02	-12.1906	-44.287379	0.000223	2.229533	0.755386	0.000089
1704	1.6945e+02	-12.1553	-44.162228	0.000314	3.141615	1.064408	0.000126
1705	1.6955e+02	-12.1184	-44.061299	0.000253	2.533560	0.858394	0.000101
1706	1.6965e+02	-12.0751	-43.996705	0.000162	1.621479	0.549372	0.000065
1707	1.6975e+02	-12.0334	-43.895777	0.000253	2.533560	0.858394	0.000101
1708	1.6985e+02	-11.9900	-43.798886	0.000243	2.432218	0.824058	0.000097
1709	1.6995e+02	-11.9596	-43.730254	0.000172	1.722821	0.583708	0.000069
1710	1.7005e+02	-11.9082	-43.588955	0.000355	3.546985	1.201751	0.000142
1711	1.7015e+02	-11.8713	-43.536472	0.000132	1.317451	0.446365	0.000053
1712	1.7024e+02	-11.8296	-43.387098	0.000375	3.749670	1.270422	0.000150
1713	1.7034e+02	-11.8007	-43.310392	0.000193	1.925506	0.652379	0.000077
1714	1.7044e+02	-11.7574	-43.245798	0.000162	1.621479	0.549372	0.000065
1715	1.7054e+02	-11.7221	-43.173130	0.000182	1.824164	0.618043	0.000073
1716	1.7064e+02	-11.6660	-43.039904	0.000334	3.344300	1.133079	0.000134
1717	1.7074e+02	-11.6339	-42.943013	0.000243	2.432218	0.824058	0.000097
1718	1.7084e+02	-11.5890	-42.829973	0.000284	2.837588	0.961401	0.000114
1719	1.7094e+02	-11.5617	-42.741156	0.000223	2.229533	0.755386	0.000089
1720	1.7104e+02	-11.5136	-42.696748	0.000111	1.114767	0.377693	0.000045
1721	1.7114e+02	-11.4751	-42.535262	0.000405	4.053697	1.373430	0.000162
1722	1.7124e+02	-11.4382	-42.474705	0.000152	1.520136	0.515036	0.000061
1723	1.7134e+02	-11.3917	-42.381851	0.000233	2.330876	0.789722	0.000093
1724	1.7144e+02	-11.3596	-42.232477	0.000375	3.749670	1.270422	0.000150
1725	1.7154e+02	-11.3195	-42.171920	0.000152	1.520136	0.515036	0.000061
1726	1.7164e+02	-11.2729	-42.050806	0.000304	3.040273	1.030072	0.000122
1727	1.7174e+02	-11.2360	-41.998323	0.000132	1.317451	0.446365	0.000053
1728	1.7184e+02	-11.1991	-41.885283	0.000284	2.837588	0.961401	0.000114
1729	1.7194e+02	-11.1510	-41.743984	0.000355	3.546985	1.201751	0.000142
1730	1.7204e+02	-11.1125	-41.707649	0.000091	0.912082	0.309022	0.000037
1731	1.7213e+02	-11.0804	-41.610758	0.000243	2.432218	0.824058	0.000097
1732	1.7223e+02	-11.0387	-41.513867	0.000243	2.432218	0.824058	0.000097
1733	1.7233e+02	-11.0018	-41.368530	0.000365	3.648327	1.236087	0.000146
1734	1.7243e+02	-10.9537	-41.299899	0.000172	1.722821	0.583708	0.000069
1735	1.7253e+02	-10.9152	-41.182822	0.000294	2.938930	0.995736	0.000118
1736	1.7263e+02	-10.8815	-41.126302	0.000142	1.418794	0.480700	0.000057
1737	1.7273e+02	-10.8398	-40.964816	0.000405	4.053697	1.373430	0.000162
1738	1.7283e+02	-10.8013	-40.916371	0.000122	1.216109	0.412029	0.000049
1739	1.7293e+02	-10.7516	-40.787182	0.000324	3.242957	1.098744	0.000130
1740	1.7303e+02	-10.7163	-40.730662	0.000142	1.418794	0.480700	0.000057
1741	1.7313e+02	-10.6714	-40.609548	0.000304	3.040273	1.030072	0.000122
1742	1.7323e+02	-10.6361	-40.516694	0.000233	2.330876	0.789722	0.000093
1743	1.7333e+02	-10.6024	-40.399617	0.000294	2.938930	0.995736	0.000118
1744	1.7343e+02	-10.5655	-40.322912	0.000193	1.925506	0.652379	0.000077
1745	1.7353e+02	-10.5222	-40.230058	0.000233	2.330876	0.789722	0.000093
1746	1.7363e+02	-10.4869	-40.125092	0.000263	2.634903	0.892729	0.000105
1747	1.7373e+02	-10.4355	-40.012052	0.000284	2.837588	0.961401	0.000114
1748	1.7383e+02	-10.4018	-39.931310	0.000203	2.026848	0.686715	0.000081
1749	1.7393e+02	-10.3585	-39.830381	0.000253	2.533560	0.858394	0.000101
1750	1.7403e+02	-10.3200	-39.713304	0.000294	2.938930	0.995736	0.000118
1751	1.7413e+02	-10.2863	-39.644673	0.000172	1.722821	0.583708	0.000069
1752	1.7422e+02	-10.2382	-39.555856	0.000223	2.229533	0.755386	0.000089
1753	1.7432e+02	-10.2077	-39.446853	0.000274	2.736245	0.927065	0.000110
1754	1.7442e+02	-10.1628	-39.353999	0.000233	2.330876	0.789722	0.000093
1755	1.7452e+02	-10.1179	-39.220774	0.000334	3.344300	1.133079	0.000134
1756	1.7462e+02	-10.0746	-39.152142	0.000172	1.722821	0.583708	0.000069
1757	1.7472e+02	-10.0489	-38.990657	0.000405	4.053697	1.373430	0.000162
1758	1.7482e+02	-10.0040	-38.938174	0.000132	1.317451	0.446365	0.000053
1759	1.7492e+02	-9.9623	-38.821097	0.000294	2.938930	0.995736	0.000118
1760	1.7502e+02	-9.9254	-38.744392	0.000193	1.925506	0.652379	0.000077
1761	1.7512e+02	-9.8789	-38.627315	0.000294	2.938930	0.995736	0.000118
1762	1.7522e+02	-9.8420	-38.526386	0.000253	2.533560	0.858394	0.000101
1763	1.7532e+02	-9.8051	-38.401235	0.000314	3.141615	1.064408	0.000126
1764	1.7542e+02	-9.7537	-38.316455	0.000213	2.128191	0.721051	0.000085
1765	1.7552e+02	-9.7313	-38.223601	0.000233	2.330876	0.789722	0.000093
1766	1.7562e+02	-9.6815	-38.142858	0.000203	2.026848	0.686715	0.000081
1767	1.7572e+02	-9.6479	-38.021744	0.000304	3.040273	1.030072	0.000122
1768	1.7582e+02	-9.6078	-37.945039	0.000193	1.925506	0.652379	0.000077
1769	1.7592e+02	-9.5612	-37.791628	0.000385	3.851012	1.304758	0.000154
1770	1.7602e+02	-9.5275	-37.735108	0.000142	1.418794	0.480700	0.000057
1771	1.7612e+02	-9.4842	-37.626105	0.000274	2.736245	0.927065	0.000110
1772	1.7621e+02	-9.4457	-37.513065	0.000284	2.837588	0.961401	0.000114
1773	1.7631e+02	-9.4088	-37.436360	0.000193	1.925506	0.652379	0.000077
1774	1.7641e+02	-9.3639	-37.270837	0.000416	4.155039	1.407765	0.000166
1775	1.7651e+02	-9.3206	-37.238540	0.000081	0.810739	0.274686	0.000032
1776	1.7661e+02	-9.2869	-37.081092	0.000395	3.952354	1.339094	0.000158
1777	1.7671e+02	-9.2468	-36.988238	0.000233	2.330876	0.789722	0.000093
1778	1.7681e+02	-9.2131	-36.875198	0.000284	2.837588	0.961401	0.000114
1779	1.7691e+02	-9.1666	-36.754084	0.000304	3.040273	1.030072	0.000122
1780	1.7701e+02	-9.1297	-36.653155	0.000253	2.533560	0.858394	0.000101
1781	1.7711e+02	-9.0800	-36.511856	0.000355	3.546985	1.201751	0.000142
1782	1.7721e+02	-9.0447	-36.431113	0.000203	2.026848	0.686715	0.000081
1783	1.7731e+02	-9.0014	-36.334222	0.000243	2.432218	0.824058	0.000097
1784	1.7741e+02	-8.9677	-36.237330	0.000243	2.432218	0.824058	0.000097
1785	1.7751e+02	-8.9260	-36.132365	0.000263	2.634903	0.892729	0.000105
1786	1.7761e+02	-8.8971	-36.043548	0.000223	2.229533	0.755386	0.000089
1787	1.7771e+02	-8.8473	-35.922434	0.000304	3.040273	1.030072	0.000122
1788	1.7781e+02	-8.8072	-35.817468	0.000263	2.634903	0.892729	0.000105
1789	1.7791e+02	-8.7639	-35.684243	0.000334	3.344300	1.133079	0.000134
1790	1.7801e+02	-8.7350	-35.587352	0.000243	2.432218	0.824058	0.000097
1791	1.7810e+02	-8.6853	-35.458163	0.000324	3.242957	1.098744	0.000130
1792	1.7820e+02	-8.6372	-35.389532	0.000172	1.722821	0.583708	0.000069
1793	1.7830e+02	-8.6019	-35.272455	0.000294	2.938930	0.995736	0.000118
1794	1.7840e+02	-8.5682	-35.143267	0.000324	3.242957	1.098744	0.000130
1795	1.7850e+02	-8.5233	-35.038301	0.000263	2.634903	0.892729	0.000105
1796	1.7860e+02	-8.4816	-34.888927	0.000375	3.749670	1.270422	0.000150
1797	1.7870e+02	-8.4415	-34.804147	0.000213	2.128191	0.721051	0.000085
1798	1.7880e+02	-8.4062	-34.723404	0.000203	2.026848	0.686715	0.000081
1799	1.7890e+02	-8.3661	-34.582105	0.000355	3.546985	1.201751	0.000142
1800	1.7900e+02	-8.3356	-34.481176	0.000253	2.533560	0.858394	0.000101
1801	1.7910e+02	-8.2827	-34.372174	0.000274	2.736245	0.927065	0.000110
1802	1.7920e+02	-8.2458	-34.263171	0.000274	2.736245	0.927065	0.000110
1803	1.7930e+02	-8.2089	-34.146094	0.000294	2.938930	0.995736	0.000118
1804	1.7940e+02	-8.1639	-34.033054	0.000284	2.837588	0.961401	0.000114
1805	1.7950e+02	-8.1351	-33.907903	0.000314	3.141615	1.064408	0.000126
1806	1.7960e+02	-8.0885	-33.782752	0.000314	3.141615	1.064408	0.000126
1807	1.7970e+02	-8.0436	-33.673749	0.000274	2.736245	0.927065	0.000110
1808	1.7980e+02	-8.0083	-33.588969	0.000213	2.128191	0.721051	0.000085
1809	1.7990e+02	-7.9714	-33.451707	0.000345	3.445642	1.167415	0.000138
1810	1.8000e+02	-7.9249	-33.346741	0.000263	2.634903	0.892729	0.000105
1811	1.8009e+02	-7.8816	-33.217553	0.000324	3.242957	1.098744	0.000130
1812	1.8019e+02	-7.8447	-33.100476	0.000294	2.938930	0.995736	0.000118
1813	1.8029e+02	-7.8078	-33.007622	0.000233	2.330876	0.789722	0.000093
1814	1.8039e+02	-7.7741	-32.874396	0.000334	3.344300	1.133079	0.000134
1815	1.8049e+02	-7.7340	-32.769431	0.000263	2.634903	0.892729	0.000105
1816	1.8059e+02	-7.6907	-32.676577	0.000233	2.330876	0.789722	0.000093
1817	1.8069e+02	-7.6474	-32.567574	0.000274	2.736245	0.927065	0.000110
1818	1.8079e+02	-7.6073	-32.422237	0.000365	3.648327	1.236087	0.000146
1819	1.8089e+02	-7.5640	-32.313234	0.000274	2.736245	0.927065	0.000110
1820	1.8099e+02	-7.5303	-32.196158	0.000294	2.938930	0.995736	0.000118
1821	1.8109e+02	-7.4934	-32.115415	0.000203	2.026848	0.686715	0.000081
1822	1.8119e+02	-7.4517	-31.970078	0.000365	3.648327	1.236087	0.000146
1823	1.8129e+02	-7.4083	-31.812630	0.000395	3.952354	1.339094	0.000158
1824	1.8139e+02	-7.3714	-31.739961	0.000182	1.824164	0.618043	0.000073
1825	1.8149e+02	-7.3297	-31.586550	0.000385	3.851012	1.304758	0.000154
1826	1.8159e+02	-7.2848	-31.505807	0.000203	2.026848	0.686715	0.000081
1827	1.8169e+02	-7.2447	-31.368545	0.000345	3.445642	1.167415	0.000138
1828	1.8179e+02	-7.2094	-31.271653	0.000243	2.432218	0.824058	0.000097
1829	1.8189e+02	-7.1805	-31.166688	0.000263	2.634903	0.892729	0.000105
1830	1.8199e+02	-7.1244	-31.017314	0.000375	3.749670	1.270422	0.000150
1831	1.8209e+02	-7.0859	-30.892163	0.000314	3.141615	1.064408	0.000126
1832	1.8218e+02	-7.0538	-30.783160	0.000274	2.736245	0.927065	0.000110
1833	1.8228e+02	-7.0041	-30.658009	0.000314	3.141615	1.064408	0.000126
1834	1.8238e+02	-6.9672	-30.544969	0.000284	2.837588	0.961401	0.000114
1835	1.8248e+02	-6.9303	-30.391558	0.000385	3.851012	1.304758	0.000154
1836	1.8258e+02	-6.8966	-30.274481	0.000294	2.938930	0.995736	0.000118
1837	1.8268e+02	-6.8404	-30.153367	0.000304	3.040273	1.030072	0.000122
1838	1.8278e+02	-6.8164	-30.056476	0.000243	2.432218	0.824058	0.000097
1839	1.8288e+02	-6.7731	-29.939399	0.000294	2.938930	0.995736	0.000118
1840	1.8298e+02	-6.7426	-29.806173	0.000334	3.344300	1.133079	0.000134
1841	1.8308e+02	-6.6864	-29.705245	0.000253	2.533560	0.858394	0.000101
1842	1.8318e+02	-6.6544	-29.559908	0.000365	3.648327	1.236087	0.000146
1843	1.8328e+02	-6.6126	-29.430720	0.000324	3.242957	1.098744	0.000130
1844	1.8338e+02	-6.5790	-29.313643	0.000294	2.938930	0.995736	0.000118
1845	1.8348e+02	-6.5324	-29.208677	0.000263	2.634903	0.892729	0.000105
1846	1.8358e+02	-6.4843	-29.087563	0.000304	3.040273	1.030072	0.000122
1847	1.8368e+02	-6.4506	-28.938189	0.000375	3.749670	1.270422	0.000150
1848	1.8378e+02	-6.4153	-28.825149	0.000284	2.837588	0.961401	0.000114
1849	1.8388e+02	-6.3736	-28.716147	0.000274	2.736245	0.927065	0.000110
1850	1.8398e+02	-6.3335	-28.615218	0.000253	2.533560	0.858394	0.000101
1851	1.8407e+02	-6.2982	-28.473918	0.000355	3.546985	1.201751	0.000142
1852	1.8417e+02	-6.2613	-28.348767	0.000314	3.141615	1.064408	0.000126
1853	1.8427e+02	-6.2196	-28.239764	0.000274	2.736245	0.927065	0.000110
1854	1.8437e+02	-6.1667	-28.154985	0.000213	2.128191	0.721051	0.000085
1855	1.8447e+02	-6.1314	-27.924868	0.000578	5.776518	1.957137	0.000231
1856	1.8457e+02	-6.1105	-27.896608	0.000071	0.709397	0.240350	0.000028
1857	1.8467e+02	-6.0608	-27.751271	0.000365	3.648327	1.236087	0.000146
1858	1.8477e+02	-6.0223	-27.609971	0.000355	3.546985	1.201751	0.000142
1859	1.8487e+02	-5.9838	-27.488857	0.000304	3.040273	1.030072	0.000122
1860	1.8497e+02	-5.9389	-27.351595	0.000345	3.445642	1.167415	0.000138
1861	1.8507e+02	-5.8988	-27.246629	0.000263	2.634903	0.892729	0.000105
1862	1.8517e+02	-5.8603	-27.121478	0.000314	3.141615	1.064408	0.000126
1863	1.8527e+02	-5.8186	-26.976141	0.000365	3.648327	1.236087	0.000146
1864	1.8537e+02	-5.7881	-26.891361	0.000213	2.128191	0.721051	0.000085
1865	1.8547e+02	-5.7415	-26.762173	0.000324	3.242957	1.098744	0.000130
1866	1.8557e+02	-5.6998	-26.632984	0.000324	3.242957	1.098744	0.000130
1867	1.8567e+02	-5.6629	-26.519945	0.000284	2.837588	0.961401	0.000114
1868	1.8577e+02	-5.6164	-26.342311	0.000446	4.459066	1.510773	0.000179
1869	1.8587e+02	-5.5811	-26.273679	0.000172	1.722821	0.583708	0.000069
1870	1.8597e+02	-5.5426	-26.108157	0.000416	4.155039	1.407765	0.000166
1871	1.8606e+02	-5.5009	-25.999154	0.000274	2.736245	0.927065	0.000110
1872	1.8616e+02	-5.4576	-25.869966	0.000324	3.242957	1.098744	0.000130
1873	1.8626e+02	-5.4239	-25.756926	0.000284	2.837588	0.961401	0.000114
1874	1.8636e+02	-5.3822	-25.631775	0.000314	3.141615	1.064408	0.000126
1875	1.8646e+02	-5.3405	-25.522772	0.000274	2.736245	0.927065	0.000110
1876	1.8656e+02	-5.2972	-25.393584	0.000324	3.242957	1.098744	0.000130
1877	1.8666e+02	-5.2635	-25.252284	0.000355	3.546985	1.201751	0.000142
1878	1.8676e+02	-5.2202	-25.115021	0.000345	3.445642	1.167415	0.000138
1879	1.8686e+02	-5.1849	-25.006019	0.000274	2.736245	0.927065	0.000110
1880	1.8696e+02	-5.1480	-24.872793	0.000334	3.344300	1.133079	0.000134
1881	1.8706e+02	-5.0983	-24.771865	0.000253	2.533560	0.858394	0.000101
1882	1.8716e+02	-5.0614	-24.598268	0.000436	4.357724	1.476437	0.000174
1883	1.8726e+02	-5.0261	-24.493303	0.000263	2.634903	0.892729	0.000105
1884	1.8736e+02	-4.9972	-24.347966	0.000365	3.648327	1.236087	0.000146
1885	1.8746e+02	-4.9410	-24.218777	0.000324	3.242957	1.098744	0.000130
1886	1.8756e+02	-4.8977	-24.069403	0.000375	3.749670	1.270422	0.000150
1887	1.8766e+02	-4.8640	-23.924066	0.000365	3.648327	1.236087	0.000146
1888	1.8776e+02	-4.8223	-23.855435	0.000172	1.722821	0.583708	0.000069
1889	1.8786e+02	-4.7774	-23.685875	0.000426	4.256382	1.442101	0.000170
1890	1.8796e+02	-4.7421	-23.613207	0.000182	1.824164	0.618043	0.000073
1891	1.8806e+02	-4.7004	-23.423462	0.000476	4.763094	1.613780	0.000191
1892	1.8815e+02	-4.6635	-23.306385	0.000294	2.938930	0.995736	0.000118
1893	1.8825e+02	-4.6282	-23.185271	0.000304	3.040273	1.030072	0.000122
1894	1.8835e+02	-4.5849	-23.060119	0.000314	3.141615	1.064408	0.000126
1895	1.8845e+02	-4.5368	-22.926894	0.000334	3.344300	1.133079	0.000134
1896	1.8855e+02	-4.5063	-22.813854	0.000284	2.837588	0.961401	0.000114
1897	1.8865e+02	-4.4630	-22.648331	0.000416	4.155039	1.407765	0.000166
1898	1.8875e+02	-4.4277	-22.531255	0.000294	2.938930	0.995736	0.000118
1899	1.8885e+02	-4.3924	-22.418215	0.000284	2.837588	0.961401	0.000114
1900	1.8895e+02	-4.3475	-22.224432	0.000486	4.864436	1.648116	0.000195
1901	1.8905e+02	-4.3074	-22.115430	0.000274	2.736245	0.927065	0.000110
1902	1.8915e+02	-4.2673	-22.026613	0.000223	2.229533	0.755386	0.000089
1903	1.8925e+02	-4.2223	-21.853016	0.000436	4.357724	1.476437	0.000174
1904	1.8935e+02	-4.1854	-21.731902	0.000304	3.040273	1.030072	0.000122
1905	1.8945e+02	-4.1437	-21.574453	0.000395	3.952354	1.339094	0.000158
1906	1.8955e+02	-4.0988	-21.457376	0.000294	2.938930	0.995736	0.000118
1907	1.8965e+02	-4.0715	-21.336262	0.000304	3.040273	1.030072	0.000122
1908	1.8975e+02	-4.0346	-21.182851	0.000385	3.851012	1.304758	0.000154
1909	1.8985e+02	-3.9897	-21.057700	0.000314	3.141615	1.064408	0.000126
1910	1.8995e+02	-3.9464	-20.944660	0.000284	2.837588	0.961401	0.000114
1911	1.9004e+02	-3.9079	-20.775101	0.000426	4.256382	1.442101	0.000170
1912	1.9014e+02	-3.8646	-20.637838	0.000345	3.445642	1.167415	0.000138
1913	1.9024e+02	-3.8197	-20.512687	0.000314	3.141615	1.064408	0.000126
1914	1.9034e+02	-3.7892	-20.371387	0.000355	3.546985	1.201751	0.000142
1915	1.9044e+02	-3.7459	-20.213939	0.000395	3.952354	1.339094	0.000158
1916	1.9054e+02	-3.7058	-20.088787	0.000314	3.141615	1.064408	0.000126
1917	1.9064e+02	-3.6673	-19.951525	0.000345	3.445642	1.167415	0.000138
1918	1.9074e+02	-3.6336	-19.802151	0.000375	3.749670	1.270422	0.000150
1919	1.9084e+02	-3.5935	-19.685074	0.000294	2.938930	0.995736	0.000118
1920	1.9094e+02	-3.5421	-19.588183	0.000243	2.432218	0.824058	0.000097
1921	1.9104e+02	-3.5117	-19.390363	0.000497	4.965779	1.682451	0.000199
1922	1.9114e+02	-3.4684	-19.285397	0.000263	2.634903	0.892729	0.000105
1923	1.9124e+02	-3.4266	-19.164283	0.000304	3.040273	1.030072	0.000122
1924	1.9134e+02	-3.3881	-18.990687	0.000436	4.357724	1.476437	0.000174
1925	1.9144e+02	-3.3400	-18.804978	0.000466	4.661751	1.579444	0.000187
1926	1.9154e+02	-3.3127	-18.683864	0.000304	3.040273	1.030072	0.000122
1927	1.9164e+02	-3.2662	-18.550639	0.000334	3.344300	1.133079	0.000134
1928	1.9174e+02	-3.2293	-18.397228	0.000385	3.851012	1.304758	0.000154
1929	1.9184e+02	-3.1956	-18.288225	0.000274	2.736245	0.927065	0.000110
1930	1.9194e+02	-3.1491	-18.150962	0.000345	3.445642	1.167415	0.000138
1931	1.9203e+02	-3.1106	-18.021774	0.000324	3.242957	1.098744	0.000130
1932	1.9213e+02	-3.0689	-17.836066	0.000466	4.661751	1.579444	0.000187
1933	1.9223e+02	-3.0336	-17.674580	0.000405	4.053697	1.373430	0.000162
1934	1.9233e+02	-2.9855	-17.553466	0.000304	3.040273	1.030072	0.000122
1935	1.9243e+02	-2.9566	-17.408129	0.000365	3.648327	1.236087	0.000146
1936	1.9253e+02	-2.9133	-17.234532	0.000436	4.357724	1.476437	0.000174
1937	1.9263e+02	-2.8684	-17.081121	0.000385	3.851012	1.304758	0.000154
1938	1.9273e+02	-2.8251	-16.964044	0.000294	2.938930	0.995736	0.000118
1939	1.9283e+02	-2.7914	-16.794485	0.000426	4.256382	1.442101	0.000170
1940	1.9293e+02	-2.7561	-16.645111	0.000375	3.749670	1.270422	0.000150
1941	1.9303e+02	-2.7144	-16.455365	0.000476	4.763094	1.613780	0.000191
1942	1.9313e+02	-2.6727	-16.330214	0.000314	3.141615	1.064408	0.000126
1943	1.9323e+02	-2.6277	-16.196989	0.000334	3.344300	1.133079	0.000134
1944	1.9333e+02	-2.5973	-16.015317	0.000456	4.560409	1.545108	0.000183
1945	1.9343e+02	-2.5539	-15.886129	0.000324	3.242957	1.098744	0.000130
1946	1.9353e+02	-2.5138	-15.724644	0.000405	4.053697	1.373430	0.000162
1947	1.9363e+02	-2.4641	-15.595455	0.000324	3.242957	1.098744	0.000130
1948	1.9373e+02	-2.4304	-15.397636	0.000497	4.965779	1.682451	0.000199
1949	1.9383e+02	-2.3983	-15.268447	0.000324	3.242957	1.098744	0.000130
1950	1.9393e+02	-2.3502	-15.123110	0.000365	3.648327	1.236087	0.000146
1951	1.9403e+02	-2.3165	-14.921254	0.000507	5.067121	1.716787	0.000203
1952	1.9412e+02	-2.2652	-14.779954	0.000355	3.546985	1.201751	0.000142
1953	1.9422e+02	-2.2347	-14.630580	0.000375	3.749670	1.270422	0.000150
1954	1.9432e+02	-2.1882	-14.469094	0.000405	4.053697	1.373430	0.000162
1955	1.9442e+02	-2.1561	-14.327795	0.000355	3.546985	1.201751	0.000142
1956	1.9452e+02	-2.1176	-14.142086	0.000466	4.661751	1.579444	0.000187
1957	1.9462e+02	-2.0679	-13.968490	0.000436	4.357724	1.476437	0.000174
1958	1.9472e+02	-2.0374	-13.811041	0.000395	3.952354	1.339094	0.000158
1959	1.9482e+02	-1.9941	-13.702039	0.000274	2.736245	0.927065	0.000110
1960	1.9492e+02	-1.9475	-13.484033	0.000547	5.472491	1.854130	0.000219
1961	1.9502e+02	-1.9138	-13.322548	0.000405	4.053697	1.373430	0.000162
1962	1.9512e+02	-1.8689	-13.148951	0.000436	4.357724	1.476437	0.000174
1963	1.9522e+02	-1.8401	-13.011688	0.000345	3.445642	1.167415	0.000138
1964	1.9532e+02	-1.7887	-12.825980	0.000466	4.661751	1.579444	0.000187
1965	1.9542e+02	-1.7550	-12.660458	0.000416	4.155039	1.407765	0.000166
1966	1.9552e+02	-1.7181	-12.523195	0.000345	3.445642	1.167415	0.000138
1967	1.9562e+02	-1.6716	-12.349598	0.000436	4.357724	1.476437	0.000174
1968	1.9572e+02	-1.6427	-12.163890	0.000466	4.661751	1.579444	0.000187
1969	1.9582e+02	-1.5914	-11.957996	0.000517	5.168463	1.751123	0.000207
1970	1.9592e+02	-1.5513	-11.840919	0.000294	2.938930	0.995736	0.000118
1971	1.9601e+02	-1.5128	-11.675397	0.000416	4.155039	1.407765	0.000166
1972	1.9611e+02	-1.4743	-11.485651	0.000476	4.763094	1.613780	0.000191
1973	1.9621e+02	-1.4406	-11.324166	0.000405	4.053697	1.373430	0.000162
1974	1.9631e+02	-1.3909	-11.142495	0.000456	4.560409	1.545108	0.000183
1975	1.9641e+02	-1.3556	-10.989083	0.000385	3.851012	1.304758	0.000154
1976	1.9651e+02	-1.3187	-10.791264	0.000497	4.965779	1.682451	0.000199
1977	1.9661e+02	-1.2834	-10.633816	0.000395	3.952354	1.339094	0.000158
1978	1.9671e+02	-1.2272	-10.427922	0.000517	5.168463	1.751123	0.000207
1979	1.9681e+02	-1.1952	-10.274510	0.000385	3.851012	1.304758	0.000154
1980	1.9691e+02	-1.1615	-10.092839	0.000456	4.560409	1.545108	0.000183
1981	1.9701e+02	-1.1198	-9.983837	0.000274	2.736245	0.927065	0.000110
1982	1.9711e+02	-1.0813	-9.773906	0.000527	5.269806	1.785459	0.000211
1983	1.9721e+02	-1.0395	-9.584160	0.000476	4.763094	1.613780	0.000191
1984	1.9731e+02	-1.0091	-9.442860	0.000355	3.546985	1.201751	0.000142
1985	1.9741e+02	-0.9545	-9.261189	0.000456	4.560409	1.545108	0.000183
1986	1.9751e+02	-0.9176	-9.051258	0.000527	5.269806	1.785459	0.000211
1987	1.9761e+02	-0.8695	-8.865550	0.000466	4.661751	1.579444	0.000187
1988	1.9771e+02	-0.8374	-8.691953	0.000436	4.357724	1.476437	0.000174
1989	1.9781e+02	-0.7925	-8.514319	0.000446	4.459066	1.510773	0.000179
1990	1.9791e+02	-0.7588	-8.364945	0.000375	3.749670	1.270422	0.000150
1991	1.9800e+02	-0.7187	-8.142903	0.000557	5.573833	1.888466	0.000223
1992	1.9810e+02	-0.6834	-7.945083	0.000497	4.965779	1.682451	0.000199
1993	1.9820e+02	-0.6401	-7.783598	0.000405	4.053697	1.373430	0.000162
1994	1.9830e+02	-0.5984	-7.585778	0.000497	4.965779	1.682451	0.000199
1995	1.9840e+02	-0.5647	-7.424293	0.000405	4.053697	1.373430	0.000162
1996	1.9850e+02	-0.5278	-7.250696	0.000436	4.357724	1.476437	0.000174
1997	1.9860e+02	-0.4749	-7.020579	0.000578	5.776518	1.957137	0.000231
1998	1.9870e+02	-0.4444	-6.859094	0.000405	4.053697	1.373430	0.000162
1999	1.9880e+02	-0.3995	-6.633014	0.000568	5.675175	1.922802	0.000227
2000	1.9890e+02	-0.3577	-6.483640	0.000375	3.749670	1.270422	0.000150
2001	1.9900e+02	-0.3176	-6.318117	0.000416	4.155039	1.407765	0.000166
2002	1.9910e+02	-0.2823	-6.092038	0.000568	5.675175	1.922802	0.000227
2003	1.9920e+02	-0.2310	-5.914404	0.000446	4.459066	1.510773	0.000179
2004	1.9930e+02	-0.1957	-5.724658	0.000476	4.763094	1.613780	0.000191
2005	1.9940e+02	-0.1572	-5.547025	0.000446	4.459066	1.510773	0.000179
2006	1.9950e+02	-0.1219	-5.381502	0.000416	4.155039	1.407765	0.000166
2007	1.9960e+02	-0.0770	-5.179645	0.000507	5.067121	1.716787	0.000203
2008	1.9970e+02	-0.0385	-4.961640	0.000547	5.472491	1.854130	0.000219
2009	1.9980e+02	0.0000	-4.779969	0.000547	5.472491	1.854130	0.000183

Center data before PMax,+/-Pr and +/-Vc Calc.

PMax (uC/cm2):	6.01e+01
Pr (uC/cm2):	3.68e+00
-Pr (uC/cm2):	-4.78e+00
PLoss (uC/cm2):	2.72e+00
Vc:	1.66e+00
-Vc:	-7.96e-01
C (Max-Eff) (nF):	3.01e-01
K (Eff):	1.02e+03
Vert. (+/-Pr) Shift (uC/cm2):	-5.49e-01
Horiz. Shift (+/-Vc):	4.31e-01
Offset (uC/cm2):	7.52e+00

A (Loop Area - uC/cm2·Volts):	-1.87e-01



Hysteresis Version: 5.48.1 - Radiant Technologies, Inc., 1999 - 9/12/24

