»»»»»»»»»»»»»»»»»»»»»»»»»»»»»»»»»»»» Hysteresis ««««««««««««««««««««««««««««««««««««
»»»  Executed Version:	5.48.1
»»»  Vision Version:	5.48.4 (R)
»»»  Vision Compiled:	9/18/24
»»»  Driver Version:	5.47.0
»»»  Windows Version:	Windows 8 or 8.1
»»»  Processor Information:	x86 (AMD or Intel) - 32 Processors
»»»  Tester Name:	PMF21124-494 (100V)
»»»  Tester S/N:	PMF21124-494
»»»  Internal Amp Type:	100V RevK 270k
»»»  Internal Amp S/N:	iAB2-596/K     
»»»  Execution Count:	1
»»»»»»»»»»»»»»»»»»»»»»»»»»»»»»»»»»»»»»»»»»««««««««««««««««««««««««««««««««««««««««««

Stored:	6/11/2025 - 14:38:41
Configured:	06/11/25 01:55:56 PM
Executed:	06/11/25 02:38:02 PM

»»»»»»»»»»»»»»»»»»»»»»»»»»»»»»»»»»» Sample Info ««««««««««««««««««««««««««««««««««««
Sample Name:	
Lot Name:	
Wafer Name:	
Die Row/Column:	0/0
Capacitor Number:	0
Sample Area (cm2):	1.00e-04
Sample Thickness (microns):	3.00e-01

Amplifier:	Internal

»»»»»»»»»»»»»»»»»»»»»»»»»»»»»»»»»»» Tester Info «««««««««««««««««««««««««««««««««««
Tester Name:	PMF21124-494 (100V)
Tester Serial Number:	PMF21124-494
Return Signal Amp. Level:	0.19 [Index: 3]

»»»»»»»»»»»»»»»»»»»»»»»»»»»»»»»» Hysteresis Info ««««««««««««««««««««««««««««««««««
Task Name:	Hyst-1287
Volts:	20.00
Field:	666.67 (kV/cm)
DCBias:	0.00
DCField:	0.00 (kV/cm)
Hysteresis Period (ms):	2.00e+02
Preset:	Enabled
Preset Delay (ms):	1.00e+03
Profile:	Standard Bipolar

»»»»»»»»»»»»»»»»»»»»»»»»»»»»»»»»»»»»»» Data «««««««««««««««««««««««««««««««««««««««
Points:	2009

Valid Data

Point	Time (ms)	Drive Voltage	Measured Polarization (uC/cm2)	Capacitance (uF)	Normalized Capacitance (uF/cm2)	Dielectric Constant	Instantaneous Current (mA)
   1	0.0000e+00	0.0000	-109.168187	0.000446	4.458709	1.510651	0.000179
   2	9.9500e-02	0.0417	-108.990554	0.000446	4.458709	1.510651	0.000179
   3	1.9900e-01	0.0706	-108.752363	0.000598	5.978723	2.025646	0.000239
   4	2.9850e-01	0.1123	-108.502060	0.000628	6.282726	2.128645	0.000252
   5	3.9800e-01	0.1460	-108.271943	0.000578	5.776055	1.956980	0.000231
   6	4.9750e-01	0.1877	-108.025678	0.000618	6.181392	2.094312	0.000248
   7	5.9700e-01	0.2214	-107.848044	0.000446	4.458709	1.510651	0.000179
   8	6.9650e-01	0.2743	-107.561407	0.000719	7.194735	2.437642	0.000288
   9	7.9600e-01	0.3192	-107.339365	0.000557	5.573386	1.888314	0.000223
  10	8.9550e-01	0.3529	-107.113285	0.000567	5.674720	1.922647	0.000227
  11	9.9500e-01	0.3866	-106.858946	0.000638	6.384060	2.162978	0.000256
  12	1.0945e+00	0.4187	-106.624792	0.000588	5.877389	1.991313	0.000235
  13	1.1940e+00	0.4620	-106.378527	0.000618	6.181392	2.094312	0.000248
  14	1.2935e+00	0.5118	-106.099964	0.000699	6.992066	2.368976	0.000280
  15	1.3930e+00	0.5454	-105.857736	0.000608	6.080057	2.059979	0.000243
  16	1.4925e+00	0.5920	-105.631657	0.000567	5.674720	1.922647	0.000227
  17	1.5920e+00	0.6257	-105.373280	0.000649	6.485395	2.197311	0.000260
  18	1.6915e+00	0.6706	-105.127015	0.000618	6.181392	2.094312	0.000248
  19	1.7910e+00	0.7091	-104.892861	0.000588	5.877389	1.991313	0.000235
  20	1.8905e+00	0.7460	-104.646595	0.000618	6.181392	2.094312	0.000248
  21	1.9900e+00	0.7797	-104.412442	0.000588	5.877389	1.991313	0.000235
  22	2.0895e+00	0.8310	-104.109656	0.000760	7.600072	2.574974	0.000304
  23	2.1890e+00	0.8663	-103.887614	0.000557	5.573386	1.888314	0.000223
  24	2.2885e+00	0.9064	-103.677683	0.000527	5.269383	1.785315	0.000211
  25	2.3880e+00	0.9561	-103.399121	0.000699	6.992066	2.368976	0.000280
  26	2.4875e+00	0.9898	-103.164967	0.000588	5.877389	1.991313	0.000235
  27	2.5870e+00	1.0331	-102.910627	0.000638	6.384060	2.162978	0.000256
  28	2.6865e+00	1.0668	-102.636102	0.000689	6.890732	2.334643	0.000276
  29	2.7860e+00	1.1021	-102.418097	0.000547	5.472052	1.853981	0.000219
  30	2.8855e+00	1.1583	-102.200091	0.000547	5.472052	1.853981	0.000219
  31	2.9850e+00	1.1984	-101.949789	0.000628	6.282726	2.128645	0.000252
  32	3.0845e+00	1.2321	-101.651041	0.000750	7.498737	2.540641	0.000300
  33	3.1840e+00	1.2561	-101.428998	0.000557	5.573386	1.888314	0.000223
  34	3.2835e+00	1.3123	-101.166584	0.000659	6.586729	2.231644	0.000264
  35	3.3830e+00	1.3460	-100.912245	0.000638	6.384060	2.162978	0.000256
  36	3.4825e+00	1.3877	-100.665980	0.000618	6.181392	2.094312	0.000248
  37	3.5820e+00	1.4294	-100.431826	0.000588	5.877389	1.991313	0.000235
  38	3.6815e+00	1.4727	-100.197672	0.000588	5.877389	1.991313	0.000235
  39	3.7810e+00	1.5016	-99.931221	0.000669	6.688063	2.265977	0.000268
  40	3.8805e+00	1.5417	-99.697067	0.000588	5.877389	1.991313	0.000235
  41	3.9800e+00	1.5914	-99.470987	0.000567	5.674720	1.922647	0.000227
  42	4.0795e+00	1.6203	-99.220685	0.000628	6.282726	2.128645	0.000252
  43	4.1790e+00	1.6764	-98.930011	0.000730	7.296069	2.471975	0.000292
  44	4.2785e+00	1.7149	-98.720080	0.000527	5.269383	1.785315	0.000211
  45	4.3780e+00	1.7486	-98.457666	0.000659	6.586729	2.231644	0.000264
  46	4.4775e+00	1.7855	-98.223513	0.000588	5.877389	1.991313	0.000235
  47	4.5770e+00	1.8288	-97.985321	0.000598	5.978723	2.025646	0.000239
  48	4.6765e+00	1.8657	-97.751168	0.000588	5.877389	1.991313	0.000235
  49	4.7760e+00	1.9042	-97.472605	0.000699	6.992066	2.368976	0.000280
  50	4.8755e+00	1.9427	-97.242489	0.000578	5.776055	1.956980	0.000231
  51	4.9750e+00	1.9812	-96.980075	0.000659	6.586729	2.231644	0.000264
  52	5.0745e+00	2.0229	-96.725735	0.000638	6.384060	2.162978	0.000256
  53	5.1740e+00	2.0614	-96.503693	0.000557	5.573386	1.888314	0.000223
  54	5.2735e+00	2.1096	-96.249353	0.000638	6.384060	2.162978	0.000256
  55	5.3730e+00	2.1384	-96.031348	0.000547	5.472052	1.853981	0.000219
  56	5.4725e+00	2.1834	-95.764897	0.000669	6.688063	2.265977	0.000268
  57	5.5720e+00	2.2219	-95.579189	0.000466	4.661377	1.579317	0.000187
  58	5.6715e+00	2.2700	-95.284478	0.000740	7.397403	2.506308	0.000296
  59	5.7710e+00	2.3037	-95.050324	0.000588	5.877389	1.991313	0.000235
  60	5.8705e+00	2.3438	-94.783873	0.000669	6.688063	2.265977	0.000268
  61	5.9700e+00	2.3951	-94.553756	0.000578	5.776055	1.956980	0.000231
  62	6.0695e+00	2.4112	-94.307491	0.000618	6.181392	2.094312	0.000248
  63	6.1690e+00	2.4561	-94.065263	0.000608	6.080057	2.059979	0.000243
  64	6.2685e+00	2.5074	-93.814960	0.000628	6.282726	2.128645	0.000252
  65	6.3680e+00	2.5411	-93.605029	0.000527	5.269383	1.785315	0.000211
  66	6.4675e+00	2.5828	-93.298207	0.000770	7.701406	2.609307	0.000308
  67	6.5670e+00	2.6229	-93.148833	0.000375	3.749369	1.270321	0.000150
  68	6.6665e+00	2.6662	-92.894493	0.000638	6.384060	2.162978	0.000256
  69	6.7660e+00	2.7015	-92.672451	0.000557	5.573386	1.888314	0.000223
  70	6.8655e+00	2.7384	-92.422148	0.000628	6.282726	2.128645	0.000252
  71	6.9650e+00	2.7769	-92.155697	0.000669	6.688063	2.265977	0.000268
  72	7.0645e+00	2.8154	-91.921544	0.000588	5.877389	1.991313	0.000235
  73	7.1640e+00	2.8555	-91.703538	0.000547	5.472052	1.853981	0.000219
  74	7.2635e+00	2.9021	-91.453236	0.000628	6.282726	2.128645	0.000252
  75	7.3630e+00	2.9422	-91.239268	0.000537	5.370717	1.819648	0.000215
  76	7.4625e+00	2.9759	-91.021262	0.000547	5.472052	1.853981	0.000219
  77	7.5620e+00	3.0256	-90.791146	0.000578	5.776055	1.956980	0.000231
  78	7.6615e+00	3.0641	-90.524695	0.000669	6.688063	2.265977	0.000268
  79	7.7610e+00	3.1010	-90.330912	0.000486	4.864046	1.647983	0.000195
  80	7.8605e+00	3.1443	-90.064461	0.000669	6.688063	2.265977	0.000268
  81	7.9600e+00	3.1828	-89.846456	0.000547	5.472052	1.853981	0.000219
  82	8.0595e+00	3.2181	-89.600191	0.000618	6.181392	2.094312	0.000248
  83	8.1590e+00	3.2630	-89.357962	0.000608	6.080057	2.059979	0.000243
  84	8.2585e+00	3.2967	-89.152069	0.000517	5.168049	1.750982	0.000207
  85	8.3580e+00	3.3400	-88.909840	0.000608	6.080057	2.059979	0.000243
  86	8.4575e+00	3.3785	-88.707984	0.000507	5.066715	1.716649	0.000203
  87	8.5570e+00	3.4106	-88.465755	0.000608	6.080057	2.059979	0.000243
  88	8.6565e+00	3.4667	-88.215453	0.000628	6.282726	2.128645	0.000252
  89	8.7560e+00	3.4924	-87.985336	0.000578	5.776055	1.956980	0.000231
  90	8.8555e+00	3.5325	-87.787517	0.000497	4.965380	1.682316	0.000199
  91	8.9550e+00	3.5726	-87.512991	0.000689	6.890732	2.334643	0.000276
  92	9.0545e+00	3.6127	-87.307097	0.000517	5.168049	1.750982	0.000207
  93	9.1540e+00	3.6577	-87.052758	0.000638	6.384060	2.162978	0.000256
  94	9.2535e+00	3.6978	-86.854938	0.000497	4.965380	1.682316	0.000199
  95	9.3530e+00	3.7379	-86.620784	0.000588	5.877389	1.991313	0.000235
  96	9.4525e+00	3.7780	-86.406816	0.000537	5.370717	1.819648	0.000215
  97	9.5520e+00	3.8197	-86.160551	0.000618	6.181392	2.094312	0.000248
  98	9.6515e+00	3.8550	-85.974843	0.000466	4.661377	1.579317	0.000187
  99	9.7510e+00	3.8951	-85.732615	0.000608	6.080057	2.059979	0.000243
 100	9.8505e+00	3.9352	-85.482312	0.000628	6.282726	2.128645	0.000252
 101	9.9500e+00	3.9689	-85.248158	0.000588	5.877389	1.991313	0.000235
 102	1.0050e+01	4.0234	-85.042264	0.000517	5.168049	1.750982	0.000207
 103	1.0149e+01	4.0587	-84.840408	0.000507	5.066715	1.716649	0.000203
 104	1.0248e+01	4.1036	-84.610291	0.000578	5.776055	1.956980	0.000231
 105	1.0348e+01	4.1357	-84.400360	0.000527	5.269383	1.785315	0.000211
 106	1.0447e+01	4.1742	-84.178317	0.000557	5.573386	1.888314	0.000223
 107	1.0547e+01	4.2079	-83.940126	0.000598	5.978723	2.025646	0.000239
 108	1.0646e+01	4.2592	-83.693861	0.000618	6.181392	2.094312	0.000248
 109	1.0746e+01	4.2881	-83.483930	0.000527	5.269383	1.785315	0.000211
 110	1.0845e+01	4.3427	-83.249776	0.000588	5.877389	1.991313	0.000235
 111	1.0945e+01	4.3828	-83.055994	0.000486	4.864046	1.647983	0.000195
 112	1.1044e+01	4.4165	-82.854137	0.000507	5.066715	1.716649	0.000203
 113	1.1144e+01	4.4598	-82.644206	0.000527	5.269383	1.785315	0.000211
 114	1.1243e+01	4.4870	-82.426200	0.000547	5.472052	1.853981	0.000219
 115	1.1343e+01	4.5384	-82.192046	0.000588	5.877389	1.991313	0.000235
 116	1.1443e+01	4.5705	-81.990190	0.000507	5.066715	1.716649	0.000203
 117	1.1542e+01	4.6138	-81.756036	0.000588	5.877389	1.991313	0.000235
 118	1.1642e+01	4.6635	-81.546105	0.000527	5.269383	1.785315	0.000211
 119	1.1741e+01	4.6940	-81.352322	0.000486	4.864046	1.647983	0.000195
 120	1.1841e+01	4.7405	-81.102020	0.000628	6.282726	2.128645	0.000252
 121	1.1940e+01	4.7726	-80.892089	0.000527	5.269383	1.785315	0.000211
 122	1.2040e+01	4.8127	-80.706381	0.000466	4.661377	1.579317	0.000187
 123	1.2139e+01	4.8560	-80.496449	0.000527	5.269383	1.785315	0.000211
 124	1.2239e+01	4.8929	-80.262296	0.000588	5.877389	1.991313	0.000235
 125	1.2338e+01	4.9378	-80.011993	0.000628	6.282726	2.128645	0.000252
 126	1.2438e+01	4.9779	-79.854545	0.000395	3.952037	1.338986	0.000158
 127	1.2537e+01	5.0148	-79.636540	0.000547	5.472052	1.853981	0.000219
 128	1.2636e+01	5.0614	-79.442757	0.000486	4.864046	1.647983	0.000195
 129	1.2736e+01	5.0918	-79.212640	0.000578	5.776055	1.956980	0.000231
 130	1.2835e+01	5.1335	-79.002709	0.000527	5.269383	1.785315	0.000211
 131	1.2935e+01	5.1688	-78.800852	0.000507	5.066715	1.716649	0.000203
 132	1.3034e+01	5.2138	-78.542476	0.000649	6.485395	2.197311	0.000260
 133	1.3134e+01	5.2587	-78.364842	0.000446	4.458709	1.510651	0.000179
 134	1.3233e+01	5.2940	-78.191245	0.000436	4.357374	1.476318	0.000174
 135	1.3333e+01	5.3325	-77.949017	0.000608	6.080057	2.059979	0.000243
 136	1.3432e+01	5.3758	-77.735049	0.000537	5.370717	1.819648	0.000215
 137	1.3532e+01	5.4159	-77.581637	0.000385	3.850703	1.304654	0.000154
 138	1.3632e+01	5.4560	-77.339409	0.000608	6.080057	2.059979	0.000243
 139	1.3731e+01	5.4945	-77.129478	0.000527	5.269383	1.785315	0.000211
 140	1.3831e+01	5.5330	-76.895324	0.000588	5.877389	1.991313	0.000235
 141	1.3930e+01	5.5731	-76.729802	0.000415	4.154706	1.407652	0.000166
 142	1.4030e+01	5.6004	-76.544094	0.000466	4.661377	1.579317	0.000187
 143	1.4129e+01	5.6517	-76.309940	0.000588	5.877389	1.991313	0.000235
 144	1.4229e+01	5.6870	-76.120194	0.000476	4.762712	1.613650	0.000191
 145	1.4328e+01	5.7303	-75.890078	0.000578	5.776055	1.956980	0.000231
 146	1.4428e+01	5.7688	-75.712444	0.000446	4.458709	1.510651	0.000179
 147	1.4527e+01	5.8089	-75.502513	0.000527	5.269383	1.785315	0.000211
 148	1.4627e+01	5.8522	-75.349101	0.000385	3.850703	1.304654	0.000154
 149	1.4726e+01	5.8891	-75.098799	0.000628	6.282726	2.128645	0.000252
 150	1.4825e+01	5.9276	-74.888868	0.000527	5.269383	1.785315	0.000211
 151	1.4925e+01	5.9726	-74.670863	0.000547	5.472052	1.853981	0.000219
 152	1.5024e+01	6.0095	-74.525526	0.000365	3.648034	1.235988	0.000146
 153	1.5124e+01	6.0415	-74.319632	0.000517	5.168049	1.750982	0.000207
 154	1.5223e+01	6.0897	-74.117775	0.000507	5.066715	1.716649	0.000203
 155	1.5323e+01	6.1266	-73.859398	0.000649	6.485395	2.197311	0.000260
 156	1.5422e+01	6.1699	-73.722136	0.000345	3.445366	1.167322	0.000138
 157	1.5522e+01	6.2004	-73.504130	0.000547	5.472052	1.853981	0.000219
 158	1.5621e+01	6.2581	-73.322459	0.000456	4.560043	1.544984	0.000183
 159	1.5721e+01	6.2870	-73.116565	0.000517	5.168049	1.750982	0.000207
 160	1.5820e+01	6.3351	-72.914709	0.000507	5.066715	1.716649	0.000203
 161	1.5920e+01	6.3672	-72.733037	0.000456	4.560043	1.544984	0.000183
 162	1.6020e+01	6.4041	-72.527144	0.000517	5.168049	1.750982	0.000207
 163	1.6119e+01	6.4410	-72.325287	0.000507	5.066715	1.716649	0.000203
 164	1.6218e+01	6.4763	-72.188024	0.000345	3.445366	1.167322	0.000138
 165	1.6318e+01	6.5180	-71.957907	0.000578	5.776055	1.956980	0.000231
 166	1.6418e+01	6.5613	-71.743939	0.000537	5.370717	1.819648	0.000215
 167	1.6517e+01	6.6078	-71.598602	0.000365	3.648034	1.235988	0.000146
 168	1.6616e+01	6.6479	-71.408857	0.000476	4.762712	1.613650	0.000191
 169	1.6716e+01	6.6768	-71.186814	0.000557	5.573386	1.888314	0.000223
 170	1.6816e+01	6.7330	-71.001106	0.000466	4.661377	1.579317	0.000187
 171	1.6915e+01	6.7586	-70.835584	0.000415	4.154706	1.407652	0.000166
 172	1.7015e+01	6.8068	-70.629690	0.000517	5.168049	1.750982	0.000207
 173	1.7114e+01	6.8421	-70.427833	0.000507	5.066715	1.716649	0.000203
 174	1.7213e+01	6.8806	-70.270385	0.000395	3.952037	1.338986	0.000158
 175	1.7313e+01	6.9271	-70.080639	0.000476	4.762712	1.613650	0.000191
 176	1.7413e+01	6.9640	-69.907042	0.000436	4.357374	1.476318	0.000174
 177	1.7512e+01	7.0137	-69.737483	0.000426	4.256040	1.441985	0.000170
 178	1.7611e+01	7.0458	-69.527552	0.000527	5.269383	1.785315	0.000211
 179	1.7711e+01	7.0795	-69.325695	0.000507	5.066715	1.716649	0.000203
 180	1.7811e+01	7.1164	-69.184395	0.000355	3.546700	1.201655	0.000142
 181	1.7910e+01	7.1645	-68.954278	0.000578	5.776055	1.956980	0.000231
 182	1.8009e+01	7.1998	-68.768570	0.000466	4.661377	1.579317	0.000187
 183	1.8109e+01	7.2479	-68.586899	0.000456	4.560043	1.544984	0.000183
 184	1.8209e+01	7.2816	-68.360819	0.000567	5.674720	1.922647	0.000227
 185	1.8308e+01	7.3281	-68.219520	0.000355	3.546700	1.201655	0.000142
 186	1.8407e+01	7.3602	-68.037849	0.000456	4.560043	1.544984	0.000183
 187	1.8507e+01	7.4067	-67.844066	0.000486	4.864046	1.647983	0.000195
 188	1.8607e+01	7.4452	-67.670469	0.000436	4.357374	1.476318	0.000174
 189	1.8706e+01	7.4854	-67.484761	0.000466	4.661377	1.579317	0.000187
 190	1.8805e+01	7.5222	-67.327313	0.000395	3.952037	1.338986	0.000158
 191	1.8905e+01	7.5640	-67.101233	0.000567	5.674720	1.922647	0.000227
 192	1.9005e+01	7.6105	-66.968008	0.000334	3.344032	1.132989	0.000134
 193	1.9104e+01	7.6410	-66.766151	0.000507	5.066715	1.716649	0.000203
 194	1.9203e+01	7.6827	-66.608703	0.000395	3.952037	1.338986	0.000158
 195	1.9303e+01	7.7196	-66.390697	0.000547	5.472052	1.853981	0.000219
 196	1.9402e+01	7.7629	-66.204989	0.000466	4.661377	1.579317	0.000187
 197	1.9502e+01	7.8014	-66.051578	0.000385	3.850703	1.304654	0.000154
 198	1.9602e+01	7.8383	-65.841647	0.000527	5.269383	1.785315	0.000211
 199	1.9701e+01	7.8832	-65.676124	0.000415	4.154706	1.407652	0.000166
 200	1.9800e+01	7.9265	-65.506564	0.000426	4.256040	1.441985	0.000170
 201	1.9900e+01	7.9602	-65.332968	0.000436	4.357374	1.476318	0.000174
 202	2.0000e+01	8.0051	-65.171482	0.000405	4.053372	1.373319	0.000162
 203	2.0099e+01	8.0420	-64.969625	0.000507	5.066715	1.716649	0.000203
 204	2.0198e+01	8.0773	-64.791991	0.000446	4.458709	1.510651	0.000179
 205	2.0298e+01	8.1110	-64.618395	0.000436	4.357374	1.476318	0.000174
 206	2.0398e+01	8.1639	-64.460946	0.000395	3.952037	1.338986	0.000158
 207	2.0497e+01	8.1928	-64.271201	0.000476	4.762712	1.613650	0.000191
 208	2.0596e+01	8.2297	-64.133938	0.000345	3.445366	1.167322	0.000138
 209	2.0696e+01	8.2810	-63.944193	0.000476	4.762712	1.613650	0.000191
 210	2.0796e+01	8.3163	-63.770596	0.000436	4.357374	1.476318	0.000174
 211	2.0895e+01	8.3581	-63.596999	0.000436	4.357374	1.476318	0.000174
 212	2.0994e+01	8.3982	-63.370920	0.000567	5.674720	1.922647	0.000227
 213	2.1094e+01	8.4367	-63.225583	0.000365	3.648034	1.235988	0.000146
 214	2.1194e+01	8.4768	-63.096394	0.000324	3.242697	1.098656	0.000130
 215	2.1293e+01	8.5233	-62.894538	0.000507	5.066715	1.716649	0.000203
 216	2.1392e+01	8.5554	-62.708829	0.000466	4.661377	1.579317	0.000187
 217	2.1492e+01	8.5955	-62.555418	0.000385	3.850703	1.304654	0.000154
 218	2.1591e+01	8.6340	-62.373747	0.000456	4.560043	1.544984	0.000183
 219	2.1691e+01	8.6757	-62.224373	0.000375	3.749369	1.270321	0.000150
 220	2.1791e+01	8.7334	-62.022516	0.000507	5.066715	1.716649	0.000203
 221	2.1890e+01	8.7591	-61.873142	0.000375	3.749369	1.270321	0.000150
 222	2.1989e+01	8.8008	-61.683397	0.000476	4.762712	1.613650	0.000191
 223	2.2089e+01	8.8313	-61.534023	0.000375	3.749369	1.270321	0.000150
 224	2.2189e+01	8.8794	-61.368500	0.000415	4.154706	1.407652	0.000166
 225	2.2288e+01	8.9115	-61.154532	0.000537	5.370717	1.819648	0.000215
 226	2.2387e+01	8.9500	-61.013232	0.000355	3.546700	1.201655	0.000142
 227	2.2487e+01	9.0014	-60.855784	0.000395	3.952037	1.338986	0.000158
 228	2.2587e+01	9.0350	-60.670076	0.000466	4.661377	1.579317	0.000187
 229	2.2686e+01	9.0767	-60.512628	0.000395	3.952037	1.338986	0.000158
 230	2.2785e+01	9.1072	-60.326919	0.000466	4.661377	1.579317	0.000187
 231	2.2885e+01	9.1554	-60.141211	0.000466	4.661377	1.579317	0.000187
 232	2.2985e+01	9.2083	-59.975689	0.000415	4.154706	1.407652	0.000166
 233	2.3084e+01	9.2340	-59.826315	0.000375	3.749369	1.270321	0.000150
 234	2.3183e+01	9.2789	-59.656755	0.000426	4.256040	1.441985	0.000170
 235	2.3283e+01	9.3126	-59.467009	0.000476	4.762712	1.613650	0.000191
 236	2.3383e+01	9.3591	-59.301487	0.000415	4.154706	1.407652	0.000166
 237	2.3482e+01	9.3976	-59.135964	0.000415	4.154706	1.407652	0.000166
 238	2.3581e+01	9.4377	-59.026962	0.000274	2.736026	0.926991	0.000110
 239	2.3681e+01	9.4778	-58.788771	0.000598	5.978723	2.025646	0.000239
 240	2.3780e+01	9.5051	-58.623248	0.000415	4.154706	1.407652	0.000166
 241	2.3880e+01	9.5468	-58.461763	0.000405	4.053372	1.373319	0.000162
 242	2.3980e+01	9.5965	-58.316426	0.000365	3.648034	1.235988	0.000146
 243	2.4079e+01	9.6398	-58.146866	0.000426	4.256040	1.441985	0.000170
 244	2.4178e+01	9.6815	-57.969232	0.000446	4.458709	1.510651	0.000179
 245	2.4278e+01	9.7136	-57.791598	0.000446	4.458709	1.510651	0.000179
 246	2.4378e+01	9.7537	-57.613964	0.000446	4.458709	1.510651	0.000179
 247	2.4477e+01	9.7954	-57.464590	0.000375	3.749369	1.270321	0.000150
 248	2.4576e+01	9.8372	-57.327327	0.000345	3.445366	1.167322	0.000138
 249	2.4676e+01	9.8692	-57.137582	0.000476	4.762712	1.613650	0.000191
 250	2.4776e+01	9.9190	-56.955911	0.000456	4.560043	1.544984	0.000183
 251	2.4875e+01	9.9639	-56.782314	0.000436	4.357374	1.476318	0.000174
 252	2.4974e+01	9.9912	-56.641014	0.000355	3.546700	1.201655	0.000142
 253	2.5074e+01	10.0361	-56.499715	0.000355	3.546700	1.201655	0.000142
 254	2.5174e+01	10.0794	-56.314006	0.000466	4.661377	1.579317	0.000187
 255	2.5273e+01	10.1147	-56.120224	0.000486	4.864046	1.647983	0.000195
 256	2.5372e+01	10.1484	-55.974887	0.000365	3.648034	1.235988	0.000146
 257	2.5472e+01	10.1885	-55.768993	0.000517	5.168049	1.750982	0.000207
 258	2.5572e+01	10.2238	-55.619619	0.000375	3.749369	1.270321	0.000150
 259	2.5671e+01	10.2735	-55.470245	0.000375	3.749369	1.270321	0.000150
 260	2.5770e+01	10.3120	-55.316834	0.000385	3.850703	1.304654	0.000154
 261	2.5870e+01	10.3585	-55.127089	0.000476	4.762712	1.613650	0.000191
 262	2.5970e+01	10.3874	-54.953492	0.000436	4.357374	1.476318	0.000174
 263	2.6069e+01	10.4307	-54.808155	0.000365	3.648034	1.235988	0.000146
 264	2.6169e+01	10.4708	-54.626484	0.000456	4.560043	1.544984	0.000183
 265	2.6268e+01	10.5109	-54.477110	0.000375	3.749369	1.270321	0.000150
 266	2.6367e+01	10.5591	-54.311587	0.000415	4.154706	1.407652	0.000166
 267	2.6467e+01	10.5879	-54.137990	0.000436	4.357374	1.476318	0.000174
 268	2.6567e+01	10.6329	-53.960356	0.000446	4.458709	1.510651	0.000179
 269	2.6666e+01	10.6681	-53.774648	0.000466	4.661377	1.579317	0.000187
 270	2.6765e+01	10.7099	-53.661608	0.000284	2.837360	0.961324	0.000114
 271	2.6865e+01	10.7580	-53.512234	0.000375	3.749369	1.270321	0.000150
 272	2.6965e+01	10.7933	-53.318452	0.000486	4.864046	1.647983	0.000195
 273	2.7064e+01	10.8254	-53.128706	0.000476	4.762712	1.613650	0.000191
 274	2.7163e+01	10.8703	-52.975295	0.000385	3.850703	1.304654	0.000154
 275	2.7263e+01	10.9088	-52.781513	0.000486	4.864046	1.647983	0.000195
 276	2.7363e+01	10.9473	-52.652324	0.000324	3.242697	1.098656	0.000130
 277	2.7462e+01	10.9842	-52.486802	0.000415	4.154706	1.407652	0.000166
 278	2.7561e+01	11.0387	-52.309168	0.000446	4.458709	1.510651	0.000179
 279	2.7661e+01	11.0676	-52.139608	0.000426	4.256040	1.441985	0.000170
 280	2.7761e+01	11.1061	-51.982160	0.000395	3.952037	1.338986	0.000158
 281	2.7860e+01	11.1446	-51.844897	0.000345	3.445366	1.167322	0.000138
 282	2.7959e+01	11.1799	-51.671300	0.000436	4.357374	1.476318	0.000174
 283	2.8059e+01	11.2264	-51.489629	0.000456	4.560043	1.544984	0.000183
 284	2.8159e+01	11.2665	-51.320070	0.000426	4.256040	1.441985	0.000170
 285	2.8258e+01	11.3114	-51.170695	0.000375	3.749369	1.270321	0.000150
 286	2.8358e+01	11.3419	-50.989024	0.000456	4.560043	1.544984	0.000183
 287	2.8457e+01	11.3949	-50.811390	0.000446	4.458709	1.510651	0.000179
 288	2.8556e+01	11.4382	-50.649905	0.000405	4.053372	1.373319	0.000162
 289	2.8656e+01	11.4671	-50.476308	0.000436	4.357374	1.476318	0.000174
 290	2.8756e+01	11.5120	-50.330971	0.000365	3.648034	1.235988	0.000146
 291	2.8855e+01	11.5392	-50.157374	0.000436	4.357374	1.476318	0.000174
 292	2.8954e+01	11.5890	-49.963592	0.000486	4.864046	1.647983	0.000195
 293	2.9054e+01	11.6307	-49.846515	0.000294	2.938694	0.995657	0.000118
 294	2.9154e+01	11.6756	-49.648695	0.000497	4.965380	1.682316	0.000199
 295	2.9253e+01	11.7109	-49.462987	0.000466	4.661377	1.579317	0.000187
 296	2.9352e+01	11.7462	-49.329762	0.000334	3.344032	1.132989	0.000134
 297	2.9452e+01	11.7863	-49.135979	0.000486	4.864046	1.647983	0.000195
 298	2.9552e+01	11.8184	-48.974494	0.000405	4.053372	1.373319	0.000162
 299	2.9651e+01	11.8633	-48.788785	0.000466	4.661377	1.579317	0.000187
 300	2.9750e+01	11.9034	-48.619226	0.000426	4.256040	1.441985	0.000170
 301	2.9850e+01	11.9435	-48.457740	0.000405	4.053372	1.373319	0.000162
 302	2.9950e+01	11.9772	-48.280106	0.000446	4.458709	1.510651	0.000179
 303	3.0049e+01	12.0269	-48.142844	0.000345	3.445366	1.167322	0.000138
 304	3.0148e+01	12.0670	-47.940987	0.000507	5.066715	1.716649	0.000203
 305	3.0248e+01	12.1023	-47.767390	0.000436	4.357374	1.476318	0.000174
 306	3.0348e+01	12.1505	-47.613979	0.000385	3.850703	1.304654	0.000154
 307	3.0447e+01	12.1793	-47.468642	0.000365	3.648034	1.235988	0.000146
 308	3.0547e+01	12.2291	-47.234488	0.000588	5.877389	1.991313	0.000235
 309	3.0646e+01	12.2676	-47.101263	0.000334	3.344032	1.132989	0.000134
 310	3.0745e+01	12.3061	-46.931703	0.000426	4.256040	1.441985	0.000170
 311	3.0845e+01	12.3510	-46.721772	0.000527	5.269383	1.785315	0.000211
 312	3.0945e+01	12.3847	-46.580472	0.000355	3.546700	1.201655	0.000142
 313	3.1044e+01	12.4312	-46.402838	0.000446	4.458709	1.510651	0.000179
 314	3.1143e+01	12.4649	-46.200981	0.000507	5.066715	1.716649	0.000203
 315	3.1243e+01	12.5050	-46.079867	0.000304	3.040029	1.029990	0.000122
 316	3.1343e+01	12.5531	-45.878011	0.000507	5.066715	1.716649	0.000203
 317	3.1442e+01	12.5852	-45.696339	0.000456	4.560043	1.544984	0.000183
 318	3.1541e+01	12.6221	-45.530817	0.000415	4.154706	1.407652	0.000166
 319	3.1641e+01	12.6622	-45.337034	0.000486	4.864046	1.647983	0.000195
 320	3.1741e+01	12.7119	-45.143252	0.000486	4.864046	1.647983	0.000195
 321	3.1840e+01	12.7472	-44.933321	0.000527	5.269383	1.785315	0.000211
 322	3.1939e+01	12.7825	-44.779910	0.000385	3.850703	1.304654	0.000154
 323	3.2039e+01	12.8242	-44.662833	0.000294	2.938694	0.995657	0.000118
 324	3.2139e+01	12.8659	-44.440790	0.000557	5.573386	1.888314	0.000223
 325	3.2238e+01	12.9028	-44.287379	0.000385	3.850703	1.304654	0.000154
 326	3.2337e+01	12.9478	-44.073411	0.000537	5.370717	1.819648	0.000215
 327	3.2437e+01	12.9766	-43.944223	0.000324	3.242697	1.098656	0.000130
 328	3.2536e+01	13.0264	-43.710069	0.000588	5.877389	1.991313	0.000235
 329	3.2636e+01	13.0601	-43.560695	0.000375	3.749369	1.270321	0.000150
 330	3.2736e+01	13.0970	-43.370949	0.000476	4.762712	1.613650	0.000191
 331	3.2835e+01	13.1387	-43.185241	0.000466	4.661377	1.579317	0.000187
 332	3.2934e+01	13.1691	-43.007607	0.000446	4.458709	1.510651	0.000179
 333	3.3034e+01	13.2189	-42.821899	0.000466	4.661377	1.579317	0.000187
 334	3.3133e+01	13.2542	-42.656376	0.000415	4.154706	1.407652	0.000166
 335	3.3233e+01	13.2975	-42.438371	0.000547	5.472052	1.853981	0.000219
 336	3.3333e+01	13.3280	-42.280923	0.000395	3.952037	1.338986	0.000158
 337	3.3432e+01	13.3777	-42.111363	0.000426	4.256040	1.441985	0.000170
 338	3.3532e+01	13.4082	-41.929692	0.000456	4.560043	1.544984	0.000183
 339	3.3631e+01	13.4659	-41.715724	0.000537	5.370717	1.819648	0.000215
 340	3.3730e+01	13.4964	-41.538090	0.000446	4.458709	1.510651	0.000179
 341	3.3830e+01	13.5461	-41.324121	0.000537	5.370717	1.819648	0.000215
 342	3.3929e+01	13.5750	-41.122265	0.000507	5.066715	1.716649	0.000203
 343	3.4029e+01	13.6135	-40.936556	0.000466	4.661377	1.579317	0.000187
 344	3.4129e+01	13.6665	-40.718551	0.000547	5.472052	1.853981	0.000219
 345	3.4228e+01	13.7018	-40.524769	0.000486	4.864046	1.647983	0.000195
 346	3.4328e+01	13.7386	-40.343097	0.000456	4.560043	1.544984	0.000183
 347	3.4427e+01	13.7772	-40.141241	0.000507	5.066715	1.716649	0.000203
 348	3.4526e+01	13.8140	-39.935347	0.000517	5.168049	1.750982	0.000207
 349	3.4626e+01	13.8654	-39.745601	0.000476	4.762712	1.613650	0.000191
 350	3.4725e+01	13.8959	-39.495299	0.000628	6.282726	2.128645	0.000252
 351	3.4825e+01	13.9360	-39.301516	0.000486	4.864046	1.647983	0.000195
 352	3.4925e+01	13.9793	-39.063325	0.000598	5.978723	2.025646	0.000239
 353	3.5024e+01	14.0194	-38.829172	0.000588	5.877389	1.991313	0.000235
 354	3.5123e+01	14.0579	-38.659612	0.000426	4.256040	1.441985	0.000170
 355	3.5223e+01	14.0996	-38.445644	0.000537	5.370717	1.819648	0.000215
 356	3.5322e+01	14.1381	-38.203415	0.000608	6.080057	2.059979	0.000243
 357	3.5422e+01	14.1750	-37.977336	0.000567	5.674720	1.922647	0.000227
 358	3.5522e+01	14.2199	-37.771442	0.000517	5.168049	1.750982	0.000207
 359	3.5621e+01	14.2552	-37.553437	0.000547	5.472052	1.853981	0.000219
 360	3.5721e+01	14.2857	-37.343506	0.000527	5.269383	1.785315	0.000211
 361	3.5820e+01	14.3386	-37.081092	0.000659	6.586729	2.231644	0.000264
 362	3.5919e+01	14.3755	-36.850975	0.000578	5.776055	1.956980	0.000231
 363	3.6019e+01	14.4124	-36.637007	0.000537	5.370717	1.819648	0.000215
 364	3.6118e+01	14.4493	-36.406890	0.000578	5.776055	1.956980	0.000231
 365	3.6218e+01	14.4910	-36.140439	0.000669	6.688063	2.265977	0.000268
 366	3.6318e+01	14.5376	-35.914360	0.000567	5.674720	1.922647	0.000227
 367	3.6417e+01	14.5841	-35.724614	0.000476	4.762712	1.613650	0.000191
 368	3.6517e+01	14.6049	-35.458163	0.000669	6.688063	2.265977	0.000268
 369	3.6616e+01	14.6482	-35.280529	0.000446	4.458709	1.510651	0.000179
 370	3.6715e+01	14.7028	-35.018115	0.000659	6.586729	2.231644	0.000264
 371	3.6815e+01	14.7301	-34.820296	0.000497	4.965380	1.682316	0.000199
 372	3.6914e+01	14.7734	-34.537696	0.000709	7.093400	2.403309	0.000284
 373	3.7014e+01	14.8135	-34.307580	0.000578	5.776055	1.956980	0.000231
 374	3.7114e+01	14.8552	-34.073426	0.000588	5.877389	1.991313	0.000235
 375	3.7213e+01	14.8905	-33.819086	0.000638	6.384060	2.162978	0.000256
 376	3.7313e+01	14.9322	-33.629341	0.000476	4.762712	1.613650	0.000191
 377	3.7412e+01	14.9723	-33.362890	0.000669	6.688063	2.265977	0.000268
 378	3.7511e+01	15.0172	-33.108550	0.000638	6.384060	2.162978	0.000256
 379	3.7611e+01	15.0493	-32.894582	0.000537	5.370717	1.819648	0.000215
 380	3.7711e+01	15.0846	-32.628131	0.000669	6.688063	2.265977	0.000268
 381	3.7810e+01	15.1311	-32.385903	0.000608	6.080057	2.059979	0.000243
 382	3.7910e+01	15.1648	-32.119452	0.000669	6.688063	2.265977	0.000268
 383	3.8009e+01	15.2081	-31.873187	0.000618	6.181392	2.094312	0.000248
 384	3.8108e+01	15.2466	-31.647107	0.000567	5.674720	1.922647	0.000227
 385	3.8208e+01	15.2948	-31.380656	0.000669	6.688063	2.265977	0.000268
 386	3.8307e+01	15.3317	-31.150539	0.000578	5.776055	1.956980	0.000231
 387	3.8407e+01	15.3734	-30.851791	0.000750	7.498737	2.540641	0.000300
 388	3.8507e+01	15.4119	-30.593415	0.000649	6.485395	2.197311	0.000260
 389	3.8606e+01	15.4423	-30.379446	0.000537	5.370717	1.819648	0.000215
 390	3.8706e+01	15.4792	-30.137218	0.000608	6.080057	2.059979	0.000243
 391	3.8805e+01	15.5290	-29.842507	0.000740	7.397403	2.506308	0.000296
 392	3.8904e+01	15.5627	-29.567982	0.000689	6.890732	2.334643	0.000276
 393	3.9004e+01	15.6092	-29.366125	0.000507	5.066715	1.716649	0.000203
 394	3.9103e+01	15.6429	-29.087563	0.000699	6.992066	2.368976	0.000280
 395	3.9203e+01	15.6894	-28.833223	0.000638	6.384060	2.162978	0.000256
 396	3.9303e+01	15.7311	-28.542550	0.000730	7.296069	2.471975	0.000292
 397	3.9402e+01	15.7712	-28.251876	0.000730	7.296069	2.471975	0.000292
 398	3.9502e+01	15.7969	-28.013685	0.000598	5.978723	2.025646	0.000239
 399	3.9601e+01	15.8530	-27.731085	0.000709	7.093400	2.403309	0.000284
 400	3.9700e+01	15.8915	-27.412152	0.000801	8.005409	2.712306	0.000321
 401	3.9800e+01	15.9300	-27.161849	0.000628	6.282726	2.128645	0.000252
 402	3.9900e+01	15.9637	-26.818693	0.000861	8.613415	2.918304	0.000345
 403	3.9999e+01	16.0151	-26.528019	0.000730	7.296069	2.471975	0.000292
 404	4.0099e+01	16.0423	-26.265605	0.000659	6.586729	2.231644	0.000264
 405	4.0198e+01	16.0889	-25.942634	0.000811	8.106743	2.746639	0.000325
 406	4.0297e+01	16.1322	-25.607552	0.000841	8.410746	2.849638	0.000337
 407	4.0397e+01	16.1787	-25.304767	0.000760	7.600072	2.574974	0.000304
 408	4.0496e+01	16.2044	-25.001982	0.000760	7.600072	2.574974	0.000304
 409	4.0596e+01	16.2541	-24.679011	0.000811	8.106743	2.746639	0.000325
 410	4.0696e+01	16.2926	-24.388337	0.000730	7.296069	2.471975	0.000292
 411	4.0795e+01	16.3215	-24.037106	0.000882	8.816083	2.986970	0.000353
 412	4.0895e+01	16.3776	-23.673764	0.000912	9.120086	3.089969	0.000365
 413	4.0994e+01	16.4065	-23.411350	0.000659	6.586729	2.231644	0.000264
 414	4.1093e+01	16.4450	-23.031859	0.000953	9.525423	3.227301	0.000381
 415	4.1193e+01	16.4835	-22.692740	0.000851	8.512080	2.883971	0.000341
 416	4.1292e+01	16.5188	-22.349583	0.000861	8.613415	2.918304	0.000345
 417	4.1392e+01	16.5653	-22.014501	0.000841	8.410746	2.849638	0.000337
 418	4.1492e+01	16.6070	-21.671345	0.000861	8.613415	2.918304	0.000345
 419	4.1591e+01	16.6423	-21.312040	0.000902	9.018752	3.055636	0.000361
 420	4.1691e+01	16.6888	-20.940623	0.000932	9.322755	3.158635	0.000373
 421	4.1790e+01	16.7193	-20.553058	0.000973	9.728092	3.295967	0.000390
 422	4.1889e+01	16.7562	-20.165493	0.000973	9.728092	3.295967	0.000390
 423	4.1989e+01	16.8140	-19.769854	0.000993	9.930760	3.364633	0.000398
 424	4.2089e+01	16.8412	-19.414586	0.000892	8.917418	3.021303	0.000357
 425	4.2188e+01	16.8910	-19.039132	0.000942	9.424089	3.192968	0.000377
 426	4.2288e+01	16.9279	-18.655604	0.000963	9.626758	3.261634	0.000385
 427	4.2387e+01	16.9664	-18.243816	0.001034	10.336098	3.501965	0.000414
 428	4.2486e+01	17.0113	-17.811843	0.001084	10.842769	3.673630	0.000434
 429	4.2586e+01	17.0466	-17.440426	0.000932	9.322755	3.158635	0.000373
 430	4.2685e+01	17.0787	-17.069010	0.000932	9.322755	3.158635	0.000373
 431	4.2785e+01	17.1236	-16.701631	0.000922	9.221420	3.124302	0.000369
 432	4.2885e+01	17.1685	-16.285806	0.001044	10.437432	3.536298	0.000418
 433	4.2984e+01	17.1942	-15.878055	0.001023	10.234763	3.467632	0.000410
 434	4.3084e+01	17.2519	-15.486453	0.000983	9.829426	3.330300	0.000394
 435	4.3183e+01	17.2840	-15.078702	0.001023	10.234763	3.467632	0.000410
 436	4.3282e+01	17.3225	-14.679026	0.001003	10.032095	3.398966	0.000402
 437	4.3382e+01	17.3674	-14.226866	0.001135	11.349441	3.845295	0.000454
 438	4.3481e+01	17.4011	-13.819116	0.001023	10.234763	3.467632	0.000410
 439	4.3581e+01	17.4396	-13.399254	0.001054	10.538766	3.570631	0.000422
 440	4.3681e+01	17.4797	-12.971317	0.001074	10.741435	3.639297	0.000430
 441	4.3780e+01	17.5166	-12.515121	0.001145	11.450775	3.879628	0.000458
 442	4.3880e+01	17.5631	-12.103333	0.001034	10.336098	3.501965	0.000414
 443	4.3979e+01	17.6000	-11.651174	0.001135	11.349441	3.845295	0.000454
 444	4.4078e+01	17.6466	-11.215163	0.001094	10.944103	3.707963	0.000438
 445	4.4178e+01	17.6883	-10.779152	0.001094	10.944103	3.707963	0.000438
 446	4.4278e+01	17.7236	-10.306808	0.001186	11.856112	4.016959	0.000475
 447	4.4377e+01	17.7653	-9.802166	0.001267	12.666786	4.291623	0.000507
 448	4.4477e+01	17.8022	-9.325784	0.001196	11.957446	4.051292	0.000479
 449	4.4576e+01	17.8375	-8.861513	0.001165	11.653443	3.948293	0.000467
 450	4.4675e+01	17.8840	-8.425502	0.001094	10.944103	3.707963	0.000438
 451	4.4775e+01	17.9305	-7.896638	0.001327	13.274792	4.497621	0.000532
 452	4.4874e+01	17.9594	-7.460627	0.001094	10.944103	3.707963	0.000438
 453	4.4974e+01	18.0043	-6.980208	0.001206	12.058781	4.085625	0.000483
 454	4.5074e+01	18.0396	-6.499789	0.001206	12.058781	4.085625	0.000483
 455	4.5173e+01	18.0733	-6.059741	0.001105	11.045438	3.742296	0.000442
 456	4.5273e+01	18.1214	-5.571247	0.001226	12.261449	4.154291	0.000491
 457	4.5372e+01	18.1631	-5.066605	0.001267	12.666786	4.291623	0.000507
 458	4.5471e+01	18.2048	-4.574075	0.001236	12.362783	4.188624	0.000495
 459	4.5571e+01	18.2449	-4.049247	0.001317	13.173458	4.463288	0.000527
 460	4.5670e+01	18.2738	-3.580939	0.001175	11.754778	3.982626	0.000471
 461	4.5770e+01	18.3203	-3.039963	0.001358	13.578795	4.600620	0.000544
 462	4.5870e+01	18.3637	-2.511098	0.001327	13.274792	4.497621	0.000532
 463	4.5969e+01	18.4054	-1.949937	0.001409	14.085466	4.772285	0.000564
 464	4.6069e+01	18.4310	-1.396849	0.001388	13.882798	4.703619	0.000556
 465	4.6168e+01	18.4808	-0.815501	0.001459	14.592138	4.943950	0.000584
 466	4.6267e+01	18.5273	-0.274525	0.001358	13.578795	4.600620	0.000544
 467	4.6367e+01	18.5530	0.322971	0.001500	14.997475	5.081282	0.000600
 468	4.6467e+01	18.5995	0.932578	0.001530	15.301478	5.184281	0.000613
 469	4.6566e+01	18.6316	1.542186	0.001530	15.301478	5.184281	0.000613
 470	4.6666e+01	18.6861	2.147756	0.001520	15.200144	5.149948	0.000609
 471	4.6765e+01	18.7246	2.753327	0.001520	15.200144	5.149948	0.000609
 472	4.6864e+01	18.7615	3.326600	0.001439	14.389469	4.875284	0.000576
 473	4.6964e+01	18.8016	3.871613	0.001368	13.680129	4.634953	0.000548
 474	4.7063e+01	18.8401	4.473146	0.001510	15.098809	5.115615	0.000605
 475	4.7163e+01	18.8786	5.086791	0.001540	15.402812	5.218614	0.000617
 476	4.7263e+01	18.9187	5.696399	0.001530	15.301478	5.184281	0.000613
 477	4.7362e+01	18.9588	6.322155	0.001571	15.706815	5.321613	0.000629
 478	4.7462e+01	19.0070	6.943873	0.001561	15.605481	5.287280	0.000625
 479	4.7561e+01	19.0342	7.593852	0.001631	16.314821	5.527611	0.000653
 480	4.7660e+01	19.0791	8.227683	0.001591	15.909484	5.390279	0.000637
 481	4.7760e+01	19.1112	8.865550	0.001601	16.010818	5.424612	0.000641
 482	4.7859e+01	19.1497	9.519566	0.001642	16.416155	5.561944	0.000657
 483	4.7959e+01	19.1979	10.242213	0.001814	18.138838	6.145605	0.000726
 484	4.8059e+01	19.2444	11.025418	0.001966	19.658852	6.660599	0.000787
 485	4.8158e+01	19.2700	11.776325	0.001885	18.848178	6.385936	0.000755
 486	4.8258e+01	19.3198	12.511084	0.001844	18.442841	6.248604	0.000738
 487	4.8357e+01	19.3567	13.286214	0.001946	19.456184	6.591933	0.000779
 488	4.8456e+01	19.4016	14.154198	0.002179	21.786872	7.381592	0.000872
 489	4.8556e+01	19.4385	14.929328	0.001946	19.456184	6.591933	0.000779
 490	4.8656e+01	19.4706	15.716569	0.001976	19.760187	6.694932	0.000791
 491	4.8755e+01	19.5139	16.552257	0.002098	20.976198	7.106928	0.000840
 492	4.8855e+01	19.5556	17.452538	0.002260	22.597547	7.656256	0.000905
 493	4.8954e+01	19.5909	18.352819	0.002260	22.597547	7.656256	0.000905
 494	4.9053e+01	19.6294	19.240989	0.002229	22.293544	7.553257	0.000893
 495	4.9153e+01	19.6775	20.185679	0.002371	23.712224	8.033919	0.000949
 496	4.9252e+01	19.7128	21.340300	0.002898	28.981607	9.819234	0.001160
 497	4.9352e+01	19.7609	22.535292	0.002999	29.994950	10.162564	0.001201
 498	4.9452e+01	19.7962	23.697987	0.002918	29.184276	9.887900	0.001169
 499	4.9551e+01	19.8363	24.864719	0.002929	29.285610	9.922233	0.001173
 500	4.9651e+01	19.8700	26.035488	0.002939	29.386944	9.956566	0.001177
 501	4.9750e+01	19.9166	27.287000	0.003141	31.413630	10.643226	0.001258
 502	4.9849e+01	19.9518	28.534475	0.003131	31.312296	10.608893	0.001254
 503	4.9949e+01	20.0016	29.765802	0.003091	30.906959	10.471561	0.001238
 504	5.0048e+01	19.9567	30.956757	-0.002989	-29.893616	-10.128231	0.001197
 505	5.0148e+01	19.9182	32.127526	-0.002939	-29.386944	-9.956566	0.001177
 506	5.0248e+01	19.8732	33.229664	-0.002766	-27.664261	-9.372905	0.001108
 507	5.0347e+01	19.8379	34.230874	-0.002513	-25.130904	-8.514581	0.001006
 508	5.0447e+01	19.7914	35.224009	-0.002493	-24.928235	-8.445915	0.000998
 509	5.0546e+01	19.7497	36.241368	-0.002554	-25.536241	-8.651913	0.001022
 510	5.0645e+01	19.7144	37.173946	-0.002341	-23.408221	-7.930920	0.000937
 511	5.0745e+01	19.6791	38.126710	-0.002391	-23.914892	-8.102585	0.000958
 512	5.0844e+01	19.6310	39.164254	-0.002604	-26.042913	-8.823578	0.001043
 513	5.0944e+01	19.5973	40.157389	-0.002493	-24.928235	-8.445915	0.000998
 514	5.1044e+01	19.5540	41.223193	-0.002675	-26.752253	-9.063909	0.001071
 515	5.1143e+01	19.5267	42.240551	-0.002554	-25.536241	-8.651913	0.001022
 516	5.1242e+01	19.4802	43.310392	-0.002685	-26.853587	-9.098242	0.001075
 517	5.1342e+01	19.4353	44.372159	-0.002665	-26.650918	-9.029576	0.001067
 518	5.1441e+01	19.3920	45.381443	-0.002533	-25.333573	-8.583247	0.001014
 519	5.1541e+01	19.3615	46.378615	-0.002503	-25.029570	-8.480248	0.001002
 520	5.1641e+01	19.3118	47.533236	-0.002898	-28.981607	-9.819234	0.001160
 521	5.1740e+01	19.2813	48.574817	-0.002614	-26.144247	-8.857911	0.001047
 522	5.1840e+01	19.2396	49.652732	-0.002706	-27.056255	-9.166908	0.001083
 523	5.1939e+01	19.2011	50.694313	-0.002614	-26.144247	-8.857911	0.001047
 524	5.2038e+01	19.1577	51.735894	-0.002614	-26.144247	-8.857911	0.001047
 525	5.2138e+01	19.1192	52.773438	-0.002604	-26.042913	-8.823578	0.001043
 526	5.2237e+01	19.0775	53.806945	-0.002594	-25.941578	-8.789245	0.001039
 527	5.2337e+01	19.0422	54.824303	-0.002554	-25.536241	-8.651913	0.001022
 528	5.2437e+01	19.0005	55.841662	-0.002554	-25.536241	-8.651913	0.001022
 529	5.2536e+01	18.9476	56.854983	-0.002543	-25.434907	-8.617580	0.001018
 530	5.2636e+01	18.9203	57.868304	-0.002543	-25.434907	-8.617580	0.001018
 531	5.2735e+01	18.8866	58.853365	-0.002473	-24.725567	-8.377249	0.000990
 532	5.2834e+01	18.8481	59.818240	-0.002422	-24.218895	-8.205584	0.000970
 533	5.2934e+01	18.7968	60.771004	-0.002391	-23.914892	-8.102585	0.000958
 534	5.3033e+01	18.7551	61.703583	-0.002341	-23.408221	-7.930920	0.000937
 535	5.3133e+01	18.7294	62.648272	-0.002371	-23.712224	-8.033919	0.000949
 536	5.3233e+01	18.6797	63.536442	-0.002229	-22.293544	-7.553257	0.000893
 537	5.3332e+01	18.6396	64.464983	-0.002331	-23.306887	-7.896587	0.000933
 538	5.3431e+01	18.6075	65.393525	-0.002331	-23.306887	-7.896587	0.000933
 539	5.3531e+01	18.5610	66.164618	-0.001935	-19.354849	-6.557601	0.000775
 540	5.3630e+01	18.5209	67.040676	-0.002199	-21.989541	-7.450258	0.000880
 541	5.3730e+01	18.4792	67.912697	-0.002189	-21.888207	-7.415925	0.000876
 542	5.3830e+01	18.4326	68.699939	-0.001976	-19.760187	-6.694932	0.000791
 543	5.3929e+01	18.3957	69.479106	-0.001956	-19.557518	-6.626266	0.000783
 544	5.4029e+01	18.3653	70.213865	-0.001844	-18.442841	-6.248604	0.000738
 545	5.4128e+01	18.3139	70.980921	-0.001925	-19.253515	-6.523268	0.000771
 546	5.4227e+01	18.2754	71.731828	-0.001885	-18.848178	-6.385936	0.000755
 547	5.4327e+01	18.2433	72.535218	-0.002017	-20.165524	-6.832264	0.000807
 548	5.4426e+01	18.1968	73.237679	-0.001763	-17.632166	-5.973940	0.000706
 549	5.4526e+01	18.1663	74.008772	-0.001935	-19.354849	-6.557601	0.000775
 550	5.4626e+01	18.1246	74.707197	-0.001753	-17.530832	-5.939607	0.000702
 551	5.4725e+01	18.0797	75.357176	-0.001631	-16.314821	-5.527611	0.000653
 552	5.4825e+01	18.0428	76.035414	-0.001702	-17.024161	-5.767942	0.000682
 553	5.4924e+01	18.0043	76.701542	-0.001672	-16.720158	-5.664943	0.000669
 554	5.5023e+01	17.9706	77.391892	-0.001733	-17.328164	-5.870941	0.000694
 555	5.5123e+01	17.9241	78.066094	-0.001692	-16.922826	-5.733609	0.000678
 556	5.5222e+01	17.8712	78.712035	-0.001621	-16.213486	-5.493278	0.000649
 557	5.5322e+01	17.8423	79.374126	-0.001662	-16.618824	-5.630610	0.000665
 558	5.5422e+01	17.8054	80.032179	-0.001652	-16.517489	-5.596277	0.000661
 559	5.5521e+01	17.7669	80.722529	-0.001733	-17.328164	-5.870941	0.000694
 560	5.5620e+01	17.7252	81.320025	-0.001500	-14.997475	-5.081282	0.000600
 561	5.5720e+01	17.6851	81.945781	-0.001571	-15.706815	-5.321613	0.000629
 562	5.5819e+01	17.6353	82.567500	-0.001561	-15.605481	-5.287280	0.000625
 563	5.5919e+01	17.6016	83.132699	-0.001419	-14.186801	-4.806618	0.000568
 564	5.6019e+01	17.5647	83.701935	-0.001429	-14.288135	-4.840951	0.000572
 565	5.6118e+01	17.5262	84.295394	-0.001490	-14.896141	-5.046949	0.000596
 566	5.6218e+01	17.4845	84.868667	-0.001439	-14.389469	-4.875284	0.000576
 567	5.6317e+01	17.4444	85.421755	-0.001388	-13.882798	-4.703619	0.000556
 568	5.6416e+01	17.4027	85.982917	-0.001409	-14.085466	-4.772285	0.000564
 569	5.6516e+01	17.3594	86.552153	-0.001429	-14.288135	-4.840951	0.000572
 570	5.6615e+01	17.3193	87.048721	-0.001246	-12.464118	-4.222957	0.000499
 571	5.6715e+01	17.2888	87.573548	-0.001317	-13.173458	-4.463288	0.000527
 572	5.6815e+01	17.2359	88.074153	-0.001257	-12.565452	-4.257290	0.000503
 573	5.6914e+01	17.2006	88.550535	-0.001196	-11.957446	-4.051292	0.000479
 574	5.7014e+01	17.1637	89.063252	-0.001287	-12.869455	-4.360289	0.000515
 575	5.7113e+01	17.1284	89.543671	-0.001206	-12.058781	-4.085625	0.000483
 576	5.7212e+01	17.0915	90.003904	-0.001155	-11.552109	-3.913961	0.000463
 577	5.7312e+01	17.0482	90.468175	-0.001165	-11.653443	-3.948293	0.000467
 578	5.7411e+01	17.0065	90.928408	-0.001155	-11.552109	-3.913961	0.000463
 579	5.7511e+01	16.9599	91.340196	-0.001034	-10.336098	-3.501965	0.000414
 580	5.7611e+01	16.9166	91.796392	-0.001145	-11.450775	-3.879628	0.000458
 581	5.7710e+01	16.8829	92.256626	-0.001155	-11.552109	-3.913961	0.000463
 582	5.7809e+01	16.8412	92.660339	-0.001013	-10.133429	-3.433299	0.000406
 583	5.7909e+01	16.8011	93.104424	-0.001115	-11.146772	-3.776629	0.000446
 584	5.8008e+01	16.7674	93.508138	-0.001013	-10.133429	-3.433299	0.000406
 585	5.8108e+01	16.7193	93.932037	-0.001064	-10.640100	-3.604964	0.000426
 586	5.8208e+01	16.6872	94.351899	-0.001054	-10.538766	-3.570631	0.000422
 587	5.8307e+01	16.6519	94.711204	-0.000902	-9.018752	-3.055636	0.000361
 588	5.8407e+01	16.6134	95.118955	-0.001023	-10.234763	-3.467632	0.000410
 589	5.8506e+01	16.5637	95.494409	-0.000942	-9.424089	-3.192968	0.000377
 590	5.8605e+01	16.5204	95.845640	-0.000882	-8.816083	-2.986970	0.000353
 591	5.8705e+01	16.4867	96.213019	-0.000922	-9.221420	-3.124302	0.000369
 592	5.8804e+01	16.4450	96.588473	-0.000942	-9.424089	-3.192968	0.000377
 593	5.8904e+01	16.4033	96.927592	-0.000851	-8.512080	-2.883971	0.000341
 594	5.9004e+01	16.3664	97.258637	-0.000831	-8.309412	-2.815305	0.000333
 595	5.9103e+01	16.3247	97.577571	-0.000801	-8.005409	-2.712306	0.000321
 596	5.9203e+01	16.2862	97.936876	-0.000902	-9.018752	-3.055636	0.000361
 597	5.9302e+01	16.2461	98.255810	-0.000801	-8.005409	-2.712306	0.000321
 598	5.9401e+01	16.2044	98.603003	-0.000871	-8.714749	-2.952637	0.000349
 599	5.9501e+01	16.1642	98.921937	-0.000801	-8.005409	-2.712306	0.000321
 600	5.9600e+01	16.1274	99.273168	-0.000882	-8.816083	-2.986970	0.000353
 601	5.9700e+01	16.0889	99.588064	-0.000790	-7.904075	-2.677973	0.000316
 602	5.9800e+01	16.0439	99.882775	-0.000740	-7.397403	-2.506308	0.000296
 603	5.9899e+01	16.0038	100.197672	-0.000790	-7.904075	-2.677973	0.000316
 604	5.9998e+01	15.9589	100.508531	-0.000780	-7.802740	-2.643640	0.000312
 605	6.0098e+01	15.9268	100.811317	-0.000760	-7.600072	-2.574974	0.000304
 606	6.0197e+01	15.8867	101.081805	-0.000679	-6.789397	-2.300310	0.000272
 607	6.0297e+01	15.8434	101.324033	-0.000608	-6.080057	-2.059979	0.000243
 608	6.0397e+01	15.8113	101.622781	-0.000750	-7.498737	-2.540641	0.000300
 609	6.0496e+01	15.7680	101.897306	-0.000689	-6.890732	-2.334643	0.000276
 610	6.0596e+01	15.7279	102.147608	-0.000628	-6.282726	-2.128645	0.000252
 611	6.0695e+01	15.6910	102.434245	-0.000719	-7.194735	-2.437642	0.000288
 612	6.0794e+01	15.6445	102.684547	-0.000628	-6.282726	-2.128645	0.000252
 613	6.0894e+01	15.6140	102.918701	-0.000588	-5.877389	-1.991313	0.000235
 614	6.0993e+01	15.5707	103.160930	-0.000608	-6.080057	-2.059979	0.000243
 615	6.1093e+01	15.5370	103.423343	-0.000659	-6.586729	-2.231644	0.000264
 616	6.1193e+01	15.4889	103.665571	-0.000608	-6.080057	-2.059979	0.000243
 617	6.1292e+01	15.4488	103.915874	-0.000628	-6.282726	-2.128645	0.000252
 618	6.1392e+01	15.4135	104.133879	-0.000547	-5.472052	-1.853981	0.000219
 619	6.1491e+01	15.3653	104.359959	-0.000567	-5.674720	-1.922647	0.000227
 620	6.1590e+01	15.3317	104.553741	-0.000486	-4.864046	-1.647983	0.000195
 621	6.1690e+01	15.2980	104.731375	-0.000446	-4.458709	-1.510651	0.000179
 622	6.1789e+01	15.2482	104.965529	-0.000588	-5.877389	-1.991313	0.000235
 623	6.1889e+01	15.2129	105.167386	-0.000507	-5.066715	-1.716649	0.000203
 624	6.1989e+01	15.1728	105.385391	-0.000547	-5.472052	-1.853981	0.000219
 625	6.2088e+01	15.1311	105.530728	-0.000365	-3.648034	-1.235988	0.000146
 626	6.2188e+01	15.0894	105.724511	-0.000486	-4.864046	-1.647983	0.000195
 627	6.2287e+01	15.0525	105.910219	-0.000466	-4.661377	-1.579317	0.000187
 628	6.2386e+01	15.0172	106.083816	-0.000436	-4.357374	-1.476318	0.000174
 629	6.2486e+01	14.9675	106.261450	-0.000446	-4.458709	-1.510651	0.000179
 630	6.2586e+01	14.9370	106.443121	-0.000456	-4.560043	-1.544984	0.000183
 631	6.2685e+01	14.8937	106.657089	-0.000537	-5.370717	-1.819648	0.000215
 632	6.2785e+01	14.8504	106.810500	-0.000385	-3.850703	-1.304654	0.000154
 633	6.2884e+01	14.8055	106.976023	-0.000415	-4.154706	-1.407652	0.000166
 634	6.2983e+01	14.7766	107.129434	-0.000385	-3.850703	-1.304654	0.000154
 635	6.3083e+01	14.7285	107.270734	-0.000355	-3.546700	-1.201655	0.000142
 636	6.3182e+01	14.6916	107.436256	-0.000415	-4.154706	-1.407652	0.000166
 637	6.3282e+01	14.6531	107.525073	-0.000223	-2.229354	-0.755326	0.000089
 638	6.3382e+01	14.6162	107.666373	-0.000355	-3.546700	-1.201655	0.000142
 639	6.3481e+01	14.5761	107.759227	-0.000233	-2.330689	-0.789659	0.000093
 640	6.3581e+01	14.5376	107.888415	-0.000324	-3.242697	-1.098656	0.000130
 641	6.3680e+01	14.4958	108.017604	-0.000324	-3.242697	-1.098656	0.000130
 642	6.3779e+01	14.4557	108.090272	-0.000182	-1.824017	-0.617994	0.000073
 643	6.3879e+01	14.4092	108.215423	-0.000314	-3.141363	-1.064323	0.000126
 644	6.3978e+01	14.3771	108.296166	-0.000203	-2.026686	-0.686660	0.000081
 645	6.4078e+01	14.3338	108.433429	-0.000345	-3.445366	-1.167322	0.000138
 646	6.4177e+01	14.2969	108.485912	-0.000132	-1.317346	-0.446329	0.000053
 647	6.4277e+01	14.2632	108.582803	-0.000243	-2.432023	-0.823992	0.000097
 648	6.4376e+01	14.2087	108.627211	-0.000111	-1.114677	-0.377663	0.000045
 649	6.4476e+01	14.1750	108.667583	-0.000101	-1.013343	-0.343330	0.000041
 650	6.4576e+01	14.1381	108.728140	-0.000152	-1.520014	-0.514995	0.000061
 651	6.4675e+01	14.0980	108.784660	-0.000142	-1.418680	-0.480662	0.000057
 652	6.4775e+01	14.0483	108.816957	-0.000081	-0.810674	-0.274664	0.000032
 653	6.4874e+01	14.0146	108.869439	-0.000132	-1.317346	-0.446329	0.000053
 654	6.4974e+01	13.9761	108.917885	-0.000122	-1.216011	-0.411996	0.000049
 655	6.5073e+01	13.9376	108.917885	-0.000000	-0.000000	-0.000000	0.000000
 656	6.5172e+01	13.9023	108.954219	-0.000091	-0.912009	-0.308997	0.000037
 657	6.5272e+01	13.8558	109.006702	-0.000132	-1.317346	-0.446329	0.000053
 658	6.5371e+01	13.8173	109.014776	-0.000020	-0.202669	-0.068666	0.000008
 659	6.5471e+01	13.7836	109.059185	-0.000111	-1.114677	-0.377663	0.000045
 660	6.5570e+01	13.7386	109.103593	-0.000111	-1.114677	-0.377663	0.000045
 661	6.5670e+01	13.6953	109.103593	-0.000000	-0.000000	-0.000000	0.000000
 662	6.5769e+01	13.6584	109.095519	0.000020	0.202669	0.068666	-0.000008
 663	6.5869e+01	13.6151	109.111668	-0.000041	-0.405337	-0.137332	0.000016
 664	6.5969e+01	13.5750	109.168187	-0.000142	-1.418680	-0.480662	0.000057
 665	6.6068e+01	13.5365	109.156076	0.000030	0.304003	0.102999	-0.000012
 666	6.6168e+01	13.4980	109.148002	0.000020	0.202669	0.068666	-0.000008
 667	6.6267e+01	13.4563	109.156076	-0.000020	-0.202669	-0.068666	0.000008
 668	6.6367e+01	13.4178	109.160113	-0.000010	-0.101334	-0.034333	0.000004
 669	6.6466e+01	13.3809	109.164150	-0.000010	-0.101334	-0.034333	0.000004
 670	6.6566e+01	13.3312	109.156076	0.000020	0.202669	0.068666	-0.000008
 671	6.6665e+01	13.2991	109.168187	-0.000030	-0.304003	-0.102999	0.000012
 672	6.6764e+01	13.2574	109.135890	0.000081	0.810674	0.274664	-0.000032
 673	6.6864e+01	13.2141	109.107630	0.000071	0.709340	0.240331	-0.000028
 674	6.6963e+01	13.1820	109.115705	-0.000020	-0.202669	-0.068666	0.000008
 675	6.7063e+01	13.1451	109.119742	-0.000010	-0.101334	-0.034333	0.000004
 676	6.7162e+01	13.1082	109.034962	0.000213	2.128020	0.720993	-0.000085
 677	6.7262e+01	13.0504	109.006702	0.000071	0.709340	0.240331	-0.000028
 678	6.7362e+01	13.0183	108.998628	0.000020	0.202669	0.068666	-0.000008
 679	6.7461e+01	12.9782	108.982479	0.000041	0.405337	0.137332	-0.000016
 680	6.7561e+01	12.9462	108.934034	0.000122	1.216011	0.411996	-0.000049
 681	6.7660e+01	12.9012	108.938071	-0.000010	-0.101334	-0.034333	0.000004
 682	6.7760e+01	12.8531	108.893662	0.000111	1.114677	0.377663	-0.000045
 683	6.7859e+01	12.8242	108.853291	0.000101	1.013343	0.343330	-0.000041
 684	6.7959e+01	12.7841	108.796771	0.000142	1.418680	0.480662	-0.000057
 685	6.8058e+01	12.7376	108.764474	0.000081	0.810674	0.274664	-0.000032
 686	6.8157e+01	12.6975	108.716028	0.000122	1.216011	0.411996	-0.000049
 687	6.8257e+01	12.6654	108.615100	0.000253	2.533357	0.858325	-0.000101
 688	6.8356e+01	12.6237	108.639323	-0.000061	-0.608006	-0.205998	0.000024
 689	6.8456e+01	12.5868	108.586840	0.000132	1.317346	0.446329	-0.000053
 690	6.8555e+01	12.5387	108.473800	0.000284	2.837360	0.961324	-0.000114
 691	6.8655e+01	12.5066	108.465726	0.000020	0.202669	0.068666	-0.000008
 692	6.8754e+01	12.4681	108.397095	0.000172	1.722683	0.583661	-0.000069
 693	6.8854e+01	12.4280	108.364797	0.000081	0.810674	0.274664	-0.000032
 694	6.8954e+01	12.3815	108.275980	0.000223	2.229354	0.755326	-0.000089
 695	6.9053e+01	12.3462	108.243683	0.000081	0.810674	0.274664	-0.000032
 696	6.9153e+01	12.3125	108.179089	0.000162	1.621349	0.549328	-0.000065
 697	6.9252e+01	12.2628	108.090272	0.000223	2.229354	0.755326	-0.000089
 698	6.9352e+01	12.2210	108.041827	0.000122	1.216011	0.411996	-0.000049
 699	6.9451e+01	12.1890	107.981270	0.000152	1.520014	0.514995	-0.000061
 700	6.9550e+01	12.1424	107.888415	0.000233	2.330689	0.789659	-0.000093
 701	6.9650e+01	12.0975	107.811710	0.000193	1.925352	0.652327	-0.000077
 702	6.9749e+01	12.0558	107.759227	0.000132	1.317346	0.446329	-0.000053
 703	6.9849e+01	12.0317	107.722893	0.000091	0.912009	0.308997	-0.000037
 704	6.9948e+01	11.9868	107.621965	0.000253	2.533357	0.858325	-0.000101
 705	7.0048e+01	11.9403	107.537185	0.000213	2.128020	0.720993	-0.000085
 706	7.0147e+01	11.9034	107.476628	0.000152	1.520014	0.514995	-0.000061
 707	7.0247e+01	11.8681	107.407996	0.000172	1.722683	0.583661	-0.000069
 708	7.0347e+01	11.8200	107.311105	0.000243	2.432023	0.823992	-0.000097
 709	7.0446e+01	11.7879	107.234399	0.000193	1.925352	0.652327	-0.000077
 710	7.0546e+01	11.7478	107.153657	0.000203	2.026686	0.686660	-0.000081
 711	7.0645e+01	11.7077	107.064840	0.000223	2.229354	0.755326	-0.000089
 712	7.0745e+01	11.6692	106.980060	0.000213	2.128020	0.720993	-0.000085
 713	7.0844e+01	11.6243	106.891243	0.000223	2.229354	0.755326	-0.000089
 714	7.0944e+01	11.5874	106.822612	0.000172	1.722683	0.583661	-0.000069
 715	7.1043e+01	11.5569	106.729758	0.000233	2.330689	0.789659	-0.000093
 716	7.1142e+01	11.5072	106.636903	0.000233	2.330689	0.789659	-0.000093
 717	7.1242e+01	11.4687	106.556161	0.000203	2.026686	0.686660	-0.000081
 718	7.1341e+01	11.4286	106.439084	0.000294	2.938694	0.995657	-0.000118
 719	7.1441e+01	11.3933	106.366415	0.000182	1.824017	0.617994	-0.000073
 720	7.1540e+01	11.3435	106.277598	0.000223	2.229354	0.755326	-0.000089
 721	7.1640e+01	11.3066	106.196856	0.000203	2.026686	0.686660	-0.000081
 722	7.1740e+01	11.2601	106.091890	0.000263	2.634692	0.892658	-0.000105
 723	7.1839e+01	11.2280	106.003073	0.000223	2.229354	0.755326	-0.000089
 724	7.1939e+01	11.1895	105.869848	0.000334	3.344032	1.132989	-0.000134
 725	7.2038e+01	11.1478	105.776993	0.000233	2.330689	0.789659	-0.000093
 726	7.2138e+01	11.1125	105.667991	0.000274	2.736026	0.926991	-0.000110
 727	7.2237e+01	11.0660	105.575137	0.000233	2.330689	0.789659	-0.000093
 728	7.2337e+01	11.0275	105.474208	0.000253	2.533357	0.858325	-0.000101
 729	7.2436e+01	10.9922	105.365206	0.000274	2.736026	0.926991	-0.000110
 730	7.2535e+01	10.9425	105.268314	0.000243	2.432023	0.823992	-0.000097
 731	7.2635e+01	10.9152	105.167386	0.000253	2.533357	0.858325	-0.000101
 732	7.2734e+01	10.8735	105.050309	0.000294	2.938694	0.995657	-0.000118
 733	7.2834e+01	10.8350	104.949381	0.000253	2.533357	0.858325	-0.000101
 734	7.2933e+01	10.7885	104.844415	0.000263	2.634692	0.892658	-0.000105
 735	7.3033e+01	10.7484	104.735412	0.000274	2.736026	0.926991	-0.000110
 736	7.3132e+01	10.7099	104.569890	0.000415	4.154706	1.407652	-0.000166
 737	7.3232e+01	10.6698	104.468961	0.000253	2.533357	0.858325	-0.000101
 738	7.3332e+01	10.6280	104.388219	0.000203	2.026686	0.686660	-0.000081
 739	7.3431e+01	10.5911	104.250956	0.000345	3.445366	1.167322	-0.000138
 740	7.3531e+01	10.5478	104.162139	0.000223	2.229354	0.755326	-0.000089
 741	7.3630e+01	10.5093	104.004691	0.000395	3.952037	1.338986	-0.000158
 742	7.3730e+01	10.4628	103.895688	0.000274	2.736026	0.926991	-0.000110
 743	7.3829e+01	10.4259	103.786686	0.000274	2.736026	0.926991	-0.000110
 744	7.3928e+01	10.3906	103.677683	0.000274	2.736026	0.926991	-0.000110
 745	7.4028e+01	10.3425	103.528309	0.000375	3.749369	1.270321	-0.000150
 746	7.4127e+01	10.3120	103.431418	0.000243	2.432023	0.823992	-0.000097
 747	7.4227e+01	10.2735	103.286081	0.000365	3.648034	1.235988	-0.000146
 748	7.4326e+01	10.2286	103.164967	0.000304	3.040029	1.029990	-0.000122
 749	7.4426e+01	10.1917	103.076150	0.000223	2.229354	0.755326	-0.000089
 750	7.4525e+01	10.1500	102.910627	0.000415	4.154706	1.407652	-0.000166
 751	7.4625e+01	10.1115	102.825847	0.000213	2.128020	0.720993	-0.000085
 752	7.4725e+01	10.0650	102.680510	0.000365	3.648034	1.235988	-0.000146
 753	7.4824e+01	10.0313	102.571508	0.000274	2.736026	0.926991	-0.000110
 754	7.4924e+01	9.9960	102.418097	0.000385	3.850703	1.304654	-0.000154
 755	7.5023e+01	9.9478	102.341391	0.000193	1.925352	0.652327	-0.000077
 756	7.5123e+01	9.9110	102.171831	0.000426	4.256040	1.441985	-0.000170
 757	7.5222e+01	9.8676	102.062829	0.000274	2.736026	0.926991	-0.000110
 758	7.5322e+01	9.8356	101.901343	0.000405	4.053372	1.373319	-0.000162
 759	7.5421e+01	9.7938	101.756006	0.000365	3.648034	1.235988	-0.000146
 760	7.5520e+01	9.7473	101.651041	0.000263	2.634692	0.892658	-0.000105
 761	7.5620e+01	9.7136	101.521852	0.000324	3.242697	1.098656	-0.000130
 762	7.5719e+01	9.6719	101.392664	0.000324	3.242697	1.098656	-0.000130
 763	7.5819e+01	9.6366	101.255401	0.000345	3.445366	1.167322	-0.000138
 764	7.5918e+01	9.5917	101.118139	0.000345	3.445366	1.167322	-0.000138
 765	7.6018e+01	9.5580	100.968765	0.000375	3.749369	1.270321	-0.000150
 766	7.6118e+01	9.5195	100.847651	0.000304	3.040029	1.029990	-0.000122
 767	7.6217e+01	9.4714	100.746722	0.000253	2.533357	0.858325	-0.000101
 768	7.6317e+01	9.4393	100.605423	0.000355	3.546700	1.201655	-0.000142
 769	7.6416e+01	9.3848	100.468160	0.000345	3.445366	1.167322	-0.000138
 770	7.6516e+01	9.3639	100.322823	0.000365	3.648034	1.235988	-0.000146
 771	7.6615e+01	9.3190	100.153263	0.000426	4.256040	1.441985	-0.000170
 772	7.6715e+01	9.2789	100.036186	0.000294	2.938694	0.995657	-0.000118
 773	7.6814e+01	9.2340	99.915072	0.000304	3.040029	1.029990	-0.000122
 774	7.6913e+01	9.2067	99.725327	0.000476	4.762712	1.613650	-0.000191
 775	7.7013e+01	9.1457	99.604213	0.000304	3.040029	1.029990	-0.000122
 776	7.7112e+01	9.1072	99.458876	0.000365	3.648034	1.235988	-0.000146
 777	7.7212e+01	9.0800	99.349873	0.000274	2.736026	0.926991	-0.000110
 778	7.7311e+01	9.0382	99.168202	0.000456	4.560043	1.544984	-0.000183
 779	7.7411e+01	8.9869	99.026903	0.000355	3.546700	1.201655	-0.000142
 780	7.7510e+01	8.9484	98.909826	0.000294	2.938694	0.995657	-0.000118
 781	7.7610e+01	8.9115	98.768526	0.000355	3.546700	1.201655	-0.000142
 782	7.7710e+01	8.8778	98.635300	0.000334	3.344032	1.132989	-0.000134
 783	7.7809e+01	8.8345	98.502075	0.000334	3.344032	1.132989	-0.000134
 784	7.7909e+01	8.8008	98.316367	0.000466	4.661377	1.579317	-0.000187
 785	7.8008e+01	8.7639	98.166993	0.000375	3.749369	1.270321	-0.000150
 786	7.8108e+01	8.7126	98.041841	0.000314	3.141363	1.064323	-0.000126
 787	7.8207e+01	8.6821	97.892467	0.000375	3.749369	1.270321	-0.000150
 788	7.8306e+01	8.6404	97.698685	0.000486	4.864046	1.647983	-0.000195
 789	7.8406e+01	8.6019	97.593719	0.000263	2.634692	0.892658	-0.000105
 790	7.8505e+01	8.5634	97.448382	0.000365	3.648034	1.235988	-0.000146
 791	7.8605e+01	8.5185	97.294971	0.000385	3.850703	1.304654	-0.000154
 792	7.8704e+01	8.4752	97.153672	0.000355	3.546700	1.201655	-0.000142
 793	7.8804e+01	8.4383	97.004298	0.000375	3.749369	1.270321	-0.000150
 794	7.8903e+01	8.3950	96.850886	0.000385	3.850703	1.304654	-0.000154
 795	7.9003e+01	8.3532	96.721698	0.000324	3.242697	1.098656	-0.000130
 796	7.9103e+01	8.3131	96.544064	0.000446	4.458709	1.510651	-0.000179
 797	7.9202e+01	8.2859	96.386616	0.000395	3.952037	1.338986	-0.000158
 798	7.9302e+01	8.2425	96.241279	0.000365	3.648034	1.235988	-0.000146
 799	7.9401e+01	8.2024	96.079793	0.000405	4.053372	1.373319	-0.000162
 800	7.9501e+01	8.1575	95.986939	0.000233	2.330689	0.789659	-0.000093
 801	7.9600e+01	8.1254	95.801231	0.000466	4.661377	1.579317	-0.000187
 802	7.9700e+01	8.0741	95.668006	0.000334	3.344032	1.132989	-0.000134
 803	7.9799e+01	8.0356	95.482297	0.000466	4.661377	1.579317	-0.000187
 804	7.9898e+01	8.0035	95.345035	0.000345	3.445366	1.167322	-0.000138
 805	7.9998e+01	7.9586	95.195661	0.000375	3.749369	1.270321	-0.000150
 806	8.0097e+01	7.9169	95.074547	0.000304	3.040029	1.029990	-0.000122
 807	8.0197e+01	7.8784	94.888838	0.000466	4.661377	1.579317	-0.000187
 808	8.0296e+01	7.8399	94.747539	0.000355	3.546700	1.201655	-0.000142
 809	8.0396e+01	7.8030	94.586053	0.000405	4.053372	1.373319	-0.000162
 810	8.0496e+01	7.7709	94.416494	0.000426	4.256040	1.441985	-0.000170
 811	8.0595e+01	7.7228	94.307491	0.000274	2.736026	0.926991	-0.000110
 812	8.0695e+01	7.6795	94.121783	0.000466	4.661377	1.579317	-0.000187
 813	8.0794e+01	7.6378	93.952223	0.000426	4.256040	1.441985	-0.000170
 814	8.0894e+01	7.5944	93.794775	0.000395	3.952037	1.338986	-0.000158
 815	8.0993e+01	7.5607	93.625215	0.000426	4.256040	1.441985	-0.000170
 816	8.1093e+01	7.5287	93.483915	0.000355	3.546700	1.201655	-0.000142
 817	8.1192e+01	7.4805	93.306281	0.000446	4.458709	1.510651	-0.000179
 818	8.1291e+01	7.4452	93.136721	0.000426	4.256040	1.441985	-0.000170
 819	8.1391e+01	7.4083	92.987347	0.000375	3.749369	1.270321	-0.000150
 820	8.1490e+01	7.3570	92.858159	0.000324	3.242697	1.098656	-0.000130
 821	8.1590e+01	7.3346	92.692637	0.000415	4.154706	1.407652	-0.000166
 822	8.1689e+01	7.2816	92.539225	0.000385	3.850703	1.304654	-0.000154
 823	8.1789e+01	7.2431	92.377740	0.000405	4.053372	1.373319	-0.000162
 824	8.1888e+01	7.2014	92.244514	0.000334	3.344032	1.132989	-0.000134
 825	8.1988e+01	7.1629	92.030546	0.000537	5.370717	1.819648	-0.000215
 826	8.2088e+01	7.1132	91.897321	0.000334	3.344032	1.132989	-0.000134
 827	8.2187e+01	7.0827	91.719687	0.000446	4.458709	1.510651	-0.000179
 828	8.2287e+01	7.0426	91.554164	0.000415	4.154706	1.407652	-0.000166
 829	8.2386e+01	7.0073	91.368456	0.000466	4.661377	1.579317	-0.000187
 830	8.2486e+01	6.9688	91.251379	0.000294	2.938694	0.995657	-0.000118
 831	8.2585e+01	6.9303	91.073745	0.000446	4.458709	1.510651	-0.000179
 832	8.2684e+01	6.8806	90.879963	0.000486	4.864046	1.647983	-0.000195
 833	8.2784e+01	6.8388	90.710403	0.000426	4.256040	1.441985	-0.000170
 834	8.2883e+01	6.8036	90.569103	0.000355	3.546700	1.201655	-0.000142
 835	8.2983e+01	6.7667	90.371283	0.000497	4.965380	1.682316	-0.000199
 836	8.3082e+01	6.7233	90.262281	0.000274	2.736026	0.926991	-0.000110
 837	8.3182e+01	6.6816	90.084647	0.000446	4.458709	1.510651	-0.000179
 838	8.3281e+01	6.6511	89.943347	0.000355	3.546700	1.201655	-0.000142
 839	8.3381e+01	6.6030	89.737453	0.000517	5.168049	1.750982	-0.000207
 840	8.3481e+01	6.5709	89.592116	0.000365	3.648034	1.235988	-0.000146
 841	8.3580e+01	6.5228	89.398334	0.000486	4.864046	1.647983	-0.000195
 842	8.3680e+01	6.4939	89.232811	0.000415	4.154706	1.407652	-0.000166
 843	8.3779e+01	6.4410	89.063252	0.000426	4.256040	1.441985	-0.000170
 844	8.3879e+01	6.4073	88.921952	0.000355	3.546700	1.201655	-0.000142
 845	8.3978e+01	6.3640	88.720095	0.000507	5.066715	1.716649	-0.000203
 846	8.4078e+01	6.3319	88.570721	0.000375	3.749369	1.270321	-0.000150
 847	8.4177e+01	6.2934	88.389050	0.000456	4.560043	1.544984	-0.000183
 848	8.4276e+01	6.2421	88.219490	0.000426	4.256040	1.441985	-0.000170
 849	8.4376e+01	6.1972	88.062042	0.000395	3.952037	1.338986	-0.000158
 850	8.4475e+01	6.1683	87.872296	0.000476	4.762712	1.613650	-0.000191
 851	8.4575e+01	6.1298	87.714848	0.000395	3.952037	1.338986	-0.000158
 852	8.4674e+01	6.0849	87.512991	0.000507	5.066715	1.716649	-0.000203
 853	8.4774e+01	6.0496	87.355543	0.000395	3.952037	1.338986	-0.000158
 854	8.4874e+01	6.0111	87.169835	0.000466	4.661377	1.579317	-0.000187
 855	8.4973e+01	5.9742	87.012387	0.000395	3.952037	1.338986	-0.000158
 856	8.5073e+01	5.9341	86.826678	0.000466	4.661377	1.579317	-0.000187
 857	8.5172e+01	5.8859	86.649044	0.000446	4.458709	1.510651	-0.000179
 858	8.5272e+01	5.8410	86.455262	0.000486	4.864046	1.647983	-0.000195
 859	8.5371e+01	5.8041	86.309925	0.000365	3.648034	1.235988	-0.000146
 860	8.5471e+01	5.7688	86.132291	0.000446	4.458709	1.510651	-0.000179
 861	8.5570e+01	5.7351	85.938508	0.000486	4.864046	1.647983	-0.000195
 862	8.5669e+01	5.6950	85.744726	0.000486	4.864046	1.647983	-0.000195
 863	8.5769e+01	5.6485	85.575166	0.000426	4.256040	1.441985	-0.000170
 864	8.5868e+01	5.6116	85.405607	0.000426	4.256040	1.441985	-0.000170
 865	8.5968e+01	5.5667	85.244121	0.000405	4.053372	1.373319	-0.000162
 866	8.6067e+01	5.5346	85.005930	0.000598	5.978723	2.025646	-0.000239
 867	8.6167e+01	5.4881	84.876742	0.000324	3.242697	1.098656	-0.000130
 868	8.6266e+01	5.4544	84.711219	0.000415	4.154706	1.407652	-0.000166
 869	8.6366e+01	5.4047	84.521474	0.000476	4.762712	1.613650	-0.000191
 870	8.6466e+01	5.3774	84.315580	0.000517	5.168049	1.750982	-0.000207
 871	8.6565e+01	5.3244	84.113723	0.000507	5.066715	1.716649	-0.000203
 872	8.6665e+01	5.2924	83.948201	0.000415	4.154706	1.407652	-0.000166
 873	8.6764e+01	5.2523	83.782678	0.000415	4.154706	1.407652	-0.000166
 874	8.6864e+01	5.2170	83.596970	0.000466	4.661377	1.579317	-0.000187
 875	8.6963e+01	5.1688	83.399150	0.000497	4.965380	1.682316	-0.000199
 876	8.7063e+01	5.1287	83.221516	0.000446	4.458709	1.510651	-0.000179
 877	8.7162e+01	5.0838	83.051956	0.000426	4.256040	1.441985	-0.000170
 878	8.7261e+01	5.0517	82.858174	0.000486	4.864046	1.647983	-0.000195
 879	8.7361e+01	5.0180	82.660354	0.000497	4.965380	1.682316	-0.000199
 880	8.7460e+01	4.9747	82.454460	0.000517	5.168049	1.750982	-0.000207
 881	8.7560e+01	4.9314	82.264715	0.000476	4.762712	1.613650	-0.000191
 882	8.7659e+01	4.8929	82.099192	0.000415	4.154706	1.407652	-0.000166
 883	8.7759e+01	4.8464	81.893298	0.000517	5.168049	1.750982	-0.000207
 884	8.7859e+01	4.8207	81.711627	0.000456	4.560043	1.544984	-0.000183
 885	8.7958e+01	4.7710	81.505733	0.000517	5.168049	1.750982	-0.000207
 886	8.8058e+01	4.7421	81.364434	0.000355	3.546700	1.201655	-0.000142
 887	8.8157e+01	4.6828	81.146428	0.000547	5.472052	1.853981	-0.000219
 888	8.8257e+01	4.6523	81.005129	0.000355	3.546700	1.201655	-0.000142
 889	8.8356e+01	4.6138	80.766938	0.000598	5.978723	2.025646	-0.000239
 890	8.8456e+01	4.5624	80.581229	0.000466	4.661377	1.579317	-0.000187
 891	8.8555e+01	4.5287	80.395521	0.000466	4.661377	1.579317	-0.000187
 892	8.8654e+01	4.5015	80.217887	0.000446	4.458709	1.510651	-0.000179
 893	8.8754e+01	4.4501	80.036216	0.000456	4.560043	1.544984	-0.000183
 894	8.8853e+01	4.4132	79.826285	0.000527	5.269383	1.785315	-0.000211
 895	8.8953e+01	4.3715	79.632502	0.000486	4.864046	1.647983	-0.000195
 896	8.9052e+01	4.3362	79.442757	0.000476	4.762712	1.613650	-0.000191
 897	8.9152e+01	4.2945	79.240900	0.000507	5.066715	1.716649	-0.000203
 898	8.9251e+01	4.2560	79.055192	0.000466	4.661377	1.579317	-0.000187
 899	8.9351e+01	4.2159	78.841224	0.000537	5.370717	1.819648	-0.000215
 900	8.9451e+01	4.1887	78.643404	0.000497	4.965380	1.682316	-0.000199
 901	8.9550e+01	4.1325	78.461733	0.000456	4.560043	1.544984	-0.000183
 902	8.9650e+01	4.0860	78.239691	0.000557	5.573386	1.888314	-0.000223
 903	8.9749e+01	4.0603	78.074168	0.000415	4.154706	1.407652	-0.000166
 904	8.9849e+01	4.0218	77.884423	0.000476	4.762712	1.613650	-0.000191
 905	8.9948e+01	3.9785	77.702752	0.000456	4.560043	1.544984	-0.000183
 906	9.0047e+01	3.9336	77.460523	0.000608	6.080057	2.059979	-0.000243
 907	9.0147e+01	3.9079	77.262704	0.000497	4.965380	1.682316	-0.000199
 908	9.0246e+01	3.8518	77.064884	0.000497	4.965380	1.682316	-0.000199
 909	9.0346e+01	3.8165	76.895324	0.000426	4.256040	1.441985	-0.000170
 910	9.0445e+01	3.7780	76.701542	0.000486	4.864046	1.647983	-0.000195
 911	9.0545e+01	3.7347	76.499685	0.000507	5.066715	1.716649	-0.000203
 912	9.0644e+01	3.7042	76.277643	0.000557	5.573386	1.888314	-0.000223
 913	9.0744e+01	3.6641	76.095972	0.000456	4.560043	1.544984	-0.000183
 914	9.0844e+01	3.6224	75.882003	0.000537	5.370717	1.819648	-0.000215
 915	9.0943e+01	3.5742	75.659961	0.000557	5.573386	1.888314	-0.000223
 916	9.1043e+01	3.5438	75.478290	0.000456	4.560043	1.544984	-0.000183
 917	9.1142e+01	3.5052	75.268359	0.000527	5.269383	1.785315	-0.000211
 918	9.1242e+01	3.4587	75.054391	0.000537	5.370717	1.819648	-0.000215
 919	9.1341e+01	3.4250	74.852534	0.000507	5.066715	1.716649	-0.000203
 920	9.1441e+01	3.3785	74.682974	0.000426	4.256040	1.441985	-0.000170
 921	9.1540e+01	3.3320	74.444783	0.000598	5.978723	2.025646	-0.000239
 922	9.1639e+01	3.2967	74.246963	0.000497	4.965380	1.682316	-0.000199
 923	9.1739e+01	3.2566	74.061255	0.000466	4.661377	1.579317	-0.000187
 924	9.1838e+01	3.2149	73.831138	0.000578	5.776055	1.956980	-0.000231
 925	9.1938e+01	3.1796	73.637356	0.000486	4.864046	1.647983	-0.000195
 926	9.2037e+01	3.1395	73.467796	0.000426	4.256040	1.441985	-0.000170
 927	9.2137e+01	3.1010	73.233642	0.000588	5.877389	1.991313	-0.000235
 928	9.2237e+01	3.0625	73.023711	0.000527	5.269383	1.785315	-0.000211
 929	9.2336e+01	3.0192	72.833966	0.000476	4.762712	1.613650	-0.000191
 930	9.2436e+01	2.9839	72.615961	0.000547	5.472052	1.853981	-0.000219
 931	9.2535e+01	2.9470	72.430252	0.000466	4.661377	1.579317	-0.000187
 932	9.2635e+01	2.8956	72.220321	0.000527	5.269383	1.785315	-0.000211
 933	9.2734e+01	2.8507	72.002316	0.000547	5.472052	1.853981	-0.000219
 934	9.2834e+01	2.8154	71.788348	0.000537	5.370717	1.819648	-0.000215
 935	9.2933e+01	2.7849	71.618788	0.000426	4.256040	1.441985	-0.000170
 936	9.3032e+01	2.7384	71.388671	0.000578	5.776055	1.956980	-0.000231
 937	9.3132e+01	2.7047	71.170666	0.000547	5.472052	1.853981	-0.000219
 938	9.3231e+01	2.6598	70.976883	0.000486	4.864046	1.647983	-0.000195
 939	9.3331e+01	2.6261	70.722544	0.000638	6.384060	2.162978	-0.000256
 940	9.3430e+01	2.5812	70.520687	0.000507	5.066715	1.716649	-0.000203
 941	9.3530e+01	2.5411	70.302682	0.000547	5.472052	1.853981	-0.000219
 942	9.3629e+01	2.4914	70.092751	0.000527	5.269383	1.785315	-0.000211
 943	9.3729e+01	2.4705	69.886857	0.000517	5.168049	1.750982	-0.000207
 944	9.3829e+01	2.4192	69.680963	0.000517	5.168049	1.750982	-0.000207
 945	9.3928e+01	2.3887	69.462958	0.000547	5.472052	1.853981	-0.000219
 946	9.4028e+01	2.3358	69.240915	0.000557	5.573386	1.888314	-0.000223
 947	9.4127e+01	2.3053	69.059244	0.000456	4.560043	1.544984	-0.000183
 948	9.4227e+01	2.2652	68.817016	0.000608	6.080057	2.059979	-0.000243
 949	9.4326e+01	2.2203	68.607085	0.000527	5.269383	1.785315	-0.000211
 950	9.4425e+01	2.1850	68.385042	0.000557	5.573386	1.888314	-0.000223
 951	9.4525e+01	2.1529	68.187223	0.000497	4.965380	1.682316	-0.000199
 952	9.4624e+01	2.1048	67.920772	0.000669	6.688063	2.265977	-0.000268
 953	9.4724e+01	2.0791	67.735063	0.000466	4.661377	1.579317	-0.000187
 954	9.4823e+01	2.0165	67.504947	0.000578	5.776055	1.956980	-0.000231
 955	9.4923e+01	1.9925	67.290978	0.000537	5.370717	1.819648	-0.000215
 956	9.5022e+01	1.9459	67.081047	0.000527	5.269383	1.785315	-0.000211
 957	9.5122e+01	1.8946	66.879191	0.000507	5.066715	1.716649	-0.000203
 958	9.5222e+01	1.8721	66.620814	0.000649	6.485395	2.197311	-0.000260
 959	9.5321e+01	1.8224	66.439143	0.000456	4.560043	1.544984	-0.000183
 960	9.5421e+01	1.7935	66.152506	0.000719	7.194735	2.437642	-0.000288
 961	9.5520e+01	1.7454	65.966798	0.000466	4.661377	1.579317	-0.000187
 962	9.5620e+01	1.7037	65.756867	0.000527	5.269383	1.785315	-0.000211
 963	9.5719e+01	1.6604	65.526750	0.000578	5.776055	1.956980	-0.000231
 964	9.5819e+01	1.6267	65.296633	0.000578	5.776055	1.956980	-0.000231
 965	9.5918e+01	1.5850	65.074591	0.000557	5.573386	1.888314	-0.000223
 966	9.6017e+01	1.5465	64.872734	0.000507	5.066715	1.716649	-0.000203
 967	9.6117e+01	1.4984	64.650692	0.000557	5.573386	1.888314	-0.000223
 968	9.6216e+01	1.4631	64.388278	0.000659	6.586729	2.231644	-0.000264
 969	9.6316e+01	1.4294	64.202570	0.000466	4.661377	1.579317	-0.000187
 970	9.6415e+01	1.3780	63.960341	0.000608	6.080057	2.059979	-0.000243
 971	9.6515e+01	1.3443	63.746373	0.000537	5.370717	1.819648	-0.000215
 972	9.6615e+01	1.3042	63.483959	0.000659	6.586729	2.231644	-0.000264
 973	9.6714e+01	1.2625	63.269991	0.000537	5.370717	1.819648	-0.000215
 974	9.6814e+01	1.2256	63.051986	0.000547	5.472052	1.853981	-0.000219
 975	9.6913e+01	1.1935	62.813795	0.000598	5.978723	2.025646	-0.000239
 976	9.7013e+01	1.1550	62.583678	0.000578	5.776055	1.956980	-0.000231
 977	9.7112e+01	1.1005	62.349524	0.000588	5.877389	1.991313	-0.000235
 978	9.7212e+01	1.0748	62.115370	0.000588	5.877389	1.991313	-0.000235
 979	9.7311e+01	1.0267	61.941774	0.000436	4.357374	1.476318	-0.000174
 980	9.7410e+01	0.9866	61.647063	0.000740	7.397403	2.506308	-0.000296
 981	9.7510e+01	0.9385	61.396760	0.000628	6.282726	2.128645	-0.000252
 982	9.7609e+01	0.9064	61.231238	0.000415	4.154706	1.407652	-0.000166
 983	9.7709e+01	0.8647	60.968824	0.000659	6.586729	2.231644	-0.000264
 984	9.7808e+01	0.8374	60.779079	0.000476	4.762712	1.613650	-0.000191
 985	9.7908e+01	0.7797	60.476293	0.000760	7.600072	2.574974	-0.000304
 986	9.8007e+01	0.7363	60.270399	0.000517	5.168049	1.750982	-0.000207
 987	9.8107e+01	0.7043	60.012023	0.000649	6.485395	2.197311	-0.000260
 988	9.8207e+01	0.6658	59.798055	0.000537	5.370717	1.819648	-0.000215
 989	9.8306e+01	0.6224	59.580049	0.000547	5.472052	1.853981	-0.000219
 990	9.8406e+01	0.5936	59.309561	0.000679	6.789397	2.300310	-0.000272
 991	9.8505e+01	0.5535	59.063296	0.000618	6.181392	2.094312	-0.000248
 992	9.8605e+01	0.5150	58.849328	0.000537	5.370717	1.819648	-0.000215
 993	9.8704e+01	0.4620	58.607100	0.000608	6.080057	2.059979	-0.000243
 994	9.8803e+01	0.4235	58.340649	0.000669	6.688063	2.265977	-0.000268
 995	9.8903e+01	0.3898	58.110532	0.000578	5.776055	1.956980	-0.000231
 996	9.9002e+01	0.3449	57.884452	0.000567	5.674720	1.922647	-0.000227
 997	9.9102e+01	0.3064	57.634150	0.000628	6.282726	2.128645	-0.000252
 998	9.9201e+01	0.2759	57.387885	0.000618	6.181392	2.094312	-0.000248
 999	9.9301e+01	0.2326	57.141619	0.000618	6.181392	2.094312	-0.000248
1000	9.9400e+01	0.1749	56.907465	0.000588	5.877389	1.991313	-0.000235
1001	9.9500e+01	0.1540	56.677349	0.000578	5.776055	1.956980	-0.000231
1002	9.9600e+01	0.1123	56.414935	0.000659	6.586729	2.231644	-0.000264
1003	9.9699e+01	0.0786	56.184818	0.000578	5.776055	1.956980	-0.000231
1004	9.9799e+01	0.0321	55.938553	0.000618	6.181392	2.094312	-0.000248
1005	9.9898e+01	-0.0080	55.764956	0.000436	4.357374	1.476318	-0.000174
1006	9.9998e+01	-0.0353	55.490431	0.000689	6.890732	2.334643	-0.000276
1007	1.0010e+02	-0.0754	55.232054	0.000649	6.485395	2.197311	-0.000260
1008	1.0020e+02	-0.1187	55.022123	0.000527	5.269383	1.785315	-0.000211
1009	1.0030e+02	-0.1668	54.767783	0.000638	6.384060	2.162978	-0.000256
1010	1.0040e+02	-0.2005	54.517481	0.000628	6.282726	2.128645	-0.000252
1011	1.0050e+02	-0.2374	54.259104	0.000649	6.485395	2.197311	-0.000260
1012	1.0059e+02	-0.2727	54.016876	0.000608	6.080057	2.059979	-0.000243
1013	1.0069e+02	-0.3241	53.742351	0.000689	6.890732	2.334643	-0.000276
1014	1.0079e+02	-0.3545	53.512234	0.000578	5.776055	1.956980	-0.000231
1015	1.0089e+02	-0.4059	53.274043	0.000598	5.978723	2.025646	-0.000239
1016	1.0099e+02	-0.4460	53.007592	0.000669	6.688063	2.265977	-0.000268
1017	1.0109e+02	-0.4813	52.765364	0.000608	6.080057	2.059979	-0.000243
1018	1.0119e+02	-0.5182	52.494876	0.000679	6.789397	2.300310	-0.000272
1019	1.0129e+02	-0.5663	52.293019	0.000507	5.066715	1.716649	-0.000203
1020	1.0139e+02	-0.5984	52.002345	0.000730	7.296069	2.471975	-0.000292
1021	1.0149e+02	-0.6401	51.780303	0.000557	5.573386	1.888314	-0.000223
1022	1.0159e+02	-0.6818	51.525963	0.000638	6.384060	2.162978	-0.000256
1023	1.0169e+02	-0.7267	51.255475	0.000679	6.789397	2.300310	-0.000272
1024	1.0179e+02	-0.7620	51.017284	0.000598	5.978723	2.025646	-0.000239
1025	1.0189e+02	-0.8005	50.746796	0.000679	6.789397	2.300310	-0.000272
1026	1.0199e+02	-0.8422	50.496494	0.000628	6.282726	2.128645	-0.000252
1027	1.0209e+02	-0.8775	50.302711	0.000486	4.864046	1.647983	-0.000195
1028	1.0219e+02	-0.9144	50.044335	0.000649	6.485395	2.197311	-0.000260
1029	1.0229e+02	-0.9609	49.749624	0.000740	7.397403	2.506308	-0.000296
1030	1.0239e+02	-0.9946	49.471061	0.000699	6.992066	2.368976	-0.000280
1031	1.0248e+02	-1.0347	49.253056	0.000547	5.472052	1.853981	-0.000219
1032	1.0258e+02	-1.0764	48.994679	0.000649	6.485395	2.197311	-0.000260
1033	1.0268e+02	-1.1230	48.788785	0.000517	5.168049	1.750982	-0.000207
1034	1.0278e+02	-1.1583	48.477926	0.000780	7.802740	2.643640	-0.000312
1035	1.0288e+02	-1.2016	48.255883	0.000557	5.573386	1.888314	-0.000223
1036	1.0298e+02	-1.2449	48.037878	0.000547	5.472052	1.853981	-0.000219
1037	1.0308e+02	-1.2770	47.727019	0.000780	7.802740	2.643640	-0.000312
1038	1.0318e+02	-1.3123	47.509013	0.000547	5.472052	1.853981	-0.000219
1039	1.0328e+02	-1.3620	47.254674	0.000638	6.384060	2.162978	-0.000256
1040	1.0338e+02	-1.4005	46.988223	0.000669	6.688063	2.265977	-0.000268
1041	1.0348e+02	-1.4342	46.737920	0.000628	6.282726	2.128645	-0.000252
1042	1.0358e+02	-1.4775	46.519915	0.000547	5.472052	1.853981	-0.000219
1043	1.0368e+02	-1.5096	46.217130	0.000760	7.600072	2.574974	-0.000304
1044	1.0378e+02	-1.5593	45.978939	0.000598	5.978723	2.025646	-0.000239
1045	1.0388e+02	-1.5882	45.716525	0.000659	6.586729	2.231644	-0.000264
1046	1.0398e+02	-1.6395	45.498520	0.000547	5.472052	1.853981	-0.000219
1047	1.0408e+02	-1.6828	45.223995	0.000689	6.890732	2.334643	-0.000276
1048	1.0418e+02	-1.7149	44.989841	0.000588	5.877389	1.991313	-0.000235
1049	1.0428e+02	-1.7534	44.723390	0.000669	6.688063	2.265977	-0.000268
1050	1.0438e+02	-1.7919	44.481162	0.000608	6.080057	2.059979	-0.000243
1051	1.0447e+02	-1.8336	44.218748	0.000659	6.586729	2.231644	-0.000264
1052	1.0457e+02	-1.8802	43.972482	0.000618	6.181392	2.094312	-0.000248
1053	1.0467e+02	-1.9090	43.734291	0.000598	5.978723	2.025646	-0.000239
1054	1.0477e+02	-1.9540	43.475915	0.000649	6.485395	2.197311	-0.000260
1055	1.0487e+02	-2.0037	43.270021	0.000517	5.168049	1.750982	-0.000207
1056	1.0497e+02	-2.0326	43.003570	0.000669	6.688063	2.265977	-0.000268
1057	1.0507e+02	-2.0839	42.745193	0.000649	6.485395	2.197311	-0.000260
1058	1.0517e+02	-2.1144	42.470668	0.000689	6.890732	2.334643	-0.000276
1059	1.0527e+02	-2.1497	42.272848	0.000497	4.965380	1.682316	-0.000199
1060	1.0537e+02	-2.1978	42.022546	0.000628	6.282726	2.128645	-0.000252
1061	1.0547e+02	-2.2315	41.788392	0.000588	5.877389	1.991313	-0.000235
1062	1.0557e+02	-2.2764	41.513867	0.000689	6.890732	2.334643	-0.000276
1063	1.0567e+02	-2.3133	41.287787	0.000567	5.674720	1.922647	-0.000227
1064	1.0577e+02	-2.3662	41.057670	0.000578	5.776055	1.956980	-0.000231
1065	1.0587e+02	-2.3919	40.803331	0.000638	6.384060	2.162978	-0.000256
1066	1.0597e+02	-2.4256	40.553028	0.000628	6.282726	2.128645	-0.000252
1067	1.0607e+02	-2.4641	40.335023	0.000547	5.472052	1.853981	-0.000219
1068	1.0617e+02	-2.5090	40.100869	0.000588	5.877389	1.991313	-0.000235
1069	1.0627e+02	-2.5411	39.862678	0.000598	5.978723	2.025646	-0.000239
1070	1.0637e+02	-2.5892	39.584116	0.000699	6.992066	2.368976	-0.000280
1071	1.0647e+02	-2.6261	39.382259	0.000507	5.066715	1.716649	-0.000203
1072	1.0656e+02	-2.6727	39.144068	0.000598	5.978723	2.025646	-0.000239
1073	1.0666e+02	-2.7128	38.905877	0.000598	5.978723	2.025646	-0.000239
1074	1.0676e+02	-2.7561	38.659612	0.000618	6.181392	2.094312	-0.000248
1075	1.0686e+02	-2.7882	38.429495	0.000578	5.776055	1.956980	-0.000231
1076	1.0696e+02	-2.8331	38.199378	0.000578	5.776055	1.956980	-0.000231
1077	1.0706e+02	-2.8684	37.977336	0.000557	5.573386	1.888314	-0.000223
1078	1.0716e+02	-2.9053	37.735108	0.000608	6.080057	2.059979	-0.000243
1079	1.0726e+02	-2.9502	37.521140	0.000537	5.370717	1.819648	-0.000215
1080	1.0736e+02	-2.9935	37.258726	0.000659	6.586729	2.231644	-0.000264
1081	1.0746e+02	-3.0272	37.036683	0.000557	5.573386	1.888314	-0.000223
1082	1.0756e+02	-3.0705	36.814641	0.000557	5.573386	1.888314	-0.000223
1083	1.0766e+02	-3.1090	36.596635	0.000547	5.472052	1.853981	-0.000219
1084	1.0776e+02	-3.1587	36.346333	0.000628	6.282726	2.128645	-0.000252
1085	1.0786e+02	-3.1892	36.108142	0.000598	5.978723	2.025646	-0.000239
1086	1.0796e+02	-3.2277	35.914360	0.000486	4.864046	1.647983	-0.000195
1087	1.0806e+02	-3.2710	35.700391	0.000537	5.370717	1.819648	-0.000215
1088	1.0816e+02	-3.3031	35.462200	0.000598	5.978723	2.025646	-0.000239
1089	1.0826e+02	-3.3496	35.236121	0.000567	5.674720	1.922647	-0.000227
1090	1.0836e+02	-3.3897	34.981781	0.000638	6.384060	2.162978	-0.000256
1091	1.0845e+02	-3.4298	34.767813	0.000537	5.370717	1.819648	-0.000215
1092	1.0855e+02	-3.4667	34.578068	0.000476	4.762712	1.613650	-0.000191
1093	1.0865e+02	-3.5069	34.327765	0.000628	6.282726	2.128645	-0.000252
1094	1.0875e+02	-3.5470	34.121871	0.000517	5.168049	1.750982	-0.000207
1095	1.0885e+02	-3.5903	33.895792	0.000567	5.674720	1.922647	-0.000227
1096	1.0895e+02	-3.6272	33.669712	0.000567	5.674720	1.922647	-0.000227
1097	1.0905e+02	-3.6673	33.451707	0.000547	5.472052	1.853981	-0.000219
1098	1.0915e+02	-3.7122	33.241776	0.000527	5.269383	1.785315	-0.000211
1099	1.0925e+02	-3.7523	33.027807	0.000537	5.370717	1.819648	-0.000215
1100	1.0935e+02	-3.7828	32.813839	0.000537	5.370717	1.819648	-0.000215
1101	1.0945e+02	-3.8277	32.583723	0.000578	5.776055	1.956980	-0.000231
1102	1.0955e+02	-3.8758	32.402051	0.000456	4.560043	1.544984	-0.000183
1103	1.0965e+02	-3.9127	32.180009	0.000557	5.573386	1.888314	-0.000223
1104	1.0975e+02	-3.9576	31.966041	0.000537	5.370717	1.819648	-0.000215
1105	1.0985e+02	-3.9849	31.760147	0.000517	5.168049	1.750982	-0.000207
1106	1.0995e+02	-4.0298	31.542142	0.000547	5.472052	1.853981	-0.000219
1107	1.1005e+02	-4.0587	31.320099	0.000557	5.573386	1.888314	-0.000223
1108	1.1015e+02	-4.1068	31.089982	0.000578	5.776055	1.956980	-0.000231
1109	1.1025e+02	-4.1469	30.855828	0.000588	5.877389	1.991313	-0.000235
1110	1.1035e+02	-4.1870	30.658009	0.000497	4.965380	1.682316	-0.000199
1111	1.1044e+02	-4.2272	30.472301	0.000466	4.661377	1.579317	-0.000187
1112	1.1054e+02	-4.2657	30.278518	0.000486	4.864046	1.647983	-0.000195
1113	1.1064e+02	-4.3106	30.048401	0.000578	5.776055	1.956980	-0.000231
1114	1.1074e+02	-4.3443	29.834433	0.000537	5.370717	1.819648	-0.000215
1115	1.1084e+02	-4.3860	29.656799	0.000446	4.458709	1.510651	-0.000179
1116	1.1094e+02	-4.4293	29.418608	0.000598	5.978723	2.025646	-0.000239
1117	1.1104e+02	-4.4646	29.232900	0.000466	4.661377	1.579317	-0.000187
1118	1.1114e+02	-4.4967	29.002783	0.000578	5.776055	1.956980	-0.000231
1119	1.1124e+02	-4.5448	28.809001	0.000486	4.864046	1.647983	-0.000195
1120	1.1134e+02	-4.5897	28.631367	0.000446	4.458709	1.510651	-0.000179
1121	1.1144e+02	-4.6202	28.401250	0.000578	5.776055	1.956980	-0.000231
1122	1.1154e+02	-4.6619	28.191319	0.000527	5.269383	1.785315	-0.000211
1123	1.1164e+02	-4.7068	27.989462	0.000507	5.066715	1.716649	-0.000203
1124	1.1174e+02	-4.7437	27.811828	0.000446	4.458709	1.510651	-0.000179
1125	1.1184e+02	-4.7822	27.601897	0.000527	5.269383	1.785315	-0.000211
1126	1.1194e+02	-4.8239	27.404077	0.000497	4.965380	1.682316	-0.000199
1127	1.1204e+02	-4.8592	27.206258	0.000497	4.965380	1.682316	-0.000199
1128	1.1214e+02	-4.9090	27.012475	0.000486	4.864046	1.647983	-0.000195
1129	1.1224e+02	-4.9330	26.822730	0.000476	4.762712	1.613650	-0.000191
1130	1.1234e+02	-4.9876	26.608762	0.000537	5.370717	1.819648	-0.000215
1131	1.1244e+02	-5.0212	26.394793	0.000537	5.370717	1.819648	-0.000215
1132	1.1253e+02	-5.0533	26.192937	0.000507	5.066715	1.716649	-0.000203
1133	1.1263e+02	-5.1047	26.023377	0.000426	4.256040	1.441985	-0.000170
1134	1.1273e+02	-5.1432	25.829594	0.000486	4.864046	1.647983	-0.000195
1135	1.1283e+02	-5.1849	25.643886	0.000466	4.661377	1.579317	-0.000187
1136	1.1293e+02	-5.2250	25.450104	0.000486	4.864046	1.647983	-0.000195
1137	1.1303e+02	-5.2619	25.240173	0.000527	5.269383	1.785315	-0.000211
1138	1.1313e+02	-5.2956	25.042353	0.000497	4.965380	1.682316	-0.000199
1139	1.1323e+02	-5.3421	24.868756	0.000436	4.357374	1.476318	-0.000174
1140	1.1333e+02	-5.3806	24.679011	0.000476	4.762712	1.613650	-0.000191
1141	1.1343e+02	-5.4255	24.461005	0.000547	5.472052	1.853981	-0.000219
1142	1.1353e+02	-5.4576	24.295483	0.000415	4.154706	1.407652	-0.000166
1143	1.1363e+02	-5.5073	24.065366	0.000578	5.776055	1.956980	-0.000231
1144	1.1373e+02	-5.5394	23.911955	0.000385	3.850703	1.304654	-0.000154
1145	1.1383e+02	-5.5891	23.677801	0.000588	5.877389	1.991313	-0.000235
1146	1.1393e+02	-5.6244	23.512279	0.000415	4.154706	1.407652	-0.000166
1147	1.1403e+02	-5.6662	23.318496	0.000486	4.864046	1.647983	-0.000195
1148	1.1413e+02	-5.6966	23.120676	0.000497	4.965380	1.682316	-0.000199
1149	1.1423e+02	-5.7383	22.930931	0.000476	4.762712	1.613650	-0.000191
1150	1.1433e+02	-5.7849	22.765408	0.000415	4.154706	1.407652	-0.000166
1151	1.1442e+02	-5.8218	22.599886	0.000415	4.154706	1.407652	-0.000166
1152	1.1452e+02	-5.8554	22.410140	0.000476	4.762712	1.613650	-0.000191
1153	1.1462e+02	-5.8988	22.175987	0.000588	5.877389	1.991313	-0.000235
1154	1.1472e+02	-5.9421	22.034687	0.000355	3.546700	1.201655	-0.000142
1155	1.1482e+02	-5.9774	21.832830	0.000507	5.066715	1.716649	-0.000203
1156	1.1492e+02	-6.0239	21.626936	0.000517	5.168049	1.750982	-0.000207
1157	1.1502e+02	-6.0640	21.441228	0.000466	4.661377	1.579317	-0.000187
1158	1.1512e+02	-6.1025	21.259557	0.000456	4.560043	1.544984	-0.000183
1159	1.1522e+02	-6.1378	21.089997	0.000426	4.256040	1.441985	-0.000170
1160	1.1532e+02	-6.1811	20.892177	0.000497	4.965380	1.682316	-0.000199
1161	1.1542e+02	-6.2148	20.714543	0.000446	4.458709	1.510651	-0.000179
1162	1.1552e+02	-6.2629	20.532872	0.000456	4.560043	1.544984	-0.000183
1163	1.1562e+02	-6.2950	20.351201	0.000456	4.560043	1.544984	-0.000183
1164	1.1572e+02	-6.3351	20.169530	0.000456	4.560043	1.544984	-0.000183
1165	1.1582e+02	-6.3800	19.967673	0.000507	5.066715	1.716649	-0.000203
1166	1.1592e+02	-6.4169	19.798114	0.000426	4.256040	1.441985	-0.000170
1167	1.1602e+02	-6.4602	19.636628	0.000405	4.053372	1.373319	-0.000162
1168	1.1612e+02	-6.5020	19.467069	0.000426	4.256040	1.441985	-0.000170
1169	1.1622e+02	-6.5389	19.289435	0.000446	4.458709	1.510651	-0.000179
1170	1.1632e+02	-6.5693	19.075466	0.000537	5.370717	1.819648	-0.000215
1171	1.1642e+02	-6.6159	18.905907	0.000426	4.256040	1.441985	-0.000170
1172	1.1651e+02	-6.6479	18.695976	0.000527	5.269383	1.785315	-0.000211
1173	1.1661e+02	-6.6929	18.542564	0.000385	3.850703	1.304654	-0.000154
1174	1.1671e+02	-6.7490	18.368968	0.000436	4.357374	1.476318	-0.000174
1175	1.1681e+02	-6.7699	18.191334	0.000446	4.458709	1.510651	-0.000179
1176	1.1691e+02	-6.8132	17.989477	0.000507	5.066715	1.716649	-0.000203
1177	1.1701e+02	-6.8549	17.795694	0.000486	4.864046	1.647983	-0.000195
1178	1.1711e+02	-6.8966	17.630172	0.000415	4.154706	1.407652	-0.000166
1179	1.1721e+02	-6.9335	17.492909	0.000345	3.445366	1.167322	-0.000138
1180	1.1731e+02	-6.9752	17.291052	0.000507	5.066715	1.716649	-0.000203
1181	1.1741e+02	-7.0169	17.077084	0.000537	5.370717	1.819648	-0.000215
1182	1.1751e+02	-7.0602	16.911562	0.000415	4.154706	1.407652	-0.000166
1183	1.1761e+02	-7.0955	16.758150	0.000385	3.850703	1.304654	-0.000154
1184	1.1771e+02	-7.1308	16.572442	0.000466	4.661377	1.579317	-0.000187
1185	1.1781e+02	-7.1693	16.362511	0.000527	5.269383	1.785315	-0.000211
1186	1.1791e+02	-7.2207	16.192951	0.000426	4.256040	1.441985	-0.000170
1187	1.1801e+02	-7.2511	16.003206	0.000476	4.762712	1.613650	-0.000191
1188	1.1811e+02	-7.2880	15.869981	0.000334	3.344032	1.132989	-0.000134
1189	1.1821e+02	-7.3249	15.660050	0.000527	5.269383	1.785315	-0.000211
1190	1.1831e+02	-7.3682	15.538935	0.000304	3.040029	1.029990	-0.000122
1191	1.1841e+02	-7.4164	15.324967	0.000537	5.370717	1.819648	-0.000215
1192	1.1850e+02	-7.4549	15.131185	0.000486	4.864046	1.647983	-0.000195
1193	1.1860e+02	-7.4789	14.985848	0.000365	3.648034	1.235988	-0.000146
1194	1.1870e+02	-7.5287	14.816288	0.000426	4.256040	1.441985	-0.000170
1195	1.1880e+02	-7.5736	14.618469	0.000497	4.965380	1.682316	-0.000199
1196	1.1890e+02	-7.6041	14.469094	0.000375	3.749369	1.270321	-0.000150
1197	1.1900e+02	-7.6650	14.299535	0.000426	4.256040	1.441985	-0.000170
1198	1.1910e+02	-7.6907	14.113827	0.000466	4.661377	1.579317	-0.000187
1199	1.1920e+02	-7.7308	13.924081	0.000476	4.762712	1.613650	-0.000191
1200	1.1930e+02	-7.7677	13.766633	0.000395	3.952037	1.338986	-0.000158
1201	1.1940e+02	-7.8142	13.617259	0.000375	3.749369	1.270321	-0.000150
1202	1.1950e+02	-7.8431	13.427513	0.000476	4.762712	1.613650	-0.000191
1203	1.1960e+02	-7.8896	13.229694	0.000497	4.965380	1.682316	-0.000199
1204	1.1970e+02	-7.9281	13.124728	0.000263	2.634692	0.892658	-0.000105
1205	1.1980e+02	-7.9714	12.906723	0.000547	5.472052	1.853981	-0.000219
1206	1.1990e+02	-8.0147	12.757349	0.000375	3.749369	1.270321	-0.000150
1207	1.2000e+02	-8.0516	12.579715	0.000446	4.458709	1.510651	-0.000179
1208	1.2010e+02	-8.0934	12.365747	0.000537	5.370717	1.819648	-0.000215
1209	1.2020e+02	-8.1319	12.224447	0.000355	3.546700	1.201655	-0.000142
1210	1.2030e+02	-8.1639	12.087184	0.000345	3.445366	1.167322	-0.000138
1211	1.2039e+02	-8.2073	11.889365	0.000497	4.965380	1.682316	-0.000199
1212	1.2049e+02	-8.2458	11.719805	0.000426	4.256040	1.441985	-0.000170
1213	1.2059e+02	-8.2843	11.554282	0.000415	4.154706	1.407652	-0.000166
1214	1.2069e+02	-8.3292	11.380686	0.000436	4.357374	1.476318	-0.000174
1215	1.2079e+02	-8.3645	11.174792	0.000517	5.168049	1.750982	-0.000207
1216	1.2089e+02	-8.4110	11.001195	0.000436	4.357374	1.476318	-0.000174
1217	1.2099e+02	-8.4527	10.835672	0.000415	4.154706	1.407652	-0.000166
1218	1.2109e+02	-8.4848	10.662075	0.000436	4.357374	1.476318	-0.000174
1219	1.2119e+02	-8.5313	10.528850	0.000334	3.344032	1.132989	-0.000134
1220	1.2129e+02	-8.5682	10.355253	0.000436	4.357374	1.476318	-0.000174
1221	1.2139e+02	-8.6019	10.205879	0.000375	3.749369	1.270321	-0.000150
1222	1.2149e+02	-8.6468	10.012097	0.000486	4.864046	1.647983	-0.000195
1223	1.2159e+02	-8.6805	9.854648	0.000395	3.952037	1.338986	-0.000158
1224	1.2169e+02	-8.7270	9.689126	0.000415	4.154706	1.407652	-0.000166
1225	1.2179e+02	-8.7639	9.507455	0.000456	4.560043	1.544984	-0.000183
1226	1.2189e+02	-8.8024	9.354044	0.000385	3.850703	1.304654	-0.000154
1227	1.2199e+02	-8.8377	9.164298	0.000476	4.762712	1.613650	-0.000191
1228	1.2209e+02	-8.8794	9.031073	0.000334	3.344032	1.132989	-0.000134
1229	1.2219e+02	-8.9324	8.841327	0.000476	4.762712	1.613650	-0.000191
1230	1.2229e+02	-8.9773	8.704065	0.000345	3.445366	1.167322	-0.000138
1231	1.2239e+02	-9.0062	8.510282	0.000486	4.864046	1.647983	-0.000195
1232	1.2248e+02	-9.0479	8.356871	0.000385	3.850703	1.304654	-0.000154
1233	1.2258e+02	-9.0816	8.175200	0.000456	4.560043	1.544984	-0.000183
1234	1.2268e+02	-9.1217	8.009677	0.000415	4.154706	1.407652	-0.000166
1235	1.2278e+02	-9.1634	7.860303	0.000375	3.749369	1.270321	-0.000150
1236	1.2288e+02	-9.2083	7.702855	0.000395	3.952037	1.338986	-0.000158
1237	1.2298e+02	-9.2484	7.521184	0.000456	4.560043	1.544984	-0.000183
1238	1.2308e+02	-9.2869	7.355661	0.000415	4.154706	1.407652	-0.000166
1239	1.2318e+02	-9.3222	7.218399	0.000345	3.445366	1.167322	-0.000138
1240	1.2328e+02	-9.3639	7.040765	0.000446	4.458709	1.510651	-0.000179
1241	1.2338e+02	-9.3992	6.915614	0.000314	3.141363	1.064323	-0.000126
1242	1.2348e+02	-9.4505	6.697608	0.000547	5.472052	1.853981	-0.000219
1243	1.2358e+02	-9.4874	6.556308	0.000355	3.546700	1.201655	-0.000142
1244	1.2368e+02	-9.5275	6.419046	0.000345	3.445366	1.167322	-0.000138
1245	1.2378e+02	-9.5757	6.225263	0.000486	4.864046	1.647983	-0.000195
1246	1.2388e+02	-9.5949	6.083964	0.000355	3.546700	1.201655	-0.000142
1247	1.2398e+02	-9.6366	5.902292	0.000456	4.560043	1.544984	-0.000183
1248	1.2408e+02	-9.6815	5.773104	0.000324	3.242697	1.098656	-0.000130
1249	1.2418e+02	-9.7249	5.583359	0.000476	4.762712	1.613650	-0.000191
1250	1.2428e+02	-9.7537	5.389576	0.000486	4.864046	1.647983	-0.000195
1251	1.2438e+02	-9.8003	5.260388	0.000324	3.242697	1.098656	-0.000130
1252	1.2447e+02	-9.8436	5.090828	0.000426	4.256040	1.441985	-0.000170
1253	1.2457e+02	-9.8821	4.933380	0.000395	3.952037	1.338986	-0.000158
1254	1.2467e+02	-9.9126	4.804192	0.000324	3.242697	1.098656	-0.000130
1255	1.2477e+02	-9.9607	4.634632	0.000426	4.256040	1.441985	-0.000170
1256	1.2487e+02	-9.9992	4.473146	0.000405	4.053372	1.373319	-0.000162
1257	1.2497e+02	-10.0377	4.347995	0.000314	3.141363	1.064323	-0.000126
1258	1.2507e+02	-10.0826	4.186510	0.000405	4.053372	1.373319	-0.000162
1259	1.2517e+02	-10.1291	3.996764	0.000476	4.762712	1.613650	-0.000191
1260	1.2527e+02	-10.1580	3.875650	0.000304	3.040029	1.029990	-0.000122
1261	1.2537e+02	-10.2045	3.681868	0.000486	4.864046	1.647983	-0.000195
1262	1.2547e+02	-10.2334	3.560754	0.000304	3.040029	1.029990	-0.000122
1263	1.2557e+02	-10.2799	3.379083	0.000456	4.560043	1.544984	-0.000183
1264	1.2567e+02	-10.3200	3.233746	0.000365	3.648034	1.235988	-0.000146
1265	1.2577e+02	-10.3617	3.084372	0.000375	3.749369	1.270321	-0.000150
1266	1.2587e+02	-10.3906	2.910775	0.000436	4.357374	1.476318	-0.000174
1267	1.2597e+02	-10.4323	2.749289	0.000405	4.053372	1.373319	-0.000162
1268	1.2607e+02	-10.4853	2.603953	0.000365	3.648034	1.235988	-0.000146
1269	1.2617e+02	-10.5157	2.462653	0.000355	3.546700	1.201655	-0.000142
1270	1.2627e+02	-10.5655	2.313279	0.000375	3.749369	1.270321	-0.000150
1271	1.2636e+02	-10.6008	2.151793	0.000405	4.053372	1.373319	-0.000162
1272	1.2646e+02	-10.6329	2.010494	0.000355	3.546700	1.201655	-0.000142
1273	1.2656e+02	-10.6826	1.857082	0.000385	3.850703	1.304654	-0.000154
1274	1.2666e+02	-10.7147	1.695597	0.000405	4.053372	1.373319	-0.000162
1275	1.2676e+02	-10.7580	1.566409	0.000324	3.242697	1.098656	-0.000130
1276	1.2686e+02	-10.8045	1.392812	0.000436	4.357374	1.476318	-0.000174
1277	1.2696e+02	-10.8382	1.267661	0.000314	3.141363	1.064323	-0.000126
1278	1.2706e+02	-10.8799	1.114249	0.000385	3.850703	1.304654	-0.000154
1279	1.2716e+02	-10.9056	0.952764	0.000405	4.053372	1.373319	-0.000162
1280	1.2726e+02	-10.9585	0.819539	0.000334	3.344032	1.132989	-0.000134
1281	1.2736e+02	-11.0066	0.654016	0.000415	4.154706	1.407652	-0.000166
1282	1.2746e+02	-11.0467	0.508679	0.000365	3.648034	1.235988	-0.000146
1283	1.2756e+02	-11.0804	0.331045	0.000446	4.458709	1.510651	-0.000179
1284	1.2766e+02	-11.1205	0.185708	0.000365	3.648034	1.235988	-0.000146
1285	1.2776e+02	-11.1574	0.036334	0.000375	3.749369	1.270321	-0.000150
1286	1.2786e+02	-11.1927	-0.084780	0.000304	3.040029	1.029990	-0.000122
1287	1.2796e+02	-11.2312	-0.254340	0.000426	4.256040	1.441985	-0.000170
1288	1.2806e+02	-11.2713	-0.371416	0.000294	2.938694	0.995657	-0.000118
1289	1.2816e+02	-11.3147	-0.561162	0.000476	4.762712	1.613650	-0.000191
1290	1.2826e+02	-11.3580	-0.698424	0.000345	3.445366	1.167322	-0.000138
1291	1.2835e+02	-11.3933	-0.799353	0.000253	2.533357	0.858325	-0.000101
1292	1.2845e+02	-11.4350	-0.981024	0.000456	4.560043	1.544984	-0.000183
1293	1.2855e+02	-11.4735	-1.142509	0.000405	4.053372	1.373319	-0.000162
1294	1.2865e+02	-11.5136	-1.320143	0.000446	4.458709	1.510651	-0.000179
1295	1.2875e+02	-11.5585	-1.417035	0.000243	2.432023	0.823992	-0.000097
1296	1.2885e+02	-11.6018	-1.594669	0.000446	4.458709	1.510651	-0.000179
1297	1.2895e+02	-11.6275	-1.715783	0.000304	3.040029	1.029990	-0.000122
1298	1.2905e+02	-11.6724	-1.836897	0.000304	3.040029	1.029990	-0.000122
1299	1.2915e+02	-11.7189	-1.990308	0.000385	3.850703	1.304654	-0.000154
1300	1.2925e+02	-11.7478	-2.127571	0.000345	3.445366	1.167322	-0.000138
1301	1.2935e+02	-11.8007	-2.280982	0.000385	3.850703	1.304654	-0.000154
1302	1.2945e+02	-11.8312	-2.410170	0.000324	3.242697	1.098656	-0.000130
1303	1.2955e+02	-11.8793	-2.579730	0.000426	4.256040	1.441985	-0.000170
1304	1.2965e+02	-11.9194	-2.737178	0.000395	3.952037	1.338986	-0.000158
1305	1.2975e+02	-11.9547	-2.830032	0.000233	2.330689	0.789659	-0.000093
1306	1.2985e+02	-11.9900	-3.015740	0.000466	4.661377	1.579317	-0.000187
1307	1.2995e+02	-12.0382	-3.132817	0.000294	2.938694	0.995657	-0.000118
1308	1.3005e+02	-12.0799	-3.294303	0.000405	4.053372	1.373319	-0.000162
1309	1.3015e+02	-12.1104	-3.435603	0.000355	3.546700	1.201655	-0.000142
1310	1.3025e+02	-12.1553	-3.605162	0.000426	4.256040	1.441985	-0.000170
1311	1.3034e+02	-12.1970	-3.706091	0.000253	2.533357	0.858325	-0.000101
1312	1.3044e+02	-12.2387	-3.879687	0.000436	4.357374	1.476318	-0.000174
1313	1.3054e+02	-12.2740	-4.000802	0.000304	3.040029	1.029990	-0.000122
1314	1.3064e+02	-12.3109	-4.166324	0.000415	4.154706	1.407652	-0.000166
1315	1.3074e+02	-12.3510	-4.291475	0.000314	3.141363	1.064323	-0.000126
1316	1.3084e+02	-12.3975	-4.461035	0.000426	4.256040	1.441985	-0.000170
1317	1.3094e+02	-12.4328	-4.574075	0.000284	2.837360	0.961324	-0.000114
1318	1.3104e+02	-12.4697	-4.755746	0.000456	4.560043	1.544984	-0.000183
1319	1.3114e+02	-12.5082	-4.864749	0.000274	2.736026	0.926991	-0.000110
1320	1.3124e+02	-12.5531	-4.997974	0.000334	3.344032	1.132989	-0.000134
1321	1.3134e+02	-12.5948	-5.175608	0.000446	4.458709	1.510651	-0.000179
1322	1.3144e+02	-12.6317	-5.292685	0.000294	2.938694	0.995657	-0.000118
1323	1.3154e+02	-12.6686	-5.429948	0.000345	3.445366	1.167322	-0.000138
1324	1.3164e+02	-12.7168	-5.534913	0.000263	2.634692	0.892658	-0.000105
1325	1.3174e+02	-12.7488	-5.692361	0.000395	3.952037	1.338986	-0.000158
1326	1.3184e+02	-12.7922	-5.857884	0.000415	4.154706	1.407652	-0.000166
1327	1.3194e+02	-12.8290	-5.950738	0.000233	2.330689	0.789659	-0.000093
1328	1.3204e+02	-12.8740	-6.144521	0.000486	4.864046	1.647983	-0.000195
1329	1.3214e+02	-12.9125	-6.253523	0.000274	2.736026	0.926991	-0.000110
1330	1.3224e+02	-12.9510	-6.406934	0.000385	3.850703	1.304654	-0.000154
1331	1.3234e+02	-12.9815	-6.544197	0.000345	3.445366	1.167322	-0.000138
1332	1.3243e+02	-13.0280	-6.689534	0.000365	3.648034	1.235988	-0.000146
1333	1.3253e+02	-13.0761	-6.810648	0.000304	3.040029	1.029990	-0.000122
1334	1.3263e+02	-13.1034	-6.992319	0.000456	4.560043	1.544984	-0.000183
1335	1.3273e+02	-13.1499	-7.117470	0.000314	3.141363	1.064323	-0.000126
1336	1.3283e+02	-13.1900	-7.246659	0.000324	3.242697	1.098656	-0.000130
1337	1.3293e+02	-13.2237	-7.383921	0.000345	3.445366	1.167322	-0.000138
1338	1.3303e+02	-13.2734	-7.513110	0.000324	3.242697	1.098656	-0.000130
1339	1.3313e+02	-13.3151	-7.686706	0.000436	4.357374	1.476318	-0.000174
1340	1.3323e+02	-13.3456	-7.807821	0.000304	3.040029	1.029990	-0.000122
1341	1.3333e+02	-13.3841	-7.949120	0.000355	3.546700	1.201655	-0.000142
1342	1.3343e+02	-13.4258	-8.078309	0.000324	3.242697	1.098656	-0.000130
1343	1.3353e+02	-13.4707	-8.231720	0.000385	3.850703	1.304654	-0.000154
1344	1.3363e+02	-13.4964	-8.385131	0.000385	3.850703	1.304654	-0.000154
1345	1.3373e+02	-13.5429	-8.522394	0.000345	3.445366	1.167322	-0.000138
1346	1.3383e+02	-13.5895	-8.631396	0.000274	2.736026	0.926991	-0.000110
1347	1.3393e+02	-13.6215	-8.796919	0.000415	4.154706	1.407652	-0.000166
1348	1.3403e+02	-13.6681	-8.942256	0.000365	3.648034	1.235988	-0.000146
1349	1.3413e+02	-13.7066	-9.047221	0.000263	2.634692	0.892658	-0.000105
1350	1.3423e+02	-13.7515	-9.241004	0.000486	4.864046	1.647983	-0.000195
1351	1.3432e+02	-13.7836	-9.341932	0.000253	2.533357	0.858325	-0.000101
1352	1.3442e+02	-13.8237	-9.483232	0.000355	3.546700	1.201655	-0.000142
1353	1.3452e+02	-13.8718	-9.656829	0.000436	4.357374	1.476318	-0.000174
1354	1.3462e+02	-13.8975	-9.777943	0.000304	3.040029	1.029990	-0.000122
1355	1.3472e+02	-13.9472	-9.907131	0.000324	3.242697	1.098656	-0.000130
1356	1.3482e+02	-13.9857	-10.064579	0.000395	3.952037	1.338986	-0.000158
1357	1.3492e+02	-14.0242	-10.197805	0.000334	3.344032	1.132989	-0.000134
1358	1.3502e+02	-14.0659	-10.343142	0.000365	3.648034	1.235988	-0.000146
1359	1.3512e+02	-14.1092	-10.464256	0.000304	3.040029	1.029990	-0.000122
1360	1.3522e+02	-14.1461	-10.637853	0.000436	4.357374	1.476318	-0.000174
1361	1.3532e+02	-14.1846	-10.771078	0.000334	3.344032	1.132989	-0.000134
1362	1.3542e+02	-14.2199	-10.900266	0.000324	3.242697	1.098656	-0.000130
1363	1.3552e+02	-14.2697	-11.037529	0.000345	3.445366	1.167322	-0.000138
1364	1.3562e+02	-14.3082	-11.174792	0.000345	3.445366	1.167322	-0.000138
1365	1.3572e+02	-14.3499	-11.308017	0.000334	3.344032	1.132989	-0.000134
1366	1.3582e+02	-14.3948	-11.461428	0.000385	3.850703	1.304654	-0.000154
1367	1.3592e+02	-14.4269	-11.598691	0.000345	3.445366	1.167322	-0.000138
1368	1.3602e+02	-14.4702	-11.784399	0.000466	4.661377	1.579317	-0.000187
1369	1.3612e+02	-14.5119	-11.873216	0.000223	2.229354	0.755326	-0.000089
1370	1.3622e+02	-14.5472	-11.986256	0.000284	2.837360	0.961324	-0.000114
1371	1.3631e+02	-14.5761	-12.099296	0.000284	2.837360	0.961324	-0.000114
1372	1.3641e+02	-14.6258	-12.268856	0.000426	4.256040	1.441985	-0.000170
1373	1.3651e+02	-14.6627	-12.381895	0.000284	2.837360	0.961324	-0.000114
1374	1.3661e+02	-14.7028	-12.567604	0.000466	4.661377	1.579317	-0.000187
1375	1.3671e+02	-14.7445	-12.733126	0.000415	4.154706	1.407652	-0.000166
1376	1.3681e+02	-14.7814	-12.862314	0.000324	3.242697	1.098656	-0.000130
1377	1.3691e+02	-14.8215	-12.987466	0.000314	3.141363	1.064323	-0.000126
1378	1.3701e+02	-14.8600	-13.100505	0.000284	2.837360	0.961324	-0.000114
1379	1.3711e+02	-14.9017	-13.274102	0.000436	4.357374	1.476318	-0.000174
1380	1.3721e+02	-14.9338	-13.399254	0.000314	3.141363	1.064323	-0.000126
1381	1.3731e+02	-14.9771	-13.544590	0.000365	3.648034	1.235988	-0.000146
1382	1.3741e+02	-15.0236	-13.722224	0.000446	4.458709	1.510651	-0.000179
1383	1.3751e+02	-15.0654	-13.847376	0.000314	3.141363	1.064323	-0.000126
1384	1.3761e+02	-15.1006	-14.004824	0.000395	3.952037	1.338986	-0.000158
1385	1.3771e+02	-15.1456	-14.113827	0.000274	2.736026	0.926991	-0.000110
1386	1.3781e+02	-15.1744	-14.283386	0.000426	4.256040	1.441985	-0.000170
1387	1.3791e+02	-15.2258	-14.400463	0.000294	2.938694	0.995657	-0.000118
1388	1.3801e+02	-15.2643	-14.521577	0.000304	3.040029	1.029990	-0.000122
1389	1.3811e+02	-15.2980	-14.674988	0.000385	3.850703	1.304654	-0.000154
1390	1.3821e+02	-15.3397	-14.828400	0.000385	3.850703	1.304654	-0.000154
1391	1.3831e+02	-15.3830	-14.953551	0.000314	3.141363	1.064323	-0.000126
1392	1.3840e+02	-15.4231	-15.102925	0.000375	3.749369	1.270321	-0.000150
1393	1.3850e+02	-15.4632	-15.252299	0.000375	3.749369	1.270321	-0.000150
1394	1.3860e+02	-15.5001	-15.413784	0.000405	4.053372	1.373319	-0.000162
1395	1.3870e+02	-15.5466	-15.526824	0.000284	2.837360	0.961324	-0.000114
1396	1.3880e+02	-15.5771	-15.672161	0.000365	3.648034	1.235988	-0.000146
1397	1.3890e+02	-15.6124	-15.797312	0.000314	3.141363	1.064323	-0.000126
1398	1.3900e+02	-15.6525	-15.922463	0.000314	3.141363	1.064323	-0.000126
1399	1.3910e+02	-15.7022	-16.079912	0.000395	3.952037	1.338986	-0.000158
1400	1.3920e+02	-15.7359	-16.241397	0.000405	4.053372	1.373319	-0.000162
1401	1.3930e+02	-15.7824	-16.358474	0.000294	2.938694	0.995657	-0.000118
1402	1.3940e+02	-15.8193	-16.507848	0.000375	3.749369	1.270321	-0.000150
1403	1.3950e+02	-15.8610	-16.649148	0.000355	3.546700	1.201655	-0.000142
1404	1.3960e+02	-15.9060	-16.794485	0.000365	3.648034	1.235988	-0.000146
1405	1.3970e+02	-15.9332	-16.895413	0.000253	2.533357	0.858325	-0.000101
1406	1.3980e+02	-15.9798	-17.069010	0.000436	4.357374	1.476318	-0.000174
1407	1.3990e+02	-16.0167	-17.218384	0.000375	3.749369	1.270321	-0.000150
1408	1.4000e+02	-16.0552	-17.391981	0.000436	4.357374	1.476318	-0.000174
1409	1.4010e+02	-16.0969	-17.484835	0.000233	2.330689	0.789659	-0.000093
1410	1.4020e+02	-16.1402	-17.622097	0.000345	3.445366	1.167322	-0.000138
1411	1.4029e+02	-16.1675	-17.755323	0.000334	3.344032	1.132989	-0.000134
1412	1.4039e+02	-16.2188	-17.941031	0.000466	4.661377	1.579317	-0.000187
1413	1.4049e+02	-16.2621	-18.066182	0.000314	3.141363	1.064323	-0.000126
1414	1.4059e+02	-16.3006	-18.219594	0.000385	3.850703	1.304654	-0.000154
1415	1.4069e+02	-16.3359	-18.320522	0.000253	2.533357	0.858325	-0.000101
1416	1.4079e+02	-16.3728	-18.490082	0.000426	4.256040	1.441985	-0.000170
1417	1.4089e+02	-16.4177	-18.643493	0.000385	3.850703	1.304654	-0.000154
1418	1.4099e+02	-16.4546	-18.756533	0.000284	2.837360	0.961324	-0.000114
1419	1.4109e+02	-16.4963	-18.885721	0.000324	3.242697	1.098656	-0.000130
1420	1.4119e+02	-16.5396	-19.091615	0.000517	5.168049	1.750982	-0.000207
1421	1.4129e+02	-16.5765	-19.240989	0.000375	3.749369	1.270321	-0.000150
1422	1.4139e+02	-16.6215	-19.354029	0.000284	2.837360	0.961324	-0.000114
1423	1.4149e+02	-16.6551	-19.479180	0.000314	3.141363	1.064323	-0.000126
1424	1.4159e+02	-16.6969	-19.644703	0.000415	4.154706	1.407652	-0.000166
1425	1.4169e+02	-16.7321	-19.777928	0.000334	3.344032	1.132989	-0.000134
1426	1.4179e+02	-16.7674	-19.927302	0.000375	3.749369	1.270321	-0.000150
1427	1.4189e+02	-16.8220	-20.032268	0.000263	2.634692	0.892658	-0.000105
1428	1.4199e+02	-16.8493	-20.197790	0.000415	4.154706	1.407652	-0.000166
1429	1.4209e+02	-16.9022	-20.331016	0.000334	3.344032	1.132989	-0.000134
1430	1.4219e+02	-16.9359	-20.492501	0.000405	4.053372	1.373319	-0.000162
1431	1.4228e+02	-16.9824	-20.629764	0.000345	3.445366	1.167322	-0.000138
1432	1.4238e+02	-17.0145	-20.779138	0.000375	3.749369	1.270321	-0.000150
1433	1.4248e+02	-17.0562	-20.908326	0.000324	3.242697	1.098656	-0.000130
1434	1.4258e+02	-17.0931	-21.061737	0.000385	3.850703	1.304654	-0.000154
1435	1.4268e+02	-17.1412	-21.227260	0.000415	4.154706	1.407652	-0.000166
1436	1.4278e+02	-17.1829	-21.368559	0.000355	3.546700	1.201655	-0.000142
1437	1.4288e+02	-17.2118	-21.489674	0.000304	3.040029	1.029990	-0.000122
1438	1.4298e+02	-17.2519	-21.626936	0.000345	3.445366	1.167322	-0.000138
1439	1.4308e+02	-17.3017	-21.784384	0.000395	3.952037	1.338986	-0.000158
1440	1.4318e+02	-17.3369	-21.929721	0.000365	3.648034	1.235988	-0.000146
1441	1.4328e+02	-17.3674	-22.095244	0.000415	4.154706	1.407652	-0.000166
1442	1.4338e+02	-17.4123	-22.240581	0.000365	3.648034	1.235988	-0.000146
1443	1.4348e+02	-17.4428	-22.393992	0.000385	3.850703	1.304654	-0.000154
1444	1.4358e+02	-17.4958	-22.502995	0.000274	2.736026	0.926991	-0.000110
1445	1.4368e+02	-17.5278	-22.664480	0.000405	4.053372	1.373319	-0.000162
1446	1.4378e+02	-17.5712	-22.797706	0.000334	3.344032	1.132989	-0.000134
1447	1.4388e+02	-17.6065	-22.951117	0.000385	3.850703	1.304654	-0.000154
1448	1.4398e+02	-17.6514	-23.124714	0.000436	4.357374	1.476318	-0.000174
1449	1.4408e+02	-17.7011	-23.266013	0.000355	3.546700	1.201655	-0.000142
1450	1.4418e+02	-17.7284	-23.399239	0.000334	3.344032	1.132989	-0.000134
1451	1.4428e+02	-17.7749	-23.548613	0.000375	3.749369	1.270321	-0.000150
1452	1.4437e+02	-17.8150	-23.714135	0.000415	4.154706	1.407652	-0.000166
1453	1.4447e+02	-17.8439	-23.859472	0.000365	3.648034	1.235988	-0.000146
1454	1.4457e+02	-17.8904	-24.008846	0.000375	3.749369	1.270321	-0.000150
1455	1.4467e+02	-17.9321	-24.138035	0.000324	3.242697	1.098656	-0.000130
1456	1.4477e+02	-17.9658	-24.327780	0.000476	4.762712	1.613650	-0.000191
1457	1.4487e+02	-18.0187	-24.489265	0.000405	4.053372	1.373319	-0.000162
1458	1.4497e+02	-18.0476	-24.614417	0.000314	3.141363	1.064323	-0.000126
1459	1.4507e+02	-18.0861	-24.763791	0.000375	3.749369	1.270321	-0.000150
1460	1.4517e+02	-18.1214	-24.913165	0.000375	3.749369	1.270321	-0.000150
1461	1.4527e+02	-18.1663	-25.082724	0.000426	4.256040	1.441985	-0.000170
1462	1.4537e+02	-18.2113	-25.232098	0.000375	3.749369	1.270321	-0.000150
1463	1.4547e+02	-18.2530	-25.373398	0.000355	3.546700	1.201655	-0.000142
1464	1.4557e+02	-18.2899	-25.522772	0.000375	3.749369	1.270321	-0.000150
1465	1.4567e+02	-18.3268	-25.708480	0.000466	4.661377	1.579317	-0.000187
1466	1.4577e+02	-18.3717	-25.849780	0.000355	3.546700	1.201655	-0.000142
1467	1.4587e+02	-18.4022	-26.007228	0.000395	3.952037	1.338986	-0.000158
1468	1.4597e+02	-18.4407	-26.148528	0.000355	3.546700	1.201655	-0.000142
1469	1.4607e+02	-18.4952	-26.305976	0.000395	3.952037	1.338986	-0.000158
1470	1.4617e+02	-18.5369	-26.455350	0.000375	3.749369	1.270321	-0.000150
1471	1.4626e+02	-18.5642	-26.596650	0.000355	3.546700	1.201655	-0.000142
1472	1.4636e+02	-18.6011	-26.782358	0.000466	4.661377	1.579317	-0.000187
1473	1.4646e+02	-18.6460	-26.927695	0.000365	3.648034	1.235988	-0.000146
1474	1.4656e+02	-18.6909	-27.101292	0.000436	4.357374	1.476318	-0.000174
1475	1.4666e+02	-18.7230	-27.266815	0.000415	4.154706	1.407652	-0.000166
1476	1.4676e+02	-18.7599	-27.424263	0.000395	3.952037	1.338986	-0.000158
1477	1.4686e+02	-18.8080	-27.565563	0.000355	3.546700	1.201655	-0.000142
1478	1.4696e+02	-18.8529	-27.727048	0.000405	4.053372	1.373319	-0.000162
1479	1.4706e+02	-18.8898	-27.912756	0.000466	4.661377	1.579317	-0.000187
1480	1.4716e+02	-18.9251	-28.078279	0.000415	4.154706	1.407652	-0.000166
1481	1.4726e+02	-18.9620	-28.191319	0.000284	2.837360	0.961324	-0.000114
1482	1.4736e+02	-19.0070	-28.397213	0.000517	5.168049	1.750982	-0.000207
1483	1.4746e+02	-19.0519	-28.566772	0.000426	4.256040	1.441985	-0.000170
1484	1.4756e+02	-19.0791	-28.748444	0.000456	4.560043	1.544984	-0.000183
1485	1.4766e+02	-19.1209	-28.881669	0.000334	3.344032	1.132989	-0.000134
1486	1.4776e+02	-19.1754	-29.059303	0.000446	4.458709	1.510651	-0.000179
1487	1.4786e+02	-19.2091	-29.224826	0.000415	4.154706	1.407652	-0.000166
1488	1.4796e+02	-19.2476	-29.378237	0.000385	3.850703	1.304654	-0.000154
1489	1.4806e+02	-19.2797	-29.572019	0.000486	4.864046	1.647983	-0.000195
1490	1.4816e+02	-19.3150	-29.689096	0.000294	2.938694	0.995657	-0.000118
1491	1.4825e+02	-19.3599	-29.894990	0.000517	5.168049	1.750982	-0.000207
1492	1.4835e+02	-19.4016	-30.032253	0.000345	3.445366	1.167322	-0.000138
1493	1.4845e+02	-19.4385	-30.193738	0.000405	4.053372	1.373319	-0.000162
1494	1.4855e+02	-19.4786	-30.371372	0.000446	4.458709	1.510651	-0.000179
1495	1.4865e+02	-19.5171	-30.549006	0.000446	4.458709	1.510651	-0.000179
1496	1.4875e+02	-19.5604	-30.730677	0.000456	4.560043	1.544984	-0.000183
1497	1.4885e+02	-19.6021	-30.916385	0.000466	4.661377	1.579317	-0.000187
1498	1.4895e+02	-19.6519	-31.081908	0.000415	4.154706	1.407652	-0.000166
1499	1.4905e+02	-19.6775	-31.259542	0.000446	4.458709	1.510651	-0.000179
1500	1.4915e+02	-19.7208	-31.408916	0.000375	3.749369	1.270321	-0.000150
1501	1.4925e+02	-19.7658	-31.614810	0.000517	5.168049	1.750982	-0.000207
1502	1.4935e+02	-19.8059	-31.776295	0.000405	4.053372	1.373319	-0.000162
1503	1.4945e+02	-19.8395	-31.966041	0.000476	4.762712	1.613650	-0.000191
1504	1.4955e+02	-19.8845	-32.180009	0.000537	5.370717	1.819648	-0.000215
1505	1.4965e+02	-19.9230	-32.317272	0.000345	3.445366	1.167322	-0.000138
1506	1.4975e+02	-19.9534	-32.490868	0.000436	4.357374	1.476318	-0.000174
1507	1.4985e+02	-19.9968	-32.688688	0.000497	4.965380	1.682316	-0.000199
1508	1.4995e+02	-19.9534	-32.664465	0.000061	0.608006	0.205998	0.000024
1509	1.5005e+02	-19.9214	-32.632168	0.000081	0.810674	0.274664	0.000032
1510	1.5015e+02	-19.8813	-32.680614	-0.000122	-1.216011	-0.411996	-0.000049
1511	1.5025e+02	-19.8363	-32.595834	0.000213	2.128020	0.720993	0.000085
1512	1.5034e+02	-19.7962	-32.571611	0.000061	0.608006	0.205998	0.000024
1513	1.5044e+02	-19.7593	-32.494906	0.000193	1.925352	0.652327	0.000077
1514	1.5054e+02	-19.7112	-32.482794	0.000030	0.304003	0.102999	0.000012
1515	1.5064e+02	-19.6775	-32.462608	0.000051	0.506671	0.171665	0.000020
1516	1.5074e+02	-19.6374	-32.450497	0.000030	0.304003	0.102999	0.000012
1517	1.5084e+02	-19.6085	-32.349569	0.000253	2.533357	0.858325	0.000101
1518	1.5094e+02	-19.5572	-32.337457	0.000030	0.304003	0.102999	0.000012
1519	1.5104e+02	-19.5251	-32.252677	0.000213	2.128020	0.720993	0.000085
1520	1.5114e+02	-19.4738	-32.204232	0.000122	1.216011	0.411996	0.000049
1521	1.5124e+02	-19.4497	-32.184046	0.000051	0.506671	0.171665	0.000020
1522	1.5134e+02	-19.4000	-32.139638	0.000111	1.114677	0.377663	0.000045
1523	1.5144e+02	-19.3631	-32.050821	0.000223	2.229354	0.755326	0.000089
1524	1.5154e+02	-19.3230	-31.986226	0.000162	1.621349	0.549328	0.000065
1525	1.5164e+02	-19.2861	-31.937781	0.000122	1.216011	0.411996	0.000049
1526	1.5174e+02	-19.2444	-31.877224	0.000152	1.520014	0.514995	0.000061
1527	1.5184e+02	-19.2043	-31.800518	0.000193	1.925352	0.652327	0.000077
1528	1.5194e+02	-19.1594	-31.756110	0.000111	1.114677	0.377663	0.000045
1529	1.5204e+02	-19.1192	-31.683441	0.000182	1.824017	0.617994	0.000073
1530	1.5214e+02	-19.0872	-31.630959	0.000132	1.317346	0.446329	0.000053
1531	1.5224e+02	-19.0422	-31.594624	0.000091	0.912009	0.308997	0.000037
1532	1.5233e+02	-19.0134	-31.513882	0.000203	2.026686	0.686660	0.000081
1533	1.5243e+02	-18.9636	-31.437176	0.000193	1.925352	0.652327	0.000077
1534	1.5253e+02	-18.9380	-31.380656	0.000142	1.418680	0.480662	0.000057
1535	1.5263e+02	-18.8786	-31.287802	0.000233	2.330689	0.789659	0.000093
1536	1.5273e+02	-18.8562	-31.198985	0.000223	2.229354	0.755326	0.000089
1537	1.5283e+02	-18.8080	-31.162651	0.000091	0.912009	0.308997	0.000037
1538	1.5293e+02	-18.7599	-31.077871	0.000213	2.128020	0.720993	0.000085
1539	1.5303e+02	-18.7326	-30.960794	0.000294	2.938694	0.995657	0.000118
1540	1.5313e+02	-18.6893	-30.924460	0.000091	0.912009	0.308997	0.000037
1541	1.5323e+02	-18.6524	-30.779123	0.000365	3.648034	1.235988	0.000146
1542	1.5333e+02	-18.6043	-30.767011	0.000030	0.304003	0.102999	0.000012
1543	1.5343e+02	-18.5690	-30.714529	0.000132	1.317346	0.446329	0.000053
1544	1.5353e+02	-18.5289	-30.605526	0.000274	2.736026	0.926991	0.000110
1545	1.5363e+02	-18.4872	-30.508635	0.000243	2.432023	0.823992	0.000097
1546	1.5373e+02	-18.4503	-30.431929	0.000193	1.925352	0.652327	0.000077
1547	1.5383e+02	-18.4070	-30.363298	0.000172	1.722683	0.583661	0.000069
1548	1.5393e+02	-18.3781	-30.278518	0.000213	2.128020	0.720993	0.000085
1549	1.5403e+02	-18.3252	-30.185664	0.000233	2.330689	0.789659	0.000093
1550	1.5413e+02	-18.2883	-30.117033	0.000172	1.722683	0.583661	0.000069
1551	1.5422e+02	-18.2481	-30.068587	0.000122	1.216011	0.411996	0.000049
1552	1.5432e+02	-18.2209	-29.983807	0.000213	2.128020	0.720993	0.000085
1553	1.5442e+02	-18.1727	-29.911139	0.000182	1.824017	0.617994	0.000073
1554	1.5452e+02	-18.1294	-29.806173	0.000263	2.634692	0.892658	0.000105
1555	1.5462e+02	-18.0893	-29.749653	0.000142	1.418680	0.480662	0.000057
1556	1.5472e+02	-18.0524	-29.668911	0.000203	2.026686	0.686660	0.000081
1557	1.5482e+02	-18.0187	-29.543759	0.000314	3.141363	1.064323	0.000126
1558	1.5492e+02	-17.9642	-29.467054	0.000193	1.925352	0.652327	0.000077
1559	1.5502e+02	-17.9337	-29.378237	0.000223	2.229354	0.755326	0.000089
1560	1.5512e+02	-17.8872	-29.285383	0.000233	2.330689	0.789659	0.000093
1561	1.5522e+02	-17.8551	-29.204640	0.000203	2.026686	0.686660	0.000081
1562	1.5532e+02	-17.8038	-29.144083	0.000152	1.520014	0.514995	0.000061
1563	1.5542e+02	-17.7669	-29.055266	0.000223	2.229354	0.755326	0.000089
1564	1.5552e+02	-17.7252	-28.930115	0.000314	3.141363	1.064323	0.000126
1565	1.5562e+02	-17.6883	-28.849372	0.000203	2.026686	0.686660	0.000081
1566	1.5572e+02	-17.6514	-28.724221	0.000314	3.141363	1.064323	0.000126
1567	1.5582e+02	-17.6113	-28.691924	0.000081	0.810674	0.274664	0.000032
1568	1.5592e+02	-17.5792	-28.595032	0.000243	2.432023	0.823992	0.000097
1569	1.5602e+02	-17.5166	-28.461807	0.000334	3.344032	1.132989	0.000134
1570	1.5612e+02	-17.4926	-28.397213	0.000162	1.621349	0.549328	0.000065
1571	1.5622e+02	-17.4476	-28.288210	0.000274	2.736026	0.926991	0.000110
1572	1.5631e+02	-17.4107	-28.231690	0.000142	1.418680	0.480662	0.000057
1573	1.5641e+02	-17.3722	-28.134799	0.000243	2.432023	0.823992	0.000097
1574	1.5651e+02	-17.3305	-28.050019	0.000213	2.128020	0.720993	0.000085
1575	1.5661e+02	-17.3017	-27.945054	0.000263	2.634692	0.892658	0.000105
1576	1.5671e+02	-17.2567	-27.836051	0.000274	2.736026	0.926991	0.000110
1577	1.5681e+02	-17.2230	-27.779531	0.000142	1.418680	0.480662	0.000057
1578	1.5691e+02	-17.1733	-27.678603	0.000253	2.533357	0.858325	0.000101
1579	1.5701e+02	-17.1380	-27.573637	0.000263	2.634692	0.892658	0.000105
1580	1.5711e+02	-17.0851	-27.488857	0.000213	2.128020	0.720993	0.000085
1581	1.5721e+02	-17.0450	-27.391966	0.000243	2.432023	0.823992	0.000097
1582	1.5731e+02	-17.0065	-27.339483	0.000132	1.317346	0.446329	0.000053
1583	1.5741e+02	-16.9760	-27.177998	0.000405	4.053372	1.373319	0.000162
1584	1.5751e+02	-16.9455	-27.117441	0.000152	1.520014	0.514995	0.000061
1585	1.5761e+02	-16.8990	-26.996327	0.000304	3.040029	1.029990	0.000122
1586	1.5771e+02	-16.8541	-26.911547	0.000213	2.128020	0.720993	0.000085
1587	1.5781e+02	-16.8220	-26.790433	0.000304	3.040029	1.029990	0.000122
1588	1.5791e+02	-16.7787	-26.750061	0.000101	1.013343	0.343330	0.000041
1589	1.5801e+02	-16.7289	-26.616836	0.000334	3.344032	1.132989	0.000134
1590	1.5811e+02	-16.6985	-26.503796	0.000284	2.837360	0.961324	0.000114
1591	1.5821e+02	-16.6535	-26.410942	0.000233	2.330689	0.789659	0.000093
1592	1.5830e+02	-16.6134	-26.342311	0.000172	1.722683	0.583661	0.000069
1593	1.5840e+02	-16.5733	-26.225234	0.000294	2.938694	0.995657	0.000118
1594	1.5850e+02	-16.5461	-26.136417	0.000223	2.229354	0.755326	0.000089
1595	1.5860e+02	-16.4995	-26.011266	0.000314	3.141363	1.064323	0.000126
1596	1.5870e+02	-16.4610	-25.914374	0.000243	2.432023	0.823992	0.000097
1597	1.5880e+02	-16.4145	-25.821520	0.000233	2.330689	0.789659	0.000093
1598	1.5890e+02	-16.3792	-25.700406	0.000304	3.040029	1.029990	0.000122
1599	1.5900e+02	-16.3359	-25.603515	0.000243	2.432023	0.823992	0.000097
1600	1.5910e+02	-16.2974	-25.514698	0.000223	2.229354	0.755326	0.000089
1601	1.5920e+02	-16.2605	-25.393584	0.000304	3.040029	1.029990	0.000122
1602	1.5930e+02	-16.2252	-25.300730	0.000233	2.330689	0.789659	0.000093
1603	1.5940e+02	-16.1771	-25.187690	0.000284	2.837360	0.961324	0.000114
1604	1.5950e+02	-16.1402	-25.106947	0.000203	2.026686	0.686660	0.000081
1605	1.5960e+02	-16.0969	-25.001982	0.000263	2.634692	0.892658	0.000105
1606	1.5970e+02	-16.0536	-24.872793	0.000324	3.242697	1.098656	0.000130
1607	1.5980e+02	-16.0167	-24.812236	0.000152	1.520014	0.514995	0.000061
1608	1.5990e+02	-15.9798	-24.687085	0.000314	3.141363	1.064323	0.000126
1609	1.6000e+02	-15.9268	-24.594231	0.000233	2.330689	0.789659	0.000093
1610	1.6010e+02	-15.8899	-24.525600	0.000172	1.722683	0.583661	0.000069
1611	1.6019e+02	-15.8562	-24.372188	0.000385	3.850703	1.304654	0.000154
1612	1.6029e+02	-15.8177	-24.238963	0.000334	3.344032	1.132989	0.000134
1613	1.6039e+02	-15.7792	-24.154183	0.000213	2.128020	0.720993	0.000085
1614	1.6049e+02	-15.7375	-24.065366	0.000223	2.229354	0.755326	0.000089
1615	1.6059e+02	-15.7022	-23.948289	0.000294	2.938694	0.995657	0.000118
1616	1.6069e+02	-15.6669	-23.851398	0.000243	2.432023	0.823992	0.000097
1617	1.6079e+02	-15.6236	-23.774692	0.000193	1.925352	0.652327	0.000077
1618	1.6089e+02	-15.5819	-23.653578	0.000304	3.040029	1.029990	0.000122
1619	1.6099e+02	-15.5466	-23.544576	0.000274	2.736026	0.926991	0.000110
1620	1.6109e+02	-15.5017	-23.399239	0.000365	3.648034	1.235988	0.000146
1621	1.6119e+02	-15.4584	-23.306385	0.000233	2.330689	0.789659	0.000093
1622	1.6129e+02	-15.4183	-23.201419	0.000263	2.634692	0.892658	0.000105
1623	1.6139e+02	-15.3846	-23.116639	0.000213	2.128020	0.720993	0.000085
1624	1.6149e+02	-15.3509	-22.971302	0.000365	3.648034	1.235988	0.000146
1625	1.6159e+02	-15.3028	-22.886522	0.000213	2.128020	0.720993	0.000085
1626	1.6169e+02	-15.2611	-22.761371	0.000314	3.141363	1.064323	0.000126
1627	1.6179e+02	-15.2178	-22.692740	0.000172	1.722683	0.583661	0.000069
1628	1.6189e+02	-15.1841	-22.527217	0.000415	4.154706	1.407652	0.000166
1629	1.6199e+02	-15.1407	-22.470698	0.000142	1.418680	0.480662	0.000057
1630	1.6209e+02	-15.0974	-22.389955	0.000203	2.026686	0.686660	0.000081
1631	1.6219e+02	-15.0637	-22.224432	0.000415	4.154706	1.407652	0.000166
1632	1.6228e+02	-15.0204	-22.127541	0.000243	2.432023	0.823992	0.000097
1633	1.6238e+02	-14.9883	-21.998353	0.000324	3.242697	1.098656	0.000130
1634	1.6248e+02	-14.9434	-21.893387	0.000263	2.634692	0.892658	0.000105
1635	1.6258e+02	-14.8985	-21.780347	0.000284	2.837360	0.961324	0.000114
1636	1.6268e+02	-14.8568	-21.667308	0.000284	2.837360	0.961324	0.000114
1637	1.6278e+02	-14.8215	-21.562342	0.000263	2.634692	0.892658	0.000105
1638	1.6288e+02	-14.7910	-21.429116	0.000334	3.344032	1.132989	0.000134
1639	1.6298e+02	-14.7429	-21.340300	0.000223	2.229354	0.755326	0.000089
1640	1.6308e+02	-14.6980	-21.271668	0.000172	1.722683	0.583661	0.000069
1641	1.6318e+02	-14.6723	-21.106146	0.000415	4.154706	1.407652	0.000166
1642	1.6328e+02	-14.6162	-21.001180	0.000263	2.634692	0.892658	0.000105
1643	1.6338e+02	-14.5761	-20.880066	0.000304	3.040029	1.029990	0.000122
1644	1.6348e+02	-14.5440	-20.791249	0.000223	2.229354	0.755326	0.000089
1645	1.6358e+02	-14.4942	-20.690321	0.000253	2.533357	0.858325	0.000101
1646	1.6368e+02	-14.4702	-20.557095	0.000334	3.344032	1.132989	0.000134
1647	1.6378e+02	-14.4221	-20.452130	0.000263	2.634692	0.892658	0.000105
1648	1.6388e+02	-14.3916	-20.351201	0.000253	2.533357	0.858325	0.000101
1649	1.6398e+02	-14.3467	-20.246236	0.000263	2.634692	0.892658	0.000105
1650	1.6408e+02	-14.2937	-20.076676	0.000426	4.256040	1.441985	0.000170
1651	1.6418e+02	-14.2664	-19.987859	0.000223	2.229354	0.755326	0.000089
1652	1.6427e+02	-14.2231	-19.874819	0.000284	2.837360	0.961324	0.000114
1653	1.6437e+02	-14.1910	-19.765817	0.000274	2.736026	0.926991	0.000110
1654	1.6447e+02	-14.1397	-19.660851	0.000263	2.634692	0.892658	0.000105
1655	1.6457e+02	-14.1044	-19.576071	0.000213	2.128020	0.720993	0.000085
1656	1.6467e+02	-14.0675	-19.422660	0.000385	3.850703	1.304654	0.000154
1657	1.6477e+02	-14.0258	-19.358066	0.000162	1.621349	0.549328	0.000065
1658	1.6487e+02	-13.9841	-19.192543	0.000415	4.154706	1.407652	0.000166
1659	1.6497e+02	-13.9408	-19.099689	0.000233	2.330689	0.789659	0.000093
1660	1.6507e+02	-13.9103	-18.970501	0.000324	3.242697	1.098656	0.000130
1661	1.6517e+02	-13.8654	-18.853424	0.000294	2.938694	0.995657	0.000118
1662	1.6527e+02	-13.8237	-18.748458	0.000263	2.634692	0.892658	0.000105
1663	1.6537e+02	-13.7948	-18.627344	0.000304	3.040029	1.029990	0.000122
1664	1.6547e+02	-13.7435	-18.490082	0.000345	3.445366	1.167322	0.000138
1665	1.6557e+02	-13.7034	-18.377042	0.000284	2.837360	0.961324	0.000114
1666	1.6567e+02	-13.6633	-18.255928	0.000304	3.040029	1.029990	0.000122
1667	1.6577e+02	-13.6231	-18.138851	0.000294	2.938694	0.995657	0.000118
1668	1.6587e+02	-13.5766	-18.013700	0.000314	3.141363	1.064323	0.000126
1669	1.6597e+02	-13.5413	-17.900660	0.000284	2.837360	0.961324	0.000114
1670	1.6607e+02	-13.5012	-17.775509	0.000314	3.141363	1.064323	0.000126
1671	1.6616e+02	-13.4723	-17.702840	0.000182	1.824017	0.617994	0.000073
1672	1.6626e+02	-13.4210	-17.561540	0.000355	3.546700	1.201655	0.000142
1673	1.6636e+02	-13.3937	-17.420241	0.000355	3.546700	1.201655	0.000142
1674	1.6646e+02	-13.3472	-17.343535	0.000193	1.925352	0.652327	0.000077
1675	1.6656e+02	-13.3055	-17.258755	0.000213	2.128020	0.720993	0.000085
1676	1.6666e+02	-13.2670	-17.064973	0.000486	4.864046	1.647983	0.000195
1677	1.6676e+02	-13.2301	-16.996341	0.000172	1.722683	0.583661	0.000069
1678	1.6686e+02	-13.1868	-16.871190	0.000314	3.141363	1.064323	0.000126
1679	1.6696e+02	-13.1419	-16.729890	0.000355	3.546700	1.201655	0.000142
1680	1.6706e+02	-13.1050	-16.620888	0.000274	2.736026	0.926991	0.000110
1681	1.6716e+02	-13.0649	-16.544182	0.000193	1.925352	0.652327	0.000077
1682	1.6726e+02	-13.0344	-16.398845	0.000365	3.648034	1.235988	0.000146
1683	1.6736e+02	-12.9959	-16.314066	0.000213	2.128020	0.720993	0.000085
1684	1.6746e+02	-12.9574	-16.172766	0.000355	3.546700	1.201655	0.000142
1685	1.6756e+02	-12.9109	-16.039540	0.000334	3.344032	1.132989	0.000134
1686	1.6766e+02	-12.8627	-15.966872	0.000182	1.824017	0.617994	0.000073
1687	1.6776e+02	-12.8307	-15.841721	0.000314	3.141363	1.064323	0.000126
1688	1.6786e+02	-12.7905	-15.704458	0.000345	3.445366	1.167322	0.000138
1689	1.6796e+02	-12.7520	-15.579307	0.000314	3.141363	1.064323	0.000126
1690	1.6806e+02	-12.7119	-15.478378	0.000253	2.533357	0.858325	0.000101
1691	1.6816e+02	-12.6670	-15.365339	0.000284	2.837360	0.961324	0.000114
1692	1.6825e+02	-12.6333	-15.211927	0.000385	3.850703	1.304654	0.000154
1693	1.6835e+02	-12.5932	-15.131185	0.000203	2.026686	0.686660	0.000081
1694	1.6845e+02	-12.5483	-15.001996	0.000324	3.242697	1.098656	0.000130
1695	1.6855e+02	-12.5066	-14.880882	0.000304	3.040029	1.029990	0.000122
1696	1.6865e+02	-12.4665	-14.763805	0.000294	2.938694	0.995657	0.000118
1697	1.6875e+02	-12.4328	-14.658840	0.000263	2.634692	0.892658	0.000105
1698	1.6885e+02	-12.3879	-14.537726	0.000304	3.040029	1.029990	0.000122
1699	1.6895e+02	-12.3494	-14.396426	0.000355	3.546700	1.201655	0.000142
1700	1.6905e+02	-12.3125	-14.291461	0.000263	2.634692	0.892658	0.000105
1701	1.6915e+02	-12.2788	-14.186495	0.000263	2.634692	0.892658	0.000105
1702	1.6925e+02	-12.2403	-14.049232	0.000345	3.445366	1.167322	0.000138
1703	1.6935e+02	-12.1874	-13.948304	0.000253	2.533357	0.858325	0.000101
1704	1.6945e+02	-12.1489	-13.815078	0.000334	3.344032	1.132989	0.000134
1705	1.6955e+02	-12.1168	-13.681853	0.000334	3.344032	1.132989	0.000134
1706	1.6965e+02	-12.0767	-13.580925	0.000253	2.533357	0.858325	0.000101
1707	1.6975e+02	-12.0350	-13.427513	0.000385	3.850703	1.304654	0.000154
1708	1.6985e+02	-11.9932	-13.358882	0.000172	1.722683	0.583661	0.000069
1709	1.6995e+02	-11.9531	-13.177211	0.000456	4.560043	1.544984	0.000183
1710	1.7005e+02	-11.9082	-13.060134	0.000294	2.938694	0.995657	0.000118
1711	1.7015e+02	-11.8617	-12.967280	0.000233	2.330689	0.789659	0.000093
1712	1.7024e+02	-11.8328	-12.850203	0.000294	2.938694	0.995657	0.000118
1713	1.7034e+02	-11.7975	-12.700829	0.000375	3.749369	1.270321	0.000150
1714	1.7044e+02	-11.7526	-12.595864	0.000263	2.634692	0.892658	0.000105
1715	1.7054e+02	-11.7125	-12.482824	0.000284	2.837360	0.961324	0.000114
1716	1.7064e+02	-11.6692	-12.361710	0.000304	3.040029	1.029990	0.000122
1717	1.7074e+02	-11.6307	-12.228484	0.000334	3.344032	1.132989	0.000134
1718	1.7084e+02	-11.5986	-12.103333	0.000314	3.141363	1.064323	0.000126
1719	1.7094e+02	-11.5601	-12.010479	0.000233	2.330689	0.789659	0.000093
1720	1.7104e+02	-11.5056	-11.885328	0.000314	3.141363	1.064323	0.000126
1721	1.7114e+02	-11.4703	-11.748065	0.000345	3.445366	1.167322	0.000138
1722	1.7124e+02	-11.4398	-11.630988	0.000294	2.938694	0.995657	0.000118
1723	1.7134e+02	-11.3933	-11.497763	0.000334	3.344032	1.132989	0.000134
1724	1.7144e+02	-11.3612	-11.368574	0.000324	3.242697	1.098656	0.000130
1725	1.7154e+02	-11.3130	-11.251497	0.000294	2.938694	0.995657	0.000118
1726	1.7164e+02	-11.2729	-11.142495	0.000274	2.736026	0.926991	0.000110
1727	1.7174e+02	-11.2344	-10.997158	0.000365	3.648034	1.235988	0.000146
1728	1.7184e+02	-11.1991	-10.888155	0.000274	2.736026	0.926991	0.000110
1729	1.7194e+02	-11.1526	-10.795301	0.000233	2.330689	0.789659	0.000093
1730	1.7204e+02	-11.1173	-10.641890	0.000385	3.850703	1.304654	0.000154
1731	1.7213e+02	-11.0772	-10.512701	0.000324	3.242697	1.098656	0.000130
1732	1.7223e+02	-11.0355	-10.399662	0.000284	2.837360	0.961324	0.000114
1733	1.7233e+02	-10.9986	-10.234139	0.000415	4.154706	1.407652	0.000166
1734	1.7243e+02	-10.9633	-10.137248	0.000243	2.432023	0.823992	0.000097
1735	1.7253e+02	-10.9168	-10.012097	0.000314	3.141363	1.064323	0.000126
1736	1.7263e+02	-10.8767	-9.907131	0.000263	2.634692	0.892658	0.000105
1737	1.7273e+02	-10.8446	-9.753720	0.000385	3.850703	1.304654	0.000154
1738	1.7283e+02	-10.7949	-9.628569	0.000314	3.141363	1.064323	0.000126
1739	1.7293e+02	-10.7580	-9.499380	0.000324	3.242697	1.098656	0.000130
1740	1.7303e+02	-10.7243	-9.394415	0.000263	2.634692	0.892658	0.000105
1741	1.7313e+02	-10.6810	-9.232929	0.000405	4.053372	1.373319	0.000162
1742	1.7323e+02	-10.6377	-9.095667	0.000345	3.445366	1.167322	0.000138
1743	1.7333e+02	-10.5944	-8.998776	0.000243	2.432023	0.823992	0.000097
1744	1.7343e+02	-10.5623	-8.913996	0.000213	2.128020	0.720993	0.000085
1745	1.7353e+02	-10.5254	-8.756547	0.000395	3.952037	1.338986	0.000158
1746	1.7363e+02	-10.4869	-8.643508	0.000284	2.837360	0.961324	0.000114
1747	1.7373e+02	-10.4403	-8.494134	0.000375	3.749369	1.270321	0.000150
1748	1.7383e+02	-10.3906	-8.377057	0.000294	2.938694	0.995657	0.000118
1749	1.7393e+02	-10.3617	-8.276128	0.000253	2.533357	0.858325	0.000101
1750	1.7403e+02	-10.3248	-8.118680	0.000395	3.952037	1.338986	0.000158
1751	1.7413e+02	-10.2783	-7.957195	0.000405	4.053372	1.373319	0.000162
1752	1.7422e+02	-10.2366	-7.852229	0.000263	2.634692	0.892658	0.000105
1753	1.7432e+02	-10.2077	-7.727078	0.000314	3.141363	1.064323	0.000126
1754	1.7442e+02	-10.1644	-7.638261	0.000223	2.229354	0.755326	0.000089
1755	1.7452e+02	-10.1243	-7.480813	0.000395	3.952037	1.338986	0.000158
1756	1.7462e+02	-10.0810	-7.383921	0.000243	2.432023	0.823992	0.000097
1757	1.7472e+02	-10.0377	-7.230510	0.000385	3.850703	1.304654	0.000154
1758	1.7482e+02	-9.9976	-7.077099	0.000385	3.850703	1.304654	0.000154
1759	1.7492e+02	-9.9623	-6.988282	0.000223	2.229354	0.755326	0.000089
1760	1.7502e+02	-9.9286	-6.814685	0.000436	4.357374	1.476318	0.000174
1761	1.7512e+02	-9.8901	-6.701645	0.000284	2.837360	0.961324	0.000114
1762	1.7522e+02	-9.8420	-6.524011	0.000446	4.458709	1.510651	0.000179
1763	1.7532e+02	-9.8051	-6.386749	0.000345	3.445366	1.167322	0.000138
1764	1.7542e+02	-9.7602	-6.245449	0.000355	3.546700	1.201655	0.000142
1765	1.7552e+02	-9.7265	-6.136446	0.000274	2.736026	0.926991	0.000110
1766	1.7562e+02	-9.6831	-6.023407	0.000284	2.837360	0.961324	0.000114
1767	1.7572e+02	-9.6446	-5.845773	0.000446	4.458709	1.510651	0.000179
1768	1.7582e+02	-9.6045	-5.744844	0.000253	2.533357	0.858325	0.000101
1769	1.7592e+02	-9.5660	-5.595470	0.000375	3.749369	1.270321	0.000150
1770	1.7602e+02	-9.5179	-5.442059	0.000385	3.850703	1.304654	0.000154
1771	1.7612e+02	-9.4778	-5.324982	0.000294	2.938694	0.995657	0.000118
1772	1.7621e+02	-9.4425	-5.195794	0.000324	3.242697	1.098656	0.000130
1773	1.7631e+02	-9.4040	-5.038345	0.000395	3.952037	1.338986	0.000158
1774	1.7641e+02	-9.3655	-4.929343	0.000274	2.736026	0.926991	0.000110
1775	1.7651e+02	-9.3142	-4.779969	0.000375	3.749369	1.270321	0.000150
1776	1.7661e+02	-9.2901	-4.646743	0.000334	3.344032	1.132989	0.000134
1777	1.7671e+02	-9.2452	-4.509481	0.000345	3.445366	1.167322	0.000138
1778	1.7681e+02	-9.2035	-4.380292	0.000324	3.242697	1.098656	0.000130
1779	1.7691e+02	-9.1634	-4.214770	0.000415	4.154706	1.407652	0.000166
1780	1.7701e+02	-9.1201	-4.073470	0.000355	3.546700	1.201655	0.000142
1781	1.7711e+02	-9.0864	-3.940244	0.000334	3.344032	1.132989	0.000134
1782	1.7721e+02	-9.0382	-3.827205	0.000284	2.837360	0.961324	0.000114
1783	1.7731e+02	-9.0110	-3.641496	0.000466	4.661377	1.579317	0.000187
1784	1.7741e+02	-8.9628	-3.556717	0.000213	2.128020	0.720993	0.000085
1785	1.7751e+02	-8.9276	-3.375045	0.000456	4.560043	1.544984	0.000183
1786	1.7761e+02	-8.8858	-3.249894	0.000314	3.141363	1.064323	0.000126
1787	1.7771e+02	-8.8522	-3.132817	0.000294	2.938694	0.995657	0.000118
1788	1.7781e+02	-8.8008	-2.983443	0.000375	3.749369	1.270321	0.000150
1789	1.7791e+02	-8.7687	-2.850218	0.000334	3.344032	1.132989	0.000134
1790	1.7801e+02	-8.7254	-2.680658	0.000426	4.256040	1.441985	0.000170
1791	1.7810e+02	-8.6885	-2.535321	0.000365	3.648034	1.235988	0.000146
1792	1.7820e+02	-8.6404	-2.398059	0.000345	3.445366	1.167322	0.000138
1793	1.7830e+02	-8.6035	-2.244647	0.000385	3.850703	1.304654	0.000154
1794	1.7840e+02	-8.5730	-2.135645	0.000274	2.736026	0.926991	0.000110
1795	1.7850e+02	-8.5281	-1.966085	0.000426	4.256040	1.441985	0.000170
1796	1.7860e+02	-8.4848	-1.853045	0.000284	2.837360	0.961324	0.000114
1797	1.7870e+02	-8.4511	-1.683486	0.000426	4.256040	1.441985	0.000170
1798	1.7880e+02	-8.4158	-1.534112	0.000375	3.749369	1.270321	0.000150
1799	1.7890e+02	-8.3725	-1.400886	0.000334	3.344032	1.132989	0.000134
1800	1.7900e+02	-8.3292	-1.239401	0.000405	4.053372	1.373319	0.000162
1801	1.7910e+02	-8.2859	-1.110212	0.000324	3.242697	1.098656	0.000130
1802	1.7920e+02	-8.2506	-0.956801	0.000385	3.850703	1.304654	0.000154
1803	1.7930e+02	-8.2024	-0.823576	0.000334	3.344032	1.132989	0.000134
1804	1.7940e+02	-8.1720	-0.686313	0.000345	3.445366	1.167322	0.000138
1805	1.7950e+02	-8.1335	-0.480419	0.000517	5.168049	1.750982	0.000207
1806	1.7960e+02	-8.0885	-0.363342	0.000294	2.938694	0.995657	0.000118
1807	1.7970e+02	-8.0516	-0.222042	0.000355	3.546700	1.201655	0.000142
1808	1.7980e+02	-8.0099	-0.080743	0.000355	3.546700	1.201655	0.000142
1809	1.7990e+02	-7.9730	0.100928	0.000456	4.560043	1.544984	0.000183
1810	1.8000e+02	-7.9233	0.218005	0.000294	2.938694	0.995657	0.000118
1811	1.8009e+02	-7.8864	0.383528	0.000415	4.154706	1.407652	0.000166
1812	1.8019e+02	-7.8511	0.536939	0.000385	3.850703	1.304654	0.000154
1813	1.8029e+02	-7.8126	0.682276	0.000365	3.648034	1.235988	0.000146
1814	1.8039e+02	-7.7613	0.819539	0.000345	3.445366	1.167322	0.000138
1815	1.8049e+02	-7.7340	0.968913	0.000375	3.749369	1.270321	0.000150
1816	1.8059e+02	-7.6907	1.150584	0.000456	4.560043	1.544984	0.000183
1817	1.8069e+02	-7.6458	1.283809	0.000334	3.344032	1.132989	0.000134
1818	1.8079e+02	-7.6057	1.433183	0.000375	3.749369	1.270321	0.000150
1819	1.8089e+02	-7.5704	1.578520	0.000365	3.648034	1.235988	0.000146
1820	1.8099e+02	-7.5303	1.699634	0.000304	3.040029	1.029990	0.000122
1821	1.8109e+02	-7.4902	1.897454	0.000497	4.965380	1.682316	0.000199
1822	1.8119e+02	-7.4436	2.034716	0.000345	3.445366	1.167322	0.000138
1823	1.8129e+02	-7.4116	2.196202	0.000405	4.053372	1.373319	0.000162
1824	1.8139e+02	-7.3747	2.349613	0.000385	3.850703	1.304654	0.000154
1825	1.8149e+02	-7.3297	2.503024	0.000385	3.850703	1.304654	0.000154
1826	1.8159e+02	-7.2912	2.607990	0.000263	2.634692	0.892658	0.000105
1827	1.8169e+02	-7.2447	2.789661	0.000456	4.560043	1.544984	0.000183
1828	1.8179e+02	-7.2158	2.983443	0.000486	4.864046	1.647983	0.000195
1829	1.8189e+02	-7.1661	3.080335	0.000243	2.432023	0.823992	0.000097
1830	1.8199e+02	-7.1356	3.282191	0.000507	5.066715	1.716649	0.000203
1831	1.8209e+02	-7.0891	3.403305	0.000304	3.040029	1.029990	0.000122
1832	1.8218e+02	-7.0458	3.576902	0.000436	4.357374	1.476318	0.000174
1833	1.8228e+02	-7.0137	3.706091	0.000324	3.242697	1.098656	0.000130
1834	1.8238e+02	-6.9656	3.859502	0.000385	3.850703	1.304654	0.000154
1835	1.8248e+02	-6.9303	4.037136	0.000446	4.458709	1.510651	0.000179
1836	1.8258e+02	-6.8950	4.190547	0.000385	3.850703	1.304654	0.000154
1837	1.8268e+02	-6.8533	4.356069	0.000415	4.154706	1.407652	0.000166
1838	1.8278e+02	-6.8164	4.505443	0.000375	3.749369	1.270321	0.000150
1839	1.8288e+02	-6.7747	4.658855	0.000385	3.850703	1.304654	0.000154
1840	1.8298e+02	-6.7282	4.828414	0.000426	4.256040	1.441985	0.000170
1841	1.8308e+02	-6.6929	5.026234	0.000497	4.965380	1.682316	0.000199
1842	1.8318e+02	-6.6544	5.135237	0.000274	2.736026	0.926991	0.000110
1843	1.8328e+02	-6.6094	5.312871	0.000446	4.458709	1.510651	0.000179
1844	1.8338e+02	-6.5741	5.429948	0.000294	2.938694	0.995657	0.000118
1845	1.8348e+02	-6.5260	5.611619	0.000456	4.560043	1.544984	0.000183
1846	1.8358e+02	-6.4971	5.789253	0.000446	4.458709	1.510651	0.000179
1847	1.8368e+02	-6.4570	5.950738	0.000405	4.053372	1.373319	0.000162
1848	1.8378e+02	-6.4266	6.047629	0.000243	2.432023	0.823992	0.000097
1849	1.8388e+02	-6.3768	6.237375	0.000476	4.762712	1.613650	0.000191
1850	1.8398e+02	-6.3415	6.370600	0.000334	3.344032	1.132989	0.000134
1851	1.8407e+02	-6.3014	6.548234	0.000446	4.458709	1.510651	0.000179
1852	1.8417e+02	-6.2629	6.701645	0.000385	3.850703	1.304654	0.000154
1853	1.8427e+02	-6.2164	6.887354	0.000466	4.661377	1.579317	0.000187
1854	1.8437e+02	-6.1795	6.992319	0.000263	2.634692	0.892658	0.000105
1855	1.8447e+02	-6.1378	7.190139	0.000497	4.965380	1.682316	0.000199
1856	1.8457e+02	-6.0897	7.343550	0.000385	3.850703	1.304654	0.000154
1857	1.8467e+02	-6.0528	7.533295	0.000476	4.762712	1.613650	0.000191
1858	1.8477e+02	-6.0207	7.674595	0.000355	3.546700	1.201655	0.000142
1859	1.8487e+02	-5.9774	7.836080	0.000405	4.053372	1.373319	0.000162
1860	1.8497e+02	-5.9405	8.029863	0.000486	4.864046	1.647983	0.000195
1861	1.8507e+02	-5.9052	8.191348	0.000405	4.053372	1.373319	0.000162
1862	1.8517e+02	-5.8619	8.316500	0.000314	3.141363	1.064323	0.000126
1863	1.8527e+02	-5.8266	8.510282	0.000486	4.864046	1.647983	0.000195
1864	1.8537e+02	-5.7768	8.663693	0.000385	3.850703	1.304654	0.000154
1865	1.8547e+02	-5.7432	8.817104	0.000385	3.850703	1.304654	0.000154
1866	1.8557e+02	-5.6998	8.990701	0.000436	4.357374	1.476318	0.000174
1867	1.8567e+02	-5.6645	9.140075	0.000375	3.749369	1.270321	0.000150
1868	1.8577e+02	-5.6148	9.313672	0.000436	4.357374	1.476318	0.000174
1869	1.8587e+02	-5.5779	9.503418	0.000476	4.762712	1.613650	0.000191
1870	1.8597e+02	-5.5426	9.652792	0.000375	3.749369	1.270321	0.000150
1871	1.8606e+02	-5.4961	9.834463	0.000456	4.560043	1.544984	0.000183
1872	1.8616e+02	-5.4608	9.983837	0.000375	3.749369	1.270321	0.000150
1873	1.8626e+02	-5.4175	10.141285	0.000395	3.952037	1.338986	0.000158
1874	1.8636e+02	-5.3886	10.286622	0.000365	3.648034	1.235988	0.000146
1875	1.8646e+02	-5.3501	10.504627	0.000547	5.472052	1.853981	0.000219
1876	1.8656e+02	-5.2908	10.637853	0.000334	3.344032	1.132989	0.000134
1877	1.8666e+02	-5.2635	10.843747	0.000517	5.168049	1.750982	0.000207
1878	1.8676e+02	-5.2234	11.005232	0.000405	4.053372	1.373319	0.000162
1879	1.8686e+02	-5.1865	11.158643	0.000385	3.850703	1.304654	0.000154
1880	1.8696e+02	-5.1480	11.312054	0.000385	3.850703	1.304654	0.000154
1881	1.8706e+02	-5.1079	11.477577	0.000415	4.154706	1.407652	0.000166
1882	1.8716e+02	-5.0662	11.679434	0.000507	5.066715	1.716649	0.000203
1883	1.8726e+02	-5.0245	11.824771	0.000365	3.648034	1.235988	0.000146
1884	1.8736e+02	-4.9779	12.006442	0.000456	4.560043	1.544984	0.000183
1885	1.8746e+02	-4.9426	12.171964	0.000415	4.154706	1.407652	0.000166
1886	1.8756e+02	-4.9025	12.337487	0.000415	4.154706	1.407652	0.000166
1887	1.8766e+02	-4.8608	12.515121	0.000446	4.458709	1.510651	0.000179
1888	1.8776e+02	-4.8159	12.668532	0.000385	3.850703	1.304654	0.000154
1889	1.8786e+02	-4.7806	12.866352	0.000497	4.965380	1.682316	0.000199
1890	1.8796e+02	-4.7421	13.039948	0.000436	4.357374	1.476318	0.000174
1891	1.8806e+02	-4.6988	13.241805	0.000507	5.066715	1.716649	0.000203
1892	1.8815e+02	-4.6571	13.387142	0.000365	3.648034	1.235988	0.000146
1893	1.8825e+02	-4.6266	13.576887	0.000476	4.762712	1.613650	0.000191
1894	1.8835e+02	-4.5865	13.746447	0.000426	4.256040	1.441985	0.000170
1895	1.8845e+02	-4.5464	13.916007	0.000426	4.256040	1.441985	0.000170
1896	1.8855e+02	-4.5015	14.097678	0.000456	4.560043	1.544984	0.000183
1897	1.8865e+02	-4.4678	14.295498	0.000497	4.965380	1.682316	0.000199
1898	1.8875e+02	-4.4277	14.456983	0.000405	4.053372	1.373319	0.000162
1899	1.8885e+02	-4.3828	14.666914	0.000527	5.269383	1.785315	0.000211
1900	1.8895e+02	-4.3491	14.796102	0.000324	3.242697	1.098656	0.000130
1901	1.8905e+02	-4.3090	14.981811	0.000466	4.661377	1.579317	0.000187
1902	1.8915e+02	-4.2624	15.163482	0.000456	4.560043	1.544984	0.000183
1903	1.8925e+02	-4.2191	15.377450	0.000537	5.370717	1.819648	0.000215
1904	1.8935e+02	-4.1854	15.530861	0.000385	3.850703	1.304654	0.000154
1905	1.8945e+02	-4.1469	15.704458	0.000436	4.357374	1.476318	0.000174
1906	1.8955e+02	-4.1116	15.898241	0.000486	4.864046	1.647983	0.000195
1907	1.8965e+02	-4.0635	16.063763	0.000415	4.154706	1.407652	0.000166
1908	1.8975e+02	-4.0282	16.241397	0.000446	4.458709	1.510651	0.000179
1909	1.8985e+02	-3.9929	16.459402	0.000547	5.472052	1.853981	0.000219
1910	1.8995e+02	-3.9432	16.632999	0.000436	4.357374	1.476318	0.000174
1911	1.9004e+02	-3.9063	16.826782	0.000486	4.864046	1.647983	0.000195
1912	1.9014e+02	-3.8598	17.012490	0.000466	4.661377	1.579317	0.000187
1913	1.9024e+02	-3.8261	17.186087	0.000436	4.357374	1.476318	0.000174
1914	1.9034e+02	-3.7796	17.379869	0.000486	4.864046	1.647983	0.000195
1915	1.9044e+02	-3.7459	17.589800	0.000527	5.269383	1.785315	0.000211
1916	1.9054e+02	-3.6929	17.763397	0.000436	4.357374	1.476318	0.000174
1917	1.9064e+02	-3.6560	17.941031	0.000446	4.458709	1.510651	0.000179
1918	1.9074e+02	-3.6272	18.134814	0.000486	4.864046	1.647983	0.000195
1919	1.9084e+02	-3.5871	18.320522	0.000466	4.661377	1.579317	0.000187
1920	1.9094e+02	-3.5470	18.542564	0.000557	5.573386	1.888314	0.000223
1921	1.9104e+02	-3.5085	18.728273	0.000466	4.661377	1.579317	0.000187
1922	1.9114e+02	-3.4651	18.889758	0.000405	4.053372	1.373319	0.000162
1923	1.9124e+02	-3.4347	19.083541	0.000486	4.864046	1.647983	0.000195
1924	1.9134e+02	-3.3881	19.289435	0.000517	5.168049	1.750982	0.000207
1925	1.9144e+02	-3.3545	19.463031	0.000436	4.357374	1.476318	0.000174
1926	1.9154e+02	-3.3063	19.656814	0.000486	4.864046	1.647983	0.000195
1927	1.9164e+02	-3.2742	19.846559	0.000476	4.762712	1.613650	0.000191
1928	1.9174e+02	-3.2325	20.088787	0.000608	6.080057	2.059979	0.000243
1929	1.9184e+02	-3.1844	20.274496	0.000466	4.661377	1.579317	0.000187
1930	1.9194e+02	-3.1459	20.460204	0.000466	4.661377	1.579317	0.000187
1931	1.9203e+02	-3.1090	20.662061	0.000507	5.066715	1.716649	0.000203
1932	1.9213e+02	-3.0673	20.839695	0.000446	4.458709	1.510651	0.000179
1933	1.9223e+02	-3.0352	21.053663	0.000537	5.370717	1.819648	0.000215
1934	1.9233e+02	-2.9871	21.275705	0.000557	5.573386	1.888314	0.000223
1935	1.9243e+02	-2.9534	21.473525	0.000497	4.965380	1.682316	0.000199
1936	1.9253e+02	-2.9069	21.647122	0.000436	4.357374	1.476318	0.000174
1937	1.9263e+02	-2.8700	21.893387	0.000618	6.181392	2.094312	0.000248
1938	1.9273e+02	-2.8234	22.054873	0.000405	4.053372	1.373319	0.000162
1939	1.9283e+02	-2.7962	22.280952	0.000567	5.674720	1.922647	0.000227
1940	1.9293e+02	-2.7529	22.523180	0.000608	6.080057	2.059979	0.000243
1941	1.9303e+02	-2.7144	22.708889	0.000466	4.661377	1.579317	0.000187
1942	1.9313e+02	-2.6646	22.906708	0.000497	4.965380	1.682316	0.000199
1943	1.9323e+02	-2.6358	23.104528	0.000497	4.965380	1.682316	0.000199
1944	1.9333e+02	-2.5860	23.290236	0.000466	4.661377	1.579317	0.000187
1945	1.9343e+02	-2.5507	23.528427	0.000598	5.978723	2.025646	0.000239
1946	1.9353e+02	-2.5170	23.710098	0.000456	4.560043	1.544984	0.000183
1947	1.9363e+02	-2.4689	23.944252	0.000588	5.877389	1.991313	0.000235
1948	1.9373e+02	-2.4368	24.178406	0.000588	5.877389	1.991313	0.000235
1949	1.9383e+02	-2.3855	24.368151	0.000476	4.762712	1.613650	0.000191
1950	1.9393e+02	-2.3518	24.561934	0.000486	4.864046	1.647983	0.000195
1951	1.9403e+02	-2.3117	24.804162	0.000608	6.080057	2.059979	0.000243
1952	1.9412e+02	-2.2716	25.010056	0.000517	5.168049	1.750982	0.000207
1953	1.9422e+02	-2.2347	25.219987	0.000527	5.269383	1.785315	0.000211
1954	1.9432e+02	-2.2010	25.417807	0.000497	4.965380	1.682316	0.000199
1955	1.9442e+02	-2.1513	25.676183	0.000649	6.485395	2.197311	0.000260
1956	1.9452e+02	-2.1176	25.890151	0.000537	5.370717	1.819648	0.000215
1957	1.9462e+02	-2.0743	26.104120	0.000537	5.370717	1.819648	0.000215
1958	1.9472e+02	-2.0278	26.305976	0.000507	5.066715	1.716649	0.000203
1959	1.9482e+02	-1.9941	26.564353	0.000649	6.485395	2.197311	0.000260
1960	1.9492e+02	-1.9588	26.754099	0.000476	4.762712	1.613650	0.000191
1961	1.9502e+02	-1.9155	27.000364	0.000618	6.181392	2.094312	0.000248
1962	1.9512e+02	-1.8866	27.202221	0.000507	5.066715	1.716649	0.000203
1963	1.9522e+02	-1.8336	27.440412	0.000598	5.978723	2.025646	0.000239
1964	1.9532e+02	-1.7903	27.670528	0.000578	5.776055	1.956980	0.000231
1965	1.9542e+02	-1.7518	27.876422	0.000517	5.168049	1.750982	0.000207
1966	1.9552e+02	-1.7165	28.098465	0.000557	5.573386	1.888314	0.000223
1967	1.9562e+02	-1.6796	28.316470	0.000547	5.472052	1.853981	0.000219
1968	1.9572e+02	-1.6331	28.542550	0.000567	5.674720	1.922647	0.000227
1969	1.9582e+02	-1.5866	28.796889	0.000638	6.384060	2.162978	0.000256
1970	1.9592e+02	-1.5609	29.051229	0.000638	6.384060	2.162978	0.000256
1971	1.9601e+02	-1.5176	29.261160	0.000527	5.269383	1.785315	0.000211
1972	1.9611e+02	-1.4791	29.515499	0.000638	6.384060	2.162978	0.000256
1973	1.9621e+02	-1.4406	29.701208	0.000466	4.661377	1.579317	0.000187
1974	1.9631e+02	-1.3973	29.971696	0.000679	6.789397	2.300310	0.000272
1975	1.9641e+02	-1.3588	30.209887	0.000598	5.978723	2.025646	0.000239
1976	1.9651e+02	-1.3171	30.435966	0.000567	5.674720	1.922647	0.000227
1977	1.9661e+02	-1.2850	30.678194	0.000608	6.080057	2.059979	0.000243
1978	1.9671e+02	-1.2321	30.920423	0.000608	6.080057	2.059979	0.000243
1979	1.9681e+02	-1.1952	31.158614	0.000598	5.978723	2.025646	0.000239
1980	1.9691e+02	-1.1567	31.388730	0.000578	5.776055	1.956980	0.000231
1981	1.9701e+02	-1.1182	31.606736	0.000547	5.472052	1.853981	0.000219
1982	1.9711e+02	-1.0813	31.869150	0.000659	6.586729	2.231644	0.000264
1983	1.9721e+02	-1.0331	32.066969	0.000497	4.965380	1.682316	0.000199
1984	1.9731e+02	-0.9930	32.337457	0.000679	6.789397	2.300310	0.000272
1985	1.9741e+02	-0.9593	32.579685	0.000608	6.080057	2.059979	0.000243
1986	1.9751e+02	-0.9160	32.809802	0.000578	5.776055	1.956980	0.000231
1987	1.9761e+02	-0.8791	33.072216	0.000659	6.586729	2.231644	0.000264
1988	1.9771e+02	-0.8374	33.274073	0.000507	5.066715	1.716649	0.000203
1989	1.9781e+02	-0.8133	33.580895	0.000770	7.701406	2.609307	0.000308
1990	1.9791e+02	-0.7492	33.802938	0.000557	5.573386	1.888314	0.000223
1991	1.9800e+02	-0.7091	34.061314	0.000649	6.485395	2.197311	0.000260
1992	1.9810e+02	-0.6770	34.291431	0.000578	5.776055	1.956980	0.000231
1993	1.9820e+02	-0.6401	34.553845	0.000659	6.586729	2.231644	0.000264
1994	1.9830e+02	-0.5968	34.771850	0.000547	5.472052	1.853981	0.000219
1995	1.9840e+02	-0.5663	35.014078	0.000608	6.080057	2.059979	0.000243
1996	1.9850e+02	-0.5198	35.276492	0.000659	6.586729	2.231644	0.000264
1997	1.9860e+02	-0.4781	35.522757	0.000618	6.181392	2.094312	0.000248
1998	1.9870e+02	-0.4380	35.789208	0.000669	6.688063	2.265977	0.000268
1999	1.9880e+02	-0.4027	36.019325	0.000578	5.776055	1.956980	0.000231
2000	1.9890e+02	-0.3642	36.289813	0.000679	6.789397	2.300310	0.000272
2001	1.9900e+02	-0.3241	36.544153	0.000638	6.384060	2.162978	0.000256
2002	1.9910e+02	-0.2775	36.774269	0.000578	5.776055	1.956980	0.000231
2003	1.9920e+02	-0.2342	37.068980	0.000740	7.397403	2.506308	0.000296
2004	1.9930e+02	-0.2037	37.307171	0.000598	5.978723	2.025646	0.000239
2005	1.9940e+02	-0.1556	37.609957	0.000760	7.600072	2.574974	0.000304
2006	1.9950e+02	-0.1155	37.815850	0.000517	5.168049	1.750982	0.000207
2007	1.9960e+02	-0.0802	38.082301	0.000669	6.688063	2.265977	0.000268
2008	1.9970e+02	-0.0497	38.340678	0.000649	6.485395	2.197311	0.000260
2009	1.9980e+02	0.0016	38.611166	0.000649	6.485395	2.197311	0.000272

Center data before PMax,+/-Pr and +/-Vc Calc.

PMax (uC/cm2):	2.98e+01
Pr (uC/cm2):	5.58e+01
-Pr (uC/cm2):	3.86e+01
PLoss (uC/cm2):	1.48e+02
Vc:	1.85e+01
-Vc:	-1.12e+01
C (Max-Eff) (nF):	1.49e-01
K (Eff):	5.04e+02
Vert. (+/-Pr) Shift (uC/cm2):	4.72e+01
Horiz. Shift (+/-Vc):	3.69e+00
Offset (uC/cm2):	1.09e+02

A (Loop Area - uC/cm2·Volts):	-5.47e+00



Hysteresis Version: 5.48.1 - Radiant Technologies, Inc., 1999 - 9/12/24

