»»»»»»»»»»»»»»»»»»»»»»»»»»»»»»»»»»»» Hysteresis ««««««««««««««««««««««««««««««««««««
»»»  Executed Version:	5.48.1
»»»  Vision Version:	5.48.4 (R)
»»»  Vision Compiled:	9/18/24
»»»  Driver Version:	5.47.0
»»»  Windows Version:	Windows 8 or 8.1
»»»  Processor Information:	x86 (AMD or Intel) - 32 Processors
»»»  Tester Name:	PMF21124-494 (100V)
»»»  Tester S/N:	PMF21124-494
»»»  Internal Amp Type:	100V RevK 270k
»»»  Internal Amp S/N:	iAB2-596/K     
»»»  Execution Count:	1
»»»»»»»»»»»»»»»»»»»»»»»»»»»»»»»»»»»»»»»»»»««««««««««««««««««««««««««««««««««««««««««

Stored:	6/11/2025 - 14:2:38
Configured:	06/11/25 01:55:56 PM
Executed:	06/11/25 02:02:03 PM

»»»»»»»»»»»»»»»»»»»»»»»»»»»»»»»»»»» Sample Info ««««««««««««««««««««««««««««««««««««
Sample Name:	
Lot Name:	
Wafer Name:	
Die Row/Column:	0/0
Capacitor Number:	0
Sample Area (cm2):	1.00e-04
Sample Thickness (microns):	3.00e-01

Amplifier:	Internal

»»»»»»»»»»»»»»»»»»»»»»»»»»»»»»»»»»» Tester Info «««««««««««««««««««««««««««««««««««
Tester Name:	PMF21124-494 (100V)
Tester Serial Number:	PMF21124-494
Return Signal Amp. Level:	1.79 [Index: 2]

»»»»»»»»»»»»»»»»»»»»»»»»»»»»»»»» Hysteresis Info ««««««««««««««««««««««««««««««««««
Task Name:	Hyst-1287
Volts:	20.00
Field:	666.67 (kV/cm)
DCBias:	0.00
DCField:	0.00 (kV/cm)
Hysteresis Period (ms):	1.00e+00
Preset:	Enabled
Preset Delay (ms):	1.00e+03
Profile:	Standard Bipolar

»»»»»»»»»»»»»»»»»»»»»»»»»»»»»»»»»»»»»» Data «««««««««««««««««««««««««««««««««««««««
Points:	2001

Valid Data

Point	Time (ms)	Drive Voltage	Measured Polarization (uC/cm2)	Capacitance (uF)	Normalized Capacitance (uF/cm2)	Dielectric Constant	Instantaneous Current (mA)
   1	0.0000e+00	0.0209	-1.101777	0.000299	2.993971	1.014385	0.024204
   2	5.0000e-04	0.0353	-0.980759	0.000299	2.993971	1.014385	0.024204
   3	1.0000e-03	0.0914	-1.021383	-0.000101	-1.005043	-0.340518	-0.008125
   4	1.5000e-03	0.1444	-0.891813	0.000321	3.205559	1.086073	0.025914
   5	2.0000e-03	0.1588	-0.806287	0.000212	2.115881	0.716880	0.017105
   6	2.5000e-03	0.2166	-0.718624	0.000217	2.168778	0.734802	0.017533
   7	3.0000e-03	0.2695	-0.677572	0.000102	1.015623	0.344102	0.008210
   8	3.5000e-03	0.2888	-0.519779	0.000390	3.903800	1.322643	0.031559
   9	4.0000e-03	0.3545	-0.482575	0.000092	0.920408	0.311843	0.007441
  10	4.5000e-03	0.3642	-0.367116	0.000286	2.856439	0.967788	0.023092
  11	5.0000e-03	0.4396	-0.296558	0.000175	1.745601	0.591426	0.014112
  12	5.5000e-03	0.4540	-0.207184	0.000221	2.211095	0.749139	0.017875
  13	6.0000e-03	0.4877	-0.110114	0.000240	2.401524	0.813659	0.019414
  14	6.5000e-03	0.5374	-0.005773	0.000258	2.581374	0.874593	0.020868
  15	7.0000e-03	0.5952	0.061792	0.000167	1.671546	0.566335	0.013513
  16	7.5000e-03	0.6048	0.154587	0.000230	2.295730	0.777815	0.018559
  17	8.0000e-03	0.6609	0.236263	0.000202	2.020666	0.684620	0.016335
  18	8.5000e-03	0.7155	0.288006	0.000128	1.280108	0.433712	0.010349
  19	9.0000e-03	0.7652	0.333762	0.000113	1.131996	0.383531	0.009151
  20	9.5000e-03	0.7700	0.522772	0.000468	4.676096	1.584304	0.037802
  21	1.0000e-02	0.8326	0.595896	0.000181	1.809078	0.612932	0.014625
  22	1.0500e-02	0.8567	0.679283	0.000206	2.062984	0.698958	0.016677
  23	1.1000e-02	0.8807	0.791321	0.000277	2.771804	0.939112	0.022408
  24	1.1500e-02	0.9208	0.884971	0.000232	2.316889	0.784983	0.018730
  25	1.2000e-02	0.9802	0.949970	0.000161	1.608069	0.544829	0.013000
  26	1.2500e-02	1.0042	1.053455	0.000256	2.560216	0.867425	0.020697
  27	1.3000e-02	1.0588	1.128717	0.000186	1.861975	0.630854	0.015052
  28	1.3500e-02	1.0989	1.239472	0.000274	2.740065	0.928359	0.022151
  29	1.4000e-02	1.1599	1.279241	0.000098	0.983884	0.333349	0.007954
  30	1.4500e-02	1.1855	1.340819	0.000152	1.523434	0.516153	0.012316
  31	1.5000e-02	1.2176	1.486212	0.000360	3.596997	1.218696	0.029079
  32	1.5500e-02	1.2593	1.563612	0.000191	1.914872	0.648776	0.015480
  33	1.6000e-02	1.3058	1.632887	0.000171	1.713863	0.580673	0.013855
  34	1.6500e-02	1.3427	1.745353	0.000278	2.782383	0.942697	0.022493
  35	1.7000e-02	1.3957	1.803082	0.000143	1.428219	0.483894	0.011546
  36	1.7500e-02	1.4422	1.912554	0.000271	2.708327	0.917606	0.021894
  37	1.8000e-02	1.4759	1.992520	0.000198	1.978348	0.670283	0.015993
  38	1.8500e-02	1.4871	2.112683	0.000297	2.972812	1.007216	0.024033
  39	1.9000e-02	1.5176	2.233273	0.000298	2.983392	1.010800	0.024118
  40	1.9500e-02	1.5882	2.288437	0.000136	1.364743	0.462387	0.011033
  41	2.0000e-02	1.6171	2.341035	0.000130	1.301267	0.440881	0.010520
  42	2.0500e-02	1.6427	2.445375	0.000258	2.581374	0.874593	0.020868
  43	2.1000e-02	1.7037	2.548005	0.000254	2.539057	0.860256	0.020526
  44	2.1500e-02	1.7518	2.607017	0.000146	1.459958	0.494647	0.011802
  45	2.2000e-02	1.7743	2.691260	0.000208	2.084142	0.706127	0.016848
  46	2.2500e-02	1.8176	2.822541	0.000325	3.247877	1.100410	0.026256
  47	2.3000e-02	1.8946	2.855895	0.000083	0.825193	0.279583	0.006671
  48	2.3500e-02	1.9219	2.944414	0.000219	2.189936	0.741971	0.017704
  49	2.4000e-02	1.9572	3.038919	0.000234	2.338048	0.792152	0.018901
  50	2.4500e-02	1.9668	3.158226	0.000295	2.951653	1.000047	0.023861
  51	2.5000e-02	2.0165	3.221087	0.000156	1.555172	0.526907	0.012572
  52	2.5500e-02	2.0438	3.342533	0.000300	3.004550	1.017969	0.024289
  53	2.6000e-02	2.1015	3.372894	0.000075	0.751138	0.254492	0.006072
  54	2.6500e-02	2.1769	3.422499	0.000123	1.227211	0.415790	0.009921
  55	2.7000e-02	2.1785	3.549076	0.000313	3.131503	1.060982	0.025315
  56	2.7500e-02	2.2203	3.658120	0.000270	2.697748	0.914022	0.021809
  57	2.8000e-02	2.2860	3.674798	0.000041	0.412597	0.139792	0.003335
  58	2.8500e-02	2.3005	3.782132	0.000266	2.655430	0.899684	0.021467
  59	2.9000e-02	2.3422	3.924103	0.000351	3.512362	1.190020	0.028394
  60	2.9500e-02	2.3999	3.977984	0.000133	1.333005	0.451634	0.010776
  61	3.0000e-02	2.4192	4.093871	0.000287	2.867018	0.971372	0.023177
  62	3.0500e-02	2.4753	4.185810	0.000227	2.274572	0.770646	0.018388
  63	3.1000e-02	2.5106	4.227290	0.000103	1.026202	0.347687	0.008296
  64	3.1500e-02	2.5299	4.344887	0.000291	2.909336	0.985710	0.023519
  65	3.2000e-02	2.5989	4.353439	0.000021	0.211588	0.071688	0.001711
  66	3.2500e-02	2.6101	4.467615	0.000282	2.824701	0.957034	0.022835
  67	3.3000e-02	2.6598	4.607021	0.000345	3.448885	1.168514	0.027881
  68	3.3500e-02	2.7079	4.619422	0.000031	0.306803	0.103948	0.002480
  69	3.4000e-02	2.7192	4.722052	0.000254	2.539057	0.860256	0.020526
  70	3.4500e-02	2.7882	4.833235	0.000275	2.750645	0.931944	0.022237
  71	3.5000e-02	2.8379	4.849484	0.000040	0.402017	0.136207	0.003250
  72	3.5500e-02	2.8652	4.961095	0.000276	2.761224	0.935528	0.022322
  73	3.6000e-02	2.9149	5.026094	0.000161	1.608069	0.544829	0.013000
  74	3.6500e-02	2.9390	5.117605	0.000226	2.263992	0.767061	0.018302
  75	3.7000e-02	2.9759	5.239051	0.000300	3.004550	1.017969	0.024289
  76	3.7500e-02	3.0095	5.277965	0.000096	0.962726	0.326180	0.007783
  77	3.8000e-02	3.0480	5.414805	0.000339	3.385409	1.147008	0.027368
  78	3.8500e-02	3.1074	5.445594	0.000076	0.761717	0.258077	0.006158
  79	3.9000e-02	3.1315	5.554639	0.000270	2.697748	0.914022	0.021809
  80	3.9500e-02	3.1732	5.652992	0.000243	2.433263	0.824412	0.019671
  81	4.0000e-02	3.2197	5.706018	0.000131	1.311846	0.444465	0.010605
  82	4.0500e-02	3.2309	5.850128	0.000357	3.565259	1.207942	0.028822
  83	4.1000e-02	3.3047	5.858252	0.000020	0.201009	0.068104	0.001625
  84	4.1500e-02	3.3464	5.902298	0.000109	1.089679	0.369193	0.008809
  85	4.2000e-02	3.4026	5.985685	0.000206	2.062984	0.698958	0.016677
  86	4.2500e-02	3.4379	6.061802	0.000188	1.883134	0.638023	0.015223
  87	4.3000e-02	3.4523	6.174268	0.000278	2.782383	0.942697	0.022493
  88	4.3500e-02	3.4780	6.294858	0.000298	2.983392	1.010800	0.024118
  89	4.4000e-02	3.5341	6.361140	0.000164	1.639807	0.555582	0.013256
  90	4.4500e-02	3.5951	6.404330	0.000107	1.068520	0.362024	0.008638
  91	4.5000e-02	3.6111	6.484723	0.000199	1.988928	0.673867	0.016079
  92	4.5500e-02	3.6657	6.580512	0.000237	2.369786	0.802905	0.019158
  93	4.6000e-02	3.6962	6.636530	0.000139	1.385902	0.469556	0.011204
  94	4.6500e-02	3.7330	6.728470	0.000227	2.274572	0.770646	0.018388
  95	4.7000e-02	3.7507	6.857185	0.000318	3.184400	1.078904	0.025743
  96	4.7500e-02	3.8470	6.846067	-0.000028	-0.275064	-0.093194	-0.002224
  97	4.8000e-02	3.8774	6.953401	0.000266	2.655430	0.899684	0.021467
  98	4.8500e-02	3.9047	7.014124	0.000150	1.502275	0.508985	0.012145
  99	4.9000e-02	3.9512	7.096655	0.000204	2.041825	0.691789	0.016506
 100	4.9500e-02	3.9737	7.197147	0.000249	2.486160	0.842334	0.020098
 101	5.0000e-02	4.0010	7.295501	0.000243	2.433263	0.824412	0.019671
 102	5.0500e-02	4.0475	7.363921	0.000169	1.692704	0.573504	0.013684
 103	5.1000e-02	4.1293	7.387868	0.000059	0.592447	0.200726	0.004789
 104	5.1500e-02	4.1453	7.437045	0.000122	1.216631	0.412206	0.009835
 105	5.2000e-02	4.1999	7.556780	0.000296	2.962233	1.003632	0.023947
 106	5.2500e-02	4.2272	7.659838	0.000255	2.549636	0.863840	0.020612
 107	5.3000e-02	4.2608	7.721416	0.000152	1.523434	0.516153	0.012316
 108	5.3500e-02	4.3138	7.797105	0.000187	1.872554	0.634439	0.015138
 109	5.4000e-02	4.3459	7.861249	0.000159	1.586910	0.537660	0.012829
 110	5.4500e-02	4.3828	7.965162	0.000257	2.570795	0.871009	0.020783
 111	5.5000e-02	4.4421	8.003648	0.000095	0.952146	0.322596	0.007697
 112	5.5500e-02	4.4357	8.114403	-0.000274	-2.740065	-0.928359	0.022151
 113	5.6000e-02	4.4758	8.274335	0.000396	3.956697	1.340565	0.031986
 114	5.6500e-02	4.5368	8.267921	-0.000016	-0.158691	-0.053766	-0.001283
 115	5.7000e-02	4.6041	8.340190	0.000179	1.787919	0.605763	0.014454
 116	5.7500e-02	4.6282	8.357722	0.000043	0.433756	0.146960	0.003507
 117	5.8000e-02	4.6539	8.453083	0.000236	2.359207	0.799321	0.019072
 118	5.8500e-02	4.7020	8.594199	0.000349	3.491203	1.182852	0.028223
 119	5.9000e-02	4.7373	8.662191	0.000168	1.682125	0.569919	0.013598
 120	5.9500e-02	4.7806	8.709658	0.000117	1.174314	0.397868	0.009493
 121	6.0000e-02	4.8368	8.722059	0.000031	0.306803	0.103948	0.002480
 122	6.0500e-02	4.8592	8.843077	0.000299	2.993971	1.014385	0.024204
 123	6.1000e-02	4.8881	8.915773	0.000180	1.798499	0.609348	0.014539
 124	6.1500e-02	4.9539	9.004292	0.000219	2.189936	0.741971	0.017704
 125	6.2000e-02	4.9811	9.014127	0.000024	0.243326	0.082441	0.001967
 126	6.2500e-02	5.0180	9.134290	0.000297	2.972812	1.007216	0.024033
 127	6.3000e-02	5.0485	9.235637	0.000251	2.507319	0.849503	0.020269
 128	6.3500e-02	5.0999	9.286524	0.000126	1.258949	0.426543	0.010177
 129	6.4000e-02	5.1384	9.324155	0.000093	0.930987	0.315427	0.007526
 130	6.4500e-02	5.2041	9.438759	0.000284	2.835280	0.960619	0.022921
 131	6.5000e-02	5.2202	9.486653	0.000118	1.184893	0.401453	0.009579
 132	6.5500e-02	5.2603	9.535402	0.000121	1.206052	0.408621	0.009750
 133	6.6000e-02	5.3052	9.665400	0.000322	3.216139	1.089657	0.026000
 134	6.6500e-02	5.3212	9.735103	0.000172	1.724443	0.584257	0.013941
 135	6.7000e-02	5.3950	9.746221	0.000028	0.275064	0.093194	0.002224
 136	6.7500e-02	5.4239	9.891186	0.000359	3.586418	1.215111	0.028993
 137	6.8000e-02	5.4688	9.912140	0.000052	0.518391	0.175636	0.004191
 138	6.8500e-02	5.5137	9.993389	0.000201	2.010087	0.681036	0.016250
 139	6.9000e-02	5.5282	10.077203	0.000207	2.073563	0.702542	0.016763
 140	6.9500e-02	5.6052	10.146906	0.000172	1.724443	0.584257	0.013941
 141	7.0000e-02	5.6517	10.139637	-0.000018	-0.179850	-0.060935	-0.001454
 142	7.0500e-02	5.6565	10.280325	0.000348	3.480624	1.179267	0.028138
 143	7.1000e-02	5.7047	10.346180	0.000163	1.629228	0.551997	0.013171
 144	7.1500e-02	5.7367	10.432132	0.000213	2.126460	0.720464	0.017191
 145	7.2000e-02	5.7817	10.475323	0.000107	1.068520	0.362024	0.008638
 146	7.2500e-02	5.8057	10.566834	0.000226	2.263992	0.767061	0.018302
 147	7.3000e-02	5.8619	10.623281	0.000140	1.396481	0.473141	0.011289
 148	7.3500e-02	5.8731	10.723345	0.000248	2.475580	0.838749	0.020013
 149	7.4000e-02	5.9341	10.810153	0.000215	2.147619	0.727633	0.017362
 150	7.4500e-02	6.0095	10.822982	0.000032	0.317382	0.107532	0.002566
 151	7.5000e-02	6.0271	10.871731	0.000121	1.206052	0.408621	0.009750
 152	7.5500e-02	6.0480	11.008999	0.000340	3.395988	1.150592	0.027454
 153	7.6000e-02	6.1041	11.072287	0.000157	1.565752	0.530491	0.012658
 154	7.6500e-02	6.1330	11.131300	0.000146	1.459958	0.494647	0.011802
 155	7.7000e-02	6.2084	11.238206	0.000264	2.644851	0.896100	0.021381
 156	7.7500e-02	6.2100	11.255739	0.000043	0.433756	0.146960	0.003507
 157	7.8000e-02	6.2886	11.335277	0.000197	1.967769	0.666698	0.015908
 158	7.8500e-02	6.3094	11.378895	0.000108	1.079099	0.365609	0.008724
 159	7.9000e-02	6.3720	11.407118	0.000070	0.698241	0.236570	0.005645
 160	7.9500e-02	6.3848	11.506755	0.000247	2.465001	0.835165	0.019927
 161	8.0000e-02	6.4362	11.597411	0.000224	2.242833	0.759893	0.018131
 162	8.0500e-02	6.4586	11.665831	0.000169	1.692704	0.573504	0.013684
 163	8.1000e-02	6.4715	11.794974	0.000319	3.194980	1.082488	0.025829
 164	8.1500e-02	6.5148	11.836454	0.000103	1.026202	0.347687	0.008296
 165	8.2000e-02	6.5998	11.852704	0.000040	0.402017	0.136207	0.003250
 166	8.2500e-02	6.6223	11.914709	0.000153	1.534013	0.519738	0.012401
 167	8.3000e-02	6.6784	11.972439	0.000143	1.428219	0.483894	0.011546
 168	8.3500e-02	6.6977	12.071220	0.000244	2.443842	0.827996	0.019756
 169	8.4000e-02	6.7378	12.146910	0.000187	1.872554	0.634439	0.015138
 170	8.4500e-02	6.7811	12.195231	0.000120	1.195473	0.405037	0.009664
 171	8.5000e-02	6.8372	12.264507	0.000171	1.713863	0.580673	0.013855
 172	8.5500e-02	6.8693	12.320526	0.000139	1.385902	0.469556	0.011204
 173	8.6000e-02	6.9062	12.385525	0.000161	1.608069	0.544829	0.013000
 174	8.6500e-02	6.9768	12.409472	0.000059	0.592447	0.200726	0.004789
 175	8.7000e-02	6.9800	12.504832	0.000236	2.359207	0.799321	0.019072
 176	8.7500e-02	7.0105	12.586936	0.000203	2.031245	0.688205	0.016421
 177	8.8000e-02	7.0346	12.726342	0.000345	3.448885	1.168514	0.027881
 178	8.8500e-02	7.1019	12.701967	-0.000060	-0.603026	-0.204311	-0.004875
 179	8.9000e-02	7.1613	12.782789	0.000200	1.999507	0.677451	0.016164
 180	8.9500e-02	7.1950	12.841373	0.000145	1.449378	0.491063	0.011717
 181	9.0000e-02	7.2415	12.872590	0.000077	0.772296	0.261661	0.006243
 182	9.0500e-02	7.2816	12.964102	0.000226	2.263992	0.767061	0.018302
 183	9.1000e-02	7.3089	13.087258	0.000305	3.046868	1.032307	0.024631
 184	9.1500e-02	7.3458	13.127882	0.000101	1.005043	0.340518	0.008125
 185	9.2000e-02	7.3859	13.184329	0.000140	1.396481	0.473141	0.011289
 186	9.2500e-02	7.4324	13.234788	0.000125	1.248370	0.422959	0.010092
 187	9.3000e-02	7.4725	13.302353	0.000167	1.671546	0.566335	0.013513
 188	9.3500e-02	7.4950	13.357945	0.000138	1.375322	0.465972	0.011118
 189	9.4000e-02	7.5463	13.493074	0.000334	3.343091	1.132670	0.027026
 190	9.4500e-02	7.5800	13.570474	0.000191	1.914872	0.648776	0.015480
 191	9.5000e-02	7.6378	13.582020	0.000029	0.285644	0.096779	0.002309
 192	9.5500e-02	7.6570	13.633335	0.000127	1.269528	0.430128	0.010263
 193	9.6000e-02	7.7164	13.716294	0.000205	2.052404	0.695373	0.016592
 194	9.6500e-02	7.7436	13.745373	0.000072	0.719399	0.243739	0.005816
 195	9.7000e-02	7.7934	13.834747	0.000221	2.211095	0.749139	0.017875
 196	9.7500e-02	7.8030	13.950206	0.000286	2.856439	0.967788	0.023092
 197	9.8000e-02	7.8591	13.986126	0.000089	0.888670	0.301089	0.007184
 198	9.8500e-02	7.9393	14.026750	0.000101	1.005043	0.340518	0.008125
 199	9.9000e-02	7.9345	14.099874	-0.000181	-1.809078	-0.612932	0.014625
 200	9.9500e-02	7.9746	14.188820	0.000220	2.200516	0.745555	0.017789
 201	1.0000e-01	8.0180	14.242701	0.000133	1.333005	0.451634	0.010776
 202	1.0050e-01	8.0629	14.266221	0.000058	0.581867	0.197142	0.004704
 203	1.0100e-01	8.0918	14.393653	0.000315	3.152662	1.068151	0.025486
 204	1.0150e-01	8.1222	14.443685	0.000124	1.237790	0.419375	0.010006
 205	1.0200e-01	8.1880	14.488158	0.000110	1.100258	0.372777	0.008895
 206	1.0250e-01	8.2153	14.553157	0.000161	1.608069	0.544829	0.013000
 207	1.0300e-01	8.2522	14.645524	0.000229	2.285151	0.774230	0.018473
 208	1.0350e-01	8.2923	14.717793	0.000179	1.787919	0.605763	0.014454
 209	1.0400e-01	8.3452	14.742595	0.000061	0.613605	0.207895	0.004960
 210	1.0450e-01	8.4030	14.788351	0.000113	1.131996	0.383531	0.009151
 211	1.0500e-01	8.4110	14.870455	0.000203	2.031245	0.688205	0.016421
 212	1.0550e-01	8.4736	14.904238	0.000084	0.835773	0.283168	0.006756
 213	1.0600e-01	8.5072	14.986769	0.000204	2.041825	0.691789	0.016506
 214	1.0650e-01	8.5457	15.043216	0.000140	1.396481	0.473141	0.011289
 215	1.0700e-01	8.6019	15.103939	0.000150	1.502275	0.508985	0.012145
 216	1.0750e-01	8.6548	15.149267	0.000112	1.121417	0.379946	0.009066
 217	1.0800e-01	8.6532	15.254463	-0.000260	-2.602533	-0.881762	0.021039
 218	1.0850e-01	8.6821	15.310909	0.000140	1.396481	0.473141	0.011289
 219	1.0900e-01	8.7495	15.350251	0.000097	0.973305	0.329765	0.007868
 220	1.0950e-01	8.7864	15.396862	0.000115	1.153155	0.390699	0.009322
 221	1.1000e-01	8.7976	15.526860	0.000322	3.216139	1.089657	0.026000
 222	1.1050e-01	8.8570	15.573899	0.000116	1.163734	0.394284	0.009408
 223	1.1100e-01	8.8907	15.608964	0.000087	0.867511	0.293921	0.007013
 224	1.1150e-01	8.9388	15.694489	0.000212	2.115881	0.716880	0.017105
 225	1.1200e-01	8.9821	15.791132	0.000239	2.390945	0.810074	0.019329
 226	1.1250e-01	9.0238	15.776593	-0.000036	-0.359700	-0.121870	-0.002908
 227	1.1300e-01	9.0495	15.932249	0.000385	3.850903	1.304721	0.031131
 228	1.1350e-01	9.1056	15.948926	0.000041	0.412597	0.139792	0.003335
 229	1.1400e-01	9.1361	15.957051	0.000020	0.201009	0.068104	0.001625
 230	1.1450e-01	9.1730	16.054977	0.000242	2.422683	0.820827	0.019585
 231	1.1500e-01	9.2372	16.124252	0.000171	1.713863	0.580673	0.013855
 232	1.1550e-01	9.2789	16.146061	0.000054	0.539550	0.182804	0.004362
 233	1.1600e-01	9.2933	16.242277	0.000238	2.380366	0.806490	0.019243
 234	1.1650e-01	9.3447	16.296585	0.000134	1.343584	0.455219	0.010862
 235	1.1700e-01	9.3832	16.359019	0.000154	1.544593	0.523322	0.012487
 236	1.1750e-01	9.3960	16.426583	0.000167	1.671546	0.566335	0.013513
 237	1.1800e-01	9.4810	16.471057	0.000110	1.100258	0.372777	0.008895
 238	1.1850e-01	9.4906	16.538621	0.000167	1.671546	0.566335	0.013513
 239	1.1900e-01	9.5420	16.569410	0.000076	0.761717	0.258077	0.006158
 240	1.1950e-01	9.6045	16.626284	0.000141	1.407061	0.476725	0.011375
 241	1.2000e-01	9.6078	16.739605	0.000280	2.803542	0.949866	0.022664
 242	1.2050e-01	9.6880	16.754144	0.000036	0.359700	0.121870	0.002908
 243	1.2100e-01	9.6799	16.821709	-0.000167	-1.671546	-0.566335	0.013513
 244	1.2150e-01	9.7184	16.929898	0.000268	2.676589	0.906853	0.021638
 245	1.2200e-01	9.8051	16.955984	0.000065	0.645344	0.218648	0.005217
 246	1.2250e-01	9.8291	16.980358	0.000060	0.603026	0.204311	0.004875
 247	1.2300e-01	9.8612	17.053910	0.000182	1.819657	0.616517	0.014710
 248	1.2350e-01	9.9142	17.084271	0.000075	0.751138	0.254492	0.006072
 249	1.2400e-01	9.9495	17.204006	0.000296	2.962233	1.003632	0.023947
 250	1.2450e-01	9.9928	17.245058	0.000102	1.015623	0.344102	0.008210
 251	1.2500e-01	10.0216	17.299367	0.000134	1.343584	0.455219	0.010862
 252	1.2550e-01	10.0505	17.393444	0.000233	2.327469	0.788568	0.018816
 253	1.2600e-01	10.1099	17.417391	0.000059	0.592447	0.200726	0.004789
 254	1.2650e-01	10.1083	17.502489	-0.000211	-2.105301	-0.713295	0.017019
 255	1.2700e-01	10.1869	17.548245	0.000113	1.131996	0.383531	0.009151
 256	1.2750e-01	10.2286	17.605974	0.000143	1.428219	0.483894	0.011546
 257	1.2800e-01	10.2767	17.649164	0.000107	1.068520	0.362024	0.008638
 258	1.2850e-01	10.3072	17.681664	0.000080	0.804035	0.272414	0.006500
 259	1.2900e-01	10.3281	17.798405	0.000289	2.888177	0.978541	0.023348
 260	1.2950e-01	10.3762	17.842878	0.000110	1.100258	0.372777	0.008895
 261	1.3000e-01	10.4179	17.905739	0.000156	1.555172	0.526907	0.012572
 262	1.3050e-01	10.4516	17.945081	0.000097	0.973305	0.329765	0.007868
 263	1.3100e-01	10.5238	18.019488	0.000184	1.840816	0.623685	0.014881
 264	1.3150e-01	10.5575	18.084914	0.000162	1.618649	0.548413	0.013085
 265	1.3200e-01	10.5815	18.137085	0.000129	1.290687	0.437297	0.010434
 266	1.3250e-01	10.6184	18.211491	0.000184	1.840816	0.623685	0.014881
 267	1.3300e-01	10.6922	18.249122	0.000093	0.930987	0.315427	0.007526
 268	1.3350e-01	10.7163	18.281622	0.000080	0.804035	0.272414	0.006500
 269	1.3400e-01	10.7564	18.362015	0.000199	1.988928	0.673867	0.016079
 270	1.3450e-01	10.7756	18.413331	0.000127	1.269528	0.430128	0.010263
 271	1.3500e-01	10.8109	18.492441	0.000196	1.957190	0.663114	0.015822
 272	1.3550e-01	10.8735	18.526224	0.000084	0.835773	0.283168	0.006756
 273	1.3600e-01	10.9248	18.568558	0.000105	1.047361	0.354855	0.008467
 274	1.3650e-01	10.9569	18.631419	0.000156	1.555172	0.526907	0.012572
 275	1.3700e-01	10.9826	18.699839	0.000169	1.692704	0.573504	0.013684
 276	1.3750e-01	11.0243	18.790068	0.000223	2.232254	0.756308	0.018046
 277	1.3800e-01	11.0788	18.798621	0.000021	0.211588	0.071688	0.001711
 278	1.3850e-01	11.1366	18.838818	0.000099	0.994464	0.336933	0.008039
 279	1.3900e-01	11.1350	18.961546	-0.000304	-3.036289	-1.028722	0.024546
 280	1.3950e-01	11.1927	18.983355	0.000054	0.539550	0.182804	0.004362
 281	1.4000e-01	11.2152	19.047499	0.000159	1.586910	0.537660	0.012829
 282	1.4050e-01	11.2633	19.101380	0.000133	1.333005	0.451634	0.010776
 283	1.4100e-01	11.3082	19.172793	0.000177	1.766760	0.598595	0.014283
 284	1.4150e-01	11.3179	19.261311	0.000219	2.189936	0.741971	0.017704
 285	1.4200e-01	11.3740	19.283120	0.000054	0.539550	0.182804	0.004362
 286	1.4250e-01	11.4318	19.385323	0.000253	2.528477	0.856671	0.020440
 287	1.4300e-01	11.4703	19.370356	-0.000037	-0.370279	-0.125454	-0.002993
 288	1.4350e-01	11.4831	19.481111	0.000274	2.740065	0.928359	0.022151
 289	1.4400e-01	11.5280	19.538840	0.000143	1.428219	0.483894	0.011546
 290	1.4450e-01	11.5745	19.584596	0.000113	1.131996	0.383531	0.009151
 291	1.4500e-01	11.6195	19.643181	0.000145	1.449378	0.491063	0.011717
 292	1.4550e-01	11.6692	19.743673	0.000249	2.486160	0.842334	0.020098
 293	1.4600e-01	11.7141	19.706469	-0.000092	-0.920408	-0.311843	-0.007441
 294	1.4650e-01	11.7574	19.790284	0.000207	2.073563	0.702542	0.016763
 295	1.4700e-01	11.7959	19.803968	0.000034	0.338541	0.114701	0.002737
 296	1.4750e-01	11.8312	19.894197	0.000223	2.232254	0.756308	0.018046
 297	1.4800e-01	11.8633	19.949788	0.000138	1.375322	0.465972	0.011118
 298	1.4850e-01	11.9114	20.008800	0.000146	1.459958	0.494647	0.011802
 299	1.4900e-01	11.9419	20.070806	0.000153	1.534013	0.519738	0.012401
 300	1.4950e-01	11.9772	20.193107	0.000303	3.025709	1.025138	0.024460
 301	1.5000e-01	12.0317	20.184982	-0.000020	-0.201009	-0.068104	-0.001625
 302	1.5050e-01	12.0702	20.224324	0.000097	0.973305	0.329765	0.007868
 303	1.5100e-01	12.1232	20.300441	0.000188	1.883134	0.638023	0.015223
 304	1.5150e-01	12.1328	20.344486	0.000109	1.089679	0.369193	0.008809
 305	1.5200e-01	12.1809	20.409058	0.000160	1.597490	0.541244	0.012914
 306	1.5250e-01	12.2371	20.457807	0.000121	1.206052	0.408621	0.009750
 307	1.5300e-01	12.2467	20.521095	0.000157	1.565752	0.530491	0.012658
 308	1.5350e-01	12.3125	20.539056	0.000044	0.444335	0.150545	0.003592
 309	1.5400e-01	12.3269	20.620305	0.000201	2.010087	0.681036	0.016250
 310	1.5450e-01	12.3718	20.678034	0.000143	1.428219	0.483894	0.011546
 311	1.5500e-01	12.4200	20.758000	0.000198	1.978348	0.670283	0.015993
 312	1.5550e-01	12.4761	20.781092	0.000057	0.571288	0.193558	0.004618
 313	1.5600e-01	12.5034	20.803328	0.000055	0.550129	0.186389	0.004447
 314	1.5650e-01	12.5194	20.911090	0.000267	2.666010	0.903268	0.021552
 315	1.5700e-01	12.5595	20.986352	0.000186	1.861975	0.630854	0.015052
 316	1.5750e-01	12.6269	21.022700	0.000090	0.899249	0.304674	0.007270
 317	1.5800e-01	12.6510	21.047075	0.000060	0.603026	0.204311	0.004875
 318	1.5850e-01	12.6831	21.142863	0.000237	2.369786	0.802905	0.019158
 319	1.5900e-01	12.7392	21.218125	0.000186	1.861975	0.630854	0.015052
 320	1.5950e-01	12.7922	21.211283	-0.000017	-0.169270	-0.057350	-0.001368
 321	1.6000e-01	12.8194	21.284834	0.000182	1.819657	0.616517	0.014710
 322	1.6050e-01	12.8659	21.363090	0.000194	1.936031	0.655945	0.015651
 323	1.6100e-01	12.8868	21.424668	0.000152	1.523434	0.516153	0.012316
 324	1.6150e-01	12.9061	21.468713	0.000109	1.089679	0.369193	0.008809
 325	1.6200e-01	12.9670	21.494798	0.000065	0.645344	0.218648	0.005217
 326	1.6250e-01	13.0183	21.549962	0.000136	1.364743	0.462387	0.011033
 327	1.6300e-01	13.0488	21.581606	0.000078	0.782876	0.265246	0.006329
 328	1.6350e-01	13.1050	21.667986	0.000214	2.137039	0.724049	0.017276
 329	1.6400e-01	13.1355	21.677394	0.000023	0.232747	0.078857	0.001882
 330	1.6450e-01	13.1948	21.768478	0.000225	2.253413	0.763477	0.018217
 331	1.6500e-01	13.2253	21.784301	0.000039	0.391438	0.132623	0.003164
 332	1.6550e-01	13.2702	21.889069	0.000259	2.591954	0.878178	0.020954
 333	1.6600e-01	13.3151	21.902325	0.000033	0.327961	0.111116	0.002651
 334	1.6650e-01	13.3248	21.991699	0.000221	2.211095	0.749139	0.017875
 335	1.6700e-01	13.4018	22.036599	0.000111	1.110837	0.376362	0.008980
 336	1.6750e-01	13.4082	22.069099	0.000080	0.804035	0.272414	0.006500
 337	1.6800e-01	13.4435	22.196959	0.000316	3.163241	1.071735	0.025572
 338	1.6850e-01	13.5028	22.176005	-0.000052	-0.518391	-0.175636	-0.004191
 339	1.6900e-01	13.5494	22.247419	0.000177	1.766760	0.598595	0.014283
 340	1.6950e-01	13.5846	22.279491	0.000079	0.793455	0.268830	0.006414
 341	1.7000e-01	13.6215	22.356891	0.000191	1.914872	0.648776	0.015480
 342	1.7050e-01	13.6456	22.420179	0.000157	1.565752	0.530491	0.012658
 343	1.7100e-01	13.6969	22.496724	0.000189	1.893713	0.641607	0.015309
 344	1.7150e-01	13.7595	22.476626	-0.000050	-0.497232	-0.168467	-0.004020
 345	1.7200e-01	13.7788	22.582249	0.000261	2.613113	0.885346	0.021125
 346	1.7250e-01	13.8044	22.619880	0.000093	0.930987	0.315427	0.007526
 347	1.7300e-01	13.8878	22.666064	0.000114	1.142576	0.387115	0.009237
 348	1.7350e-01	13.9135	22.719517	0.000132	1.322425	0.448050	0.010691
 349	1.7400e-01	13.9552	22.728070	0.000021	0.211588	0.071688	0.001711
 350	1.7450e-01	13.9841	22.792641	0.000160	1.597490	0.541244	0.012914
 351	1.7500e-01	14.0354	22.902968	0.000273	2.729486	0.924775	0.022065
 352	1.7550e-01	14.0338	22.919218	-0.000040	-0.402017	-0.136207	0.003250
 353	1.7600e-01	14.1237	23.003460	0.000208	2.084142	0.706127	0.016848
 354	1.7650e-01	14.1285	23.009875	0.000016	0.158691	0.053766	0.001283
 355	1.7700e-01	14.1622	23.116353	0.000263	2.634271	0.892515	0.021296
 356	1.7750e-01	14.2520	23.163820	0.000117	1.174314	0.397868	0.009493
 357	1.7800e-01	14.2697	23.159971	-0.000010	-0.095215	-0.032260	-0.000770
 358	1.7850e-01	14.3065	23.204444	0.000110	1.100258	0.372777	0.008895
 359	1.7900e-01	14.3483	23.295956	0.000226	2.263992	0.767061	0.018302
 360	1.7950e-01	14.3547	23.359244	0.000157	1.565752	0.530491	0.012658
 361	1.8000e-01	14.4204	23.434506	0.000186	1.861975	0.630854	0.015052
 362	1.8050e-01	14.4702	23.433224	-0.000003	-0.031738	-0.010753	-0.000257
 363	1.8100e-01	14.5231	23.466578	0.000083	0.825193	0.279583	0.006671
 364	1.8150e-01	14.5424	23.526874	0.000149	1.491696	0.505400	0.012059
 365	1.8200e-01	14.5648	23.639767	0.000279	2.792962	0.946281	0.022579
 366	1.8250e-01	14.6065	23.635490	-0.000011	-0.105794	-0.035844	-0.000855
 367	1.8300e-01	14.6627	23.698779	0.000157	1.565752	0.530491	0.012658
 368	1.8350e-01	14.7044	23.733417	0.000086	0.856932	0.290336	0.006928
 369	1.8400e-01	14.7461	23.761640	0.000070	0.698241	0.236570	0.005645
 370	1.8450e-01	14.7830	23.849731	0.000218	2.179357	0.738386	0.017618
 371	1.8500e-01	14.8215	23.907032	0.000142	1.417640	0.480309	0.011460
 372	1.8550e-01	14.8664	23.985715	0.000195	1.946610	0.659529	0.015737
 373	1.8600e-01	14.8857	24.001110	0.000038	0.380859	0.129038	0.003079
 374	1.8650e-01	14.9354	24.097753	0.000239	2.390945	0.810074	0.019329
 375	1.8700e-01	14.9595	24.145647	0.000118	1.184893	0.401453	0.009579
 376	1.8750e-01	15.0236	24.151634	0.000015	0.148112	0.050182	0.001197
 377	1.8800e-01	15.0573	24.219199	0.000167	1.671546	0.566335	0.013513
 378	1.8850e-01	15.0974	24.270086	0.000126	1.258949	0.426543	0.010177
 379	1.8900e-01	15.1696	24.327816	0.000143	1.428219	0.483894	0.011546
 380	1.8950e-01	15.1889	24.369295	0.000103	1.026202	0.347687	0.008296
 381	1.9000e-01	15.2113	24.416762	0.000117	1.174314	0.397868	0.009493
 382	1.9050e-01	15.2771	24.457814	0.000102	1.015623	0.344102	0.008210
 383	1.9100e-01	15.2787	24.565148	0.000266	2.655430	0.899684	0.021467
 384	1.9150e-01	15.3493	24.558733	-0.000016	-0.158691	-0.053766	-0.001283
 385	1.9200e-01	15.3782	24.589950	0.000077	0.772296	0.261661	0.006243
 386	1.9250e-01	15.4183	24.662219	0.000179	1.787919	0.605763	0.014454
 387	1.9300e-01	15.4664	24.747744	0.000212	2.115881	0.716880	0.017105
 388	1.9350e-01	15.4776	24.763138	0.000038	0.380859	0.129038	0.003079
 389	1.9400e-01	15.5546	24.831131	0.000168	1.682125	0.569919	0.013598
 390	1.9450e-01	15.5755	24.866624	0.000088	0.878090	0.297505	0.007099
 391	1.9500e-01	15.6172	24.902116	0.000088	0.878090	0.297505	0.007099
 392	1.9550e-01	15.6653	24.990635	0.000219	2.189936	0.741971	0.017704
 393	1.9600e-01	15.7086	25.019286	0.000071	0.708820	0.240155	0.005730
 394	1.9650e-01	15.7311	25.107377	0.000218	2.179357	0.738386	0.017618
 395	1.9700e-01	15.7696	25.091982	-0.000038	-0.380859	-0.129038	-0.003079
 396	1.9750e-01	15.8306	25.193757	0.000252	2.517898	0.853087	0.020355
 397	1.9800e-01	15.8691	25.195895	0.000005	0.052897	0.017922	0.000428
 398	1.9850e-01	15.9124	25.276289	0.000199	1.988928	0.673867	0.016079
 399	1.9900e-01	15.9509	25.356682	0.000199	1.988928	0.673867	0.016079
 400	1.9950e-01	15.9766	25.395596	0.000096	0.962726	0.326180	0.007783
 401	2.0000e-01	16.0215	25.415267	0.000049	0.486653	0.164882	0.003934
 402	2.0050e-01	16.0664	25.464871	0.000123	1.227211	0.415790	0.009921
 403	2.0100e-01	16.1033	25.523028	0.000144	1.438799	0.487478	0.011631
 404	2.0150e-01	16.1434	25.567929	0.000111	1.110837	0.376362	0.008980
 405	2.0200e-01	16.1578	25.638487	0.000175	1.745601	0.591426	0.014112
 406	2.0250e-01	16.2284	25.689375	0.000126	1.258949	0.426543	0.010177
 407	2.0300e-01	16.2621	25.698355	0.000022	0.222167	0.075272	0.001796
 408	2.0350e-01	16.3038	25.777465	0.000196	1.957190	0.663114	0.015822
 409	2.0400e-01	16.3519	25.808682	0.000077	0.772296	0.261661	0.006243
 410	2.0450e-01	16.3760	25.866411	0.000143	1.428219	0.483894	0.011546
 411	2.0500e-01	16.3985	25.954075	0.000217	2.168778	0.734802	0.017533
 412	2.0550e-01	16.4498	25.975456	0.000053	0.528970	0.179220	0.004276
 413	2.0600e-01	16.4867	26.042593	0.000166	1.660966	0.562751	0.013427
 414	2.0650e-01	16.5316	26.099895	0.000142	1.417640	0.480309	0.011460
 415	2.0700e-01	16.5878	26.120421	0.000051	0.507811	0.172051	0.004105
 416	2.0750e-01	16.6134	26.160190	0.000098	0.983884	0.333349	0.007954
 417	2.0800e-01	16.6600	26.190979	0.000076	0.761717	0.258077	0.006158
 418	2.0850e-01	16.7001	26.240584	0.000123	1.227211	0.415790	0.009921
 419	2.0900e-01	16.7498	26.306865	0.000164	1.639807	0.555582	0.013256
 420	2.0950e-01	16.7771	26.336799	0.000074	0.740558	0.250908	0.005987
 421	2.1000e-01	16.8252	26.361601	0.000061	0.613605	0.207895	0.004960
 422	2.1050e-01	16.8621	26.456962	0.000236	2.359207	0.799321	0.019072
 423	2.1100e-01	16.9214	26.479198	0.000055	0.550129	0.186389	0.004447
 424	2.1150e-01	16.9327	26.533079	0.000133	1.333005	0.451634	0.010776
 425	2.1200e-01	16.9744	26.614328	0.000201	2.010087	0.681036	0.016250
 426	2.1250e-01	17.0353	26.638275	0.000059	0.592447	0.200726	0.004789
 427	2.1300e-01	17.0498	26.693866	0.000138	1.375322	0.465972	0.011118
 428	2.1350e-01	17.1140	26.757582	0.000158	1.576331	0.534075	0.012743
 429	2.1400e-01	17.1460	26.822582	0.000161	1.608069	0.544829	0.013000
 430	2.1450e-01	17.1845	26.881594	0.000146	1.459958	0.494647	0.011802
 431	2.1500e-01	17.2391	26.891429	0.000024	0.243326	0.082441	0.001967
 432	2.1550e-01	17.2631	26.958994	0.000167	1.671546	0.566335	0.013513
 433	2.1600e-01	17.3033	26.981231	0.000055	0.550129	0.186389	0.004447
 434	2.1650e-01	17.3418	27.029552	0.000120	1.195473	0.405037	0.009664
 435	2.1700e-01	17.3770	27.064617	0.000087	0.867511	0.293921	0.007013
 436	2.1750e-01	17.4075	27.133037	0.000169	1.692704	0.573504	0.013684
 437	2.1800e-01	17.4557	27.165965	0.000081	0.814614	0.275999	0.006585
 438	2.1850e-01	17.5102	27.236523	0.000175	1.745601	0.591426	0.014112
 439	2.1900e-01	17.5359	27.227543	-0.000022	-0.222167	-0.075272	-0.001796
 440	2.1950e-01	17.6000	27.301949	0.000184	1.840816	0.623685	0.014881
 441	2.2000e-01	17.6353	27.344284	0.000105	1.047361	0.354855	0.008467
 442	2.2050e-01	17.6305	27.415698	-0.000177	-1.766760	-0.598595	0.014283
 443	2.2100e-01	17.6963	27.493526	0.000193	1.925451	0.652361	0.015566
 444	2.2150e-01	17.7300	27.519183	0.000063	0.634764	0.215064	0.005132
 445	2.2200e-01	17.7877	27.594445	0.000186	1.861975	0.630854	0.015052
 446	2.2250e-01	17.8262	27.610267	0.000039	0.391438	0.132623	0.003164
 447	2.2300e-01	17.8567	27.682536	0.000179	1.787919	0.605763	0.014454
 448	2.2350e-01	17.9177	27.679115	-0.000008	-0.084635	-0.028675	-0.000684
 449	2.2400e-01	17.9530	27.706483	0.000068	0.677082	0.229402	0.005474
 450	2.2450e-01	18.0043	27.772765	0.000164	1.639807	0.555582	0.013256
 451	2.2500e-01	18.0460	27.823225	0.000125	1.248370	0.422959	0.010092
 452	2.2550e-01	18.0749	27.853158	0.000074	0.740558	0.250908	0.005987
 453	2.2600e-01	18.0941	27.947664	0.000234	2.338048	0.792152	0.018901
 454	2.2650e-01	18.1423	28.007104	0.000147	1.470537	0.498231	0.011888
 455	2.2700e-01	18.1679	28.056708	0.000123	1.227211	0.415790	0.009921
 456	2.2750e-01	18.2321	28.111872	0.000136	1.364743	0.462387	0.011033
 457	2.2800e-01	18.2514	28.136246	0.000060	0.603026	0.204311	0.004875
 458	2.2850e-01	18.3075	28.176871	0.000101	1.005043	0.340518	0.008125
 459	2.2900e-01	18.3284	28.221771	0.000111	1.110837	0.376362	0.008980
 460	2.2950e-01	18.3877	28.282067	0.000149	1.491696	0.505400	0.012059
 461	2.3000e-01	18.4022	28.286770	0.000012	0.116373	0.039428	0.000941
 462	2.3050e-01	18.4519	28.407788	0.000299	2.993971	1.014385	0.024204
 463	2.3100e-01	18.5080	28.417624	0.000024	0.243326	0.082441	0.001967
 464	2.3150e-01	18.5369	28.434301	0.000041	0.412597	0.139792	0.003335
 465	2.3200e-01	18.5834	28.503149	0.000170	1.703284	0.577088	0.013770
 466	2.3250e-01	18.6171	28.538214	0.000087	0.867511	0.293921	0.007013
 467	2.3300e-01	18.6733	28.618180	0.000198	1.978348	0.670283	0.015993
 468	2.3350e-01	18.6957	28.632292	0.000035	0.349120	0.118285	0.002822
 469	2.3400e-01	18.7374	28.685745	0.000132	1.322425	0.448050	0.010691
 470	2.3450e-01	18.8000	28.710975	0.000062	0.624185	0.211480	0.005046
 471	2.3500e-01	18.8289	28.747751	0.000091	0.909829	0.308258	0.007355
 472	2.3550e-01	18.8562	28.861499	0.000281	2.814121	0.953450	0.022750
 473	2.3600e-01	18.8914	28.870051	0.000021	0.211588	0.071688	0.001711
 474	2.3650e-01	18.9380	28.939754	0.000172	1.724443	0.584257	0.013941
 475	2.3700e-01	18.9941	28.932912	-0.000017	-0.169270	-0.057350	-0.001368
 476	2.3750e-01	19.0214	29.013306	0.000199	1.988928	0.673867	0.016079
 477	2.3800e-01	19.0583	29.029983	0.000041	0.412597	0.139792	0.003335
 478	2.3850e-01	19.0936	29.150146	0.000297	2.972812	1.007216	0.024033
 479	2.3900e-01	19.1401	29.186494	0.000090	0.899249	0.304674	0.007270
 480	2.3950e-01	19.1850	29.202744	0.000040	0.402017	0.136207	0.003250
 481	2.4000e-01	19.2492	29.214290	0.000029	0.285644	0.096779	0.002309
 482	2.4050e-01	19.2556	29.296821	0.000204	2.041825	0.691789	0.016506
 483	2.4100e-01	19.2781	29.350702	0.000133	1.333005	0.451634	0.010776
 484	2.4150e-01	19.3342	29.413135	0.000154	1.544593	0.523322	0.012487
 485	2.4200e-01	19.3855	29.407149	-0.000015	-0.148112	-0.050182	-0.001197
 486	2.4250e-01	19.3759	29.532015	-0.000309	-3.089186	-1.046644	0.024973
 487	2.4300e-01	19.4561	29.573495	0.000103	1.026202	0.347687	0.008296
 488	2.4350e-01	19.5043	29.556390	-0.000042	-0.423176	-0.143376	-0.003421
 489	2.4400e-01	19.5492	29.613264	0.000141	1.407061	0.476725	0.011375
 490	2.4450e-01	19.5748	29.648757	0.000088	0.878090	0.297505	0.007099
 491	2.4500e-01	19.6117	29.709052	0.000149	1.491696	0.505400	0.012059
 492	2.4550e-01	19.6711	29.744545	0.000088	0.878090	0.297505	0.007099
 493	2.4600e-01	19.6968	29.797143	0.000130	1.301267	0.440881	0.010520
 494	2.4650e-01	19.7513	29.798853	0.000004	0.042318	0.014338	0.000342
 495	2.4700e-01	19.8187	29.871550	0.000180	1.798499	0.609348	0.014539
 496	2.4750e-01	19.8412	29.892931	0.000053	0.528970	0.179220	0.004276
 497	2.4800e-01	19.8572	30.031482	0.000343	3.427727	1.161345	0.027710
 498	2.4850e-01	19.9101	30.052008	0.000051	0.507811	0.172051	0.004105
 499	2.4900e-01	19.9551	30.083224	0.000077	0.772296	0.261661	0.006243
 500	2.4950e-01	20.0048	30.113586	0.000075	0.751138	0.254492	0.006072
 501	2.5000e-01	20.0144	30.171743	0.000144	1.438799	0.487478	0.011631
 502	2.5050e-01	19.9823	30.072534	0.000245	2.454421	0.831581	-0.019842
 503	2.5100e-01	19.9262	30.062271	0.000025	0.253906	0.086026	-0.002053
 504	2.5150e-01	19.8780	30.004969	0.000142	1.417640	0.480309	-0.011460
 505	2.5200e-01	19.8363	29.981022	0.000059	0.592447	0.200726	-0.004789
 506	2.5250e-01	19.7994	29.995133	-0.000035	-0.349120	-0.118285	0.002822
 507	2.5300e-01	19.7674	29.918161	0.000190	1.904293	0.645192	-0.015395
 508	2.5350e-01	19.7256	29.862570	0.000138	1.375322	0.465972	-0.011118
 509	2.5400e-01	19.6823	29.844609	0.000044	0.444335	0.150545	-0.003592
 510	2.5450e-01	19.6519	29.787735	0.000141	1.407061	0.476725	-0.011375
 511	2.5500e-01	19.6117	29.776617	0.000028	0.275064	0.093194	-0.002224
 512	2.5550e-01	19.5588	29.733854	0.000106	1.057940	0.358440	-0.008553
 513	2.5600e-01	19.5476	29.696651	0.000092	0.920408	0.311843	-0.007441
 514	2.5650e-01	19.4786	29.668000	0.000071	0.708820	0.240155	-0.005730
 515	2.5700e-01	19.4401	29.604284	0.000158	1.576331	0.534075	-0.012743
 516	2.5750e-01	19.4224	29.568363	0.000089	0.888670	0.301089	-0.007184
 517	2.5800e-01	19.3984	29.452905	0.000286	2.856439	0.967788	-0.023092
 518	2.5850e-01	19.3278	29.488825	-0.000089	-0.888670	-0.301089	0.007184
 519	2.5900e-01	19.2957	29.464023	0.000061	0.613605	0.207895	-0.004960
 520	2.5950e-01	19.2540	29.413135	0.000126	1.258949	0.426543	-0.010177
 521	2.6000e-01	19.1946	29.399451	0.000034	0.338541	0.114701	-0.002737
 522	2.6050e-01	19.1722	29.390899	0.000021	0.211588	0.071688	-0.001711
 523	2.6100e-01	19.1369	29.319486	0.000177	1.766760	0.598595	-0.014283
 524	2.6150e-01	19.0856	29.248500	0.000176	1.756181	0.595010	-0.014197
 525	2.6200e-01	19.0455	29.204027	0.000110	1.100258	0.372777	-0.008895
 526	2.6250e-01	18.9941	29.143732	0.000149	1.491696	0.505400	-0.012059
 527	2.6300e-01	18.9701	29.148435	-0.000012	-0.116373	-0.039428	0.000941
 528	2.6350e-01	18.9155	29.094982	0.000132	1.322425	0.448050	-0.010691
 529	2.6400e-01	18.8722	29.044095	0.000126	1.258949	0.426543	-0.010177
 530	2.6450e-01	18.8433	29.029128	0.000037	0.370279	0.125454	-0.002993
 531	2.6500e-01	18.7936	28.965412	0.000158	1.576331	0.534075	-0.012743
 532	2.6550e-01	18.7455	28.973537	-0.000020	-0.201009	-0.068104	0.001625
 533	2.6600e-01	18.7246	28.909821	0.000158	1.576331	0.534075	-0.012743
 534	2.6650e-01	18.6781	28.885873	0.000059	0.592447	0.200726	-0.004789
 535	2.6700e-01	18.6412	28.823868	0.000153	1.534013	0.519738	-0.012401
 536	2.6750e-01	18.5882	28.809329	0.000036	0.359700	0.121870	-0.002908
 537	2.6800e-01	18.5754	28.736205	0.000181	1.809078	0.612932	-0.014625
 538	2.6850e-01	18.5530	28.665646	0.000175	1.745601	0.591426	-0.014112
 539	2.6900e-01	18.4808	28.629726	0.000089	0.888670	0.301089	-0.007184
 540	2.6950e-01	18.4310	28.604924	0.000061	0.613605	0.207895	-0.004960
 541	2.7000e-01	18.4054	28.587391	0.000043	0.433756	0.146960	-0.003507
 542	2.7050e-01	18.3653	28.536504	0.000126	1.258949	0.426543	-0.010177
 543	2.7100e-01	18.3332	28.512129	0.000060	0.603026	0.204311	-0.004875
 544	2.7150e-01	18.2995	28.425749	0.000214	2.137039	0.724049	-0.017276
 545	2.7200e-01	18.2562	28.357756	0.000168	1.682125	0.569919	-0.013598
 546	2.7250e-01	18.1856	28.375289	-0.000043	-0.433756	-0.146960	0.003507
 547	2.7300e-01	18.1679	28.337658	0.000093	0.930987	0.315427	-0.007526
 548	2.7350e-01	18.1150	28.258547	0.000196	1.957190	0.663114	-0.015822
 549	2.7400e-01	18.0974	28.261968	-0.000008	-0.084635	-0.028675	0.000684
 550	2.7450e-01	18.0685	28.155490	0.000263	2.634271	0.892515	-0.021296
 551	2.7500e-01	17.9979	28.141378	0.000035	0.349120	0.118285	-0.002822
 552	2.7550e-01	17.9851	28.090063	0.000127	1.269528	0.430128	-0.010263
 553	2.7600e-01	17.9225	28.040458	0.000123	1.227211	0.415790	-0.009921
 554	2.7650e-01	17.9016	28.007531	0.000081	0.814614	0.275999	-0.006585
 555	2.7700e-01	17.8519	27.931842	0.000187	1.872554	0.634439	-0.015138
 556	2.7750e-01	17.7893	27.925855	0.000015	0.148112	0.050182	-0.001197
 557	2.7800e-01	17.7669	27.903191	0.000056	0.560708	0.189973	-0.004533
 558	2.7850e-01	17.7236	27.854869	0.000120	1.195473	0.405037	-0.009664
 559	2.7900e-01	17.7075	27.827929	0.000067	0.666502	0.225817	-0.005388
 560	2.7950e-01	17.6626	27.748390	0.000197	1.967769	0.666698	-0.015908
 561	2.8000e-01	17.6225	27.721877	0.000066	0.655923	0.222233	-0.005303
 562	2.8050e-01	17.5551	27.697075	0.000061	0.613605	0.207895	-0.004960
 563	2.8100e-01	17.5311	27.648326	0.000121	1.206052	0.408621	-0.009750
 564	2.8150e-01	17.5022	27.609412	0.000096	0.962726	0.326180	-0.007783
 565	2.8200e-01	17.4669	27.562373	0.000116	1.163734	0.394284	-0.009408
 566	2.8250e-01	17.4284	27.497802	0.000160	1.597490	0.541244	-0.012914
 567	2.8300e-01	17.3690	27.467868	0.000074	0.740558	0.250908	-0.005987
 568	2.8350e-01	17.3129	27.425106	0.000106	1.057940	0.358440	-0.008553
 569	2.8400e-01	17.2712	27.378067	0.000116	1.163734	0.394284	-0.009408
 570	2.8450e-01	17.2535	27.352837	0.000062	0.624185	0.211480	-0.005046
 571	2.8500e-01	17.2070	27.284844	0.000168	1.682125	0.569919	-0.013598
 572	2.8550e-01	17.1589	27.238661	0.000114	1.142576	0.387115	-0.009237
 573	2.8600e-01	17.1252	27.221984	0.000041	0.412597	0.139792	-0.003335
 574	2.8650e-01	17.0851	27.145439	0.000189	1.893713	0.641607	-0.015309
 575	2.8700e-01	17.0706	27.083861	0.000152	1.523434	0.516153	-0.012316
 576	2.8750e-01	16.9985	27.058203	0.000063	0.634764	0.215064	-0.005132
 577	2.8800e-01	16.9519	27.067611	-0.000023	-0.232747	-0.078857	0.001882
 578	2.8850e-01	16.9375	26.981231	0.000214	2.137039	0.724049	-0.017276
 579	2.8900e-01	16.9038	26.936757	0.000110	1.100258	0.372777	-0.008895
 580	2.8950e-01	16.8653	26.871331	0.000162	1.618649	0.548413	-0.013085
 581	2.9000e-01	16.7883	26.838404	0.000081	0.814614	0.275999	-0.006585
 582	2.9050e-01	16.7562	26.802911	0.000088	0.878090	0.297505	-0.007099
 583	2.9100e-01	16.7193	26.765707	0.000092	0.920408	0.311843	-0.007441
 584	2.9150e-01	16.6953	26.706695	0.000146	1.459958	0.494647	-0.011802
 585	2.9200e-01	16.6567	26.652387	0.000134	1.343584	0.455219	-0.010862
 586	2.9250e-01	16.6054	26.596795	0.000138	1.375322	0.465972	-0.011118
 587	2.9300e-01	16.5669	26.559592	0.000092	0.920408	0.311843	-0.007441
 588	2.9350e-01	16.5236	26.539921	0.000049	0.486653	0.164882	-0.003934
 589	2.9400e-01	16.5124	26.474495	0.000162	1.618649	0.548413	-0.013085
 590	2.9450e-01	16.4626	26.418903	0.000138	1.375322	0.465972	-0.011118
 591	2.9500e-01	16.4193	26.434298	-0.000038	-0.380859	-0.129038	0.003079
 592	2.9550e-01	16.3535	26.350056	0.000208	2.084142	0.706127	-0.016848
 593	2.9600e-01	16.3295	26.318839	0.000077	0.772296	0.261661	-0.006243
 594	2.9650e-01	16.2782	26.289760	0.000072	0.719399	0.243739	-0.005816
 595	2.9700e-01	16.2525	26.224761	0.000161	1.608069	0.544829	-0.013000
 596	2.9750e-01	16.1899	26.168315	0.000140	1.396481	0.473141	-0.011289
 597	2.9800e-01	16.1610	26.141802	0.000066	0.655923	0.222233	-0.005303
 598	2.9850e-01	16.1418	26.071672	0.000174	1.735022	0.587841	-0.014026
 599	2.9900e-01	16.0824	26.084073	-0.000031	-0.306803	-0.103948	0.002480
 600	2.9950e-01	16.0455	25.968186	0.000287	2.867018	0.971372	-0.023177
 601	3.0000e-01	16.0086	25.937397	0.000076	0.761717	0.258077	-0.006158
 602	3.0050e-01	15.9637	25.898483	0.000096	0.962726	0.326180	-0.007783
 603	3.0100e-01	15.9316	25.856148	0.000105	1.047361	0.354855	-0.008467
 604	3.0150e-01	15.8819	25.846741	0.000023	0.232747	0.078857	-0.001882
 605	3.0200e-01	15.8354	25.814241	0.000080	0.804035	0.272414	-0.006500
 606	3.0250e-01	15.8129	25.738124	0.000188	1.883134	0.638023	-0.015223
 607	3.0300e-01	15.7632	25.693223	0.000111	1.110837	0.376362	-0.008980
 608	3.0350e-01	15.7279	25.633356	0.000148	1.481116	0.501816	-0.011974
 609	3.0400e-01	15.6894	25.587600	0.000113	1.131996	0.383531	-0.009151
 610	3.0450e-01	15.6557	25.530298	0.000142	1.417640	0.480309	-0.011460
 611	3.0500e-01	15.6268	25.451187	0.000196	1.957190	0.663114	-0.015822
 612	3.0550e-01	15.5787	25.409280	0.000104	1.036781	0.351271	-0.008381
 613	3.0600e-01	15.5145	25.394313	0.000037	0.370279	0.125454	-0.002993
 614	3.0650e-01	15.5049	25.365235	0.000072	0.719399	0.243739	-0.005816
 615	3.0700e-01	15.4279	25.283986	0.000201	2.010087	0.681036	-0.016250
 616	3.0750e-01	15.4119	25.268164	0.000039	0.391438	0.132623	-0.003164
 617	3.0800e-01	15.3573	25.239940	0.000070	0.698241	0.236570	-0.005645
 618	3.0850e-01	15.3557	25.137310	0.000254	2.539057	0.860256	-0.020526
 619	3.0900e-01	15.2819	25.108659	0.000071	0.708820	0.240155	-0.005730
 620	3.0950e-01	15.2530	25.082147	0.000066	0.655923	0.222233	-0.005303
 621	3.1000e-01	15.2210	25.024417	0.000143	1.428219	0.483894	-0.011546
 622	3.1050e-01	15.1472	24.961129	0.000157	1.565752	0.530491	-0.012658
 623	3.1100e-01	15.1407	24.908958	0.000129	1.290687	0.437297	-0.010434
 624	3.1150e-01	15.0766	24.884584	0.000060	0.603026	0.204311	-0.004875
 625	3.1200e-01	15.0621	24.825572	0.000146	1.459958	0.494647	-0.011802
 626	3.1250e-01	14.9964	24.777250	0.000120	1.195473	0.405037	-0.009664
 627	3.1300e-01	14.9691	24.742612	0.000086	0.856932	0.290336	-0.006928
 628	3.1350e-01	14.9306	24.684455	0.000144	1.438799	0.487478	-0.011631
 629	3.1400e-01	14.8857	24.655804	0.000071	0.708820	0.240155	-0.005730
 630	3.1450e-01	14.8520	24.626298	0.000073	0.729979	0.247324	-0.005901
 631	3.1500e-01	14.8087	24.536924	0.000221	2.211095	0.749139	-0.017875
 632	3.1550e-01	14.7750	24.512122	0.000061	0.613605	0.207895	-0.004960
 633	3.1600e-01	14.7397	24.468077	0.000109	1.089679	0.369193	-0.008809
 634	3.1650e-01	14.6819	24.431301	0.000091	0.909829	0.308258	-0.007355
 635	3.1700e-01	14.6579	24.390677	0.000101	1.005043	0.340518	-0.008125
 636	3.1750e-01	14.6097	24.338506	0.000129	1.290687	0.437297	-0.010434
 637	3.1800e-01	14.5552	24.255547	0.000205	2.052404	0.695373	-0.016592
 638	3.1850e-01	14.5360	24.230745	0.000061	0.613605	0.207895	-0.004960
 639	3.1900e-01	14.4975	24.170450	0.000149	1.491696	0.505400	-0.012059
 640	3.1950e-01	14.4606	24.099891	0.000175	1.745601	0.591426	-0.014112
 641	3.2000e-01	14.4188	24.058412	0.000103	1.026202	0.347687	-0.008296
 642	3.2050e-01	14.3755	24.006669	0.000128	1.280108	0.433712	-0.010349
 643	3.2100e-01	14.3114	23.989564	0.000042	0.423176	0.143376	-0.003421
 644	3.2150e-01	14.2937	23.928841	0.000150	1.502275	0.508985	-0.012145
 645	3.2200e-01	14.2424	23.874105	0.000135	1.354164	0.458803	-0.010947
 646	3.2250e-01	14.2199	23.838185	0.000089	0.888670	0.301089	-0.007184
 647	3.2300e-01	14.1477	23.828349	0.000024	0.243326	0.082441	-0.001967
 648	3.2350e-01	14.1317	23.733844	0.000234	2.338048	0.792152	-0.018901
 649	3.2400e-01	14.0916	23.673977	0.000148	1.481116	0.501816	-0.011974
 650	3.2450e-01	14.0547	23.670556	0.000008	0.084635	0.028675	-0.000684
 651	3.2500e-01	14.0050	23.617958	0.000130	1.301267	0.440881	-0.010520
 652	3.2550e-01	13.9681	23.563649	0.000134	1.343584	0.455219	-0.010862
 653	3.2600e-01	13.9440	23.544834	0.000047	0.465494	0.157714	-0.003763
 654	3.2650e-01	13.8911	23.452467	0.000229	2.285151	0.774230	-0.018473
 655	3.2700e-01	13.8542	23.386612	0.000163	1.629228	0.551997	-0.013171
 656	3.2750e-01	13.8044	23.356251	0.000075	0.751138	0.254492	-0.006072
 657	3.2800e-01	13.7788	23.310068	0.000114	1.142576	0.387115	-0.009237
 658	3.2850e-01	13.7226	23.282272	0.000069	0.687661	0.232986	-0.005559
 659	3.2900e-01	13.6841	23.220266	0.000153	1.534013	0.519738	-0.012401
 660	3.2950e-01	13.6552	23.143721	0.000189	1.893713	0.641607	-0.015309
 661	3.3000e-01	13.6087	23.106090	0.000093	0.930987	0.315427	-0.007526
 662	3.3050e-01	13.5638	23.036815	0.000171	1.713863	0.580673	-0.013855
 663	3.3100e-01	13.5157	23.023131	0.000034	0.338541	0.114701	-0.002737
 664	3.3150e-01	13.4788	22.981651	0.000103	1.026202	0.347687	-0.008296
 665	3.3200e-01	13.4643	22.918363	0.000157	1.565752	0.530491	-0.012658
 666	3.3250e-01	13.4306	22.838824	0.000197	1.967769	0.666698	-0.015908
 667	3.3300e-01	13.3681	22.837542	0.000003	0.031738	0.010753	-0.000257
 668	3.3350e-01	13.3199	22.742181	0.000236	2.359207	0.799321	-0.019072
 669	3.3400e-01	13.3039	22.704123	0.000094	0.941567	0.319011	-0.007612
 670	3.3450e-01	13.2333	22.691294	0.000032	0.317382	0.107532	-0.002566
 671	3.3500e-01	13.2093	22.629716	0.000152	1.523434	0.516153	-0.012316
 672	3.3550e-01	13.1724	22.565572	0.000159	1.586910	0.537660	-0.012829
 673	3.3600e-01	13.1258	22.518961	0.000115	1.153155	0.390699	-0.009322
 674	3.3650e-01	13.0777	22.436001	0.000205	2.052404	0.695373	-0.016592
 675	3.3700e-01	13.0392	22.455245	-0.000048	-0.476073	-0.161298	0.003849
 676	3.3750e-01	13.0055	22.366299	0.000220	2.200516	0.745555	-0.017789
 677	3.3800e-01	12.9638	22.347055	0.000048	0.476073	0.161298	-0.003849
 678	3.3850e-01	12.9125	22.294030	0.000131	1.311846	0.444465	-0.010605
 679	3.3900e-01	12.9109	22.204229	0.000222	2.221675	0.752724	-0.017960
 680	3.3950e-01	12.8531	22.183703	0.000051	0.507811	0.172051	-0.004105
 681	3.4000e-01	12.8323	22.116565	0.000166	1.660966	0.562751	-0.013427
 682	3.4050e-01	12.7713	22.031040	0.000212	2.115881	0.716880	-0.017105
 683	3.4100e-01	12.7312	22.024626	0.000016	0.158691	0.053766	-0.001283
 684	3.4150e-01	12.6831	21.976304	0.000120	1.195473	0.405037	-0.009664
 685	3.4200e-01	12.6333	21.912588	0.000158	1.576331	0.534075	-0.012743
 686	3.4250e-01	12.5996	21.909167	0.000008	0.084635	0.028675	-0.000684
 687	3.4300e-01	12.5932	21.839037	0.000174	1.735022	0.587841	-0.014026
 688	3.4350e-01	12.5114	21.814662	0.000060	0.603026	0.204311	-0.004875
 689	3.4400e-01	12.4890	21.689368	0.000310	3.099765	1.050229	-0.025059
 690	3.4450e-01	12.4312	21.683809	0.000014	0.137532	0.046597	-0.001112
 691	3.4500e-01	12.4087	21.607264	0.000189	1.893713	0.641607	-0.015309
 692	3.4550e-01	12.3654	21.566639	0.000101	1.005043	0.340518	-0.008125
 693	3.4600e-01	12.3125	21.536278	0.000075	0.751138	0.254492	-0.006072
 694	3.4650e-01	12.2868	21.480259	0.000139	1.385902	0.469556	-0.011204
 695	3.4700e-01	12.2483	21.415688	0.000160	1.597490	0.541244	-0.012914
 696	3.4750e-01	12.1970	21.370359	0.000112	1.121417	0.379946	-0.009066
 697	3.4800e-01	12.1777	21.358813	0.000029	0.285644	0.096779	-0.002309
 698	3.4850e-01	12.1312	21.260887	0.000242	2.422683	0.820827	-0.019585
 699	3.4900e-01	12.0799	21.217697	0.000107	1.068520	0.362024	-0.008638
 700	3.4950e-01	12.0751	21.118488	0.000245	2.454421	0.831581	-0.019842
 701	3.5000e-01	11.9804	21.104804	0.000034	0.338541	0.114701	-0.002737
 702	3.5050e-01	12.0029	21.012437	-0.000229	-2.285151	-0.774230	-0.018473
 703	3.5100e-01	11.9275	21.006023	0.000016	0.158691	0.053766	-0.001283
 704	3.5150e-01	11.8826	20.922636	0.000206	2.062984	0.698958	-0.016677
 705	3.5200e-01	11.8344	20.930333	-0.000019	-0.190429	-0.064519	0.001539
 706	3.5250e-01	11.7799	20.846946	0.000206	2.062984	0.698958	-0.016677
 707	3.5300e-01	11.7799	20.792210	0.000135	1.354164	0.458803	-0.010947
 708	3.5350e-01	11.7430	20.680172	0.000277	2.771804	0.939112	-0.022408
 709	3.5400e-01	11.7013	20.675468	0.000012	0.116373	0.039428	-0.000941
 710	3.5450e-01	11.6836	20.601917	0.000182	1.819657	0.616517	-0.014710
 711	3.5500e-01	11.5986	20.563858	0.000094	0.941567	0.319011	-0.007612
 712	3.5550e-01	11.5745	20.536062	0.000069	0.687661	0.232986	-0.005559
 713	3.5600e-01	11.5248	20.477905	0.000144	1.438799	0.487478	-0.011631
 714	3.5650e-01	11.4751	20.454386	0.000058	0.581867	0.197142	-0.004704
 715	3.5700e-01	11.4655	20.378696	0.000187	1.872554	0.634439	-0.015138
 716	3.5750e-01	11.3868	20.277349	0.000251	2.507319	0.849503	-0.020269
 717	3.5800e-01	11.3676	20.308993	-0.000078	-0.782876	-0.265246	0.006329
 718	3.5850e-01	11.3419	20.174719	0.000332	3.321933	1.125501	-0.026855
 719	3.5900e-01	11.3050	20.147351	0.000068	0.677082	0.229402	-0.005474
 720	3.5950e-01	11.2441	20.115707	0.000078	0.782876	0.265246	-0.006329
 721	3.6000e-01	11.2072	20.013504	0.000253	2.528477	0.856671	-0.020440
 722	3.6050e-01	11.1719	20.002814	0.000026	0.264485	0.089610	-0.002138
 723	3.6100e-01	11.1398	19.886072	0.000289	2.888177	0.978541	-0.023348
 724	3.6150e-01	11.0772	19.905315	-0.000048	-0.476073	-0.161298	0.003849
 725	3.6200e-01	11.0419	19.845020	0.000149	1.491696	0.505400	-0.012059
 726	3.6250e-01	10.9826	19.790284	0.000135	1.354164	0.458803	-0.010947
 727	3.6300e-01	10.9457	19.783870	0.000016	0.158691	0.053766	-0.001283
 728	3.6350e-01	10.9152	19.684233	0.000247	2.465001	0.835165	-0.019927
 729	3.6400e-01	10.9168	19.575616	-0.000269	-2.687168	-0.910437	-0.021723
 730	3.6450e-01	10.8430	19.539268	0.000090	0.899249	0.304674	-0.007270
 731	3.6500e-01	10.7885	19.550386	-0.000028	-0.275064	-0.093194	0.002224
 732	3.6550e-01	10.7500	19.481538	0.000170	1.703284	0.577088	-0.013770
 733	3.6600e-01	10.7243	19.431079	0.000125	1.248370	0.422959	-0.010092
 734	3.6650e-01	10.6890	19.365652	0.000162	1.618649	0.548413	-0.013085
 735	3.6700e-01	10.6441	19.343415	0.000055	0.550129	0.186389	-0.004447
 736	3.6750e-01	10.6264	19.250193	0.000231	2.306310	0.781399	-0.018644
 737	3.6800e-01	10.5671	19.167661	0.000204	2.041825	0.691789	-0.016506
 738	3.6850e-01	10.5238	19.149274	0.000045	0.454914	0.154129	-0.003678
 739	3.6900e-01	10.4837	19.036808	0.000278	2.782383	0.942697	-0.022493
 740	3.6950e-01	10.4307	19.040657	-0.000010	-0.095215	-0.032260	0.000770
 741	3.7000e-01	10.4083	19.016710	0.000059	0.592447	0.200726	-0.004789
 742	3.7050e-01	10.3858	18.930329	0.000214	2.137039	0.724049	-0.017276
 743	3.7100e-01	10.3264	18.847798	0.000204	2.041825	0.691789	-0.016506
 744	3.7150e-01	10.2879	18.813588	0.000085	0.846352	0.286752	-0.006842
 745	3.7200e-01	10.2478	18.746451	0.000166	1.660966	0.562751	-0.013427
 746	3.7250e-01	10.2061	18.686583	0.000148	1.481116	0.501816	-0.011974
 747	3.7300e-01	10.1468	18.697701	-0.000028	-0.275064	-0.093194	0.002224
 748	3.7350e-01	10.1500	18.577111	-0.000298	-2.983392	-1.010800	-0.024118
 749	3.7400e-01	10.0970	18.542473	0.000086	0.856932	0.290336	-0.006928
 750	3.7450e-01	10.0521	18.465928	0.000189	1.893713	0.641607	-0.015309
 751	3.7500e-01	10.0152	18.411620	0.000134	1.343584	0.455219	-0.010862
 752	3.7550e-01	9.9575	18.393232	0.000045	0.454914	0.154129	-0.003678
 753	3.7600e-01	9.9350	18.271359	0.000302	3.015130	1.021554	-0.024375
 754	3.7650e-01	9.8901	18.268366	0.000007	0.074056	0.025091	-0.000599
 755	3.7700e-01	9.8388	18.184979	0.000206	2.062984	0.698958	-0.016677
 756	3.7750e-01	9.7906	18.187544	-0.000006	-0.063476	-0.021506	0.000513
 757	3.7800e-01	9.7602	18.118269	0.000171	1.713863	0.580673	-0.013855
 758	3.7850e-01	9.7377	18.012218	0.000262	2.623692	0.888931	-0.021210
 759	3.7900e-01	9.6960	17.940805	0.000177	1.766760	0.598595	-0.014283
 760	3.7950e-01	9.6318	17.930114	0.000026	0.264485	0.089610	-0.002138
 761	3.8000e-01	9.6366	17.829194	-0.000250	-2.496739	-0.845918	-0.020184
 762	3.8050e-01	9.5853	17.758636	0.000175	1.745601	0.591426	-0.014112
 763	3.8100e-01	9.5275	17.738538	0.000050	0.497232	0.168467	-0.004020
 764	3.8150e-01	9.4537	17.748373	-0.000024	-0.243326	-0.082441	0.001967
 765	3.8200e-01	9.4265	17.656861	0.000226	2.263992	0.767061	-0.018302
 766	3.8250e-01	9.4201	17.550810	0.000262	2.623692	0.888931	-0.021210
 767	3.8300e-01	9.3767	17.491370	0.000147	1.470537	0.498231	-0.011888
 768	3.8350e-01	9.3238	17.480252	0.000028	0.275064	0.093194	-0.002224
 769	3.8400e-01	9.3062	17.436207	0.000109	1.089679	0.369193	-0.008809
 770	3.8450e-01	9.2292	17.384464	0.000128	1.280108	0.433712	-0.010349
 771	3.8500e-01	9.2163	17.310057	0.000184	1.840816	0.623685	-0.014881
 772	3.8550e-01	9.1939	17.191177	0.000294	2.941074	0.996463	-0.023776
 773	3.8600e-01	9.1377	17.116771	0.000184	1.840816	0.623685	-0.014881
 774	3.8650e-01	9.0751	17.124468	-0.000019	-0.190429	-0.064519	0.001539
 775	3.8700e-01	9.0527	17.109501	0.000037	0.370279	0.125454	-0.002993
 776	3.8750e-01	9.0110	16.978220	0.000325	3.247877	1.100410	-0.026256
 777	3.8800e-01	8.9741	16.948286	0.000074	0.740558	0.250908	-0.005987
 778	3.8850e-01	8.9227	16.893550	0.000135	1.354164	0.458803	-0.010947
 779	3.8900e-01	8.9003	16.812729	0.000200	1.999507	0.677451	-0.016164
 780	3.8950e-01	8.8473	16.772105	0.000101	1.005043	0.340518	-0.008125
 781	3.9000e-01	8.8377	16.683586	0.000219	2.189936	0.741971	-0.017704
 782	3.9050e-01	8.7719	16.619015	0.000160	1.597490	0.541244	-0.012914
 783	3.9100e-01	8.7238	16.602337	0.000041	0.412597	0.139792	-0.003335
 784	3.9150e-01	8.6773	16.565562	0.000091	0.909829	0.308258	-0.007355
 785	3.9200e-01	8.6645	16.512536	0.000131	1.311846	0.444465	-0.010605
 786	3.9250e-01	8.6147	16.402209	0.000273	2.729486	0.924775	-0.022065
 787	3.9300e-01	8.5650	16.362867	0.000097	0.973305	0.329765	-0.007868
 788	3.9350e-01	8.5329	16.314546	0.000120	1.195473	0.405037	-0.009664
 789	3.9400e-01	8.4928	16.254678	0.000148	1.481116	0.501816	-0.011974
 790	3.9450e-01	8.4639	16.168298	0.000214	2.137039	0.724049	-0.017276
 791	3.9500e-01	8.4174	16.143923	0.000060	0.603026	0.204311	-0.004875
 792	3.9550e-01	8.3564	16.086621	0.000142	1.417640	0.480309	-0.011460
 793	3.9600e-01	8.3340	16.014780	0.000178	1.777340	0.602179	-0.014368
 794	3.9650e-01	8.2762	15.946788	0.000168	1.682125	0.569919	-0.013598
 795	3.9700e-01	8.2393	15.939091	0.000019	0.190429	0.064519	-0.001539
 796	3.9750e-01	8.2361	15.815507	0.000306	3.057447	1.035891	-0.024717
 797	3.9800e-01	8.1639	15.784718	0.000076	0.761717	0.258077	-0.006158
 798	3.9850e-01	8.1415	15.713305	0.000177	1.766760	0.598595	-0.014283
 799	3.9900e-01	8.0837	15.649588	0.000158	1.576331	0.534075	-0.012743
 800	3.9950e-01	8.0549	15.577320	0.000179	1.787919	0.605763	-0.014454
 801	4.0000e-01	8.0067	15.569195	0.000020	0.201009	0.068104	-0.001625
 802	4.0050e-01	7.9442	15.537123	0.000079	0.793455	0.268830	-0.006414
 803	4.0100e-01	7.9217	15.449887	0.000216	2.158198	0.731217	-0.017447
 804	4.0150e-01	7.8976	15.376763	0.000181	1.809078	0.612932	-0.014625
 805	4.0200e-01	7.8271	15.307916	0.000170	1.703284	0.577088	-0.013770
 806	4.0250e-01	7.8190	15.224956	0.000205	2.052404	0.695373	-0.016592
 807	4.0300e-01	7.7517	15.177490	0.000117	1.174314	0.397868	-0.009493
 808	4.0350e-01	7.7228	15.138149	0.000097	0.973305	0.329765	-0.007868
 809	4.0400e-01	7.6923	15.058183	0.000198	1.978348	0.670283	-0.015993
 810	4.0450e-01	7.6361	14.981638	0.000189	1.893713	0.641607	-0.015309
 811	4.0500e-01	7.5944	14.995749	-0.000035	-0.349120	-0.118285	0.002822
 812	4.0550e-01	7.5527	14.880290	0.000286	2.856439	0.967788	-0.023092
 813	4.0600e-01	7.5158	14.858482	0.000054	0.539550	0.182804	-0.004362
 814	4.0650e-01	7.4677	14.769536	0.000220	2.200516	0.745555	-0.017789
 815	4.0700e-01	7.4212	14.704109	0.000162	1.618649	0.548413	-0.013085
 816	4.0750e-01	7.3939	14.672037	0.000079	0.793455	0.268830	-0.006414
 817	4.0800e-01	7.3602	14.595920	0.000188	1.883134	0.638023	-0.015223
 818	4.0850e-01	7.3233	14.508257	0.000217	2.168778	0.734802	-0.017533
 819	4.0900e-01	7.3025	14.403916	0.000258	2.581374	0.874593	-0.020868
 820	4.0950e-01	7.2319	14.399212	0.000012	0.116373	0.039428	-0.000941
 821	4.1000e-01	7.2174	14.355594	0.000108	1.079099	0.365609	-0.008724
 822	4.1050e-01	7.1773	14.251681	0.000257	2.570795	0.871009	-0.020783
 823	4.1100e-01	7.1308	14.149907	0.000252	2.517898	0.853087	-0.020355
 824	4.1150e-01	7.0795	14.128098	0.000054	0.539550	0.182804	-0.004362
 825	4.1200e-01	7.0442	14.091749	0.000090	0.899249	0.304674	-0.007270
 826	4.1250e-01	7.0233	14.010073	0.000202	2.020666	0.684620	-0.016335
 827	4.1300e-01	6.9543	13.979284	0.000076	0.761717	0.258077	-0.006158
 828	4.1350e-01	6.9335	13.940798	0.000095	0.952146	0.322596	-0.007697
 829	4.1400e-01	6.8870	13.800109	0.000348	3.480624	1.179267	-0.028138
 830	4.1450e-01	6.8404	13.724419	0.000187	1.872554	0.634439	-0.015138
 831	4.1500e-01	6.8228	13.700900	0.000058	0.581867	0.197142	-0.004704
 832	4.1550e-01	6.7602	13.656855	0.000109	1.089679	0.369193	-0.008809
 833	4.1600e-01	6.7249	13.564488	0.000229	2.285151	0.774230	-0.018473
 834	4.1650e-01	6.6736	13.530705	0.000084	0.835773	0.283168	-0.006756
 835	4.1700e-01	6.6415	13.441331	0.000221	2.211095	0.749139	-0.017875
 836	4.1750e-01	6.5918	13.406694	0.000086	0.856932	0.290336	-0.006928
 837	4.1800e-01	6.5645	13.310906	0.000237	2.369786	0.802905	-0.019158
 838	4.1850e-01	6.5260	13.249328	0.000152	1.523434	0.516153	-0.012316
 839	4.1900e-01	6.4891	13.169362	0.000198	1.978348	0.670283	-0.015993
 840	4.1950e-01	6.4747	13.059890	0.000271	2.708327	0.917606	-0.021894
 841	4.2000e-01	6.3913	13.079988	-0.000050	-0.497232	-0.168467	0.004020
 842	4.2050e-01	6.3800	13.017555	0.000154	1.544593	0.523322	-0.012487
 843	4.2100e-01	6.3111	12.960681	0.000141	1.407061	0.476725	-0.011375
 844	4.2150e-01	6.2693	12.917063	0.000108	1.079099	0.365609	-0.008724
 845	4.2200e-01	6.2340	12.834959	0.000203	2.031245	0.688205	-0.016421
 846	4.2250e-01	6.2084	12.746013	0.000220	2.200516	0.745555	-0.017789
 847	4.2300e-01	6.1635	12.725487	0.000051	0.507811	0.172051	-0.004105
 848	4.2350e-01	6.1378	12.600620	0.000309	3.089186	1.046644	-0.024973
 849	4.2400e-01	6.0768	12.559141	0.000103	1.026202	0.347687	-0.008296
 850	4.2450e-01	6.0656	12.489010	0.000174	1.735022	0.587841	-0.014026
 851	4.2500e-01	6.0030	12.454372	0.000086	0.856932	0.290336	-0.006928
 852	4.2550e-01	5.9437	12.397498	0.000141	1.407061	0.476725	-0.011375
 853	4.2600e-01	5.9292	12.304703	0.000230	2.295730	0.777815	-0.018559
 854	4.2650e-01	5.9100	12.226020	0.000195	1.946610	0.659529	-0.015737
 855	4.2700e-01	5.8266	12.147765	0.000194	1.936031	0.655945	-0.015651
 856	4.2750e-01	5.8025	12.107996	0.000098	0.983884	0.333349	-0.007954
 857	4.2800e-01	5.7367	12.084476	0.000058	0.581867	0.197142	-0.004704
 858	4.2850e-01	5.7383	11.959182	-0.000310	-3.099765	-1.050229	-0.025059
 859	4.2900e-01	5.6742	11.930104	0.000072	0.719399	0.243739	-0.005816
 860	4.2950e-01	5.6549	11.846717	0.000206	2.062984	0.698958	-0.016677
 861	4.3000e-01	5.6036	11.771455	0.000186	1.861975	0.630854	-0.015052
 862	4.3050e-01	5.5715	11.678660	0.000230	2.295730	0.777815	-0.018559
 863	4.3100e-01	5.5105	11.632477	0.000114	1.142576	0.387115	-0.009237
 864	4.3150e-01	5.4929	11.564912	0.000167	1.671546	0.566335	-0.013513
 865	4.3200e-01	5.4303	11.501623	0.000157	1.565752	0.530491	-0.012658
 866	4.3250e-01	5.3998	11.452446	0.000122	1.216631	0.412206	-0.009835
 867	4.3300e-01	5.3485	11.417809	0.000086	0.856932	0.290336	-0.006928
 868	4.3350e-01	5.2972	11.331856	0.000213	2.126460	0.720464	-0.017191
 869	4.3400e-01	5.2731	11.260870	0.000176	1.756181	0.595010	-0.014197
 870	4.3450e-01	5.2539	11.161661	0.000245	2.454421	0.831581	-0.019842
 871	4.3500e-01	5.2089	11.086399	0.000186	1.861975	0.630854	-0.015052
 872	4.3550e-01	5.1913	11.008999	0.000191	1.914872	0.648776	-0.015480
 873	4.3600e-01	5.1287	10.960250	0.000121	1.206052	0.408621	-0.009750
 874	4.3650e-01	5.1047	10.893540	0.000165	1.650387	0.559166	-0.013342
 875	4.3700e-01	5.0437	10.777654	0.000287	2.867018	0.971372	-0.023177
 876	4.3750e-01	5.0036	10.759693	0.000044	0.444335	0.150545	-0.003592
 877	4.3800e-01	4.9539	10.720352	0.000097	0.973305	0.329765	-0.007868
 878	4.3850e-01	4.9266	10.624564	0.000237	2.369786	0.802905	-0.019158
 879	4.3900e-01	4.8737	10.541604	0.000205	2.052404	0.695373	-0.016592
 880	4.3950e-01	4.8336	10.518940	0.000056	0.560708	0.189973	-0.004533
 881	4.4000e-01	4.8191	10.395357	0.000306	3.057447	1.035891	-0.024717
 882	4.4050e-01	4.7533	10.332923	0.000154	1.544593	0.523322	-0.012487
 883	4.4100e-01	4.7132	10.262365	0.000175	1.745601	0.591426	-0.014112
 884	4.4150e-01	4.6844	10.214471	0.000118	1.184893	0.401453	-0.009579
 885	4.4200e-01	4.6426	10.117400	0.000240	2.401524	0.813659	-0.019414
 886	4.4250e-01	4.6058	10.051974	0.000162	1.618649	0.548413	-0.013085
 887	4.4300e-01	4.5689	9.995099	0.000141	1.407061	0.476725	-0.011375
 888	4.4350e-01	4.5287	9.900167	0.000235	2.348627	0.795737	-0.018987
 889	4.4400e-01	4.4886	9.855694	0.000110	1.100258	0.372777	-0.008895
 890	4.4450e-01	4.4421	9.782142	0.000182	1.819657	0.616517	-0.014710
 891	4.4500e-01	4.4100	9.741518	0.000101	1.005043	0.340518	-0.008125
 892	4.4550e-01	4.3924	9.612375	0.000319	3.194980	1.082488	-0.025829
 893	4.4600e-01	4.3170	9.561060	0.000127	1.269528	0.430128	-0.010263
 894	4.4650e-01	4.2753	9.537113	0.000059	0.592447	0.200726	-0.004789
 895	4.4700e-01	4.2368	9.411818	0.000310	3.099765	1.050229	-0.025059
 896	4.4750e-01	4.2031	9.370766	0.000102	1.015623	0.344102	-0.008210
 897	4.4800e-01	4.1694	9.288662	0.000203	2.031245	0.688205	-0.016421
 898	4.4850e-01	4.1325	9.213400	0.000186	1.861975	0.630854	-0.015052
 899	4.4900e-01	4.0780	9.145408	0.000168	1.682125	0.569919	-0.013598
 900	4.4950e-01	4.0491	9.043633	0.000252	2.517898	0.853087	-0.020355
 901	4.5000e-01	4.0074	9.006002	0.000093	0.930987	0.315427	-0.007526
 902	4.5050e-01	3.9785	8.869162	0.000339	3.385409	1.147008	-0.027368
 903	4.5100e-01	3.9464	8.758835	0.000273	2.729486	0.924775	-0.022065
 904	4.5150e-01	3.8614	8.769098	-0.000025	-0.253906	-0.086026	0.002053
 905	4.5200e-01	3.8325	8.754986	0.000035	0.349120	0.118285	-0.002822
 906	4.5250e-01	3.7972	8.668606	0.000214	2.137039	0.724049	-0.017276
 907	4.5300e-01	3.7780	8.564693	0.000257	2.570795	0.871009	-0.020783
 908	4.5350e-01	3.7218	8.484299	0.000199	1.988928	0.673867	-0.016079
 909	4.5400e-01	3.7074	8.390222	0.000233	2.327469	0.788568	-0.018816
 910	4.5450e-01	3.6480	8.333775	0.000140	1.396481	0.473141	-0.011289
 911	4.5500e-01	3.6272	8.202494	0.000325	3.247877	1.100410	-0.026256
 912	4.5550e-01	3.5678	8.150752	0.000128	1.280108	0.433712	-0.010349
 913	4.5600e-01	3.5245	8.107561	0.000107	1.068520	0.362024	-0.008638
 914	4.5650e-01	3.4972	8.049404	0.000144	1.438799	0.487478	-0.011631
 915	4.5700e-01	3.4154	8.027595	0.000054	0.539550	0.182804	-0.004362
 916	4.5750e-01	3.4186	7.893321	-0.000332	-3.321933	-1.125501	-0.026855
 917	4.5800e-01	3.3448	7.833026	0.000149	1.491696	0.505400	-0.012059
 918	4.5850e-01	3.3047	7.735100	0.000242	2.422683	0.820827	-0.019585
 919	4.5900e-01	3.2774	7.703883	0.000077	0.772296	0.261661	-0.006243
 920	4.5950e-01	3.2454	7.595694	0.000268	2.676589	0.906853	-0.021638
 921	4.6000e-01	3.2277	7.461420	0.000332	3.321933	1.125501	-0.026855
 922	4.6050e-01	3.1475	7.408822	0.000130	1.301267	0.440881	-0.010520
 923	4.6100e-01	3.1363	7.337408	0.000177	1.766760	0.598595	-0.014283
 924	4.6150e-01	3.0865	7.278396	0.000146	1.459958	0.494647	-0.011802
 925	4.6200e-01	3.0657	7.169352	0.000270	2.697748	0.914022	-0.021809
 926	4.6250e-01	2.9919	7.146260	0.000057	0.571288	0.193558	-0.004618
 927	4.6300e-01	2.9550	7.058169	0.000218	2.179357	0.738386	-0.017618
 928	4.6350e-01	2.9261	6.975210	0.000205	2.052404	0.695373	-0.016592
 929	4.6400e-01	2.8972	6.853336	0.000302	3.015130	1.021554	-0.024375
 930	4.6450e-01	2.8475	6.818699	0.000086	0.856932	0.290336	-0.006928
 931	4.6500e-01	2.8026	6.698108	0.000298	2.983392	1.010800	-0.024118
 932	4.6550e-01	2.7432	6.683997	0.000035	0.349120	0.118285	-0.002822
 933	4.6600e-01	2.7224	6.586071	0.000242	2.422683	0.820827	-0.019585
 934	4.6650e-01	2.6855	6.524493	0.000152	1.523434	0.516153	-0.012316
 935	4.6700e-01	2.6518	6.390218	0.000332	3.321933	1.125501	-0.026855
 936	4.6750e-01	2.6005	6.345318	0.000111	1.110837	0.376362	-0.008980
 937	4.6800e-01	2.5700	6.242260	0.000255	2.549636	0.863840	-0.020612
 938	4.6850e-01	2.5267	6.195649	0.000115	1.153155	0.390699	-0.009322
 939	4.6900e-01	2.4785	6.083611	0.000277	2.771804	0.939112	-0.022408
 940	4.6950e-01	2.4416	6.021178	0.000154	1.544593	0.523322	-0.012487
 941	4.7000e-01	2.4031	5.930521	0.000224	2.242833	0.759893	-0.018131
 942	4.7050e-01	2.3871	5.827463	0.000255	2.549636	0.863840	-0.020612
 943	4.7100e-01	2.3358	5.773155	0.000134	1.343584	0.455219	-0.010862
 944	4.7150e-01	2.2924	5.646150	0.000314	3.142083	1.064566	-0.025401
 945	4.7200e-01	2.2427	5.643585	0.000006	0.063476	0.021506	-0.000513
 946	4.7250e-01	2.2154	5.529836	0.000281	2.814121	0.953450	-0.022750
 947	4.7300e-01	2.1930	5.395990	0.000331	3.311353	1.121917	-0.026769
 948	4.7350e-01	2.1240	5.379312	0.000041	0.412597	0.139792	-0.003335
 949	4.7400e-01	2.0967	5.243755	0.000335	3.353671	1.136254	-0.027111
 950	4.7450e-01	2.0566	5.166782	0.000190	1.904293	0.645192	-0.015395
 951	4.7500e-01	1.9796	5.142835	0.000059	0.592447	0.200726	-0.004789
 952	4.7550e-01	1.9572	5.029515	0.000280	2.803542	0.949866	-0.022664
 953	4.7600e-01	1.9219	4.938430	0.000225	2.253413	0.763477	-0.018217
 954	4.7650e-01	1.8898	4.843070	0.000236	2.359207	0.799321	-0.019072
 955	4.7700e-01	1.8481	4.778499	0.000160	1.597490	0.541244	-0.012914
 956	4.7750e-01	1.7999	4.680572	0.000242	2.422683	0.820827	-0.019585
 957	4.7800e-01	1.7582	4.583074	0.000241	2.412104	0.817243	-0.019500
 958	4.7850e-01	1.7181	4.548009	0.000087	0.867511	0.293921	-0.007013
 959	4.7900e-01	1.6973	4.436398	0.000276	2.761224	0.935528	-0.022322
 960	4.7950e-01	1.6363	4.368406	0.000168	1.682125	0.569919	-0.013598
 961	4.8000e-01	1.6123	4.234132	0.000332	3.321933	1.125501	-0.026855
 962	4.8050e-01	1.5705	4.159725	0.000184	1.840816	0.623685	-0.014881
 963	4.8100e-01	1.5144	4.122094	0.000093	0.930987	0.315427	-0.007526
 964	4.8150e-01	1.4663	4.006635	0.000286	2.856439	0.967788	-0.023092
 965	4.8200e-01	1.4390	3.918544	0.000218	2.179357	0.738386	-0.017618
 966	4.8250e-01	1.4069	3.828315	0.000223	2.232254	0.756308	-0.018046
 967	4.8300e-01	1.3796	3.717133	0.000275	2.750645	0.931944	-0.022237
 968	4.8350e-01	1.3283	3.641871	0.000186	1.861975	0.630854	-0.015052
 969	4.8400e-01	1.2850	3.589700	0.000129	1.290687	0.437297	-0.010434
 970	4.8450e-01	1.2497	3.434045	0.000385	3.850903	1.304721	-0.031131
 971	4.8500e-01	1.2288	3.324145	0.000272	2.718907	0.921190	-0.021980
 972	4.8550e-01	1.1583	3.308323	0.000039	0.391438	0.132623	-0.003164
 973	4.8600e-01	1.1310	3.197996	0.000273	2.729486	0.924775	-0.022065
 974	4.8650e-01	1.0909	3.119313	0.000195	1.946610	0.659529	-0.015737
 975	4.8700e-01	1.0540	3.000005	0.000295	2.951653	1.000047	-0.023861
 976	4.8750e-01	0.9962	2.939282	0.000150	1.502275	0.508985	-0.012145
 977	4.8800e-01	0.9674	2.849053	0.000223	2.232254	0.756308	-0.018046
 978	4.8850e-01	0.9128	2.772936	0.000188	1.883134	0.638023	-0.015223
 979	4.8900e-01	0.8871	2.652773	0.000297	2.972812	1.007216	-0.024033
 980	4.8950e-01	0.8647	2.559123	0.000232	2.316889	0.784983	-0.018730
 981	4.9000e-01	0.8198	2.418007	0.000349	3.491203	1.182852	-0.028223
 982	4.9050e-01	0.7732	2.365409	0.000130	1.301267	0.440881	-0.010520
 983	4.9100e-01	0.7075	2.318798	0.000115	1.153155	0.390699	-0.009322
 984	4.9150e-01	0.6754	2.213602	0.000260	2.602533	0.881762	-0.021039
 985	4.9200e-01	0.6160	2.173833	0.000098	0.983884	0.333349	-0.007954
 986	4.9250e-01	0.6112	2.011335	0.000402	4.020173	1.362072	-0.032500
 987	4.9300e-01	0.5647	1.889035	0.000303	3.025709	1.025138	-0.024460
 988	4.9350e-01	0.5310	1.789826	0.000245	2.454421	0.831581	-0.019842
 989	4.9400e-01	0.4861	1.719267	0.000175	1.745601	0.591426	-0.014112
 990	4.9450e-01	0.4476	1.661110	0.000144	1.438799	0.487478	-0.011631
 991	4.9500e-01	0.4203	1.520849	0.000347	3.470044	1.175683	-0.028052
 992	4.9550e-01	0.3593	1.456278	0.000160	1.597490	0.541244	-0.012914
 993	4.9600e-01	0.3016	1.383582	0.000180	1.798499	0.609348	-0.014539
 994	4.9650e-01	0.3128	1.236478	-0.000364	-3.639315	-1.233033	-0.029421
 995	4.9700e-01	0.2631	1.141546	0.000235	2.348627	0.795737	-0.018987
 996	4.9750e-01	0.2005	1.079540	0.000153	1.534013	0.519738	-0.012401
 997	4.9800e-01	0.1460	0.988456	0.000225	2.253413	0.763477	-0.018217
 998	4.9850e-01	0.1171	0.905497	0.000205	2.052404	0.695373	-0.016592
 999	4.9900e-01	0.0882	0.777209	0.000317	3.173821	1.075320	-0.025658
1000	4.9950e-01	0.0289	0.731881	0.000112	1.121417	0.379946	-0.009066
1001	5.0000e-01	0.0642	0.506095	-0.000559	-5.585925	-1.892563	-0.045157
1002	5.0050e-01	-0.0225	0.494121	0.000030	0.296223	0.100363	-0.002395
1003	5.0100e-01	-0.0770	0.409451	0.000209	2.094722	0.709711	-0.016934
1004	5.0150e-01	-0.1203	0.342742	0.000165	1.650387	0.559166	-0.013342
1005	5.0200e-01	-0.1524	0.202908	0.000346	3.459465	1.172098	-0.027967
1006	5.0250e-01	-0.1909	0.155442	0.000117	1.174314	0.397868	-0.009493
1007	5.0300e-01	-0.2406	0.040411	0.000285	2.845859	0.964203	-0.023006
1008	5.0350e-01	-0.3048	-0.009622	0.000124	1.237790	0.419375	-0.010006
1009	5.0400e-01	-0.3048	-0.135771	0.000312	3.120924	1.057398	-0.025230
1010	5.0450e-01	-0.3369	-0.270473	0.000333	3.332512	1.129086	-0.026940
1011	5.0500e-01	-0.3818	-0.367544	0.000240	2.401524	0.813659	-0.019414
1012	5.0550e-01	-0.4347	-0.482147	0.000284	2.835280	0.960619	-0.022921
1013	5.0600e-01	-0.4909	-0.517213	0.000087	0.867511	0.293921	-0.007013
1014	5.0650e-01	-0.4989	-0.652770	0.000335	3.353671	1.136254	-0.027111
1015	5.0700e-01	-0.5422	-0.766946	0.000282	2.824701	0.957034	-0.022835
1016	5.0750e-01	-0.5888	-0.851188	0.000208	2.084142	0.706127	-0.016848
1017	5.0800e-01	-0.6353	-0.971351	0.000297	2.972812	1.007216	-0.024033
1018	5.0850e-01	-0.6818	-1.016251	0.000111	1.110837	0.376362	-0.008980
1019	5.0900e-01	-0.7171	-1.117599	0.000251	2.507319	0.849503	-0.020269
1020	5.0950e-01	-0.7299	-1.291215	0.000430	4.295238	1.455266	-0.034723
1021	5.1000e-01	-0.7893	-1.337398	0.000114	1.142576	0.387115	-0.009237
1022	5.1050e-01	-0.8150	-1.431476	0.000233	2.327469	0.788568	-0.018816
1023	5.1100e-01	-0.8968	-1.472100	0.000101	1.005043	0.340518	-0.008125
1024	5.1150e-01	-0.8807	-1.676505	-0.000506	-5.056955	-1.713343	-0.040881
1025	5.1200e-01	-0.9401	-1.743214	0.000165	1.650387	0.559166	-0.013342
1026	5.1250e-01	-0.9994	-1.812490	0.000171	1.713863	0.580673	-0.013855
1027	5.1300e-01	-1.0283	-1.949330	0.000339	3.385409	1.147008	-0.027368
1028	5.1350e-01	-1.0813	-2.002355	0.000131	1.311846	0.444465	-0.010605
1029	5.1400e-01	-1.0973	-2.113110	0.000274	2.740065	0.928359	-0.022151
1030	5.1450e-01	-1.1390	-2.223438	0.000273	2.729486	0.924775	-0.022065
1031	5.1500e-01	-1.2000	-2.312811	0.000221	2.211095	0.749139	-0.017875
1032	5.1550e-01	-1.2096	-2.419718	0.000264	2.644851	0.896100	-0.021381
1033	5.1600e-01	-1.2818	-2.462053	0.000105	1.047361	0.354855	-0.008467
1034	5.1650e-01	-1.3139	-2.611721	0.000370	3.702791	1.254540	-0.029934
1035	5.1700e-01	-1.3556	-2.693398	0.000202	2.020666	0.684620	-0.016335
1036	5.1750e-01	-1.3893	-2.762673	0.000171	1.713863	0.580673	-0.013855
1037	5.1800e-01	-1.4358	-2.882408	0.000296	2.962233	1.003632	-0.023947
1038	5.1850e-01	-1.4615	-2.967078	0.000209	2.094722	0.709711	-0.016934
1039	5.1900e-01	-1.5192	-3.068425	0.000251	2.507319	0.849503	-0.020269
1040	5.1950e-01	-1.5401	-3.167634	0.000245	2.454421	0.831581	-0.019842
1041	5.2000e-01	-1.6026	-3.234344	0.000165	1.650387	0.559166	-0.013342
1042	5.2050e-01	-1.6283	-3.372467	0.000342	3.417147	1.157761	-0.027625
1043	5.2100e-01	-1.6732	-3.425920	0.000132	1.322425	0.448050	-0.010691
1044	5.2150e-01	-1.7117	-3.537530	0.000276	2.761224	0.935528	-0.022322
1045	5.2200e-01	-1.7631	-3.579437	0.000104	1.036781	0.351271	-0.008381
1046	5.2250e-01	-1.7887	-3.740224	0.000398	3.977856	1.347734	-0.032157
1047	5.2300e-01	-1.8417	-3.825322	0.000211	2.105301	0.713295	-0.017019
1048	5.2350e-01	-1.8882	-3.854828	0.000073	0.729979	0.247324	-0.005901
1049	5.2400e-01	-1.9074	-4.025451	0.000422	4.221182	1.430175	-0.034124
1050	5.2450e-01	-1.9636	-4.058378	0.000081	0.814614	0.275999	-0.006585
1051	5.2500e-01	-1.9925	-4.167850	0.000271	2.708327	0.917606	-0.021894
1052	5.2550e-01	-2.0438	-4.246960	0.000196	1.957190	0.663114	-0.015822
1053	5.2600e-01	-2.0871	-4.321795	0.000185	1.851396	0.627270	-0.014967
1054	5.2650e-01	-2.1128	-4.435543	0.000281	2.814121	0.953450	-0.022750
1055	5.2700e-01	-2.1641	-4.509522	0.000183	1.830237	0.620101	-0.014796
1056	5.2750e-01	-2.1898	-4.604028	0.000234	2.338048	0.792152	-0.018901
1057	5.2800e-01	-2.2363	-4.691691	0.000217	2.168778	0.734802	-0.017533
1058	5.2850e-01	-2.2475	-4.799452	0.000267	2.666010	0.903268	-0.021552
1059	5.2900e-01	-2.3149	-4.879846	0.000199	1.988928	0.673867	-0.016079
1060	5.2950e-01	-2.3293	-4.986325	0.000263	2.634271	0.892515	-0.021296
1061	5.3000e-01	-2.3967	-5.060731	0.000184	1.840816	0.623685	-0.014881
1062	5.3050e-01	-2.4224	-5.156519	0.000237	2.369786	0.802905	-0.019158
1063	5.3100e-01	-2.4801	-5.229643	0.000181	1.809078	0.612932	-0.014625
1064	5.3150e-01	-2.5058	-5.342964	0.000280	2.803542	0.949866	-0.022664
1065	5.3200e-01	-2.5427	-5.404114	0.000151	1.512855	0.512569	-0.012230
1066	5.3250e-01	-2.5940	-5.460133	0.000139	1.385902	0.469556	-0.011204
1067	5.3300e-01	-2.6293	-5.590987	0.000324	3.237297	1.096826	-0.026171
1068	5.3350e-01	-2.6871	-5.592697	0.000004	0.042318	0.014338	-0.000342
1069	5.3400e-01	-2.6855	-5.763747	-0.000423	-4.231761	-1.433760	-0.034210
1070	5.3450e-01	-2.7545	-5.839437	0.000187	1.872554	0.634439	-0.015138
1071	5.3500e-01	-2.7689	-5.965586	0.000312	3.120924	1.057398	-0.025230
1072	5.3550e-01	-2.8202	-6.030585	0.000161	1.608069	0.544829	-0.013000
1073	5.3600e-01	-2.8668	-6.085749	0.000136	1.364743	0.462387	-0.011033
1074	5.3650e-01	-2.8844	-6.214037	0.000317	3.173821	1.075320	-0.025658
1075	5.3700e-01	-2.9566	-6.226438	0.000031	0.306803	0.103948	-0.002480
1076	5.3750e-01	-3.0047	-6.309825	0.000206	2.062984	0.698958	-0.016677
1077	5.3800e-01	-3.0240	-6.441961	0.000327	3.269036	1.107579	-0.026427
1078	5.3850e-01	-3.1010	-6.478309	0.000090	0.899249	0.304674	-0.007270
1079	5.3900e-01	-3.1010	-6.557847	0.000197	1.967769	0.666698	-0.015908
1080	5.3950e-01	-3.1138	-6.689556	0.000326	3.258456	1.103995	-0.026342
1081	5.4000e-01	-3.1940	-6.730608	0.000102	1.015623	0.344102	-0.008210
1082	5.4050e-01	-3.1940	-6.869159	0.000343	3.427727	1.161345	-0.027710
1083	5.4100e-01	-3.2983	-6.908928	0.000098	0.983884	0.333349	-0.007954
1084	5.4150e-01	-3.3143	-6.964091	0.000136	1.364743	0.462387	-0.011033
1085	5.4200e-01	-3.3448	-7.079123	0.000285	2.845859	0.964203	-0.023006
1086	5.4250e-01	-3.4042	-7.090668	0.000029	0.285644	0.096779	-0.002309
1087	5.4300e-01	-3.4363	-7.177476	0.000215	2.147619	0.727633	-0.017362
1088	5.4350e-01	-3.4475	-7.313034	0.000335	3.353671	1.136254	-0.027111
1089	5.4400e-01	-3.5004	-7.384875	0.000178	1.777340	0.602179	-0.014368
1090	5.4450e-01	-3.5614	-7.457999	0.000181	1.809078	0.612932	-0.014625
1091	5.4500e-01	-3.5951	-7.520860	0.000156	1.555172	0.526907	-0.012572
1092	5.4550e-01	-3.6528	-7.570464	0.000123	1.227211	0.415790	-0.009921
1093	5.4600e-01	-3.6593	-7.701317	0.000324	3.237297	1.096826	-0.026171
1094	5.4650e-01	-3.7106	-7.759474	0.000144	1.438799	0.487478	-0.011631
1095	5.4700e-01	-3.7363	-7.832598	0.000181	1.809078	0.612932	-0.014625
1096	5.4750e-01	-3.8036	-7.950195	0.000291	2.909336	0.985710	-0.023519
1097	5.4800e-01	-3.8293	-7.966445	0.000040	0.402017	0.136207	-0.003250
1098	5.4850e-01	-3.8598	-8.045983	0.000197	1.967769	0.666698	-0.015908
1099	5.4900e-01	-3.9079	-8.129798	0.000207	2.073563	0.702542	-0.016763
1100	5.4950e-01	-3.9528	-8.204632	0.000185	1.851396	0.627270	-0.014967
1101	5.5000e-01	-3.9945	-8.265355	0.000150	1.502275	0.508985	-0.012145
1102	5.5050e-01	-4.0074	-8.400912	0.000335	3.353671	1.136254	-0.027111
1103	5.5100e-01	-4.1004	-8.391505	-0.000023	-0.232747	-0.078857	0.001882
1104	5.5150e-01	-4.1100	-8.480878	0.000221	2.211095	0.749139	-0.017875
1105	5.5200e-01	-4.1036	-8.657487	-0.000437	-4.369293	-1.480357	-0.035322
1106	5.5250e-01	-4.1870	-8.664757	0.000018	0.179850	0.060935	-0.001454
1107	5.5300e-01	-4.2368	-8.674165	0.000023	0.232747	0.078857	-0.001882
1108	5.5350e-01	-4.2849	-8.776795	0.000254	2.539057	0.860256	-0.020526
1109	5.5400e-01	-4.3074	-8.858899	0.000203	2.031245	0.688205	-0.016421
1110	5.5450e-01	-4.3651	-8.920477	0.000152	1.523434	0.516153	-0.012316
1111	5.5500e-01	-4.3940	-8.974358	0.000133	1.333005	0.451634	-0.010776
1112	5.5550e-01	-4.4277	-9.107777	0.000330	3.300774	1.118332	-0.026684
1113	5.5600e-01	-4.4726	-9.104784	-0.000007	-0.074056	-0.025091	0.000599
1114	5.5650e-01	-4.5448	-9.167644	0.000156	1.555172	0.526907	-0.012572
1115	5.5700e-01	-4.5753	-9.247183	0.000197	1.967769	0.666698	-0.015908
1116	5.5750e-01	-4.6025	-9.362642	0.000286	2.856439	0.967788	-0.023092
1117	5.5800e-01	-4.6234	-9.427213	0.000160	1.597490	0.541244	-0.012914
1118	5.5850e-01	-4.6523	-9.520008	0.000230	2.295730	0.777815	-0.018559
1119	5.5900e-01	-4.7180	-9.573888	0.000133	1.333005	0.451634	-0.010776
1120	5.5950e-01	-4.7501	-9.644447	0.000175	1.745601	0.591426	-0.014112
1121	5.6000e-01	-4.7902	-9.734248	0.000222	2.221675	0.752724	-0.017960
1122	5.6050e-01	-4.8400	-9.791122	0.000141	1.407061	0.476725	-0.011375
1123	5.6100e-01	-4.8688	-9.890759	0.000247	2.465001	0.835165	-0.019927
1124	5.6150e-01	-4.9346	-9.888621	-0.000005	-0.052897	-0.017922	0.000428
1125	5.6200e-01	-4.9571	-9.992534	0.000257	2.570795	0.871009	-0.020783
1126	5.6250e-01	-5.0196	-10.063092	0.000175	1.745601	0.591426	-0.014112
1127	5.6300e-01	-5.0229	-10.146906	0.000207	2.073563	0.702542	-0.016763
1128	5.6350e-01	-5.0630	-10.207201	0.000149	1.491696	0.505400	-0.012059
1129	5.6400e-01	-5.1159	-10.264931	0.000143	1.428219	0.483894	-0.011546
1130	5.6450e-01	-5.1672	-10.294009	0.000072	0.719399	0.243739	-0.005816
1131	5.6500e-01	-5.1817	-10.403909	0.000272	2.718907	0.921190	-0.021980
1132	5.6550e-01	-5.2186	-10.524927	0.000299	2.993971	1.014385	-0.024204
1133	5.6600e-01	-5.2827	-10.549729	0.000061	0.613605	0.207895	-0.004960
1134	5.6650e-01	-5.3036	-10.622853	0.000181	1.809078	0.612932	-0.014625
1135	5.6700e-01	-5.3710	-10.614728	-0.000020	-0.201009	-0.068104	0.001625
1136	5.6750e-01	-5.3822	-10.754134	0.000345	3.448885	1.168514	-0.027881
1137	5.6800e-01	-5.4255	-10.789627	0.000088	0.878090	0.297505	-0.007099
1138	5.6850e-01	-5.4672	-10.925184	0.000335	3.353671	1.136254	-0.027111
1139	5.6900e-01	-5.5009	-10.962388	0.000092	0.920408	0.311843	-0.007441
1140	5.6950e-01	-5.5490	-11.022683	0.000149	1.491696	0.505400	-0.012059
1141	5.7000e-01	-5.5988	-11.050051	0.000068	0.677082	0.229402	-0.005474
1142	5.7050e-01	-5.6421	-11.170641	0.000298	2.983392	1.010800	-0.024118
1143	5.7100e-01	-5.6870	-11.168503	-0.000005	-0.052897	-0.017922	0.000428
1144	5.7150e-01	-5.7095	-11.306198	0.000341	3.406568	1.154176	-0.027539
1145	5.7200e-01	-5.7704	-11.324159	0.000044	0.444335	0.150545	-0.003592
1146	5.7250e-01	-5.7881	-11.434486	0.000273	2.729486	0.924775	-0.022065
1147	5.7300e-01	-5.8250	-11.511459	0.000190	1.904293	0.645192	-0.015395
1148	5.7350e-01	-5.8667	-11.554221	0.000106	1.057940	0.358440	-0.008553
1149	5.7400e-01	-5.9100	-11.596556	0.000105	1.047361	0.354855	-0.008467
1150	5.7450e-01	-5.9244	-11.684647	0.000218	2.179357	0.738386	-0.017618
1151	5.7500e-01	-6.0079	-11.731258	0.000115	1.153155	0.390699	-0.009322
1152	5.7550e-01	-6.0303	-11.791981	0.000150	1.502275	0.508985	-0.012145
1153	5.7600e-01	-6.0816	-11.897604	0.000261	2.613113	0.885346	-0.021125
1154	5.7650e-01	-6.1089	-11.944643	0.000116	1.163734	0.394284	-0.009408
1155	5.7700e-01	-6.1442	-11.986123	0.000103	1.026202	0.347687	-0.008296
1156	5.7750e-01	-6.2004	-12.052832	0.000165	1.650387	0.559166	-0.013342
1157	5.7800e-01	-6.2260	-12.118259	0.000162	1.618649	0.548413	-0.013085
1158	5.7850e-01	-6.2806	-12.178982	0.000150	1.502275	0.508985	-0.012145
1159	5.7900e-01	-6.3159	-12.225593	0.000115	1.153155	0.390699	-0.009322
1160	5.7950e-01	-6.3383	-12.315822	0.000223	2.232254	0.756308	-0.018046
1161	5.8000e-01	-6.3913	-12.406478	0.000224	2.242833	0.759893	-0.018131
1162	5.8050e-01	-6.4394	-12.408616	0.000005	0.052897	0.017922	-0.000428
1163	5.8100e-01	-6.4330	-12.580094	-0.000424	-4.242341	-1.437344	-0.034296
1164	5.8150e-01	-6.5020	-12.603186	0.000057	0.571288	0.193558	-0.004618
1165	5.8200e-01	-6.5565	-12.617725	0.000036	0.359700	0.121870	-0.002908
1166	5.8250e-01	-6.5838	-12.686573	0.000170	1.703284	0.577088	-0.013770
1167	5.8300e-01	-6.6367	-12.754565	0.000168	1.682125	0.569919	-0.013598
1168	5.8350e-01	-6.6528	-12.826834	0.000179	1.787919	0.605763	-0.014454
1169	5.8400e-01	-6.7169	-12.887984	0.000151	1.512855	0.512569	-0.012230
1170	5.8450e-01	-6.7442	-12.960681	0.000180	1.798499	0.609348	-0.014539
1171	5.8500e-01	-6.8036	-12.986766	0.000065	0.645344	0.218648	-0.005217
1172	5.8550e-01	-6.8132	-13.049627	0.000156	1.555172	0.526907	-0.012572
1173	5.8600e-01	-6.8693	-13.146270	0.000239	2.390945	0.810074	-0.019329
1174	5.8650e-01	-6.8966	-13.195019	0.000121	1.206052	0.408621	-0.009750
1175	5.8700e-01	-6.9271	-13.258735	0.000158	1.576331	0.534075	-0.012743
1176	5.8750e-01	-6.9848	-13.339129	0.000199	1.988928	0.673867	-0.016079
1177	5.8800e-01	-7.0089	-13.398997	0.000148	1.481116	0.501816	-0.011974
1178	5.8850e-01	-7.0747	-13.424226	0.000062	0.624185	0.211480	-0.005046
1179	5.8900e-01	-7.1244	-13.440476	0.000040	0.402017	0.136207	-0.003250
1180	5.8950e-01	-7.1789	-13.524718	0.000208	2.084142	0.706127	-0.016848
1181	5.9000e-01	-7.2014	-13.563632	0.000096	0.962726	0.326180	-0.007783
1182	5.9050e-01	-7.2223	-13.687644	0.000307	3.068027	1.039476	-0.024802
1183	5.9100e-01	-7.2768	-13.749649	0.000153	1.534013	0.519738	-0.012401
1184	5.9150e-01	-7.3329	-13.802675	0.000131	1.311846	0.444465	-0.010605
1185	5.9200e-01	-7.3442	-13.819780	0.000042	0.423176	0.143376	-0.003421
1186	5.9250e-01	-7.3907	-13.921127	0.000251	2.507319	0.849503	-0.020269
1187	5.9300e-01	-7.4485	-13.969449	0.000120	1.195473	0.405037	-0.009664
1188	5.9350e-01	-7.4356	-14.045138	-0.000187	-1.872554	-0.634439	-0.015138
1189	5.9400e-01	-7.5271	-14.116124	0.000176	1.756181	0.595010	-0.014197
1190	5.9450e-01	-7.5607	-14.142209	0.000065	0.645344	0.218648	-0.005217
1191	5.9500e-01	-7.5912	-14.196945	0.000135	1.354164	0.458803	-0.010947
1192	5.9550e-01	-7.5960	-14.320957	0.000307	3.068027	1.039476	-0.024802
1193	5.9600e-01	-7.6779	-14.354311	0.000083	0.825193	0.279583	-0.006671
1194	5.9650e-01	-7.7115	-14.388094	0.000084	0.835773	0.283168	-0.006756
1195	5.9700e-01	-7.7436	-14.441547	0.000132	1.322425	0.448050	-0.010691
1196	5.9750e-01	-7.7773	-14.509539	0.000168	1.682125	0.569919	-0.013598
1197	5.9800e-01	-7.8238	-14.610031	0.000249	2.486160	0.842334	-0.020098
1198	5.9850e-01	-7.8736	-14.648945	0.000096	0.962726	0.326180	-0.007783
1199	5.9900e-01	-7.8752	-14.758417	0.000271	2.708327	0.917606	-0.021894
1200	5.9950e-01	-7.9458	-14.766542	0.000020	0.201009	0.068104	-0.001625
1201	6.0000e-01	-8.0003	-14.797331	0.000076	0.761717	0.258077	-0.006158
1202	6.0050e-01	-8.0629	-14.840521	0.000107	1.068520	0.362024	-0.008638
1203	6.0100e-01	-8.0821	-14.926902	0.000214	2.137039	0.724049	-0.017276
1204	6.0150e-01	-8.1078	-14.985914	0.000146	1.459958	0.494647	-0.011802
1205	6.0200e-01	-8.1511	-15.039795	0.000133	1.333005	0.451634	-0.010776
1206	6.0250e-01	-8.1848	-15.101800	0.000153	1.534013	0.519738	-0.012401
1207	6.0300e-01	-8.2281	-15.157819	0.000139	1.385902	0.469556	-0.011204
1208	6.0350e-01	-8.2506	-15.215976	0.000144	1.438799	0.487478	-0.011631
1209	6.0400e-01	-8.3115	-15.276699	0.000150	1.502275	0.508985	-0.012145
1210	6.0450e-01	-8.3436	-15.318606	0.000104	1.036781	0.351271	-0.008381
1211	6.0500e-01	-8.3885	-15.386171	0.000167	1.671546	0.566335	-0.013513
1212	6.0550e-01	-8.4110	-15.440480	0.000134	1.343584	0.455219	-0.010862
1213	6.0600e-01	-8.4655	-15.519163	0.000195	1.946610	0.659529	-0.015737
1214	6.0650e-01	-8.5121	-15.565346	0.000114	1.142576	0.387115	-0.009237
1215	6.0700e-01	-8.5666	-15.605543	0.000099	0.994464	0.336933	-0.008039
1216	6.0750e-01	-8.5810	-15.684654	0.000196	1.957190	0.663114	-0.015822
1217	6.0800e-01	-8.6372	-15.720147	0.000088	0.878090	0.297505	-0.007099
1218	6.0850e-01	-8.6821	-15.772744	0.000130	1.301267	0.440881	-0.010520
1219	6.0900e-01	-8.7014	-15.846296	0.000182	1.819657	0.616517	-0.014710
1220	6.0950e-01	-8.7623	-15.908302	0.000153	1.534013	0.519738	-0.012401
1221	6.1000e-01	-8.7896	-15.957906	0.000123	1.227211	0.415790	-0.009921
1222	6.1050e-01	-8.8088	-16.053694	0.000237	2.369786	0.802905	-0.019158
1223	6.1100e-01	-8.8554	-16.110568	0.000141	1.407061	0.476725	-0.011375
1224	6.1150e-01	-8.9067	-16.142213	0.000078	0.782876	0.265246	-0.006329
1225	6.1200e-01	-8.9372	-16.210633	0.000169	1.692704	0.573504	-0.013684
1226	6.1250e-01	-8.9917	-16.249974	0.000097	0.973305	0.329765	-0.007868
1227	6.1300e-01	-9.0350	-16.270073	0.000050	0.497232	0.168467	-0.004020
1228	6.1350e-01	-9.0607	-16.362012	0.000227	2.274572	0.770646	-0.018388
1229	6.1400e-01	-9.1201	-16.382966	0.000052	0.518391	0.175636	-0.004191
1230	6.1450e-01	-9.1570	-16.469346	0.000214	2.137039	0.724049	-0.017276
1231	6.1500e-01	-9.1874	-16.526220	0.000141	1.407061	0.476725	-0.011375
1232	6.1550e-01	-9.2725	-16.539049	0.000032	0.317382	0.107532	-0.002566
1233	6.1600e-01	-9.2837	-16.609607	0.000175	1.745601	0.591426	-0.014112
1234	6.1650e-01	-9.3013	-16.682303	0.000180	1.798499	0.609348	-0.014539
1235	6.1700e-01	-9.3671	-16.726776	0.000110	1.100258	0.372777	-0.008895
1236	6.1750e-01	-9.3864	-16.781512	0.000135	1.354164	0.458803	-0.010947
1237	6.1800e-01	-9.4409	-16.877301	0.000237	2.369786	0.802905	-0.019158
1238	6.1850e-01	-9.4602	-16.897827	0.000051	0.507811	0.172051	-0.004105
1239	6.1900e-01	-9.5195	-16.980358	0.000204	2.041825	0.691789	-0.016506
1240	6.1950e-01	-9.5420	-17.020555	0.000099	0.994464	0.336933	-0.008039
1241	6.2000e-01	-9.5949	-17.064600	0.000109	1.089679	0.369193	-0.008809
1242	6.2050e-01	-9.6013	-17.178776	0.000282	2.824701	0.957034	-0.022835
1243	6.2100e-01	-9.6286	-17.231802	0.000131	1.311846	0.444465	-0.010605
1244	6.2150e-01	-9.6559	-17.275847	0.000109	1.089679	0.369193	-0.008809
1245	6.2200e-01	-9.7425	-17.317327	0.000103	1.026202	0.347687	-0.008296
1246	6.2250e-01	-9.7842	-17.346405	0.000072	0.719399	0.243739	-0.005816
1247	6.2300e-01	-9.8388	-17.403707	0.000142	1.417640	0.480309	-0.011460
1248	6.2350e-01	-9.8981	-17.443904	0.000099	0.994464	0.336933	-0.008039
1249	6.2400e-01	-9.9110	-17.507620	0.000158	1.576331	0.534075	-0.012743
1250	6.2450e-01	-9.9382	-17.556797	0.000122	1.216631	0.412206	-0.009835
1251	6.2500e-01	-9.9912	-17.613671	0.000141	1.407061	0.476725	-0.011375
1252	6.2550e-01	-10.0184	-17.694920	0.000201	2.010087	0.681036	-0.016250
1253	6.2600e-01	-10.0601	-17.744097	0.000122	1.216631	0.412206	-0.009835
1254	6.2650e-01	-10.1083	-17.777879	0.000084	0.835773	0.283168	-0.006756
1255	6.2700e-01	-10.1323	-17.825346	0.000117	1.174314	0.397868	-0.009493
1256	6.2750e-01	-10.1853	-17.921134	0.000237	2.369786	0.802905	-0.019158
1257	6.2800e-01	-10.2254	-17.939949	0.000047	0.465494	0.157714	-0.003763
1258	6.2850e-01	-10.2366	-18.043007	0.000255	2.549636	0.863840	-0.020612
1259	6.2900e-01	-10.3216	-18.063105	0.000050	0.497232	0.168467	-0.004020
1260	6.2950e-01	-10.3601	-18.067809	0.000012	0.116373	0.039428	-0.000941
1261	6.3000e-01	-10.3858	-18.180275	0.000278	2.782383	0.942697	-0.022493
1262	6.3050e-01	-10.4307	-18.220899	0.000101	1.005043	0.340518	-0.008125
1263	6.3100e-01	-10.4756	-18.255109	0.000085	0.846352	0.286752	-0.006842
1264	6.3150e-01	-10.5061	-18.337641	0.000204	2.041825	0.691789	-0.016506
1265	6.3200e-01	-10.5526	-18.364581	0.000067	0.666502	0.225817	-0.005388
1266	6.3250e-01	-10.5815	-18.430436	0.000163	1.629228	0.551997	-0.013171
1267	6.3300e-01	-10.6313	-18.480468	0.000124	1.237790	0.419375	-0.010006
1268	6.3350e-01	-10.7002	-18.522803	0.000105	1.047361	0.354855	-0.008467
1269	6.3400e-01	-10.7115	-18.571124	0.000120	1.195473	0.405037	-0.009664
1270	6.3450e-01	-10.7500	-18.648097	0.000190	1.904293	0.645192	-0.015395
1271	6.3500e-01	-10.8109	-18.678886	0.000076	0.761717	0.258077	-0.006158
1272	6.3550e-01	-10.8494	-18.722076	0.000107	1.068520	0.362024	-0.008638
1273	6.3600e-01	-10.8655	-18.797338	0.000186	1.861975	0.630854	-0.015052
1274	6.3650e-01	-10.9264	-18.849081	0.000128	1.280108	0.433712	-0.010349
1275	6.3700e-01	-10.9457	-18.904672	0.000138	1.375322	0.465972	-0.011118
1276	6.3750e-01	-10.9826	-18.960691	0.000139	1.385902	0.469556	-0.011204
1277	6.3800e-01	-11.0451	-19.008157	0.000117	1.174314	0.397868	-0.009493
1278	6.3850e-01	-11.0804	-19.063749	0.000138	1.375322	0.465972	-0.011118
1279	6.3900e-01	-11.1221	-19.091117	0.000068	0.677082	0.229402	-0.005474
1280	6.3950e-01	-11.1414	-19.179207	0.000218	2.179357	0.738386	-0.017618
1281	6.4000e-01	-11.2184	-19.201016	0.000054	0.539550	0.182804	-0.004362
1282	6.4050e-01	-11.2264	-19.240358	0.000097	0.973305	0.329765	-0.007868
1283	6.4100e-01	-11.2729	-19.290818	0.000125	1.248370	0.422959	-0.010092
1284	6.4150e-01	-11.3163	-19.369073	0.000194	1.936031	0.655945	-0.015651
1285	6.4200e-01	-11.3419	-19.445618	0.000189	1.893713	0.641607	-0.015309
1286	6.4250e-01	-11.3997	-19.469137	0.000058	0.581867	0.197142	-0.004704
1287	6.4300e-01	-11.4125	-19.534136	0.000161	1.608069	0.544829	-0.013000
1288	6.4350e-01	-11.4767	-19.570912	0.000091	0.909829	0.308258	-0.007355
1289	6.4400e-01	-11.5409	-19.617951	0.000116	1.163734	0.394284	-0.009408
1290	6.4450e-01	-11.5537	-19.684233	0.000164	1.639807	0.555582	-0.013256
1291	6.4500e-01	-11.5970	-19.732982	0.000121	1.206052	0.408621	-0.009750
1292	6.4550e-01	-11.6483	-19.789001	0.000139	1.385902	0.469556	-0.011204
1293	6.4600e-01	-11.6676	-19.823639	0.000086	0.856932	0.290336	-0.006928
1294	6.4650e-01	-11.7109	-19.874526	0.000126	1.258949	0.426543	-0.010177
1295	6.4700e-01	-11.7542	-19.953209	0.000195	1.946610	0.659529	-0.015737
1296	6.4750e-01	-11.7911	-20.001103	0.000118	1.184893	0.401453	-0.009579
1297	6.4800e-01	-11.8296	-20.043010	0.000104	1.036781	0.351271	-0.008381
1298	6.4850e-01	-11.8441	-20.097319	0.000134	1.343584	0.455219	-0.010862
1299	6.4900e-01	-11.9114	-20.154621	0.000142	1.417640	0.480309	-0.011460
1300	6.4950e-01	-11.9467	-20.161035	0.000016	0.158691	0.053766	-0.001283
1301	6.5000e-01	-11.9724	-20.275639	0.000284	2.835280	0.960619	-0.022921
1302	6.5050e-01	-12.0141	-20.308566	0.000081	0.814614	0.275999	-0.006585
1303	6.5100e-01	-12.0815	-20.350045	0.000103	1.026202	0.347687	-0.008296
1304	6.5150e-01	-12.1136	-20.400078	0.000124	1.237790	0.419375	-0.010006
1305	6.5200e-01	-12.1312	-20.468498	0.000169	1.692704	0.573504	-0.013684
1306	6.5250e-01	-12.1938	-20.496721	0.000070	0.698241	0.236570	-0.005645
1307	6.5300e-01	-12.2531	-20.549319	0.000130	1.301267	0.440881	-0.010520
1308	6.5350e-01	-12.2676	-20.589088	0.000098	0.983884	0.333349	-0.007954
1309	6.5400e-01	-12.3269	-20.653232	0.000159	1.586910	0.537660	-0.012829
1310	6.5450e-01	-12.3558	-20.668626	0.000038	0.380859	0.129038	-0.003079
1311	6.5500e-01	-12.3478	-20.802901	-0.000332	-3.321933	-1.125501	-0.026855
1312	6.5550e-01	-12.4344	-20.799907	-0.000007	-0.074056	-0.025091	0.000599
1313	6.5600e-01	-12.4601	-20.866189	0.000164	1.639807	0.555582	-0.013256
1314	6.5650e-01	-12.5050	-20.925201	0.000146	1.459958	0.494647	-0.011802
1315	6.5700e-01	-12.5467	-20.967109	0.000104	1.036781	0.351271	-0.008381
1316	6.5750e-01	-12.5884	-20.984214	0.000042	0.423176	0.143376	-0.003421
1317	6.5800e-01	-12.6317	-21.054772	0.000175	1.745601	0.591426	-0.014112
1318	6.5850e-01	-12.6799	-21.120199	0.000162	1.618649	0.548413	-0.013085
1319	6.5900e-01	-12.7168	-21.135165	0.000037	0.370279	0.125454	-0.002993
1320	6.5950e-01	-12.7392	-21.216414	0.000201	2.010087	0.681036	-0.016250
1321	6.6000e-01	-12.7793	-21.245920	0.000073	0.729979	0.247324	-0.005901
1322	6.6050e-01	-12.8274	-21.318189	0.000179	1.787919	0.605763	-0.014454
1323	6.6100e-01	-12.8868	-21.348550	0.000075	0.751138	0.254492	-0.006072
1324	6.6150e-01	-12.8547	-21.454174	-0.000261	-2.613113	-0.885346	-0.021125
1325	6.6200e-01	-12.9622	-21.456740	0.000006	0.063476	0.021506	-0.000513
1326	6.6250e-01	-12.9943	-21.521739	0.000161	1.608069	0.544829	-0.013000
1327	6.6300e-01	-13.0344	-21.571771	0.000124	1.237790	0.419375	-0.010006
1328	6.6350e-01	-13.0617	-21.593152	0.000053	0.528970	0.179220	-0.004276
1329	6.6400e-01	-13.0986	-21.672263	0.000196	1.957190	0.663114	-0.015822
1330	6.6450e-01	-13.1980	-21.688940	0.000041	0.412597	0.139792	-0.003335
1331	6.6500e-01	-13.1948	-21.723150	-0.000085	-0.846352	-0.286752	-0.006842
1332	6.6550e-01	-13.2397	-21.791998	0.000170	1.703284	0.577088	-0.013770
1333	6.6600e-01	-13.2750	-21.842458	0.000125	1.248370	0.422959	-0.010092
1334	6.6650e-01	-13.3039	-21.895056	0.000130	1.301267	0.440881	-0.010520
1335	6.6700e-01	-13.3312	-21.945943	0.000126	1.258949	0.426543	-0.010177
1336	6.6750e-01	-13.3986	-22.011370	0.000162	1.618649	0.548413	-0.013085
1337	6.6800e-01	-13.4162	-22.013508	0.000005	0.052897	0.017922	-0.000428
1338	6.6850e-01	-13.4467	-22.113144	0.000247	2.465001	0.835165	-0.019927
1339	6.6900e-01	-13.4964	-22.158900	0.000113	1.131996	0.383531	-0.009151
1340	6.6950e-01	-13.5542	-22.177716	0.000047	0.465494	0.157714	-0.003763
1341	6.7000e-01	-13.6167	-22.217057	0.000097	0.973305	0.329765	-0.007868
1342	6.7050e-01	-13.6344	-22.261958	0.000111	1.110837	0.376362	-0.008980
1343	6.7100e-01	-13.6600	-22.338931	0.000190	1.904293	0.645192	-0.015395
1344	6.7150e-01	-13.7322	-22.375279	0.000090	0.899249	0.304674	-0.007270
1345	6.7200e-01	-13.7098	-22.468501	-0.000231	-2.306310	-0.781399	-0.018644
1346	6.7250e-01	-13.7884	-22.504422	0.000089	0.888670	0.301089	-0.007184
1347	6.7300e-01	-13.8108	-22.575835	0.000177	1.766760	0.598595	-0.014283
1348	6.7350e-01	-13.8798	-22.583532	0.000019	0.190429	0.064519	-0.001539
1349	6.7400e-01	-13.9296	-22.598499	0.000037	0.370279	0.125454	-0.002993
1350	6.7450e-01	-13.9745	-22.663926	0.000162	1.618649	0.548413	-0.013085
1351	6.7500e-01	-13.9889	-22.720800	0.000141	1.407061	0.476725	-0.011375
1352	6.7550e-01	-14.0146	-22.795634	0.000185	1.851396	0.627270	-0.014967
1353	6.7600e-01	-14.0820	-22.787937	-0.000019	-0.190429	-0.064519	0.001539
1354	6.7650e-01	-14.1012	-22.885863	0.000242	2.422683	0.820827	-0.019585
1355	6.7700e-01	-14.1622	-22.894843	0.000022	0.222167	0.075272	-0.001796
1356	6.7750e-01	-14.1959	-22.973954	0.000196	1.957190	0.663114	-0.015822
1357	6.7800e-01	-14.2328	-23.019710	0.000113	1.131996	0.383531	-0.009151
1358	6.7850e-01	-14.2793	-23.028262	0.000021	0.211588	0.071688	-0.001711
1359	6.7900e-01	-14.3146	-23.106946	0.000195	1.946610	0.659529	-0.015737
1360	6.7950e-01	-14.3707	-23.166813	0.000148	1.481116	0.501816	-0.011974
1361	6.8000e-01	-14.3980	-23.196747	0.000074	0.740558	0.250908	-0.005987
1362	6.8050e-01	-14.4349	-23.254904	0.000144	1.438799	0.487478	-0.011631
1363	6.8100e-01	-14.4750	-23.298949	0.000109	1.089679	0.369193	-0.008809
1364	6.8150e-01	-14.5215	-23.363093	0.000159	1.586910	0.537660	-0.012829
1365	6.8200e-01	-14.5295	-23.391744	0.000071	0.708820	0.240155	-0.005730
1366	6.8250e-01	-14.5809	-23.462302	0.000175	1.745601	0.591426	-0.014112
1367	6.8300e-01	-14.6402	-23.505920	0.000108	1.079099	0.365609	-0.008724
1368	6.8350e-01	-14.6450	-23.555952	0.000124	1.237790	0.419375	-0.010006
1369	6.8400e-01	-14.6948	-23.615392	0.000147	1.470537	0.498231	-0.011888
1370	6.8450e-01	-14.7365	-23.606412	-0.000022	-0.222167	-0.075272	0.001796
1371	6.8500e-01	-14.7894	-23.700917	0.000234	2.338048	0.792152	-0.018901
1372	6.8550e-01	-14.8375	-23.720160	0.000048	0.476073	0.161298	-0.003849
1373	6.8600e-01	-14.8712	-23.760785	0.000101	1.005043	0.340518	-0.008125
1374	6.8650e-01	-14.9129	-23.798416	0.000093	0.930987	0.315427	-0.007526
1375	6.8700e-01	-14.9611	-23.871540	0.000181	1.809078	0.612932	-0.014625
1376	6.8750e-01	-14.9964	-23.919006	0.000117	1.174314	0.397868	-0.009493
1377	6.8800e-01	-15.0301	-23.980584	0.000152	1.523434	0.516153	-0.012316
1378	6.8850e-01	-15.0846	-24.043445	0.000156	1.555172	0.526907	-0.012572
1379	6.8900e-01	-15.1167	-24.058839	0.000038	0.380859	0.129038	-0.003079
1380	6.8950e-01	-15.1199	-24.126404	0.000167	1.671546	0.566335	-0.013513
1381	6.9000e-01	-15.1985	-24.167456	0.000102	1.015623	0.344102	-0.008210
1382	6.9050e-01	-15.2290	-24.212784	0.000112	1.121417	0.379946	-0.009066
1383	6.9100e-01	-15.2771	-24.241435	0.000071	0.708820	0.240155	-0.005730
1384	6.9150e-01	-15.2755	-24.352618	-0.000275	-2.750645	-0.931944	-0.022237
1385	6.9200e-01	-15.3397	-24.363736	0.000028	0.275064	0.093194	-0.002224
1386	6.9250e-01	-15.3589	-24.432156	0.000169	1.692704	0.573504	-0.013684
1387	6.9300e-01	-15.4167	-24.472781	0.000101	1.005043	0.340518	-0.008125
1388	6.9350e-01	-15.4664	-24.526234	0.000132	1.322425	0.448050	-0.010691
1389	6.9400e-01	-15.5049	-24.558306	0.000079	0.793455	0.268830	-0.006414
1390	6.9450e-01	-15.5434	-24.609621	0.000127	1.269528	0.430128	-0.010263
1391	6.9500e-01	-15.5675	-24.672054	0.000154	1.544593	0.523322	-0.012487
1392	6.9550e-01	-15.6124	-24.705409	0.000083	0.825193	0.279583	-0.006671
1393	6.9600e-01	-15.6846	-24.742185	0.000091	0.909829	0.308258	-0.007355
1394	6.9650e-01	-15.7279	-24.763138	0.000052	0.518391	0.175636	-0.004191
1395	6.9700e-01	-15.7600	-24.845242	0.000203	2.031245	0.688205	-0.016421
1396	6.9750e-01	-15.7953	-24.897413	0.000129	1.290687	0.437297	-0.010434
1397	6.9800e-01	-15.8225	-24.914945	0.000043	0.433756	0.146960	-0.003507
1398	6.9850e-01	-15.8771	-24.994911	0.000198	1.978348	0.670283	-0.015993
1399	6.9900e-01	-15.8899	-25.063331	0.000169	1.692704	0.573504	-0.013684
1400	6.9950e-01	-15.9573	-25.063759	0.000001	0.010579	0.003584	-0.000086
1401	7.0000e-01	-16.0022	-25.115501	0.000128	1.280108	0.433712	-0.010349
1402	7.0050e-01	-16.0118	-25.174941	0.000147	1.470537	0.498231	-0.011888
1403	7.0100e-01	-16.0439	-25.220270	0.000112	1.121417	0.379946	-0.009066
1404	7.0150e-01	-16.1257	-25.267308	0.000116	1.163734	0.394284	-0.009408
1405	7.0200e-01	-16.1290	-25.331025	0.000158	1.576331	0.534075	-0.012743
1406	7.0250e-01	-16.1626	-25.392175	0.000151	1.512855	0.512569	-0.012230
1407	7.0300e-01	-16.2429	-25.435793	0.000108	1.079099	0.365609	-0.008724
1408	7.0350e-01	-16.2669	-25.455464	0.000049	0.486653	0.164882	-0.003934
1409	7.0400e-01	-16.2958	-25.524311	0.000170	1.703284	0.577088	-0.013770
1410	7.0450e-01	-16.3648	-25.554673	0.000075	0.751138	0.254492	-0.006072
1411	7.0500e-01	-16.3969	-25.604277	0.000123	1.227211	0.415790	-0.009921
1412	7.0550e-01	-16.4450	-25.622665	0.000045	0.454914	0.154129	-0.003678
1413	7.0600e-01	-16.4562	-25.712894	0.000223	2.232254	0.756308	-0.018046
1414	7.0650e-01	-16.4835	-25.748387	0.000088	0.878090	0.297505	-0.007099
1415	7.0700e-01	-16.5589	-25.799702	0.000127	1.269528	0.430128	-0.010263
1416	7.0750e-01	-16.5830	-25.836905	0.000092	0.920408	0.311843	-0.007441
1417	7.0800e-01	-16.6439	-25.886510	0.000123	1.227211	0.415790	-0.009921
1418	7.0850e-01	-16.6856	-25.925424	0.000096	0.962726	0.326180	-0.007783
1419	7.0900e-01	-16.7113	-25.989568	0.000159	1.586910	0.537660	-0.012829
1420	7.0950e-01	-16.7610	-26.009238	0.000049	0.486653	0.164882	-0.003934
1421	7.1000e-01	-16.8172	-26.045586	0.000090	0.899249	0.304674	-0.007270
1422	7.1050e-01	-16.8428	-26.078941	0.000083	0.825193	0.279583	-0.006671
1423	7.1100e-01	-16.8701	-26.164894	0.000213	2.126460	0.720464	-0.017191
1424	7.1150e-01	-16.8990	-26.240156	0.000186	1.861975	0.630854	-0.015052
1425	7.1200e-01	-16.9263	-26.261537	0.000053	0.528970	0.179220	-0.004276
1426	7.1250e-01	-16.9904	-26.346207	0.000209	2.094722	0.709711	-0.016934
1427	7.1300e-01	-17.0370	-26.367161	0.000052	0.518391	0.175636	-0.004191
1428	7.1350e-01	-17.0514	-26.449265	0.000203	2.031245	0.688205	-0.016421
1429	7.1400e-01	-17.1156	-26.441995	-0.000018	-0.179850	-0.060935	0.001454
1430	7.1450e-01	-17.1573	-26.500580	0.000145	1.449378	0.491063	-0.011717
1431	7.1500e-01	-17.1894	-26.518968	0.000045	0.454914	0.154129	-0.003678
1432	7.1550e-01	-17.2214	-26.619460	0.000249	2.486160	0.842334	-0.020098
1433	7.1600e-01	-17.2696	-26.673340	0.000133	1.333005	0.451634	-0.010776
1434	7.1650e-01	-17.3065	-26.713537	0.000099	0.994464	0.336933	-0.008039
1435	7.1700e-01	-17.3482	-26.742616	0.000072	0.719399	0.243739	-0.005816
1436	7.1750e-01	-17.4043	-26.806759	0.000159	1.586910	0.537660	-0.012829
1437	7.1800e-01	-17.3947	-26.831562	-0.000061	-0.613605	-0.207895	-0.004960
1438	7.1850e-01	-17.4685	-26.911100	0.000197	1.967769	0.666698	-0.015908
1439	7.1900e-01	-17.5070	-26.961132	0.000124	1.237790	0.419375	-0.010006
1440	7.1950e-01	-17.5583	-26.979948	0.000047	0.465494	0.157714	-0.003763
1441	7.2000e-01	-17.6016	-27.030835	0.000126	1.258949	0.426543	-0.010177
1442	7.2050e-01	-17.6321	-27.066328	0.000088	0.878090	0.297505	-0.007099
1443	7.2100e-01	-17.6899	-27.155702	0.000221	2.211095	0.749139	-0.017875
1444	7.2150e-01	-17.7171	-27.189056	0.000083	0.825193	0.279583	-0.006671
1445	7.2200e-01	-17.7476	-27.259615	0.000175	1.745601	0.591426	-0.014112
1446	7.2250e-01	-17.7942	-27.304515	0.000111	1.110837	0.376362	-0.008980
1447	7.2300e-01	-17.8150	-27.359679	0.000136	1.364743	0.462387	-0.011033
1448	7.2350e-01	-17.8936	-27.382771	0.000057	0.571288	0.193558	-0.004618
1449	7.2400e-01	-17.9016	-27.438362	0.000138	1.375322	0.465972	-0.011118
1450	7.2450e-01	-17.9642	-27.501650	0.000157	1.565752	0.530491	-0.012658
1451	7.2500e-01	-17.9851	-27.526880	0.000062	0.624185	0.211480	-0.005046
1452	7.2550e-01	-18.0171	-27.619247	0.000229	2.285151	0.774230	-0.018473
1453	7.2600e-01	-18.0685	-27.655168	0.000089	0.888670	0.301089	-0.007184
1454	7.2650e-01	-18.0765	-27.688095	0.000081	0.814614	0.275999	-0.006585
1455	7.2700e-01	-18.1310	-27.780890	0.000230	2.295730	0.777815	-0.018559
1456	7.2750e-01	-18.1808	-27.838192	0.000142	1.417640	0.480309	-0.011460
1457	7.2800e-01	-18.2113	-27.853158	0.000037	0.370279	0.125454	-0.002993
1458	7.2850e-01	-18.2722	-27.901052	0.000118	1.184893	0.401453	-0.009579
1459	7.2900e-01	-18.3203	-27.950229	0.000122	1.216631	0.412206	-0.009835
1460	7.2950e-01	-18.3653	-27.995130	0.000111	1.110837	0.376362	-0.008980
1461	7.3000e-01	-18.3989	-28.059274	0.000159	1.586910	0.537660	-0.012829
1462	7.3050e-01	-18.4134	-28.107168	0.000118	1.184893	0.401453	-0.009579
1463	7.3100e-01	-18.4727	-28.167891	0.000150	1.502275	0.508985	-0.012145
1464	7.3150e-01	-18.5241	-28.189700	0.000054	0.539550	0.182804	-0.004362
1465	7.3200e-01	-18.5658	-28.262823	0.000181	1.809078	0.612932	-0.014625
1466	7.3250e-01	-18.6059	-28.275225	0.000031	0.306803	0.103948	-0.002480
1467	7.3300e-01	-18.6428	-28.346638	0.000177	1.766760	0.598595	-0.014283
1468	7.3350e-01	-18.6572	-28.418051	0.000177	1.766760	0.598595	-0.014283
1469	7.3400e-01	-18.7054	-28.465518	0.000117	1.174314	0.397868	-0.009493
1470	7.3450e-01	-18.7070	-28.516405	0.000126	1.258949	0.426543	-0.010177
1471	7.3500e-01	-18.7984	-28.559595	0.000107	1.068520	0.362024	-0.008638
1472	7.3550e-01	-18.8241	-28.604924	0.000112	1.121417	0.379946	-0.009066
1473	7.3600e-01	-18.8754	-28.672916	0.000168	1.682125	0.569919	-0.013598
1474	7.3650e-01	-18.8979	-28.734922	0.000153	1.534013	0.519738	-0.012401
1475	7.3700e-01	-18.9508	-28.784099	0.000122	1.216631	0.412206	-0.009835
1476	7.3750e-01	-18.9813	-28.813605	0.000073	0.729979	0.247324	-0.005901
1477	7.3800e-01	-19.0198	-28.887156	0.000182	1.819657	0.616517	-0.014710
1478	7.3850e-01	-19.0823	-28.901696	0.000036	0.359700	0.121870	-0.002908
1479	7.3900e-01	-19.0711	-28.973537	-0.000178	-1.777340	-0.602179	-0.014368
1480	7.3950e-01	-19.1577	-29.048371	0.000185	1.851396	0.627270	-0.014967
1481	7.4000e-01	-19.1594	-29.062483	0.000035	0.349120	0.118285	-0.002822
1482	7.4050e-01	-19.2187	-29.165540	0.000255	2.549636	0.863840	-0.020612
1483	7.4100e-01	-19.2877	-29.208303	0.000106	1.057940	0.358440	-0.008553
1484	7.4150e-01	-19.2941	-29.246362	0.000094	0.941567	0.319011	-0.007612
1485	7.4200e-01	-19.3198	-29.317775	0.000177	1.766760	0.598595	-0.014283
1486	7.4250e-01	-19.4096	-29.335735	0.000044	0.444335	0.150545	-0.003592
1487	7.4300e-01	-19.4321	-29.388761	0.000131	1.311846	0.444465	-0.010605
1488	7.4350e-01	-19.4626	-29.432806	0.000109	1.089679	0.369193	-0.008809
1489	7.4400e-01	-19.5283	-29.504220	0.000177	1.766760	0.598595	-0.014283
1490	7.4450e-01	-19.5508	-29.553824	0.000123	1.227211	0.415790	-0.009921
1491	7.4500e-01	-19.5861	-29.600008	0.000114	1.142576	0.387115	-0.009237
1492	7.4550e-01	-19.6214	-29.679974	0.000198	1.978348	0.670283	-0.015993
1493	7.4600e-01	-19.6807	-29.705631	0.000063	0.634764	0.215064	-0.005132
1494	7.4650e-01	-19.7000	-29.770630	0.000161	1.608069	0.544829	-0.013000
1495	7.4700e-01	-19.7465	-29.821518	0.000126	1.258949	0.426543	-0.010177
1496	7.4750e-01	-19.8026	-29.882240	0.000150	1.502275	0.508985	-0.012145
1497	7.4800e-01	-19.8476	-29.913457	0.000077	0.772296	0.261661	-0.006243
1498	7.4850e-01	-19.8748	-29.958785	0.000112	1.121417	0.379946	-0.009066
1499	7.4900e-01	-19.9230	-30.030626	0.000178	1.777340	0.602179	-0.014368
1500	7.4950e-01	-19.9294	-30.067402	0.000091	0.909829	0.308258	-0.007355
1501	7.5000e-01	-19.9855	-30.171743	0.000258	2.581374	0.874593	-0.020868
1502	7.5050e-01	-19.9198	-30.113586	0.000144	1.438799	0.487478	0.011631
1503	7.5100e-01	-19.8989	-30.097764	0.000039	0.391438	0.132623	0.003164
1504	7.5150e-01	-19.8412	-30.060988	0.000091	0.909829	0.308258	0.007355
1505	7.5200e-01	-19.8203	-30.040889	0.000050	0.497232	0.168467	0.004020
1506	7.5250e-01	-19.7946	-29.986153	0.000135	1.354164	0.458803	0.010947
1507	7.5300e-01	-19.7208	-29.988719	-0.000006	-0.063476	-0.021506	-0.000513
1508	7.5350e-01	-19.6984	-29.970331	0.000045	0.454914	0.154129	0.003678
1509	7.5400e-01	-19.6599	-29.937832	0.000080	0.804035	0.272414	0.006500
1510	7.5450e-01	-19.5989	-29.896352	0.000103	1.026202	0.347687	0.008296
1511	7.5500e-01	-19.5508	-29.895069	0.000003	0.031738	0.010753	0.000257
1512	7.5550e-01	-19.5363	-29.852307	0.000106	1.057940	0.358440	0.008553
1513	7.5600e-01	-19.4850	-29.817669	0.000086	0.856932	0.290336	0.006928
1514	7.5650e-01	-19.4690	-29.763788	0.000133	1.333005	0.451634	0.010776
1515	7.5700e-01	-19.4160	-29.760367	0.000008	0.084635	0.028675	0.000684
1516	7.5750e-01	-19.3599	-29.724019	0.000090	0.899249	0.304674	0.007270
1517	7.5800e-01	-19.3294	-29.706059	0.000044	0.444335	0.150545	0.003592
1518	7.5850e-01	-19.3166	-29.604712	0.000251	2.507319	0.849503	0.020269
1519	7.5900e-01	-19.2508	-29.627376	-0.000056	-0.560708	-0.189973	-0.004533
1520	7.5950e-01	-19.2027	-29.618396	0.000022	0.222167	0.075272	0.001796
1521	7.6000e-01	-19.1690	-29.592310	0.000065	0.645344	0.218648	0.005217
1522	7.6050e-01	-19.1353	-29.538002	0.000134	1.343584	0.455219	0.010862
1523	7.6100e-01	-19.1000	-29.474713	0.000157	1.565752	0.530491	0.012658
1524	7.6150e-01	-19.0647	-29.459747	0.000037	0.370279	0.125454	0.002993
1525	7.6200e-01	-19.0182	-29.441359	0.000045	0.454914	0.154129	0.003678
1526	7.6250e-01	-18.9476	-29.434517	0.000017	0.169270	0.057350	0.001368
1527	7.6300e-01	-18.9283	-29.373366	0.000151	1.512855	0.512569	0.012230
1528	7.6350e-01	-18.8898	-29.320341	0.000131	1.311846	0.444465	0.010605
1529	7.6400e-01	-18.8513	-29.303663	0.000041	0.412597	0.139792	0.003335
1530	7.6450e-01	-18.8177	-29.262611	0.000102	1.015623	0.344102	0.008210
1531	7.6500e-01	-18.7856	-29.221132	0.000103	1.026202	0.347687	0.008296
1532	7.6550e-01	-18.7358	-29.190343	0.000076	0.761717	0.258077	0.006158
1533	7.6600e-01	-18.6845	-29.173665	0.000041	0.412597	0.139792	0.003335
1534	7.6650e-01	-18.6524	-29.112515	0.000151	1.512855	0.512569	0.012230
1535	7.6700e-01	-18.6235	-29.079160	0.000083	0.825193	0.279583	0.006671
1536	7.6750e-01	-18.5706	-29.043240	0.000089	0.888670	0.301089	0.007184
1537	7.6800e-01	-18.5433	-29.023141	0.000050	0.497232	0.168467	0.004020
1538	7.6850e-01	-18.4920	-28.977813	0.000112	1.121417	0.379946	0.009066
1539	7.6900e-01	-18.4535	-28.942748	0.000087	0.867511	0.293921	0.007013
1540	7.6950e-01	-18.4214	-28.884163	0.000145	1.449378	0.491063	0.011717
1541	7.7000e-01	-18.3749	-28.889722	-0.000014	-0.137532	-0.046597	-0.001112
1542	7.7050e-01	-18.3637	-28.814460	0.000186	1.861975	0.630854	0.015052
1543	7.7100e-01	-18.2866	-28.777684	0.000091	0.909829	0.308258	0.007355
1544	7.7150e-01	-18.2353	-28.772980	0.000012	0.116373	0.039428	0.000941
1545	7.7200e-01	-18.2385	-28.708837	-0.000159	-1.586910	-0.537660	0.012829
1546	7.7250e-01	-18.1968	-28.678048	0.000076	0.761717	0.258077	0.006158
1547	7.7300e-01	-18.1262	-28.667785	0.000025	0.253906	0.086026	0.002053
1548	7.7350e-01	-18.0909	-28.589529	0.000194	1.936031	0.655945	0.015651
1549	7.7400e-01	-18.0460	-28.547622	0.000104	1.036781	0.351271	0.008381
1550	7.7450e-01	-17.9947	-28.557885	-0.000025	-0.253906	-0.086026	-0.002053
1551	7.7500e-01	-17.9706	-28.505287	0.000130	1.301267	0.440881	0.010520
1552	7.7550e-01	-17.9401	-28.453117	0.000129	1.290687	0.437297	0.010434
1553	7.7600e-01	-17.8856	-28.379138	0.000183	1.830237	0.620101	0.014796
1554	7.7650e-01	-17.8695	-28.394532	-0.000038	-0.380859	-0.129038	-0.003079
1555	7.7700e-01	-17.8134	-28.313711	0.000200	1.999507	0.677451	0.016164
1556	7.7750e-01	-17.7781	-28.316277	-0.000006	-0.063476	-0.021506	-0.000513
1557	7.7800e-01	-17.7428	-28.249995	0.000164	1.639807	0.555582	0.013256
1558	7.7850e-01	-17.6770	-28.212364	0.000093	0.930987	0.315427	0.007526
1559	7.7900e-01	-17.6321	-28.196542	0.000039	0.391438	0.132623	0.003164
1560	7.7950e-01	-17.6193	-28.132398	0.000159	1.586910	0.537660	0.012829
1561	7.8000e-01	-17.5551	-28.081510	0.000126	1.258949	0.426543	0.010177
1562	7.8050e-01	-17.5359	-28.084504	-0.000007	-0.074056	-0.025091	-0.000599
1563	7.8100e-01	-17.4942	-28.020788	0.000158	1.576331	0.534075	0.012743
1564	7.8150e-01	-17.4412	-27.985722	0.000087	0.867511	0.293921	0.007013
1565	7.8200e-01	-17.3819	-27.972466	0.000033	0.327961	0.111116	0.002651
1566	7.8250e-01	-17.3835	-27.930986	-0.000103	-1.026202	-0.347687	0.008296
1567	7.8300e-01	-17.3594	-27.857007	0.000183	1.830237	0.620101	0.014796
1568	7.8350e-01	-17.2856	-27.810396	0.000115	1.153155	0.390699	0.009322
1569	7.8400e-01	-17.2631	-27.789442	0.000052	0.518391	0.175636	0.004191
1570	7.8450e-01	-17.2102	-27.742831	0.000115	1.153155	0.390699	0.009322
1571	7.8500e-01	-17.1541	-27.750101	-0.000018	-0.179850	-0.060935	-0.001454
1572	7.8550e-01	-17.1300	-27.681681	0.000169	1.692704	0.573504	0.013684
1573	7.8600e-01	-17.0883	-27.653885	0.000069	0.687661	0.232986	0.005559
1574	7.8650e-01	-17.0514	-27.596156	0.000143	1.428219	0.483894	0.011546
1575	7.8700e-01	-16.9824	-27.536288	0.000148	1.481116	0.501816	0.011974
1576	7.8750e-01	-16.9680	-27.524315	0.000030	0.296223	0.100363	0.002395
1577	7.8800e-01	-16.9327	-27.475138	0.000122	1.216631	0.412206	0.009835
1578	7.8850e-01	-16.8990	-27.430237	0.000111	1.110837	0.376362	0.008980
1579	7.8900e-01	-16.8284	-27.409711	0.000051	0.507811	0.172051	0.004105
1580	7.8950e-01	-16.8204	-27.367376	0.000105	1.047361	0.354855	0.008467
1581	7.9000e-01	-16.7562	-27.322903	0.000110	1.100258	0.372777	0.008895
1582	7.9050e-01	-16.7354	-27.277575	0.000112	1.121417	0.379946	0.009066
1583	7.9100e-01	-16.6904	-27.208300	0.000171	1.713863	0.580673	0.013855
1584	7.9150e-01	-16.6760	-27.177083	0.000077	0.772296	0.261661	0.006243
1585	7.9200e-01	-16.6375	-27.119353	0.000143	1.428219	0.483894	0.011546
1586	7.9250e-01	-16.5653	-27.108235	0.000028	0.275064	0.093194	0.002224
1587	7.9300e-01	-16.5380	-27.063762	0.000110	1.100258	0.372777	0.008895
1588	7.9350e-01	-16.4514	-27.052216	0.000029	0.285644	0.096779	0.002309
1589	7.9400e-01	-16.4482	-27.001757	0.000125	1.248370	0.422959	0.010092
1590	7.9450e-01	-16.3840	-26.980803	0.000052	0.518391	0.175636	0.004191
1591	7.9500e-01	-16.3664	-26.946165	0.000086	0.856932	0.290336	0.006928
1592	7.9550e-01	-16.3327	-26.866199	0.000198	1.978348	0.670283	0.015993
1593	7.9600e-01	-16.3118	-26.825575	0.000101	1.005043	0.340518	0.008125
1594	7.9650e-01	-16.2380	-26.784951	0.000101	1.005043	0.340518	0.008125
1595	7.9700e-01	-16.2284	-26.763569	0.000053	0.528970	0.179220	0.004276
1596	7.9750e-01	-16.2011	-26.668209	0.000236	2.359207	0.799321	0.019072
1597	7.9800e-01	-16.1338	-26.649821	0.000045	0.454914	0.154129	0.003678
1598	7.9850e-01	-16.1017	-26.604065	0.000113	1.131996	0.383531	0.009151
1599	7.9900e-01	-16.0536	-26.586532	0.000043	0.433756	0.146960	0.003507
1600	7.9950e-01	-16.0295	-26.553605	0.000081	0.814614	0.275999	0.006585
1601	8.0000e-01	-15.9814	-26.491600	0.000153	1.534013	0.519738	0.012401
1602	8.0050e-01	-15.9397	-26.441995	0.000123	1.227211	0.415790	0.009921
1603	8.0100e-01	-15.8963	-26.420614	0.000053	0.528970	0.179220	0.004276
1604	8.0150e-01	-15.8514	-26.401371	0.000048	0.476073	0.161298	0.003849
1605	8.0200e-01	-15.7953	-26.326109	0.000186	1.861975	0.630854	0.015052
1606	8.0250e-01	-15.7808	-26.289760	0.000090	0.899249	0.304674	0.007270
1607	8.0300e-01	-15.7664	-26.242294	0.000117	1.174314	0.397868	0.009493
1608	8.0350e-01	-15.7038	-26.179006	0.000157	1.565752	0.530491	0.012658
1609	8.0400e-01	-15.6397	-26.164894	0.000035	0.349120	0.118285	0.002822
1610	8.0450e-01	-15.5996	-26.150355	0.000036	0.359700	0.121870	0.002908
1611	8.0500e-01	-15.5739	-26.087921	0.000154	1.544593	0.523322	0.012487
1612	8.0550e-01	-15.5482	-26.029337	0.000145	1.449378	0.491063	0.011717
1613	8.0600e-01	-15.4696	-26.003252	0.000065	0.645344	0.218648	0.005217
1614	8.0650e-01	-15.4728	-25.934831	-0.000169	-1.692704	-0.573504	0.013684
1615	8.0700e-01	-15.4119	-25.883516	0.000127	1.269528	0.430128	0.010263
1616	8.0750e-01	-15.3734	-25.889076	-0.000014	-0.137532	-0.046597	-0.001112
1617	8.0800e-01	-15.3429	-25.837333	0.000128	1.280108	0.433712	0.010349
1618	8.0850e-01	-15.2835	-25.809537	0.000069	0.687661	0.232986	0.005559
1619	8.0900e-01	-15.2354	-25.759933	0.000123	1.227211	0.415790	0.009921
1620	8.0950e-01	-15.2178	-25.686809	0.000181	1.809078	0.612932	0.014625
1621	8.1000e-01	-15.1841	-25.676546	0.000025	0.253906	0.086026	0.002053
1622	8.1050e-01	-15.1343	-25.625658	0.000126	1.258949	0.426543	0.010177
1623	8.1100e-01	-15.0589	-25.605132	0.000051	0.507811	0.172051	0.004105
1624	8.1150e-01	-15.0493	-25.544837	0.000149	1.491696	0.505400	0.012059
1625	8.1200e-01	-15.0188	-25.488391	0.000140	1.396481	0.473141	0.011289
1626	8.1250e-01	-14.9691	-25.429378	0.000146	1.459958	0.494647	0.011802
1627	8.1300e-01	-14.9290	-25.395168	0.000085	0.846352	0.286752	0.006842
1628	8.1350e-01	-14.8712	-25.366945	0.000070	0.698241	0.236570	0.005645
1629	8.1400e-01	-14.8279	-25.334873	0.000079	0.793455	0.268830	0.006414
1630	8.1450e-01	-14.7942	-25.291683	0.000107	1.068520	0.362024	0.008638
1631	8.1500e-01	-14.7766	-25.263460	0.000070	0.698241	0.236570	0.005645
1632	8.1550e-01	-14.7557	-25.187342	0.000188	1.883134	0.638023	0.015223
1633	8.1600e-01	-14.7060	-25.159119	0.000070	0.698241	0.236570	0.005645
1634	8.1650e-01	-14.6643	-25.080864	0.000194	1.936031	0.655945	0.015651
1635	8.1700e-01	-14.6130	-25.060765	0.000050	0.497232	0.168467	0.004020
1636	8.1750e-01	-14.5616	-25.014582	0.000114	1.142576	0.387115	0.009237
1637	8.1800e-01	-14.5376	-24.975240	0.000097	0.973305	0.329765	0.007868
1638	8.1850e-01	-14.4975	-24.917083	0.000144	1.438799	0.487478	0.011631
1639	8.1900e-01	-14.4461	-24.908103	0.000022	0.222167	0.075272	0.001796
1640	8.1950e-01	-14.4156	-24.836690	0.000177	1.766760	0.598595	0.014283
1641	8.2000e-01	-14.3547	-24.820012	0.000041	0.412597	0.139792	0.003335
1642	8.2050e-01	-14.3386	-24.752875	0.000166	1.660966	0.562751	0.013427
1643	8.2100e-01	-14.2616	-24.712678	0.000099	0.994464	0.336933	0.008039
1644	8.2150e-01	-14.2360	-24.683600	0.000072	0.719399	0.243739	0.005816
1645	8.2200e-01	-14.2263	-24.625871	0.000143	1.428219	0.483894	0.011546
1646	8.2250e-01	-14.1686	-24.586529	0.000097	0.973305	0.329765	0.007868
1647	8.2300e-01	-14.1638	-24.537780	0.000121	1.206052	0.408621	0.009750
1648	8.2350e-01	-14.0868	-24.482188	0.000138	1.375322	0.465972	0.011118
1649	8.2400e-01	-14.0386	-24.456103	0.000065	0.645344	0.218648	0.005217
1650	8.2450e-01	-14.0146	-24.417189	0.000096	0.962726	0.326180	0.007783
1651	8.2500e-01	-13.9713	-24.364591	0.000130	1.301267	0.440881	0.010520
1652	8.2550e-01	-13.9488	-24.312421	0.000129	1.290687	0.437297	0.010434
1653	8.2600e-01	-13.8878	-24.247422	0.000161	1.608069	0.544829	0.013000
1654	8.2650e-01	-13.8397	-24.237587	0.000024	0.243326	0.082441	0.001967
1655	8.2700e-01	-13.7852	-24.211929	0.000063	0.634764	0.215064	0.005132
1656	8.2750e-01	-13.7691	-24.179857	0.000079	0.793455	0.268830	0.006414
1657	8.2800e-01	-13.7178	-24.101174	0.000195	1.946610	0.659529	0.015737
1658	8.2850e-01	-13.6857	-24.054991	0.000114	1.142576	0.387115	0.009237
1659	8.2900e-01	-13.6504	-24.005386	0.000123	1.227211	0.415790	0.009921
1660	8.2950e-01	-13.6264	-23.946374	0.000146	1.459958	0.494647	0.011802
1661	8.3000e-01	-13.5927	-23.908743	0.000093	0.930987	0.315427	0.007526
1662	8.3050e-01	-13.5269	-23.851441	0.000142	1.417640	0.480309	0.011460
1663	8.3100e-01	-13.4820	-23.824073	0.000068	0.677082	0.229402	0.005474
1664	8.3150e-01	-13.4499	-23.792429	0.000078	0.782876	0.265246	0.006329
1665	8.3200e-01	-13.3937	-23.759074	0.000083	0.825193	0.279583	0.006671
1666	8.3250e-01	-13.3665	-23.700489	0.000145	1.449378	0.491063	0.011717
1667	8.3300e-01	-13.3103	-23.648319	0.000129	1.290687	0.437297	0.010434
1668	8.3350e-01	-13.2798	-23.609833	0.000095	0.952146	0.322596	0.007697
1669	8.3400e-01	-13.2365	-23.578616	0.000077	0.772296	0.261661	0.006243
1670	8.3450e-01	-13.2173	-23.519604	0.000146	1.459958	0.494647	0.011802
1671	8.3500e-01	-13.1627	-23.480262	0.000097	0.973305	0.329765	0.007868
1672	8.3550e-01	-13.1146	-23.446480	0.000084	0.835773	0.283168	0.006756
1673	8.3600e-01	-13.0873	-23.392172	0.000134	1.343584	0.455219	0.010862
1674	8.3650e-01	-13.0232	-23.356679	0.000088	0.878090	0.297505	0.007099
1675	8.3700e-01	-13.0167	-23.297666	0.000146	1.459958	0.494647	0.011802
1676	8.3750e-01	-12.9542	-23.240792	0.000141	1.407061	0.476725	0.011375
1677	8.3800e-01	-12.9317	-23.184773	0.000139	1.385902	0.469556	0.011204
1678	8.3850e-01	-12.9028	-23.160826	0.000059	0.592447	0.200726	0.004789
1679	8.3900e-01	-12.8836	-23.055630	0.000260	2.602533	0.881762	0.021039
1680	8.3950e-01	-12.7841	-23.058624	-0.000007	-0.074056	-0.025091	-0.000599
1681	8.4000e-01	-12.7681	-22.990631	0.000168	1.682125	0.569919	0.013598
1682	8.4050e-01	-12.7280	-22.979086	0.000029	0.285644	0.096779	0.002309
1683	8.4100e-01	-12.6831	-22.940599	0.000095	0.952146	0.322596	0.007697
1684	8.4150e-01	-12.6381	-22.901258	0.000097	0.973305	0.329765	0.007868
1685	8.4200e-01	-12.6173	-22.806325	0.000235	2.348627	0.795737	0.018987
1686	8.4250e-01	-12.5884	-22.765701	0.000101	1.005043	0.340518	0.008125
1687	8.4300e-01	-12.5162	-22.752872	0.000032	0.317382	0.107532	0.002566
1688	8.4350e-01	-12.5066	-22.690866	0.000153	1.534013	0.519738	0.012401
1689	8.4400e-01	-12.4328	-22.666064	0.000061	0.613605	0.207895	0.004960
1690	8.4450e-01	-12.4023	-22.597216	0.000170	1.703284	0.577088	0.013770
1691	8.4500e-01	-12.3526	-22.590374	0.000017	0.169270	0.057350	0.001368
1692	8.4550e-01	-12.3285	-22.495869	0.000234	2.338048	0.792152	0.018901
1693	8.4600e-01	-12.2964	-22.483040	0.000032	0.317382	0.107532	0.002566
1694	8.4650e-01	-12.2676	-22.388535	0.000234	2.338048	0.792152	0.018901
1695	8.4700e-01	-12.2066	-22.373141	0.000038	0.380859	0.129038	0.003079
1696	8.4750e-01	-12.1713	-22.353042	0.000050	0.497232	0.168467	0.004020
1697	8.4800e-01	-12.1473	-22.266662	0.000214	2.137039	0.724049	0.017276
1698	8.4850e-01	-12.0847	-22.208932	0.000143	1.428219	0.483894	0.011546
1699	8.4900e-01	-12.0590	-22.158473	0.000125	1.248370	0.422959	0.010092
1700	8.4950e-01	-11.9932	-22.174295	-0.000039	-0.391438	-0.132623	-0.003164
1701	8.5000e-01	-11.9997	-22.110151	-0.000159	-1.586910	-0.537660	0.012829
1702	8.5050e-01	-11.9291	-22.000251	0.000272	2.718907	0.921190	0.021980
1703	8.5100e-01	-11.9114	-21.975449	0.000061	0.613605	0.207895	0.004960
1704	8.5150e-01	-11.8296	-21.957916	0.000043	0.433756	0.146960	0.003507
1705	8.5200e-01	-11.8296	-21.875385	-0.000204	-2.041825	-0.691789	0.016506
1706	8.5250e-01	-11.7767	-21.859135	0.000040	0.402017	0.136207	0.003250
1707	8.5300e-01	-11.7285	-21.795419	0.000158	1.576331	0.534075	0.012743
1708	8.5350e-01	-11.6933	-21.778314	0.000042	0.423176	0.143376	0.003421
1709	8.5400e-01	-11.6483	-21.712460	0.000163	1.629228	0.551997	0.013171
1710	8.5450e-01	-11.6050	-21.679960	0.000080	0.804035	0.272414	0.006500
1711	8.5500e-01	-11.5761	-21.619237	0.000150	1.502275	0.508985	0.012145
1712	8.5550e-01	-11.5296	-21.566212	0.000131	1.311846	0.444465	0.010605
1713	8.5600e-01	-11.5136	-21.474700	0.000226	2.263992	0.767061	0.018302
1714	8.5650e-01	-11.4558	-21.468713	0.000015	0.148112	0.050182	0.001197
1715	8.5700e-01	-11.4157	-21.407563	0.000151	1.512855	0.512569	0.012230
1716	8.5750e-01	-11.3820	-21.345557	0.000153	1.534013	0.519738	0.012401
1717	8.5800e-01	-11.3211	-21.316051	0.000073	0.729979	0.247324	0.005901
1718	8.5850e-01	-11.2906	-21.269012	0.000116	1.163734	0.394284	0.009408
1719	8.5900e-01	-11.2425	-21.196743	0.000179	1.787919	0.605763	0.014454
1720	8.5950e-01	-11.1863	-21.227105	-0.000075	-0.751138	-0.254492	-0.006072
1721	8.6000e-01	-11.1510	-21.149705	0.000191	1.914872	0.648776	0.015480
1722	8.6050e-01	-11.1157	-21.115495	0.000085	0.846352	0.286752	0.006842
1723	8.6100e-01	-11.0804	-21.059048	0.000140	1.396481	0.473141	0.011289
1724	8.6150e-01	-11.0484	-20.979082	0.000198	1.978348	0.670283	0.015993
1725	8.6200e-01	-11.0275	-20.932471	0.000115	1.153155	0.390699	0.009322
1726	8.6250e-01	-10.9826	-20.875169	0.000142	1.417640	0.480309	0.011460
1727	8.6300e-01	-10.9120	-20.831551	0.000108	1.079099	0.365609	0.008724
1728	8.6350e-01	-10.8703	-20.840532	-0.000022	-0.222167	-0.075272	-0.001796
1729	8.6400e-01	-10.8607	-20.719514	0.000299	2.993971	1.014385	0.024204
1730	8.6450e-01	-10.7885	-20.707540	0.000030	0.296223	0.100363	0.002395
1731	8.6500e-01	-10.7580	-20.648955	0.000145	1.449378	0.491063	0.011717
1732	8.6550e-01	-10.7259	-20.606621	0.000105	1.047361	0.354855	0.008467
1733	8.6600e-01	-10.6810	-20.564286	0.000105	1.047361	0.354855	0.008467
1734	8.6650e-01	-10.6152	-20.566424	-0.000005	-0.052897	-0.017922	-0.000428
1735	8.6700e-01	-10.6040	-20.476622	0.000222	2.221675	0.752724	0.017960
1736	8.6750e-01	-10.5863	-20.398367	0.000194	1.936031	0.655945	0.015651
1737	8.6800e-01	-10.5270	-20.355177	0.000107	1.068520	0.362024	0.008638
1738	8.6850e-01	-10.4724	-20.320967	0.000085	0.846352	0.286752	0.006842
1739	8.6900e-01	-10.4500	-20.240146	0.000200	1.999507	0.677451	0.016164
1740	8.6950e-01	-10.4211	-20.185410	0.000135	1.354164	0.458803	0.010947
1741	8.7000e-01	-10.3858	-20.134522	0.000126	1.258949	0.426543	0.010177
1742	8.7050e-01	-10.3297	-20.081069	0.000132	1.322425	0.448050	0.010691
1743	8.7100e-01	-10.2847	-20.048142	0.000081	0.814614	0.275999	0.006585
1744	8.7150e-01	-10.2366	-20.022484	0.000063	0.634764	0.215064	0.005132
1745	8.7200e-01	-10.2174	-19.969887	0.000130	1.301267	0.440881	0.010520
1746	8.7250e-01	-10.1740	-19.910447	0.000147	1.470537	0.498231	0.011888
1747	8.7300e-01	-10.1131	-19.848013	0.000154	1.544593	0.523322	0.012487
1748	8.7350e-01	-10.0778	-19.803968	0.000109	1.089679	0.369193	0.008809
1749	8.7400e-01	-10.0232	-19.801402	0.000006	0.063476	0.021506	0.000513
1750	8.7450e-01	-10.0088	-19.706469	0.000235	2.348627	0.795737	0.018987
1751	8.7500e-01	-9.9735	-19.653871	0.000130	1.301267	0.440881	0.010520
1752	8.7550e-01	-9.9414	-19.593149	0.000150	1.502275	0.508985	0.012145
1753	8.7600e-01	-9.8869	-19.539268	0.000133	1.333005	0.451634	0.010776
1754	8.7650e-01	-9.8323	-19.530288	0.000022	0.222167	0.075272	0.001796
1755	8.7700e-01	-9.8163	-19.446046	0.000208	2.084142	0.706127	0.016848
1756	8.7750e-01	-9.7489	-19.414401	0.000078	0.782876	0.265246	0.006329
1757	8.7800e-01	-9.7297	-19.375487	0.000096	0.962726	0.326180	0.007783
1758	8.7850e-01	-9.6719	-19.305357	0.000174	1.735022	0.587841	0.014026
1759	8.7900e-01	-9.6366	-19.273285	0.000079	0.793455	0.268830	0.006414
1760	8.7950e-01	-9.6142	-19.192464	0.000200	1.999507	0.677451	0.016164
1761	8.8000e-01	-9.5612	-19.162958	0.000073	0.729979	0.247324	0.005901
1762	8.8050e-01	-9.5484	-19.065031	0.000242	2.422683	0.820827	0.019585
1763	8.8100e-01	-9.4858	-19.084275	-0.000048	-0.476073	-0.161298	-0.003849
1764	8.8150e-01	-9.4489	-18.977796	0.000263	2.634271	0.892515	0.021296
1765	8.8200e-01	-9.4120	-18.952994	0.000061	0.613605	0.207895	0.004960
1766	8.8250e-01	-9.3639	-18.897830	0.000136	1.364743	0.462387	0.011033
1767	8.8300e-01	-9.3318	-18.854640	0.000107	1.068520	0.362024	0.008638
1768	8.8350e-01	-9.3062	-18.776812	0.000193	1.925451	0.652361	0.015566
1769	8.8400e-01	-9.2532	-18.731911	0.000111	1.110837	0.376362	0.008980
1770	8.8450e-01	-9.2179	-18.697274	0.000086	0.856932	0.290336	0.006928
1771	8.8500e-01	-9.1794	-18.613032	0.000208	2.084142	0.706127	0.016848
1772	8.8550e-01	-9.0944	-18.588229	0.000061	0.613605	0.207895	0.004960
1773	8.8600e-01	-9.0944	-18.524941	-0.000157	-1.565752	-0.530491	0.012658
1774	8.8650e-01	-9.0639	-18.448823	0.000188	1.883134	0.638023	0.015223
1775	8.8700e-01	-9.0222	-18.412475	0.000090	0.899249	0.304674	0.007270
1776	8.8750e-01	-8.9869	-18.340207	0.000179	1.787919	0.605763	0.014454
1777	8.8800e-01	-8.9404	-18.305997	0.000085	0.846352	0.286752	0.006842
1778	8.8850e-01	-8.8682	-18.282050	0.000059	0.592447	0.200726	0.004789
1779	8.8900e-01	-8.8441	-18.237149	0.000111	1.110837	0.376362	0.008980
1780	8.8950e-01	-8.8169	-18.151624	0.000212	2.115881	0.716880	0.017105
1781	8.9000e-01	-8.7752	-18.093039	0.000145	1.449378	0.491063	0.011717
1782	8.9050e-01	-8.7094	-18.031034	0.000153	1.534013	0.519738	0.012401
1783	8.9100e-01	-8.6901	-18.006659	0.000060	0.603026	0.204311	0.004875
1784	8.9150e-01	-8.6468	-17.944653	0.000153	1.534013	0.519738	0.012401
1785	8.9200e-01	-8.5955	-17.886924	0.000143	1.428219	0.483894	0.011546
1786	8.9250e-01	-8.5554	-17.882220	0.000012	0.116373	0.039428	0.000941
1787	8.9300e-01	-8.5441	-17.765478	0.000289	2.888177	0.978541	0.023348
1788	8.9350e-01	-8.4816	-17.733406	0.000079	0.793455	0.268830	0.006414
1789	8.9400e-01	-8.4302	-17.665842	0.000167	1.671546	0.566335	0.013513
1790	8.9450e-01	-8.4206	-17.598277	0.000167	1.671546	0.566335	0.013513
1791	8.9500e-01	-8.3693	-17.565777	0.000080	0.804035	0.272414	0.006500
1792	8.9550e-01	-8.3212	-17.516173	0.000123	1.227211	0.415790	0.009921
1793	8.9600e-01	-8.3003	-17.462292	0.000133	1.333005	0.451634	0.010776
1794	8.9650e-01	-8.2313	-17.418247	0.000109	1.089679	0.369193	0.008809
1795	8.9700e-01	-8.2169	-17.353675	0.000160	1.597490	0.541244	0.012914
1796	8.9750e-01	-8.1623	-17.303215	0.000125	1.248370	0.422959	0.010092
1797	8.9800e-01	-8.1190	-17.266867	0.000090	0.899249	0.304674	0.007270
1798	8.9850e-01	-8.0966	-17.171934	0.000235	2.348627	0.795737	0.018987
1799	8.9900e-01	-8.0549	-17.124896	0.000116	1.163734	0.394284	0.009408
1800	8.9950e-01	-8.0212	-17.054765	0.000174	1.735022	0.587841	0.014026
1801	9.0000e-01	-7.9345	-17.074008	-0.000048	-0.476073	-0.161298	-0.003849
1802	9.0050e-01	-7.9297	-16.982069	0.000227	2.274572	0.770646	0.018388
1803	9.0100e-01	-7.8864	-16.923056	0.000146	1.459958	0.494647	0.011802
1804	9.0150e-01	-7.8511	-16.825130	0.000242	2.422683	0.820827	0.019585
1805	9.0200e-01	-7.8190	-16.793486	0.000078	0.782876	0.265246	0.006329
1806	9.0250e-01	-7.7645	-16.722928	0.000175	1.745601	0.591426	0.014112
1807	9.0300e-01	-7.7164	-16.709671	0.000033	0.327961	0.111116	0.002651
1808	9.0350e-01	-7.7148	-16.613456	0.000238	2.380366	0.806490	0.019243
1809	9.0400e-01	-7.6426	-16.592930	0.000051	0.507811	0.172051	0.004105
1810	9.0450e-01	-7.6009	-16.532207	0.000150	1.502275	0.508985	0.012145
1811	9.0500e-01	-7.5800	-16.436846	0.000236	2.359207	0.799321	0.019072
1812	9.0550e-01	-7.5447	-16.415038	0.000054	0.539550	0.182804	0.004362
1813	9.0600e-01	-7.5030	-16.347900	0.000166	1.660966	0.562751	0.013427
1814	9.0650e-01	-7.4613	-16.280763	0.000166	1.660966	0.562751	0.013427
1815	9.0700e-01	-7.4148	-16.254678	0.000065	0.645344	0.218648	0.005217
1816	9.0750e-01	-7.3602	-16.202080	0.000130	1.301267	0.440881	0.010520
1817	9.0800e-01	-7.3201	-16.157607	0.000110	1.100258	0.372777	0.008895
1818	9.0850e-01	-7.3057	-16.032313	0.000310	3.099765	1.050229	0.025059
1819	9.0900e-01	-7.2383	-16.013070	0.000048	0.476073	0.161298	0.003849
1820	9.0950e-01	-7.2126	-15.963465	0.000123	1.227211	0.415790	0.009921
1821	9.1000e-01	-7.1822	-15.870243	0.000231	2.306310	0.781399	0.018644
1822	9.1050e-01	-7.1356	-15.845013	0.000062	0.624185	0.211480	0.005046
1823	9.1100e-01	-7.0875	-15.804816	0.000099	0.994464	0.336933	0.008039
1824	9.1150e-01	-7.0538	-15.732548	0.000179	1.787919	0.605763	0.014454
1825	9.1200e-01	-7.0089	-15.664128	0.000169	1.692704	0.573504	0.013684
1826	9.1250e-01	-6.9832	-15.662417	0.000004	0.042318	0.014338	0.000342
1827	9.1300e-01	-6.9447	-15.554656	0.000267	2.666010	0.903268	0.021552
1828	9.1350e-01	-6.8854	-15.502058	0.000130	1.301267	0.440881	0.010520
1829	9.1400e-01	-6.8453	-15.464854	0.000092	0.920408	0.311843	0.007441
1830	9.1450e-01	-6.7971	-15.370349	0.000234	2.338048	0.792152	0.018901
1831	9.1500e-01	-6.7747	-15.341698	0.000071	0.708820	0.240155	0.005730
1832	9.1550e-01	-6.7314	-15.283114	0.000145	1.449378	0.491063	0.011717
1833	9.1600e-01	-6.6961	-15.228805	0.000134	1.343584	0.455219	0.010862
1834	9.1650e-01	-6.6720	-15.150550	0.000194	1.936031	0.655945	0.015651
1835	9.1700e-01	-6.6078	-15.101373	0.000122	1.216631	0.412206	0.009835
1836	9.1750e-01	-6.5854	-15.036374	0.000161	1.608069	0.544829	0.013000
1837	9.1800e-01	-6.5244	-14.963677	0.000180	1.798499	0.609348	0.014539
1838	9.1850e-01	-6.4763	-14.950421	0.000033	0.327961	0.111116	0.002651
1839	9.1900e-01	-6.4538	-14.882001	0.000169	1.692704	0.573504	0.013684
1840	9.1950e-01	-6.4201	-14.754569	0.000315	3.152662	1.068151	0.025486
1841	9.2000e-01	-6.3736	-14.735753	0.000047	0.465494	0.157714	0.003763
1842	9.2050e-01	-6.3319	-14.706675	0.000072	0.719399	0.243739	0.005816
1843	9.2100e-01	-6.2854	-14.610887	0.000237	2.369786	0.802905	0.019158
1844	9.2150e-01	-6.2581	-14.566841	0.000109	1.089679	0.369193	0.008809
1845	9.2200e-01	-6.2196	-14.530921	0.000089	0.888670	0.301089	0.007184
1846	9.2250e-01	-6.1731	-14.450099	0.000200	1.999507	0.677451	0.016164
1847	9.2300e-01	-6.1266	-14.403916	0.000114	1.142576	0.387115	0.009237
1848	9.2350e-01	-6.0833	-14.358160	0.000113	1.131996	0.383531	0.009151
1849	9.2400e-01	-6.0496	-14.306845	0.000127	1.269528	0.430128	0.010263
1850	9.2450e-01	-6.0143	-14.220892	0.000213	2.126460	0.720464	0.017191
1851	9.2500e-01	-5.9565	-14.184544	0.000090	0.899249	0.304674	0.007270
1852	9.2550e-01	-5.9228	-14.134940	0.000123	1.227211	0.415790	0.009921
1853	9.2600e-01	-5.9068	-14.013494	0.000300	3.004550	1.017969	0.024289
1854	9.2650e-01	-5.8410	-13.974153	0.000097	0.973305	0.329765	0.007868
1855	9.2700e-01	-5.8105	-13.962179	0.000030	0.296223	0.100363	0.002395
1856	9.2750e-01	-5.7801	-13.829188	0.000329	3.290194	1.114748	0.026598
1857	9.2800e-01	-5.7287	-13.782149	0.000116	1.163734	0.394284	0.009408
1858	9.2850e-01	-5.6742	-13.763333	0.000047	0.465494	0.157714	0.003763
1859	9.2900e-01	-5.6517	-13.697479	0.000163	1.629228	0.551997	0.013171
1860	9.2950e-01	-5.6148	-13.612809	0.000209	2.094722	0.709711	0.016934
1861	9.3000e-01	-5.5875	-13.533271	0.000197	1.967769	0.666698	0.015908
1862	9.3050e-01	-5.5282	-13.475969	0.000142	1.417640	0.480309	0.011460
1863	9.3100e-01	-5.4833	-13.404556	0.000177	1.766760	0.598595	0.014283
1864	9.3150e-01	-5.4416	-13.365214	0.000097	0.973305	0.329765	0.007868
1865	9.3200e-01	-5.4111	-13.339557	0.000063	0.634764	0.215064	0.005132
1866	9.3250e-01	-5.3742	-13.209986	0.000321	3.205559	1.086073	0.025914
1867	9.3300e-01	-5.3212	-13.226664	-0.000041	-0.412597	-0.139792	-0.003335
1868	9.3350e-01	-5.2988	-13.125744	0.000250	2.496739	0.845918	0.020184
1869	9.3400e-01	-5.2555	-13.018410	0.000266	2.655430	0.899684	0.021467
1870	9.3450e-01	-5.2089	-12.998312	0.000050	0.497232	0.168467	0.004020
1871	9.3500e-01	-5.1913	-12.940582	0.000143	1.428219	0.483894	0.011546
1872	9.3550e-01	-5.1480	-12.843084	0.000241	2.412104	0.817243	0.019500
1873	9.3600e-01	-5.1079	-12.795617	0.000117	1.174314	0.397868	0.009493
1874	9.3650e-01	-5.0678	-12.696836	0.000244	2.443842	0.827996	0.019756
1875	9.3700e-01	-5.0020	-12.688711	0.000020	0.201009	0.068104	0.001625
1876	9.3750e-01	-4.9635	-12.620291	0.000169	1.692704	0.573504	0.013684
1877	9.3800e-01	-4.9202	-12.568976	0.000127	1.269528	0.430128	0.010263
1878	9.3850e-01	-4.8769	-12.487299	0.000202	2.020666	0.684620	0.016335
1879	9.3900e-01	-4.8480	-12.436840	0.000125	1.248370	0.422959	0.010092
1880	9.3950e-01	-4.8079	-12.352597	0.000208	2.084142	0.706127	0.016848
1881	9.4000e-01	-4.7870	-12.291447	0.000151	1.512855	0.512569	0.012230
1882	9.4050e-01	-4.7501	-12.176416	0.000285	2.845859	0.964203	0.023006
1883	9.4100e-01	-4.7036	-12.137930	0.000095	0.952146	0.322596	0.007697
1884	9.4150e-01	-4.6587	-12.053687	0.000208	2.084142	0.706127	0.016848
1885	9.4200e-01	-4.6154	-12.048556	0.000013	0.126953	0.043013	0.001026
1886	9.4250e-01	-4.5929	-11.948919	0.000247	2.465001	0.835165	0.019927
1887	9.4300e-01	-4.5271	-11.881354	0.000167	1.671546	0.566335	0.013513
1888	9.4350e-01	-4.4838	-11.853131	0.000070	0.698241	0.236570	0.005645
1889	9.4400e-01	-4.4373	-11.807375	0.000113	1.131996	0.383531	0.009151
1890	9.4450e-01	-4.4277	-11.679943	0.000315	3.152662	1.068151	0.025486
1891	9.4500e-01	-4.3940	-11.585865	0.000233	2.327469	0.788568	0.018816
1892	9.4550e-01	-4.3507	-11.551228	0.000086	0.856932	0.290336	0.006928
1893	9.4600e-01	-4.2721	-11.525570	0.000063	0.634764	0.215064	0.005132
1894	9.4650e-01	-4.2657	-11.413960	0.000276	2.761224	0.935528	0.022322
1895	9.4700e-01	-4.2159	-11.320738	0.000231	2.306310	0.781399	0.018644
1896	9.4750e-01	-4.1887	-11.311758	0.000022	0.222167	0.075272	0.001796
1897	9.4800e-01	-4.1245	-11.240344	0.000177	1.766760	0.598595	0.014283
1898	9.4850e-01	-4.0812	-11.198437	0.000104	1.036781	0.351271	0.008381
1899	9.4900e-01	-4.0603	-11.083406	0.000285	2.845859	0.964203	0.023006
1900	9.4950e-01	-3.9961	-11.059886	0.000058	0.581867	0.197142	0.004704
1901	9.5000e-01	-3.9801	-10.994032	0.000163	1.629228	0.551997	0.013171
1902	9.5050e-01	-3.9240	-10.892685	0.000251	2.507319	0.849503	0.020269
1903	9.5100e-01	-3.8935	-10.847784	0.000111	1.110837	0.376362	0.008980
1904	9.5150e-01	-3.8614	-10.762687	0.000211	2.105301	0.713295	0.017019
1905	9.5200e-01	-3.8068	-10.713082	0.000123	1.227211	0.415790	0.009921
1906	9.5250e-01	-3.7683	-10.648511	0.000160	1.597490	0.541244	0.012914
1907	9.5300e-01	-3.7186	-10.583939	0.000160	1.597490	0.541244	0.012914
1908	9.5350e-01	-3.6865	-10.492855	0.000225	2.253413	0.763477	0.018217
1909	9.5400e-01	-3.6528	-10.404337	0.000219	2.189936	0.741971	0.017704
1910	9.5450e-01	-3.6240	-10.335917	0.000169	1.692704	0.573504	0.013684
1911	9.5500e-01	-3.5486	-10.294009	0.000104	1.036781	0.351271	0.008381
1912	9.5550e-01	-3.5181	-10.221741	0.000179	1.787919	0.605763	0.014454
1913	9.5600e-01	-3.5020	-10.133222	0.000219	2.189936	0.741971	0.017704
1914	9.5650e-01	-3.4379	-10.060954	0.000179	1.787919	0.605763	0.014454
1915	9.5700e-01	-3.4074	-10.029737	0.000077	0.772296	0.261661	0.006243
1916	9.5750e-01	-3.3849	-9.902732	0.000314	3.142083	1.064566	0.025401
1917	9.5800e-01	-3.3272	-9.833457	0.000171	1.713863	0.580673	0.013855
1918	9.5850e-01	-3.2807	-9.797109	0.000090	0.899249	0.304674	0.007270
1919	9.5900e-01	-3.2470	-9.736386	0.000150	1.502275	0.508985	0.012145
1920	9.5950e-01	-3.2293	-9.630335	0.000262	2.623692	0.888931	0.021210
1921	9.6000e-01	-3.1732	-9.526422	0.000257	2.570795	0.871009	0.020783
1922	9.6050e-01	-3.0962	-9.529415	-0.000007	-0.074056	-0.025091	-0.000599
1923	9.6100e-01	-3.0833	-9.421226	0.000268	2.676589	0.906853	0.021638
1924	9.6150e-01	-3.0625	-9.332708	0.000219	2.189936	0.741971	0.017704
1925	9.6200e-01	-3.0047	-9.277117	0.000138	1.375322	0.465972	0.011118
1926	9.6250e-01	-2.9855	-9.156954	0.000297	2.972812	1.007216	0.024033
1927	9.6300e-01	-2.9261	-9.151395	0.000014	0.137532	0.046597	0.001112
1928	9.6350e-01	-2.8892	-9.056462	0.000235	2.348627	0.795737	0.018987
1929	9.6400e-01	-2.8395	-9.008568	0.000118	1.184893	0.401453	0.009579
1930	9.6450e-01	-2.8154	-8.931168	0.000191	1.914872	0.648776	0.015480
1931	9.6500e-01	-2.7737	-8.838801	0.000229	2.285151	0.774230	0.018473
1932	9.6550e-01	-2.7304	-8.751993	0.000215	2.147619	0.727633	0.017362
1933	9.6600e-01	-2.6839	-8.673737	0.000194	1.936031	0.655945	0.015651
1934	9.6650e-01	-2.6293	-8.627554	0.000114	1.142576	0.387115	0.009237
1935	9.6700e-01	-2.6261	-8.488148	0.000345	3.448885	1.168514	0.027881
1936	9.6750e-01	-2.5732	-8.436833	0.000127	1.269528	0.430128	0.010263
1937	9.6800e-01	-2.5267	-8.372261	0.000160	1.597490	0.541244	0.012914
1938	9.6850e-01	-2.4978	-8.266210	0.000262	2.623692	0.888931	0.021210
1939	9.6900e-01	-2.4625	-8.186244	0.000198	1.978348	0.670283	0.015993
1940	9.6950e-01	-2.4080	-8.154600	0.000078	0.782876	0.265246	0.006329
1941	9.7000e-01	-2.3871	-8.033582	0.000299	2.993971	1.014385	0.024204
1942	9.7050e-01	-2.3438	-7.983550	0.000124	1.237790	0.419375	0.010006
1943	9.7100e-01	-2.2941	-7.877927	0.000261	2.613113	0.885346	0.021125
1944	9.7150e-01	-2.2347	-7.853552	0.000060	0.603026	0.204311	0.004875
1945	9.7200e-01	-2.2219	-7.721416	0.000327	3.269036	1.107579	0.026427
1946	9.7250e-01	-2.1737	-7.643588	0.000193	1.925451	0.652361	0.015566
1947	9.7300e-01	-2.1449	-7.572602	0.000176	1.756181	0.595010	0.014197
1948	9.7350e-01	-2.0743	-7.544379	0.000070	0.698241	0.236570	0.005645
1949	9.7400e-01	-2.0695	-7.401124	0.000354	3.544100	1.200774	0.028651
1950	9.7450e-01	-2.0085	-7.313889	0.000216	2.158198	0.731217	0.017447
1951	9.7500e-01	-1.9941	-7.247607	0.000164	1.639807	0.555582	0.013256
1952	9.7550e-01	-1.9427	-7.161227	0.000214	2.137039	0.724049	0.017276
1953	9.7600e-01	-1.8914	-7.117609	0.000108	1.079099	0.365609	0.008724
1954	9.7650e-01	-1.8753	-7.021821	0.000237	2.369786	0.802905	0.019158
1955	9.7700e-01	-1.8368	-6.877283	0.000358	3.575838	1.211527	0.028907
1956	9.7750e-01	-1.7358	-6.894816	-0.000043	-0.433756	-0.146960	-0.003507
1957	9.7800e-01	-1.7358	-6.766101	-0.000318	-3.184400	-1.078904	0.025743
1958	9.7850e-01	-1.7005	-6.642945	0.000305	3.046868	1.032307	0.024631
1959	9.7900e-01	-1.6508	-6.601893	0.000102	1.015623	0.344102	0.008210
1960	9.7950e-01	-1.6106	-6.467191	0.000333	3.332512	1.129086	0.026940
1961	9.8000e-01	-1.5705	-6.439395	0.000069	0.687661	0.232986	0.005559
1962	9.8050e-01	-1.5256	-6.372258	0.000166	1.660966	0.562751	0.013427
1963	9.8100e-01	-1.4984	-6.261503	0.000274	2.740065	0.928359	0.022151
1964	9.8150e-01	-1.4518	-6.154597	0.000264	2.644851	0.896100	0.021381
1965	9.8200e-01	-1.4197	-6.094302	0.000149	1.491696	0.505400	0.012059
1966	9.8250e-01	-1.3780	-5.973711	0.000298	2.983392	1.010800	0.024118
1967	9.8300e-01	-1.3042	-6.004073	-0.000075	-0.751138	-0.254492	-0.006072
1968	9.8350e-01	-1.2802	-5.866377	0.000341	3.406568	1.154176	0.027539
1969	9.8400e-01	-1.2385	-5.765030	0.000251	2.507319	0.849503	0.020269
1970	9.8450e-01	-1.2112	-5.653420	0.000276	2.761224	0.935528	0.022322
1971	9.8500e-01	-1.1743	-5.569605	0.000207	2.073563	0.702542	0.016763
1972	9.8550e-01	-1.1021	-5.558915	0.000026	0.264485	0.089610	0.002138
1973	9.8600e-01	-1.0893	-5.377174	0.000450	4.496246	1.523369	0.036348
1974	9.8650e-01	-1.0428	-5.338688	0.000095	0.952146	0.322596	0.007697
1975	9.8700e-01	-0.9962	-5.230926	0.000267	2.666010	0.903268	0.021552
1976	9.8750e-01	-0.9321	-5.174907	0.000139	1.385902	0.469556	0.011204
1977	9.8800e-01	-0.9224	-5.074843	0.000248	2.475580	0.838749	0.020013
1978	9.8850e-01	-0.8855	-4.993594	0.000201	2.010087	0.681036	0.016250
1979	9.8900e-01	-0.8374	-4.862313	0.000325	3.247877	1.100410	0.026256
1980	9.8950e-01	-0.8117	-4.781920	0.000199	1.988928	0.673867	0.016079
1981	9.9000e-01	-0.7877	-4.645935	0.000336	3.364250	1.139839	0.027197
1982	9.9050e-01	-0.7460	-4.548009	0.000242	2.422683	0.820827	0.019585
1983	9.9100e-01	-0.6946	-4.459063	0.000220	2.200516	0.745555	0.017789
1984	9.9150e-01	-0.6385	-4.442385	0.000041	0.412597	0.139792	0.003335
1985	9.9200e-01	-0.6176	-4.312815	0.000321	3.205559	1.086073	0.025914
1986	9.9250e-01	-0.5920	-4.223013	0.000222	2.221675	0.752724	0.017960
1987	9.9300e-01	-0.5182	-4.125942	0.000240	2.401524	0.813659	0.019414
1988	9.9350e-01	-0.4813	-4.063509	0.000154	1.544593	0.523322	0.012487
1989	9.9400e-01	-0.4652	-3.934794	0.000318	3.184400	1.078904	0.025743
1990	9.9450e-01	-0.4043	-3.902294	0.000080	0.804035	0.272414	0.006500
1991	9.9500e-01	-0.3561	-3.754336	0.000366	3.660473	1.240202	0.029592
1992	9.9550e-01	-0.3305	-3.664962	0.000221	2.211095	0.749139	0.017875
1993	9.9600e-01	-0.2807	-3.599536	0.000162	1.618649	0.548413	0.013085
1994	9.9650e-01	-0.2583	-3.465689	0.000331	3.311353	1.121917	0.026769
1995	9.9700e-01	-0.2021	-3.406249	0.000147	1.470537	0.498231	0.011888
1996	9.9750e-01	-0.1396	-3.291218	0.000285	2.845859	0.964203	0.023006
1997	9.9800e-01	-0.1332	-3.207403	0.000207	2.073563	0.702542	0.016763
1998	9.9850e-01	-0.0963	-3.113326	0.000233	2.327469	0.788568	0.018816
1999	9.9900e-01	-0.0706	-3.010696	0.000254	2.539057	0.860256	0.020526
2000	9.9950e-01	-0.0160	-2.875994	0.000333	3.332512	1.129086	0.026940
2001	1.0000e+00	0.0401	-2.842211	0.000333	3.332512	1.129086	0.006756

Center data before PMax,+/-Pr and +/-Vc Calc.

PMax (uC/cm2):	3.02e+01
Pr (uC/cm2):	4.97e-01
-Pr (uC/cm2):	-2.84e+00
PLoss (uC/cm2):	-1.74e+00
Vc:	5.42e-01
-Vc:	-2.92e-01
C (Max-Eff) (nF):	1.51e-01
K (Eff):	5.11e+02
Vert. (+/-Pr) Shift (uC/cm2):	-1.17e+00
Horiz. Shift (+/-Vc):	1.25e-01
Offset (uC/cm2):	1.12e+00

A (Loop Area - uC/cm2·Volts):	7.99e-03



Hysteresis Version: 5.48.1 - Radiant Technologies, Inc., 1999 - 9/12/24

