»»»»»»»»»»»»»»»»»»»»»»»»»»»»»»»»»»»» Hysteresis ««««««««««««««««««««««««««««««««««««
»»»  Executed Version:	5.48.1
»»»  Vision Version:	5.48.4 (R)
»»»  Vision Compiled:	9/18/24
»»»  Driver Version:	5.47.0
»»»  Windows Version:	Windows 8 or 8.1
»»»  Processor Information:	x86 (AMD or Intel) - 32 Processors
»»»  Tester Name:	PMF21124-494 (100V)
»»»  Tester S/N:	PMF21124-494
»»»  Internal Amp Type:	100V RevK 270k
»»»  Internal Amp S/N:	iAB2-596/K     
»»»  Execution Count:	1
»»»»»»»»»»»»»»»»»»»»»»»»»»»»»»»»»»»»»»»»»»««««««««««««««««««««««««««««««««««««««««««

Stored:	6/11/2025 - 14:4:11
Configured:	06/11/25 01:55:56 PM
Executed:	06/11/25 02:03:33 PM

»»»»»»»»»»»»»»»»»»»»»»»»»»»»»»»»»»» Sample Info ««««««««««««««««««««««««««««««««««««
Sample Name:	
Lot Name:	
Wafer Name:	
Die Row/Column:	0/0
Capacitor Number:	0
Sample Area (cm2):	1.00e-04
Sample Thickness (microns):	3.00e-01

Amplifier:	Internal

»»»»»»»»»»»»»»»»»»»»»»»»»»»»»»»»»»» Tester Info «««««««««««««««««««««««««««««««««««
Tester Name:	PMF21124-494 (100V)
Tester Serial Number:	PMF21124-494
Return Signal Amp. Level:	1.9 [Index: 2]

»»»»»»»»»»»»»»»»»»»»»»»»»»»»»»»» Hysteresis Info ««««««««««««««««««««««««««««««««««
Task Name:	Hyst-1287
Volts:	20.00
Field:	666.67 (kV/cm)
DCBias:	0.00
DCField:	0.00 (kV/cm)
Hysteresis Period (ms):	2.00e+02
Preset:	Enabled
Preset Delay (ms):	1.00e+03
Profile:	Standard Bipolar

»»»»»»»»»»»»»»»»»»»»»»»»»»»»»»»»»»»»»» Data «««««««««««««««««««««««««««««««««««««««
Points:	2009

Valid Data

Point	Time (ms)	Drive Voltage	Measured Polarization (uC/cm2)	Capacitance (uF)	Normalized Capacitance (uF/cm2)	Dielectric Constant	Instantaneous Current (mA)
   1	0.0000e+00	0.0128	-1.919398	0.000135	1.353729	0.458656	0.000054
   2	9.9500e-02	0.0417	-1.865222	0.000135	1.353729	0.458656	0.000054
   3	1.9900e-01	0.0866	-1.789048	0.000190	1.903363	0.644877	0.000077
   4	2.9850e-01	0.1235	-1.714097	0.000187	1.872828	0.634531	0.000075
   5	3.9800e-01	0.1572	-1.635888	0.000195	1.954255	0.662119	0.000079
   6	4.9750e-01	0.2037	-1.556049	0.000199	1.994969	0.675914	0.000080
   7	5.9700e-01	0.2471	-1.479875	0.000190	1.903363	0.644877	0.000077
   8	6.9650e-01	0.2888	-1.395556	0.000211	2.106931	0.713848	0.000085
   9	7.9600e-01	0.3289	-1.320605	0.000187	1.872828	0.634531	0.000075
  10	8.9550e-01	0.3658	-1.235470	0.000213	2.127288	0.720745	0.000086
  11	9.9500e-01	0.3930	-1.156446	0.000197	1.974612	0.669017	0.000079
  12	1.0945e+00	0.4412	-1.075384	0.000203	2.025504	0.686259	0.000081
  13	1.1940e+00	0.4813	-0.994731	0.000202	2.015325	0.682811	0.000081
  14	1.2935e+00	0.5326	-0.908781	0.000215	2.147645	0.727642	0.000086
  15	1.3930e+00	0.5615	-0.831793	0.000192	1.923720	0.651774	0.000077
  16	1.4925e+00	0.6160	-0.746252	0.000214	2.137466	0.724193	0.000086
  17	1.5920e+00	0.6577	-0.663154	0.000208	2.076396	0.703502	0.000084
  18	1.6915e+00	0.6946	-0.578426	0.000212	2.117109	0.717296	0.000085
  19	1.7910e+00	0.7171	-0.496958	0.000204	2.035682	0.689708	0.000082
  20	1.8905e+00	0.7700	-0.411009	0.000215	2.147645	0.727642	0.000086
  21	1.9900e+00	0.7973	-0.330355	0.000202	2.015325	0.682811	0.000081
  22	2.0895e+00	0.8294	-0.243998	0.000216	2.157823	0.731090	0.000087
  23	2.1890e+00	0.8791	-0.157234	0.000217	2.168002	0.734539	0.000087
  24	2.2885e+00	0.9128	-0.073729	0.000209	2.086574	0.706950	0.000084
  25	2.3880e+00	0.9481	0.011813	0.000214	2.137466	0.724193	0.000086
  26	2.4875e+00	0.9994	0.097762	0.000215	2.147645	0.727642	0.000086
  27	2.5870e+00	1.0460	0.182082	0.000211	2.106931	0.713848	0.000085
  28	2.6865e+00	1.0909	0.265995	0.000210	2.096753	0.710399	0.000084
  29	2.7860e+00	1.1149	0.350315	0.000211	2.106931	0.713848	0.000085
  30	2.8855e+00	1.1807	0.439115	0.000222	2.218894	0.751782	0.000089
  31	2.9850e+00	1.2112	0.521398	0.000206	2.056039	0.696605	0.000083
  32	3.0845e+00	1.2353	0.609792	0.000221	2.208715	0.748333	0.000089
  33	3.1840e+00	1.2818	0.687594	0.000194	1.944076	0.658671	0.000078
  34	3.2835e+00	1.3091	0.773136	0.000214	2.137466	0.724193	0.000086
  35	3.3830e+00	1.3796	0.862752	0.000224	2.239250	0.758679	0.000090
  36	3.4825e+00	1.4117	0.945849	0.000208	2.076396	0.703502	0.000084
  37	3.5820e+00	1.4406	1.024059	0.000195	1.954255	0.662119	0.000079
  38	3.6815e+00	1.4791	1.112453	0.000221	2.208715	0.748333	0.000089
  39	3.7810e+00	1.5224	1.195550	0.000208	2.076396	0.703502	0.000084
  40	3.8805e+00	1.5657	1.282722	0.000218	2.178180	0.737987	0.000088
  41	3.9800e+00	1.5882	1.366634	0.000210	2.096753	0.710399	0.000084
  42	4.0795e+00	1.6427	1.447695	0.000203	2.025504	0.686259	0.000081
  43	4.1790e+00	1.6700	1.537718	0.000225	2.249429	0.762127	0.000090
  44	4.2785e+00	1.7246	1.617965	0.000201	2.005147	0.679362	0.000081
  45	4.3780e+00	1.7438	1.702692	0.000212	2.117109	0.717296	0.000085
  46	4.4775e+00	1.7871	1.784568	0.000205	2.045861	0.693156	0.000082
  47	4.5770e+00	1.8385	1.874590	0.000225	2.249429	0.762127	0.000090
  48	4.6765e+00	1.8721	1.953208	0.000196	1.964433	0.665568	0.000079
  49	4.7760e+00	1.9315	2.044045	0.000227	2.269786	0.769024	0.000091
  50	4.8755e+00	1.9652	2.121847	0.000194	1.944076	0.658671	0.000078
  51	4.9750e+00	1.9989	2.209019	0.000218	2.178180	0.737987	0.000088
  52	5.0745e+00	2.0454	2.293746	0.000212	2.117109	0.717296	0.000085
  53	5.1740e+00	2.0630	2.386620	0.000232	2.320678	0.786267	0.000093
  54	5.2735e+00	2.1096	2.463608	0.000192	1.923720	0.651774	0.000077
  55	5.3730e+00	2.1561	2.555260	0.000229	2.290142	0.775921	0.000092
  56	5.4725e+00	2.1898	2.635099	0.000199	1.994969	0.675914	0.000080
  57	5.5720e+00	2.2331	2.721456	0.000216	2.157823	0.731090	0.000087
  58	5.6715e+00	2.2908	2.809034	0.000219	2.188358	0.741436	0.000088
  59	5.7710e+00	2.3277	2.891725	0.000207	2.066217	0.700053	0.000083
  60	5.8705e+00	2.3646	2.976045	0.000211	2.106931	0.713848	0.000085
  61	5.9700e+00	2.4080	3.058735	0.000207	2.066217	0.700053	0.000083
  62	6.0695e+00	2.4465	3.147129	0.000221	2.208715	0.748333	0.000089
  63	6.1690e+00	2.4705	3.226153	0.000197	1.974612	0.669017	0.000079
  64	6.2685e+00	2.5090	3.312102	0.000215	2.147645	0.727642	0.000086
  65	6.3680e+00	2.5604	3.395200	0.000208	2.076396	0.703502	0.000084
  66	6.4675e+00	2.6037	3.481557	0.000216	2.157823	0.731090	0.000087
  67	6.5670e+00	2.6213	3.563433	0.000205	2.045861	0.693156	0.000082
  68	6.6665e+00	2.6791	3.647753	0.000211	2.106931	0.713848	0.000085
  69	6.7660e+00	2.7160	3.730443	0.000207	2.066217	0.700053	0.000083
  70	6.8655e+00	2.7577	3.813948	0.000209	2.086574	0.706950	0.000084
  71	6.9650e+00	2.8058	3.897454	0.000209	2.086574	0.706950	0.000084
  72	7.0645e+00	2.8267	3.978107	0.000202	2.015325	0.682811	0.000081
  73	7.1640e+00	2.8716	4.063242	0.000213	2.127288	0.720745	0.000086
  74	7.2635e+00	2.9165	4.150821	0.000219	2.188358	0.741436	0.000088
  75	7.3630e+00	2.9598	4.229845	0.000197	1.974612	0.669017	0.000079
  76	7.4625e+00	2.9935	4.313758	0.000210	2.096753	0.710399	0.000084
  77	7.5620e+00	3.0320	4.395226	0.000204	2.035682	0.689708	0.000082
  78	7.6615e+00	3.0609	4.475880	0.000202	2.015325	0.682811	0.000081
  79	7.7610e+00	3.1507	4.558163	0.000206	2.056039	0.696605	0.000083
  80	7.8605e+00	3.1635	4.641668	0.000209	2.086574	0.706950	0.000084
  81	7.9600e+00	3.1764	4.726803	0.000213	2.127288	0.720745	0.000086
  82	8.0595e+00	3.2293	4.808679	0.000205	2.045861	0.693156	0.000082
  83	8.1590e+00	3.2438	4.896257	0.000219	2.188358	0.741436	0.000088
  84	8.2585e+00	3.3176	4.978133	0.000205	2.045861	0.693156	0.000082
  85	8.3580e+00	3.3416	5.063675	0.000214	2.137466	0.724193	0.000086
  86	8.4575e+00	3.3962	5.146366	0.000207	2.066217	0.700053	0.000083
  87	8.5570e+00	3.4427	5.233537	0.000218	2.178180	0.737987	0.000088
  88	8.6565e+00	3.4651	5.314598	0.000203	2.025504	0.686259	0.000081
  89	8.7560e+00	3.5133	5.395252	0.000202	2.015325	0.682811	0.000081
  90	8.8555e+00	3.5421	5.479979	0.000212	2.117109	0.717296	0.000085
  91	8.9550e+00	3.5790	5.563892	0.000210	2.096753	0.710399	0.000084
  92	9.0545e+00	3.6368	5.642509	0.000196	1.964433	0.665568	0.000079
  93	9.1540e+00	3.6929	5.729273	0.000217	2.168002	0.734539	0.000087
  94	9.2535e+00	3.7234	5.808297	0.000197	1.974612	0.669017	0.000079
  95	9.3530e+00	3.7443	5.884470	0.000190	1.903363	0.644877	0.000077
  96	9.4525e+00	3.7956	5.969198	0.000212	2.117109	0.717296	0.000085
  97	9.5520e+00	3.8437	6.051074	0.000205	2.045861	0.693156	0.000082
  98	9.6515e+00	3.8774	6.127654	0.000191	1.913541	0.648325	0.000077
  99	9.7510e+00	3.9063	6.207493	0.000199	1.994969	0.675914	0.000080
 100	9.8505e+00	3.9512	6.287332	0.000199	1.994969	0.675914	0.000080
 101	9.9500e+00	3.9849	6.370430	0.000208	2.076396	0.703502	0.000084
 102	1.0050e+01	4.0250	6.445381	0.000187	1.872828	0.634531	0.000075
 103	1.0149e+01	4.0555	6.528886	0.000209	2.086574	0.706950	0.000084
 104	1.0248e+01	4.1036	6.606689	0.000194	1.944076	0.658671	0.000078
 105	1.0348e+01	4.1405	6.684899	0.000195	1.954255	0.662119	0.000079
 106	1.0447e+01	4.1903	6.763108	0.000195	1.954255	0.662119	0.000079
 107	1.0547e+01	4.2175	6.836837	0.000184	1.842292	0.624186	0.000074
 108	1.0646e+01	4.2737	6.917491	0.000202	2.015325	0.682811	0.000081
 109	1.0746e+01	4.3009	6.993257	0.000189	1.893184	0.641428	0.000076
 110	1.0845e+01	4.3266	7.073911	0.000202	2.015325	0.682811	0.000081
 111	1.0945e+01	4.3956	7.148047	0.000185	1.852471	0.627634	0.000075
 112	1.1044e+01	4.4229	7.222998	0.000187	1.872828	0.634531	0.000075
 113	1.1144e+01	4.4774	7.301208	0.000195	1.954255	0.662119	0.000079
 114	1.1243e+01	4.5223	7.382269	0.000203	2.025504	0.686259	0.000081
 115	1.1343e+01	4.5368	7.458442	0.000190	1.903363	0.644877	0.000077
 116	1.1443e+01	4.5817	7.537874	0.000198	1.984790	0.672465	0.000080
 117	1.1542e+01	4.6298	7.609566	0.000179	1.791400	0.606943	0.000072
 118	1.1642e+01	4.6940	7.691849	0.000206	2.056039	0.696605	0.000083
 119	1.1741e+01	4.6812	7.768430	-0.000191	-1.913541	-0.648325	0.000077
 120	1.1841e+01	4.7357	7.843381	0.000187	1.872828	0.634531	0.000075
 121	1.1940e+01	4.7934	7.916702	0.000183	1.832114	0.620737	0.000074
 122	1.2040e+01	4.8287	7.998171	0.000204	2.035682	0.689708	0.000082
 123	1.2139e+01	4.8753	8.075566	0.000193	1.933898	0.655222	0.000078
 124	1.2239e+01	4.8993	8.151332	0.000189	1.893184	0.641428	0.000076
 125	1.2338e+01	4.9362	8.229134	0.000194	1.944076	0.658671	0.000078
 126	1.2438e+01	5.0100	8.303271	0.000185	1.852471	0.627634	0.000075
 127	1.2537e+01	5.0309	8.378222	0.000187	1.872828	0.634531	0.000075
 128	1.2636e+01	5.0774	8.457246	0.000197	1.974612	0.669017	0.000079
 129	1.2736e+01	5.0902	8.532197	0.000187	1.872828	0.634531	0.000075
 130	1.2835e+01	5.1416	8.608370	0.000190	1.903363	0.644877	0.000077
 131	1.2935e+01	5.1753	8.684543	0.000190	1.903363	0.644877	0.000077
 132	1.3034e+01	5.2250	8.767234	0.000207	2.066217	0.700053	0.000083
 133	1.3134e+01	5.2827	8.841777	0.000186	1.862649	0.631083	0.000075
 134	1.3233e+01	5.2843	8.908582	0.000167	1.669259	0.565560	0.000067
 135	1.3333e+01	5.3341	8.985162	0.000191	1.913541	0.648325	0.000077
 136	1.3432e+01	5.3678	9.062150	0.000192	1.923720	0.651774	0.000077
 137	1.3532e+01	5.4335	9.137101	0.000187	1.872828	0.634531	0.000075
 138	1.3632e+01	5.4448	9.206349	0.000173	1.730330	0.586252	0.000070
 139	1.3731e+01	5.5282	9.285373	0.000197	1.974612	0.669017	0.000079
 140	1.3831e+01	5.5330	9.354622	0.000173	1.730330	0.586252	0.000070
 141	1.3930e+01	5.5747	9.436090	0.000204	2.035682	0.689708	0.000082
 142	1.4030e+01	5.6116	9.505746	0.000174	1.740508	0.589700	0.000070
 143	1.4129e+01	5.6517	9.582734	0.000192	1.923720	0.651774	0.000077
 144	1.4229e+01	5.6950	9.651982	0.000173	1.730330	0.586252	0.000070
 145	1.4328e+01	5.7351	9.731414	0.000198	1.984790	0.672465	0.000080
 146	1.4428e+01	5.7881	9.801476	0.000175	1.750687	0.593149	0.000070
 147	1.4527e+01	5.8073	9.876020	0.000186	1.862649	0.631083	0.000075
 148	1.4627e+01	5.8587	9.949342	0.000183	1.832114	0.620737	0.000074
 149	1.4726e+01	5.8988	10.025515	0.000190	1.903363	0.644877	0.000077
 150	1.4825e+01	5.9276	10.096800	0.000178	1.781222	0.603494	0.000072
 151	1.4925e+01	5.9934	10.170936	0.000185	1.852471	0.627634	0.000075
 152	1.5024e+01	6.0127	10.242221	0.000178	1.781222	0.603494	0.000072
 153	1.5124e+01	6.0480	10.315543	0.000183	1.832114	0.620737	0.000074
 154	1.5223e+01	6.1041	10.388457	0.000182	1.821936	0.617288	0.000073
 155	1.5323e+01	6.1266	10.465852	0.000193	1.933898	0.655222	0.000078
 156	1.5422e+01	6.1875	10.534286	0.000171	1.709973	0.579355	0.000069
 157	1.5522e+01	6.2212	10.605163	0.000177	1.771044	0.600046	0.000071
 158	1.5621e+01	6.2822	10.681744	0.000191	1.913541	0.648325	0.000077
 159	1.5721e+01	6.2950	10.752621	0.000177	1.771044	0.600046	0.000071
 160	1.5820e+01	6.3528	10.824314	0.000179	1.791400	0.606943	0.000072
 161	1.5920e+01	6.3784	10.896006	0.000179	1.791400	0.606943	0.000072
 162	1.6020e+01	6.4298	10.968106	0.000180	1.801579	0.610391	0.000072
 163	1.6119e+01	6.4554	11.038576	0.000176	1.760865	0.596597	0.000071
 164	1.6218e+01	6.5052	11.103343	0.000162	1.618367	0.548318	0.000065
 165	1.6318e+01	6.5164	11.178294	0.000187	1.872828	0.634531	0.000075
 166	1.6418e+01	6.5886	11.247950	0.000174	1.740508	0.589700	0.000070
 167	1.6517e+01	6.6383	11.316791	0.000172	1.720151	0.582803	0.000069
 168	1.6616e+01	6.6576	11.387261	0.000176	1.760865	0.596597	0.000071
 169	1.6716e+01	6.6993	11.454880	0.000169	1.689616	0.572457	0.000068
 170	1.6816e+01	6.7233	11.522091	0.000168	1.679438	0.569009	0.000068
 171	1.6915e+01	6.7795	11.591747	0.000174	1.740508	0.589700	0.000070
 172	1.7015e+01	6.8228	11.660588	0.000172	1.720151	0.582803	0.000069
 173	1.7114e+01	6.8597	11.726985	0.000166	1.659081	0.562112	0.000067
 174	1.7213e+01	6.8966	11.797048	0.000175	1.750687	0.593149	0.000070
 175	1.7313e+01	6.9560	11.868333	0.000178	1.781222	0.603494	0.000072
 176	1.7413e+01	6.9848	11.937988	0.000174	1.740508	0.589700	0.000070
 177	1.7512e+01	7.0153	12.006829	0.000172	1.720151	0.582803	0.000069
 178	1.7611e+01	7.0554	12.075670	0.000172	1.720151	0.582803	0.000069
 179	1.7711e+01	7.0891	12.145733	0.000175	1.750687	0.593149	0.000070
 180	1.7811e+01	7.1420	12.214574	0.000172	1.720151	0.582803	0.000069
 181	1.7910e+01	7.1789	12.281378	0.000167	1.669259	0.565560	0.000067
 182	1.8009e+01	7.2223	12.353070	0.000179	1.791400	0.606943	0.000072
 183	1.8109e+01	7.2511	12.428429	0.000188	1.883006	0.637980	0.000076
 184	1.8209e+01	7.3073	12.496862	0.000171	1.709973	0.579355	0.000069
 185	1.8308e+01	7.3474	12.564481	0.000169	1.689616	0.572457	0.000068
 186	1.8407e+01	7.3763	12.632100	0.000169	1.689616	0.572457	0.000068
 187	1.8507e+01	7.4083	12.702977	0.000177	1.771044	0.600046	0.000071
 188	1.8607e+01	7.4805	12.772226	0.000173	1.730330	0.586252	0.000070
 189	1.8706e+01	7.5046	12.843511	0.000178	1.781222	0.603494	0.000072
 190	1.8805e+01	7.5255	12.914388	0.000177	1.771044	0.600046	0.000071
 191	1.8905e+01	7.5640	12.984451	0.000175	1.750687	0.593149	0.000070
 192	1.9005e+01	7.6297	13.052885	0.000171	1.709973	0.579355	0.000069
 193	1.9104e+01	7.6602	13.124577	0.000179	1.791400	0.606943	0.000072
 194	1.9203e+01	7.6811	13.192603	0.000170	1.699795	0.575906	0.000068
 195	1.9303e+01	7.7244	13.262666	0.000175	1.750687	0.593149	0.000070
 196	1.9402e+01	7.7693	13.331100	0.000171	1.709973	0.579355	0.000069
 197	1.9502e+01	7.8110	13.401570	0.000176	1.760865	0.596597	0.000071
 198	1.9602e+01	7.8623	13.470003	0.000171	1.709973	0.579355	0.000069
 199	1.9701e+01	7.8944	13.536808	0.000167	1.669259	0.565560	0.000067
 200	1.9800e+01	7.9442	13.600760	0.000160	1.598011	0.541421	0.000064
 201	1.9900e+01	7.9586	13.672453	0.000179	1.791400	0.606943	0.000072
 202	2.0000e+01	8.0260	13.737220	0.000162	1.618367	0.548318	0.000065
 203	2.0099e+01	8.0661	13.806061	0.000172	1.720151	0.582803	0.000069
 204	2.0198e+01	8.0918	13.871236	0.000163	1.628546	0.551766	0.000066
 205	2.0298e+01	8.1174	13.939669	0.000171	1.709973	0.579355	0.000069
 206	2.0398e+01	8.1816	14.003215	0.000159	1.587832	0.537972	0.000064
 207	2.0497e+01	8.2233	14.072870	0.000174	1.740508	0.589700	0.000070
 208	2.0596e+01	8.2746	14.136416	0.000159	1.587832	0.537972	0.000064
 209	2.0696e+01	8.2891	14.205664	0.000173	1.730330	0.586252	0.000070
 210	2.0796e+01	8.3340	14.274505	0.000172	1.720151	0.582803	0.000069
 211	2.0895e+01	8.3725	14.338865	0.000161	1.608189	0.544869	0.000065
 212	2.0994e+01	8.4142	14.407706	0.000172	1.720151	0.582803	0.000069
 213	2.1094e+01	8.4511	14.467585	0.000150	1.496226	0.506935	0.000060
 214	2.1194e+01	8.5105	14.537648	0.000175	1.750687	0.593149	0.000070
 215	2.1293e+01	8.5313	14.599972	0.000156	1.557297	0.527626	0.000063
 216	2.1392e+01	8.5650	14.667183	0.000168	1.679438	0.569009	0.000068
 217	2.1492e+01	8.6083	14.733987	0.000167	1.669259	0.565560	0.000067
 218	2.1591e+01	8.6468	14.798755	0.000162	1.618367	0.548318	0.000065
 219	2.1691e+01	8.6821	14.863522	0.000162	1.618367	0.548318	0.000065
 220	2.1791e+01	8.7479	14.929512	0.000165	1.648903	0.558663	0.000066
 221	2.1890e+01	8.7735	14.998760	0.000173	1.730330	0.586252	0.000070
 222	2.1989e+01	8.8281	15.062713	0.000160	1.598011	0.541421	0.000064
 223	2.2089e+01	8.8457	15.126666	0.000160	1.598011	0.541421	0.000064
 224	2.2189e+01	8.8971	15.195507	0.000172	1.720151	0.582803	0.000069
 225	2.2288e+01	8.9420	15.257423	0.000155	1.547118	0.524178	0.000062
 226	2.2387e+01	8.9757	15.324227	0.000167	1.669259	0.565560	0.000067
 227	2.2487e+01	9.0142	15.384106	0.000150	1.496226	0.506935	0.000060
 228	2.2587e+01	9.0543	15.454984	0.000177	1.771044	0.600046	0.000071
 229	2.2686e+01	9.0832	15.515678	0.000152	1.516583	0.513832	0.000061
 230	2.2785e+01	9.1297	15.578409	0.000157	1.567475	0.531075	0.000063
 231	2.2885e+01	9.1682	15.644398	0.000165	1.648903	0.558663	0.000066
 232	2.2985e+01	9.2035	15.703463	0.000148	1.475870	0.500038	0.000059
 233	2.3084e+01	9.2452	15.772304	0.000172	1.720151	0.582803	0.000069
 234	2.3183e+01	9.2853	15.837478	0.000163	1.628546	0.551766	0.000066
 235	2.3283e+01	9.3479	15.896543	0.000148	1.475870	0.500038	0.000059
 236	2.3383e+01	9.3783	15.960089	0.000159	1.587832	0.537972	0.000064
 237	2.3482e+01	9.4088	16.027707	0.000169	1.689616	0.572457	0.000068
 238	2.3581e+01	9.4537	16.090031	0.000156	1.557297	0.527626	0.000063
 239	2.3681e+01	9.5179	16.149095	0.000148	1.475870	0.500038	0.000059
 240	2.3780e+01	9.5243	16.215900	0.000167	1.669259	0.565560	0.000067
 241	2.3880e+01	9.5805	16.280667	0.000162	1.618367	0.548318	0.000065
 242	2.3980e+01	9.6206	16.342583	0.000155	1.547118	0.524178	0.000062
 243	2.4079e+01	9.6463	16.404499	0.000155	1.547118	0.524178	0.000062
 244	2.4178e+01	9.6896	16.463971	0.000149	1.486048	0.503487	0.000060
 245	2.4278e+01	9.7120	16.529146	0.000163	1.628546	0.551766	0.000066
 246	2.4378e+01	9.7569	16.590247	0.000153	1.526762	0.517281	0.000061
 247	2.4477e+01	9.8356	16.658274	0.000170	1.699795	0.575906	0.000068
 248	2.4576e+01	9.8468	16.712858	0.000136	1.363907	0.462104	0.000055
 249	2.4676e+01	9.8917	16.776810	0.000160	1.598011	0.541421	0.000064
 250	2.4776e+01	9.9254	16.840763	0.000160	1.598011	0.541421	0.000064
 251	2.4875e+01	9.9751	16.906345	0.000164	1.638724	0.555215	0.000066
 252	2.4974e+01	10.0024	16.966225	0.000150	1.496226	0.506935	0.000060
 253	2.5074e+01	10.0521	17.036288	0.000175	1.750687	0.593149	0.000070
 254	2.5174e+01	10.0794	17.101462	0.000163	1.628546	0.551766	0.000066
 255	2.5273e+01	10.1243	17.162971	0.000154	1.536940	0.520729	0.000062
 256	2.5372e+01	10.1612	17.228553	0.000164	1.638724	0.555215	0.000066
 257	2.5472e+01	10.2077	17.289247	0.000152	1.516583	0.513832	0.000061
 258	2.5572e+01	10.2398	17.349941	0.000152	1.516583	0.513832	0.000061
 259	2.5671e+01	10.2783	17.414709	0.000162	1.618367	0.548318	0.000065
 260	2.5770e+01	10.3120	17.477440	0.000157	1.567475	0.531075	0.000063
 261	2.5870e+01	10.3826	17.536912	0.000149	1.486048	0.503487	0.000060
 262	2.5970e+01	10.3922	17.601679	0.000162	1.618367	0.548318	0.000065
 263	2.6069e+01	10.4516	17.660744	0.000148	1.475870	0.500038	0.000059
 264	2.6169e+01	10.4821	17.723474	0.000157	1.567475	0.531075	0.000063
 265	2.6268e+01	10.5238	17.785798	0.000156	1.557297	0.527626	0.000063
 266	2.6367e+01	10.5607	17.845677	0.000150	1.496226	0.506935	0.000060
 267	2.6467e+01	10.6152	17.903927	0.000146	1.455513	0.493141	0.000059
 268	2.6567e+01	10.6248	17.961362	0.000144	1.435156	0.486244	0.000058
 269	2.6666e+01	10.7034	18.020427	0.000148	1.475870	0.500038	0.000059
 270	2.6765e+01	10.7403	18.084380	0.000160	1.598011	0.541421	0.000064
 271	2.6865e+01	10.7532	18.141408	0.000142	1.424978	0.482795	0.000057
 272	2.6965e+01	10.8125	18.202917	0.000154	1.536940	0.520729	0.000062
 273	2.7064e+01	10.8591	18.263611	0.000152	1.516583	0.513832	0.000061
 274	2.7163e+01	10.8767	18.317380	0.000134	1.343550	0.455207	0.000054
 275	2.7263e+01	10.9280	18.374815	0.000144	1.435156	0.486244	0.000058
 276	2.7363e+01	10.9569	18.435917	0.000153	1.526762	0.517281	0.000061
 277	2.7462e+01	11.0147	18.489278	0.000133	1.333372	0.451759	0.000054
 278	2.7561e+01	11.0516	18.551194	0.000155	1.547118	0.524178	0.000062
 279	2.7661e+01	11.0500	18.607000	-0.000139	-1.394442	-0.472450	0.000056
 280	2.7761e+01	11.1205	18.668102	0.000153	1.526762	0.517281	0.000061
 281	2.7860e+01	11.1414	18.726352	0.000146	1.455513	0.493141	0.000059
 282	2.7959e+01	11.1959	18.785824	0.000149	1.486048	0.503487	0.000060
 283	2.8059e+01	11.2569	18.840815	0.000137	1.374085	0.465553	0.000055
 284	2.8159e+01	11.3002	18.903138	0.000156	1.557297	0.527626	0.000063
 285	2.8258e+01	11.3098	18.962610	0.000149	1.486048	0.503487	0.000060
 286	2.8358e+01	11.3708	19.023712	0.000153	1.526762	0.517281	0.000061
 287	2.8457e+01	11.4093	19.081962	0.000146	1.455513	0.493141	0.000059
 288	2.8556e+01	11.4318	19.137768	0.000139	1.394442	0.472450	0.000056
 289	2.8656e+01	11.4671	19.198054	0.000151	1.506405	0.510384	0.000061
 290	2.8756e+01	11.5184	19.253046	0.000137	1.374085	0.465553	0.000055
 291	2.8855e+01	11.5729	19.312925	0.000150	1.496226	0.506935	0.000060
 292	2.8954e+01	11.5970	19.368731	0.000139	1.394442	0.472450	0.000056
 293	2.9054e+01	11.6339	19.430240	0.000154	1.536940	0.520729	0.000062
 294	2.9154e+01	11.6900	19.487675	0.000144	1.435156	0.486244	0.000058
 295	2.9253e+01	11.7318	19.548369	0.000152	1.516583	0.513832	0.000061
 296	2.9352e+01	11.7735	19.604582	0.000140	1.404621	0.475898	0.000056
 297	2.9452e+01	11.8136	19.665276	0.000152	1.516583	0.513832	0.000061
 298	2.9552e+01	11.8328	19.723934	0.000147	1.465691	0.496590	0.000059
 299	2.9651e+01	11.8809	19.781369	0.000144	1.435156	0.486244	0.000058
 300	2.9750e+01	11.9307	19.841248	0.000150	1.496226	0.506935	0.000060
 301	2.9850e+01	11.9708	19.893388	0.000130	1.302837	0.441413	0.000052
 302	2.9950e+01	11.9965	19.952453	0.000148	1.475870	0.500038	0.000059
 303	3.0049e+01	12.0269	20.014369	0.000155	1.547118	0.524178	0.000062
 304	3.0148e+01	12.0735	20.074656	0.000151	1.506405	0.510384	0.000061
 305	3.0248e+01	12.0975	20.126795	0.000130	1.302837	0.441413	0.000052
 306	3.0348e+01	12.1585	20.178935	0.000130	1.302837	0.441413	0.000052
 307	3.0447e+01	12.1858	20.242888	0.000160	1.598011	0.541421	0.000064
 308	3.0547e+01	12.2355	20.295028	0.000130	1.302837	0.441413	0.000052
 309	3.0646e+01	12.2692	20.355722	0.000152	1.516583	0.513832	0.000061
 310	3.0745e+01	12.3221	20.408269	0.000131	1.313015	0.444862	0.000053
 311	3.0845e+01	12.3301	20.471000	0.000157	1.567475	0.531075	0.000063
 312	3.0945e+01	12.3847	20.523547	0.000131	1.313015	0.444862	0.000053
 313	3.1044e+01	12.4328	20.585871	0.000156	1.557297	0.527626	0.000063
 314	3.1143e+01	12.4793	20.642898	0.000142	1.424978	0.482795	0.000057
 315	3.1243e+01	12.5162	20.701148	0.000146	1.455513	0.493141	0.000059
 316	3.1343e+01	12.5563	20.755732	0.000136	1.363907	0.462104	0.000055
 317	3.1442e+01	12.6029	20.815612	0.000150	1.496226	0.506935	0.000060
 318	3.1541e+01	12.6365	20.871010	0.000138	1.384264	0.469001	0.000056
 319	3.1641e+01	12.6750	20.928038	0.000142	1.424978	0.482795	0.000057
 320	3.1741e+01	12.7232	20.985881	0.000145	1.445334	0.489693	0.000058
 321	3.1840e+01	12.7553	21.042502	0.000141	1.414799	0.479347	0.000057
 322	3.1939e+01	12.7825	21.099937	0.000144	1.435156	0.486244	0.000058
 323	3.2039e+01	12.8387	21.154521	0.000136	1.363907	0.462104	0.000055
 324	3.2139e+01	12.8756	21.211956	0.000144	1.435156	0.486244	0.000058
 325	3.2238e+01	12.9028	21.268984	0.000142	1.424978	0.482795	0.000057
 326	3.2337e+01	12.9510	21.321531	0.000131	1.313015	0.444862	0.000053
 327	3.2437e+01	12.9831	21.377744	0.000140	1.404621	0.475898	0.000056
 328	3.2536e+01	13.0392	21.432736	0.000137	1.374085	0.465553	0.000055
 329	3.2636e+01	13.0729	21.487320	0.000136	1.363907	0.462104	0.000055
 330	3.2736e+01	13.1290	21.543126	0.000139	1.394442	0.472450	0.000056
 331	3.2835e+01	13.1419	21.603412	0.000151	1.506405	0.510384	0.000061
 332	3.2934e+01	13.1948	21.654737	0.000128	1.282480	0.434516	0.000052
 333	3.3034e+01	13.2189	21.711358	0.000141	1.414799	0.479347	0.000057
 334	3.3133e+01	13.2558	21.764720	0.000133	1.333372	0.451759	0.000054
 335	3.3233e+01	13.3264	21.818896	0.000135	1.353729	0.458656	0.000054
 336	3.3333e+01	13.3568	21.872666	0.000134	1.343550	0.455207	0.000054
 337	3.3432e+01	13.3825	21.927250	0.000136	1.363907	0.462104	0.000055
 338	3.3532e+01	13.4258	21.981426	0.000135	1.353729	0.458656	0.000054
 339	3.3631e+01	13.4563	22.038047	0.000141	1.414799	0.479347	0.000057
 340	3.3730e+01	13.4884	22.086113	0.000120	1.201052	0.406928	0.000048
 341	3.3830e+01	13.5477	22.140697	0.000136	1.363907	0.462104	0.000055
 342	3.3929e+01	13.6119	22.196503	0.000139	1.394442	0.472450	0.000056
 343	3.4029e+01	13.6296	22.254346	0.000145	1.445334	0.489693	0.000058
 344	3.4129e+01	13.6873	22.306078	0.000129	1.292658	0.437964	0.000052
 345	3.4228e+01	13.7001	22.358625	0.000131	1.313015	0.444862	0.000053
 346	3.4328e+01	13.7403	22.416468	0.000145	1.445334	0.489693	0.000058
 347	3.4427e+01	13.7643	22.475125	0.000147	1.465691	0.496590	0.000059
 348	3.4526e+01	13.8124	22.528487	0.000133	1.333372	0.451759	0.000054
 349	3.4626e+01	13.8814	22.583886	0.000138	1.384264	0.469001	0.000056
 350	3.4725e+01	13.9151	22.638062	0.000135	1.353729	0.458656	0.000054
 351	3.4825e+01	13.9376	22.694683	0.000141	1.414799	0.479347	0.000057
 352	3.4925e+01	13.9809	22.747637	0.000132	1.323193	0.448310	0.000053
 353	3.5024e+01	14.0258	22.804665	0.000142	1.424978	0.482795	0.000057
 354	3.5123e+01	14.0707	22.854769	0.000125	1.251945	0.424170	0.000050
 355	3.5223e+01	14.0996	22.915055	0.000151	1.506405	0.510384	0.000061
 356	3.5322e+01	14.1541	22.974120	0.000148	1.475870	0.500038	0.000059
 357	3.5422e+01	14.1878	23.030333	0.000140	1.404621	0.475898	0.000056
 358	3.5522e+01	14.2472	23.082880	0.000131	1.313015	0.444862	0.000053
 359	3.5621e+01	14.2697	23.142760	0.000150	1.496226	0.506935	0.000060
 360	3.5721e+01	14.3033	23.196122	0.000133	1.333372	0.451759	0.000054
 361	3.5820e+01	14.3531	23.253557	0.000144	1.435156	0.486244	0.000058
 362	3.5919e+01	14.3755	23.312622	0.000148	1.475870	0.500038	0.000059
 363	3.6019e+01	14.4188	23.367205	0.000136	1.363907	0.462104	0.000055
 364	3.6118e+01	14.4638	23.421789	0.000136	1.363907	0.462104	0.000055
 365	3.6218e+01	14.5119	23.470670	0.000122	1.221409	0.413825	0.000049
 366	3.6318e+01	14.5408	23.525254	0.000136	1.363907	0.462104	0.000055
 367	3.6417e+01	14.5921	23.582282	0.000142	1.424978	0.482795	0.000057
 368	3.6517e+01	14.6178	23.638496	0.000140	1.404621	0.475898	0.000056
 369	3.6616e+01	14.6787	23.693080	0.000136	1.363907	0.462104	0.000055
 370	3.6715e+01	14.7092	23.745219	0.000130	1.302837	0.441413	0.000052
 371	3.6815e+01	14.7188	23.797359	0.000130	1.302837	0.441413	0.000052
 372	3.6914e+01	14.8007	23.851943	0.000136	1.363907	0.462104	0.000055
 373	3.7014e+01	14.8087	23.906120	0.000135	1.353729	0.458656	0.000054
 374	3.7114e+01	14.8504	23.962333	0.000140	1.404621	0.475898	0.000056
 375	3.7213e+01	14.9049	24.015695	0.000133	1.333372	0.451759	0.000054
 376	3.7313e+01	14.9547	24.068649	0.000132	1.323193	0.448310	0.000053
 377	3.7412e+01	14.9867	24.122826	0.000135	1.353729	0.458656	0.000054
 378	3.7511e+01	15.0028	24.176188	0.000133	1.333372	0.451759	0.000054
 379	3.7611e+01	15.0702	24.228328	0.000130	1.302837	0.441413	0.000052
 380	3.7711e+01	15.0894	24.284541	0.000140	1.404621	0.475898	0.000056
 381	3.7810e+01	15.1488	24.334237	0.000124	1.241766	0.420722	0.000050
 382	3.7910e+01	15.1921	24.388821	0.000136	1.363907	0.462104	0.000055
 383	3.8009e+01	15.2274	24.443812	0.000137	1.374085	0.465553	0.000055
 384	3.8108e+01	15.2787	24.494322	0.000126	1.262123	0.427619	0.000051
 385	3.8208e+01	15.3060	24.547684	0.000133	1.333372	0.451759	0.000054
 386	3.8307e+01	15.3589	24.601453	0.000134	1.343550	0.455207	0.000054
 387	3.8407e+01	15.3942	24.657259	0.000139	1.394442	0.472450	0.000056
 388	3.8507e+01	15.4135	24.710214	0.000132	1.323193	0.448310	0.000053
 389	3.8606e+01	15.4825	24.765612	0.000138	1.384264	0.469001	0.000056
 390	3.8706e+01	15.5113	24.816938	0.000128	1.282480	0.434516	0.000052
 391	3.8805e+01	15.5723	24.870707	0.000134	1.343550	0.455207	0.000054
 392	3.8904e+01	15.5964	24.922847	0.000130	1.302837	0.441413	0.000052
 393	3.9004e+01	15.6172	24.978245	0.000138	1.384264	0.469001	0.000056
 394	3.9103e+01	15.6525	25.029978	0.000129	1.292658	0.437964	0.000052
 395	3.9203e+01	15.7086	25.081710	0.000129	1.292658	0.437964	0.000052
 396	3.9303e+01	15.7520	25.135887	0.000135	1.353729	0.458656	0.000054
 397	3.9402e+01	15.7808	25.189249	0.000133	1.333372	0.451759	0.000054
 398	3.9502e+01	15.8225	25.238130	0.000122	1.221409	0.413825	0.000049
 399	3.9601e+01	15.8915	25.291492	0.000133	1.333372	0.451759	0.000054
 400	3.9700e+01	15.9076	25.339965	0.000121	1.211231	0.410376	0.000049
 401	3.9800e+01	15.9252	25.392513	0.000131	1.313015	0.444862	0.000053
 402	3.9900e+01	15.9862	25.444652	0.000130	1.302837	0.441413	0.000052
 403	3.9999e+01	16.0263	25.497200	0.000131	1.313015	0.444862	0.000053
 404	4.0099e+01	16.0568	25.547710	0.000126	1.262123	0.427619	0.000051
 405	4.0198e+01	16.0953	25.603516	0.000139	1.394442	0.472450	0.000056
 406	4.0297e+01	16.1546	25.652805	0.000123	1.231588	0.417273	0.000050
 407	4.0397e+01	16.1979	25.704130	0.000128	1.282480	0.434516	0.000052
 408	4.0496e+01	16.1963	25.758306	-0.000135	-1.353729	-0.458656	0.000054
 409	4.0596e+01	16.2429	25.809631	0.000128	1.282480	0.434516	0.000052
 410	4.0696e+01	16.2974	25.859735	0.000125	1.251945	0.424170	0.000050
 411	4.0795e+01	16.3535	25.909430	0.000124	1.241766	0.420722	0.000050
 412	4.0895e+01	16.3888	25.963607	0.000135	1.353729	0.458656	0.000054
 413	4.0994e+01	16.4273	26.012081	0.000121	1.211231	0.410376	0.000049
 414	4.1093e+01	16.4386	26.066665	0.000136	1.363907	0.462104	0.000055
 415	4.1193e+01	16.5060	26.115546	0.000122	1.221409	0.413825	0.000049
 416	4.1292e+01	16.5428	26.167686	0.000130	1.302837	0.441413	0.000052
 417	4.1392e+01	16.6086	26.219825	0.000130	1.302837	0.441413	0.000052
 418	4.1492e+01	16.6054	26.277668	-0.000145	-1.445334	-0.489693	0.000058
 419	4.1591e+01	16.6808	26.329401	0.000129	1.292658	0.437964	0.000052
 420	4.1691e+01	16.7033	26.383170	0.000134	1.343550	0.455207	0.000054
 421	4.1790e+01	16.7338	26.434495	0.000128	1.282480	0.434516	0.000052
 422	4.1889e+01	16.7771	26.487857	0.000133	1.333372	0.451759	0.000054
 423	4.1989e+01	16.8268	26.543663	0.000139	1.394442	0.472450	0.000056
 424	4.2089e+01	16.8477	26.592951	0.000123	1.231588	0.417273	0.000050
 425	4.2188e+01	16.9006	26.644276	0.000128	1.282480	0.434516	0.000052
 426	4.2288e+01	16.9327	26.702119	0.000145	1.445334	0.489693	0.000058
 427	4.2387e+01	16.9744	26.748556	0.000116	1.160339	0.393133	0.000047
 428	4.2486e+01	17.0225	26.802325	0.000134	1.343550	0.455207	0.000054
 429	4.2586e+01	17.0530	26.853650	0.000128	1.282480	0.434516	0.000052
 430	4.2685e+01	17.0851	26.905790	0.000130	1.302837	0.441413	0.000052
 431	4.2785e+01	17.1188	26.954264	0.000121	1.211231	0.410376	0.000049
 432	4.2885e+01	17.1861	27.005996	0.000129	1.292658	0.437964	0.000052
 433	4.2984e+01	17.2263	27.052026	0.000115	1.150160	0.389685	0.000046
 434	4.3084e+01	17.2551	27.108647	0.000141	1.414799	0.479347	0.000057
 435	4.3183e+01	17.2936	27.160787	0.000130	1.302837	0.441413	0.000052
 436	4.3282e+01	17.3161	27.208853	0.000120	1.201052	0.406928	0.000048
 437	4.3382e+01	17.3835	27.256919	0.000120	1.201052	0.406928	0.000048
 438	4.3481e+01	17.4156	27.309059	0.000130	1.302837	0.441413	0.000052
 439	4.3581e+01	17.4364	27.361607	0.000131	1.313015	0.444862	0.000053
 440	4.3681e+01	17.4958	27.404785	0.000108	1.078912	0.365545	0.000043
 441	4.3780e+01	17.5583	27.456925	0.000130	1.302837	0.441413	0.000052
 442	4.3880e+01	17.5663	27.498881	0.000105	1.048376	0.355200	0.000042
 443	4.3979e+01	17.6225	27.548169	0.000123	1.231588	0.417273	0.000050
 444	4.4078e+01	17.6514	27.598680	0.000126	1.262123	0.427619	0.000051
 445	4.4178e+01	17.6690	27.650005	0.000128	1.282480	0.434516	0.000052
 446	4.4278e+01	17.7171	27.697664	0.000119	1.190874	0.403479	0.000048
 447	4.4377e+01	17.7685	27.741657	0.000110	1.099268	0.372442	0.000044
 448	4.4477e+01	17.8134	27.793390	0.000129	1.292658	0.437964	0.000052
 449	4.4576e+01	17.8551	27.845937	0.000131	1.313015	0.444862	0.000053
 450	4.4675e+01	17.8904	27.891967	0.000115	1.150160	0.389685	0.000046
 451	4.4775e+01	17.9257	27.942884	0.000127	1.272301	0.431067	0.000051
 452	4.4874e+01	17.9818	27.997468	0.000136	1.363907	0.462104	0.000055
 453	4.4974e+01	18.0187	28.044720	0.000118	1.180696	0.400031	0.000047
 454	4.5074e+01	18.0637	28.094008	0.000123	1.231588	0.417273	0.000050
 455	4.5173e+01	18.0749	28.140445	0.000116	1.160339	0.393133	0.000047
 456	4.5273e+01	18.1326	28.191771	0.000128	1.282480	0.434516	0.000052
 457	4.5372e+01	18.1744	28.243096	0.000128	1.282480	0.434516	0.000052
 458	4.5471e+01	18.2129	28.289533	0.000116	1.160339	0.393133	0.000047
 459	4.5571e+01	18.2706	28.342487	0.000132	1.323193	0.448310	0.000053
 460	4.5670e+01	18.2883	28.390961	0.000121	1.211231	0.410376	0.000049
 461	4.5770e+01	18.3460	28.443916	0.000132	1.323193	0.448310	0.000053
 462	4.5870e+01	18.3861	28.492389	0.000121	1.211231	0.410376	0.000049
 463	4.5969e+01	18.4022	28.544529	0.000130	1.302837	0.441413	0.000052
 464	4.6069e+01	18.4695	28.588930	0.000111	1.109447	0.375891	0.000045
 465	4.6168e+01	18.5048	28.639033	0.000125	1.251945	0.424170	0.000050
 466	4.6267e+01	18.5369	28.691987	0.000132	1.323193	0.448310	0.000053
 467	4.6367e+01	18.5546	28.739646	0.000119	1.190874	0.403479	0.000048
 468	4.6467e+01	18.6107	28.792194	0.000131	1.313015	0.444862	0.000053
 469	4.6566e+01	18.6396	28.839445	0.000118	1.180696	0.400031	0.000047
 470	4.6666e+01	18.7021	28.889548	0.000125	1.251945	0.424170	0.000050
 471	4.6765e+01	18.7374	28.940466	0.000127	1.272301	0.431067	0.000051
 472	4.6864e+01	18.7663	28.988533	0.000120	1.201052	0.406928	0.000048
 473	4.6964e+01	18.8241	29.032933	0.000111	1.109447	0.375891	0.000045
 474	4.7063e+01	18.8529	29.084258	0.000128	1.282480	0.434516	0.000052
 475	4.7163e+01	18.8963	29.133547	0.000123	1.231588	0.417273	0.000050
 476	4.7263e+01	18.9364	29.183242	0.000124	1.241766	0.420722	0.000050
 477	4.7362e+01	18.9652	29.232124	0.000122	1.221409	0.413825	0.000049
 478	4.7462e+01	19.0214	29.285485	0.000133	1.333372	0.451759	0.000054
 479	4.7561e+01	19.0278	29.330293	0.000112	1.119625	0.379339	0.000045
 480	4.7660e+01	19.0840	29.378767	0.000121	1.211231	0.410376	0.000049
 481	4.7760e+01	19.1289	29.431314	0.000131	1.313015	0.444862	0.000053
 482	4.7859e+01	19.1529	29.483047	0.000129	1.292658	0.437964	0.000052
 483	4.7959e+01	19.2315	29.532742	0.000124	1.241766	0.420722	0.000050
 484	4.8059e+01	19.2540	29.583253	0.000126	1.262123	0.427619	0.000051
 485	4.8158e+01	19.2845	29.632134	0.000122	1.221409	0.413825	0.000049
 486	4.8258e+01	19.3406	29.683052	0.000127	1.272301	0.431067	0.000051
 487	4.8357e+01	19.3839	29.727452	0.000111	1.109447	0.375891	0.000045
 488	4.8456e+01	19.4192	29.779999	0.000131	1.313015	0.444862	0.000053
 489	4.8556e+01	19.4738	29.829288	0.000123	1.231588	0.417273	0.000050
 490	4.8656e+01	19.4978	29.876132	0.000117	1.170517	0.396582	0.000047
 491	4.8755e+01	19.5251	29.931531	0.000138	1.384264	0.469001	0.000056
 492	4.8855e+01	19.5845	29.973894	0.000106	1.058555	0.358648	0.000043
 493	4.8954e+01	19.6166	30.028478	0.000136	1.363907	0.462104	0.000055
 494	4.9053e+01	19.6519	30.077767	0.000123	1.231588	0.417273	0.000050
 495	4.9153e+01	19.6936	30.127462	0.000124	1.241766	0.420722	0.000050
 496	4.9252e+01	19.7289	30.175122	0.000119	1.190874	0.403479	0.000048
 497	4.9352e+01	19.7706	30.223595	0.000121	1.211231	0.410376	0.000049
 498	4.9452e+01	19.7946	30.277365	0.000134	1.343550	0.455207	0.000054
 499	4.9551e+01	19.8460	30.324209	0.000117	1.170517	0.396582	0.000047
 500	4.9651e+01	19.8845	30.369831	0.000114	1.139982	0.386236	0.000046
 501	4.9750e+01	19.9182	30.422378	0.000131	1.313015	0.444862	0.000053
 502	4.9849e+01	19.9791	30.465557	0.000108	1.078912	0.365545	0.000043
 503	4.9949e+01	19.9919	30.514438	0.000122	1.221409	0.413825	0.000049
 504	5.0048e+01	19.9647	30.485109	0.000073	0.732846	0.248295	-0.000029
 505	5.0148e+01	19.9342	30.445597	0.000099	0.987306	0.334508	-0.000040
 506	5.0248e+01	19.8973	30.410566	0.000088	0.875343	0.296574	-0.000035
 507	5.0347e+01	19.8540	30.373497	0.000093	0.926235	0.313817	-0.000037
 508	5.0447e+01	19.8059	30.336429	0.000093	0.926235	0.313817	-0.000037
 509	5.0546e+01	19.7658	30.302620	0.000084	0.844808	0.286229	-0.000034
 510	5.0645e+01	19.7096	30.268810	0.000084	0.844808	0.286229	-0.000034
 511	5.0745e+01	19.6887	30.229705	0.000098	0.977127	0.331060	-0.000039
 512	5.0844e+01	19.6519	30.190193	0.000099	0.987306	0.334508	-0.000040
 513	5.0944e+01	19.6005	30.156384	0.000084	0.844808	0.286229	-0.000034
 514	5.1044e+01	19.5604	30.116057	0.000101	1.007663	0.341405	-0.000041
 515	5.1143e+01	19.5203	30.080211	0.000090	0.895700	0.303471	-0.000036
 516	5.1242e+01	19.4802	30.041106	0.000098	0.977127	0.331060	-0.000039
 517	5.1342e+01	19.4401	30.006889	0.000085	0.854987	0.289677	-0.000034
 518	5.1441e+01	19.4000	29.968192	0.000097	0.966949	0.327611	-0.000039
 519	5.1541e+01	19.3807	29.929901	0.000096	0.956771	0.324163	-0.000038
 520	5.1641e+01	19.3198	29.894055	0.000090	0.895700	0.303471	-0.000036
 521	5.1740e+01	19.2973	29.854950	0.000098	0.977127	0.331060	-0.000039
 522	5.1840e+01	19.2636	29.821548	0.000083	0.834630	0.282780	-0.000034
 523	5.1939e+01	19.2075	29.781629	0.000100	0.997484	0.337957	-0.000040
 524	5.2038e+01	19.1754	29.742931	0.000097	0.966949	0.327611	-0.000039
 525	5.2138e+01	19.1128	29.711566	0.000078	0.783738	0.265538	-0.000032
 526	5.2237e+01	19.0872	29.674090	0.000094	0.936414	0.317266	-0.000038
 527	5.2337e+01	19.0471	29.637837	0.000091	0.905879	0.306920	-0.000036
 528	5.2437e+01	19.0021	29.592622	0.000113	1.129804	0.382788	-0.000045
 529	5.2536e+01	18.9781	29.555146	0.000094	0.936414	0.317266	-0.000038
 530	5.2636e+01	18.9396	29.519300	0.000090	0.895700	0.303471	-0.000036
 531	5.2735e+01	18.9011	29.481010	0.000096	0.956771	0.324163	-0.000038
 532	5.2834e+01	18.8353	29.442312	0.000097	0.966949	0.327611	-0.000039
 533	5.2934e+01	18.8144	29.396690	0.000114	1.139982	0.386236	-0.000046
 534	5.3033e+01	18.7615	29.360436	0.000091	0.905879	0.306920	-0.000036
 535	5.3133e+01	18.7358	29.324183	0.000091	0.905879	0.306920	-0.000036
 536	5.3233e+01	18.6893	29.284671	0.000099	0.987306	0.334508	-0.000040
 537	5.3332e+01	18.6652	29.241900	0.000107	1.068733	0.362097	-0.000043
 538	5.3431e+01	18.6300	29.202388	0.000099	0.987306	0.334508	-0.000040
 539	5.3531e+01	18.5786	29.162061	0.000101	1.007663	0.341405	-0.000041
 540	5.3630e+01	18.5337	29.120919	0.000103	1.028020	0.348302	-0.000041
 541	5.3730e+01	18.4872	29.076111	0.000112	1.119625	0.379339	-0.000045
 542	5.3830e+01	18.4551	29.041080	0.000088	0.875343	0.296574	-0.000035
 543	5.3929e+01	18.4214	28.999124	0.000105	1.048376	0.355200	-0.000042
 544	5.4029e+01	18.3556	28.956353	0.000107	1.068733	0.362097	-0.000043
 545	5.4128e+01	18.3364	28.915618	0.000102	1.017841	0.344854	-0.000041
 546	5.4227e+01	18.2963	28.873662	0.000105	1.048376	0.355200	-0.000042
 547	5.4327e+01	18.2690	28.830891	0.000107	1.068733	0.362097	-0.000043
 548	5.4426e+01	18.2080	28.788935	0.000105	1.048376	0.355200	-0.000042
 549	5.4526e+01	18.1856	28.748201	0.000102	1.017841	0.344854	-0.000041
 550	5.4626e+01	18.1262	28.705837	0.000106	1.058555	0.358648	-0.000043
 551	5.4725e+01	18.0669	28.665917	0.000100	0.997484	0.337957	-0.000040
 552	5.4825e+01	18.0364	28.622739	0.000108	1.078912	0.365545	-0.000043
 553	5.4924e+01	18.0107	28.585264	0.000094	0.936414	0.317266	-0.000038
 554	5.5023e+01	17.9546	28.538826	0.000116	1.160339	0.393133	-0.000047
 555	5.5123e+01	17.9498	28.500944	0.000095	0.946592	0.320714	-0.000038
 556	5.5222e+01	17.8856	28.457358	0.000109	1.089090	0.368994	-0.000044
 557	5.5322e+01	17.8631	28.415402	0.000105	1.048376	0.355200	-0.000042
 558	5.5422e+01	17.8166	28.376297	0.000098	0.977127	0.331060	-0.000039
 559	5.5521e+01	17.7733	28.335563	0.000102	1.017841	0.344854	-0.000041
 560	5.5620e+01	17.7460	28.286681	0.000122	1.221409	0.413825	-0.000049
 561	5.5720e+01	17.7011	28.248799	0.000095	0.946592	0.320714	-0.000038
 562	5.5819e+01	17.6883	28.206028	0.000107	1.068733	0.362097	-0.000043
 563	5.5919e+01	17.6097	28.161220	0.000112	1.119625	0.379339	-0.000045
 564	5.6019e+01	17.5792	28.118856	0.000106	1.058555	0.358648	-0.000043
 565	5.6118e+01	17.5359	28.078937	0.000100	0.997484	0.337957	-0.000040
 566	5.6218e+01	17.4974	28.034944	0.000110	1.099268	0.372442	-0.000044
 567	5.6317e+01	17.4300	27.987285	0.000119	1.190874	0.403479	-0.000048
 568	5.6416e+01	17.4156	27.944921	0.000106	1.058555	0.358648	-0.000043
 569	5.6516e+01	17.3690	27.902150	0.000107	1.068733	0.362097	-0.000043
 570	5.6615e+01	17.3514	27.855713	0.000116	1.160339	0.393133	-0.000047
 571	5.6715e+01	17.2824	27.815386	0.000101	1.007663	0.341405	-0.000041
 572	5.6815e+01	17.2471	27.771393	0.000110	1.099268	0.372442	-0.000044
 573	5.6914e+01	17.2198	27.727400	0.000110	1.099268	0.372442	-0.000044
 574	5.7014e+01	17.1573	27.685851	0.000104	1.038198	0.351751	-0.000042
 575	5.7113e+01	17.1364	27.640636	0.000113	1.129804	0.382788	-0.000045
 576	5.7212e+01	17.0722	27.597458	0.000108	1.078912	0.365545	-0.000043
 577	5.7312e+01	17.0642	27.552650	0.000112	1.119625	0.379339	-0.000045
 578	5.7411e+01	17.0097	27.510694	0.000105	1.048376	0.355200	-0.000042
 579	5.7511e+01	16.9680	27.463035	0.000119	1.190874	0.403479	-0.000048
 580	5.7611e+01	16.9391	27.418227	0.000112	1.119625	0.379339	-0.000045
 581	5.7710e+01	16.8829	27.374641	0.000109	1.089090	0.368994	-0.000044
 582	5.7809e+01	16.8685	27.329426	0.000113	1.129804	0.382788	-0.000045
 583	5.7909e+01	16.8220	27.285841	0.000109	1.089090	0.368994	-0.000044
 584	5.8008e+01	16.7803	27.244292	0.000104	1.038198	0.351751	-0.000042
 585	5.8108e+01	16.7450	27.200299	0.000110	1.099268	0.372442	-0.000044
 586	5.8208e+01	16.6985	27.154677	0.000114	1.139982	0.386236	-0.000046
 587	5.8307e+01	16.6584	27.115979	0.000097	0.966949	0.327611	-0.000039
 588	5.8407e+01	16.6279	27.074837	0.000103	1.028020	0.348302	-0.000041
 589	5.8506e+01	16.5910	27.029622	0.000113	1.129804	0.382788	-0.000045
 590	5.8605e+01	16.5284	26.986037	0.000109	1.089090	0.368994	-0.000044
 591	5.8705e+01	16.5027	26.943673	0.000106	1.058555	0.358648	-0.000043
 592	5.8804e+01	16.4610	26.903753	0.000100	0.997484	0.337957	-0.000040
 593	5.8904e+01	16.4193	26.856502	0.000118	1.180696	0.400031	-0.000047
 594	5.9004e+01	16.3840	26.812509	0.000110	1.099268	0.372442	-0.000044
 595	5.9103e+01	16.3231	26.766479	0.000115	1.150160	0.389685	-0.000046
 596	5.9203e+01	16.3134	26.720449	0.000115	1.150160	0.389685	-0.000046
 597	5.9302e+01	16.2782	26.678900	0.000104	1.038198	0.351751	-0.000042
 598	5.9401e+01	16.2156	26.628390	0.000126	1.262123	0.427619	-0.000051
 599	5.9501e+01	16.1642	26.585212	0.000108	1.078912	0.365545	-0.000043
 600	5.9600e+01	16.1498	26.539997	0.000113	1.129804	0.382788	-0.000045
 601	5.9700e+01	16.0776	26.500077	0.000100	0.997484	0.337957	-0.000040
 602	5.9800e+01	16.0760	26.449974	0.000125	1.251945	0.424170	-0.000050
 603	5.9899e+01	16.0167	26.404759	0.000113	1.129804	0.382788	-0.000045
 604	5.9998e+01	15.9782	26.356692	0.000120	1.201052	0.406928	-0.000048
 605	6.0098e+01	15.9589	26.313107	0.000109	1.089090	0.368994	-0.000044
 606	6.0197e+01	15.8883	26.268706	0.000111	1.109447	0.375891	-0.000045
 607	6.0297e+01	15.8819	26.218603	0.000125	1.251945	0.424170	-0.000050
 608	6.0397e+01	15.8258	26.168500	0.000125	1.251945	0.424170	-0.000050
 609	6.0496e+01	15.7808	26.124507	0.000110	1.099268	0.372442	-0.000044
 610	6.0596e+01	15.7471	26.074404	0.000125	1.251945	0.424170	-0.000050
 611	6.0695e+01	15.7070	26.025523	0.000122	1.221409	0.413825	-0.000049
 612	6.0794e+01	15.6493	25.975012	0.000126	1.262123	0.427619	-0.000051
 613	6.0894e+01	15.6365	25.927761	0.000118	1.180696	0.400031	-0.000047
 614	6.0993e+01	15.6108	25.884175	0.000109	1.089090	0.368994	-0.000044
 615	6.1093e+01	15.5466	25.834887	0.000123	1.231588	0.417273	-0.000050
 616	6.1193e+01	15.4937	25.786820	0.000120	1.201052	0.406928	-0.000048
 617	6.1292e+01	15.4584	25.737124	0.000124	1.241766	0.420722	-0.000050
 618	6.1392e+01	15.4199	25.691502	0.000114	1.139982	0.386236	-0.000046
 619	6.1491e+01	15.3894	25.645880	0.000114	1.139982	0.386236	-0.000046
 620	6.1590e+01	15.3589	25.598628	0.000118	1.180696	0.400031	-0.000047
 621	6.1690e+01	15.2980	25.545673	0.000132	1.323193	0.448310	-0.000053
 622	6.1789e+01	15.2755	25.504532	0.000103	1.028020	0.348302	-0.000041
 623	6.1889e+01	15.2210	25.457687	0.000117	1.170517	0.396582	-0.000047
 624	6.1989e+01	15.1680	25.410843	0.000117	1.170517	0.396582	-0.000047
 625	6.2088e+01	15.1199	25.361962	0.000122	1.221409	0.413825	-0.000049
 626	6.2188e+01	15.0846	25.316340	0.000114	1.139982	0.386236	-0.000046
 627	6.2287e+01	15.0541	25.267458	0.000122	1.221409	0.413825	-0.000049
 628	6.2386e+01	15.0156	25.221021	0.000116	1.160339	0.393133	-0.000047
 629	6.2486e+01	14.9803	25.173362	0.000119	1.190874	0.403479	-0.000048
 630	6.2586e+01	14.9547	25.124889	0.000121	1.211231	0.410376	-0.000049
 631	6.2685e+01	14.9162	25.079266	0.000114	1.139982	0.386236	-0.000046
 632	6.2785e+01	14.8632	25.032829	0.000116	1.160339	0.393133	-0.000047
 633	6.2884e+01	14.8183	24.979467	0.000133	1.333372	0.451759	-0.000054
 634	6.2983e+01	14.8071	24.935067	0.000111	1.109447	0.375891	-0.000045
 635	6.3083e+01	14.7509	24.884556	0.000126	1.262123	0.427619	-0.000051
 636	6.3182e+01	14.7108	24.840156	0.000111	1.109447	0.375891	-0.000045
 637	6.3282e+01	14.6723	24.792904	0.000118	1.180696	0.400031	-0.000047
 638	6.3382e+01	14.6306	24.746467	0.000116	1.160339	0.393133	-0.000047
 639	6.3481e+01	14.5857	24.694327	0.000130	1.302837	0.441413	-0.000052
 640	6.3581e+01	14.5536	24.648298	0.000115	1.150160	0.389685	-0.000046
 641	6.3680e+01	14.5135	24.601046	0.000118	1.180696	0.400031	-0.000047
 642	6.3779e+01	14.4686	24.549314	0.000129	1.292658	0.437964	-0.000052
 643	6.3879e+01	14.4237	24.503284	0.000115	1.150160	0.389685	-0.000046
 644	6.3978e+01	14.3803	24.453181	0.000125	1.251945	0.424170	-0.000050
 645	6.4078e+01	14.3434	24.402670	0.000126	1.262123	0.427619	-0.000051
 646	6.4177e+01	14.3049	24.354196	0.000121	1.211231	0.410376	-0.000049
 647	6.4277e+01	14.2568	24.303686	0.000126	1.262123	0.427619	-0.000051
 648	6.4376e+01	14.2087	24.258471	0.000113	1.129804	0.382788	-0.000045
 649	6.4476e+01	14.1846	24.211219	0.000118	1.180696	0.400031	-0.000047
 650	6.4576e+01	14.1638	24.164782	0.000116	1.160339	0.393133	-0.000047
 651	6.4675e+01	14.1156	24.116716	0.000120	1.201052	0.406928	-0.000048
 652	6.4775e+01	14.0723	24.063354	0.000133	1.333372	0.451759	-0.000054
 653	6.4874e+01	14.0194	24.019768	0.000109	1.089090	0.368994	-0.000044
 654	6.4974e+01	13.9969	23.970887	0.000122	1.221409	0.413825	-0.000049
 655	6.5073e+01	13.9729	23.921599	0.000123	1.231588	0.417273	-0.000050
 656	6.5172e+01	13.9279	23.870274	0.000128	1.282480	0.434516	-0.000052
 657	6.5272e+01	13.8927	23.822207	0.000120	1.201052	0.406928	-0.000048
 658	6.5371e+01	13.8349	23.773733	0.000121	1.211231	0.410376	-0.000049
 659	6.5471e+01	13.7884	23.726074	0.000119	1.190874	0.403479	-0.000048
 660	6.5570e+01	13.7467	23.675564	0.000126	1.262123	0.427619	-0.000051
 661	6.5670e+01	13.7098	23.627905	0.000119	1.190874	0.403479	-0.000048
 662	6.5769e+01	13.6616	23.579431	0.000121	1.211231	0.410376	-0.000049
 663	6.5869e+01	13.6568	23.527698	0.000129	1.292658	0.437964	-0.000052
 664	6.5969e+01	13.5895	23.477188	0.000126	1.262123	0.427619	-0.000051
 665	6.6068e+01	13.5445	23.430344	0.000117	1.170517	0.396582	-0.000047
 666	6.6168e+01	13.5076	23.377389	0.000132	1.323193	0.448310	-0.000053
 667	6.6267e+01	13.4772	23.329730	0.000119	1.190874	0.403479	-0.000048
 668	6.6367e+01	13.4515	23.283700	0.000115	1.150160	0.389685	-0.000046
 669	6.6466e+01	13.3905	23.225450	0.000146	1.455513	0.493141	-0.000059
 670	6.6566e+01	13.3392	23.174532	0.000127	1.272301	0.431067	-0.000051
 671	6.6665e+01	13.2927	23.123615	0.000127	1.272301	0.431067	-0.000051
 672	6.6764e+01	13.2863	23.072289	0.000128	1.282480	0.434516	-0.000052
 673	6.6864e+01	13.2429	23.017298	0.000137	1.374085	0.465553	-0.000055
 674	6.6963e+01	13.2028	22.966788	0.000126	1.262123	0.427619	-0.000051
 675	6.7063e+01	13.1691	22.917092	0.000124	1.241766	0.420722	-0.000050
 676	6.7162e+01	13.1066	22.869026	0.000120	1.201052	0.406928	-0.000048
 677	6.7262e+01	13.0552	22.814849	0.000135	1.353729	0.458656	-0.000054
 678	6.7362e+01	13.0119	22.767190	0.000119	1.190874	0.403479	-0.000048
 679	6.7461e+01	12.9991	22.712606	0.000136	1.363907	0.462104	-0.000055
 680	6.7561e+01	12.9349	22.664540	0.000120	1.201052	0.406928	-0.000048
 681	6.7660e+01	12.9253	22.614029	0.000126	1.262123	0.427619	-0.000051
 682	6.7760e+01	12.8852	22.567592	0.000116	1.160339	0.393133	-0.000047
 683	6.7859e+01	12.8467	22.515045	0.000131	1.313015	0.444862	-0.000053
 684	6.7959e+01	12.7986	22.464534	0.000126	1.262123	0.427619	-0.000051
 685	6.8058e+01	12.7713	22.411580	0.000132	1.323193	0.448310	-0.000053
 686	6.8157e+01	12.7264	22.364328	0.000118	1.180696	0.400031	-0.000047
 687	6.8257e+01	12.6783	22.310966	0.000133	1.333372	0.451759	-0.000054
 688	6.8356e+01	12.6462	22.264122	0.000117	1.170517	0.396582	-0.000047
 689	6.8456e+01	12.5996	22.218092	0.000115	1.150160	0.389685	-0.000046
 690	6.8555e+01	12.5660	22.165545	0.000131	1.313015	0.444862	-0.000053
 691	6.8655e+01	12.5242	22.114220	0.000128	1.282480	0.434516	-0.000052
 692	6.8754e+01	12.4809	22.062895	0.000128	1.282480	0.434516	-0.000052
 693	6.8854e+01	12.4296	22.018902	0.000110	1.099268	0.372442	-0.000044
 694	6.8954e+01	12.3927	21.968798	0.000125	1.251945	0.424170	-0.000050
 695	6.9053e+01	12.3590	21.920325	0.000121	1.211231	0.410376	-0.000049
 696	6.9153e+01	12.3173	21.868592	0.000129	1.292658	0.437964	-0.000052
 697	6.9252e+01	12.2740	21.821340	0.000118	1.180696	0.400031	-0.000047
 698	6.9352e+01	12.2194	21.766757	0.000136	1.363907	0.462104	-0.000055
 699	6.9451e+01	12.2018	21.718690	0.000120	1.201052	0.406928	-0.000048
 700	6.9550e+01	12.1489	21.667772	0.000127	1.272301	0.431067	-0.000051
 701	6.9650e+01	12.1360	21.614818	0.000132	1.323193	0.448310	-0.000053
 702	6.9749e+01	12.0606	21.565122	0.000124	1.241766	0.420722	-0.000050
 703	6.9849e+01	12.0285	21.517870	0.000118	1.180696	0.400031	-0.000047
 704	6.9948e+01	11.9916	21.459213	0.000147	1.465691	0.496590	-0.000059
 705	7.0048e+01	11.9580	21.412369	0.000117	1.170517	0.396582	-0.000047
 706	7.0147e+01	11.9194	21.358192	0.000135	1.353729	0.458656	-0.000054
 707	7.0247e+01	11.8553	21.306459	0.000129	1.292658	0.437964	-0.000052
 708	7.0347e+01	11.8039	21.252690	0.000134	1.343550	0.455207	-0.000054
 709	7.0446e+01	11.8168	21.201365	-0.000128	-1.282480	-0.434516	-0.000052
 710	7.0546e+01	11.7606	21.150447	0.000127	1.272301	0.431067	-0.000051
 711	7.0645e+01	11.7109	21.101974	0.000121	1.211231	0.410376	-0.000049
 712	7.0745e+01	11.6965	21.044538	0.000144	1.435156	0.486244	-0.000058
 713	7.0844e+01	11.6307	20.991176	0.000133	1.333372	0.451759	-0.000054
 714	7.0944e+01	11.6034	20.938629	0.000131	1.313015	0.444862	-0.000053
 715	7.1043e+01	11.5633	20.890970	0.000119	1.190874	0.403479	-0.000048
 716	7.1142e+01	11.5248	20.832720	0.000146	1.455513	0.493141	-0.000059
 717	7.1242e+01	11.4799	20.783839	0.000122	1.221409	0.413825	-0.000049
 718	7.1341e+01	11.4446	20.730070	0.000134	1.343550	0.455207	-0.000054
 719	7.1441e+01	11.3981	20.679559	0.000126	1.262123	0.427619	-0.000051
 720	7.1540e+01	11.3596	20.627419	0.000130	1.302837	0.441413	-0.000052
 721	7.1640e+01	11.3163	20.572021	0.000138	1.384264	0.469001	-0.000056
 722	7.1740e+01	11.3002	20.517844	0.000135	1.353729	0.458656	-0.000054
 723	7.1839e+01	11.2377	20.460816	0.000142	1.424978	0.482795	-0.000057
 724	7.1939e+01	11.2152	20.411528	0.000123	1.231588	0.417273	-0.000050
 725	7.2038e+01	11.1526	20.359795	0.000129	1.292658	0.437964	-0.000052
 726	7.2138e+01	11.1494	20.306026	0.000134	1.343550	0.455207	-0.000054
 727	7.2237e+01	11.0788	20.249406	0.000141	1.414799	0.479347	-0.000057
 728	7.2337e+01	11.0516	20.199710	0.000124	1.241766	0.420722	-0.000050
 729	7.2436e+01	11.0131	20.147977	0.000129	1.292658	0.437964	-0.000052
 730	7.2535e+01	10.9489	20.094208	0.000134	1.343550	0.455207	-0.000054
 731	7.2635e+01	10.9168	20.036773	0.000144	1.435156	0.486244	-0.000058
 732	7.2734e+01	10.8815	19.985448	0.000128	1.282480	0.434516	-0.000052
 733	7.2834e+01	10.8478	19.930049	0.000138	1.384264	0.469001	-0.000056
 734	7.2933e+01	10.7885	19.872206	0.000145	1.445334	0.489693	-0.000058
 735	7.3033e+01	10.7516	19.818030	0.000135	1.353729	0.458656	-0.000054
 736	7.3132e+01	10.7083	19.764668	0.000133	1.333372	0.451759	-0.000054
 737	7.3232e+01	10.7050	19.709677	0.000137	1.374085	0.465553	-0.000055
 738	7.3332e+01	10.6601	19.655093	0.000136	1.363907	0.462104	-0.000055
 739	7.3431e+01	10.5944	19.600102	0.000137	1.374085	0.465553	-0.000055
 740	7.3531e+01	10.5607	19.547962	0.000130	1.302837	0.441413	-0.000052
 741	7.3630e+01	10.5029	19.494600	0.000133	1.333372	0.451759	-0.000054
 742	7.3730e+01	10.4949	19.438794	0.000139	1.394442	0.472450	-0.000056
 743	7.3829e+01	10.4484	19.384617	0.000135	1.353729	0.458656	-0.000054
 744	7.3928e+01	10.4083	19.327182	0.000144	1.435156	0.486244	-0.000058
 745	7.4028e+01	10.3585	19.272598	0.000136	1.363907	0.462104	-0.000055
 746	7.4127e+01	10.3232	19.216792	0.000139	1.394442	0.472450	-0.000056
 747	7.4227e+01	10.3088	19.158950	0.000145	1.445334	0.489693	-0.000058
 748	7.4326e+01	10.2494	19.100700	0.000146	1.455513	0.493141	-0.000059
 749	7.4426e+01	10.1837	19.050189	0.000126	1.262123	0.427619	-0.000051
 750	7.4525e+01	10.1805	18.992346	0.000145	1.445334	0.489693	-0.000058
 751	7.4625e+01	10.1291	18.936541	0.000139	1.394442	0.472450	-0.000056
 752	7.4725e+01	10.0617	18.883993	0.000131	1.313015	0.444862	-0.000053
 753	7.4824e+01	10.0441	18.827373	0.000141	1.414799	0.479347	-0.000057
 754	7.4924e+01	10.0104	18.772789	0.000136	1.363907	0.462104	-0.000055
 755	7.5023e+01	9.9623	18.721056	0.000129	1.292658	0.437964	-0.000052
 756	7.5123e+01	9.9093	18.667694	0.000133	1.333372	0.451759	-0.000054
 757	7.5222e+01	9.8869	18.613111	0.000136	1.363907	0.462104	-0.000055
 758	7.5322e+01	9.8452	18.556490	0.000141	1.414799	0.479347	-0.000057
 759	7.5421e+01	9.8035	18.507609	0.000122	1.221409	0.413825	-0.000049
 760	7.5520e+01	9.7778	18.447729	0.000150	1.496226	0.506935	-0.000060
 761	7.5620e+01	9.7088	18.393146	0.000136	1.363907	0.462104	-0.000055
 762	7.5719e+01	9.6671	18.336118	0.000142	1.424978	0.482795	-0.000057
 763	7.5819e+01	9.6735	18.281534	-0.000136	-1.363907	-0.462104	-0.000055
 764	7.5918e+01	9.5933	18.222062	0.000149	1.486048	0.503487	-0.000060
 765	7.6018e+01	9.5612	18.170737	0.000128	1.282480	0.434516	-0.000052
 766	7.6118e+01	9.5227	18.109228	0.000154	1.536940	0.520729	-0.000062
 767	7.6217e+01	9.4762	18.050570	0.000147	1.465691	0.496590	-0.000059
 768	7.6317e+01	9.4457	17.995579	0.000137	1.374085	0.465553	-0.000055
 769	7.6416e+01	9.4104	17.939366	0.000140	1.404621	0.475898	-0.000056
 770	7.6516e+01	9.3559	17.879487	0.000150	1.496226	0.506935	-0.000060
 771	7.6615e+01	9.3302	17.823273	0.000140	1.404621	0.475898	-0.000056
 772	7.6715e+01	9.2885	17.762579	0.000152	1.516583	0.513832	-0.000061
 773	7.6814e+01	9.2660	17.704737	0.000145	1.445334	0.489693	-0.000058
 774	7.6913e+01	9.2131	17.645672	0.000148	1.475870	0.500038	-0.000059
 775	7.7013e+01	9.1778	17.585385	0.000151	1.506405	0.510384	-0.000061
 776	7.7112e+01	9.1377	17.522655	0.000157	1.567475	0.531075	-0.000063
 777	7.7212e+01	9.0928	17.461960	0.000152	1.516583	0.513832	-0.000061
 778	7.7311e+01	9.0431	17.406155	0.000139	1.394442	0.472450	-0.000056
 779	7.7411e+01	9.0254	17.343424	0.000157	1.567475	0.531075	-0.000063
 780	7.7510e+01	8.9645	17.284766	0.000147	1.465691	0.496590	-0.000059
 781	7.7610e+01	8.9452	17.223258	0.000154	1.536940	0.520729	-0.000062
 782	7.7710e+01	8.8907	17.166637	0.000141	1.414799	0.479347	-0.000057
 783	7.7809e+01	8.8409	17.100648	0.000165	1.648903	0.558663	-0.000066
 784	7.7909e+01	8.8201	17.046064	0.000136	1.363907	0.462104	-0.000055
 785	7.8008e+01	8.7607	16.986999	0.000148	1.475870	0.500038	-0.000059
 786	7.8108e+01	8.7190	16.929971	0.000142	1.424978	0.482795	-0.000057
 787	7.8207e+01	8.6933	16.864389	0.000164	1.638724	0.555215	-0.000066
 788	7.8306e+01	8.6404	16.807361	0.000142	1.424978	0.482795	-0.000057
 789	7.8406e+01	8.5971	16.746667	0.000152	1.516583	0.513832	-0.000061
 790	7.8505e+01	8.5826	16.689232	0.000144	1.435156	0.486244	-0.000058
 791	7.8605e+01	8.5297	16.627723	0.000154	1.536940	0.520729	-0.000062
 792	7.8704e+01	8.5040	16.569473	0.000146	1.455513	0.493141	-0.000059
 793	7.8804e+01	8.4463	16.506742	0.000157	1.567475	0.531075	-0.000063
 794	7.8903e+01	8.4367	16.450936	0.000139	1.394442	0.472450	-0.000056
 795	7.9003e+01	8.4014	16.389835	0.000153	1.526762	0.517281	-0.000061
 796	7.9103e+01	8.3276	16.329141	0.000152	1.516583	0.513832	-0.000061
 797	7.9202e+01	8.3003	16.271298	0.000145	1.445334	0.489693	-0.000058
 798	7.9302e+01	8.2506	16.204494	0.000167	1.669259	0.565560	-0.000067
 799	7.9401e+01	8.2169	16.146651	0.000145	1.445334	0.489693	-0.000058
 800	7.9501e+01	8.1800	16.085957	0.000152	1.516583	0.513832	-0.000061
 801	7.9600e+01	8.1238	16.026893	0.000148	1.475870	0.500038	-0.000059
 802	7.9700e+01	8.0950	15.964162	0.000157	1.567475	0.531075	-0.000063
 803	7.9799e+01	8.0228	15.907949	0.000140	1.404621	0.475898	-0.000056
 804	7.9898e+01	8.0035	15.843996	0.000160	1.598011	0.541421	-0.000064
 805	7.9998e+01	7.9762	15.783302	0.000152	1.516583	0.513832	-0.000061
 806	8.0097e+01	7.9217	15.717720	0.000164	1.638724	0.555215	-0.000066
 807	8.0197e+01	7.8768	15.659470	0.000146	1.455513	0.493141	-0.000059
 808	8.0296e+01	7.8367	15.595517	0.000160	1.598011	0.541421	-0.000064
 809	8.0396e+01	7.7998	15.539304	0.000140	1.404621	0.475898	-0.000056
 810	8.0496e+01	7.7805	15.474129	0.000163	1.628546	0.551766	-0.000066
 811	8.0595e+01	7.7340	15.409769	0.000161	1.608189	0.544869	-0.000065
 812	8.0695e+01	7.6987	15.353148	0.000141	1.414799	0.479347	-0.000057
 813	8.0794e+01	7.6634	15.290010	0.000158	1.577654	0.534524	-0.000063
 814	8.0894e+01	7.6153	15.228094	0.000155	1.547118	0.524178	-0.000062
 815	8.0993e+01	7.5640	15.164549	0.000159	1.587832	0.537972	-0.000064
 816	8.1093e+01	7.5591	15.104262	0.000151	1.506405	0.510384	-0.000061
 817	8.1192e+01	7.5030	15.043160	0.000153	1.526762	0.517281	-0.000061
 818	8.1291e+01	7.4597	14.978393	0.000162	1.618367	0.548318	-0.000065
 819	8.1391e+01	7.4324	14.915662	0.000157	1.567475	0.531075	-0.000063
 820	8.1490e+01	7.3923	14.857412	0.000146	1.455513	0.493141	-0.000059
 821	8.1590e+01	7.3490	14.792237	0.000163	1.628546	0.551766	-0.000066
 822	8.1689e+01	7.3009	14.732765	0.000149	1.486048	0.503487	-0.000060
 823	8.1789e+01	7.2688	14.669220	0.000159	1.587832	0.537972	-0.000064
 824	8.1888e+01	7.2287	14.602823	0.000166	1.659081	0.562112	-0.000067
 825	8.1988e+01	7.1677	14.540092	0.000157	1.567475	0.531075	-0.000063
 826	8.2088e+01	7.1453	14.482657	0.000144	1.435156	0.486244	-0.000058
 827	8.2187e+01	7.0907	14.414631	0.000170	1.699795	0.575906	-0.000068
 828	8.2287e+01	7.0426	14.351493	0.000158	1.577654	0.534524	-0.000063
 829	8.2386e+01	7.0153	14.288762	0.000157	1.567475	0.531075	-0.000063
 830	8.2486e+01	6.9752	14.227253	0.000154	1.536940	0.520729	-0.000062
 831	8.2585e+01	6.9319	14.160042	0.000168	1.679438	0.569009	-0.000068
 832	8.2684e+01	6.9110	14.097718	0.000156	1.557297	0.527626	-0.000063
 833	8.2784e+01	6.8404	14.033358	0.000161	1.608189	0.544869	-0.000065
 834	8.2883e+01	6.8260	13.969813	0.000159	1.587832	0.537972	-0.000064
 835	8.2983e+01	6.7827	13.907082	0.000157	1.567475	0.531075	-0.000063
 836	8.3082e+01	6.7458	13.842315	0.000162	1.618367	0.548318	-0.000065
 837	8.3182e+01	6.7025	13.774696	0.000169	1.689616	0.572457	-0.000068
 838	8.3281e+01	6.6688	13.707892	0.000167	1.669259	0.565560	-0.000067
 839	8.3381e+01	6.6126	13.645161	0.000157	1.567475	0.531075	-0.000063
 840	8.3481e+01	6.5790	13.577542	0.000169	1.689616	0.572457	-0.000068
 841	8.3580e+01	6.5453	13.506257	0.000178	1.781222	0.603494	-0.000072
 842	8.3680e+01	6.4955	13.441082	0.000163	1.628546	0.551766	-0.000066
 843	8.3779e+01	6.4731	13.379573	0.000154	1.536940	0.520729	-0.000062
 844	8.3879e+01	6.4217	13.317250	0.000156	1.557297	0.527626	-0.000063
 845	8.3978e+01	6.3736	13.248409	0.000172	1.720151	0.582803	-0.000069
 846	8.4078e+01	6.3351	13.184864	0.000159	1.587832	0.537972	-0.000064
 847	8.4177e+01	6.3078	13.113986	0.000177	1.771044	0.600046	-0.000071
 848	8.4276e+01	6.2517	13.051663	0.000156	1.557297	0.527626	-0.000063
 849	8.4376e+01	6.2068	12.987710	0.000160	1.598011	0.541421	-0.000064
 850	8.4475e+01	6.1875	12.916018	0.000179	1.791400	0.606943	-0.000072
 851	8.4575e+01	6.1426	12.858990	0.000142	1.424978	0.482795	-0.000057
 852	8.4674e+01	6.1105	12.787297	0.000179	1.791400	0.606943	-0.000072
 853	8.4774e+01	6.0592	12.724159	0.000158	1.577654	0.534524	-0.000063
 854	8.4874e+01	6.0239	12.659392	0.000162	1.618367	0.548318	-0.000065
 855	8.4973e+01	5.9694	12.590551	0.000172	1.720151	0.582803	-0.000069
 856	8.5073e+01	5.9373	12.527820	0.000157	1.567475	0.531075	-0.000063
 857	8.5172e+01	5.8891	12.462645	0.000163	1.628546	0.551766	-0.000066
 858	8.5272e+01	5.8587	12.394212	0.000171	1.709973	0.579355	-0.000069
 859	8.5371e+01	5.8089	12.331888	0.000156	1.557297	0.527626	-0.000063
 860	8.5471e+01	5.7913	12.268343	0.000159	1.587832	0.537972	-0.000064
 861	8.5570e+01	5.7560	12.203983	0.000161	1.608189	0.544869	-0.000065
 862	8.5669e+01	5.6950	12.136364	0.000169	1.689616	0.572457	-0.000068
 863	8.5769e+01	5.6774	12.072411	0.000160	1.598011	0.541421	-0.000064
 864	8.5868e+01	5.6325	12.006829	0.000164	1.638724	0.555215	-0.000066
 865	8.5968e+01	5.6004	11.942469	0.000161	1.608189	0.544869	-0.000065
 866	8.6067e+01	5.5539	11.874035	0.000171	1.709973	0.579355	-0.000069
 867	8.6167e+01	5.4945	11.808861	0.000163	1.628546	0.551766	-0.000066
 868	8.6266e+01	5.4640	11.737168	0.000179	1.791400	0.606943	-0.000072
 869	8.6366e+01	5.4239	11.673623	0.000159	1.587832	0.537972	-0.000064
 870	8.6466e+01	5.3870	11.606411	0.000168	1.679438	0.569009	-0.000068
 871	8.6565e+01	5.3501	11.533090	0.000183	1.832114	0.620737	-0.000074
 872	8.6665e+01	5.3020	11.465878	0.000168	1.679438	0.569009	-0.000068
 873	8.6764e+01	5.2843	11.403555	0.000156	1.557297	0.527626	-0.000063
 874	8.6864e+01	5.2314	11.330233	0.000183	1.832114	0.620737	-0.000074
 875	8.6963e+01	5.1753	11.261392	0.000172	1.720151	0.582803	-0.000069
 876	8.7063e+01	5.1464	11.193773	0.000169	1.689616	0.572457	-0.000068
 877	8.7162e+01	5.0934	11.121674	0.000180	1.801579	0.610391	-0.000072
 878	8.7261e+01	5.0630	11.057314	0.000161	1.608189	0.544869	-0.000065
 879	8.7361e+01	5.0485	10.986029	0.000178	1.781222	0.603494	-0.000072
 880	8.7460e+01	4.9747	10.919632	0.000166	1.659081	0.562112	-0.000067
 881	8.7560e+01	4.9458	10.849569	0.000175	1.750687	0.593149	-0.000070
 882	8.7659e+01	4.8945	10.784394	0.000163	1.628546	0.551766	-0.000066
 883	8.7759e+01	4.8640	10.708628	0.000189	1.893184	0.641428	-0.000076
 884	8.7859e+01	4.8384	10.640195	0.000171	1.709973	0.579355	-0.000069
 885	8.7958e+01	4.7886	10.568910	0.000178	1.781222	0.603494	-0.000072
 886	8.8058e+01	4.7469	10.498847	0.000175	1.750687	0.593149	-0.000070
 887	8.8157e+01	4.7052	10.430413	0.000171	1.709973	0.579355	-0.000069
 888	8.8257e+01	4.6683	10.359943	0.000176	1.760865	0.596597	-0.000071
 889	8.8356e+01	4.6266	10.290695	0.000173	1.730330	0.586252	-0.000070
 890	8.8456e+01	4.5929	10.220632	0.000175	1.750687	0.593149	-0.000070
 891	8.8555e+01	4.5464	10.147718	0.000182	1.821936	0.617288	-0.000073
 892	8.8654e+01	4.4967	10.083358	0.000161	1.608189	0.544869	-0.000065
 893	8.8754e+01	4.4710	10.011258	0.000180	1.801579	0.610391	-0.000072
 894	8.8853e+01	4.4421	9.941602	0.000174	1.740508	0.589700	-0.000070
 895	8.8953e+01	4.4052	9.869910	0.000179	1.791400	0.606943	-0.000072
 896	8.9052e+01	4.3491	9.799847	0.000175	1.750687	0.593149	-0.000070
 897	8.9152e+01	4.3170	9.724489	0.000188	1.883006	0.637980	-0.000076
 898	8.9251e+01	4.2673	9.653611	0.000177	1.771044	0.600046	-0.000071
 899	8.9351e+01	4.2191	9.579067	0.000186	1.862649	0.631083	-0.000075
 900	8.9451e+01	4.2015	9.507782	0.000178	1.781222	0.603494	-0.000072
 901	8.9550e+01	4.1550	9.434053	0.000184	1.842292	0.624186	-0.000074
 902	8.9650e+01	4.1036	9.361547	0.000181	1.811757	0.613840	-0.000073
 903	8.9749e+01	4.0603	9.290669	0.000177	1.771044	0.600046	-0.000071
 904	8.9849e+01	4.0250	9.213274	0.000193	1.933898	0.655222	-0.000078
 905	8.9948e+01	3.9865	9.144433	0.000172	1.720151	0.582803	-0.000069
 906	9.0047e+01	3.9480	9.069482	0.000187	1.872828	0.634531	-0.000075
 907	9.0147e+01	3.9256	8.997790	0.000179	1.791400	0.606943	-0.000072
 908	9.0246e+01	3.8662	8.921209	0.000191	1.913541	0.648325	-0.000077
 909	9.0346e+01	3.8470	8.849110	0.000180	1.801579	0.610391	-0.000072
 910	9.0445e+01	3.7780	8.774566	0.000186	1.862649	0.631083	-0.000075
 911	9.0545e+01	3.7443	8.704096	0.000176	1.760865	0.596597	-0.000071
 912	9.0644e+01	3.6865	8.627108	0.000192	1.923720	0.651774	-0.000077
 913	9.0744e+01	3.6641	8.555823	0.000178	1.781222	0.603494	-0.000072
 914	9.0844e+01	3.6448	8.480057	0.000189	1.893184	0.641428	-0.000076
 915	9.0943e+01	3.5887	8.406328	0.000184	1.842292	0.624186	-0.000074
 916	9.1043e+01	3.5502	8.330970	0.000188	1.883006	0.637980	-0.000076
 917	9.1142e+01	3.5149	8.256834	0.000185	1.852471	0.627634	-0.000075
 918	9.1242e+01	3.4619	8.181882	0.000187	1.872828	0.634531	-0.000075
 919	9.1341e+01	3.4347	8.107746	0.000185	1.852471	0.627634	-0.000075
 920	9.1441e+01	3.3881	8.035239	0.000181	1.811757	0.613840	-0.000073
 921	9.1540e+01	3.3577	7.960288	0.000187	1.872828	0.634531	-0.000075
 922	9.1639e+01	3.3015	7.886966	0.000183	1.832114	0.620737	-0.000074
 923	9.1739e+01	3.2839	7.821384	0.000164	1.638724	0.555215	-0.000066
 924	9.1838e+01	3.2550	7.741545	0.000199	1.994969	0.675914	-0.000080
 925	9.1938e+01	3.1812	7.669446	0.000180	1.801579	0.610391	-0.000072
 926	9.2037e+01	3.1668	7.594087	0.000188	1.883006	0.637980	-0.000076
 927	9.2137e+01	3.1106	7.516285	0.000194	1.944076	0.658671	-0.000078
 928	9.2237e+01	3.0881	7.444185	0.000180	1.801579	0.610391	-0.000072
 929	9.2336e+01	3.0480	7.363124	0.000203	2.025504	0.686259	-0.000081
 930	9.2436e+01	2.9775	7.291024	0.000180	1.801579	0.610391	-0.000072
 931	9.2535e+01	2.9566	7.214037	0.000192	1.923720	0.651774	-0.000077
 932	9.2635e+01	2.9069	7.139493	0.000186	1.862649	0.631083	-0.000075
 933	9.2734e+01	2.8620	7.060876	0.000196	1.964433	0.665568	-0.000079
 934	9.2834e+01	2.8331	6.982666	0.000195	1.954255	0.662119	-0.000079
 935	9.2933e+01	2.8010	6.906086	0.000191	1.913541	0.648325	-0.000077
 936	9.3032e+01	2.7545	6.831135	0.000187	1.872828	0.634531	-0.000075
 937	9.3132e+01	2.7320	6.751295	0.000199	1.994969	0.675914	-0.000080
 938	9.3231e+01	2.6823	6.671864	0.000198	1.984790	0.672465	-0.000080
 939	9.3331e+01	2.6229	6.597727	0.000185	1.852471	0.627634	-0.000075
 940	9.3430e+01	2.5844	6.516666	0.000203	2.025504	0.686259	-0.000081
 941	9.3530e+01	2.5363	6.434383	0.000206	2.056039	0.696605	-0.000083
 942	9.3629e+01	2.5186	6.357803	0.000191	1.913541	0.648325	-0.000077
 943	9.3729e+01	2.4449	6.272261	0.000214	2.137466	0.724193	-0.000086
 944	9.3829e+01	2.4545	6.194051	-0.000195	-1.954255	-0.662119	-0.000079
 945	9.3928e+01	2.4112	6.113804	0.000201	2.005147	0.679362	-0.000081
 946	9.4028e+01	2.3678	6.034373	0.000198	1.984790	0.672465	-0.000080
 947	9.4127e+01	2.3181	5.949238	0.000213	2.127288	0.720745	-0.000086
 948	9.4227e+01	2.2780	5.873880	0.000188	1.883006	0.637980	-0.000076
 949	9.4326e+01	2.2523	5.788745	0.000213	2.127288	0.720745	-0.000086
 950	9.4425e+01	2.1962	5.708499	0.000201	2.005147	0.679362	-0.000081
 951	9.4525e+01	2.1497	5.627030	0.000204	2.035682	0.689708	-0.000082
 952	9.4624e+01	2.1224	5.545561	0.000204	2.035682	0.689708	-0.000082
 953	9.4724e+01	2.0855	5.464908	0.000202	2.015325	0.682811	-0.000081
 954	9.4823e+01	2.0229	5.383847	0.000203	2.025504	0.686259	-0.000081
 955	9.4923e+01	1.9780	5.308488	0.000188	1.883006	0.637980	-0.000076
 956	9.5022e+01	1.9556	5.222539	0.000215	2.147645	0.727642	-0.000086
 957	9.5122e+01	1.9122	5.145958	0.000191	1.913541	0.648325	-0.000077
 958	9.5222e+01	1.8882	5.062453	0.000209	2.086574	0.706950	-0.000084
 959	9.5321e+01	1.8240	4.982207	0.000201	2.005147	0.679362	-0.000081
 960	9.5421e+01	1.8144	4.901960	0.000201	2.005147	0.679362	-0.000081
 961	9.5520e+01	1.7550	4.818455	0.000209	2.086574	0.706950	-0.000084
 962	9.5620e+01	1.7310	4.740653	0.000194	1.944076	0.658671	-0.000078
 963	9.5719e+01	1.6732	4.657555	0.000208	2.076396	0.703502	-0.000084
 964	9.5819e+01	1.6459	4.578530	0.000197	1.974612	0.669017	-0.000079
 965	9.5918e+01	1.6058	4.492174	0.000216	2.157823	0.731090	-0.000087
 966	9.6017e+01	1.5609	4.413964	0.000195	1.954255	0.662119	-0.000079
 967	9.6117e+01	1.5144	4.330459	0.000209	2.086574	0.706950	-0.000084
 968	9.6216e+01	1.4454	4.246953	0.000209	2.086574	0.706950	-0.000084
 969	9.6316e+01	1.4454	4.167114	0.000199	1.994969	0.675914	-0.000080
 970	9.6415e+01	1.3989	4.084016	0.000208	2.076396	0.703502	-0.000084
 971	9.6515e+01	1.3652	4.003363	0.000202	2.015325	0.682811	-0.000081
 972	9.6615e+01	1.3203	3.915784	0.000219	2.188358	0.741436	-0.000088
 973	9.6714e+01	1.2754	3.836759	0.000197	1.974612	0.669017	-0.000079
 974	9.6814e+01	1.2385	3.749181	0.000219	2.188358	0.741436	-0.000088
 975	9.6913e+01	1.2080	3.667712	0.000204	2.035682	0.689708	-0.000082
 976	9.7013e+01	1.1663	3.582170	0.000214	2.137466	0.724193	-0.000086
 977	9.7112e+01	1.1246	3.496628	0.000214	2.137466	0.724193	-0.000086
 978	9.7212e+01	1.0829	3.412716	0.000210	2.096753	0.710399	-0.000084
 979	9.7311e+01	1.0219	3.328803	0.000210	2.096753	0.710399	-0.000084
 980	9.7410e+01	1.0059	3.248964	0.000199	1.994969	0.675914	-0.000080
 981	9.7510e+01	0.9545	3.160164	0.000222	2.218894	0.751782	-0.000089
 982	9.7609e+01	0.9417	3.079917	0.000201	2.005147	0.679362	-0.000081
 983	9.7709e+01	0.8968	2.998856	0.000203	2.025504	0.686259	-0.000081
 984	9.7808e+01	0.8326	2.912907	0.000215	2.147645	0.727642	-0.000086
 985	9.7908e+01	0.7925	2.828587	0.000211	2.106931	0.713848	-0.000085
 986	9.8007e+01	0.7716	2.745081	0.000209	2.086574	0.706950	-0.000084
 987	9.8107e+01	0.7379	2.657910	0.000218	2.178180	0.737987	-0.000088
 988	9.8207e+01	0.6754	2.574812	0.000208	2.076396	0.703502	-0.000084
 989	9.8306e+01	0.6722	2.490492	0.000211	2.106931	0.713848	-0.000085
 990	9.8406e+01	0.6112	2.407802	0.000207	2.066217	0.700053	-0.000083
 991	9.8505e+01	0.5711	2.319408	0.000221	2.208715	0.748333	-0.000089
 992	9.8605e+01	0.5101	2.239977	0.000198	1.984790	0.672465	-0.000080
 993	9.8704e+01	0.4781	2.154435	0.000214	2.137466	0.724193	-0.000086
 994	9.8803e+01	0.4331	2.067671	0.000217	2.168002	0.734539	-0.000087
 995	9.8903e+01	0.4155	1.981722	0.000215	2.147645	0.727642	-0.000086
 996	9.9002e+01	0.3593	1.898216	0.000209	2.086574	0.706950	-0.000084
 997	9.9102e+01	0.3273	1.811045	0.000218	2.178180	0.737987	-0.000088
 998	9.9201e+01	0.2968	1.727947	0.000208	2.076396	0.703502	-0.000084
 999	9.9301e+01	0.2535	1.638739	0.000223	2.229072	0.755230	-0.000090
1000	9.9400e+01	0.2166	1.560529	0.000195	1.954255	0.662119	-0.000079
1001	9.9500e+01	0.1524	1.470507	0.000225	2.249429	0.762127	-0.000090
1002	9.9600e+01	0.1299	1.380077	0.000226	2.259607	0.765576	-0.000091
1003	9.9699e+01	0.0882	1.299423	0.000202	2.015325	0.682811	-0.000081
1004	9.9799e+01	0.0513	1.208993	0.000226	2.259607	0.765576	-0.000091
1005	9.9898e+01	-0.0016	1.139744	0.000173	1.730330	0.586252	-0.000070
1006	9.9998e+01	-0.0176	1.050944	0.000222	2.218894	0.751782	-0.000089
1007	1.0010e+02	-0.0658	0.964180	0.000217	2.168002	0.734539	-0.000087
1008	1.0020e+02	-0.1107	0.876601	0.000219	2.188358	0.741436	-0.000088
1009	1.0030e+02	-0.1460	0.788615	0.000220	2.198537	0.744884	-0.000088
1010	1.0040e+02	-0.1909	0.705110	0.000209	2.086574	0.706950	-0.000084
1011	1.0050e+02	-0.2150	0.615495	0.000224	2.239250	0.758679	-0.000090
1012	1.0059e+02	-0.2711	0.527916	0.000219	2.188358	0.741436	-0.000088
1013	1.0069e+02	-0.2856	0.441152	0.000217	2.168002	0.734539	-0.000087
1014	1.0079e+02	-0.3465	0.358461	0.000207	2.066217	0.700053	-0.000083
1015	1.0089e+02	-0.3995	0.271290	0.000218	2.178180	0.737987	-0.000088
1016	1.0099e+02	-0.4315	0.186156	0.000213	2.127288	0.720745	-0.000086
1017	1.0109e+02	-0.4732	0.098170	0.000220	2.198537	0.744884	-0.000088
1018	1.0119e+02	-0.5230	0.010998	0.000218	2.178180	0.737987	-0.000088
1019	1.0129e+02	-0.5390	-0.070063	0.000203	2.025504	0.686259	-0.000081
1020	1.0139e+02	-0.5984	-0.157642	0.000219	2.188358	0.741436	-0.000088
1021	1.0149e+02	-0.6321	-0.243998	0.000216	2.157823	0.731090	-0.000087
1022	1.0159e+02	-0.6577	-0.332799	0.000222	2.218894	0.751782	-0.000089
1023	1.0169e+02	-0.6898	-0.414675	0.000205	2.045861	0.693156	-0.000082
1024	1.0179e+02	-0.7347	-0.499402	0.000212	2.117109	0.717296	-0.000085
1025	1.0189e+02	-0.7845	-0.586166	0.000217	2.168002	0.734539	-0.000087
1026	1.0199e+02	-0.8342	-0.672523	0.000216	2.157823	0.731090	-0.000087
1027	1.0209e+02	-0.8711	-0.755213	0.000207	2.066217	0.700053	-0.000083
1028	1.0219e+02	-0.9016	-0.837496	0.000206	2.056039	0.696605	-0.000083
1029	1.0229e+02	-0.9529	-0.922631	0.000213	2.127288	0.720745	-0.000086
1030	1.0239e+02	-0.9930	-1.005321	0.000207	2.066217	0.700053	-0.000083
1031	1.0248e+02	-1.0219	-1.090049	0.000212	2.117109	0.717296	-0.000085
1032	1.0258e+02	-1.0684	-1.174369	0.000211	2.106931	0.713848	-0.000085
1033	1.0268e+02	-1.0973	-1.261540	0.000218	2.178180	0.737987	-0.000088
1034	1.0278e+02	-1.1695	-1.346674	0.000213	2.127288	0.720745	-0.000086
1035	1.0288e+02	-1.1968	-1.430994	0.000211	2.106931	0.713848	-0.000085
1036	1.0298e+02	-1.2064	-1.511241	0.000201	2.005147	0.679362	-0.000081
1037	1.0308e+02	-1.2850	-1.600042	0.000222	2.218894	0.751782	-0.000089
1038	1.0318e+02	-1.3074	-1.685991	0.000215	2.147645	0.727642	-0.000086
1039	1.0328e+02	-1.3572	-1.769903	0.000210	2.096753	0.710399	-0.000084
1040	1.0338e+02	-1.3845	-1.854223	0.000211	2.106931	0.713848	-0.000085
1041	1.0348e+02	-1.4085	-1.941802	0.000219	2.188358	0.741436	-0.000088
1042	1.0358e+02	-1.4743	-2.023270	0.000204	2.035682	0.689708	-0.000082
1043	1.0368e+02	-1.5080	-2.109627	0.000216	2.157823	0.731090	-0.000087
1044	1.0378e+02	-1.5513	-2.197613	0.000220	2.198537	0.744884	-0.000088
1045	1.0388e+02	-1.5738	-2.272157	0.000186	1.862649	0.631083	-0.000075
1046	1.0398e+02	-1.6235	-2.361365	0.000223	2.229072	0.755230	-0.000090
1047	1.0408e+02	-1.6684	-2.448943	0.000219	2.188358	0.741436	-0.000088
1048	1.0418e+02	-1.7085	-2.530005	0.000203	2.025504	0.686259	-0.000081
1049	1.0428e+02	-1.7486	-2.612695	0.000207	2.066217	0.700053	-0.000083
1050	1.0438e+02	-1.7935	-2.700681	0.000220	2.198537	0.744884	-0.000088
1051	1.0447e+02	-1.8240	-2.784186	0.000209	2.086574	0.706950	-0.000084
1052	1.0457e+02	-1.8593	-2.867284	0.000208	2.076396	0.703502	-0.000084
1053	1.0467e+02	-1.9090	-2.957714	0.000226	2.259607	0.765576	-0.000091
1054	1.0477e+02	-1.9251	-3.036739	0.000197	1.974612	0.669017	-0.000079
1055	1.0487e+02	-1.9844	-3.123503	0.000217	2.168002	0.734539	-0.000087
1056	1.0497e+02	-2.0438	-3.203749	0.000201	2.005147	0.679362	-0.000081
1057	1.0507e+02	-2.0550	-3.289698	0.000215	2.147645	0.727642	-0.000086
1058	1.0517e+02	-2.0887	-3.371574	0.000205	2.045861	0.693156	-0.000082
1059	1.0527e+02	-2.1465	-3.451006	0.000198	1.984790	0.672465	-0.000080
1060	1.0537e+02	-2.1946	-3.542658	0.000229	2.290142	0.775921	-0.000092
1061	1.0547e+02	-2.2235	-3.620461	0.000194	1.944076	0.658671	-0.000078
1062	1.0557e+02	-2.2572	-3.704373	0.000210	2.096753	0.710399	-0.000084
1063	1.0567e+02	-2.3053	-3.782176	0.000194	1.944076	0.658671	-0.000078
1064	1.0577e+02	-2.3470	-3.867310	0.000213	2.127288	0.720745	-0.000086
1065	1.0587e+02	-2.3598	-3.951223	0.000210	2.096753	0.710399	-0.000084
1066	1.0597e+02	-2.4096	-4.034321	0.000208	2.076396	0.703502	-0.000084
1067	1.0607e+02	-2.4497	-4.112530	0.000195	1.954255	0.662119	-0.000079
1068	1.0617e+02	-2.4817	-4.198887	0.000216	2.157823	0.731090	-0.000087
1069	1.0627e+02	-2.5491	-4.277911	0.000197	1.974612	0.669017	-0.000079
1070	1.0637e+02	-2.5828	-4.364675	0.000217	2.168002	0.734539	-0.000087
1071	1.0647e+02	-2.6325	-4.442885	0.000195	1.954255	0.662119	-0.000079
1072	1.0656e+02	-2.6662	-4.526390	0.000209	2.086574	0.706950	-0.000084
1073	1.0666e+02	-2.6999	-4.607044	0.000202	2.015325	0.682811	-0.000081
1074	1.0676e+02	-2.7545	-4.688513	0.000204	2.035682	0.689708	-0.000082
1075	1.0686e+02	-2.7817	-4.768759	0.000201	2.005147	0.679362	-0.000081
1076	1.0696e+02	-2.8234	-4.851042	0.000206	2.056039	0.696605	-0.000083
1077	1.0706e+02	-2.8668	-4.928845	0.000194	1.944076	0.658671	-0.000078
1078	1.0716e+02	-2.8716	-5.017646	0.000222	2.218894	0.751782	-0.000089
1079	1.0726e+02	-2.9277	-5.097485	0.000199	1.994969	0.675914	-0.000080
1080	1.0736e+02	-2.9871	-5.175694	0.000195	1.954255	0.662119	-0.000079
1081	1.0746e+02	-3.0320	-5.254312	0.000196	1.964433	0.665568	-0.000079
1082	1.0756e+02	-3.0609	-5.339446	0.000213	2.127288	0.720745	-0.000086
1083	1.0766e+02	-3.1042	-5.417249	0.000194	1.944076	0.658671	-0.000078
1084	1.0776e+02	-3.1283	-5.494236	0.000192	1.923720	0.651774	-0.000077
1085	1.0786e+02	-3.1732	-5.575705	0.000204	2.035682	0.689708	-0.000082
1086	1.0796e+02	-3.2229	-5.651471	0.000189	1.893184	0.641428	-0.000076
1087	1.0806e+02	-3.2534	-5.730902	0.000198	1.984790	0.672465	-0.000080
1088	1.0816e+02	-3.2807	-5.808705	0.000194	1.944076	0.658671	-0.000078
1089	1.0826e+02	-3.3320	-5.884063	0.000188	1.883006	0.637980	-0.000076
1090	1.0836e+02	-3.3913	-5.958607	0.000186	1.862649	0.631083	-0.000075
1091	1.0845e+02	-3.4218	-6.035187	0.000191	1.913541	0.648325	-0.000077
1092	1.0855e+02	-3.4603	-6.112990	0.000194	1.944076	0.658671	-0.000078
1093	1.0865e+02	-3.4988	-6.189570	0.000191	1.913541	0.648325	-0.000077
1094	1.0875e+02	-3.5181	-6.264928	0.000188	1.883006	0.637980	-0.000076
1095	1.0885e+02	-3.5774	-6.344360	0.000198	1.984790	0.672465	-0.000080
1096	1.0895e+02	-3.6224	-6.420533	0.000190	1.903363	0.644877	-0.000077
1097	1.0905e+02	-3.6400	-6.499965	0.000198	1.984790	0.672465	-0.000080
1098	1.0915e+02	-3.6929	-6.574101	0.000185	1.852471	0.627634	-0.000075
1099	1.0925e+02	-3.7363	-6.650274	0.000190	1.903363	0.644877	-0.000077
1100	1.0935e+02	-3.7635	-6.726040	0.000189	1.893184	0.641428	-0.000076
1101	1.0945e+02	-3.8213	-6.807509	0.000204	2.035682	0.689708	-0.000082
1102	1.0955e+02	-3.8566	-6.879201	0.000179	1.791400	0.606943	-0.000072
1103	1.0965e+02	-3.8919	-6.956596	0.000193	1.933898	0.655222	-0.000078
1104	1.0975e+02	-3.9047	-7.042138	0.000214	2.137466	0.724193	-0.000086
1105	1.0985e+02	-3.9673	-7.111386	0.000173	1.730330	0.586252	-0.000070
1106	1.0995e+02	-4.0170	-7.191225	0.000199	1.994969	0.675914	-0.000080
1107	1.1005e+02	-4.0731	-7.263732	0.000181	1.811757	0.613840	-0.000073
1108	1.1015e+02	-4.0860	-7.346423	0.000207	2.066217	0.700053	-0.000083
1109	1.1025e+02	-4.1133	-7.421781	0.000188	1.883006	0.637980	-0.000076
1110	1.1035e+02	-4.1758	-7.499584	0.000194	1.944076	0.658671	-0.000078
1111	1.1044e+02	-4.2079	-7.574942	0.000188	1.883006	0.637980	-0.000076
1112	1.1054e+02	-4.2624	-7.654374	0.000198	1.984790	0.672465	-0.000080
1113	1.1064e+02	-4.2913	-7.730140	0.000189	1.893184	0.641428	-0.000076
1114	1.1074e+02	-4.3362	-7.807535	0.000193	1.933898	0.655222	-0.000078
1115	1.1084e+02	-4.3523	-7.879634	0.000180	1.801579	0.610391	-0.000072
1116	1.1094e+02	-4.4293	-7.960288	0.000202	2.015325	0.682811	-0.000081
1117	1.1104e+02	-4.4566	-8.037276	0.000192	1.923720	0.651774	-0.000077
1118	1.1114e+02	-4.4902	-8.111005	0.000184	1.842292	0.624186	-0.000074
1119	1.1124e+02	-4.5320	-8.184327	0.000183	1.832114	0.620737	-0.000074
1120	1.1134e+02	-4.5624	-8.256834	0.000181	1.811757	0.613840	-0.000073
1121	1.1144e+02	-4.6138	-8.331377	0.000186	1.862649	0.631083	-0.000075
1122	1.1154e+02	-4.6475	-8.406736	0.000188	1.883006	0.637980	-0.000076
1123	1.1164e+02	-4.7020	-8.480057	0.000183	1.832114	0.620737	-0.000074
1124	1.1174e+02	-4.7373	-8.556230	0.000190	1.903363	0.644877	-0.000077
1125	1.1184e+02	-4.7614	-8.626701	0.000176	1.760865	0.596597	-0.000071
1126	1.1194e+02	-4.8159	-8.700837	0.000185	1.852471	0.627634	-0.000075
1127	1.1204e+02	-4.8624	-8.777825	0.000192	1.923720	0.651774	-0.000077
1128	1.1214e+02	-4.9025	-8.849110	0.000178	1.781222	0.603494	-0.000072
1129	1.1224e+02	-4.9330	-8.922431	0.000183	1.832114	0.620737	-0.000074
1130	1.1234e+02	-4.9924	-8.989235	0.000167	1.669259	0.565560	-0.000067
1131	1.1244e+02	-5.0212	-9.068667	0.000198	1.984790	0.672465	-0.000080
1132	1.1253e+02	-5.0598	-9.143618	0.000187	1.872828	0.634531	-0.000075
1133	1.1263e+02	-5.0999	-9.205127	0.000154	1.536940	0.520729	-0.000062
1134	1.1273e+02	-5.1271	-9.282929	0.000194	1.944076	0.658671	-0.000078
1135	1.1283e+02	-5.1496	-9.352992	0.000175	1.750687	0.593149	-0.000070
1136	1.1293e+02	-5.2154	-9.423055	0.000175	1.750687	0.593149	-0.000070
1137	1.1303e+02	-5.2587	-9.493526	0.000176	1.760865	0.596597	-0.000071
1138	1.1313e+02	-5.2940	-9.565218	0.000179	1.791400	0.606943	-0.000072
1139	1.1323e+02	-5.3421	-9.637317	0.000180	1.801579	0.610391	-0.000072
1140	1.1333e+02	-5.3790	-9.711046	0.000184	1.842292	0.624186	-0.000074
1141	1.1343e+02	-5.4191	-9.784368	0.000183	1.832114	0.620737	-0.000074
1142	1.1353e+02	-5.4512	-9.848728	0.000161	1.608189	0.544869	-0.000065
1143	1.1363e+02	-5.5057	-9.924494	0.000189	1.893184	0.641428	-0.000076
1144	1.1373e+02	-5.5121	-9.998630	0.000185	1.852471	0.627634	-0.000075
1145	1.1383e+02	-5.5875	-10.065027	0.000166	1.659081	0.562112	-0.000067
1146	1.1393e+02	-5.6148	-10.135497	0.000176	1.760865	0.596597	-0.000071
1147	1.1403e+02	-5.6389	-10.208819	0.000183	1.832114	0.620737	-0.000074
1148	1.1413e+02	-5.6918	-10.276031	0.000168	1.679438	0.569009	-0.000068
1149	1.1423e+02	-5.7271	-10.347723	0.000179	1.791400	0.606943	-0.000072
1150	1.1433e+02	-5.7849	-10.415749	0.000170	1.699795	0.575906	-0.000068
1151	1.1442e+02	-5.8041	-10.485812	0.000175	1.750687	0.593149	-0.000070
1152	1.1452e+02	-5.8410	-10.551801	0.000165	1.648903	0.558663	-0.000066
1153	1.1462e+02	-5.9084	-10.621864	0.000175	1.750687	0.593149	-0.000070
1154	1.1472e+02	-5.9212	-10.693149	0.000178	1.781222	0.603494	-0.000072
1155	1.1482e+02	-5.9597	-10.760361	0.000168	1.679438	0.569009	-0.000068
1156	1.1492e+02	-6.0046	-10.827980	0.000169	1.689616	0.572457	-0.000068
1157	1.1502e+02	-6.0496	-10.897228	0.000173	1.730330	0.586252	-0.000070
1158	1.1512e+02	-6.0784	-10.963217	0.000165	1.648903	0.558663	-0.000066
1159	1.1522e+02	-6.1346	-11.032466	0.000173	1.730330	0.586252	-0.000070
1160	1.1532e+02	-6.1779	-11.104565	0.000180	1.801579	0.610391	-0.000072
1161	1.1542e+02	-6.2036	-11.171777	0.000168	1.679438	0.569009	-0.000068
1162	1.1552e+02	-6.2340	-11.238174	0.000166	1.659081	0.562112	-0.000067
1163	1.1562e+02	-6.3014	-11.304978	0.000167	1.669259	0.565560	-0.000067
1164	1.1572e+02	-6.3431	-11.374633	0.000174	1.740508	0.589700	-0.000070
1165	1.1582e+02	-6.3672	-11.436957	0.000156	1.557297	0.527626	-0.000063
1166	1.1592e+02	-6.4041	-11.504983	0.000170	1.699795	0.575906	-0.000068
1167	1.1602e+02	-6.4538	-11.570565	0.000164	1.638724	0.555215	-0.000066
1168	1.1612e+02	-6.4651	-11.633703	0.000158	1.577654	0.534524	-0.000063
1169	1.1622e+02	-6.5244	-11.704174	0.000176	1.760865	0.596597	-0.000071
1170	1.1632e+02	-6.5629	-11.773014	0.000172	1.720151	0.582803	-0.000069
1171	1.1642e+02	-6.5918	-11.840633	0.000169	1.689616	0.572457	-0.000068
1172	1.1651e+02	-6.6447	-11.910289	0.000174	1.740508	0.589700	-0.000070
1173	1.1661e+02	-6.6688	-11.972612	0.000156	1.557297	0.527626	-0.000063
1174	1.1671e+02	-6.7282	-12.044305	0.000179	1.791400	0.606943	-0.000072
1175	1.1681e+02	-6.7538	-12.113960	0.000174	1.740508	0.589700	-0.000070
1176	1.1691e+02	-6.8003	-12.180357	0.000166	1.659081	0.562112	-0.000067
1177	1.1701e+02	-6.8292	-12.241051	0.000152	1.516583	0.513832	-0.000061
1178	1.1711e+02	-6.8741	-12.313558	0.000181	1.811757	0.613840	-0.000073
1179	1.1721e+02	-6.9271	-12.377918	0.000161	1.608189	0.544869	-0.000065
1180	1.1731e+02	-6.9736	-12.448388	0.000176	1.760865	0.596597	-0.000071
1181	1.1741e+02	-7.0185	-12.514785	0.000166	1.659081	0.562112	-0.000067
1182	1.1751e+02	-7.0362	-12.578738	0.000160	1.598011	0.541421	-0.000064
1183	1.1761e+02	-7.0682	-12.647579	0.000172	1.720151	0.582803	-0.000069
1184	1.1771e+02	-7.1276	-12.711532	0.000160	1.598011	0.541421	-0.000064
1185	1.1781e+02	-7.1565	-12.778336	0.000167	1.669259	0.565560	-0.000067
1186	1.1791e+02	-7.2110	-12.838623	0.000151	1.506405	0.510384	-0.000061
1187	1.1801e+02	-7.2158	-12.905427	0.000167	1.669259	0.565560	-0.000067
1188	1.1811e+02	-7.2928	-12.969379	0.000160	1.598011	0.541421	-0.000064
1189	1.1821e+02	-7.3169	-13.035776	0.000166	1.659081	0.562112	-0.000067
1190	1.1831e+02	-7.3731	-13.094841	0.000148	1.475870	0.500038	-0.000059
1191	1.1841e+02	-7.4051	-13.162053	0.000168	1.679438	0.569009	-0.000068
1192	1.1850e+02	-7.4372	-13.226005	0.000160	1.598011	0.541421	-0.000064
1193	1.1860e+02	-7.4629	-13.287921	0.000155	1.547118	0.524178	-0.000062
1194	1.1870e+02	-7.5094	-13.350652	0.000157	1.567475	0.531075	-0.000063
1195	1.1880e+02	-7.5832	-13.410531	0.000150	1.496226	0.506935	-0.000060
1196	1.1890e+02	-7.5864	-13.474077	0.000159	1.587832	0.537972	-0.000064
1197	1.1900e+02	-7.6474	-13.534364	0.000151	1.506405	0.510384	-0.000061
1198	1.1910e+02	-7.6939	-13.599946	0.000164	1.638724	0.555215	-0.000066
1199	1.1920e+02	-7.7083	-13.655344	0.000138	1.384264	0.469001	-0.000056
1200	1.1930e+02	-7.7260	-13.720927	0.000164	1.638724	0.555215	-0.000066
1201	1.1940e+02	-7.7902	-13.781621	0.000152	1.516583	0.513832	-0.000061
1202	1.1950e+02	-7.8351	-13.844351	0.000157	1.567475	0.531075	-0.000063
1203	1.1960e+02	-7.8768	-13.904638	0.000151	1.506405	0.510384	-0.000061
1204	1.1970e+02	-7.8784	-13.967369	0.000157	1.567475	0.531075	-0.000063
1205	1.1980e+02	-7.9506	-14.033358	0.000165	1.648903	0.558663	-0.000066
1206	1.1990e+02	-8.0051	-14.094052	0.000152	1.516583	0.513832	-0.000061
1207	1.2000e+02	-8.0372	-14.156783	0.000157	1.567475	0.531075	-0.000063
1208	1.2010e+02	-8.0661	-14.219106	0.000156	1.557297	0.527626	-0.000063
1209	1.2020e+02	-8.1222	-14.280615	0.000154	1.536940	0.520729	-0.000062
1210	1.2030e+02	-8.1527	-14.347419	0.000167	1.669259	0.565560	-0.000067
1211	1.2039e+02	-8.2169	-14.403633	0.000140	1.404621	0.475898	-0.000056
1212	1.2049e+02	-8.2345	-14.465956	0.000156	1.557297	0.527626	-0.000063
1213	1.2059e+02	-8.2586	-14.532353	0.000166	1.659081	0.562112	-0.000067
1214	1.2069e+02	-8.3147	-14.593862	0.000154	1.536940	0.520729	-0.000062
1215	1.2079e+02	-8.3516	-14.651704	0.000145	1.445334	0.489693	-0.000058
1216	1.2089e+02	-8.3869	-14.713620	0.000155	1.547118	0.524178	-0.000062
1217	1.2099e+02	-8.4158	-14.776758	0.000158	1.577654	0.534524	-0.000063
1218	1.2109e+02	-8.4816	-14.838267	0.000154	1.536940	0.520729	-0.000062
1219	1.2119e+02	-8.5281	-14.903849	0.000164	1.638724	0.555215	-0.000066
1220	1.2129e+02	-8.5329	-14.962099	0.000146	1.455513	0.493141	-0.000059
1221	1.2139e+02	-8.5714	-15.024423	0.000156	1.557297	0.527626	-0.000063
1222	1.2149e+02	-8.6195	-15.086746	0.000156	1.557297	0.527626	-0.000063
1223	1.2159e+02	-8.6725	-15.142959	0.000140	1.404621	0.475898	-0.000056
1224	1.2169e+02	-8.6949	-15.205690	0.000157	1.567475	0.531075	-0.000063
1225	1.2179e+02	-8.7479	-15.262718	0.000142	1.424978	0.482795	-0.000057
1226	1.2189e+02	-8.8040	-15.324634	0.000155	1.547118	0.524178	-0.000062
1227	1.2199e+02	-8.8137	-15.382884	0.000146	1.455513	0.493141	-0.000059
1228	1.2209e+02	-8.8842	-15.446022	0.000158	1.577654	0.534524	-0.000063
1229	1.2219e+02	-8.9308	-15.503865	0.000145	1.445334	0.489693	-0.000058
1230	1.2229e+02	-8.9516	-15.567003	0.000158	1.577654	0.534524	-0.000063
1231	1.2239e+02	-8.9709	-15.626475	0.000149	1.486048	0.503487	-0.000060
1232	1.2248e+02	-9.0158	-15.688798	0.000156	1.557297	0.527626	-0.000063
1233	1.2258e+02	-9.0415	-15.747456	0.000147	1.465691	0.496590	-0.000059
1234	1.2268e+02	-9.1153	-15.807742	0.000151	1.506405	0.510384	-0.000061
1235	1.2278e+02	-9.1505	-15.870880	0.000158	1.577654	0.534524	-0.000063
1236	1.2288e+02	-9.1987	-15.928316	0.000144	1.435156	0.486244	-0.000058
1237	1.2298e+02	-9.2372	-15.989417	0.000153	1.526762	0.517281	-0.000061
1238	1.2308e+02	-9.2709	-16.052148	0.000157	1.567475	0.531075	-0.000063
1239	1.2318e+02	-9.2981	-16.114471	0.000156	1.557297	0.527626	-0.000063
1240	1.2328e+02	-9.3334	-16.170685	0.000140	1.404621	0.475898	-0.000056
1241	1.2338e+02	-9.3864	-16.227305	0.000141	1.414799	0.479347	-0.000057
1242	1.2348e+02	-9.4024	-16.289221	0.000155	1.547118	0.524178	-0.000062
1243	1.2358e+02	-9.4858	-16.348286	0.000148	1.475870	0.500038	-0.000059
1244	1.2368e+02	-9.4971	-16.407758	0.000149	1.486048	0.503487	-0.000060
1245	1.2378e+02	-9.5372	-16.463564	0.000139	1.394442	0.472450	-0.000056
1246	1.2388e+02	-9.5789	-16.528331	0.000162	1.618367	0.548318	-0.000065
1247	1.2398e+02	-9.6382	-16.587396	0.000148	1.475870	0.500038	-0.000059
1248	1.2408e+02	-9.6543	-16.644424	0.000142	1.424978	0.482795	-0.000057
1249	1.2418e+02	-9.7217	-16.704303	0.000150	1.496226	0.506935	-0.000060
1250	1.2428e+02	-9.7521	-16.764590	0.000151	1.506405	0.510384	-0.000061
1251	1.2438e+02	-9.7858	-16.822433	0.000145	1.445334	0.489693	-0.000058
1252	1.2447e+02	-9.8307	-16.879053	0.000141	1.414799	0.479347	-0.000057
1253	1.2457e+02	-9.8901	-16.941377	0.000156	1.557297	0.527626	-0.000063
1254	1.2467e+02	-9.9045	-16.997997	0.000141	1.414799	0.479347	-0.000057
1255	1.2477e+02	-9.9607	-17.055840	0.000145	1.445334	0.489693	-0.000058
1256	1.2487e+02	-9.9928	-17.104314	0.000121	1.211231	0.410376	-0.000049
1257	1.2497e+02	-10.0281	-17.164600	0.000151	1.506405	0.510384	-0.000061
1258	1.2507e+02	-10.0601	-17.224480	0.000150	1.496226	0.506935	-0.000060
1259	1.2517e+02	-10.1083	-17.280693	0.000140	1.404621	0.475898	-0.000056
1260	1.2527e+02	-10.1420	-17.339758	0.000148	1.475870	0.500038	-0.000059
1261	1.2537e+02	-10.1901	-17.393934	0.000135	1.353729	0.458656	-0.000054
1262	1.2547e+02	-10.2109	-17.455036	0.000153	1.526762	0.517281	-0.000061
1263	1.2557e+02	-10.2735	-17.510842	0.000139	1.394442	0.472450	-0.000056
1264	1.2567e+02	-10.3184	-17.563389	0.000131	1.313015	0.444862	-0.000053
1265	1.2577e+02	-10.3473	-17.618787	0.000138	1.384264	0.469001	-0.000056
1266	1.2587e+02	-10.3810	-17.682740	0.000160	1.598011	0.541421	-0.000064
1267	1.2597e+02	-10.4179	-17.735287	0.000131	1.313015	0.444862	-0.000053
1268	1.2607e+02	-10.4676	-17.792315	0.000142	1.424978	0.482795	-0.000057
1269	1.2617e+02	-10.5013	-17.846492	0.000135	1.353729	0.458656	-0.000054
1270	1.2627e+02	-10.5446	-17.911667	0.000163	1.628546	0.551766	-0.000066
1271	1.2636e+02	-10.5944	-17.967065	0.000138	1.384264	0.469001	-0.000056
1272	1.2646e+02	-10.6200	-18.026130	0.000148	1.475870	0.500038	-0.000059
1273	1.2656e+02	-10.6730	-18.086824	0.000152	1.516583	0.513832	-0.000061
1274	1.2666e+02	-10.7147	-18.145074	0.000146	1.455513	0.493141	-0.000059
1275	1.2676e+02	-10.7195	-18.202509	0.000144	1.435156	0.486244	-0.000058
1276	1.2686e+02	-10.8013	-18.260352	0.000145	1.445334	0.489693	-0.000058
1277	1.2696e+02	-10.8270	-18.316565	0.000140	1.404621	0.475898	-0.000056
1278	1.2706e+02	-10.8558	-18.373186	0.000141	1.414799	0.479347	-0.000057
1279	1.2716e+02	-10.9232	-18.431436	0.000146	1.455513	0.493141	-0.000059
1280	1.2726e+02	-10.9425	-18.492130	0.000152	1.516583	0.513832	-0.000061
1281	1.2736e+02	-10.9746	-18.548343	0.000140	1.404621	0.475898	-0.000056
1282	1.2746e+02	-11.0211	-18.609037	0.000152	1.516583	0.513832	-0.000061
1283	1.2756e+02	-11.0596	-18.670953	0.000155	1.547118	0.524178	-0.000062
1284	1.2766e+02	-11.0836	-18.727166	0.000140	1.404621	0.475898	-0.000056
1285	1.2776e+02	-11.1639	-18.787453	0.000151	1.506405	0.510384	-0.000061
1286	1.2786e+02	-11.1815	-18.842037	0.000136	1.363907	0.462104	-0.000055
1287	1.2796e+02	-11.2521	-18.897843	0.000139	1.394442	0.472450	-0.000056
1288	1.2806e+02	-11.2569	-18.954464	0.000141	1.414799	0.479347	-0.000057
1289	1.2816e+02	-11.3211	-19.011492	0.000142	1.424978	0.482795	-0.000057
1290	1.2826e+02	-11.3532	-19.066483	0.000137	1.374085	0.465553	-0.000055
1291	1.2835e+02	-11.3852	-19.125140	0.000147	1.465691	0.496590	-0.000059
1292	1.2845e+02	-11.4221	-19.179317	0.000135	1.353729	0.458656	-0.000054
1293	1.2855e+02	-11.4606	-19.235530	0.000140	1.404621	0.475898	-0.000056
1294	1.2865e+02	-11.5120	-19.290929	0.000138	1.384264	0.469001	-0.000056
1295	1.2875e+02	-11.5505	-19.354067	0.000158	1.577654	0.534524	-0.000063
1296	1.2885e+02	-11.5858	-19.404984	0.000127	1.272301	0.431067	-0.000051
1297	1.2895e+02	-11.6002	-19.461605	0.000141	1.414799	0.479347	-0.000057
1298	1.2905e+02	-11.6724	-19.516189	0.000136	1.363907	0.462104	-0.000055
1299	1.2915e+02	-11.7285	-19.573217	0.000142	1.424978	0.482795	-0.000057
1300	1.2925e+02	-11.7318	-19.629023	0.000139	1.394442	0.472450	-0.000056
1301	1.2935e+02	-11.7895	-19.677904	0.000122	1.221409	0.413825	-0.000049
1302	1.2945e+02	-11.8104	-19.739005	0.000153	1.526762	0.517281	-0.000061
1303	1.2955e+02	-11.8729	-19.795626	0.000141	1.414799	0.479347	-0.000057
1304	1.2965e+02	-11.9034	-19.846544	0.000127	1.272301	0.431067	-0.000051
1305	1.2975e+02	-11.9419	-19.903572	0.000142	1.424978	0.482795	-0.000057
1306	1.2985e+02	-11.9836	-19.959785	0.000140	1.404621	0.475898	-0.000056
1307	1.2995e+02	-12.0285	-20.018850	0.000148	1.475870	0.500038	-0.000059
1308	1.3005e+02	-12.0622	-20.073841	0.000137	1.374085	0.465553	-0.000055
1309	1.3015e+02	-12.0895	-20.131276	0.000144	1.435156	0.486244	-0.000058
1310	1.3025e+02	-12.1344	-20.184231	0.000132	1.323193	0.448310	-0.000053
1311	1.3034e+02	-12.1665	-20.234741	0.000126	1.262123	0.427619	-0.000051
1312	1.3044e+02	-12.2098	-20.296657	0.000155	1.547118	0.524178	-0.000062
1313	1.3054e+02	-12.2483	-20.348797	0.000130	1.302837	0.441413	-0.000052
1314	1.3064e+02	-12.3013	-20.405825	0.000142	1.424978	0.482795	-0.000057
1315	1.3074e+02	-12.3398	-20.462853	0.000142	1.424978	0.482795	-0.000057
1316	1.3084e+02	-12.3847	-20.515400	0.000131	1.313015	0.444862	-0.000053
1317	1.3094e+02	-12.4264	-20.565503	0.000125	1.251945	0.424170	-0.000050
1318	1.3104e+02	-12.4793	-20.622939	0.000144	1.435156	0.486244	-0.000058
1319	1.3114e+02	-12.5018	-20.677523	0.000136	1.363907	0.462104	-0.000055
1320	1.3124e+02	-12.5291	-20.727218	0.000124	1.241766	0.420722	-0.000050
1321	1.3134e+02	-12.5884	-20.781395	0.000135	1.353729	0.458656	-0.000054
1322	1.3144e+02	-12.5996	-20.837201	0.000139	1.394442	0.472450	-0.000056
1323	1.3154e+02	-12.6526	-20.889341	0.000130	1.302837	0.441413	-0.000052
1324	1.3164e+02	-12.7007	-20.947998	0.000147	1.465691	0.496590	-0.000059
1325	1.3174e+02	-12.7360	-21.000138	0.000130	1.302837	0.441413	-0.000052
1326	1.3184e+02	-12.7697	-21.052685	0.000131	1.313015	0.444862	-0.000053
1327	1.3194e+02	-12.8082	-21.104010	0.000128	1.282480	0.434516	-0.000052
1328	1.3204e+02	-12.8499	-21.159001	0.000137	1.374085	0.465553	-0.000055
1329	1.3214e+02	-12.8916	-21.215622	0.000141	1.414799	0.479347	-0.000057
1330	1.3224e+02	-12.9044	-21.266947	0.000128	1.282480	0.434516	-0.000052
1331	1.3234e+02	-12.9702	-21.315828	0.000122	1.221409	0.413825	-0.000049
1332	1.3243e+02	-13.0200	-21.371634	0.000139	1.394442	0.472450	-0.000056
1333	1.3253e+02	-13.0488	-21.424589	0.000132	1.323193	0.448310	-0.000053
1334	1.3263e+02	-13.0970	-21.478358	0.000134	1.343550	0.455207	-0.000054
1335	1.3273e+02	-13.1467	-21.532535	0.000135	1.353729	0.458656	-0.000054
1336	1.3283e+02	-13.1788	-21.588748	0.000140	1.404621	0.475898	-0.000056
1337	1.3293e+02	-13.2333	-21.639666	0.000127	1.272301	0.431067	-0.000051
1338	1.3303e+02	-13.2686	-21.693435	0.000134	1.343550	0.455207	-0.000054
1339	1.3313e+02	-13.2975	-21.749241	0.000139	1.394442	0.472450	-0.000056
1340	1.3323e+02	-13.3151	-21.799344	0.000125	1.251945	0.424170	-0.000050
1341	1.3333e+02	-13.3729	-21.856779	0.000144	1.435156	0.486244	-0.000058
1342	1.3343e+02	-13.4210	-21.916251	0.000149	1.486048	0.503487	-0.000060
1343	1.3353e+02	-13.4627	-21.970835	0.000136	1.363907	0.462104	-0.000055
1344	1.3363e+02	-13.4772	-22.021346	0.000126	1.262123	0.427619	-0.000051
1345	1.3373e+02	-13.5365	-22.074708	0.000133	1.333372	0.451759	-0.000054
1346	1.3383e+02	-13.5606	-22.130106	0.000138	1.384264	0.469001	-0.000056
1347	1.3393e+02	-13.6023	-22.184690	0.000136	1.363907	0.462104	-0.000055
1348	1.3403e+02	-13.6199	-22.235201	0.000126	1.262123	0.427619	-0.000051
1349	1.3413e+02	-13.6633	-22.293043	0.000145	1.445334	0.489693	-0.000058
1350	1.3423e+02	-13.7354	-22.343146	0.000125	1.251945	0.424170	-0.000050
1351	1.3432e+02	-13.8012	-22.399360	0.000140	1.404621	0.475898	-0.000056
1352	1.3442e+02	-13.8221	-22.448241	0.000122	1.221409	0.413825	-0.000049
1353	1.3452e+02	-13.8590	-22.502417	0.000135	1.353729	0.458656	-0.000054
1354	1.3462e+02	-13.9007	-22.550484	0.000120	1.201052	0.406928	-0.000048
1355	1.3472e+02	-13.9263	-22.607512	0.000142	1.424978	0.482795	-0.000057
1356	1.3482e+02	-13.9761	-22.656393	0.000122	1.221409	0.413825	-0.000049
1357	1.3492e+02	-14.0050	-22.708125	0.000129	1.292658	0.437964	-0.000052
1358	1.3502e+02	-14.0579	-22.754155	0.000115	1.150160	0.389685	-0.000046
1359	1.3512e+02	-14.0723	-22.809146	0.000137	1.374085	0.465553	-0.000055
1360	1.3522e+02	-14.1221	-22.861286	0.000130	1.302837	0.441413	-0.000052
1361	1.3532e+02	-14.1943	-22.910982	0.000124	1.241766	0.420722	-0.000050
1362	1.3542e+02	-14.2231	-22.957419	0.000116	1.160339	0.393133	-0.000047
1363	1.3552e+02	-14.2504	-23.010373	0.000132	1.323193	0.448310	-0.000053
1364	1.3562e+02	-14.2905	-23.060477	0.000125	1.251945	0.424170	-0.000050
1365	1.3572e+02	-14.3114	-23.107321	0.000117	1.170517	0.396582	-0.000047
1366	1.3582e+02	-14.3771	-23.160275	0.000132	1.323193	0.448310	-0.000053
1367	1.3592e+02	-14.3916	-23.207935	0.000119	1.190874	0.403479	-0.000048
1368	1.3602e+02	-14.4349	-23.257630	0.000124	1.241766	0.420722	-0.000050
1369	1.3612e+02	-14.4910	-23.311807	0.000135	1.353729	0.458656	-0.000054
1370	1.3622e+02	-14.5279	-23.362317	0.000126	1.262123	0.427619	-0.000051
1371	1.3631e+02	-14.5761	-23.407940	0.000114	1.139982	0.386236	-0.000046
1372	1.3641e+02	-14.6081	-23.458858	0.000127	1.272301	0.431067	-0.000051
1373	1.3651e+02	-14.6482	-23.512627	0.000134	1.343550	0.455207	-0.000054
1374	1.3661e+02	-14.6819	-23.559471	0.000117	1.170517	0.396582	-0.000047
1375	1.3671e+02	-14.7477	-23.612018	0.000131	1.313015	0.444862	-0.000053
1376	1.3681e+02	-14.7622	-23.666602	0.000136	1.363907	0.462104	-0.000055
1377	1.3691e+02	-14.8167	-23.714669	0.000120	1.201052	0.406928	-0.000048
1378	1.3701e+02	-14.8568	-23.769253	0.000136	1.363907	0.462104	-0.000055
1379	1.3711e+02	-14.9081	-23.816504	0.000118	1.180696	0.400031	-0.000047
1380	1.3721e+02	-14.9274	-23.869459	0.000132	1.323193	0.448310	-0.000053
1381	1.3731e+02	-14.9739	-23.919155	0.000124	1.241766	0.420722	-0.000050
1382	1.3741e+02	-15.0044	-23.974146	0.000137	1.374085	0.465553	-0.000055
1383	1.3751e+02	-15.0798	-24.024249	0.000125	1.251945	0.424170	-0.000050
1384	1.3761e+02	-15.0798	-24.071908	0.000119	1.190874	0.403479	-0.000048
1385	1.3771e+02	-15.1039	-24.120789	0.000122	1.221409	0.413825	-0.000049
1386	1.3781e+02	-15.1744	-24.177410	0.000141	1.414799	0.479347	-0.000057
1387	1.3791e+02	-15.2161	-24.227106	0.000124	1.241766	0.420722	-0.000050
1388	1.3801e+02	-15.2530	-24.278431	0.000128	1.282480	0.434516	-0.000052
1389	1.3811e+02	-15.2980	-24.331385	0.000132	1.323193	0.448310	-0.000053
1390	1.3821e+02	-15.3284	-24.380266	0.000122	1.221409	0.413825	-0.000049
1391	1.3831e+02	-15.3814	-24.429962	0.000124	1.241766	0.420722	-0.000050
1392	1.3840e+02	-15.3990	-24.480473	0.000126	1.262123	0.427619	-0.000051
1393	1.3850e+02	-15.4600	-24.532613	0.000130	1.302837	0.441413	-0.000052
1394	1.3860e+02	-15.4889	-24.581494	0.000122	1.221409	0.413825	-0.000049
1395	1.3870e+02	-15.5129	-24.627931	0.000116	1.160339	0.393133	-0.000047
1396	1.3880e+02	-15.5819	-24.680071	0.000130	1.302837	0.441413	-0.000052
1397	1.3890e+02	-15.5883	-24.725693	0.000114	1.139982	0.386236	-0.000046
1398	1.3900e+02	-15.6284	-24.777833	0.000130	1.302837	0.441413	-0.000052
1399	1.3910e+02	-15.6974	-24.834861	0.000142	1.424978	0.482795	-0.000057
1400	1.3920e+02	-15.7183	-24.882520	0.000119	1.190874	0.403479	-0.000048
1401	1.3930e+02	-15.7648	-24.931401	0.000122	1.221409	0.413825	-0.000049
1402	1.3940e+02	-15.8097	-24.981504	0.000125	1.251945	0.424170	-0.000050
1403	1.3950e+02	-15.8370	-25.035273	0.000134	1.343550	0.455207	-0.000054
1404	1.3960e+02	-15.9060	-25.089042	0.000134	1.343550	0.455207	-0.000054
1405	1.3970e+02	-15.9332	-25.136702	0.000119	1.190874	0.403479	-0.000048
1406	1.3980e+02	-15.9701	-25.188434	0.000129	1.292658	0.437964	-0.000052
1407	1.3990e+02	-15.9910	-25.238130	0.000124	1.241766	0.420722	-0.000050
1408	1.4000e+02	-16.0311	-25.287826	0.000124	1.241766	0.420722	-0.000050
1409	1.4010e+02	-16.1001	-25.338743	0.000127	1.272301	0.431067	-0.000051
1410	1.4020e+02	-16.1482	-25.383958	0.000113	1.129804	0.382788	-0.000045
1411	1.4029e+02	-16.1498	-25.436913	0.000132	1.323193	0.448310	-0.000053
1412	1.4039e+02	-16.2220	-25.491904	0.000137	1.374085	0.465553	-0.000055
1413	1.4049e+02	-16.2124	-25.537527	-0.000114	-1.139982	-0.386236	-0.000046
1414	1.4059e+02	-16.2830	-25.590074	0.000131	1.313015	0.444862	-0.000053
1415	1.4069e+02	-16.3167	-25.637326	0.000118	1.180696	0.400031	-0.000047
1416	1.4079e+02	-16.3600	-25.689465	0.000130	1.302837	0.441413	-0.000052
1417	1.4089e+02	-16.4017	-25.741198	0.000129	1.292658	0.437964	-0.000052
1418	1.4099e+02	-16.4338	-25.790079	0.000122	1.221409	0.413825	-0.000049
1419	1.4109e+02	-16.4771	-25.840997	0.000127	1.272301	0.431067	-0.000051
1420	1.4119e+02	-16.5236	-25.894766	0.000134	1.343550	0.455207	-0.000054
1421	1.4129e+02	-16.5461	-25.943240	0.000121	1.211231	0.410376	-0.000049
1422	1.4139e+02	-16.5958	-25.993750	0.000126	1.262123	0.427619	-0.000051
1423	1.4149e+02	-16.6311	-26.038965	0.000113	1.129804	0.382788	-0.000045
1424	1.4159e+02	-16.6760	-26.090290	0.000128	1.282480	0.434516	-0.000052
1425	1.4169e+02	-16.7193	-26.140801	0.000126	1.262123	0.427619	-0.000051
1426	1.4179e+02	-16.7370	-26.185609	0.000112	1.119625	0.379339	-0.000045
1427	1.4189e+02	-16.7979	-26.235304	0.000124	1.241766	0.420722	-0.000050
1428	1.4199e+02	-16.8300	-26.285000	0.000124	1.241766	0.420722	-0.000050
1429	1.4209e+02	-16.8878	-26.329401	0.000111	1.109447	0.375891	-0.000045
1430	1.4219e+02	-16.9198	-26.382762	0.000133	1.333372	0.451759	-0.000054
1431	1.4228e+02	-16.9391	-26.432051	0.000123	1.231588	0.417273	-0.000050
1432	1.4238e+02	-17.0418	-26.486227	0.000135	1.353729	0.458656	-0.000054
1433	1.4248e+02	-17.0177	-26.536331	-0.000125	-1.251945	-0.424170	-0.000050
1434	1.4258e+02	-17.0947	-26.584397	0.000120	1.201052	0.406928	-0.000048
1435	1.4268e+02	-17.1156	-26.637759	0.000133	1.333372	0.451759	-0.000054
1436	1.4278e+02	-17.1685	-26.691528	0.000134	1.343550	0.455207	-0.000054
1437	1.4288e+02	-17.1926	-26.735928	0.000111	1.109447	0.375891	-0.000045
1438	1.4298e+02	-17.2391	-26.788883	0.000132	1.323193	0.448310	-0.000053
1439	1.4308e+02	-17.2888	-26.847133	0.000146	1.455513	0.493141	-0.000059
1440	1.4318e+02	-17.3289	-26.893570	0.000116	1.160339	0.393133	-0.000047
1441	1.4328e+02	-17.3530	-26.942858	0.000123	1.231588	0.417273	-0.000050
1442	1.4338e+02	-17.4204	-26.990110	0.000118	1.180696	0.400031	-0.000047
1443	1.4348e+02	-17.4300	-27.047138	0.000142	1.424978	0.482795	-0.000057
1444	1.4358e+02	-17.4733	-27.096019	0.000122	1.221409	0.413825	-0.000049
1445	1.4368e+02	-17.5327	-27.151825	0.000139	1.394442	0.472450	-0.000056
1446	1.4378e+02	-17.5599	-27.206816	0.000137	1.374085	0.465553	-0.000055
1447	1.4388e+02	-17.6016	-27.263844	0.000142	1.424978	0.482795	-0.000057
1448	1.4398e+02	-17.6369	-27.309467	0.000114	1.139982	0.386236	-0.000046
1449	1.4408e+02	-17.6931	-27.367309	0.000145	1.445334	0.489693	-0.000058
1450	1.4418e+02	-17.7171	-27.417005	0.000124	1.241766	0.420722	-0.000050
1451	1.4428e+02	-17.7765	-27.472811	0.000139	1.394442	0.472450	-0.000056
1452	1.4437e+02	-17.8086	-27.526580	0.000134	1.343550	0.455207	-0.000054
1453	1.4447e+02	-17.8391	-27.575869	0.000123	1.231588	0.417273	-0.000050
1454	1.4457e+02	-17.8824	-27.634526	0.000147	1.465691	0.496590	-0.000059
1455	1.4467e+02	-17.9129	-27.682185	0.000119	1.190874	0.403479	-0.000048
1456	1.4477e+02	-17.9417	-27.737991	0.000139	1.394442	0.472450	-0.000056
1457	1.4487e+02	-17.9995	-27.783206	0.000113	1.129804	0.382788	-0.000045
1458	1.4497e+02	-18.0637	-27.835753	0.000131	1.313015	0.444862	-0.000053
1459	1.4507e+02	-18.0749	-27.893189	0.000144	1.435156	0.486244	-0.000058
1460	1.4517e+02	-18.1230	-27.941662	0.000121	1.211231	0.410376	-0.000049
1461	1.4527e+02	-18.1407	-27.995432	0.000134	1.343550	0.455207	-0.000054
1462	1.4537e+02	-18.1952	-28.047571	0.000130	1.302837	0.441413	-0.000052
1463	1.4547e+02	-18.2145	-28.097267	0.000124	1.241766	0.420722	-0.000050
1464	1.4557e+02	-18.2674	-28.153888	0.000141	1.414799	0.479347	-0.000057
1465	1.4567e+02	-18.3203	-28.203584	0.000124	1.241766	0.420722	-0.000050
1466	1.4577e+02	-18.3701	-28.258167	0.000136	1.363907	0.462104	-0.000055
1467	1.4587e+02	-18.3957	-28.309493	0.000128	1.282480	0.434516	-0.000052
1468	1.4597e+02	-18.4182	-28.362040	0.000131	1.313015	0.444862	-0.000053
1469	1.4607e+02	-18.4888	-28.414587	0.000131	1.313015	0.444862	-0.000053
1470	1.4617e+02	-18.5257	-28.467542	0.000132	1.323193	0.448310	-0.000053
1471	1.4626e+02	-18.5530	-28.523755	0.000140	1.404621	0.475898	-0.000056
1472	1.4636e+02	-18.6027	-28.574265	0.000126	1.262123	0.427619	-0.000051
1473	1.4646e+02	-18.6428	-28.628849	0.000136	1.363907	0.462104	-0.000055
1474	1.4656e+02	-18.6620	-28.682618	0.000134	1.343550	0.455207	-0.000054
1475	1.4666e+02	-18.7086	-28.735166	0.000131	1.313015	0.444862	-0.000053
1476	1.4676e+02	-18.7471	-28.787713	0.000131	1.313015	0.444862	-0.000053
1477	1.4686e+02	-18.8209	-28.843111	0.000138	1.384264	0.469001	-0.000056
1478	1.4696e+02	-18.8353	-28.900954	0.000145	1.445334	0.489693	-0.000058
1479	1.4706e+02	-18.8834	-28.953909	0.000132	1.323193	0.448310	-0.000053
1480	1.4716e+02	-18.9091	-29.008085	0.000135	1.353729	0.458656	-0.000054
1481	1.4726e+02	-18.9540	-29.062669	0.000136	1.363907	0.462104	-0.000055
1482	1.4736e+02	-18.9909	-29.112772	0.000125	1.251945	0.424170	-0.000050
1483	1.4746e+02	-19.0262	-29.170615	0.000145	1.445334	0.489693	-0.000058
1484	1.4756e+02	-19.0695	-29.228457	0.000145	1.445334	0.489693	-0.000058
1485	1.4766e+02	-19.1160	-29.277746	0.000123	1.231588	0.417273	-0.000050
1486	1.4776e+02	-19.1722	-29.335589	0.000145	1.445334	0.489693	-0.000058
1487	1.4786e+02	-19.1786	-29.391802	0.000140	1.404621	0.475898	-0.000056
1488	1.4796e+02	-19.2380	-29.443942	0.000130	1.302837	0.441413	-0.000052
1489	1.4806e+02	-19.2765	-29.496081	0.000130	1.302837	0.441413	-0.000052
1490	1.4816e+02	-19.3005	-29.558812	0.000157	1.567475	0.531075	-0.000063
1491	1.4825e+02	-19.3743	-29.604027	0.000113	1.129804	0.382788	-0.000045
1492	1.4835e+02	-19.4128	-29.666351	0.000156	1.557297	0.527626	-0.000063
1493	1.4845e+02	-19.4337	-29.718898	0.000131	1.313015	0.444862	-0.000053
1494	1.4855e+02	-19.4561	-29.773074	0.000135	1.353729	0.458656	-0.000054
1495	1.4865e+02	-19.5043	-29.828066	0.000137	1.374085	0.465553	-0.000055
1496	1.4875e+02	-19.5460	-29.887130	0.000148	1.475870	0.500038	-0.000059
1497	1.4885e+02	-19.6053	-29.937233	0.000125	1.251945	0.424170	-0.000050
1498	1.4895e+02	-19.6342	-29.994669	0.000144	1.435156	0.486244	-0.000058
1499	1.4905e+02	-19.6936	-30.055770	0.000153	1.526762	0.517281	-0.000061
1500	1.4915e+02	-19.7064	-30.109132	0.000133	1.333372	0.451759	-0.000054
1501	1.4925e+02	-19.7593	-30.165345	0.000140	1.404621	0.475898	-0.000056
1502	1.4935e+02	-19.7850	-30.221151	0.000139	1.394442	0.472450	-0.000056
1503	1.4945e+02	-19.8043	-30.278179	0.000142	1.424978	0.482795	-0.000057
1504	1.4955e+02	-19.8684	-30.336022	0.000145	1.445334	0.489693	-0.000058
1505	1.4965e+02	-19.9149	-30.393457	0.000144	1.435156	0.486244	-0.000058
1506	1.4975e+02	-19.9470	-30.448856	0.000138	1.384264	0.469001	-0.000056
1507	1.4985e+02	-20.0016	-30.514438	0.000164	1.638724	0.555215	-0.000066
1508	1.4995e+02	-19.9374	-30.500996	0.000034	0.335888	0.113802	0.000014
1509	1.5005e+02	-19.9278	-30.481850	0.000048	0.478385	0.162081	0.000019
1510	1.5015e+02	-19.8476	-30.462298	0.000049	0.488564	0.165530	0.000020
1511	1.5025e+02	-19.8203	-30.438672	0.000059	0.590348	0.200015	0.000024
1512	1.5034e+02	-19.7834	-30.420749	0.000045	0.447850	0.151736	0.000018
1513	1.5044e+02	-19.7449	-30.394272	0.000066	0.661597	0.224155	0.000027
1514	1.5054e+02	-19.7128	-30.369017	0.000063	0.631061	0.213809	0.000025
1515	1.5064e+02	-19.6599	-30.344576	0.000061	0.610705	0.206912	0.000025
1516	1.5074e+02	-19.6069	-30.318506	0.000065	0.651418	0.220706	0.000026
1517	1.5084e+02	-19.5748	-30.295288	0.000058	0.580169	0.196567	0.000023
1518	1.5094e+02	-19.5331	-30.263922	0.000078	0.783738	0.265538	0.000032
1519	1.5104e+02	-19.5123	-30.236223	0.000069	0.692132	0.234501	0.000028
1520	1.5114e+02	-19.4609	-30.204858	0.000078	0.783738	0.265538	0.000032
1521	1.5124e+02	-19.4080	-30.184083	0.000052	0.519099	0.175875	0.000021
1522	1.5134e+02	-19.3936	-30.149052	0.000088	0.875343	0.296574	0.000035
1523	1.5144e+02	-19.3615	-30.115650	0.000083	0.834630	0.282780	0.000034
1524	1.5154e+02	-19.2925	-30.089987	0.000064	0.641240	0.217258	0.000026
1525	1.5164e+02	-19.2620	-30.057400	0.000081	0.814273	0.275883	0.000033
1526	1.5174e+02	-19.2460	-30.030515	0.000067	0.671775	0.227604	0.000027
1527	1.5184e+02	-19.2123	-29.997928	0.000081	0.814273	0.275883	0.000033
1528	1.5194e+02	-19.1401	-29.960045	0.000095	0.946592	0.320714	0.000038
1529	1.5204e+02	-19.1112	-29.921754	0.000096	0.956771	0.324163	0.000038
1530	1.5214e+02	-19.0487	-29.893240	0.000071	0.712489	0.241398	0.000029
1531	1.5224e+02	-19.0310	-29.857802	0.000089	0.885522	0.300023	0.000036
1532	1.5233e+02	-19.0070	-29.824807	0.000082	0.824451	0.279332	0.000033
1533	1.5243e+02	-18.9508	-29.789775	0.000088	0.875343	0.296574	0.000035
1534	1.5253e+02	-18.8930	-29.753115	0.000092	0.916057	0.310369	0.000037
1535	1.5263e+02	-18.8914	-29.716046	0.000093	0.926235	0.313817	0.000037
1536	1.5273e+02	-18.8529	-29.685088	0.000077	0.773559	0.262089	0.000031
1537	1.5283e+02	-18.7888	-29.647206	0.000095	0.946592	0.320714	0.000038
1538	1.5293e+02	-18.7567	-29.615433	0.000079	0.793916	0.268986	0.000032
1539	1.5303e+02	-18.7021	-29.577143	0.000096	0.956771	0.324163	0.000038
1540	1.5313e+02	-18.6765	-29.542926	0.000085	0.854987	0.289677	0.000034
1541	1.5323e+02	-18.6444	-29.510338	0.000081	0.814273	0.275883	0.000033
1542	1.5333e+02	-18.6059	-29.475307	0.000088	0.875343	0.296574	0.000035
1543	1.5343e+02	-18.5722	-29.445164	0.000075	0.753202	0.255192	0.000030
1544	1.5353e+02	-18.5193	-29.403615	0.000104	1.038198	0.351751	0.000042
1545	1.5363e+02	-18.4695	-29.366954	0.000092	0.916057	0.310369	0.000037
1546	1.5373e+02	-18.4455	-29.329478	0.000094	0.936414	0.317266	0.000038
1547	1.5383e+02	-18.3941	-29.293632	0.000090	0.895700	0.303471	0.000036
1548	1.5393e+02	-18.3701	-29.258601	0.000088	0.875343	0.296574	0.000035
1549	1.5403e+02	-18.3011	-29.223569	0.000088	0.875343	0.296574	0.000035
1550	1.5413e+02	-18.2770	-29.187316	0.000091	0.905879	0.306920	0.000036
1551	1.5422e+02	-18.2257	-29.149840	0.000094	0.936414	0.317266	0.000038
1552	1.5432e+02	-18.2048	-29.115216	0.000087	0.865165	0.293126	0.000035
1553	1.5442e+02	-18.1663	-29.077741	0.000094	0.936414	0.317266	0.000038
1554	1.5452e+02	-18.1134	-29.042709	0.000088	0.875343	0.296574	0.000035
1555	1.5462e+02	-18.0781	-29.005234	0.000094	0.936414	0.317266	0.000038
1556	1.5472e+02	-18.0284	-28.968573	0.000092	0.916057	0.310369	0.000037
1557	1.5482e+02	-18.0011	-28.928653	0.000100	0.997484	0.337957	0.000040
1558	1.5492e+02	-17.9562	-28.892807	0.000090	0.895700	0.303471	0.000036
1559	1.5502e+02	-17.9417	-28.855332	0.000094	0.936414	0.317266	0.000038
1560	1.5512e+02	-17.8663	-28.812153	0.000108	1.078912	0.365545	0.000043
1561	1.5522e+02	-17.8423	-28.780788	0.000078	0.783738	0.265538	0.000032
1562	1.5532e+02	-17.8150	-28.742498	0.000096	0.956771	0.324163	0.000038
1563	1.5542e+02	-17.7653	-28.702578	0.000100	0.997484	0.337957	0.000040
1564	1.5552e+02	-17.6963	-28.661844	0.000102	1.017841	0.344854	0.000041
1565	1.5562e+02	-17.6883	-28.626812	0.000088	0.875343	0.296574	0.000035
1566	1.5572e+02	-17.6530	-28.585671	0.000103	1.028020	0.348302	0.000041
1567	1.5582e+02	-17.5888	-28.549010	0.000092	0.916057	0.310369	0.000037
1568	1.5592e+02	-17.5615	-28.510720	0.000096	0.956771	0.324163	0.000038
1569	1.5602e+02	-17.5519	-28.472430	0.000096	0.956771	0.324163	0.000038
1570	1.5612e+02	-17.4861	-28.432103	0.000101	1.007663	0.341405	0.000041
1571	1.5622e+02	-17.4172	-28.397071	0.000088	0.875343	0.296574	0.000035
1572	1.5631e+02	-17.3931	-28.360818	0.000091	0.905879	0.306920	0.000036
1573	1.5641e+02	-17.3674	-28.322528	0.000096	0.956771	0.324163	0.000038
1574	1.5651e+02	-17.3321	-28.281793	0.000102	1.017841	0.344854	0.000041
1575	1.5661e+02	-17.2696	-28.245947	0.000090	0.895700	0.303471	0.000036
1576	1.5671e+02	-17.2311	-28.203584	0.000106	1.058555	0.358648	0.000043
1577	1.5681e+02	-17.1926	-28.168145	0.000089	0.885522	0.300023	0.000036
1578	1.5691e+02	-17.1749	-28.129855	0.000096	0.956771	0.324163	0.000038
1579	1.5701e+02	-17.1412	-28.086676	0.000108	1.078912	0.365545	0.000043
1580	1.5711e+02	-17.0787	-28.051237	0.000089	0.885522	0.300023	0.000036
1581	1.5721e+02	-17.0434	-28.006837	0.000111	1.109447	0.375891	0.000045
1582	1.5731e+02	-16.9968	-27.969769	0.000093	0.926235	0.313817	0.000037
1583	1.5741e+02	-16.9616	-27.935552	0.000085	0.854987	0.289677	0.000034
1584	1.5751e+02	-16.8974	-27.894411	0.000103	1.028020	0.348302	0.000041
1585	1.5761e+02	-16.9102	-27.851232	-0.000108	-1.078912	-0.365545	0.000043
1586	1.5771e+02	-16.8412	-27.813757	0.000094	0.936414	0.317266	0.000038
1587	1.5781e+02	-16.7915	-27.772615	0.000103	1.028020	0.348302	0.000041
1588	1.5791e+02	-16.7402	-27.738806	0.000084	0.844808	0.286229	0.000034
1589	1.5801e+02	-16.7193	-27.692369	0.000116	1.160339	0.393133	0.000047
1590	1.5811e+02	-16.6888	-27.652042	0.000101	1.007663	0.341405	0.000041
1591	1.5821e+02	-16.5990	-27.606419	0.000114	1.139982	0.386236	0.000046
1592	1.5830e+02	-16.6182	-27.569759	-0.000092	-0.916057	-0.310369	0.000037
1593	1.5840e+02	-16.5797	-27.519248	0.000126	1.262123	0.427619	0.000051
1594	1.5850e+02	-16.4995	-27.481365	0.000095	0.946592	0.320714	0.000038
1595	1.5860e+02	-16.4691	-27.434928	0.000116	1.160339	0.393133	0.000047
1596	1.5870e+02	-16.4546	-27.399082	0.000090	0.895700	0.303471	0.000036
1597	1.5880e+02	-16.4161	-27.358348	0.000102	1.017841	0.344854	0.000041
1598	1.5890e+02	-16.3600	-27.315984	0.000106	1.058555	0.358648	0.000043
1599	1.5900e+02	-16.3215	-27.272399	0.000109	1.089090	0.368994	0.000044
1600	1.5910e+02	-16.2942	-27.233294	0.000098	0.977127	0.331060	0.000039
1601	1.5920e+02	-16.2268	-27.194596	0.000097	0.966949	0.327611	0.000039
1602	1.5930e+02	-16.2140	-27.151010	0.000109	1.089090	0.368994	0.000044
1603	1.5940e+02	-16.1514	-27.111091	0.000100	0.997484	0.337957	0.000040
1604	1.5950e+02	-16.1113	-27.072393	0.000097	0.966949	0.327611	0.000039
1605	1.5960e+02	-16.0632	-27.030437	0.000105	1.048376	0.355200	0.000042
1606	1.5970e+02	-16.0359	-26.988888	0.000104	1.038198	0.351751	0.000042
1607	1.5980e+02	-16.0070	-26.952227	0.000092	0.916057	0.310369	0.000037
1608	1.5990e+02	-15.9445	-26.901309	0.000127	1.272301	0.431067	0.000051
1609	1.6000e+02	-15.9156	-26.863834	0.000094	0.936414	0.317266	0.000038
1610	1.6010e+02	-15.8851	-26.824322	0.000099	0.987306	0.334508	0.000040
1611	1.6019e+02	-15.8402	-26.786846	0.000094	0.936414	0.317266	0.000038
1612	1.6029e+02	-15.8258	-26.744483	0.000106	1.058555	0.358648	0.000043
1613	1.6039e+02	-15.7905	-26.709044	0.000089	0.885522	0.300023	0.000036
1614	1.6049e+02	-15.7488	-26.671161	0.000095	0.946592	0.320714	0.000038
1615	1.6059e+02	-15.7119	-26.631649	0.000099	0.987306	0.334508	0.000040
1616	1.6069e+02	-15.6397	-26.587248	0.000111	1.109447	0.375891	0.000045
1617	1.6079e+02	-15.6124	-26.552624	0.000087	0.865165	0.293126	0.000035
1618	1.6089e+02	-15.5611	-26.513112	0.000099	0.987306	0.334508	0.000040
1619	1.6099e+02	-15.5242	-26.469526	0.000109	1.089090	0.368994	0.000044
1620	1.6109e+02	-15.5049	-26.429607	0.000100	0.997484	0.337957	0.000040
1621	1.6119e+02	-15.4391	-26.389280	0.000101	1.007663	0.341405	0.000041
1622	1.6129e+02	-15.4119	-26.346916	0.000106	1.058555	0.358648	0.000043
1623	1.6139e+02	-15.3718	-26.310255	0.000092	0.916057	0.310369	0.000037
1624	1.6149e+02	-15.3172	-26.263004	0.000118	1.180696	0.400031	0.000047
1625	1.6159e+02	-15.2948	-26.223899	0.000098	0.977127	0.331060	0.000039
1626	1.6169e+02	-15.2466	-26.176647	0.000118	1.180696	0.400031	0.000047
1627	1.6179e+02	-15.2065	-26.136727	0.000100	0.997484	0.337957	0.000040
1628	1.6189e+02	-15.1616	-26.095586	0.000103	1.028020	0.348302	0.000041
1629	1.6199e+02	-15.1327	-26.054444	0.000103	1.028020	0.348302	0.000041
1630	1.6209e+02	-15.0766	-26.010859	0.000109	1.089090	0.368994	0.000044
1631	1.6219e+02	-15.0541	-25.968495	0.000106	1.058555	0.358648	0.000043
1632	1.6228e+02	-14.9948	-25.927353	0.000103	1.028020	0.348302	0.000041
1633	1.6238e+02	-14.9627	-25.883360	0.000110	1.099268	0.372442	0.000044
1634	1.6248e+02	-14.9146	-25.838145	0.000113	1.129804	0.382788	0.000045
1635	1.6258e+02	-14.9081	-25.794560	0.000109	1.089090	0.368994	0.000044
1636	1.6268e+02	-14.8472	-25.754640	0.000100	0.997484	0.337957	0.000040
1637	1.6278e+02	-14.7862	-25.711869	0.000107	1.068733	0.362097	0.000043
1638	1.6288e+02	-14.7654	-25.666654	0.000113	1.129804	0.382788	0.000045
1639	1.6298e+02	-14.7028	-25.626735	0.000100	0.997484	0.337957	0.000040
1640	1.6308e+02	-14.7012	-25.585593	0.000103	1.028020	0.348302	0.000041
1641	1.6318e+02	-14.6466	-25.537934	0.000119	1.190874	0.403479	0.000048
1642	1.6328e+02	-14.6114	-25.501680	0.000091	0.905879	0.306920	0.000036
1643	1.6338e+02	-14.5424	-25.454429	0.000118	1.180696	0.400031	0.000047
1644	1.6348e+02	-14.5327	-25.410436	0.000110	1.099268	0.372442	0.000044
1645	1.6358e+02	-14.4814	-25.372146	0.000096	0.956771	0.324163	0.000038
1646	1.6368e+02	-14.4413	-25.327338	0.000112	1.119625	0.379339	0.000045
1647	1.6378e+02	-14.4204	-25.281308	0.000115	1.150160	0.389685	0.000046
1648	1.6388e+02	-14.3627	-25.240574	0.000102	1.017841	0.344854	0.000041
1649	1.6398e+02	-14.3450	-25.199432	0.000103	1.028020	0.348302	0.000041
1650	1.6408e+02	-14.2905	-25.152995	0.000116	1.160339	0.393133	0.000047
1651	1.6418e+02	-14.2440	-25.110632	0.000106	1.058555	0.358648	0.000043
1652	1.6427e+02	-14.2103	-25.066639	0.000110	1.099268	0.372442	0.000044
1653	1.6437e+02	-14.1525	-25.024275	0.000106	1.058555	0.358648	0.000043
1654	1.6447e+02	-14.1333	-24.978245	0.000115	1.150160	0.389685	0.000046
1655	1.6457e+02	-14.0948	-24.934252	0.000110	1.099268	0.372442	0.000044
1656	1.6467e+02	-14.0547	-24.882927	0.000128	1.282480	0.434516	0.000052
1657	1.6477e+02	-13.9825	-24.845044	0.000095	0.946592	0.320714	0.000038
1658	1.6487e+02	-13.9793	-24.801051	0.000110	1.099268	0.372442	0.000044
1659	1.6497e+02	-13.9344	-24.759910	0.000103	1.028020	0.348302	0.000041
1660	1.6507e+02	-13.8509	-24.705733	0.000135	1.353729	0.458656	0.000054
1661	1.6517e+02	-13.8445	-24.667850	0.000095	0.946592	0.320714	0.000038
1662	1.6527e+02	-13.8237	-24.624265	0.000109	1.089090	0.368994	0.000044
1663	1.6537e+02	-13.7723	-24.577013	0.000118	1.180696	0.400031	0.000047
1664	1.6547e+02	-13.7018	-24.535464	0.000104	1.038198	0.351751	0.000042
1665	1.6557e+02	-13.6937	-24.488212	0.000118	1.180696	0.400031	0.000047
1666	1.6567e+02	-13.6633	-24.438109	0.000125	1.251945	0.424170	0.000050
1667	1.6577e+02	-13.6103	-24.399004	0.000098	0.977127	0.331060	0.000039
1668	1.6587e+02	-13.5798	-24.350938	0.000120	1.201052	0.406928	0.000048
1669	1.6597e+02	-13.5141	-24.307352	0.000109	1.089090	0.368994	0.000044
1670	1.6607e+02	-13.4932	-24.262137	0.000113	1.129804	0.382788	0.000045
1671	1.6616e+02	-13.4723	-24.218144	0.000110	1.099268	0.372442	0.000044
1672	1.6626e+02	-13.4162	-24.170485	0.000119	1.190874	0.403479	0.000048
1673	1.6636e+02	-13.3584	-24.128121	0.000106	1.058555	0.358648	0.000043
1674	1.6646e+02	-13.3536	-24.085758	0.000106	1.058555	0.358648	0.000043
1675	1.6656e+02	-13.3199	-24.044209	0.000104	1.038198	0.351751	0.000042
1676	1.6666e+02	-13.2253	-23.998179	0.000115	1.150160	0.389685	0.000046
1677	1.6676e+02	-13.2141	-23.955815	0.000106	1.058555	0.358648	0.000043
1678	1.6686e+02	-13.1772	-23.906527	0.000123	1.231588	0.417273	0.000050
1679	1.6696e+02	-13.1451	-23.865385	0.000103	1.028020	0.348302	0.000041
1680	1.6706e+02	-13.0873	-23.826281	0.000098	0.977127	0.331060	0.000039
1681	1.6716e+02	-13.0344	-23.776585	0.000124	1.241766	0.420722	0.000050
1682	1.6726e+02	-13.0055	-23.732592	0.000110	1.099268	0.372442	0.000044
1683	1.6736e+02	-12.9590	-23.684525	0.000120	1.201052	0.406928	0.000048
1684	1.6746e+02	-12.9333	-23.640940	0.000109	1.089090	0.368994	0.000044
1685	1.6756e+02	-12.8563	-23.594910	0.000115	1.150160	0.389685	0.000046
1686	1.6766e+02	-12.8724	-23.550917	-0.000110	-1.099268	-0.372442	0.000044
1687	1.6776e+02	-12.8403	-23.507331	0.000109	1.089090	0.368994	0.000044
1688	1.6786e+02	-12.7986	-23.458858	0.000121	1.211231	0.410376	0.000049
1689	1.6796e+02	-12.7232	-23.415679	0.000108	1.078912	0.365545	0.000043
1690	1.6806e+02	-12.6975	-23.363947	0.000129	1.292658	0.437964	0.000052
1691	1.6816e+02	-12.6494	-23.315880	0.000120	1.201052	0.406928	0.000048
1692	1.6825e+02	-12.6269	-23.268629	0.000118	1.180696	0.400031	0.000047
1693	1.6835e+02	-12.5563	-23.223006	0.000114	1.139982	0.386236	0.000046
1694	1.6845e+02	-12.5403	-23.178199	0.000112	1.119625	0.379339	0.000045
1695	1.6855e+02	-12.4954	-23.128910	0.000123	1.231588	0.417273	0.000050
1696	1.6865e+02	-12.4729	-23.078400	0.000126	1.262123	0.427619	0.000051
1697	1.6875e+02	-12.4184	-23.026667	0.000129	1.292658	0.437964	0.000052
1698	1.6885e+02	-12.3927	-22.983489	0.000108	1.078912	0.365545	0.000043
1699	1.6895e+02	-12.3349	-22.931349	0.000130	1.302837	0.441413	0.000052
1700	1.6905e+02	-12.2932	-22.881653	0.000124	1.241766	0.420722	0.000050
1701	1.6915e+02	-12.2483	-22.835216	0.000116	1.160339	0.393133	0.000047
1702	1.6925e+02	-12.2130	-22.786742	0.000121	1.211231	0.410376	0.000049
1703	1.6935e+02	-12.1713	-22.738676	0.000120	1.201052	0.406928	0.000048
1704	1.6945e+02	-12.1296	-22.688165	0.000126	1.262123	0.427619	0.000051
1705	1.6955e+02	-12.0975	-22.640506	0.000119	1.190874	0.403479	0.000048
1706	1.6965e+02	-12.0590	-22.594069	0.000116	1.160339	0.393133	0.000047
1707	1.6975e+02	-12.0125	-22.539078	0.000137	1.374085	0.465553	0.000055
1708	1.6985e+02	-11.9804	-22.490604	0.000121	1.211231	0.410376	0.000049
1709	1.6995e+02	-11.9355	-22.443353	0.000118	1.180696	0.400031	0.000047
1710	1.7005e+02	-11.8922	-22.400174	0.000108	1.078912	0.365545	0.000043
1711	1.7015e+02	-11.8617	-22.354145	0.000115	1.150160	0.389685	0.000046
1712	1.7024e+02	-11.8216	-22.298746	0.000138	1.384264	0.469001	0.000056
1713	1.7034e+02	-11.7847	-22.253124	0.000114	1.139982	0.386236	0.000046
1714	1.7044e+02	-11.7302	-22.202206	0.000127	1.272301	0.431067	0.000051
1715	1.7054e+02	-11.7334	-22.160249	-0.000105	-1.048376	-0.355200	0.000042
1716	1.7064e+02	-11.6419	-22.108110	0.000130	1.302837	0.441413	0.000052
1717	1.7074e+02	-11.5874	-22.058821	0.000123	1.231588	0.417273	0.000050
1718	1.7084e+02	-11.6082	-22.011977	-0.000117	-1.170517	-0.396582	0.000047
1719	1.7094e+02	-11.5441	-21.964725	0.000118	1.180696	0.400031	0.000047
1720	1.7104e+02	-11.4847	-21.913400	0.000128	1.282480	0.434516	0.000052
1721	1.7114e+02	-11.4735	-21.869000	0.000111	1.109447	0.375891	0.000045
1722	1.7124e+02	-11.4366	-21.818489	0.000126	1.262123	0.427619	0.000051
1723	1.7134e+02	-11.3612	-21.766349	0.000130	1.302837	0.441413	0.000052
1724	1.7144e+02	-11.3323	-21.722356	0.000110	1.099268	0.372442	0.000044
1725	1.7154e+02	-11.3082	-21.670624	0.000129	1.292658	0.437964	0.000052
1726	1.7164e+02	-11.2890	-21.622965	0.000119	1.190874	0.403479	0.000048
1727	1.7174e+02	-11.2120	-21.572047	0.000127	1.272301	0.431067	0.000051
1728	1.7184e+02	-11.1911	-21.517463	0.000136	1.363907	0.462104	0.000055
1729	1.7194e+02	-11.1639	-21.471026	0.000116	1.160339	0.393133	0.000047
1730	1.7204e+02	-11.1029	-21.415220	0.000139	1.394442	0.472450	0.000056
1731	1.7213e+02	-11.0564	-21.372449	0.000107	1.068733	0.362097	0.000043
1732	1.7223e+02	-11.0291	-21.319494	0.000132	1.323193	0.448310	0.000053
1733	1.7233e+02	-10.9730	-21.270613	0.000122	1.221409	0.413825	0.000049
1734	1.7243e+02	-10.9328	-21.218066	0.000131	1.313015	0.444862	0.000053
1735	1.7253e+02	-10.8895	-21.168370	0.000124	1.241766	0.420722	0.000050
1736	1.7263e+02	-10.8751	-21.119082	0.000123	1.231588	0.417273	0.000050
1737	1.7273e+02	-10.8510	-21.069793	0.000123	1.231588	0.417273	0.000050
1738	1.7283e+02	-10.7724	-21.020098	0.000124	1.241766	0.420722	0.000050
1739	1.7293e+02	-10.7371	-20.971624	0.000121	1.211231	0.410376	0.000049
1740	1.7303e+02	-10.7034	-20.923557	0.000120	1.201052	0.406928	0.000048
1741	1.7313e+02	-10.6521	-20.869788	0.000134	1.343550	0.455207	0.000054
1742	1.7323e+02	-10.6345	-20.825795	0.000110	1.099268	0.372442	0.000044
1743	1.7333e+02	-10.5831	-20.772026	0.000134	1.343550	0.455207	0.000054
1744	1.7343e+02	-10.5510	-20.720701	0.000128	1.282480	0.434516	0.000052
1745	1.7353e+02	-10.5093	-20.670598	0.000125	1.251945	0.424170	0.000050
1746	1.7363e+02	-10.4676	-20.620902	0.000124	1.241766	0.420722	0.000050
1747	1.7373e+02	-10.4195	-20.570799	0.000125	1.251945	0.424170	0.000050
1748	1.7383e+02	-10.3778	-20.521510	0.000123	1.231588	0.417273	0.000050
1749	1.7393e+02	-10.3601	-20.464890	0.000141	1.414799	0.479347	0.000057
1750	1.7403e+02	-10.2912	-20.418860	0.000115	1.150160	0.389685	0.000046
1751	1.7413e+02	-10.2446	-20.368350	0.000126	1.262123	0.427619	0.000051
1752	1.7422e+02	-10.2254	-20.318654	0.000124	1.241766	0.420722	0.000050
1753	1.7432e+02	-10.1933	-20.264477	0.000135	1.353729	0.458656	0.000054
1754	1.7442e+02	-10.1388	-20.217633	0.000117	1.170517	0.396582	0.000047
1755	1.7452e+02	-10.1227	-20.164271	0.000133	1.333372	0.451759	0.000054
1756	1.7462e+02	-10.0858	-20.115797	0.000121	1.211231	0.410376	0.000049
1757	1.7472e+02	-10.0393	-20.056325	0.000149	1.486048	0.503487	0.000060
1758	1.7482e+02	-9.9944	-20.005407	0.000127	1.272301	0.431067	0.000051
1759	1.7492e+02	-9.9302	-19.953675	0.000129	1.292658	0.437964	0.000052
1760	1.7502e+02	-9.8773	-19.897054	0.000141	1.414799	0.479347	0.000057
1761	1.7512e+02	-9.8724	-19.843285	0.000134	1.343550	0.455207	0.000054
1762	1.7522e+02	-9.8323	-19.787886	0.000138	1.384264	0.469001	0.000056
1763	1.7532e+02	-9.7810	-19.737783	0.000125	1.251945	0.424170	0.000050
1764	1.7542e+02	-9.7473	-19.684014	0.000134	1.343550	0.455207	0.000054
1765	1.7552e+02	-9.7008	-19.631060	0.000132	1.323193	0.448310	0.000053
1766	1.7562e+02	-9.6623	-19.576476	0.000136	1.363907	0.462104	0.000055
1767	1.7572e+02	-9.6238	-19.527187	0.000123	1.231588	0.417273	0.000050
1768	1.7582e+02	-9.5997	-19.473418	0.000134	1.343550	0.455207	0.000054
1769	1.7592e+02	-9.5340	-19.420871	0.000131	1.313015	0.444862	0.000053
1770	1.7602e+02	-9.5051	-19.366694	0.000135	1.353729	0.458656	0.000054
1771	1.7612e+02	-9.4714	-19.316184	0.000126	1.262123	0.427619	0.000051
1772	1.7621e+02	-9.4185	-19.264451	0.000129	1.292658	0.437964	0.000052
1773	1.7631e+02	-9.3960	-19.212719	0.000129	1.292658	0.437964	0.000052
1774	1.7641e+02	-9.3398	-19.158135	0.000136	1.363907	0.462104	0.000055
1775	1.7651e+02	-9.2965	-19.107217	0.000127	1.272301	0.431067	0.000051
1776	1.7661e+02	-9.2773	-19.052226	0.000137	1.374085	0.465553	0.000055
1777	1.7671e+02	-9.2308	-19.002937	0.000123	1.231588	0.417273	0.000050
1778	1.7681e+02	-9.1906	-18.948353	0.000136	1.363907	0.462104	0.000055
1779	1.7691e+02	-9.1554	-18.894177	0.000135	1.353729	0.458656	0.000054
1780	1.7701e+02	-9.0928	-18.844888	0.000123	1.231588	0.417273	0.000050
1781	1.7711e+02	-9.0816	-18.802932	0.000105	1.048376	0.355200	0.000042
1782	1.7721e+02	-9.0399	-18.741423	0.000154	1.536940	0.520729	0.000062
1783	1.7731e+02	-8.9917	-18.693764	0.000119	1.190874	0.403479	0.000048
1784	1.7741e+02	-8.9645	-18.641217	0.000131	1.313015	0.444862	0.000053
1785	1.7751e+02	-8.9115	-18.587041	0.000135	1.353729	0.458656	0.000054
1786	1.7761e+02	-8.8762	-18.536530	0.000126	1.262123	0.427619	0.000051
1787	1.7771e+02	-8.8297	-18.479910	0.000141	1.414799	0.479347	0.000057
1788	1.7781e+02	-8.7864	-18.432250	0.000119	1.190874	0.403479	0.000048
1789	1.7791e+02	-8.7511	-18.375630	0.000141	1.414799	0.479347	0.000057
1790	1.7801e+02	-8.7062	-18.326341	0.000123	1.231588	0.417273	0.000050
1791	1.7810e+02	-8.6725	-18.271350	0.000137	1.374085	0.465553	0.000055
1792	1.7820e+02	-8.6292	-18.212693	0.000147	1.465691	0.496590	0.000059
1793	1.7830e+02	-8.5971	-18.160553	0.000130	1.302837	0.441413	0.000052
1794	1.7840e+02	-8.5698	-18.109228	0.000128	1.282480	0.434516	0.000052
1795	1.7850e+02	-8.5137	-18.056681	0.000131	1.313015	0.444862	0.000053
1796	1.7860e+02	-8.5008	-17.997616	0.000148	1.475870	0.500038	0.000059
1797	1.7870e+02	-8.4238	-17.940181	0.000144	1.435156	0.486244	0.000058
1798	1.7880e+02	-8.4046	-17.890485	0.000124	1.241766	0.420722	0.000050
1799	1.7890e+02	-8.3420	-17.832642	0.000145	1.445334	0.489693	0.000058
1800	1.7900e+02	-8.3244	-17.778058	0.000136	1.363907	0.462104	0.000055
1801	1.7910e+02	-8.2730	-17.724289	0.000134	1.343550	0.455207	0.000054
1802	1.7920e+02	-8.2409	-17.668483	0.000139	1.394442	0.472450	0.000056
1803	1.7930e+02	-8.1960	-17.614307	0.000135	1.353729	0.458656	0.000054
1804	1.7940e+02	-8.1479	-17.562981	0.000128	1.282480	0.434516	0.000052
1805	1.7950e+02	-8.1254	-17.499843	0.000158	1.577654	0.534524	0.000063
1806	1.7960e+02	-8.0789	-17.451370	0.000121	1.211231	0.410376	0.000049
1807	1.7970e+02	-8.0532	-17.394749	0.000141	1.414799	0.479347	0.000057
1808	1.7980e+02	-7.9971	-17.337721	0.000142	1.424978	0.482795	0.000057
1809	1.7990e+02	-7.9281	-17.275398	0.000156	1.557297	0.527626	0.000063
1810	1.8000e+02	-7.9025	-17.222850	0.000131	1.313015	0.444862	0.000053
1811	1.8009e+02	-7.8656	-17.166230	0.000141	1.414799	0.479347	0.000057
1812	1.8019e+02	-7.8431	-17.111646	0.000136	1.363907	0.462104	0.000055
1813	1.8029e+02	-7.7918	-17.061135	0.000126	1.262123	0.427619	0.000051
1814	1.8039e+02	-7.7452	-17.003700	0.000144	1.435156	0.486244	0.000058
1815	1.8049e+02	-7.7019	-16.945857	0.000145	1.445334	0.489693	0.000058
1816	1.8059e+02	-7.6795	-16.886793	0.000148	1.475870	0.500038	0.000059
1817	1.8069e+02	-7.6137	-16.833024	0.000134	1.343550	0.455207	0.000054
1818	1.8079e+02	-7.6009	-16.772737	0.000151	1.506405	0.510384	0.000061
1819	1.8089e+02	-7.5415	-16.719375	0.000133	1.333372	0.451759	0.000054
1820	1.8099e+02	-7.5142	-16.658274	0.000153	1.526762	0.517281	0.000061
1821	1.8109e+02	-7.4693	-16.606134	0.000130	1.302837	0.441413	0.000052
1822	1.8119e+02	-7.4517	-16.546254	0.000150	1.496226	0.506935	0.000060
1823	1.8129e+02	-7.3843	-16.487597	0.000147	1.465691	0.496590	0.000059
1824	1.8139e+02	-7.3506	-16.432199	0.000138	1.384264	0.469001	0.000056
1825	1.8149e+02	-7.3249	-16.373541	0.000147	1.465691	0.496590	0.000059
1826	1.8159e+02	-7.2720	-16.314477	0.000148	1.475870	0.500038	0.000059
1827	1.8169e+02	-7.2447	-16.258671	0.000139	1.394442	0.472450	0.000056
1828	1.8179e+02	-7.2046	-16.200013	0.000147	1.465691	0.496590	0.000059
1829	1.8189e+02	-7.1501	-16.140949	0.000148	1.475870	0.500038	0.000059
1830	1.8199e+02	-7.1276	-16.081477	0.000149	1.486048	0.503487	0.000060
1831	1.8209e+02	-7.0875	-16.026485	0.000137	1.374085	0.465553	0.000055
1832	1.8218e+02	-7.0538	-15.965791	0.000152	1.516583	0.513832	0.000061
1833	1.8228e+02	-6.9993	-15.907949	0.000145	1.445334	0.489693	0.000058
1834	1.8238e+02	-6.9672	-15.847662	0.000151	1.506405	0.510384	0.000061
1835	1.8248e+02	-6.9078	-15.788190	0.000149	1.486048	0.503487	0.000060
1836	1.8258e+02	-6.8790	-15.732791	0.000138	1.384264	0.469001	0.000056
1837	1.8268e+02	-6.8629	-15.670061	0.000157	1.567475	0.531075	0.000063
1838	1.8278e+02	-6.7907	-15.608145	0.000155	1.547118	0.524178	0.000062
1839	1.8288e+02	-6.7586	-15.553561	0.000136	1.363907	0.462104	0.000055
1840	1.8298e+02	-6.7185	-15.495718	0.000145	1.445334	0.489693	0.000058
1841	1.8308e+02	-6.6736	-15.430951	0.000162	1.618367	0.548318	0.000065
1842	1.8318e+02	-6.6463	-15.381662	0.000123	1.231588	0.417273	0.000050
1843	1.8328e+02	-6.5966	-15.315673	0.000165	1.648903	0.558663	0.000066
1844	1.8338e+02	-6.5661	-15.262718	0.000132	1.323193	0.448310	0.000053
1845	1.8348e+02	-6.5308	-15.205690	0.000142	1.424978	0.482795	0.000057
1846	1.8358e+02	-6.4731	-15.144996	0.000152	1.516583	0.513832	0.000061
1847	1.8368e+02	-6.4282	-15.087968	0.000142	1.424978	0.482795	0.000057
1848	1.8378e+02	-6.3961	-15.032977	0.000137	1.374085	0.465553	0.000055
1849	1.8388e+02	-6.3784	-14.973505	0.000149	1.486048	0.503487	0.000060
1850	1.8398e+02	-6.3207	-14.914033	0.000149	1.486048	0.503487	0.000060
1851	1.8407e+02	-6.2806	-14.860264	0.000134	1.343550	0.455207	0.000054
1852	1.8417e+02	-6.2565	-14.796311	0.000160	1.598011	0.541421	0.000064
1853	1.8427e+02	-6.2004	-14.733580	0.000157	1.567475	0.531075	0.000063
1854	1.8437e+02	-6.1490	-14.673293	0.000151	1.506405	0.510384	0.000061
1855	1.8447e+02	-6.1266	-14.610563	0.000157	1.567475	0.531075	0.000063
1856	1.8457e+02	-6.0816	-14.545795	0.000162	1.618367	0.548318	0.000065
1857	1.8467e+02	-6.0672	-14.483879	0.000155	1.547118	0.524178	0.000062
1858	1.8477e+02	-5.9886	-14.423185	0.000152	1.516583	0.513832	0.000061
1859	1.8487e+02	-5.9629	-14.361269	0.000155	1.547118	0.524178	0.000062
1860	1.8497e+02	-5.9228	-14.302204	0.000148	1.475870	0.500038	0.000059
1861	1.8507e+02	-5.8859	-14.236622	0.000164	1.638724	0.555215	0.000066
1862	1.8517e+02	-5.8410	-14.172669	0.000160	1.598011	0.541421	0.000064
1863	1.8527e+02	-5.8057	-14.106680	0.000165	1.648903	0.558663	0.000066
1864	1.8537e+02	-5.7624	-14.047615	0.000148	1.475870	0.500038	0.000059
1865	1.8547e+02	-5.7319	-13.978367	0.000173	1.730330	0.586252	0.000070
1866	1.8557e+02	-5.6678	-13.911563	0.000167	1.669259	0.565560	0.000067
1867	1.8567e+02	-5.6597	-13.851276	0.000151	1.506405	0.510384	0.000061
1868	1.8577e+02	-5.5988	-13.781213	0.000175	1.750687	0.593149	0.000070
1869	1.8587e+02	-5.5667	-13.718482	0.000157	1.567475	0.531075	0.000063
1870	1.8597e+02	-5.5298	-13.657381	0.000153	1.526762	0.517281	0.000061
1871	1.8606e+02	-5.4849	-13.588133	0.000173	1.730330	0.586252	0.000070
1872	1.8616e+02	-5.4656	-13.524587	0.000159	1.587832	0.537972	0.000064
1873	1.8626e+02	-5.4015	-13.465115	0.000149	1.486048	0.503487	0.000060
1874	1.8636e+02	-5.3597	-13.395867	0.000173	1.730330	0.586252	0.000070
1875	1.8646e+02	-5.3565	-13.329470	0.000166	1.659081	0.562112	0.000067
1876	1.8656e+02	-5.2988	-13.267962	0.000154	1.536940	0.520729	0.000062
1877	1.8666e+02	-5.2619	-13.203601	0.000161	1.608189	0.544869	0.000065
1878	1.8676e+02	-5.1945	-13.138834	0.000162	1.618367	0.548318	0.000065
1879	1.8686e+02	-5.1753	-13.074881	0.000160	1.598011	0.541421	0.000064
1880	1.8696e+02	-5.1384	-13.010928	0.000160	1.598011	0.541421	0.000064
1881	1.8706e+02	-5.0838	-12.942495	0.000171	1.709973	0.579355	0.000069
1882	1.8716e+02	-5.0549	-12.878135	0.000161	1.608189	0.544869	0.000065
1883	1.8726e+02	-5.0068	-12.814182	0.000160	1.598011	0.541421	0.000064
1884	1.8736e+02	-4.9683	-12.748600	0.000164	1.638724	0.555215	0.000066
1885	1.8746e+02	-4.9442	-12.682203	0.000166	1.659081	0.562112	0.000067
1886	1.8756e+02	-4.8849	-12.618250	0.000160	1.598011	0.541421	0.000064
1887	1.8766e+02	-4.8448	-12.552668	0.000164	1.638724	0.555215	0.000066
1888	1.8776e+02	-4.8095	-12.486679	0.000165	1.648903	0.558663	0.000066
1889	1.8786e+02	-4.7646	-12.419874	0.000167	1.669259	0.565560	0.000067
1890	1.8796e+02	-4.7405	-12.349404	0.000176	1.760865	0.596597	0.000071
1891	1.8806e+02	-4.6908	-12.284637	0.000162	1.618367	0.548318	0.000065
1892	1.8815e+02	-4.6362	-12.219869	0.000162	1.618367	0.548318	0.000065
1893	1.8825e+02	-4.6090	-12.151843	0.000170	1.699795	0.575906	0.000068
1894	1.8835e+02	-4.5705	-12.082595	0.000173	1.730330	0.586252	0.000070
1895	1.8845e+02	-4.5287	-12.016605	0.000165	1.648903	0.558663	0.000066
1896	1.8855e+02	-4.5079	-11.951430	0.000163	1.628546	0.551766	0.000066
1897	1.8865e+02	-4.4453	-11.880146	0.000178	1.781222	0.603494	0.000072
1898	1.8875e+02	-4.4132	-11.813749	0.000166	1.659081	0.562112	0.000067
1899	1.8885e+02	-4.3731	-11.742464	0.000178	1.781222	0.603494	0.000072
1900	1.8895e+02	-4.3394	-11.678918	0.000159	1.587832	0.537972	0.000064
1901	1.8905e+02	-4.3074	-11.611707	0.000168	1.679438	0.569009	0.000068
1902	1.8915e+02	-4.2544	-11.541644	0.000175	1.750687	0.593149	0.000070
1903	1.8925e+02	-4.2047	-11.474840	0.000167	1.669259	0.565560	0.000067
1904	1.8935e+02	-4.1790	-11.408035	0.000167	1.669259	0.565560	0.000067
1905	1.8945e+02	-4.1550	-11.336343	0.000179	1.791400	0.606943	0.000072
1906	1.8955e+02	-4.0972	-11.270761	0.000164	1.638724	0.555215	0.000066
1907	1.8965e+02	-4.0523	-11.198254	0.000181	1.811757	0.613840	0.000073
1908	1.8975e+02	-4.0154	-11.133487	0.000162	1.618367	0.548318	0.000065
1909	1.8985e+02	-3.9737	-11.061387	0.000180	1.801579	0.610391	0.000072
1910	1.8995e+02	-3.9480	-10.993768	0.000169	1.689616	0.572457	0.000068
1911	1.9004e+02	-3.8935	-10.926557	0.000168	1.679438	0.569009	0.000068
1912	1.9014e+02	-3.8774	-10.855272	0.000178	1.781222	0.603494	0.000072
1913	1.9024e+02	-3.8277	-10.787245	0.000170	1.699795	0.575906	0.000068
1914	1.9034e+02	-3.7812	-10.713516	0.000184	1.842292	0.624186	0.000074
1915	1.9044e+02	-3.7347	-10.640602	0.000182	1.821936	0.617288	0.000073
1916	1.9054e+02	-3.7010	-10.570539	0.000175	1.750687	0.593149	0.000070
1917	1.9064e+02	-3.6512	-10.509030	0.000154	1.536940	0.520729	0.000062
1918	1.9074e+02	-3.6127	-10.433265	0.000189	1.893184	0.641428	0.000076
1919	1.9084e+02	-3.5694	-10.361165	0.000180	1.801579	0.610391	0.000072
1920	1.9094e+02	-3.5357	-10.295176	0.000165	1.648903	0.558663	0.000066
1921	1.9104e+02	-3.4876	-10.220225	0.000187	1.872828	0.634531	0.000075
1922	1.9114e+02	-3.4603	-10.151384	0.000172	1.720151	0.582803	0.000069
1923	1.9124e+02	-3.4170	-10.078469	0.000182	1.821936	0.617288	0.000073
1924	1.9134e+02	-3.3769	-10.002296	0.000190	1.903363	0.644877	0.000077
1925	1.9144e+02	-3.3208	-9.928975	0.000183	1.832114	0.620737	0.000074
1926	1.9154e+02	-3.3063	-9.857282	0.000179	1.791400	0.606943	0.000072
1927	1.9164e+02	-3.2694	-9.784775	0.000181	1.811757	0.613840	0.000073
1928	1.9174e+02	-3.1956	-9.706973	0.000194	1.944076	0.658671	0.000078
1929	1.9184e+02	-3.1924	-9.632429	0.000186	1.862649	0.631083	0.000075
1930	1.9194e+02	-3.1523	-9.560737	0.000179	1.791400	0.606943	0.000072
1931	1.9203e+02	-3.1074	-9.488230	0.000181	1.811757	0.613840	0.000073
1932	1.9213e+02	-3.0529	-9.410428	0.000194	1.944076	0.658671	0.000078
1933	1.9223e+02	-3.0208	-9.335884	0.000186	1.862649	0.631083	0.000075
1934	1.9233e+02	-2.9999	-9.263377	0.000181	1.811757	0.613840	0.000073
1935	1.9243e+02	-2.9694	-9.190463	0.000182	1.821936	0.617288	0.000073
1936	1.9253e+02	-2.8956	-9.114290	0.000190	1.903363	0.644877	0.000077
1937	1.9263e+02	-2.8796	-9.040153	0.000185	1.852471	0.627634	0.000075
1938	1.9273e+02	-2.8218	-8.967239	0.000182	1.821936	0.617288	0.000073
1939	1.9283e+02	-2.7657	-8.893510	0.000184	1.842292	0.624186	0.000074
1940	1.9293e+02	-2.7304	-8.819781	0.000184	1.842292	0.624186	0.000074
1941	1.9303e+02	-2.6983	-8.743608	0.000190	1.903363	0.644877	0.000077
1942	1.9313e+02	-2.6454	-8.668249	0.000188	1.883006	0.637980	0.000076
1943	1.9323e+02	-2.6053	-8.590040	0.000195	1.954255	0.662119	0.000079
1944	1.9333e+02	-2.5828	-8.519977	0.000175	1.750687	0.593149	0.000070
1945	1.9343e+02	-2.5363	-8.439730	0.000201	2.005147	0.679362	0.000081
1946	1.9353e+02	-2.4994	-8.374556	0.000163	1.628546	0.551766	0.000066
1947	1.9363e+02	-2.4561	-8.295531	0.000197	1.974612	0.669017	0.000079
1948	1.9373e+02	-2.4336	-8.224246	0.000178	1.781222	0.603494	0.000072
1949	1.9383e+02	-2.3871	-8.149702	0.000186	1.862649	0.631083	0.000075
1950	1.9393e+02	-2.3502	-8.072715	0.000192	1.923720	0.651774	0.000077
1951	1.9403e+02	-2.2989	-7.999393	0.000183	1.832114	0.620737	0.000074
1952	1.9412e+02	-2.2732	-7.925664	0.000184	1.842292	0.624186	0.000074
1953	1.9422e+02	-2.2235	-7.847454	0.000195	1.954255	0.662119	0.000079
1954	1.9432e+02	-2.1721	-7.773725	0.000184	1.842292	0.624186	0.000074
1955	1.9442e+02	-2.1256	-7.697960	0.000189	1.893184	0.641428	0.000076
1956	1.9452e+02	-2.0775	-7.618528	0.000198	1.984790	0.672465	0.000080
1957	1.9462e+02	-2.0663	-7.544799	0.000184	1.842292	0.624186	0.000074
1958	1.9472e+02	-2.0518	-7.463330	0.000204	2.035682	0.689708	0.000082
1959	1.9482e+02	-1.9812	-7.384306	0.000197	1.974612	0.669017	0.000079
1960	1.9492e+02	-1.9443	-7.308947	0.000188	1.883006	0.637980	0.000076
1961	1.9502e+02	-1.9026	-7.229516	0.000198	1.984790	0.672465	0.000080
1962	1.9512e+02	-1.8625	-7.147232	0.000206	2.056039	0.696605	0.000083
1963	1.9522e+02	-1.8096	-7.069023	0.000195	1.954255	0.662119	0.000079
1964	1.9532e+02	-1.7983	-6.988369	0.000202	2.015325	0.682811	0.000081
1965	1.9542e+02	-1.7406	-6.909752	0.000196	1.964433	0.665568	0.000079
1966	1.9552e+02	-1.7101	-6.835615	0.000185	1.852471	0.627634	0.000075
1967	1.9562e+02	-1.6812	-6.757813	0.000194	1.944076	0.658671	0.000078
1968	1.9572e+02	-1.6171	-6.673086	0.000212	2.117109	0.717296	0.000085
1969	1.9582e+02	-1.5673	-6.594469	0.000196	1.964433	0.665568	0.000079
1970	1.9592e+02	-1.5401	-6.516666	0.000194	1.944076	0.658671	0.000078
1971	1.9601e+02	-1.5016	-6.434790	0.000205	2.045861	0.693156	0.000082
1972	1.9611e+02	-1.4695	-6.349248	0.000214	2.137466	0.724193	0.000086
1973	1.9621e+02	-1.4326	-6.268187	0.000203	2.025504	0.686259	0.000081
1974	1.9631e+02	-1.4021	-6.192421	0.000189	1.893184	0.641428	0.000076
1975	1.9641e+02	-1.3540	-6.108509	0.000210	2.096753	0.710399	0.000084
1976	1.9651e+02	-1.3219	-6.023782	0.000212	2.117109	0.717296	0.000085
1977	1.9661e+02	-1.2593	-5.947609	0.000190	1.903363	0.644877	0.000077
1978	1.9671e+02	-1.2433	-5.863289	0.000211	2.106931	0.713848	0.000085
1979	1.9681e+02	-1.1823	-5.783042	0.000201	2.005147	0.679362	0.000081
1980	1.9691e+02	-1.1486	-5.696686	0.000216	2.157823	0.731090	0.000087
1981	1.9701e+02	-1.1037	-5.620920	0.000189	1.893184	0.641428	0.000076
1982	1.9711e+02	-1.0716	-5.531712	0.000223	2.229072	0.755230	0.000090
1983	1.9721e+02	-1.0139	-5.456761	0.000187	1.872828	0.634531	0.000075
1984	1.9731e+02	-0.9738	-5.369590	0.000218	2.178180	0.737987	0.000088
1985	1.9741e+02	-0.9305	-5.286899	0.000207	2.066217	0.700053	0.000083
1986	1.9751e+02	-0.9112	-5.200135	0.000217	2.168002	0.734539	0.000087
1987	1.9761e+02	-0.8807	-5.117037	0.000208	2.076396	0.703502	0.000084
1988	1.9771e+02	-0.8262	-5.033939	0.000208	2.076396	0.703502	0.000084
1989	1.9781e+02	-0.7973	-4.947583	0.000216	2.157823	0.731090	0.000087
1990	1.9791e+02	-0.7540	-4.861226	0.000216	2.157823	0.731090	0.000087
1991	1.9800e+02	-0.6930	-4.777721	0.000209	2.086574	0.706950	0.000084
1992	1.9810e+02	-0.6738	-4.695438	0.000206	2.056039	0.696605	0.000083
1993	1.9820e+02	-0.6257	-4.609081	0.000216	2.157823	0.731090	0.000087
1994	1.9830e+02	-0.5920	-4.524354	0.000212	2.117109	0.717296	0.000085
1995	1.9840e+02	-0.5246	-4.436775	0.000219	2.188358	0.741436	0.000088
1996	1.9850e+02	-0.5118	-4.355714	0.000203	2.025504	0.686259	0.000081
1997	1.9860e+02	-0.4684	-4.270579	0.000213	2.127288	0.720745	0.000086
1998	1.9870e+02	-0.4107	-4.180557	0.000225	2.249429	0.762127	0.000090
1999	1.9880e+02	-0.3962	-4.095422	0.000213	2.127288	0.720745	0.000086
2000	1.9890e+02	-0.3481	-4.009065	0.000216	2.157823	0.731090	0.000087
2001	1.9900e+02	-0.3112	-3.922301	0.000217	2.168002	0.734539	0.000087
2002	1.9910e+02	-0.2823	-3.833501	0.000222	2.218894	0.751782	0.000089
2003	1.9920e+02	-0.2262	-3.749181	0.000211	2.106931	0.713848	0.000085
2004	1.9930e+02	-0.1989	-3.666898	0.000206	2.056039	0.696605	0.000083
2005	1.9940e+02	-0.1652	-3.582170	0.000212	2.117109	0.717296	0.000085
2006	1.9950e+02	-0.0850	-3.490111	0.000230	2.300321	0.779370	0.000093
2007	1.9960e+02	-0.0738	-3.402532	0.000219	2.188358	0.741436	0.000088
2008	1.9970e+02	-0.0401	-3.319027	0.000209	2.086574	0.706950	0.000084
2009	1.9980e+02	-0.0016	-3.227375	0.000209	2.086574	0.706950	0.000092

Center data before PMax,+/-Pr and +/-Vc Calc.

PMax (uC/cm2):	3.05e+01
Pr (uC/cm2):	1.14e+00
-Pr (uC/cm2):	-3.23e+00
PLoss (uC/cm2):	-1.31e+00
Vc:	9.43e-01
-Vc:	-5.25e-01
C (Max-Eff) (nF):	1.53e-01
K (Eff):	5.17e+02
Vert. (+/-Pr) Shift (uC/cm2):	-1.04e+00
Horiz. Shift (+/-Vc):	2.09e-01
Offset (uC/cm2):	1.91e+00

A (Loop Area - uC/cm2·Volts):	-5.13e-03



Hysteresis Version: 5.48.1 - Radiant Technologies, Inc., 1999 - 9/12/24

