»»»»»»»»»»»»»»»»»»»»»»»»»»»»»»»»»»»» Hysteresis ««««««««««««««««««««««««««««««««««««
»»»  Executed Version:	5.48.1
»»»  Vision Version:	5.48.4 (R)
»»»  Vision Compiled:	9/18/24
»»»  Driver Version:	5.47.0
»»»  Windows Version:	Windows 8 or 8.1
»»»  Processor Information:	x86 (AMD or Intel) - 32 Processors
»»»  Tester Name:	PMF21124-494 (100V)
»»»  Tester S/N:	PMF21124-494
»»»  Internal Amp Type:	100V RevK 270k
»»»  Internal Amp S/N:	iAB2-596/K     
»»»  Execution Count:	1
»»»»»»»»»»»»»»»»»»»»»»»»»»»»»»»»»»»»»»»»»»««««««««««««««««««««««««««««««««««««««««««

Stored:	6/11/2025 - 17:44:2
Configured:	06/11/25 01:55:56 PM
Executed:	06/11/25 05:43:32 PM

»»»»»»»»»»»»»»»»»»»»»»»»»»»»»»»»»»» Sample Info ««««««««««««««««««««««««««««««««««««
Sample Name:	
Lot Name:	
Wafer Name:	
Die Row/Column:	0/0
Capacitor Number:	0
Sample Area (cm2):	1.00e-04
Sample Thickness (microns):	3.00e-01

Amplifier:	Internal

»»»»»»»»»»»»»»»»»»»»»»»»»»»»»»»»»»» Tester Info «««««««««««««««««««««««««««««««««««
Tester Name:	PMF21124-494 (100V)
Tester Serial Number:	PMF21124-494
Return Signal Amp. Level:	1.79 [Index: 2]

»»»»»»»»»»»»»»»»»»»»»»»»»»»»»»»» Hysteresis Info ««««««««««««««««««««««««««««««««««
Task Name:	Hyst-1287
Volts:	20.00
Field:	666.67 (kV/cm)
DCBias:	0.00
DCField:	0.00 (kV/cm)
Hysteresis Period (ms):	1.00e+00
Preset:	Enabled
Preset Delay (ms):	1.00e+03
Profile:	Standard Bipolar

»»»»»»»»»»»»»»»»»»»»»»»»»»»»»»»»»»»»»» Data «««««««««««««««««««««««««««««««««««««««
Points:	2001

Valid Data

Point	Time (ms)	Drive Voltage	Measured Polarization (uC/cm2)	Capacitance (uF)	Normalized Capacitance (uF/cm2)	Dielectric Constant	Instantaneous Current (mA)
   1	0.0000e+00	0.0513	-1.221939	-0.000207	-2.069627	-0.701208	0.016763
   2	5.0000e-04	0.0449	-1.138125	-0.000207	-2.069627	-0.701208	0.016763
   3	1.0000e-03	0.1283	-1.100921	0.000092	0.918661	0.311251	0.007441
   4	1.5000e-03	0.1492	-0.988028	0.000279	2.787660	0.944485	0.022579
   5	2.0000e-03	0.1861	-0.850760	0.000339	3.389541	1.148408	0.027454
   6	2.5000e-03	0.2471	-0.797735	0.000131	1.309356	0.443622	0.010605
   7	3.0000e-03	0.2823	-0.642079	0.000384	3.843592	1.302244	0.031131
   8	3.5000e-03	0.3016	-0.553133	0.000220	2.196338	0.744140	0.017789
   9	4.0000e-03	0.3561	-0.412872	0.000346	3.463457	1.173451	0.028052
  10	4.5000e-03	0.3930	-0.328630	0.000208	2.080186	0.704786	0.016848
  11	5.0000e-03	0.4396	-0.192218	0.000337	3.368423	1.141253	0.027282
  12	5.5000e-03	0.4636	-0.058371	0.000331	3.305067	1.119787	0.026769
  13	6.0000e-03	0.5374	-0.047253	0.000027	0.274542	0.093017	0.002224
  14	6.5000e-03	0.5438	0.128074	0.000433	4.329321	1.466814	0.035065
  15	7.0000e-03	0.6048	0.254651	0.000313	3.125558	1.058968	0.025315
  16	7.5000e-03	0.6433	0.359419	0.000259	2.587033	0.876511	0.020954
  17	8.0000e-03	0.6882	0.494976	0.000335	3.347304	1.134097	0.027111
  18	8.5000e-03	0.7187	0.554844	0.000148	1.478305	0.500863	0.011974
  19	9.0000e-03	0.7716	0.709644	0.000382	3.822473	1.295089	0.030960
  20	9.5000e-03	0.7620	0.828096	-0.000292	-2.924931	-0.990994	0.023690
  21	1.0000e-02	0.8390	0.940989	0.000279	2.787660	0.944485	0.022579
  22	1.0500e-02	0.8855	1.040198	0.000245	2.449762	0.830002	0.019842
  23	1.1000e-02	0.9032	1.165920	0.000310	3.104440	1.051813	0.025144
  24	1.1500e-02	0.9674	1.304043	0.000341	3.410660	1.155563	0.027625
  25	1.2000e-02	0.9802	1.389141	0.000210	2.101304	0.711941	0.017019
  26	1.2500e-02	1.0187	1.529402	0.000346	3.463457	1.173451	0.028052
  27	1.3000e-02	1.0764	1.623907	0.000233	2.333609	0.790648	0.018901
  28	1.3500e-02	1.0877	1.745353	0.000300	2.998847	1.016037	0.024289
  29	1.4000e-02	1.1534	1.862950	0.000290	2.903813	0.983838	0.023519
  30	1.4500e-02	1.1823	1.968145	0.000260	2.597592	0.880088	0.021039
  31	1.5000e-02	1.2321	2.086598	0.000292	2.924931	0.990994	0.023690
  32	1.5500e-02	1.2770	2.166991	0.000199	1.985152	0.672588	0.016079
  33	1.6000e-02	1.3363	2.311956	0.000358	3.579609	1.212804	0.028993
  34	1.6500e-02	1.3716	2.418007	0.000262	2.618711	0.887243	0.021210
  35	1.7000e-02	1.4053	2.502249	0.000208	2.080186	0.704786	0.016848
  36	1.7500e-02	1.4615	2.604879	0.000253	2.534237	0.858623	0.020526
  37	1.8000e-02	1.4935	2.719483	0.000283	2.829897	0.958795	0.022921
  38	1.8500e-02	1.5160	2.877277	0.000390	3.896389	1.320132	0.031559
  39	1.9000e-02	1.5689	2.998295	0.000299	2.988287	1.012459	0.024204
  40	1.9500e-02	1.6187	3.065432	0.000166	1.657813	0.561682	0.013427
  41	2.0000e-02	1.6492	3.215101	0.000370	3.695762	1.252158	0.029934
  42	2.0500e-02	1.6508	3.362204	0.000363	3.632406	1.230692	0.029421
  43	2.1000e-02	1.7374	3.413946	0.000128	1.277678	0.432889	0.010349
  44	2.1500e-02	1.7614	3.533254	0.000295	2.946050	0.998149	0.023861
  45	2.2000e-02	1.8048	3.638877	0.000261	2.608152	0.883666	0.021125
  46	2.2500e-02	1.8336	3.759468	0.000298	2.977728	1.008882	0.024118
  47	2.3000e-02	1.8721	3.891604	0.000326	3.262830	1.105477	0.026427
  48	2.3500e-02	1.9363	3.961734	0.000173	1.731728	0.586725	0.014026
  49	2.4000e-02	1.9700	4.083608	0.000301	3.009406	1.019614	0.024375
  50	2.4500e-02	2.0037	4.202915	0.000295	2.946050	0.998149	0.023861
  51	2.5000e-02	2.0213	4.322222	0.000295	2.946050	0.998149	0.023861
  52	2.5500e-02	2.0695	4.411169	0.000220	2.196338	0.744140	0.017789
  53	2.6000e-02	2.1048	4.548009	0.000338	3.378982	1.144830	0.027368
  54	2.6500e-02	2.1481	4.645935	0.000242	2.418084	0.819269	0.019585
  55	2.7000e-02	2.2090	4.766525	0.000298	2.977728	1.008882	0.024118
  56	2.7500e-02	2.2154	4.894385	0.000316	3.157236	1.069701	0.025572
  57	2.8000e-02	2.2876	4.964943	0.000174	1.742288	0.590303	0.014112
  58	2.8500e-02	2.3197	5.078692	0.000281	2.808779	0.951640	0.022750
  59	2.9000e-02	2.3358	5.186026	0.000265	2.650389	0.897976	0.021467
  60	2.9500e-02	2.4047	5.259577	0.000182	1.816203	0.615346	0.014710
  61	3.0000e-02	2.4336	5.386582	0.000314	3.136118	1.062545	0.025401
  62	3.0500e-02	2.4689	5.535823	0.000369	3.685202	1.248580	0.029848
  63	3.1000e-02	2.5251	5.620065	0.000208	2.080186	0.704786	0.016848
  64	3.1500e-02	2.5443	5.779142	0.000393	3.928067	1.330865	0.031815
  65	3.2000e-02	2.6053	5.832595	0.000132	1.319915	0.447199	0.010691
  66	3.2500e-02	2.6678	5.920686	0.000218	2.175220	0.736984	0.017618
  67	3.3000e-02	2.6935	6.007921	0.000215	2.154101	0.729829	0.017447
  68	3.3500e-02	2.7320	6.143479	0.000335	3.347304	1.134097	0.027111
  69	3.4000e-02	2.7705	6.244826	0.000250	2.502559	0.847890	0.020269
  70	3.4500e-02	2.8170	6.382093	0.000339	3.389541	1.148408	0.027454
  71	3.5000e-02	2.8283	6.460776	0.000194	1.942915	0.658277	0.015737
  72	3.5500e-02	2.8876	6.612583	0.000375	3.748558	1.270046	0.030361
  73	3.6000e-02	2.9181	6.646793	0.000084	0.844746	0.286208	0.006842
  74	3.6500e-02	2.9582	6.789620	0.000353	3.526813	1.194916	0.028565
  75	3.7000e-02	3.0015	6.911494	0.000301	3.009406	1.019614	0.024375
  76	3.7500e-02	3.0416	6.957249	0.000113	1.129847	0.382803	0.009151
  77	3.8000e-02	3.0978	7.078695	0.000300	2.998847	1.016037	0.024289
  78	3.8500e-02	3.1122	7.187739	0.000269	2.692626	0.912286	0.021809
  79	3.9000e-02	3.1507	7.259153	0.000176	1.763406	0.597458	0.014283
  80	3.9500e-02	3.1796	7.411815	0.000377	3.769677	1.277201	0.030532
  81	4.0000e-02	3.2277	7.542668	0.000323	3.231152	1.094744	0.026171
  82	4.0500e-02	3.2774	7.626483	0.000207	2.069627	0.701208	0.016763
  83	4.1000e-02	3.3047	7.730396	0.000257	2.565915	0.869355	0.020783
  84	4.1500e-02	3.3528	7.837730	0.000265	2.650389	0.897976	0.021467
  85	4.2000e-02	3.3881	7.901446	0.000157	1.573339	0.533062	0.012743
  86	4.2500e-02	3.4282	8.069075	0.000414	4.139253	1.402417	0.033526
  87	4.3000e-02	3.4716	8.167429	0.000243	2.428643	0.822847	0.019671
  88	4.3500e-02	3.5293	8.202922	0.000088	0.876423	0.296940	0.007099
  89	4.4000e-02	3.5470	8.319236	0.000287	2.872135	0.973106	0.023263
  90	4.4500e-02	3.6047	8.453938	0.000333	3.326185	1.126942	0.026940
  91	4.5000e-02	3.6384	8.524924	0.000175	1.752847	0.593881	0.014197
  92	4.5500e-02	3.6801	8.666468	0.000350	3.495135	1.184184	0.028309
  93	4.6000e-02	3.7250	8.705809	0.000097	0.971457	0.329139	0.007868
  94	4.6500e-02	3.7555	8.826827	0.000299	2.988287	1.012459	0.024204
  95	4.7000e-02	3.8101	8.961101	0.000332	3.315626	1.123365	0.026855
  96	4.7500e-02	3.8149	9.044916	0.000207	2.069627	0.701208	0.016763
  97	4.8000e-02	3.8822	9.157381	0.000278	2.777101	0.940907	0.022493
  98	4.8500e-02	3.9223	9.204848	0.000117	1.172084	0.397113	0.009493
  99	4.9000e-02	3.9528	9.369056	0.000405	4.054778	1.373796	0.032842
 100	4.9500e-02	4.0010	9.417805	0.000120	1.203762	0.407846	0.009750
 101	5.0000e-02	4.0074	9.585862	0.000415	4.149812	1.405994	0.033611
 102	5.0500e-02	4.0908	9.614940	0.000072	0.718034	0.243276	0.005816
 103	5.1000e-02	4.1293	9.712867	0.000242	2.418084	0.819269	0.019585
 104	5.1500e-02	4.1598	9.850990	0.000341	3.410660	1.155563	0.027625
 105	5.2000e-02	4.2159	9.903160	0.000129	1.288237	0.436466	0.010434
 106	5.2500e-02	4.2512	10.018191	0.000284	2.840457	0.962373	0.023006
 107	5.3000e-02	4.2416	10.155886	-0.000340	-3.400101	-1.151985	0.027539
 108	5.3500e-02	4.2961	10.258517	0.000253	2.534237	0.858623	0.020526
 109	5.4000e-02	4.3667	10.320522	0.000153	1.531101	0.518751	0.012401
 110	5.4500e-02	4.4068	10.429139	0.000268	2.682067	0.908709	0.021723
 111	5.5000e-02	4.4197	10.533052	0.000257	2.565915	0.869355	0.020783
 112	5.5500e-02	4.4919	10.629695	0.000239	2.386406	0.808536	0.019329
 113	5.6000e-02	4.5255	10.682721	0.000131	1.309356	0.443622	0.010605
 114	5.6500e-02	4.5705	10.798607	0.000286	2.861575	0.969528	0.023177
 115	5.7000e-02	4.5945	10.932454	0.000331	3.305067	1.119787	0.026769
 116	5.7500e-02	4.6378	11.051334	0.000294	2.935491	0.994571	0.023776
 117	5.8000e-02	4.6812	11.105215	0.000133	1.330474	0.450777	0.010776
 118	5.8500e-02	4.7293	11.243338	0.000341	3.410660	1.155563	0.027625
 119	5.9000e-02	4.7726	11.306626	0.000156	1.562779	0.529484	0.012658
 120	5.9500e-02	4.8207	11.357941	0.000127	1.267118	0.429311	0.010263
 121	6.0000e-02	4.8464	11.514452	0.000386	3.864711	1.309399	0.031302
 122	6.0500e-02	4.8929	11.619648	0.000260	2.597592	0.880088	0.021039
 123	6.1000e-02	4.9266	11.707311	0.000216	2.164660	0.733407	0.017533
 124	6.1500e-02	4.9539	11.819776	0.000278	2.777101	0.940907	0.022493
 125	6.2000e-02	4.9924	11.867670	0.000118	1.182644	0.400691	0.009579
 126	6.2500e-02	5.0293	12.019477	0.000375	3.748558	1.270046	0.030361
 127	6.3000e-02	5.0854	12.082766	0.000156	1.562779	0.529484	0.012658
 128	6.3500e-02	5.1223	12.167008	0.000208	2.080186	0.704786	0.016848
 129	6.4000e-02	5.1592	12.255099	0.000218	2.175220	0.736984	0.017618
 130	6.4500e-02	5.1993	12.337631	0.000204	2.037949	0.690476	0.016506
 131	6.5000e-02	5.2314	12.496280	0.000392	3.917507	1.327287	0.031730
 132	6.5500e-02	5.2843	12.527069	0.000076	0.760271	0.257587	0.006158
 133	6.6000e-02	5.3164	12.631837	0.000259	2.587033	0.876511	0.020954
 134	6.6500e-02	5.3806	12.711375	0.000196	1.964033	0.665433	0.015908
 135	6.7000e-02	5.4031	12.860616	0.000369	3.685202	1.248580	0.029848
 136	6.7500e-02	5.4448	12.900813	0.000099	0.992576	0.336294	0.008039
 137	6.8000e-02	5.4752	13.017555	0.000288	2.882694	0.976683	0.023348
 138	6.8500e-02	5.5154	13.135579	0.000291	2.914372	0.987416	0.023605
 139	6.9000e-02	5.5474	13.211269	0.000187	1.868999	0.633234	0.015138
 140	6.9500e-02	5.5827	13.345116	0.000331	3.305067	1.119787	0.026769
 141	7.0000e-02	5.6678	13.382319	0.000092	0.918661	0.311251	0.007441
 142	7.0500e-02	5.6886	13.493929	0.000276	2.755982	0.933752	0.022322
 143	7.1000e-02	5.6838	13.605540	-0.000276	-2.755982	-0.933752	0.022322
 144	7.1500e-02	5.7448	13.718860	0.000280	2.798220	0.948062	0.022664
 145	7.2000e-02	5.7881	13.800537	0.000202	2.016830	0.683320	0.016335
 146	7.2500e-02	5.8603	13.863825	0.000156	1.562779	0.529484	0.012658
 147	7.3000e-02	5.9180	13.906588	0.000106	1.055932	0.357759	0.008553
 148	7.3500e-02	5.9244	14.048132	0.000350	3.495135	1.184184	0.028309
 149	7.4000e-02	5.9389	14.153328	0.000260	2.597592	0.880088	0.021039
 150	7.4500e-02	6.0159	14.224741	0.000176	1.763406	0.597458	0.014283
 151	7.5000e-02	6.0512	14.330792	0.000262	2.618711	0.887243	0.021210
 152	7.5500e-02	6.0736	14.389377	0.000145	1.446627	0.490130	0.011717
 153	7.6000e-02	6.1137	14.530065	0.000347	3.474016	1.177028	0.028138
 154	7.6500e-02	6.1603	14.598058	0.000168	1.678932	0.568837	0.013598
 155	7.7000e-02	6.1875	14.711806	0.000281	2.808779	0.951640	0.022750
 156	7.7500e-02	6.2405	14.783220	0.000176	1.763406	0.597458	0.014283
 157	7.8000e-02	6.2693	14.920487	0.000339	3.389541	1.148408	0.027454
 158	7.8500e-02	6.3143	14.993184	0.000180	1.795084	0.608191	0.014539
 159	7.9000e-02	6.3672	15.073149	0.000197	1.974593	0.669010	0.015993
 160	7.9500e-02	6.4041	15.142852	0.000172	1.721169	0.583148	0.013941
 161	8.0000e-02	6.4282	15.246765	0.000257	2.565915	0.869355	0.020783
 162	8.0500e-02	6.4747	15.332290	0.000211	2.111864	0.715519	0.017105
 163	8.1000e-02	6.4923	15.488374	0.000385	3.854151	1.305822	0.031217
 164	8.1500e-02	6.5453	15.516597	0.000070	0.696915	0.236121	0.005645
 165	8.2000e-02	6.6030	15.573043	0.000139	1.393830	0.472242	0.011289
 166	8.2500e-02	6.6046	15.794126	0.000546	5.459168	1.849616	0.044216
 167	8.3000e-02	6.6800	15.774455	-0.000049	-0.485729	-0.164569	-0.003934
 168	8.3500e-02	6.7089	15.853566	0.000195	1.953474	0.661855	0.015822
 169	8.4000e-02	6.7731	15.945505	0.000227	2.270254	0.769183	0.018388
 170	8.4500e-02	6.8084	16.051984	0.000263	2.629270	0.890821	0.021296
 171	8.5000e-02	6.8437	16.147772	0.000237	2.365287	0.801381	0.019158
 172	8.5500e-02	6.8773	16.235007	0.000215	2.154101	0.729829	0.017447
 173	8.6000e-02	6.9094	16.334216	0.000245	2.449762	0.830002	0.019842
 174	8.6500e-02	6.9479	16.380400	0.000114	1.140406	0.386380	0.009237
 175	8.7000e-02	6.9752	16.517240	0.000338	3.378982	1.144830	0.027368
 176	8.7500e-02	7.0394	16.649804	0.000327	3.273389	1.109054	0.026513
 177	8.8000e-02	7.1084	16.655363	0.000014	0.137271	0.046509	0.001112
 178	8.8500e-02	7.1212	16.729770	0.000184	1.837322	0.622501	0.014881
 179	8.9000e-02	7.1709	16.865327	0.000335	3.347304	1.134097	0.027111
 180	8.9500e-02	7.1838	16.934602	0.000171	1.710610	0.579570	0.013855
 181	9.0000e-02	7.2559	17.038943	0.000258	2.576474	0.872933	0.020868
 182	9.0500e-02	7.2832	17.171079	0.000326	3.262830	1.105477	0.026427
 183	9.1000e-02	7.3041	17.222394	0.000127	1.267118	0.429311	0.010263
 184	9.1500e-02	7.3329	17.320748	0.000243	2.428643	0.822847	0.019671
 185	9.2000e-02	7.3923	17.417391	0.000239	2.386406	0.808536	0.019329
 186	9.2500e-02	7.4549	17.449891	0.000080	0.802508	0.271897	0.006500
 187	9.3000e-02	7.4661	17.588014	0.000341	3.410660	1.155563	0.027625
 188	9.3500e-02	7.5239	17.666697	0.000194	1.942915	0.658277	0.015737
 189	9.4000e-02	7.5672	17.702617	0.000089	0.886983	0.300518	0.007184
 190	9.4500e-02	7.5880	17.862977	0.000396	3.959745	1.341598	0.032072
 191	9.5000e-02	7.6570	17.880509	0.000043	0.432932	0.146681	0.003507
 192	9.5500e-02	7.6875	18.012646	0.000326	3.262830	1.105477	0.026427
 193	9.6000e-02	7.7212	18.107578	0.000234	2.344169	0.794226	0.018987
 194	9.6500e-02	7.7565	18.192248	0.000209	2.090745	0.708364	0.016934
 195	9.7000e-02	7.7966	18.260668	0.000169	1.689491	0.572415	0.013684
 196	9.7500e-02	7.8672	18.359450	0.000244	2.439203	0.826424	0.019756
 197	9.8000e-02	7.8896	18.444547	0.000210	2.101304	0.711941	0.017019
 198	9.8500e-02	7.9265	18.548888	0.000258	2.576474	0.872933	0.020868
 199	9.9000e-02	7.9586	18.606190	0.000141	1.414949	0.479398	0.011460
 200	9.9500e-02	8.0067	18.662636	0.000139	1.393830	0.472242	0.011289
 201	1.0000e-01	8.0276	18.803752	0.000348	3.484575	1.180606	0.028223
 202	1.0050e-01	8.0853	18.883718	0.000197	1.974593	0.669010	0.015993
 203	1.0100e-01	8.0998	18.987204	0.000256	2.555355	0.865778	0.020697
 204	1.0150e-01	8.1688	19.056479	0.000171	1.710610	0.579570	0.013855
 205	1.0200e-01	8.1704	19.124471	0.000168	1.678932	0.568837	0.013598
 206	1.0250e-01	8.2393	19.287397	0.000402	4.023101	1.363063	0.032585
 207	1.0300e-01	8.2778	19.320324	0.000081	0.813068	0.275475	0.006585
 208	1.0350e-01	8.3244	19.408415	0.000218	2.175220	0.736984	0.017618
 209	1.0400e-01	8.3532	19.479828	0.000176	1.763406	0.597458	0.014283
 210	1.0450e-01	8.3950	19.597853	0.000291	2.914372	0.987416	0.023605
 211	1.0500e-01	8.4559	19.654299	0.000139	1.393830	0.472242	0.011289
 212	1.0550e-01	8.4880	19.729561	0.000186	1.858440	0.629657	0.015052
 213	1.0600e-01	8.5137	19.822356	0.000229	2.291372	0.776338	0.018559
 214	1.0650e-01	8.5570	19.924986	0.000253	2.534237	0.858623	0.020526
 215	1.0700e-01	8.5810	20.034030	0.000269	2.692626	0.912286	0.021809
 216	1.0750e-01	8.6452	20.116990	0.000205	2.048508	0.694053	0.016592
 217	1.0800e-01	8.6901	20.140081	0.000057	0.570203	0.193190	0.004618
 218	1.0850e-01	8.7190	20.261527	0.000300	2.998847	1.016037	0.024289
 219	1.0900e-01	8.7768	20.335934	0.000184	1.837322	0.622501	0.014881
 220	1.0950e-01	8.8249	20.435998	0.000247	2.470881	0.837157	0.020013
 221	1.1000e-01	8.8281	20.505701	0.000172	1.721169	0.583148	0.013941
 222	1.1050e-01	8.8955	20.572411	0.000165	1.647254	0.558105	0.013342
 223	1.1100e-01	8.9324	20.676751	0.000258	2.576474	0.872933	0.020868
 224	1.1150e-01	8.9516	20.780664	0.000257	2.565915	0.869355	0.020783
 225	1.1200e-01	8.9837	20.846946	0.000164	1.636694	0.554527	0.013256
 226	1.1250e-01	9.0431	20.893557	0.000115	1.150966	0.389958	0.009322
 227	1.1300e-01	9.0687	20.996187	0.000253	2.534237	0.858623	0.020526
 228	1.1350e-01	9.1265	21.095824	0.000246	2.460321	0.833579	0.019927
 229	1.1400e-01	9.1521	21.215559	0.000296	2.956609	1.001726	0.023947
 230	1.1450e-01	9.2099	21.278420	0.000155	1.552220	0.525906	0.012572
 231	1.1500e-01	9.2500	21.373353	0.000234	2.344169	0.794226	0.018987
 232	1.1550e-01	9.2741	21.435358	0.000153	1.531101	0.518751	0.012401
 233	1.1600e-01	9.3190	21.523449	0.000218	2.175220	0.736984	0.017618
 234	1.1650e-01	9.3799	21.598711	0.000186	1.858440	0.629657	0.015052
 235	1.1700e-01	9.3783	21.706473	-0.000266	-2.660948	-0.901554	0.021552
 236	1.1750e-01	9.4313	21.786866	0.000199	1.985152	0.672588	0.016079
 237	1.1800e-01	9.4842	21.868970	0.000203	2.027389	0.686898	0.016421
 238	1.1850e-01	9.5211	21.930121	0.000151	1.509983	0.511596	0.012230
 239	1.1900e-01	9.5676	22.075941	0.000360	3.600728	1.219960	0.029164
 240	1.1950e-01	9.5901	22.105875	0.000074	0.739152	0.250432	0.005987
 241	1.2000e-01	9.6334	22.185841	0.000197	1.974593	0.669010	0.015993
 242	1.2050e-01	9.6928	22.269228	0.000206	2.059067	0.697631	0.016677
 243	1.2100e-01	9.7120	22.360312	0.000225	2.249135	0.762028	0.018217
 244	1.2150e-01	9.7265	22.484323	0.000306	3.062203	1.037502	0.024802
 245	1.2200e-01	9.8035	22.534355	0.000124	1.235440	0.418579	0.010006
 246	1.2250e-01	9.8339	22.604486	0.000173	1.731728	0.586725	0.014026
 247	1.2300e-01	9.8692	22.709254	0.000259	2.587033	0.876511	0.020954
 248	1.2350e-01	9.9382	22.760141	0.000126	1.256559	0.425734	0.010177
 249	1.2400e-01	9.9719	22.855929	0.000237	2.365287	0.801381	0.019158
 250	1.2450e-01	9.9992	22.920073	0.000158	1.583898	0.536639	0.012829
 251	1.2500e-01	10.0008	23.023131	0.000254	2.544796	0.862200	0.020612
 252	1.2550e-01	10.0906	23.108228	0.000210	2.101304	0.711941	0.017019
 253	1.2600e-01	10.1532	23.142011	0.000083	0.834186	0.282630	0.006756
 254	1.2650e-01	10.1676	23.252766	0.000273	2.734864	0.926597	0.022151
 255	1.2700e-01	10.2029	23.350264	0.000241	2.407525	0.815691	0.019500
 256	1.2750e-01	10.2270	23.391316	0.000101	1.013695	0.343449	0.008210
 257	1.2800e-01	10.2767	23.487104	0.000237	2.365287	0.801381	0.019158
 258	1.2850e-01	10.2992	23.610260	0.000304	3.041084	1.030347	0.024631
 259	1.2900e-01	10.4002	23.629076	0.000046	0.464610	0.157414	0.003763
 260	1.2950e-01	10.3810	23.743680	-0.000283	-2.829897	-0.958795	0.022921
 261	1.3000e-01	10.4259	23.856145	0.000278	2.777101	0.940907	0.022493
 262	1.3050e-01	10.4772	23.914302	0.000144	1.436067	0.486553	0.011631
 263	1.3100e-01	10.5270	24.022064	0.000266	2.660948	0.901554	0.021552
 264	1.3150e-01	10.5526	24.051142	0.000072	0.718034	0.243276	0.005816
 265	1.3200e-01	10.6296	24.121700	0.000174	1.742288	0.590303	0.014112
 266	1.3250e-01	10.6361	24.250416	0.000318	3.178355	1.076856	0.025743
 267	1.3300e-01	10.6794	24.362453	0.000277	2.766542	0.937330	0.022408
 268	1.3350e-01	10.7291	24.394098	0.000078	0.781390	0.264742	0.006329
 269	1.3400e-01	10.7596	24.485609	0.000226	2.259694	0.765605	0.018302
 270	1.3450e-01	10.7869	24.592088	0.000263	2.629270	0.890821	0.021296
 271	1.3500e-01	10.8254	24.672482	0.000199	1.985152	0.672588	0.016079
 272	1.3550e-01	10.8703	24.727218	0.000135	1.351593	0.457932	0.010947
 273	1.3600e-01	10.9216	24.805901	0.000194	1.942915	0.658277	0.015737
 274	1.3650e-01	10.9601	24.846098	0.000099	0.992576	0.336294	0.008039
 275	1.3700e-01	10.9842	24.961129	0.000284	2.840457	0.962373	0.023006
 276	1.3750e-01	11.0564	25.039812	0.000194	1.942915	0.658277	0.015737
 277	1.3800e-01	11.0852	25.121488	0.000202	2.016830	0.683320	0.016335
 278	1.3850e-01	11.1318	25.186915	0.000162	1.615576	0.547372	0.013085
 279	1.3900e-01	11.1783	25.265170	0.000193	1.932355	0.654700	0.015651
 280	1.3950e-01	11.2200	25.363952	0.000244	2.439203	0.826424	0.019756
 281	1.4000e-01	11.2409	25.426385	0.000154	1.541661	0.522329	0.012487
 282	1.4050e-01	11.2794	25.555528	0.000319	3.188914	1.080433	0.025829
 283	1.4100e-01	11.3259	25.572633	0.000042	0.422373	0.143104	0.003421
 284	1.4150e-01	11.3451	25.677829	0.000260	2.597592	0.880088	0.021039
 285	1.4200e-01	11.3981	25.774044	0.000238	2.375847	0.804959	0.019243
 286	1.4250e-01	11.4574	25.784735	0.000026	0.263983	0.089440	0.002138
 287	1.4300e-01	11.4703	25.926279	0.000350	3.495135	1.184184	0.028309
 288	1.4350e-01	11.5489	26.021639	0.000235	2.354728	0.797803	0.019072
 289	1.4400e-01	11.5457	26.088349	-0.000165	-1.647254	-0.558105	0.013342
 290	1.4450e-01	11.6034	26.140947	0.000130	1.298796	0.440044	0.010520
 291	1.4500e-01	11.6339	26.246570	0.000261	2.608152	0.883666	0.021125
 292	1.4550e-01	11.6981	26.288905	0.000105	1.045373	0.354182	0.008467
 293	1.4600e-01	11.6997	26.421041	0.000326	3.262830	1.105477	0.026427
 294	1.4650e-01	11.7799	26.503573	0.000204	2.037949	0.690476	0.016506
 295	1.4700e-01	11.7911	26.559164	0.000137	1.372711	0.465087	0.011118
 296	1.4750e-01	11.8376	26.591664	0.000080	0.802508	0.271897	0.006500
 297	1.4800e-01	11.8826	26.711827	0.000297	2.967169	1.005304	0.024033
 298	1.4850e-01	11.9371	26.749030	0.000092	0.918661	0.311251	0.007441
 299	1.4900e-01	11.9435	26.868765	0.000296	2.956609	1.001726	0.023947
 300	1.4950e-01	11.9997	26.973961	0.000260	2.597592	0.880088	0.021039
 301	1.5000e-01	12.0253	27.041526	0.000167	1.668372	0.565260	0.013513
 302	1.5050e-01	12.0735	27.069321	0.000069	0.686356	0.232544	0.005559
 303	1.5100e-01	12.1071	27.183925	0.000283	2.829897	0.958795	0.022921
 304	1.5150e-01	12.1489	27.276720	0.000229	2.291372	0.776338	0.018559
 305	1.5200e-01	12.1809	27.325896	0.000121	1.214322	0.411423	0.009835
 306	1.5250e-01	12.2339	27.423823	0.000242	2.418084	0.819269	0.019585
 307	1.5300e-01	12.2740	27.462309	0.000095	0.950339	0.321983	0.007697
 308	1.5350e-01	12.3173	27.538854	0.000189	1.890118	0.640389	0.015309
 309	1.5400e-01	12.3510	27.629083	0.000223	2.228016	0.754872	0.018046
 310	1.5450e-01	12.4152	27.730858	0.000251	2.513118	0.851467	0.020355
 311	1.5500e-01	12.4505	27.765068	0.000084	0.844746	0.286208	0.006842
 312	1.5550e-01	12.4761	27.870263	0.000260	2.597592	0.880088	0.021039
 313	1.5600e-01	12.5627	27.908322	0.000094	0.939779	0.318406	0.007612
 314	1.5650e-01	12.5740	27.973321	0.000161	1.605016	0.543794	0.013000
 315	1.5700e-01	12.6125	28.134536	0.000398	3.980863	1.348753	0.032243
 316	1.5750e-01	12.6269	28.182002	0.000117	1.172084	0.397113	0.009493
 317	1.5800e-01	12.6815	28.256409	0.000184	1.837322	0.622501	0.014881
 318	1.5850e-01	12.7216	28.325257	0.000170	1.700050	0.575993	0.013770
 319	1.5900e-01	12.7745	28.406078	0.000200	1.995711	0.676165	0.016164
 320	1.5950e-01	12.8355	28.468511	0.000154	1.541661	0.522329	0.012487
 321	1.6000e-01	12.8258	28.547622	-0.000195	-1.953474	-0.661855	0.015822
 322	1.6050e-01	12.8916	28.623739	0.000188	1.879559	0.636812	0.015223
 323	1.6100e-01	12.9285	28.724659	0.000249	2.491999	0.844312	0.020184
 324	1.6150e-01	12.9189	28.858933	-0.000332	-3.315626	-1.123365	0.026855
 325	1.6200e-01	13.0296	28.826861	-0.000079	-0.791949	-0.268320	-0.006414
 326	1.6250e-01	13.0200	28.949590	-0.000303	-3.030525	-1.026770	0.024546
 327	1.6300e-01	13.0857	28.968833	0.000048	0.475169	0.160992	0.003849
 328	1.6350e-01	13.1322	29.079588	0.000273	2.734864	0.926597	0.022151
 329	1.6400e-01	13.1531	29.102252	0.000056	0.559644	0.189612	0.004533
 330	1.6450e-01	13.1948	29.257052	0.000382	3.822473	1.295089	0.030960
 331	1.6500e-01	13.2462	29.289124	0.000079	0.791949	0.268320	0.006414
 332	1.6550e-01	13.2622	29.391754	0.000253	2.534237	0.858623	0.020526
 333	1.6600e-01	13.3199	29.472575	0.000200	1.995711	0.676165	0.016164
 334	1.6650e-01	13.3761	29.532443	0.000148	1.478305	0.500863	0.011974
 335	1.6700e-01	13.4162	29.573067	0.000100	1.003135	0.339871	0.008125
 336	1.6750e-01	13.4130	29.681684	-0.000268	-2.682067	-0.908709	0.021723
 337	1.6800e-01	13.4788	29.738131	0.000139	1.393830	0.472242	0.011289
 338	1.6850e-01	13.5173	29.856583	0.000292	2.924931	0.990994	0.023690
 339	1.6900e-01	13.5606	29.889082	0.000080	0.802508	0.271897	0.006500
 340	1.6950e-01	13.6167	29.995133	0.000262	2.618711	0.887243	0.021210
 341	1.7000e-01	13.6167	30.030199	-0.000087	-0.865864	-0.293363	0.007013
 342	1.7050e-01	13.6697	30.134539	0.000258	2.576474	0.872933	0.020868
 343	1.7100e-01	13.7130	30.182006	0.000117	1.172084	0.397113	0.009493
 344	1.7150e-01	13.7515	30.291478	0.000270	2.703186	0.915864	0.021894
 345	1.7200e-01	13.7836	30.364602	0.000181	1.805644	0.611769	0.014625
 346	1.7250e-01	13.8333	30.449699	0.000210	2.101304	0.711941	0.017019
 347	1.7300e-01	13.8782	30.504008	0.000134	1.341034	0.454354	0.010862
 348	1.7350e-01	13.9199	30.582263	0.000193	1.932355	0.654700	0.015651
 349	1.7400e-01	13.9520	30.655387	0.000181	1.805644	0.611769	0.014625
 350	1.7450e-01	13.9937	30.710123	0.000135	1.351593	0.457932	0.010947
 351	1.7500e-01	14.0386	30.795648	0.000211	2.111864	0.715519	0.017105
 352	1.7550e-01	14.1124	30.803345	0.000019	0.190068	0.064397	0.001539
 353	1.7600e-01	14.1076	30.915383	-0.000277	-2.766542	-0.937330	0.022408
 354	1.7650e-01	14.1814	31.058210	0.000353	3.526813	1.194916	0.028565
 355	1.7700e-01	14.1959	31.101828	0.000108	1.077051	0.364915	0.008724
 356	1.7750e-01	14.2376	31.159129	0.000141	1.414949	0.479398	0.011460
 357	1.7800e-01	14.2793	31.258766	0.000246	2.460321	0.833579	0.019927
 358	1.7850e-01	14.3226	31.313075	0.000134	1.341034	0.454354	0.010862
 359	1.7900e-01	14.3900	31.333173	0.000050	0.496288	0.168147	0.004020
 360	1.7950e-01	14.4060	31.439224	0.000262	2.618711	0.887243	0.021210
 361	1.8000e-01	14.4333	31.549124	0.000271	2.713745	0.919442	0.021980
 362	1.8050e-01	14.4846	31.636787	0.000216	2.164660	0.733407	0.017533
 363	1.8100e-01	14.4991	31.664155	0.000068	0.675796	0.228966	0.005474
 364	1.8150e-01	14.5584	31.795436	0.000324	3.241711	1.098321	0.026256
 365	1.8200e-01	14.5921	31.799284	0.000010	0.095034	0.032198	0.000770
 366	1.8250e-01	14.6290	31.911750	0.000278	2.777101	0.940907	0.022493
 367	1.8300e-01	14.6932	31.966058	0.000134	1.341034	0.454354	0.010862
 368	1.8350e-01	14.7204	32.020367	0.000134	1.341034	0.454354	0.010862
 369	1.8400e-01	14.7830	32.125563	0.000260	2.597592	0.880088	0.021039
 370	1.8450e-01	14.7878	32.209805	0.000208	2.080186	0.704786	0.016848
 371	1.8500e-01	14.8359	32.248291	0.000095	0.950339	0.321983	0.007697
 372	1.8550e-01	14.8552	32.344934	0.000239	2.386406	0.808536	0.019329
 373	1.8600e-01	14.9322	32.424473	0.000196	1.964033	0.665433	0.015908
 374	1.8650e-01	14.9803	32.456545	0.000079	0.791949	0.268320	0.006414
 375	1.8700e-01	14.9659	32.584404	-0.000316	-3.157236	-1.069701	0.025572
 376	1.8750e-01	15.0477	32.633581	0.000121	1.214322	0.411423	0.009835
 377	1.8800e-01	15.0814	32.696015	0.000154	1.541661	0.522329	0.012487
 378	1.8850e-01	15.1375	32.723810	0.000069	0.686356	0.232544	0.005559
 379	1.8900e-01	15.1809	32.788809	0.000161	1.605016	0.543794	0.013000
 380	1.8950e-01	15.2049	32.888446	0.000246	2.460321	0.833579	0.019927
 381	1.9000e-01	15.2579	33.000484	0.000277	2.766542	0.937330	0.022408
 382	1.9050e-01	15.2707	33.019299	0.000046	0.464610	0.157414	0.003763
 383	1.9100e-01	15.3284	33.144594	0.000309	3.093880	1.048235	0.025059
 384	1.9150e-01	15.3557	33.184790	0.000099	0.992576	0.336294	0.008039
 385	1.9200e-01	15.3734	33.293835	0.000269	2.692626	0.912286	0.021809
 386	1.9250e-01	15.4311	33.337453	0.000108	1.077051	0.364915	0.008724
 387	1.9300e-01	15.4873	33.402024	0.000159	1.594457	0.540217	0.012914
 388	1.9350e-01	15.5242	33.485411	0.000206	2.059067	0.697631	0.016677
 389	1.9400e-01	15.5482	33.564949	0.000196	1.964033	0.665433	0.015908
 390	1.9450e-01	15.6156	33.607284	0.000105	1.045373	0.354182	0.008467
 391	1.9500e-01	15.6493	33.671856	0.000159	1.594457	0.540217	0.012914
 392	1.9550e-01	15.6637	33.792446	0.000298	2.977728	1.008882	0.024118
 393	1.9600e-01	15.7215	33.832643	0.000099	0.992576	0.336294	0.008039
 394	1.9650e-01	15.7600	33.883958	0.000127	1.267118	0.429311	0.010263
 395	1.9700e-01	15.7905	33.946819	0.000155	1.552220	0.525906	0.012572
 396	1.9750e-01	15.8225	34.045172	0.000243	2.428643	0.822847	0.019671
 397	1.9800e-01	15.8659	34.124711	0.000196	1.964033	0.665433	0.015908
 398	1.9850e-01	15.8996	34.199545	0.000185	1.847881	0.626079	0.014967
 399	1.9900e-01	15.9637	34.254281	0.000135	1.351593	0.457932	0.010947
 400	1.9950e-01	16.0215	34.304313	0.000124	1.235440	0.418579	0.010006
 401	2.0000e-01	16.0520	34.396253	0.000227	2.270254	0.769183	0.018388
 402	2.0050e-01	16.0808	34.466383	0.000173	1.731728	0.586725	0.014026
 403	2.0100e-01	16.1193	34.535659	0.000171	1.710610	0.579570	0.013855
 404	2.0150e-01	16.1530	34.648552	0.000279	2.787660	0.944485	0.022579
 405	2.0200e-01	16.1691	34.727235	0.000194	1.942915	0.658277	0.015737
 406	2.0250e-01	16.2188	34.743057	0.000039	0.390695	0.132371	0.003164
 407	2.0300e-01	16.2910	34.834569	0.000226	2.259694	0.765605	0.018302
 408	2.0350e-01	16.2814	34.912396	-0.000192	-1.921796	-0.651122	0.015566
 409	2.0400e-01	16.3552	34.985520	0.000181	1.805644	0.611769	0.014625
 410	2.0450e-01	16.3937	35.031704	0.000114	1.140406	0.386380	0.009237
 411	2.0500e-01	16.4450	35.089433	0.000143	1.425508	0.482975	0.011546
 412	2.0550e-01	16.4707	35.183083	0.000231	2.312491	0.783493	0.018730
 413	2.0600e-01	16.5140	35.237392	0.000134	1.341034	0.454354	0.010862
 414	2.0650e-01	16.5621	35.327621	0.000223	2.228016	0.754872	0.018046
 415	2.0700e-01	16.6070	35.365252	0.000093	0.929220	0.314828	0.007526
 416	2.0750e-01	16.6600	35.422126	0.000140	1.404389	0.475820	0.011375
 417	2.0800e-01	16.6953	35.499098	0.000190	1.900677	0.643967	0.015395
 418	2.0850e-01	16.7161	35.573933	0.000185	1.847881	0.626079	0.014967
 419	2.0900e-01	16.7546	35.665872	0.000227	2.270254	0.769183	0.018388
 420	2.0950e-01	16.8043	35.726595	0.000150	1.499423	0.508018	0.012145
 421	2.1000e-01	16.8252	35.833074	0.000263	2.629270	0.890821	0.021296
 422	2.1050e-01	16.8910	35.859586	0.000065	0.654678	0.221811	0.005303
 423	2.1100e-01	16.9279	35.922875	0.000156	1.562779	0.529484	0.012658
 424	2.1150e-01	16.9680	35.975045	0.000129	1.288237	0.436466	0.010434
 425	2.1200e-01	17.0161	36.081096	0.000262	2.618711	0.887243	0.021210
 426	2.1250e-01	17.0450	36.144813	0.000157	1.573339	0.533062	0.012743
 427	2.1300e-01	17.0658	36.176457	0.000078	0.781390	0.264742	0.006329
 428	2.1350e-01	17.1156	36.318428	0.000351	3.505694	1.187761	0.028394
 429	2.1400e-01	17.1444	36.356915	0.000095	0.950339	0.321983	0.007697
 430	2.1450e-01	17.1894	36.431321	0.000184	1.837322	0.622501	0.014881
 431	2.1500e-01	17.2455	36.463821	0.000080	0.802508	0.271897	0.006500
 432	2.1550e-01	17.3000	36.547208	0.000206	2.059067	0.697631	0.016677
 433	2.1600e-01	17.3353	36.616911	0.000172	1.721169	0.583148	0.013941
 434	2.1650e-01	17.3610	36.702008	0.000210	2.101304	0.711941	0.017019
 435	2.1700e-01	17.3963	36.722962	0.000052	0.517407	0.175302	0.004191
 436	2.1750e-01	17.4492	36.826020	0.000254	2.544796	0.862200	0.020612
 437	2.1800e-01	17.4813	36.928222	0.000252	2.523677	0.855045	0.020440
 438	2.1850e-01	17.5022	36.976116	0.000118	1.182644	0.400691	0.009579
 439	2.1900e-01	17.5455	37.049668	0.000182	1.816203	0.615346	0.014710
 440	2.1950e-01	17.6225	37.072759	0.000057	0.570203	0.193190	0.004618
 441	2.2000e-01	17.6353	37.173251	0.000248	2.481440	0.840735	0.020098
 442	2.2050e-01	17.6578	37.226704	0.000132	1.319915	0.447199	0.010691
 443	2.2100e-01	17.7332	37.339598	0.000279	2.787660	0.944485	0.022579
 444	2.2150e-01	17.7284	37.359696	-0.000050	-0.496288	-0.168147	0.004020
 445	2.2200e-01	17.8038	37.439662	0.000197	1.974593	0.669010	0.015993
 446	2.2250e-01	17.8310	37.504233	0.000159	1.594457	0.540217	0.012914
 447	2.2300e-01	17.8679	37.600877	0.000239	2.386406	0.808536	0.019329
 448	2.2350e-01	17.9241	37.635087	0.000084	0.844746	0.286208	0.006842
 449	2.2400e-01	17.9498	37.727026	0.000227	2.270254	0.769183	0.018388
 450	2.2450e-01	18.0075	37.777058	0.000124	1.235440	0.418579	0.010006
 451	2.2500e-01	18.0139	37.850182	0.000181	1.805644	0.611769	0.014625
 452	2.2550e-01	18.0893	37.887386	0.000092	0.918661	0.311251	0.007441
 453	2.2600e-01	18.1246	37.975476	0.000218	2.175220	0.736984	0.017618
 454	2.2650e-01	18.1535	38.047317	0.000177	1.773966	0.601036	0.014368
 455	2.2700e-01	18.2161	38.128994	0.000202	2.016830	0.683320	0.016335
 456	2.2750e-01	18.2674	38.177315	0.000119	1.193203	0.404268	0.009664
 457	2.2800e-01	18.2995	38.196986	0.000049	0.485729	0.164569	0.003934
 458	2.2850e-01	18.3187	38.331261	0.000332	3.315626	1.123365	0.026855
 459	2.2900e-01	18.3380	38.420207	0.000220	2.196338	0.744140	0.017789
 460	2.2950e-01	18.4006	38.457838	0.000093	0.929220	0.314828	0.007526
 461	2.3000e-01	18.4583	38.500173	0.000105	1.045373	0.354182	0.008467
 462	2.3050e-01	18.4631	38.560468	0.000149	1.488864	0.504441	0.012059
 463	2.3100e-01	18.5193	38.651980	0.000226	2.259694	0.765605	0.018302
 464	2.3150e-01	18.5770	38.729807	0.000192	1.921796	0.651122	0.015566
 465	2.3200e-01	18.5979	38.788392	0.000145	1.446627	0.490130	0.011717
 466	2.3250e-01	18.6284	38.880331	0.000227	2.270254	0.769183	0.018388
 467	2.3300e-01	18.6861	38.911548	0.000077	0.770830	0.261164	0.006243
 468	2.3350e-01	18.7150	38.956876	0.000112	1.119288	0.379225	0.009066
 469	2.3400e-01	18.7631	39.055658	0.000244	2.439203	0.826424	0.019756
 470	2.3450e-01	18.8080	39.067204	0.000029	0.285102	0.096595	0.002309
 471	2.3500e-01	18.8273	39.170689	0.000256	2.555355	0.865778	0.020697
 472	2.3550e-01	18.8802	39.246379	0.000187	1.868999	0.633234	0.015138
 473	2.3600e-01	18.9107	39.315654	0.000171	1.710610	0.579570	0.013855
 474	2.3650e-01	18.9444	39.402889	0.000215	2.154101	0.729829	0.017447
 475	2.3700e-01	19.0182	39.432396	0.000073	0.728593	0.246854	0.005901
 476	2.3750e-01	19.0647	39.476441	0.000109	1.087610	0.368492	0.008809
 477	2.3800e-01	19.0807	39.550420	0.000183	1.826762	0.618924	0.014796
 478	2.3850e-01	19.1289	39.626110	0.000187	1.868999	0.633234	0.015138
 479	2.3900e-01	19.1433	39.728312	0.000252	2.523677	0.855045	0.020440
 480	2.3950e-01	19.2059	39.771930	0.000108	1.077051	0.364915	0.008724
 481	2.4000e-01	19.2315	39.850613	0.000194	1.942915	0.658277	0.015737
 482	2.4050e-01	19.2957	39.901928	0.000127	1.267118	0.429311	0.010263
 483	2.4100e-01	19.3230	39.958802	0.000140	1.404389	0.475820	0.011375
 484	2.4150e-01	19.3647	40.042617	0.000207	2.069627	0.701208	0.016763
 485	2.4200e-01	19.4048	40.120017	0.000191	1.911237	0.647545	0.015480
 486	2.4250e-01	19.4176	40.194852	0.000185	1.847881	0.626079	0.014967
 487	2.4300e-01	19.4930	40.238897	0.000109	1.087610	0.368492	0.008809
 488	2.4350e-01	19.5123	40.268831	0.000074	0.739152	0.250432	0.005987
 489	2.4400e-01	19.5476	40.321001	0.000129	1.288237	0.436466	0.010434
 490	2.4450e-01	19.5925	40.450571	0.000320	3.199474	1.084011	0.025914
 491	2.4500e-01	19.6310	40.480505	0.000074	0.739152	0.250432	0.005987
 492	2.4550e-01	19.6839	40.553201	0.000180	1.795084	0.608191	0.014539
 493	2.4600e-01	19.7192	40.638727	0.000211	2.111864	0.715519	0.017105
 494	2.4650e-01	19.7593	40.653266	0.000036	0.359017	0.121638	0.002908
 495	2.4700e-01	19.8043	40.749481	0.000238	2.375847	0.804959	0.019243
 496	2.4750e-01	19.8299	40.800369	0.000126	1.256559	0.425734	0.010177
 497	2.4800e-01	19.8973	40.846125	0.000113	1.129847	0.382803	0.009151
 498	2.4850e-01	19.9085	40.965432	0.000295	2.946050	0.998149	0.023861
 499	2.4900e-01	19.9583	41.022306	0.000140	1.404389	0.475820	0.011375
 500	2.4950e-01	19.9903	41.092865	0.000174	1.742288	0.590303	0.014112
 501	2.5000e-01	20.0625	41.129213	0.000090	0.897542	0.304095	0.007270
 502	2.5050e-01	19.9903	41.115101	0.000035	0.348458	0.118061	-0.002822
 503	2.5100e-01	19.9470	41.038984	0.000188	1.879559	0.636812	-0.015223
 504	2.5150e-01	19.9101	41.016320	0.000056	0.559644	0.189612	-0.004533
 505	2.5200e-01	19.8572	40.967143	0.000121	1.214322	0.411423	-0.009835
 506	2.5250e-01	19.8123	40.896157	0.000175	1.752847	0.593881	-0.014197
 507	2.5300e-01	19.7674	40.849546	0.000115	1.150966	0.389958	-0.009322
 508	2.5350e-01	19.7593	40.776422	0.000181	1.805644	0.611769	-0.014625
 509	2.5400e-01	19.6775	40.739218	0.000092	0.918661	0.311251	-0.007441
 510	2.5450e-01	19.6615	40.694318	0.000111	1.108728	0.375647	-0.008980
 511	2.5500e-01	19.6134	40.635306	0.000146	1.457186	0.493708	-0.011802
 512	2.5550e-01	19.5765	40.576721	0.000145	1.446627	0.490130	-0.011717
 513	2.5600e-01	19.5380	40.493762	0.000205	2.048508	0.694053	-0.016592
 514	2.5650e-01	19.4818	40.419782	0.000183	1.826762	0.618924	-0.014796
 515	2.5700e-01	19.4834	40.374882	-0.000111	-1.108728	-0.375647	-0.008980
 516	2.5750e-01	19.4208	40.296626	0.000193	1.932355	0.654700	-0.015651
 517	2.5800e-01	19.4433	40.204259	-0.000228	-2.280813	-0.772760	-0.018473
 518	2.5850e-01	19.3406	40.187154	0.000042	0.422373	0.143104	-0.003421
 519	2.5900e-01	19.3085	40.141826	0.000112	1.119288	0.379225	-0.009066
 520	2.5950e-01	19.2620	40.089228	0.000130	1.298796	0.440044	-0.010520
 521	2.6000e-01	19.2267	40.006269	0.000205	2.048508	0.694053	-0.016592
 522	2.6050e-01	19.1754	39.951960	0.000134	1.341034	0.454354	-0.010862
 523	2.6100e-01	19.1337	39.884396	0.000167	1.668372	0.565260	-0.013513
 524	2.6150e-01	19.1176	39.863442	0.000052	0.517407	0.175302	-0.004191
 525	2.6200e-01	19.0583	39.778772	0.000209	2.090745	0.708364	-0.016934
 526	2.6250e-01	19.0134	39.730023	0.000120	1.203762	0.407846	-0.009750
 527	2.6300e-01	18.9733	39.680846	0.000121	1.214322	0.411423	-0.009835
 528	2.6350e-01	18.9267	39.603873	0.000190	1.900677	0.643967	-0.015395
 529	2.6400e-01	18.9203	39.518776	0.000210	2.101304	0.711941	-0.017019
 530	2.6450e-01	18.8578	39.487132	0.000078	0.781390	0.264742	-0.006329
 531	2.6500e-01	18.8144	39.415291	0.000177	1.773966	0.601036	-0.014368
 532	2.6550e-01	18.7791	39.365258	0.000124	1.235440	0.418579	-0.010006
 533	2.6600e-01	18.7471	39.333187	0.000079	0.791949	0.268320	-0.006414
 534	2.6650e-01	18.6652	39.280589	0.000130	1.298796	0.440044	-0.010520
 535	2.6700e-01	18.6733	39.150163	-0.000322	-3.220592	-1.091166	-0.026085
 536	2.6750e-01	18.6107	39.111677	0.000095	0.950339	0.321983	-0.007697
 537	2.6800e-01	18.5690	39.052664	0.000146	1.457186	0.493708	-0.011802
 538	2.6850e-01	18.5401	38.980396	0.000178	1.784525	0.604613	-0.014454
 539	2.6900e-01	18.5177	38.901285	0.000195	1.953474	0.661855	-0.015822
 540	2.6950e-01	18.4583	38.882897	0.000045	0.454051	0.153837	-0.003678
 541	2.7000e-01	18.4086	38.830299	0.000130	1.298796	0.440044	-0.010520
 542	2.7050e-01	18.3781	38.768294	0.000153	1.531101	0.518751	-0.012401
 543	2.7100e-01	18.3380	38.696453	0.000177	1.773966	0.601036	-0.014368
 544	2.7150e-01	18.3075	38.607506	0.000220	2.196338	0.744140	-0.017789
 545	2.7200e-01	18.2546	38.555764	0.000128	1.277678	0.432889	-0.010349
 546	2.7250e-01	18.2241	38.505304	0.000125	1.246000	0.422156	-0.010092
 547	2.7300e-01	18.1856	38.391128	0.000282	2.819338	0.955218	-0.022835
 548	2.7350e-01	18.1198	38.406950	-0.000039	-0.390695	-0.132371	0.003164
 549	2.7400e-01	18.0974	38.306886	0.000247	2.470881	0.837157	-0.020013
 550	2.7450e-01	18.0621	38.252578	0.000134	1.341034	0.454354	-0.010862
 551	2.7500e-01	18.0236	38.183730	0.000170	1.700050	0.575993	-0.013770
 552	2.7550e-01	17.9963	38.136691	0.000116	1.161525	0.393535	-0.009408
 553	2.7600e-01	17.9466	38.066988	0.000172	1.721169	0.583148	-0.013941
 554	2.7650e-01	17.8728	38.035771	0.000077	0.770830	0.261164	-0.006243
 555	2.7700e-01	17.8695	37.910477	0.000309	3.093880	1.048235	-0.025059
 556	2.7750e-01	17.7958	37.913898	-0.000008	-0.084475	-0.028621	0.000684
 557	2.7800e-01	17.7589	37.847189	0.000165	1.647254	0.558105	-0.013342
 558	2.7850e-01	17.7540	37.724460	0.000303	3.030525	1.026770	-0.024546
 559	2.7900e-01	17.6786	37.702224	0.000055	0.549085	0.186035	-0.004447
 560	2.7950e-01	17.6257	37.646205	0.000138	1.383271	0.468665	-0.011204
 561	2.8000e-01	17.6305	37.542720	-0.000256	-2.555355	-0.865778	-0.020697
 562	2.8050e-01	17.5680	37.509792	0.000081	0.813068	0.275475	-0.006585
 563	2.8100e-01	17.5407	37.440517	0.000171	1.710610	0.579570	-0.013855
 564	2.8150e-01	17.5182	37.340453	0.000247	2.470881	0.837157	-0.020013
 565	2.8200e-01	17.4444	37.331473	0.000022	0.221746	0.075129	-0.001796
 566	2.8250e-01	17.4139	37.233974	0.000241	2.407525	0.815691	-0.019500
 567	2.8300e-01	17.3915	37.195488	0.000095	0.950339	0.321983	-0.007697
 568	2.8350e-01	17.3642	37.086871	0.000268	2.682067	0.908709	-0.021723
 569	2.8400e-01	17.2952	37.038977	0.000118	1.182644	0.400691	-0.009579
 570	2.8450e-01	17.2744	36.996214	0.000106	1.055932	0.357759	-0.008553
 571	2.8500e-01	17.2311	36.906841	0.000221	2.206898	0.747717	-0.017875
 572	2.8550e-01	17.1765	36.859374	0.000117	1.172084	0.397113	-0.009493
 573	2.8600e-01	17.1396	36.800790	0.000145	1.446627	0.490130	-0.011717
 574	2.8650e-01	17.0819	36.750758	0.000124	1.235440	0.418579	-0.010006
 575	2.8700e-01	17.0337	36.682765	0.000168	1.678932	0.568837	-0.013598
 576	2.8750e-01	17.0145	36.546780	0.000336	3.357863	1.137675	-0.027197
 577	2.8800e-01	16.9744	36.568162	-0.000053	-0.527966	-0.178880	0.004276
 578	2.8850e-01	16.9664	36.452703	0.000285	2.851016	0.965950	-0.023092
 579	2.8900e-01	16.8878	36.400960	0.000128	1.277678	0.432889	-0.010349
 580	2.8950e-01	16.8493	36.361619	0.000097	0.971457	0.329139	-0.007868
 581	2.9000e-01	16.8108	36.273528	0.000218	2.175220	0.736984	-0.017618
 582	2.9050e-01	16.7723	36.202970	0.000174	1.742288	0.590303	-0.014112
 583	2.9100e-01	16.7209	36.135832	0.000166	1.657813	0.561682	-0.013427
 584	2.9150e-01	16.6872	36.113168	0.000056	0.559644	0.189612	-0.004533
 585	2.9200e-01	16.6808	36.010111	0.000254	2.544796	0.862200	-0.020612
 586	2.9250e-01	16.6231	35.929289	0.000200	1.995711	0.676165	-0.016164
 587	2.9300e-01	16.5733	35.923303	0.000015	0.147830	0.050086	-0.001197
 588	2.9350e-01	16.5461	35.822811	0.000248	2.481440	0.840735	-0.020098
 589	2.9400e-01	16.5027	35.717187	0.000261	2.608152	0.883666	-0.021125
 590	2.9450e-01	16.4498	35.697516	0.000049	0.485729	0.164569	-0.003934
 591	2.9500e-01	16.4289	35.643208	0.000134	1.341034	0.454354	-0.010862
 592	2.9550e-01	16.3953	35.573505	0.000172	1.721169	0.583148	-0.013941
 593	2.9600e-01	16.3471	35.480283	0.000230	2.301932	0.779916	-0.018644
 594	2.9650e-01	16.2942	35.433244	0.000116	1.161525	0.393535	-0.009408
 595	2.9700e-01	16.2653	35.361831	0.000176	1.763406	0.597458	-0.014283
 596	2.9750e-01	16.2156	35.315647	0.000114	1.140406	0.386380	-0.009237
 597	2.9800e-01	16.1803	35.234398	0.000201	2.006271	0.679743	-0.016250
 598	2.9850e-01	16.1354	35.144169	0.000223	2.228016	0.754872	-0.018046
 599	2.9900e-01	16.0953	35.152722	-0.000021	-0.211186	-0.071552	0.001711
 600	2.9950e-01	16.0503	35.056079	0.000239	2.386406	0.808536	-0.019329
 601	3.0000e-01	16.0102	34.980389	0.000187	1.868999	0.633234	-0.015138
 602	3.0050e-01	15.9782	34.907265	0.000181	1.805644	0.611769	-0.014625
 603	3.0100e-01	15.9300	34.833286	0.000183	1.826762	0.618924	-0.014796
 604	3.0150e-01	15.9076	34.799503	0.000083	0.834186	0.282630	-0.006756
 605	3.0200e-01	15.8578	34.746906	0.000130	1.298796	0.440044	-0.010520
 606	3.0250e-01	15.8386	34.602368	0.000357	3.569050	1.209227	-0.028907
 607	3.0300e-01	15.7889	34.542501	0.000148	1.478305	0.500863	-0.011974
 608	3.0350e-01	15.7423	34.512139	0.000075	0.749712	0.254009	-0.006072
 609	3.0400e-01	15.7070	34.431318	0.000200	1.995711	0.676165	-0.016164
 610	3.0450e-01	15.6493	34.378293	0.000131	1.309356	0.443622	-0.010605
 611	3.0500e-01	15.5947	34.325695	0.000130	1.298796	0.440044	-0.010520
 612	3.0550e-01	15.5851	34.240170	0.000211	2.111864	0.715519	-0.017105
 613	3.0600e-01	15.5659	34.134118	0.000262	2.618711	0.887243	-0.021210
 614	3.0650e-01	15.5049	34.132408	0.000004	0.042237	0.014310	-0.000342
 615	3.0700e-01	15.4311	34.072113	0.000149	1.488864	0.504441	-0.012059
 616	3.0750e-01	15.4311	34.002838	0.000171	1.710610	0.579570	-0.013855
 617	3.0800e-01	15.3814	33.922444	0.000199	1.985152	0.672588	-0.016079
 618	3.0850e-01	15.3365	33.826228	0.000238	2.375847	0.804959	-0.019243
 619	3.0900e-01	15.2771	33.774486	0.000128	1.277678	0.432889	-0.010349
 620	3.0950e-01	15.2627	33.739848	0.000086	0.855305	0.289785	-0.006928
 621	3.1000e-01	15.2242	33.646626	0.000230	2.301932	0.779916	-0.018644
 622	3.1050e-01	15.1712	33.581627	0.000161	1.605016	0.543794	-0.013000
 623	3.1100e-01	15.1327	33.522187	0.000147	1.467745	0.497286	-0.011888
 624	3.1150e-01	15.0926	33.435379	0.000214	2.143542	0.726252	-0.017362
 625	3.1200e-01	15.0493	33.383209	0.000129	1.288237	0.436466	-0.010434
 626	3.1250e-01	15.0108	33.288703	0.000233	2.333609	0.790648	-0.018901
 627	3.1300e-01	14.9787	33.212586	0.000188	1.879559	0.636812	-0.015223
 628	3.1350e-01	14.9370	33.204034	0.000021	0.211186	0.071552	-0.001711
 629	3.1400e-01	14.8761	33.091996	0.000277	2.766542	0.937330	-0.022408
 630	3.1450e-01	14.8584	32.996208	0.000237	2.365287	0.801381	-0.019158
 631	3.1500e-01	14.7958	32.980813	0.000038	0.380135	0.128793	-0.003079
 632	3.1550e-01	14.7846	32.894433	0.000213	2.132982	0.722674	-0.017276
 633	3.1600e-01	14.7381	32.841835	0.000130	1.298796	0.440044	-0.010520
 634	3.1650e-01	14.6916	32.775125	0.000165	1.647254	0.558105	-0.013342
 635	3.1700e-01	14.6707	32.682758	0.000228	2.280813	0.772760	-0.018473
 636	3.1750e-01	14.6226	32.633581	0.000121	1.214322	0.411423	-0.009835
 637	3.1800e-01	14.5568	32.553615	0.000197	1.974593	0.669010	-0.015993
 638	3.1850e-01	14.5600	32.455689	-0.000242	-2.418084	-0.819269	-0.019585
 639	3.1900e-01	14.5007	32.436019	0.000049	0.485729	0.164569	-0.003934
 640	3.1950e-01	14.4702	32.326546	0.000270	2.703186	0.915864	-0.021894
 641	3.2000e-01	14.4204	32.238028	0.000219	2.185779	0.740562	-0.017704
 642	3.2050e-01	14.3771	32.223489	0.000036	0.359017	0.121638	-0.002908
 643	3.2100e-01	14.3354	32.117438	0.000262	2.618711	0.887243	-0.021210
 644	3.2150e-01	14.2664	32.106747	0.000026	0.263983	0.089440	-0.002138
 645	3.2200e-01	14.2600	32.022077	0.000209	2.090745	0.708364	-0.016934
 646	3.2250e-01	14.2295	31.906618	0.000285	2.851016	0.965950	-0.023092
 647	3.2300e-01	14.1606	31.889513	0.000042	0.422373	0.143104	-0.003421
 648	3.2350e-01	14.1285	31.789449	0.000247	2.470881	0.837157	-0.020013
 649	3.2400e-01	14.1012	31.731292	0.000144	1.436067	0.486553	-0.011631
 650	3.2450e-01	14.0418	31.676556	0.000135	1.351593	0.457932	-0.010947
 651	3.2500e-01	13.9889	31.622675	0.000133	1.330474	0.450777	-0.010776
 652	3.2550e-01	13.9745	31.505506	0.000289	2.893253	0.980261	-0.023434
 653	3.2600e-01	13.9344	31.408863	0.000239	2.386406	0.808536	-0.019329
 654	3.2650e-01	13.9103	31.366100	0.000106	1.055932	0.357759	-0.008553
 655	3.2700e-01	13.8670	31.285707	0.000199	1.985152	0.672588	-0.016079
 656	3.2750e-01	13.8012	31.257056	0.000071	0.707474	0.239699	-0.005730
 657	3.2800e-01	13.7884	31.172813	0.000208	2.080186	0.704786	-0.016848
 658	3.2850e-01	13.7226	31.083012	0.000222	2.217457	0.751295	-0.017960
 659	3.2900e-01	13.7066	30.994921	0.000218	2.175220	0.736984	-0.017618
 660	3.2950e-01	13.6713	30.931633	0.000156	1.562779	0.529484	-0.012658
 661	3.3000e-01	13.6103	30.844825	0.000214	2.143542	0.726252	-0.017362
 662	3.3050e-01	13.5814	30.820023	0.000061	0.612441	0.207500	-0.004960
 663	3.3100e-01	13.5285	30.703709	0.000287	2.872135	0.973106	-0.023263
 664	3.3150e-01	13.4996	30.621604	0.000203	2.027389	0.686898	-0.016421
 665	3.3200e-01	13.4723	30.572855	0.000120	1.203762	0.407846	-0.009750
 666	3.3250e-01	13.3841	30.566013	0.000017	0.168949	0.057242	-0.001368
 667	3.3300e-01	13.4130	30.392825	-0.000428	-4.276524	-1.448926	-0.034638
 668	3.3350e-01	13.3344	30.426607	-0.000083	-0.834186	-0.282630	0.006756
 669	3.3400e-01	13.2975	30.314570	0.000277	2.766542	0.937330	-0.022408
 670	3.3450e-01	13.2606	30.261544	0.000131	1.309356	0.443622	-0.010605
 671	3.3500e-01	13.2301	30.145230	0.000287	2.872135	0.973106	-0.023263
 672	3.3550e-01	13.1691	30.114013	0.000077	0.770830	0.261164	-0.006243
 673	3.3600e-01	13.1419	30.016942	0.000240	2.396965	0.812114	-0.019414
 674	3.3650e-01	13.1066	29.972042	0.000111	1.108728	0.375647	-0.008980
 675	3.3700e-01	13.0520	29.865563	0.000263	2.629270	0.890821	-0.021296
 676	3.3750e-01	13.0280	29.774479	0.000225	2.249135	0.762028	-0.018217
 677	3.3800e-01	13.0023	29.740696	0.000083	0.834186	0.282630	-0.006756
 678	3.3850e-01	12.9365	29.665007	0.000187	1.868999	0.633234	-0.015138
 679	3.3900e-01	12.9253	29.549976	0.000284	2.840457	0.962373	-0.023006
 680	3.3950e-01	12.8692	29.535864	0.000035	0.348458	0.118061	-0.002822
 681	3.4000e-01	12.8274	29.464023	0.000177	1.773966	0.601036	-0.014368
 682	3.4050e-01	12.7761	29.393465	0.000174	1.742288	0.590303	-0.014112
 683	3.4100e-01	12.7440	29.314782	0.000194	1.942915	0.658277	-0.015737
 684	3.4150e-01	12.6766	29.274585	0.000099	0.992576	0.336294	-0.008039
 685	3.4200e-01	12.6430	29.141593	0.000328	3.283948	1.112632	-0.026598
 686	3.4250e-01	12.6301	29.101397	0.000099	0.992576	0.336294	-0.008039
 687	3.4300e-01	12.5740	29.023996	0.000191	1.911237	0.647545	-0.015480
 688	3.4350e-01	12.5387	28.944886	0.000195	1.953474	0.661855	-0.015822
 689	3.4400e-01	12.4617	28.852519	0.000228	2.280813	0.772760	-0.018473
 690	3.4450e-01	12.4296	28.802059	0.000125	1.246000	0.422156	-0.010092
 691	3.4500e-01	12.4071	28.751172	0.000126	1.256559	0.425734	-0.010177
 692	3.4550e-01	12.4023	28.656666	0.000233	2.333609	0.790648	-0.018901
 693	3.4600e-01	12.3462	28.597226	0.000147	1.467745	0.497286	-0.011888
 694	3.4650e-01	12.2820	28.504004	0.000230	2.301932	0.779916	-0.018644
 695	3.4700e-01	12.2371	28.440288	0.000157	1.573339	0.533062	-0.012743
 696	3.4750e-01	12.2291	28.399236	0.000101	1.013695	0.343449	-0.008210
 697	3.4800e-01	12.1809	28.300454	0.000244	2.439203	0.826424	-0.019756
 698	3.4850e-01	12.1360	28.205949	0.000233	2.333609	0.790648	-0.018901
 699	3.4900e-01	12.1071	28.114010	0.000227	2.270254	0.769183	-0.018388
 700	3.4950e-01	12.0654	28.088352	0.000063	0.633559	0.214656	-0.005132
 701	3.5000e-01	12.0237	27.947664	0.000347	3.474016	1.177028	-0.028138
 702	3.5050e-01	11.9740	27.875395	0.000178	1.784525	0.604613	-0.014454
 703	3.5100e-01	11.9531	27.845034	0.000075	0.749712	0.254009	-0.006072
 704	3.5150e-01	11.8922	27.760791	0.000208	2.080186	0.704786	-0.016848
 705	3.5200e-01	11.8649	27.700496	0.000149	1.488864	0.504441	-0.012059
 706	3.5250e-01	11.8120	27.623524	0.000190	1.900677	0.643967	-0.015395
 707	3.5300e-01	11.7687	27.535860	0.000216	2.164660	0.733407	-0.017533
 708	3.5350e-01	11.7350	27.446487	0.000221	2.206898	0.747717	-0.017875
 709	3.5400e-01	11.7221	27.402441	0.000109	1.087610	0.368492	-0.008809
 710	3.5450e-01	11.6756	27.321620	0.000200	1.995711	0.676165	-0.016164
 711	3.5500e-01	11.6146	27.245503	0.000188	1.879559	0.636812	-0.015223
 712	3.5550e-01	11.5842	27.147149	0.000243	2.428643	0.822847	-0.019671
 713	3.5600e-01	11.5296	27.127478	0.000049	0.485729	0.164569	-0.003934
 714	3.5650e-01	11.5264	27.001329	0.000311	3.114999	1.055390	-0.025230
 715	3.5700e-01	11.4735	26.933336	0.000168	1.678932	0.568837	-0.013598
 716	3.5750e-01	11.4671	26.867482	0.000163	1.626135	0.550949	-0.013171
 717	3.5800e-01	11.3965	26.796924	0.000174	1.742288	0.590303	-0.014112
 718	3.5850e-01	11.3082	26.744326	0.000130	1.298796	0.440044	-0.010520
 719	3.5900e-01	11.2986	26.639558	0.000259	2.587033	0.876511	-0.020954
 720	3.5950e-01	11.2681	26.533934	0.000261	2.608152	0.883666	-0.021125
 721	3.6000e-01	11.2168	26.492027	0.000103	1.034813	0.350604	-0.008381
 722	3.6050e-01	11.1911	26.421469	0.000174	1.742288	0.590303	-0.014112
 723	3.6100e-01	11.1350	26.369726	0.000128	1.277678	0.432889	-0.010349
 724	3.6150e-01	11.1029	26.304300	0.000162	1.615576	0.547372	-0.013085
 725	3.6200e-01	11.0419	26.184992	0.000295	2.946050	0.998149	-0.023861
 726	3.6250e-01	11.0098	26.152920	0.000079	0.791949	0.268320	-0.006414
 727	3.6300e-01	10.9938	26.013087	0.000345	3.452897	1.169873	-0.027967
 728	3.6350e-01	10.9345	25.955785	0.000141	1.414949	0.479398	-0.011460
 729	3.6400e-01	10.9120	25.833912	0.000301	3.009406	1.019614	-0.024375
 730	3.6450e-01	10.8687	25.818517	0.000038	0.380135	0.128793	-0.003079
 731	3.6500e-01	10.8414	25.720164	0.000243	2.428643	0.822847	-0.019671
 732	3.6550e-01	10.7740	25.663717	0.000139	1.393830	0.472242	-0.011289
 733	3.6600e-01	10.7612	25.588883	0.000185	1.847881	0.626079	-0.014967
 734	3.6650e-01	10.7211	25.466154	0.000303	3.030525	1.026770	-0.024546
 735	3.6700e-01	10.6489	25.445201	0.000052	0.517407	0.175302	-0.004191
 736	3.6750e-01	10.6264	25.393458	0.000128	1.277678	0.432889	-0.010349
 737	3.6800e-01	10.5911	25.249776	0.000355	3.547931	1.202072	-0.028736
 738	3.6850e-01	10.5190	25.169382	0.000199	1.985152	0.672588	-0.016079
 739	3.6900e-01	10.5061	25.144152	0.000062	0.623000	0.211078	-0.005046
 740	3.6950e-01	10.4179	25.031259	0.000279	2.787660	0.944485	-0.022579
 741	3.7000e-01	10.4131	24.985503	0.000113	1.129847	0.382803	-0.009151
 742	3.7050e-01	10.3762	24.902544	0.000205	2.048508	0.694053	-0.016592
 743	3.7100e-01	10.3377	24.812315	0.000223	2.228016	0.754872	-0.018046
 744	3.7150e-01	10.3120	24.710968	0.000250	2.502559	0.847890	-0.020269
 745	3.7200e-01	10.2462	24.638699	0.000178	1.784525	0.604613	-0.014454
 746	3.7250e-01	10.2093	24.587812	0.000126	1.256559	0.425734	-0.010177
 747	3.7300e-01	10.1853	24.493734	0.000232	2.323050	0.787071	-0.018816
 748	3.7350e-01	10.1259	24.470215	0.000058	0.580763	0.196768	-0.004704
 749	3.7400e-01	10.1035	24.317125	0.000378	3.780236	1.280779	-0.030618
 750	3.7450e-01	10.0714	24.234593	0.000204	2.037949	0.690476	-0.016506
 751	3.7500e-01	10.0232	24.165318	0.000171	1.710610	0.579570	-0.013855
 752	3.7550e-01	9.9831	24.100319	0.000161	1.605016	0.543794	-0.013000
 753	3.7600e-01	9.9671	24.028050	0.000178	1.784525	0.604613	-0.014454
 754	3.7650e-01	9.9045	23.916013	0.000277	2.766542	0.937330	-0.022408
 755	3.7700e-01	9.8516	23.865553	0.000125	1.246000	0.422156	-0.010092
 756	3.7750e-01	9.8275	23.748383	0.000289	2.893253	0.980261	-0.023434
 757	3.7800e-01	9.7409	23.739403	0.000022	0.221746	0.075129	-0.001796
 758	3.7850e-01	9.7184	23.653878	0.000211	2.111864	0.715519	-0.017105
 759	3.7900e-01	9.7233	23.537992	-0.000286	-2.861575	-0.969528	-0.023177
 760	3.7950e-01	9.6495	23.493519	0.000110	1.098169	0.372070	-0.008895
 761	3.8000e-01	9.6013	23.408849	0.000209	2.090745	0.708364	-0.016934
 762	3.8050e-01	9.5628	23.298949	0.000271	2.713745	0.919442	-0.021980
 763	3.8100e-01	9.5307	23.301515	-0.000006	-0.063356	-0.021466	0.000513
 764	3.8150e-01	9.4971	23.177076	0.000307	3.072762	1.041080	-0.024888
 765	3.8200e-01	9.4409	23.092834	0.000208	2.080186	0.704786	-0.016848
 766	3.8250e-01	9.4040	22.998756	0.000232	2.323050	0.787071	-0.018816
 767	3.8300e-01	9.3783	22.947441	0.000127	1.267118	0.429311	-0.010263
 768	3.8350e-01	9.3447	22.848660	0.000244	2.439203	0.826424	-0.019756
 769	3.8400e-01	9.3302	22.751589	0.000240	2.396965	0.812114	-0.019414
 770	3.8450e-01	9.2677	22.693004	0.000145	1.446627	0.490130	-0.011717
 771	3.8500e-01	9.2195	22.597216	0.000237	2.365287	0.801381	-0.019158
 772	3.8550e-01	9.1650	22.533928	0.000156	1.562779	0.529484	-0.012658
 773	3.8600e-01	9.1457	22.423600	0.000272	2.724304	0.923019	-0.022065
 774	3.8650e-01	9.0848	22.380410	0.000107	1.066491	0.361337	-0.008638
 775	3.8700e-01	9.0591	22.278208	0.000252	2.523677	0.855045	-0.020440
 776	3.8750e-01	9.0190	22.174295	0.000257	2.565915	0.869355	-0.020783
 777	3.8800e-01	8.9757	22.134953	0.000097	0.971457	0.329139	-0.007868
 778	3.8850e-01	8.9260	22.010514	0.000307	3.072762	1.041080	-0.024888
 779	3.8900e-01	8.8778	21.953640	0.000140	1.404389	0.475820	-0.011375
 780	3.8950e-01	8.8489	21.886503	0.000166	1.657813	0.561682	-0.013427
 781	3.9000e-01	8.8024	21.756505	0.000321	3.210033	1.087589	-0.026000
 782	3.9050e-01	8.7687	21.725288	0.000077	0.770830	0.261164	-0.006243
 783	3.9100e-01	8.7367	21.616244	0.000269	2.692626	0.912286	-0.021809
 784	3.9150e-01	8.7094	21.598284	0.000044	0.443491	0.150259	-0.003592
 785	3.9200e-01	8.6693	21.447759	0.000372	3.716880	1.259313	-0.030105
 786	3.9250e-01	8.6035	21.418681	0.000072	0.718034	0.243276	-0.005816
 787	3.9300e-01	8.5650	21.311775	0.000264	2.639830	0.894399	-0.021381
 788	3.9350e-01	8.5361	21.210855	0.000249	2.491999	0.844312	-0.020184
 789	3.9400e-01	8.4880	21.170658	0.000099	0.992576	0.336294	-0.008039
 790	3.9450e-01	8.4543	21.051778	0.000294	2.935491	0.994571	-0.023776
 791	3.9500e-01	8.4158	20.944017	0.000266	2.660948	0.901554	-0.021552
 792	3.9550e-01	8.3468	20.920925	0.000057	0.570203	0.193190	-0.004618
 793	3.9600e-01	8.3436	20.781519	0.000344	3.442338	1.166296	-0.027881
 794	3.9650e-01	8.3179	20.720796	0.000150	1.499423	0.508018	-0.012145
 795	3.9700e-01	8.2698	20.613035	0.000266	2.660948	0.901554	-0.021552
 796	3.9750e-01	8.2137	20.548891	0.000158	1.583898	0.536639	-0.012829
 797	3.9800e-01	8.1704	20.488596	0.000149	1.488864	0.504441	-0.012059
 798	3.9850e-01	8.1351	20.380834	0.000266	2.660948	0.901554	-0.021552
 799	3.9900e-01	8.1046	20.320539	0.000149	1.488864	0.504441	-0.012059
 800	3.9950e-01	8.0741	20.205936	0.000283	2.829897	0.958795	-0.022921
 801	4.0000e-01	8.0404	20.160180	0.000113	1.129847	0.382803	-0.009151
 802	4.0050e-01	7.9730	20.083207	0.000190	1.900677	0.643967	-0.015395
 803	4.0100e-01	7.9377	20.005379	0.000192	1.921796	0.651122	-0.015566
 804	4.0150e-01	7.8944	19.865974	0.000344	3.442338	1.166296	-0.027881
 805	4.0200e-01	7.8351	19.846730	0.000048	0.475169	0.160992	-0.003849
 806	4.0250e-01	7.8222	19.719298	0.000315	3.146677	1.066123	-0.025486
 807	4.0300e-01	7.7645	19.651733	0.000167	1.668372	0.565260	-0.013513
 808	4.0350e-01	7.7212	19.569202	0.000204	2.037949	0.690476	-0.016506
 809	4.0400e-01	7.6971	19.475979	0.000230	2.301932	0.779916	-0.018644
 810	4.0450e-01	7.6522	19.424664	0.000127	1.267118	0.429311	-0.010263
 811	4.0500e-01	7.6105	19.339994	0.000209	2.090745	0.708364	-0.016934
 812	4.0550e-01	7.5880	19.228384	0.000276	2.755982	0.933752	-0.022322
 813	4.0600e-01	7.5463	19.116774	0.000276	2.755982	0.933752	-0.022322
 814	4.0650e-01	7.4677	19.076150	0.000100	1.003135	0.339871	-0.008125
 815	4.0700e-01	7.4677	18.982927	0.000230	2.301932	0.779916	-0.018644
 816	4.0750e-01	7.4148	18.910659	0.000178	1.784525	0.604613	-0.014454
 817	4.0800e-01	7.3827	18.777667	0.000328	3.283948	1.112632	-0.026598
 818	4.0850e-01	7.3249	18.753720	0.000059	0.591322	0.200345	-0.004789
 819	4.0900e-01	7.3089	18.630564	0.000304	3.041084	1.030347	-0.024631
 820	4.0950e-01	7.2495	18.518099	0.000278	2.777101	0.940907	-0.022493
 821	4.1000e-01	7.2142	18.481751	0.000090	0.897542	0.304095	-0.007270
 822	4.1050e-01	7.1998	18.355173	0.000313	3.125558	1.058968	-0.025315
 823	4.1100e-01	7.1388	18.267938	0.000215	2.154101	0.729829	-0.017447
 824	4.1150e-01	7.0811	18.210636	0.000141	1.414949	0.479398	-0.011460
 825	4.1200e-01	7.0442	18.139650	0.000175	1.752847	0.593881	-0.014197
 826	4.1250e-01	7.0137	18.054981	0.000209	2.090745	0.708364	-0.016934
 827	4.1300e-01	6.9929	17.916430	0.000342	3.421219	1.159140	-0.027710
 828	4.1350e-01	6.9351	17.848010	0.000169	1.689491	0.572415	-0.013684
 829	4.1400e-01	6.8966	17.766333	0.000202	2.016830	0.683320	-0.016335
 830	4.1450e-01	6.8485	17.698341	0.000168	1.678932	0.568837	-0.013598
 831	4.1500e-01	6.8084	17.627783	0.000174	1.742288	0.590303	-0.014112
 832	4.1550e-01	6.7634	17.540547	0.000215	2.154101	0.729829	-0.017447
 833	4.1600e-01	6.7378	17.448608	0.000227	2.270254	0.769183	-0.018388
 834	4.1650e-01	6.6913	17.328873	0.000296	2.956609	1.001726	-0.023947
 835	4.1700e-01	6.6784	17.232657	0.000238	2.375847	0.804959	-0.019243
 836	4.1750e-01	6.6062	17.175783	0.000140	1.404389	0.475820	-0.011375
 837	4.1800e-01	6.5854	17.057758	0.000291	2.914372	0.987416	-0.023605
 838	4.1850e-01	6.5453	16.990194	0.000167	1.668372	0.565260	-0.013513
 839	4.1900e-01	6.4987	16.893978	0.000238	2.375847	0.804959	-0.019243
 840	4.1950e-01	6.4875	16.769967	0.000306	3.062203	1.037502	-0.024802
 841	4.2000e-01	6.4121	16.728915	0.000101	1.013695	0.343449	-0.008210
 842	4.2050e-01	6.3720	16.654935	0.000183	1.826762	0.618924	-0.014796
 843	4.2100e-01	6.3127	16.550167	0.000259	2.587033	0.876511	-0.020954
 844	4.2150e-01	6.2918	16.524937	0.000062	0.623000	0.211078	-0.005046
 845	4.2200e-01	6.2517	16.396650	0.000317	3.167796	1.073278	-0.025658
 846	4.2250e-01	6.2228	16.290171	0.000263	2.629270	0.890821	-0.021296
 847	4.2300e-01	6.1731	16.199087	0.000225	2.249135	0.762028	-0.018217
 848	4.2350e-01	6.1105	16.149482	0.000122	1.224881	0.415001	-0.009921
 849	4.2400e-01	6.1041	16.065240	0.000208	2.080186	0.704786	-0.016848
 850	4.2450e-01	6.0480	15.999386	0.000163	1.626135	0.550949	-0.013171
 851	4.2500e-01	6.0431	15.815507	0.000454	4.540507	1.538365	-0.036776
 852	4.2550e-01	5.9806	15.793270	0.000055	0.549085	0.186035	-0.004447
 853	4.2600e-01	5.9373	15.696200	0.000240	2.396965	0.812114	-0.019414
 854	4.2650e-01	5.8940	15.552090	0.000356	3.558490	1.205649	-0.028822
 855	4.2700e-01	5.8667	15.516169	0.000089	0.886983	0.300518	-0.007184
 856	4.2750e-01	5.7977	15.408835	0.000265	2.650389	0.897976	-0.021467
 857	4.2800e-01	5.7720	15.317324	0.000226	2.259694	0.765605	-0.018302
 858	4.2850e-01	5.7271	15.256601	0.000150	1.499423	0.508018	-0.012145
 859	4.2900e-01	5.6806	15.175352	0.000201	2.006271	0.679743	-0.016250
 860	4.2950e-01	5.6501	15.055189	0.000297	2.967169	1.005304	-0.024033
 861	4.3000e-01	5.6068	14.951704	0.000256	2.555355	0.865778	-0.020697
 862	4.3050e-01	5.5587	14.894402	0.000141	1.414949	0.479398	-0.011460
 863	4.3100e-01	5.5394	14.779371	0.000284	2.840457	0.962373	-0.023006
 864	4.3150e-01	5.5266	14.666905	0.000278	2.777101	0.940907	-0.022493
 865	4.3200e-01	5.4383	14.620722	0.000114	1.140406	0.386380	-0.009237
 866	4.3250e-01	5.4175	14.498421	0.000302	3.019965	1.023192	-0.024460
 867	4.3300e-01	5.3678	14.436843	0.000152	1.520542	0.515174	-0.012316
 868	4.3350e-01	5.3421	14.351746	0.000210	2.101304	0.711941	-0.017019
 869	4.3400e-01	5.2859	14.285891	0.000163	1.626135	0.550949	-0.013171
 870	4.3450e-01	5.2555	14.129381	0.000386	3.864711	1.309399	-0.031302
 871	4.3500e-01	5.2089	14.051553	0.000192	1.921796	0.651122	-0.015566
 872	4.3550e-01	5.1688	13.952771	0.000244	2.439203	0.826424	-0.019756
 873	4.3600e-01	5.1608	13.829188	0.000305	3.051643	1.033925	-0.024717
 874	4.3650e-01	5.0934	13.784287	0.000111	1.108728	0.375647	-0.008980
 875	4.3700e-01	5.0533	13.667545	0.000288	2.882694	0.976683	-0.023348
 876	4.3750e-01	5.0084	13.605540	0.000153	1.531101	0.518751	-0.012401
 877	4.3800e-01	4.9844	13.464851	0.000347	3.474016	1.177028	-0.028138
 878	4.3850e-01	4.9555	13.340840	0.000306	3.062203	1.037502	-0.024802
 879	4.3900e-01	4.8753	13.299787	0.000101	1.013695	0.343449	-0.008210
 880	4.3950e-01	4.8560	13.214262	0.000211	2.111864	0.715519	-0.017105
 881	4.4000e-01	4.8127	13.138573	0.000187	1.868999	0.633234	-0.015138
 882	4.4050e-01	4.7662	13.014134	0.000307	3.072762	1.041080	-0.024888
 883	4.4100e-01	4.7309	12.938444	0.000187	1.868999	0.633234	-0.015138
 884	4.4150e-01	4.6908	12.838807	0.000246	2.460321	0.833579	-0.019927
 885	4.4200e-01	4.6571	12.714796	0.000306	3.062203	1.037502	-0.024802
 886	4.4250e-01	4.6250	12.628843	0.000212	2.122423	0.719096	-0.017191
 887	4.4300e-01	4.5801	12.534338	0.000233	2.333609	0.790648	-0.018901
 888	4.4350e-01	4.5560	12.439833	0.000233	2.333609	0.790648	-0.018901
 889	4.4400e-01	4.4999	12.366709	0.000181	1.805644	0.611769	-0.014625
 890	4.4450e-01	4.4517	12.269211	0.000241	2.407525	0.815691	-0.019500
 891	4.4500e-01	4.3908	12.166153	0.000254	2.544796	0.862200	-0.020612
 892	4.4550e-01	4.3555	12.111844	0.000134	1.341034	0.454354	-0.010862
 893	4.4600e-01	4.3298	11.978425	0.000329	3.294508	1.116209	-0.026684
 894	4.4650e-01	4.2865	11.898032	0.000199	1.985152	0.672588	-0.016079
 895	4.4700e-01	4.2608	11.817211	0.000200	1.995711	0.676165	-0.016164
 896	4.4750e-01	4.2143	11.680798	0.000337	3.368423	1.141253	-0.027282
 897	4.4800e-01	4.1983	11.544386	0.000337	3.368423	1.141253	-0.027282
 898	4.4850e-01	4.1084	11.520011	0.000060	0.601881	0.203923	-0.004875
 899	4.4900e-01	4.0844	11.407118	0.000279	2.787660	0.944485	-0.022579
 900	4.4950e-01	4.0346	11.289521	0.000290	2.903813	0.983838	-0.023519
 901	4.5000e-01	3.9945	11.230509	0.000146	1.457186	0.493708	-0.011802
 902	4.5050e-01	3.9753	11.111201	0.000295	2.946050	0.998149	-0.023861
 903	4.5100e-01	3.9368	10.997025	0.000282	2.819338	0.955218	-0.022835
 904	4.5150e-01	3.8710	10.880284	0.000288	2.882694	0.976683	-0.023348
 905	4.5200e-01	3.8678	10.807160	0.000181	1.805644	0.611769	-0.014625
 906	4.5250e-01	3.8052	10.717786	0.000221	2.206898	0.747717	-0.017875
 907	4.5300e-01	3.7587	10.643379	0.000184	1.837322	0.622501	-0.014881
 908	4.5350e-01	3.7427	10.522789	0.000298	2.977728	1.008882	-0.024118
 909	4.5400e-01	3.6945	10.411606	0.000275	2.745423	0.930174	-0.022237
 910	4.5450e-01	3.6512	10.359436	0.000129	1.288237	0.436466	-0.010434
 911	4.5500e-01	3.6095	10.236280	0.000304	3.041084	1.030347	-0.024631
 912	4.5550e-01	3.5726	10.118683	0.000290	2.903813	0.983838	-0.023519
 913	4.5600e-01	3.5454	10.048553	0.000173	1.731728	0.586725	-0.014026
 914	4.5650e-01	3.5213	9.872371	0.000435	4.350439	1.473969	-0.035236
 915	4.5700e-01	3.4523	9.836878	0.000088	0.876423	0.296940	-0.007099
 916	4.5750e-01	3.4106	9.732537	0.000258	2.576474	0.872933	-0.020868
 917	4.5800e-01	3.3833	9.579448	0.000378	3.780236	1.280779	-0.030618
 918	4.5850e-01	3.3448	9.523429	0.000138	1.383271	0.468665	-0.011204
 919	4.5900e-01	3.3031	9.444318	0.000195	1.953474	0.661855	-0.015822
 920	4.5950e-01	3.2678	9.303629	0.000347	3.474016	1.177028	-0.028138
 921	4.6000e-01	3.2245	9.202282	0.000250	2.502559	0.847890	-0.020269
 922	4.6050e-01	3.1635	9.133434	0.000170	1.700050	0.575993	-0.013770
 923	4.6100e-01	3.1459	8.991463	0.000351	3.505694	1.187761	-0.028394
 924	4.6150e-01	3.0801	8.951266	0.000099	0.992576	0.336294	-0.008039
 925	4.6200e-01	3.0625	8.836662	0.000283	2.829897	0.958795	-0.022921
 926	4.6250e-01	3.0432	8.686138	0.000372	3.716880	1.259313	-0.030105
 927	4.6300e-01	2.9807	8.597192	0.000220	2.196338	0.744140	-0.017789
 928	4.6350e-01	2.9566	8.478313	0.000294	2.935491	0.994571	-0.023776
 929	4.6400e-01	2.8908	8.380814	0.000241	2.407525	0.815691	-0.019500
 930	4.6450e-01	2.8459	8.305124	0.000187	1.868999	0.633234	-0.015138
 931	4.6500e-01	2.8154	8.207626	0.000241	2.407525	0.815691	-0.019500
 932	4.6550e-01	2.7994	8.051970	0.000384	3.843592	1.302244	-0.031131
 933	4.6600e-01	2.7320	7.978419	0.000182	1.816203	0.615346	-0.014710
 934	4.6650e-01	2.6775	7.893749	0.000209	2.090745	0.708364	-0.016934
 935	4.6700e-01	2.6342	7.818059	0.000187	1.868999	0.633234	-0.015138
 936	4.6750e-01	2.6293	7.655561	0.000401	4.012541	1.359486	-0.032500
 937	4.6800e-01	2.5732	7.547372	0.000267	2.671508	0.905131	-0.021638
 938	4.6850e-01	2.5411	7.443459	0.000257	2.565915	0.869355	-0.020783
 939	4.6900e-01	2.4946	7.367770	0.000187	1.868999	0.633234	-0.015138
 940	4.6950e-01	2.4416	7.263429	0.000258	2.576474	0.872933	-0.020868
 941	4.7000e-01	2.4224	7.148398	0.000284	2.840457	0.962373	-0.023006
 942	4.7050e-01	2.3951	6.974354	0.000430	4.297643	1.456081	-0.034809
 943	4.7100e-01	2.3326	6.964947	0.000023	0.232305	0.078707	-0.001882
 944	4.7150e-01	2.3069	6.816561	0.000366	3.664084	1.241425	-0.029677
 945	4.7200e-01	2.2443	6.724194	0.000228	2.280813	0.772760	-0.018473
 946	4.7250e-01	2.2154	6.638241	0.000212	2.122423	0.719096	-0.017191
 947	4.7300e-01	2.1785	6.483868	0.000381	3.811914	1.291511	-0.030875
 948	4.7350e-01	2.1224	6.407323	0.000189	1.890118	0.640389	-0.015309
 949	4.7400e-01	2.0903	6.302127	0.000260	2.597592	0.880088	-0.021039
 950	4.7450e-01	2.0486	6.197787	0.000258	2.576474	0.872933	-0.020868
 951	4.7500e-01	2.0117	6.051539	0.000361	3.611287	1.223537	-0.029250
 952	4.7550e-01	1.9540	5.965159	0.000213	2.132982	0.722674	-0.017276
 953	4.7600e-01	1.9347	5.833450	0.000325	3.252270	1.101899	-0.026342
 954	4.7650e-01	1.8850	5.760326	0.000181	1.805644	0.611769	-0.014625
 955	4.7700e-01	1.8401	5.615361	0.000358	3.579609	1.212804	-0.028993
 956	4.7750e-01	1.8192	5.538816	0.000189	1.890118	0.640389	-0.015309
 957	4.7800e-01	1.7823	5.379312	0.000394	3.938626	1.334443	-0.031901
 958	4.7850e-01	1.7454	5.301912	0.000191	1.911237	0.647545	-0.015480
 959	4.7900e-01	1.6716	5.203558	0.000243	2.428643	0.822847	-0.019671
 960	4.7950e-01	1.6331	5.070139	0.000329	3.294508	1.116209	-0.026684
 961	4.8000e-01	1.6042	4.957246	0.000279	2.787660	0.944485	-0.022579
 962	4.8050e-01	1.5850	4.855899	0.000250	2.502559	0.847890	-0.020269
 963	4.8100e-01	1.5096	4.745571	0.000272	2.724304	0.923019	-0.022065
 964	4.8150e-01	1.4919	4.596330	0.000369	3.685202	1.248580	-0.029848
 965	4.8200e-01	1.4967	4.455214	-0.000348	-3.484575	-1.180606	-0.028223
 966	4.8250e-01	1.4214	4.397485	0.000143	1.425508	0.482975	-0.011546
 967	4.8300e-01	1.3716	4.269625	0.000316	3.157236	1.069701	-0.025572
 968	4.8350e-01	1.3508	4.138344	0.000324	3.241711	1.098321	-0.026256
 969	4.8400e-01	1.3123	4.051108	0.000215	2.154101	0.729829	-0.017447
 970	4.8450e-01	1.2529	3.960879	0.000223	2.228016	0.754872	-0.018046
 971	4.8500e-01	1.2192	3.825750	0.000334	3.336745	1.130520	-0.027026
 972	4.8550e-01	1.1791	3.735948	0.000222	2.217457	0.751295	-0.017960
 973	4.8600e-01	1.1342	3.600391	0.000335	3.347304	1.134097	-0.027111
 974	4.8650e-01	1.1005	3.488781	0.000276	2.755982	0.933752	-0.022322
 975	4.8700e-01	1.0604	3.355362	0.000329	3.294508	1.116209	-0.026684
 976	4.8750e-01	1.0107	3.244179	0.000275	2.745423	0.930174	-0.022237
 977	4.8800e-01	0.9545	3.140266	0.000257	2.565915	0.869355	-0.020783
 978	4.8850e-01	0.9417	3.016255	0.000306	3.062203	1.037502	-0.024802
 979	4.8900e-01	0.8920	2.915763	0.000248	2.481440	0.840735	-0.020098
 980	4.8950e-01	0.8470	2.770370	0.000359	3.590168	1.216382	-0.029079
 981	4.9000e-01	0.8198	2.659188	0.000275	2.745423	0.930174	-0.022237
 982	4.9050e-01	0.7957	2.519354	0.000345	3.452897	1.169873	-0.027967
 983	4.9100e-01	0.7251	2.408172	0.000275	2.745423	0.930174	-0.022237
 984	4.9150e-01	0.6802	2.309818	0.000243	2.428643	0.822847	-0.019671
 985	4.9200e-01	0.6738	2.193076	0.000288	2.882694	0.976683	-0.023348
 986	4.9250e-01	0.5984	2.064789	0.000317	3.167796	1.073278	-0.025658
 987	4.9300e-01	0.5823	1.926238	0.000342	3.421219	1.159140	-0.027710
 988	4.9350e-01	0.5214	1.812490	0.000281	2.808779	0.951640	-0.022750
 989	4.9400e-01	0.4925	1.715846	0.000239	2.386406	0.808536	-0.019329
 990	4.9450e-01	0.4460	1.602526	0.000280	2.798220	0.948062	-0.022664
 991	4.9500e-01	0.4203	1.469107	0.000329	3.294508	1.116209	-0.026684
 992	4.9550e-01	0.3882	1.345095	0.000306	3.062203	1.037502	-0.024802
 993	4.9600e-01	0.3208	1.215097	0.000321	3.210033	1.087589	-0.026000
 994	4.9650e-01	0.3000	1.090231	0.000308	3.083321	1.044657	-0.024973
 995	4.9700e-01	0.2358	0.998291	0.000227	2.270254	0.769183	-0.018388
 996	4.9750e-01	0.2374	0.887109	-0.000275	-2.745423	-0.930174	-0.022237
 997	4.9800e-01	0.1749	0.744709	0.000352	3.516253	1.191339	-0.028480
 998	4.9850e-01	0.1412	0.621981	0.000303	3.030525	1.026770	-0.024546
 999	4.9900e-01	0.0963	0.495832	0.000311	3.114999	1.055390	-0.025230
1000	4.9950e-01	0.0610	0.334617	0.000398	3.980863	1.348753	-0.032243
1001	5.0000e-01	0.0369	0.206329	0.000317	3.167796	1.073278	-0.025658
1002	5.0050e-01	-0.0064	0.134061	0.000178	1.784525	0.604613	-0.014454
1003	5.0100e-01	-0.0674	0.030575	0.000256	2.555355	0.865778	-0.020697
1004	5.0150e-01	-0.0963	-0.115673	0.000361	3.611287	1.223537	-0.029250
1005	5.0200e-01	-0.1251	-0.245671	0.000321	3.210033	1.087589	-0.026000
1006	5.0250e-01	-0.1909	-0.333334	0.000216	2.164660	0.733407	-0.017533
1007	5.0300e-01	-0.2390	-0.439813	0.000263	2.629270	0.890821	-0.021296
1008	5.0350e-01	-0.2567	-0.615567	0.000434	4.339880	1.470391	-0.035151
1009	5.0400e-01	-0.2904	-0.685697	0.000173	1.731728	0.586725	-0.014026
1010	5.0450e-01	-0.3369	-0.802866	0.000289	2.893253	0.980261	-0.023434
1011	5.0500e-01	-0.3593	-0.962371	0.000394	3.938626	1.334443	-0.031901
1012	5.0550e-01	-0.4011	-1.091086	0.000318	3.178355	1.076856	-0.025743
1013	5.0600e-01	-0.4476	-1.196282	0.000260	2.597592	0.880088	-0.021039
1014	5.0650e-01	-0.4765	-1.319438	0.000304	3.041084	1.030347	-0.024631
1015	5.0700e-01	-0.5005	-1.487922	0.000416	4.160372	1.409572	-0.033697
1016	5.0750e-01	-0.5663	-1.590980	0.000254	2.544796	0.862200	-0.020612
1017	5.0800e-01	-0.6080	-1.703873	0.000279	2.787660	0.944485	-0.022579
1018	5.0850e-01	-0.6658	-1.828312	0.000307	3.072762	1.041080	-0.024888
1019	5.0900e-01	-0.6866	-1.933935	0.000261	2.608152	0.883666	-0.021125
1020	5.0950e-01	-0.7347	-2.074196	0.000346	3.463457	1.173451	-0.028052
1021	5.1000e-01	-0.7909	-2.166136	0.000227	2.270254	0.769183	-0.018388
1022	5.1050e-01	-0.8214	-2.293568	0.000315	3.146677	1.066123	-0.025486
1023	5.1100e-01	-0.8695	-2.433402	0.000345	3.452897	1.169873	-0.027967
1024	5.1150e-01	-0.8759	-2.562972	0.000320	3.199474	1.084011	-0.025914
1025	5.1200e-01	-0.9353	-2.696391	0.000329	3.294508	1.116209	-0.026684
1026	5.1250e-01	-0.9625	-2.781489	0.000210	2.101304	0.711941	-0.017019
1027	5.1300e-01	-1.0508	-2.860599	0.000195	1.953474	0.661855	-0.015822
1028	5.1350e-01	-1.0572	-3.043623	0.000452	4.519389	1.531210	-0.036605
1029	5.1400e-01	-1.0941	-3.193292	0.000370	3.695762	1.252158	-0.029934
1030	5.1450e-01	-1.1358	-3.286514	0.000230	2.301932	0.779916	-0.018644
1031	5.1500e-01	-1.1903	-3.374605	0.000218	2.175220	0.736984	-0.017618
1032	5.1550e-01	-1.2048	-3.501182	0.000313	3.125558	1.058968	-0.025315
1033	5.1600e-01	-1.2497	-3.629897	0.000318	3.178355	1.076856	-0.025743
1034	5.1650e-01	-1.3042	-3.722264	0.000228	2.280813	0.772760	-0.018473
1035	5.1700e-01	-1.3427	-3.888183	0.000410	4.097016	1.388107	-0.033184
1036	5.1750e-01	-1.4005	-3.976274	0.000218	2.175220	0.736984	-0.017618
1037	5.1800e-01	-1.4294	-4.123377	0.000363	3.632406	1.230692	-0.029421
1038	5.1850e-01	-1.4631	-4.205908	0.000204	2.037949	0.690476	-0.016506
1039	5.1900e-01	-1.4903	-4.350446	0.000357	3.569050	1.209227	-0.028907
1040	5.1950e-01	-1.5449	-4.450938	0.000248	2.481440	0.840735	-0.020098
1041	5.2000e-01	-1.5818	-4.595047	0.000356	3.558490	1.205649	-0.028822
1042	5.2050e-01	-1.6123	-4.702809	0.000266	2.660948	0.901554	-0.021552
1043	5.2100e-01	-1.6459	-4.800735	0.000242	2.418084	0.819269	-0.019585
1044	5.2150e-01	-1.7053	-4.931588	0.000323	3.231152	1.094744	-0.026171
1045	5.2200e-01	-1.7582	-5.004712	0.000181	1.805644	0.611769	-0.014625
1046	5.2250e-01	-1.7903	-5.139414	0.000333	3.326185	1.126942	-0.026940
1047	5.2300e-01	-1.8096	-5.288228	0.000367	3.674643	1.245003	-0.029763
1048	5.2350e-01	-1.8802	-5.389148	0.000249	2.491999	0.844312	-0.020184
1049	5.2400e-01	-1.8850	-5.497337	0.000267	2.671508	0.905131	-0.021638
1050	5.2450e-01	-1.9475	-5.618782	0.000300	2.998847	1.016037	-0.024289
1051	5.2500e-01	-1.9668	-5.743221	0.000307	3.072762	1.041080	-0.024888
1052	5.2550e-01	-2.0133	-5.850128	0.000264	2.639830	0.894399	-0.021381
1053	5.2600e-01	-2.0598	-5.989533	0.000344	3.442338	1.166296	-0.027881
1054	5.2650e-01	-2.0967	-6.048973	0.000147	1.467745	0.497286	-0.011888
1055	5.2700e-01	-2.1497	-6.169991	0.000299	2.988287	1.012459	-0.024204
1056	5.2750e-01	-2.1705	-6.314529	0.000357	3.569050	1.209227	-0.028907
1057	5.2800e-01	-2.2347	-6.389791	0.000186	1.858440	0.629657	-0.015052
1058	5.2850e-01	-2.2732	-6.516368	0.000313	3.125558	1.058968	-0.025315
1059	5.2900e-01	-2.3117	-6.618570	0.000252	2.523677	0.855045	-0.020440
1060	5.2950e-01	-2.3261	-6.782778	0.000405	4.054778	1.373796	-0.032842
1061	5.3000e-01	-2.3727	-6.878566	0.000237	2.365287	0.801381	-0.019158
1062	5.3050e-01	-2.4096	-6.972644	0.000232	2.323050	0.787071	-0.018816
1063	5.3100e-01	-2.4673	-7.110767	0.000341	3.410660	1.155563	-0.027625
1064	5.3150e-01	-2.5042	-7.195864	0.000210	2.101304	0.711941	-0.017019
1065	5.3200e-01	-2.5395	-7.358362	0.000401	4.012541	1.359486	-0.032500
1066	5.3250e-01	-2.5668	-7.399842	0.000102	1.024254	0.347027	-0.008296
1067	5.3300e-01	-2.6133	-7.532405	0.000327	3.273389	1.109054	-0.026513
1068	5.3350e-01	-2.6550	-7.676515	0.000356	3.558490	1.205649	-0.028822
1069	5.3400e-01	-2.6983	-7.739376	0.000155	1.552220	0.525906	-0.012572
1070	5.3450e-01	-2.7432	-7.842861	0.000256	2.555355	0.865778	-0.020697
1071	5.3500e-01	-2.7849	-7.956610	0.000281	2.808779	0.951640	-0.022750
1072	5.3550e-01	-2.8283	-8.026740	0.000173	1.731728	0.586725	-0.014026
1073	5.3600e-01	-2.8491	-8.197363	0.000421	4.213168	1.427460	-0.034124
1074	5.3650e-01	-2.9181	-8.252954	0.000137	1.372711	0.465087	-0.011118
1075	5.3700e-01	-2.9165	-8.402623	-0.000370	-3.695762	-1.252158	-0.029934
1076	5.3750e-01	-2.9791	-8.477885	0.000186	1.858440	0.629657	-0.015052
1077	5.3800e-01	-3.0144	-8.590350	0.000278	2.777101	0.940907	-0.022493
1078	5.3850e-01	-3.0609	-8.704954	0.000283	2.829897	0.958795	-0.022921
1079	5.3900e-01	-3.0962	-8.797321	0.000228	2.280813	0.772760	-0.018473
1080	5.3950e-01	-3.1331	-8.946135	0.000367	3.674643	1.245003	-0.029763
1081	5.4000e-01	-3.1732	-9.014555	0.000169	1.689491	0.572415	-0.013684
1082	5.4050e-01	-3.1988	-9.128731	0.000282	2.819338	0.955218	-0.022835
1083	5.4100e-01	-3.2438	-9.224091	0.000235	2.354728	0.797803	-0.019072
1084	5.4150e-01	-3.3256	-9.287380	0.000156	1.562779	0.529484	-0.012658
1085	5.4200e-01	-3.3352	-9.405404	0.000291	2.914372	0.987416	-0.023605
1086	5.4250e-01	-3.3817	-9.514876	0.000270	2.703186	0.915864	-0.021894
1087	5.4300e-01	-3.4315	-9.621782	0.000264	2.639830	0.894399	-0.021381
1088	5.4350e-01	-3.4539	-9.753491	0.000325	3.252270	1.101899	-0.026342
1089	5.4400e-01	-3.5052	-9.844148	0.000224	2.238576	0.758450	-0.018131
1090	5.4450e-01	-3.5405	-9.942501	0.000243	2.428643	0.822847	-0.019671
1091	5.4500e-01	-3.5550	-10.079342	0.000338	3.378982	1.144830	-0.027368
1092	5.4550e-01	-3.6304	-10.144768	0.000162	1.615576	0.547372	-0.013085
1093	5.4600e-01	-3.6737	-10.219175	0.000184	1.837322	0.622501	-0.014881
1094	5.4650e-01	-3.6865	-10.334634	0.000285	2.851016	0.965950	-0.023092
1095	5.4700e-01	-3.7411	-10.431705	0.000240	2.396965	0.812114	-0.019414
1096	5.4750e-01	-3.7764	-10.534335	0.000253	2.534237	0.858623	-0.020526
1097	5.4800e-01	-3.8181	-10.663905	0.000320	3.199474	1.084011	-0.025914
1098	5.4850e-01	-3.8373	-10.783640	0.000296	2.956609	1.001726	-0.023947
1099	5.4900e-01	-3.8903	-10.863606	0.000197	1.974593	0.669010	-0.015993
1100	5.4950e-01	-3.9560	-10.890547	0.000067	0.665237	0.225388	-0.005388
1101	5.5000e-01	-3.9705	-11.053044	0.000401	4.012541	1.359486	-0.032500
1102	5.5050e-01	-4.0282	-11.137714	0.000209	2.090745	0.708364	-0.016934
1103	5.5100e-01	-4.0154	-11.263864	-0.000311	-3.114999	-1.055390	-0.025230
1104	5.5150e-01	-4.0876	-11.334422	0.000174	1.742288	0.590303	-0.014112
1105	5.5200e-01	-4.1437	-11.431493	0.000240	2.396965	0.812114	-0.019414
1106	5.5250e-01	-4.1919	-11.495636	0.000158	1.583898	0.536639	-0.012829
1107	5.5300e-01	-4.2031	-11.624779	0.000319	3.188914	1.080433	-0.025829
1108	5.5350e-01	-4.2657	-11.736389	0.000276	2.755982	0.933752	-0.022322
1109	5.5400e-01	-4.2881	-11.839875	0.000256	2.555355	0.865778	-0.020697
1110	5.5450e-01	-4.3042	-11.933097	0.000230	2.301932	0.779916	-0.018644
1111	5.5500e-01	-4.3796	-12.010497	0.000191	1.911237	0.647545	-0.015480
1112	5.5550e-01	-4.3892	-12.138357	0.000316	3.157236	1.069701	-0.025572
1113	5.5600e-01	-4.4646	-12.190955	0.000130	1.298796	0.440044	-0.010520
1114	5.5650e-01	-4.5159	-12.288026	0.000240	2.396965	0.812114	-0.019414
1115	5.5700e-01	-4.5464	-12.400919	0.000279	2.787660	0.944485	-0.022579
1116	5.5750e-01	-4.5705	-12.484734	0.000207	2.069627	0.701208	-0.016763
1117	5.5800e-01	-4.6041	-12.571114	0.000213	2.132982	0.722674	-0.017276
1118	5.5850e-01	-4.6940	-12.659632	0.000219	2.185779	0.740562	-0.017704
1119	5.5900e-01	-4.6892	-12.772953	-0.000280	-2.798220	-0.948062	-0.022664
1120	5.5950e-01	-4.7662	-12.900813	0.000316	3.157236	1.069701	-0.025572
1121	5.6000e-01	-4.7951	-12.911504	0.000026	0.263983	0.089440	-0.002138
1122	5.6050e-01	-4.7967	-13.069297	0.000390	3.896389	1.320132	-0.031559
1123	5.6100e-01	-4.8576	-13.163375	0.000232	2.323050	0.787071	-0.018816
1124	5.6150e-01	-4.9122	-13.222387	0.000146	1.457186	0.493708	-0.011802
1125	5.6200e-01	-4.9378	-13.351958	0.000320	3.199474	1.084011	-0.025914
1126	5.6250e-01	-4.9619	-13.428930	0.000190	1.900677	0.643967	-0.015395
1127	5.6300e-01	-5.0180	-13.509751	0.000200	1.995711	0.676165	-0.016164
1128	5.6350e-01	-5.0501	-13.600408	0.000224	2.238576	0.758450	-0.018131
1129	5.6400e-01	-5.0934	-13.691065	0.000224	2.238576	0.758450	-0.018131
1130	5.6450e-01	-5.1159	-13.808234	0.000289	2.893253	0.980261	-0.023434
1131	5.6500e-01	-5.1929	-13.875371	0.000166	1.657813	0.561682	-0.013427
1132	5.6550e-01	-5.2234	-13.980995	0.000261	2.608152	0.883666	-0.021125
1133	5.6600e-01	-5.2571	-14.069085	0.000218	2.175220	0.736984	-0.017618
1134	5.6650e-01	-5.2795	-14.178985	0.000271	2.713745	0.919442	-0.021980
1135	5.6700e-01	-5.3549	-14.255530	0.000189	1.890118	0.640389	-0.015309
1136	5.6750e-01	-5.3998	-14.307273	0.000128	1.277678	0.432889	-0.010349
1137	5.6800e-01	-5.4303	-14.392798	0.000211	2.111864	0.715519	-0.017105
1138	5.6850e-01	-5.4704	-14.508257	0.000285	2.851016	0.965950	-0.023092
1139	5.6900e-01	-5.5025	-14.616873	0.000268	2.682067	0.908709	-0.021723
1140	5.6950e-01	-5.5362	-14.715227	0.000243	2.428643	0.822847	-0.019671
1141	5.7000e-01	-5.5908	-14.765259	0.000124	1.235440	0.418579	-0.010006
1142	5.7050e-01	-5.6036	-14.891409	0.000311	3.114999	1.055390	-0.025230
1143	5.7100e-01	-5.6549	-14.967526	0.000188	1.879559	0.636812	-0.015223
1144	5.7150e-01	-5.7079	-15.047920	0.000199	1.985152	0.672588	-0.016079
1145	5.7200e-01	-5.7383	-15.139859	0.000227	2.270254	0.769183	-0.018388
1146	5.7250e-01	-5.7287	-15.246338	-0.000263	-2.629270	-0.890821	-0.021296
1147	5.7300e-01	-5.8202	-15.328869	0.000204	2.037949	0.690476	-0.016506
1148	5.7350e-01	-5.8571	-15.413112	0.000208	2.080186	0.704786	-0.016848
1149	5.7400e-01	-5.8923	-15.531991	0.000294	2.935491	0.994571	-0.023776
1150	5.7450e-01	-5.9292	-15.613240	0.000201	2.006271	0.679743	-0.016250
1151	5.7500e-01	-5.9758	-15.691923	0.000194	1.942915	0.658277	-0.015737
1152	5.7550e-01	-6.0319	-15.764620	0.000180	1.795084	0.608191	-0.014539
1153	5.7600e-01	-6.0544	-15.865112	0.000248	2.481440	0.840735	-0.020098
1154	5.7650e-01	-6.1105	-15.920275	0.000136	1.362152	0.461510	-0.011033
1155	5.7700e-01	-6.1330	-16.060964	0.000347	3.474016	1.177028	-0.028138
1156	5.7750e-01	-6.1779	-16.116128	0.000136	1.362152	0.461510	-0.011033
1157	5.7800e-01	-6.2276	-16.195666	0.000196	1.964033	0.665433	-0.015908
1158	5.7850e-01	-6.2838	-16.288888	0.000230	2.301932	0.779916	-0.018644
1159	5.7900e-01	-6.2870	-16.377834	0.000220	2.196338	0.744140	-0.017789
1160	5.7950e-01	-6.3415	-16.466353	0.000219	2.185779	0.740562	-0.017704
1161	5.8000e-01	-6.3800	-16.567700	0.000250	2.502559	0.847890	-0.020269
1162	5.8050e-01	-6.3881	-16.666054	0.000243	2.428643	0.822847	-0.019671
1163	5.8100e-01	-6.4298	-16.769111	0.000254	2.544796	0.862200	-0.020612
1164	5.8150e-01	-6.5004	-16.774243	0.000013	0.126712	0.042931	-0.001026
1165	5.8200e-01	-6.5260	-16.905951	0.000325	3.252270	1.101899	-0.026342
1166	5.8250e-01	-6.5725	-17.004733	0.000244	2.439203	0.826424	-0.019756
1167	5.8300e-01	-6.6094	-17.069304	0.000159	1.594457	0.540217	-0.012914
1168	5.8350e-01	-6.6431	-17.132593	0.000156	1.562779	0.529484	-0.012658
1169	5.8400e-01	-6.6864	-17.269861	0.000339	3.389541	1.148408	-0.027454
1170	5.8450e-01	-6.7185	-17.352820	0.000205	2.048508	0.694053	-0.016592
1171	5.8500e-01	-6.7891	-17.396438	0.000108	1.077051	0.364915	-0.008724
1172	5.8550e-01	-6.8324	-17.458443	0.000153	1.531101	0.518751	-0.012401
1173	5.8600e-01	-6.8549	-17.564067	0.000261	2.608152	0.883666	-0.021125
1174	5.8650e-01	-6.8998	-17.653868	0.000222	2.217457	0.751295	-0.017960
1175	5.8700e-01	-6.9319	-17.734262	0.000199	1.985152	0.672588	-0.016079
1176	5.8750e-01	-6.9704	-17.850148	0.000286	2.861575	0.969528	-0.023177
1177	5.8800e-01	-7.0009	-17.938239	0.000218	2.175220	0.736984	-0.017618
1178	5.8850e-01	-7.0330	-18.011363	0.000181	1.805644	0.611769	-0.014625
1179	5.8900e-01	-7.0923	-18.066526	0.000136	1.362152	0.461510	-0.011033
1180	5.8950e-01	-7.1356	-18.143927	0.000191	1.911237	0.647545	-0.015480
1181	5.9000e-01	-7.1645	-18.275208	0.000324	3.241711	1.098321	-0.026256
1182	5.9050e-01	-7.2239	-18.335075	0.000148	1.478305	0.500863	-0.011974
1183	5.9100e-01	-7.2656	-18.415469	0.000199	1.985152	0.672588	-0.016079
1184	5.9150e-01	-7.3025	-18.496717	0.000201	2.006271	0.679743	-0.016250
1185	5.9200e-01	-7.3458	-18.563427	0.000165	1.647254	0.558105	-0.013342
1186	5.9250e-01	-7.3907	-18.676320	0.000279	2.787660	0.944485	-0.022579
1187	5.9300e-01	-7.4003	-18.782371	0.000262	2.618711	0.887243	-0.021210
1188	5.9350e-01	-7.4533	-18.830693	0.000119	1.193203	0.404268	-0.009664
1189	5.9400e-01	-7.5174	-18.900823	0.000173	1.731728	0.586725	-0.014026
1190	5.9450e-01	-7.5399	-18.995756	0.000234	2.344169	0.794226	-0.018987
1191	5.9500e-01	-7.5864	-19.071873	0.000188	1.879559	0.636812	-0.015223
1192	5.9550e-01	-7.6073	-19.174076	0.000252	2.523677	0.855045	-0.020440
1193	5.9600e-01	-7.6217	-19.303646	0.000320	3.199474	1.084011	-0.025914
1194	5.9650e-01	-7.6923	-19.307495	0.000010	0.095034	0.032198	-0.000770
1195	5.9700e-01	-7.7388	-19.413974	0.000263	2.629270	0.890821	-0.021296
1196	5.9750e-01	-7.7934	-19.470420	0.000139	1.393830	0.472242	-0.011289
1197	5.9800e-01	-7.8222	-19.570485	0.000247	2.470881	0.837157	-0.020013
1198	5.9850e-01	-7.8672	-19.656865	0.000213	2.132982	0.722674	-0.017276
1199	5.9900e-01	-7.9137	-19.743673	0.000214	2.143542	0.726252	-0.017362
1200	5.9950e-01	-7.9442	-19.842882	0.000245	2.449762	0.830002	-0.019842
1201	6.0000e-01	-7.9746	-19.894624	0.000128	1.277678	0.432889	-0.010349
1202	6.0050e-01	-8.0147	-20.005807	0.000275	2.745423	0.930174	-0.022237
1203	6.0100e-01	-8.0677	-20.053701	0.000118	1.182644	0.400691	-0.009579
1204	6.0150e-01	-8.0950	-20.157614	0.000257	2.565915	0.869355	-0.020783
1205	6.0200e-01	-8.1351	-20.214061	0.000139	1.393830	0.472242	-0.011289
1206	6.0250e-01	-8.1736	-20.284191	0.000173	1.731728	0.586725	-0.014026
1207	6.0300e-01	-8.2313	-20.359453	0.000186	1.858440	0.629657	-0.015052
1208	6.0350e-01	-8.2586	-20.475767	0.000287	2.872135	0.973106	-0.023263
1209	6.0400e-01	-8.2682	-20.568990	0.000230	2.301932	0.779916	-0.018644
1210	6.0450e-01	-8.3308	-20.622870	0.000133	1.330474	0.450777	-0.010776
1211	6.0500e-01	-8.3677	-20.709251	0.000213	2.132982	0.722674	-0.017276
1212	6.0550e-01	-8.4254	-20.777671	0.000169	1.689491	0.572415	-0.013684
1213	6.0600e-01	-8.4671	-20.855071	0.000191	1.911237	0.647545	-0.015480
1214	6.0650e-01	-8.5121	-20.951714	0.000239	2.386406	0.808536	-0.019329
1215	6.0700e-01	-8.5425	-21.018424	0.000165	1.647254	0.558105	-0.013342
1216	6.0750e-01	-8.5714	-21.099245	0.000200	1.995711	0.676165	-0.016164
1217	6.0800e-01	-8.6051	-21.198882	0.000246	2.460321	0.833579	-0.019927
1218	6.0850e-01	-8.6789	-21.240789	0.000103	1.034813	0.350604	-0.008381
1219	6.0900e-01	-8.6917	-21.351971	0.000275	2.745423	0.930174	-0.022237
1220	6.0950e-01	-8.7126	-21.465720	0.000281	2.808779	0.951640	-0.022750
1221	6.1000e-01	-8.7848	-21.526870	0.000151	1.509983	0.511596	-0.012230
1222	6.1050e-01	-8.8345	-21.604270	0.000191	1.911237	0.647545	-0.015480
1223	6.1100e-01	-8.8650	-21.688085	0.000207	2.069627	0.701208	-0.016763
1224	6.1150e-01	-8.9179	-21.762492	0.000184	1.837322	0.622501	-0.014881
1225	6.1200e-01	-8.9420	-21.820649	0.000144	1.436067	0.486553	-0.011631
1226	6.1250e-01	-8.9645	-21.912161	0.000226	2.259694	0.765605	-0.018302
1227	6.1300e-01	-8.9789	-22.014363	0.000252	2.523677	0.855045	-0.020440
1228	6.1350e-01	-9.0543	-22.076796	0.000154	1.541661	0.522329	-0.012487
1229	6.1400e-01	-9.1088	-22.184130	0.000265	2.650389	0.897976	-0.021467
1230	6.1450e-01	-9.1634	-22.226465	0.000105	1.045373	0.354182	-0.008467
1231	6.1500e-01	-9.1890	-22.303865	0.000191	1.911237	0.647545	-0.015480
1232	6.1550e-01	-9.2452	-22.373996	0.000173	1.731728	0.586725	-0.014026
1233	6.1600e-01	-9.2484	-22.505704	0.000325	3.252270	1.101899	-0.026342
1234	6.1650e-01	-9.3013	-22.515112	0.000023	0.232305	0.078707	-0.001882
1235	6.1700e-01	-9.3495	-22.633564	0.000292	2.924931	0.990994	-0.023690
1236	6.1750e-01	-9.3816	-22.745175	0.000276	2.755982	0.933752	-0.022322
1237	6.1800e-01	-9.4104	-22.781523	0.000090	0.897542	0.304095	-0.007270
1238	6.1850e-01	-9.4666	-22.835831	0.000134	1.341034	0.454354	-0.010862
1239	6.1900e-01	-9.4938	-22.920501	0.000209	2.090745	0.708364	-0.016934
1240	6.1950e-01	-9.5564	-23.011157	0.000224	2.238576	0.758450	-0.018131
1241	6.2000e-01	-9.5837	-23.063755	0.000130	1.298796	0.440044	-0.010520
1242	6.2050e-01	-9.6078	-23.164247	0.000248	2.481440	0.840735	-0.020098
1243	6.2100e-01	-9.6366	-23.279279	0.000284	2.840457	0.962373	-0.023006
1244	6.2150e-01	-9.6960	-23.356679	0.000191	1.911237	0.647545	-0.015480
1245	6.2200e-01	-9.7569	-23.398586	0.000103	1.034813	0.350604	-0.008381
1246	6.2250e-01	-9.7746	-23.479407	0.000200	1.995711	0.676165	-0.016164
1247	6.2300e-01	-9.8147	-23.561939	0.000204	2.037949	0.690476	-0.016506
1248	6.2350e-01	-9.8757	-23.629076	0.000166	1.657813	0.561682	-0.013427
1249	6.2400e-01	-9.8965	-23.708614	0.000196	1.964033	0.665433	-0.015908
1250	6.2450e-01	-9.9318	-23.808251	0.000246	2.460321	0.833579	-0.019927
1251	6.2500e-01	-10.0056	-23.845027	0.000091	0.908101	0.307673	-0.007355
1252	6.2550e-01	-10.0184	-23.989992	0.000358	3.579609	1.212804	-0.028993
1253	6.2600e-01	-10.0617	-24.016932	0.000067	0.665237	0.225388	-0.005388
1254	6.2650e-01	-10.0922	-24.084925	0.000168	1.678932	0.568837	-0.013598
1255	6.2700e-01	-10.1195	-24.180285	0.000235	2.354728	0.797803	-0.019072
1256	6.2750e-01	-10.1853	-24.226896	0.000115	1.150966	0.389958	-0.009322
1257	6.2800e-01	-10.2061	-24.314559	0.000216	2.164660	0.733407	-0.017533
1258	6.2850e-01	-10.2639	-24.409064	0.000233	2.333609	0.790648	-0.018901
1259	6.2900e-01	-10.3024	-24.486892	0.000192	1.921796	0.651122	-0.015566
1260	6.2950e-01	-10.3601	-24.571990	0.000210	2.101304	0.711941	-0.017019
1261	6.3000e-01	-10.3762	-24.647252	0.000186	1.858440	0.629657	-0.015052
1262	6.3050e-01	-10.4002	-24.706692	0.000147	1.467745	0.497286	-0.011888
1263	6.3100e-01	-10.4740	-24.764421	0.000143	1.425508	0.482975	-0.011546
1264	6.3150e-01	-10.4885	-24.869189	0.000259	2.587033	0.876511	-0.020954
1265	6.3200e-01	-10.5430	-24.919649	0.000125	1.246000	0.422156	-0.010092
1266	6.3250e-01	-10.5767	-24.990207	0.000174	1.742288	0.590303	-0.014112
1267	6.3300e-01	-10.6280	-25.050075	0.000148	1.478305	0.500863	-0.011974
1268	6.3350e-01	-10.6296	-25.159974	0.000271	2.713745	0.919442	-0.021980
1269	6.3400e-01	-10.6746	-25.248921	0.000220	2.196338	0.744140	-0.017789
1270	6.3450e-01	-10.7452	-25.329314	0.000199	1.985152	0.672588	-0.016079
1271	6.3500e-01	-10.8061	-25.391320	0.000153	1.531101	0.518751	-0.012401
1272	6.3550e-01	-10.8286	-25.434082	0.000106	1.055932	0.357759	-0.008553
1273	6.3600e-01	-10.8751	-25.547831	0.000281	2.808779	0.951640	-0.022750
1274	6.3650e-01	-10.9136	-25.608126	0.000149	1.488864	0.504441	-0.012059
1275	6.3700e-01	-10.9441	-25.659013	0.000126	1.256559	0.425734	-0.010177
1276	6.3750e-01	-10.9665	-25.752663	0.000231	2.312491	0.783493	-0.018730
1277	6.3800e-01	-11.0147	-25.803551	0.000126	1.256559	0.425734	-0.010177
1278	6.3850e-01	-11.0403	-25.919437	0.000286	2.861575	0.969528	-0.023177
1279	6.3900e-01	-11.0852	-26.034041	0.000283	2.829897	0.958795	-0.022921
1280	6.3950e-01	-11.1334	-26.051573	0.000043	0.432932	0.146681	-0.003507
1281	6.4000e-01	-11.1623	-26.128118	0.000189	1.890118	0.640389	-0.015309
1282	6.4050e-01	-11.2377	-26.200387	0.000178	1.784525	0.604613	-0.014454
1283	6.4100e-01	-11.2601	-26.300879	0.000248	2.481440	0.840735	-0.020098
1284	6.4150e-01	-11.2778	-26.381700	0.000200	1.995711	0.676165	-0.016164
1285	6.4200e-01	-11.3323	-26.411634	0.000074	0.739152	0.250432	-0.005987
1286	6.4250e-01	-11.3820	-26.483902	0.000178	1.784525	0.604613	-0.014454
1287	6.4300e-01	-11.4077	-26.607058	0.000304	3.041084	1.030347	-0.024631
1288	6.4350e-01	-11.4574	-26.652387	0.000112	1.119288	0.379225	-0.009066
1289	6.4400e-01	-11.4879	-26.697715	0.000112	1.119288	0.379225	-0.009066
1290	6.4450e-01	-11.5216	-26.783668	0.000212	2.122423	0.719096	-0.017191
1291	6.4500e-01	-11.5569	-26.905968	0.000302	3.019965	1.023192	-0.024460
1292	6.4550e-01	-11.6034	-26.928205	0.000055	0.549085	0.186035	-0.004447
1293	6.4600e-01	-11.6515	-27.027414	0.000245	2.449762	0.830002	-0.019842
1294	6.4650e-01	-11.6949	-27.092413	0.000161	1.605016	0.543794	-0.013000
1295	6.4700e-01	-11.7494	-27.171524	0.000195	1.953474	0.661855	-0.015822
1296	6.4750e-01	-11.7959	-27.221984	0.000125	1.246000	0.422156	-0.010092
1297	6.4800e-01	-11.8264	-27.291686	0.000172	1.721169	0.583148	-0.013941
1298	6.4850e-01	-11.8521	-27.356686	0.000161	1.605016	0.543794	-0.013000
1299	6.4900e-01	-11.8874	-27.496519	0.000345	3.452897	1.169873	-0.027967
1300	6.4950e-01	-11.9884	-27.461026	-0.000088	-0.876423	-0.296940	0.007099
1301	6.5000e-01	-11.9900	-27.581616	0.000298	2.977728	1.008882	-0.024118
1302	6.5050e-01	-12.0093	-27.672701	0.000225	2.249135	0.762028	-0.018217
1303	6.5100e-01	-12.0638	-27.752239	0.000196	1.964033	0.665433	-0.015908
1304	6.5150e-01	-12.0767	-27.821942	0.000172	1.721169	0.583148	-0.013941
1305	6.5200e-01	-12.1440	-27.899770	0.000192	1.921796	0.651122	-0.015566
1306	6.5250e-01	-12.1713	-27.954078	0.000134	1.341034	0.454354	-0.010862
1307	6.5300e-01	-12.2226	-28.018649	0.000159	1.594457	0.540217	-0.012914
1308	6.5350e-01	-12.2740	-28.102464	0.000207	2.069627	0.701208	-0.016763
1309	6.5400e-01	-12.2964	-28.170029	0.000167	1.668372	0.565260	-0.013513
1310	6.5450e-01	-12.3478	-28.267955	0.000242	2.418084	0.819269	-0.019585
1311	6.5500e-01	-12.3959	-28.303020	0.000087	0.865864	0.293363	-0.007013
1312	6.5550e-01	-12.4296	-28.391111	0.000218	2.175220	0.736984	-0.017618
1313	6.5600e-01	-12.4649	-28.445419	0.000134	1.341034	0.454354	-0.010862
1314	6.5650e-01	-12.5130	-28.531800	0.000213	2.132982	0.722674	-0.017276
1315	6.5700e-01	-12.5467	-28.607917	0.000188	1.879559	0.636812	-0.015223
1316	6.5750e-01	-12.5531	-28.677620	0.000172	1.721169	0.583148	-0.013941
1317	6.5800e-01	-12.6333	-28.735777	0.000144	1.436067	0.486553	-0.011631
1318	6.5850e-01	-12.6718	-28.802914	0.000166	1.657813	0.561682	-0.013427
1319	6.5900e-01	-12.6863	-28.895281	0.000228	2.280813	0.772760	-0.018473
1320	6.5950e-01	-12.7504	-28.952583	0.000141	1.414949	0.479398	-0.011460
1321	6.6000e-01	-12.7905	-29.042812	0.000223	2.228016	0.754872	-0.018046
1322	6.6050e-01	-12.8274	-29.105245	0.000154	1.541661	0.522329	-0.012487
1323	6.6100e-01	-12.8611	-29.202744	0.000241	2.407525	0.815691	-0.019500
1324	6.6150e-01	-12.8772	-29.308795	0.000262	2.618711	0.887243	-0.021210
1325	6.6200e-01	-12.9253	-29.325472	0.000041	0.411813	0.139526	-0.003335
1326	6.6250e-01	-12.9911	-29.376787	0.000127	1.267118	0.429311	-0.010263
1327	6.6300e-01	-12.9959	-29.489680	0.000279	2.787660	0.944485	-0.022579
1328	6.6350e-01	-13.0536	-29.537574	0.000118	1.182644	0.400691	-0.009579
1329	6.6400e-01	-13.1018	-29.600008	0.000154	1.541661	0.522329	-0.012487
1330	6.6450e-01	-13.1210	-29.715894	0.000286	2.861575	0.969528	-0.023177
1331	6.6500e-01	-13.1820	-29.712473	-0.000008	-0.084475	-0.028621	0.000684
1332	6.6550e-01	-13.2060	-29.788590	0.000188	1.879559	0.636812	-0.015223
1333	6.6600e-01	-13.2478	-29.891221	0.000253	2.534237	0.858623	-0.020526
1334	6.6650e-01	-13.2782	-29.942108	0.000126	1.256559	0.425734	-0.010177
1335	6.6700e-01	-13.3472	-30.016942	0.000185	1.847881	0.626079	-0.014967
1336	6.6750e-01	-13.3937	-30.069113	0.000129	1.288237	0.436466	-0.010434
1337	6.6800e-01	-13.4066	-30.185427	0.000287	2.872135	0.973106	-0.023263
1338	6.6850e-01	-13.4611	-30.232465	0.000116	1.161525	0.393535	-0.009408
1339	6.6900e-01	-13.4932	-30.306017	0.000182	1.816203	0.615346	-0.014710
1340	6.6950e-01	-13.5349	-30.377430	0.000176	1.763406	0.597458	-0.014283
1341	6.7000e-01	-13.5830	-30.429173	0.000128	1.277678	0.432889	-0.010349
1342	6.7050e-01	-13.5879	-30.549336	0.000297	2.967169	1.005304	-0.024033
1343	6.7100e-01	-13.6408	-30.592098	0.000106	1.055932	0.357759	-0.008553
1344	6.7150e-01	-13.6857	-30.683610	0.000226	2.259694	0.765605	-0.018302
1345	6.7200e-01	-13.7338	-30.738774	0.000136	1.362152	0.461510	-0.011033
1346	6.7250e-01	-13.7996	-30.776405	0.000093	0.929220	0.314828	-0.007526
1347	6.7300e-01	-13.7980	-30.874759	-0.000243	-2.428643	-0.822847	-0.019671
1348	6.7350e-01	-13.8558	-30.927784	0.000131	1.309356	0.443622	-0.010605
1349	6.7400e-01	-13.8766	-31.050513	0.000303	3.030525	1.026770	-0.024546
1350	6.7450e-01	-13.9279	-31.082585	0.000079	0.791949	0.268320	-0.006414
1351	6.7500e-01	-13.9745	-31.158274	0.000187	1.868999	0.633234	-0.015138
1352	6.7550e-01	-14.0194	-31.174096	0.000039	0.390695	0.132371	-0.003164
1353	6.7600e-01	-14.0499	-31.283141	0.000269	2.692626	0.912286	-0.021809
1354	6.7650e-01	-14.1076	-31.328897	0.000113	1.129847	0.382803	-0.009151
1355	6.7700e-01	-14.1558	-31.412284	0.000206	2.059067	0.697631	-0.016677
1356	6.7750e-01	-14.1734	-31.493532	0.000201	2.006271	0.679743	-0.016250
1357	6.7800e-01	-14.1830	-31.552972	0.000147	1.467745	0.497286	-0.011888
1358	6.7850e-01	-14.2504	-31.643629	0.000224	2.238576	0.758450	-0.018131
1359	6.7900e-01	-14.3274	-31.668859	0.000062	0.623000	0.211078	-0.005046
1360	6.7950e-01	-14.3434	-31.761226	0.000228	2.280813	0.772760	-0.018473
1361	6.8000e-01	-14.3643	-31.854876	0.000231	2.312491	0.783493	-0.018730
1362	6.8050e-01	-14.4317	-31.898494	0.000108	1.077051	0.364915	-0.008724
1363	6.8100e-01	-14.4622	-31.990861	0.000228	2.280813	0.772760	-0.018473
1364	6.8150e-01	-14.4975	-32.030202	0.000097	0.971457	0.329139	-0.007868
1365	6.8200e-01	-14.5199	-32.137964	0.000266	2.660948	0.901554	-0.021552
1366	6.8250e-01	-14.5729	-32.168753	0.000076	0.760271	0.257587	-0.006158
1367	6.8300e-01	-14.6402	-32.237600	0.000170	1.700050	0.575993	-0.013770
1368	6.8350e-01	-14.6627	-32.301317	0.000157	1.573339	0.533062	-0.012743
1369	6.8400e-01	-14.6964	-32.370592	0.000171	1.710610	0.579570	-0.013855
1370	6.8450e-01	-14.7413	-32.464669	0.000232	2.323050	0.787071	-0.018816
1371	6.8500e-01	-14.8023	-32.495031	0.000075	0.749712	0.254009	-0.006072
1372	6.8550e-01	-14.8231	-32.583122	0.000218	2.175220	0.736984	-0.017618
1373	6.8600e-01	-14.8456	-32.627595	0.000110	1.098169	0.372070	-0.008895
1374	6.8650e-01	-14.8793	-32.750323	0.000303	3.030525	1.026770	-0.024546
1375	6.8700e-01	-14.9450	-32.797790	0.000117	1.172084	0.397113	-0.009493
1376	6.8750e-01	-14.9707	-32.848677	0.000126	1.256559	0.425734	-0.010177
1377	6.8800e-01	-15.0301	-32.956011	0.000265	2.650389	0.897976	-0.021467
1378	6.8850e-01	-15.0782	-32.966701	0.000026	0.263983	0.089440	-0.002138
1379	6.8900e-01	-15.1263	-33.033839	0.000166	1.657813	0.561682	-0.013427
1380	6.8950e-01	-15.1311	-33.090713	0.000140	1.404389	0.475820	-0.011375
1381	6.9000e-01	-15.1664	-33.204034	0.000280	2.798220	0.948062	-0.022664
1382	6.9050e-01	-15.2306	-33.257914	0.000133	1.330474	0.450777	-0.010776
1383	6.9100e-01	-15.2675	-33.326762	0.000170	1.700050	0.575993	-0.013770
1384	6.9150e-01	-15.3012	-33.419129	0.000228	2.280813	0.772760	-0.018473
1385	6.9200e-01	-15.3333	-33.454194	0.000087	0.865864	0.293363	-0.007013
1386	6.9250e-01	-15.3782	-33.514917	0.000150	1.499423	0.508018	-0.012145
1387	6.9300e-01	-15.3958	-33.622679	0.000266	2.660948	0.901554	-0.021552
1388	6.9350e-01	-15.4680	-33.653468	0.000076	0.760271	0.257587	-0.006158
1389	6.9400e-01	-15.5113	-33.721032	0.000167	1.668372	0.565260	-0.013513
1390	6.9450e-01	-15.5611	-33.772775	0.000128	1.277678	0.432889	-0.010349
1391	6.9500e-01	-15.5819	-33.830077	0.000141	1.414949	0.479398	-0.011460
1392	6.9550e-01	-15.6172	-33.943825	0.000281	2.808779	0.951640	-0.022750
1393	6.9600e-01	-15.6605	-33.977180	0.000082	0.823627	0.279052	-0.006671
1394	6.9650e-01	-15.7022	-34.055008	0.000192	1.921796	0.651122	-0.015566
1395	6.9700e-01	-15.7488	-34.123855	0.000170	1.700050	0.575993	-0.013770
1396	6.9750e-01	-15.8017	-34.191420	0.000167	1.668372	0.565260	-0.013513
1397	6.9800e-01	-15.8209	-34.278656	0.000215	2.154101	0.729829	-0.017447
1398	6.9850e-01	-15.8594	-34.339379	0.000150	1.499423	0.508018	-0.012145
1399	6.9900e-01	-15.9012	-34.397963	0.000145	1.446627	0.490130	-0.011717
1400	6.9950e-01	-15.9445	-34.450561	0.000130	1.298796	0.440044	-0.010520
1401	7.0000e-01	-15.9830	-34.530955	0.000199	1.985152	0.672588	-0.016079
1402	7.0050e-01	-16.0375	-34.590822	0.000148	1.478305	0.500863	-0.011974
1403	7.0100e-01	-16.0391	-34.638716	0.000118	1.182644	0.400691	-0.009579
1404	7.0150e-01	-16.1161	-34.701150	0.000154	1.541661	0.522329	-0.012487
1405	7.0200e-01	-16.1001	-34.832858	-0.000325	-3.252270	-1.101899	-0.026342
1406	7.0250e-01	-16.1771	-34.870489	0.000093	0.929220	0.314828	-0.007526
1407	7.0300e-01	-16.2220	-34.944896	0.000184	1.837322	0.622501	-0.014881
1408	7.0350e-01	-16.2477	-34.982099	0.000092	0.918661	0.311251	-0.007441
1409	7.0400e-01	-16.2814	-35.051802	0.000172	1.721169	0.583148	-0.013941
1410	7.0450e-01	-16.3199	-35.117229	0.000162	1.615576	0.547372	-0.013085
1411	7.0500e-01	-16.3776	-35.192491	0.000186	1.858440	0.629657	-0.015052
1412	7.0550e-01	-16.4354	-35.249365	0.000140	1.404389	0.475820	-0.011375
1413	7.0600e-01	-16.4771	-35.315219	0.000163	1.626135	0.550949	-0.013171
1414	7.0650e-01	-16.4867	-35.361831	0.000115	1.150966	0.389958	-0.009322
1415	7.0700e-01	-16.5300	-35.463178	0.000250	2.502559	0.847890	-0.020269
1416	7.0750e-01	-16.5990	-35.509789	0.000115	1.150966	0.389958	-0.009322
1417	7.0800e-01	-16.6343	-35.576926	0.000166	1.657813	0.561682	-0.013427
1418	7.0850e-01	-16.6407	-35.661596	0.000209	2.090745	0.708364	-0.016934
1419	7.0900e-01	-16.6985	-35.716760	0.000136	1.362152	0.461510	-0.011033
1420	7.0950e-01	-16.7402	-35.774489	0.000143	1.425508	0.482975	-0.011546
1421	7.1000e-01	-16.7867	-35.848896	0.000184	1.837322	0.622501	-0.014881
1422	7.1050e-01	-16.8059	-35.919026	0.000173	1.731728	0.586725	-0.014026
1423	7.1100e-01	-16.8589	-35.957085	0.000094	0.939779	0.318406	-0.007612
1424	7.1150e-01	-16.8926	-36.034485	0.000191	1.911237	0.647545	-0.015480
1425	7.1200e-01	-16.9279	-36.134550	0.000247	2.470881	0.837157	-0.020013
1426	7.1250e-01	-16.9616	-36.184154	0.000122	1.224881	0.415001	-0.009921
1427	7.1300e-01	-17.0161	-36.244449	0.000149	1.488864	0.504441	-0.012059
1428	7.1350e-01	-17.0482	-36.299185	0.000135	1.351593	0.457932	-0.010947
1429	7.1400e-01	-17.1027	-36.352211	0.000131	1.309356	0.443622	-0.010605
1430	7.1450e-01	-17.1268	-36.491189	0.000343	3.431779	1.162718	-0.027796
1431	7.1500e-01	-17.1797	-36.504445	0.000033	0.327339	0.110905	-0.002651
1432	7.1550e-01	-17.1926	-36.564313	0.000148	1.478305	0.500863	-0.011974
1433	7.1600e-01	-17.2567	-36.677206	0.000279	2.787660	0.944485	-0.022579
1434	7.1650e-01	-17.3081	-36.706712	0.000073	0.728593	0.246854	-0.005901
1435	7.1700e-01	-17.3257	-36.775560	0.000170	1.700050	0.575993	-0.013770
1436	7.1750e-01	-17.3899	-36.836283	0.000150	1.499423	0.508018	-0.012145
1437	7.1800e-01	-17.4139	-36.906841	0.000174	1.742288	0.590303	-0.014112
1438	7.1850e-01	-17.4669	-36.963715	0.000140	1.404389	0.475820	-0.011375
1439	7.1900e-01	-17.5006	-37.035128	0.000176	1.763406	0.597458	-0.014283
1440	7.1950e-01	-17.5503	-37.087299	0.000129	1.288237	0.436466	-0.010434
1441	7.2000e-01	-17.5760	-37.170258	0.000205	2.048508	0.694053	-0.016592
1442	7.2050e-01	-17.6113	-37.247658	0.000191	1.911237	0.647545	-0.015480
1443	7.2100e-01	-17.6514	-37.315223	0.000167	1.668372	0.565260	-0.013513
1444	7.2150e-01	-17.7091	-37.353709	0.000095	0.950339	0.321983	-0.007697
1445	7.2200e-01	-17.7204	-37.443083	0.000221	2.206898	0.747717	-0.017875
1446	7.2250e-01	-17.7829	-37.490549	0.000117	1.172084	0.397113	-0.009493
1447	7.2300e-01	-17.8375	-37.542720	0.000129	1.288237	0.436466	-0.010434
1448	7.2350e-01	-17.8439	-37.624396	0.000202	2.016830	0.683320	-0.016335
1449	7.2400e-01	-17.8856	-37.698375	0.000183	1.826762	0.618924	-0.014796
1450	7.2450e-01	-17.9241	-37.771071	0.000180	1.795084	0.608191	-0.014539
1451	7.2500e-01	-17.9754	-37.827518	0.000139	1.393830	0.472242	-0.011289
1452	7.2550e-01	-18.0091	-37.887813	0.000149	1.488864	0.504441	-0.012059
1453	7.2600e-01	-18.0717	-37.938701	0.000126	1.256559	0.425734	-0.010177
1454	7.2650e-01	-18.1391	-38.016101	0.000191	1.911237	0.647545	-0.015480
1455	7.2700e-01	-18.1487	-38.052877	0.000091	0.908101	0.307673	-0.007355
1456	7.2750e-01	-18.1920	-38.135408	0.000204	2.037949	0.690476	-0.016506
1457	7.2800e-01	-18.2241	-38.206822	0.000176	1.763406	0.597458	-0.014283
1458	7.2850e-01	-18.2546	-38.279946	0.000181	1.805644	0.611769	-0.014625
1459	7.2900e-01	-18.3139	-38.323563	0.000108	1.077051	0.364915	-0.008724
1460	7.2950e-01	-18.3396	-38.387707	0.000158	1.583898	0.536639	-0.012829
1461	7.3000e-01	-18.3925	-38.487344	0.000246	2.460321	0.833579	-0.019927
1462	7.3050e-01	-18.4278	-38.566882	0.000196	1.964033	0.665433	-0.015908
1463	7.3100e-01	-18.4503	-38.598099	0.000077	0.770830	0.261164	-0.006243
1464	7.3150e-01	-18.5048	-38.705860	0.000266	2.660948	0.901554	-0.021552
1465	7.3200e-01	-18.5385	-38.716123	0.000025	0.253424	0.085862	-0.002053
1466	7.3250e-01	-18.5882	-38.820464	0.000258	2.576474	0.872933	-0.020868
1467	7.3300e-01	-18.6027	-38.857667	0.000092	0.918661	0.311251	-0.007441
1468	7.3350e-01	-18.6572	-38.957732	0.000247	2.470881	0.837157	-0.020013
1469	7.3400e-01	-18.6797	-39.029573	0.000177	1.773966	0.601036	-0.014368
1470	7.3450e-01	-18.7487	-39.041546	0.000030	0.295661	0.100173	-0.002395
1471	7.3500e-01	-18.7727	-39.133913	0.000228	2.280813	0.772760	-0.018473
1472	7.3550e-01	-18.8321	-39.189077	0.000136	1.362152	0.461510	-0.011033
1473	7.3600e-01	-18.8562	-39.243385	0.000134	1.341034	0.454354	-0.010862
1474	7.3650e-01	-18.8850	-39.340029	0.000239	2.386406	0.808536	-0.019329
1475	7.3700e-01	-18.9251	-39.406738	0.000165	1.647254	0.558105	-0.013342
1476	7.3750e-01	-18.9781	-39.449073	0.000105	1.045373	0.354182	-0.008467
1477	7.3800e-01	-19.0326	-39.547854	0.000244	2.439203	0.826424	-0.019756
1478	7.3850e-01	-19.0615	-39.583775	0.000089	0.886983	0.300518	-0.007184
1479	7.3900e-01	-19.0888	-39.662030	0.000193	1.932355	0.654700	-0.015651
1480	7.3950e-01	-19.1289	-39.726602	0.000159	1.594457	0.540217	-0.012914
1481	7.4000e-01	-19.1914	-39.809989	0.000206	2.059067	0.697631	-0.016677
1482	7.4050e-01	-19.2219	-39.835219	0.000062	0.623000	0.211078	-0.005046
1483	7.4100e-01	-19.2604	-39.913902	0.000194	1.942915	0.658277	-0.015737
1484	7.4150e-01	-19.2925	-39.986170	0.000178	1.784525	0.604613	-0.014454
1485	7.4200e-01	-19.3021	-40.137977	0.000375	3.748558	1.270046	-0.030361
1486	7.4250e-01	-19.3839	-40.117024	-0.000052	-0.517407	-0.175302	0.004191
1487	7.4300e-01	-19.4273	-40.189292	0.000178	1.784525	0.604613	-0.014454
1488	7.4350e-01	-19.4658	-40.269686	0.000199	1.985152	0.672588	-0.016079
1489	7.4400e-01	-19.4882	-40.308172	0.000095	0.950339	0.321983	-0.007697
1490	7.4450e-01	-19.5235	-40.376592	0.000169	1.689491	0.572415	-0.013684
1491	7.4500e-01	-19.5668	-40.443302	0.000165	1.647254	0.558105	-0.013342
1492	7.4550e-01	-19.5893	-40.537379	0.000232	2.323050	0.787071	-0.018816
1493	7.4600e-01	-19.6583	-40.621622	0.000208	2.080186	0.704786	-0.016848
1494	7.4650e-01	-19.7305	-40.663529	0.000103	1.034813	0.350604	-0.008381
1495	7.4700e-01	-19.7289	-40.718692	-0.000136	-1.362152	-0.461510	-0.011033
1496	7.4750e-01	-19.7609	-40.809777	0.000225	2.249135	0.762028	-0.018217
1497	7.4800e-01	-19.8075	-40.855533	0.000113	1.129847	0.382803	-0.009151
1498	7.4850e-01	-19.8652	-40.939347	0.000207	2.069627	0.701208	-0.016763
1499	7.4900e-01	-19.9149	-40.973130	0.000083	0.834186	0.282630	-0.006756
1500	7.4950e-01	-19.9422	-41.058227	0.000210	2.101304	0.711941	-0.017019
1501	7.5000e-01	-19.9775	-41.105266	0.000116	1.161525	0.393535	-0.009408
1502	7.5050e-01	-19.9133	-41.129213	-0.000059	-0.591322	-0.200345	-0.004789
1503	7.5100e-01	-19.8941	-41.071056	0.000144	1.436067	0.486553	0.011631
1504	7.5150e-01	-19.8508	-41.026583	0.000110	1.098169	0.372070	0.008895
1505	7.5200e-01	-19.7930	-40.984248	0.000105	1.045373	0.354182	0.008467
1506	7.5250e-01	-19.7625	-40.920959	0.000156	1.562779	0.529484	0.012658
1507	7.5300e-01	-19.7256	-40.847835	0.000181	1.805644	0.611769	0.014625
1508	7.5350e-01	-19.6615	-40.848263	-0.000001	-0.010559	-0.003578	-0.000086
1509	7.5400e-01	-19.6358	-40.782836	0.000162	1.615576	0.547372	0.013085
1510	7.5450e-01	-19.6053	-40.721258	0.000152	1.520542	0.515174	0.012316
1511	7.5500e-01	-19.5331	-40.680634	0.000100	1.003135	0.339871	0.008125
1512	7.5550e-01	-19.5171	-40.620339	0.000149	1.488864	0.504441	0.012059
1513	7.5600e-01	-19.4754	-40.564320	0.000138	1.383271	0.468665	0.011204
1514	7.5650e-01	-19.4192	-40.553201	0.000027	0.274542	0.093017	0.002224
1515	7.5700e-01	-19.3968	-40.482216	0.000175	1.752847	0.593881	0.014197
1516	7.5750e-01	-19.3647	-40.411230	0.000175	1.752847	0.593881	0.014197
1517	7.5800e-01	-19.3150	-40.345376	0.000163	1.626135	0.550949	0.013171
1518	7.5850e-01	-19.2893	-40.279521	0.000163	1.626135	0.550949	0.013171
1519	7.5900e-01	-19.2155	-40.248305	0.000077	0.770830	0.261164	0.006243
1520	7.5950e-01	-19.2155	-40.202121	-0.000114	-1.140406	-0.386380	0.009237
1521	7.6000e-01	-19.1561	-40.169194	0.000081	0.813068	0.275475	0.006585
1522	7.6050e-01	-19.1128	-40.062288	0.000264	2.639830	0.894399	0.021381
1523	7.6100e-01	-19.0856	-40.018242	0.000109	1.087610	0.368492	0.008809
1524	7.6150e-01	-19.0422	-39.980184	0.000094	0.939779	0.318406	0.007612
1525	7.6200e-01	-18.9893	-39.939559	0.000100	1.003135	0.339871	0.008125
1526	7.6250e-01	-18.9749	-39.832225	0.000265	2.650389	0.897976	0.021467
1527	7.6300e-01	-18.9316	-39.804857	0.000068	0.675796	0.228966	0.005474
1528	7.6350e-01	-18.8642	-39.765088	0.000098	0.982017	0.332716	0.007954
1529	7.6400e-01	-18.8578	-39.715911	0.000121	1.214322	0.411423	0.009835
1530	7.6450e-01	-18.7888	-39.668017	0.000118	1.182644	0.400691	0.009579
1531	7.6500e-01	-18.7663	-39.588906	0.000195	1.953474	0.661855	0.015822
1532	7.6550e-01	-18.7198	-39.544433	0.000110	1.098169	0.372070	0.008895
1533	7.6600e-01	-18.6717	-39.475158	0.000171	1.710610	0.579570	0.013855
1534	7.6650e-01	-18.6476	-39.407166	0.000168	1.678932	0.568837	0.013598
1535	7.6700e-01	-18.5979	-39.374239	0.000081	0.813068	0.275475	0.006585
1536	7.6750e-01	-18.5674	-39.311378	0.000155	1.552220	0.525906	0.012572
1537	7.6800e-01	-18.5481	-39.246379	0.000161	1.605016	0.543794	0.013000
1538	7.6850e-01	-18.4888	-39.205754	0.000100	1.003135	0.339871	0.008125
1539	7.6900e-01	-18.4439	-39.154867	0.000126	1.256559	0.425734	0.010177
1540	7.6950e-01	-18.4070	-39.068914	0.000212	2.122423	0.719096	0.017191
1541	7.7000e-01	-18.3669	-39.025296	0.000108	1.077051	0.364915	0.008724
1542	7.7050e-01	-18.3203	-38.979113	0.000114	1.140406	0.386380	0.009237
1543	7.7100e-01	-18.2690	-38.901713	0.000191	1.911237	0.647545	0.015480
1544	7.7150e-01	-18.2353	-38.866220	0.000088	0.876423	0.296940	0.007099
1545	7.7200e-01	-18.1808	-38.786681	0.000196	1.964033	0.665433	0.015908
1546	7.7250e-01	-18.1647	-38.735366	0.000127	1.267118	0.429311	0.010263
1547	7.7300e-01	-18.1134	-38.673361	0.000153	1.531101	0.518751	0.012401
1548	7.7350e-01	-18.0765	-38.628032	0.000112	1.119288	0.379225	0.009066
1549	7.7400e-01	-18.0396	-38.558757	0.000171	1.710610	0.579570	0.013855
1550	7.7450e-01	-18.0091	-38.476653	0.000203	2.027389	0.686898	0.016421
1551	7.7500e-01	-17.9433	-38.463397	0.000033	0.327339	0.110905	0.002651
1552	7.7550e-01	-17.9129	-38.409944	0.000132	1.319915	0.447199	0.010691
1553	7.7600e-01	-17.8712	-38.323991	0.000212	2.122423	0.719096	0.017191
1554	7.7650e-01	-17.8503	-38.234190	0.000222	2.217457	0.751295	0.017960
1555	7.7700e-01	-17.7893	-38.204256	0.000074	0.739152	0.250432	0.005987
1556	7.7750e-01	-17.7027	-38.154224	0.000124	1.235440	0.418579	0.010006
1557	7.7800e-01	-17.7107	-38.105474	-0.000120	-1.203762	-0.407846	0.009750
1558	7.7850e-01	-17.6883	-37.989160	0.000287	2.872135	0.973106	0.023263
1559	7.7900e-01	-17.6482	-38.001561	-0.000031	-0.306220	-0.103750	-0.002480
1560	7.7950e-01	-17.6032	-37.920313	0.000201	2.006271	0.679743	0.016250
1561	7.8000e-01	-17.5663	-37.868142	0.000129	1.288237	0.436466	0.010434
1562	7.8050e-01	-17.5230	-37.769789	0.000243	2.428643	0.822847	0.019671
1563	7.8100e-01	-17.5054	-37.734296	0.000088	0.876423	0.296940	0.007099
1564	7.8150e-01	-17.4541	-37.687257	0.000116	1.161525	0.393535	0.009408
1565	7.8200e-01	-17.3931	-37.626106	0.000151	1.509983	0.511596	0.012230
1566	7.8250e-01	-17.3530	-37.556404	0.000172	1.721169	0.583148	0.013941
1567	7.8300e-01	-17.3434	-37.480286	0.000188	1.879559	0.636812	0.015223
1568	7.8350e-01	-17.2712	-37.426405	0.000133	1.330474	0.450777	0.010776
1569	7.8400e-01	-17.2006	-37.394761	0.000078	0.781390	0.264742	0.006329
1570	7.8450e-01	-17.2150	-37.297263	-0.000241	-2.407525	-0.815691	0.019500
1571	7.8500e-01	-17.1412	-37.248941	0.000119	1.193203	0.404268	0.009664
1572	7.8550e-01	-17.1380	-37.204468	0.000110	1.098169	0.372070	0.008895
1573	7.8600e-01	-17.0722	-37.159140	0.000112	1.119288	0.379225	0.009066
1574	7.8650e-01	-17.0273	-37.071904	0.000215	2.154101	0.729829	0.017447
1575	7.8700e-01	-17.0129	-37.017596	0.000134	1.341034	0.454354	0.010862
1576	7.8750e-01	-16.9535	-36.957301	0.000149	1.488864	0.504441	0.012059
1577	7.8800e-01	-16.9150	-36.926084	0.000077	0.770830	0.261164	0.006243
1578	7.8850e-01	-16.9006	-36.826447	0.000246	2.460321	0.833579	0.019927
1579	7.8900e-01	-16.8268	-36.782402	0.000109	1.087610	0.368492	0.008809
1580	7.8950e-01	-16.8172	-36.694739	0.000216	2.164660	0.733407	0.017533
1581	7.9000e-01	-16.7706	-36.612635	0.000203	2.027389	0.686898	0.016421
1582	7.9050e-01	-16.7033	-36.596385	0.000040	0.401254	0.135949	0.003250
1583	7.9100e-01	-16.6824	-36.523261	0.000181	1.805644	0.611769	0.014625
1584	7.9150e-01	-16.6279	-36.450137	0.000181	1.805644	0.611769	0.014625
1585	7.9200e-01	-16.6247	-36.388131	0.000153	1.531101	0.518751	0.012401
1586	7.9250e-01	-16.5717	-36.353921	0.000084	0.844746	0.286208	0.006842
1587	7.9300e-01	-16.5124	-36.297902	0.000138	1.383271	0.468665	0.011204
1588	7.9350e-01	-16.4771	-36.222213	0.000187	1.868999	0.633234	0.015138
1589	7.9400e-01	-16.4241	-36.162345	0.000148	1.478305	0.500863	0.011974
1590	7.9450e-01	-16.4145	-36.092215	0.000173	1.731728	0.586725	0.014026
1591	7.9500e-01	-16.3535	-36.036196	0.000138	1.383271	0.468665	0.011204
1592	7.9550e-01	-16.3215	-35.975901	0.000149	1.488864	0.504441	0.012059
1593	7.9600e-01	-16.2765	-35.894652	0.000201	2.006271	0.679743	0.016250
1594	7.9650e-01	-16.2364	-35.868994	0.000063	0.633559	0.214656	0.005132
1595	7.9700e-01	-16.2028	-35.827942	0.000101	1.013695	0.343449	0.008210
1596	7.9750e-01	-16.1723	-35.705641	0.000302	3.019965	1.023192	0.024460
1597	7.9800e-01	-16.1193	-35.654754	0.000126	1.256559	0.425734	0.010177
1598	7.9850e-01	-16.1177	-35.589327	0.000162	1.615576	0.547372	0.013085
1599	7.9900e-01	-16.0311	-35.574360	0.000037	0.369576	0.125216	0.002993
1600	7.9950e-01	-15.9926	-35.495250	0.000195	1.953474	0.661855	0.015822
1601	8.0000e-01	-15.9766	-35.402027	0.000230	2.301932	0.779916	0.018644
1602	8.0050e-01	-15.8867	-35.381501	0.000051	0.506847	0.171725	0.004105
1603	8.0100e-01	-15.8771	-35.341305	0.000099	0.992576	0.336294	0.008039
1604	8.0150e-01	-15.8306	-35.236536	0.000259	2.587033	0.876511	0.020954
1605	8.0200e-01	-15.7969	-35.188642	0.000118	1.182644	0.400691	0.009579
1606	8.0250e-01	-15.7632	-35.103545	0.000210	2.101304	0.711941	0.017019
1607	8.0300e-01	-15.7103	-35.047954	0.000137	1.372711	0.465087	0.011118
1608	8.0350e-01	-15.6926	-34.976968	0.000175	1.752847	0.593881	0.014197
1609	8.0400e-01	-15.6268	-34.942758	0.000084	0.844746	0.286208	0.006842
1610	8.0450e-01	-15.6156	-34.877759	0.000161	1.605016	0.543794	0.013000
1611	8.0500e-01	-15.5707	-34.762300	0.000285	2.851016	0.965950	0.023092
1612	8.0550e-01	-15.5242	-34.764011	-0.000004	-0.042237	-0.014310	-0.000342
1613	8.0600e-01	-15.4921	-34.717827	0.000114	1.140406	0.386380	0.009237
1614	8.0650e-01	-15.4343	-34.638716	0.000195	1.953474	0.661855	0.015822
1615	8.0700e-01	-15.4103	-34.571579	0.000166	1.657813	0.561682	0.013427
1616	8.0750e-01	-15.3669	-34.462962	0.000268	2.682067	0.908709	0.021723
1617	8.0800e-01	-15.3188	-34.415924	0.000116	1.161525	0.393535	0.009408
1618	8.0850e-01	-15.2675	-34.344938	0.000175	1.752847	0.593881	0.014197
1619	8.0900e-01	-15.2691	-34.338096	-0.000017	-0.168949	-0.057242	0.001368
1620	8.0950e-01	-15.2033	-34.244018	0.000232	2.323050	0.787071	0.018816
1621	8.1000e-01	-15.1760	-34.153362	0.000224	2.238576	0.758450	0.018131
1622	8.1050e-01	-15.1311	-34.143526	0.000024	0.242864	0.082285	0.001967
1623	8.1100e-01	-15.0686	-34.067837	0.000187	1.868999	0.633234	0.015138
1624	8.1150e-01	-15.0220	-33.973759	0.000232	2.323050	0.787071	0.018816
1625	8.1200e-01	-15.0044	-33.898069	0.000187	1.868999	0.633234	0.015138
1626	8.1250e-01	-14.9643	-33.851031	0.000116	1.161525	0.393535	0.009408
1627	8.1300e-01	-14.9258	-33.764223	0.000214	2.143542	0.726252	0.017362
1628	8.1350e-01	-14.8953	-33.708204	0.000138	1.383271	0.468665	0.011204
1629	8.1400e-01	-14.8295	-33.694520	0.000034	0.337898	0.114483	0.002737
1630	8.1450e-01	-14.7910	-33.621396	0.000181	1.805644	0.611769	0.014625
1631	8.1500e-01	-14.7477	-33.547844	0.000182	1.816203	0.615346	0.014710
1632	8.1550e-01	-14.7140	-33.481562	0.000164	1.636694	0.554527	0.013256
1633	8.1600e-01	-14.6675	-33.409721	0.000177	1.773966	0.601036	0.014368
1634	8.1650e-01	-14.6338	-33.324624	0.000210	2.101304	0.711941	0.017019
1635	8.1700e-01	-14.5809	-33.318637	0.000015	0.147830	0.050086	0.001197
1636	8.1750e-01	-14.5408	-33.249362	0.000171	1.710610	0.579570	0.013855
1637	8.1800e-01	-14.5343	-33.151008	0.000243	2.428643	0.822847	0.019671
1638	8.1850e-01	-14.4958	-33.053509	0.000241	2.407525	0.815691	0.019500
1639	8.1900e-01	-14.4541	-33.005188	0.000119	1.193203	0.404268	0.009664
1640	8.1950e-01	-14.3980	-32.959004	0.000114	1.140406	0.386380	0.009237
1641	8.2000e-01	-14.3595	-32.911110	0.000118	1.182644	0.400691	0.009579
1642	8.2050e-01	-14.3162	-32.837986	0.000181	1.805644	0.611769	0.014625
1643	8.2100e-01	-14.2680	-32.772987	0.000161	1.605016	0.543794	0.013000
1644	8.2150e-01	-14.2151	-32.715258	0.000143	1.425508	0.482975	0.011546
1645	8.2200e-01	-14.1814	-32.644700	0.000174	1.742288	0.590303	0.014112
1646	8.2250e-01	-14.1622	-32.581839	0.000155	1.552220	0.525906	0.012572
1647	8.2300e-01	-14.1221	-32.526675	0.000136	1.362152	0.461510	0.011033
1648	8.2350e-01	-14.0771	-32.456117	0.000174	1.742288	0.590303	0.014112
1649	8.2400e-01	-14.0354	-32.385986	0.000173	1.731728	0.586725	0.014026
1650	8.2450e-01	-13.9953	-32.329540	0.000139	1.393830	0.472242	0.011289
1651	8.2500e-01	-13.9488	-32.282501	0.000116	1.161525	0.393535	0.009408
1652	8.2550e-01	-13.9263	-32.163621	0.000294	2.935491	0.994571	0.023776
1653	8.2600e-01	-13.8782	-32.101616	0.000153	1.531101	0.518751	0.012401
1654	8.2650e-01	-13.8590	-32.022077	0.000196	1.964033	0.665433	0.015908
1655	8.2700e-01	-13.7900	-31.975466	0.000115	1.150966	0.389958	0.009322
1656	8.2750e-01	-13.7403	-31.937835	0.000093	0.929220	0.314828	0.007526
1657	8.2800e-01	-13.6793	-31.871553	0.000164	1.636694	0.554527	0.013256
1658	8.2850e-01	-13.6697	-31.767640	0.000257	2.565915	0.869355	0.020783
1659	8.2900e-01	-13.6135	-31.701786	0.000163	1.626135	0.550949	0.013171
1660	8.2950e-01	-13.5991	-31.668004	0.000083	0.834186	0.282630	0.006756
1661	8.3000e-01	-13.5349	-31.585899	0.000203	2.027389	0.686898	0.016421
1662	8.3050e-01	-13.5141	-31.507216	0.000194	1.942915	0.658277	0.015737
1663	8.3100e-01	-13.4723	-31.475145	0.000079	0.791949	0.268320	0.006414
1664	8.3150e-01	-13.4322	-31.403731	0.000176	1.763406	0.597458	0.014283
1665	8.3200e-01	-13.3761	-31.336166	0.000167	1.668372	0.565260	0.013513
1666	8.3250e-01	-13.3183	-31.229688	0.000263	2.629270	0.890821	0.021296
1667	8.3300e-01	-13.3248	-31.151432	-0.000193	-1.932355	-0.654700	0.015651
1668	8.3350e-01	-13.2654	-31.106104	0.000112	1.119288	0.379225	0.009066
1669	8.3400e-01	-13.2381	-31.043671	0.000154	1.541661	0.522329	0.012487
1670	8.3450e-01	-13.1964	-30.982093	0.000152	1.520542	0.515174	0.012316
1671	8.3500e-01	-13.1740	-30.923936	0.000144	1.436067	0.486553	0.011631
1672	8.3550e-01	-13.1130	-30.855088	0.000170	1.700050	0.575993	0.013770
1673	8.3600e-01	-13.0889	-30.804200	0.000126	1.256559	0.425734	0.010177
1674	8.3650e-01	-13.0216	-30.730221	0.000183	1.826762	0.618924	0.014796
1675	8.3700e-01	-13.0103	-30.644696	0.000211	2.111864	0.715519	0.017105
1676	8.3750e-01	-12.9526	-30.602789	0.000103	1.034813	0.350604	0.008381
1677	8.3800e-01	-12.9237	-30.502297	0.000248	2.481440	0.840735	0.020098
1678	8.3850e-01	-12.8531	-30.451837	0.000125	1.246000	0.422156	0.010092
1679	8.3900e-01	-12.8611	-30.359470	-0.000228	-2.280813	-0.772760	0.018473
1680	8.3950e-01	-12.7922	-30.319273	0.000099	0.992576	0.336294	0.008039
1681	8.4000e-01	-12.7376	-30.244011	0.000186	1.858440	0.629657	0.015052
1682	8.4050e-01	-12.7119	-30.199966	0.000109	1.087610	0.368492	0.008809
1683	8.4100e-01	-12.6750	-30.117007	0.000205	2.048508	0.694053	0.016592
1684	8.4150e-01	-12.6494	-30.037041	0.000197	1.974593	0.669010	0.015993
1685	8.4200e-01	-12.6012	-29.991712	0.000112	1.119288	0.379225	0.009066
1686	8.4250e-01	-12.5547	-29.929279	0.000154	1.541661	0.522329	0.012487
1687	8.4300e-01	-12.5146	-29.824083	0.000260	2.597592	0.880088	0.021039
1688	8.4350e-01	-12.4793	-29.802702	0.000053	0.527966	0.178880	0.004276
1689	8.4400e-01	-12.4344	-29.673132	0.000320	3.199474	1.084011	0.025914
1690	8.4450e-01	-12.3751	-29.645336	0.000069	0.686356	0.232544	0.005559
1691	8.4500e-01	-12.3574	-29.580337	0.000161	1.605016	0.543794	0.013000
1692	8.4550e-01	-12.3061	-29.491391	0.000220	2.196338	0.744140	0.017789
1693	8.4600e-01	-12.2740	-29.441786	0.000122	1.224881	0.415001	0.009921
1694	8.4650e-01	-12.2226	-29.370801	0.000175	1.752847	0.593881	0.014197
1695	8.4700e-01	-12.1777	-29.321196	0.000122	1.224881	0.415001	0.009921
1696	8.4750e-01	-12.1440	-29.241230	0.000197	1.974593	0.669010	0.015993
1697	8.4800e-01	-12.1039	-29.166823	0.000184	1.837322	0.622501	0.014881
1698	8.4850e-01	-12.0799	-29.072318	0.000233	2.333609	0.790648	0.018901
1699	8.4900e-01	-12.0269	-29.029128	0.000107	1.066491	0.361337	0.008638
1700	8.4950e-01	-11.9836	-28.926070	0.000254	2.544796	0.862200	0.020612
1701	8.5000e-01	-11.9612	-28.914097	0.000030	0.295661	0.100173	0.002395
1702	8.5050e-01	-11.9178	-28.794789	0.000295	2.946050	0.998149	0.023861
1703	8.5100e-01	-11.8922	-28.743902	0.000126	1.256559	0.425734	0.010177
1704	8.5150e-01	-11.8473	-28.674627	0.000171	1.710610	0.579570	0.013855
1705	8.5200e-01	-11.8072	-28.609200	0.000162	1.615576	0.547372	0.013085
1706	8.5250e-01	-11.7398	-28.526668	0.000204	2.037949	0.690476	0.016506
1707	8.5300e-01	-11.6965	-28.499300	0.000068	0.675796	0.228966	0.005474
1708	8.5350e-01	-11.6692	-28.404367	0.000234	2.344169	0.794226	0.018987
1709	8.5400e-01	-11.6387	-28.312000	0.000228	2.280813	0.772760	0.018473
1710	8.5450e-01	-11.5810	-28.279928	0.000079	0.791949	0.268320	0.006414
1711	8.5500e-01	-11.5296	-28.198252	0.000202	2.016830	0.683320	0.016335
1712	8.5550e-01	-11.5040	-28.134108	0.000158	1.583898	0.536639	0.012829
1713	8.5600e-01	-11.4863	-28.038320	0.000237	2.365287	0.801381	0.019158
1714	8.5650e-01	-11.4205	-28.000689	0.000093	0.929220	0.314828	0.007526
1715	8.5700e-01	-11.3836	-27.919868	0.000200	1.995711	0.676165	0.016164
1716	8.5750e-01	-11.3451	-27.875823	0.000109	1.087610	0.368492	0.008809
1717	8.5800e-01	-11.3227	-27.764212	0.000276	2.755982	0.933752	0.022322
1718	8.5850e-01	-11.2858	-27.722305	0.000103	1.034813	0.350604	0.008381
1719	8.5900e-01	-11.2585	-27.578623	0.000355	3.547931	1.202072	0.028736
1720	8.5950e-01	-11.1943	-27.566650	0.000030	0.295661	0.100173	0.002395
1721	8.6000e-01	-11.1735	-27.487111	0.000196	1.964033	0.665433	0.015908
1722	8.6050e-01	-11.1205	-27.398593	0.000219	2.185779	0.740562	0.017704
1723	8.6100e-01	-11.0804	-27.338298	0.000149	1.488864	0.504441	0.012059
1724	8.6150e-01	-11.0387	-27.286127	0.000129	1.288237	0.436466	0.010434
1725	8.6200e-01	-10.9778	-27.221556	0.000159	1.594457	0.540217	0.012914
1726	8.6250e-01	-10.9537	-27.133465	0.000218	2.175220	0.736984	0.017618
1727	8.6300e-01	-10.9280	-27.053499	0.000197	1.974593	0.669010	0.015993
1728	8.6350e-01	-10.8831	-26.980375	0.000181	1.805644	0.611769	0.014625
1729	8.6400e-01	-10.8270	-26.901265	0.000195	1.953474	0.661855	0.015822
1730	8.6450e-01	-10.7885	-26.854653	0.000115	1.150966	0.389958	0.009322
1731	8.6500e-01	-10.7692	-26.769984	0.000209	2.090745	0.708364	0.016934
1732	8.6550e-01	-10.7227	-26.700708	0.000171	1.710610	0.579570	0.013855
1733	8.6600e-01	-10.7002	-26.595940	0.000259	2.587033	0.876511	0.020954
1734	8.6650e-01	-10.6473	-26.589098	0.000017	0.168949	0.057242	0.001368
1735	8.6700e-01	-10.5927	-26.481337	0.000266	2.660948	0.901554	0.021552
1736	8.6750e-01	-10.5655	-26.415910	0.000162	1.615576	0.547372	0.013085
1737	8.6800e-01	-10.5254	-26.362029	0.000133	1.330474	0.450777	0.010776
1738	8.6850e-01	-10.4869	-26.221768	0.000346	3.463457	1.173451	0.028052
1739	8.6900e-01	-10.4211	-26.227327	-0.000014	-0.137271	-0.046509	-0.001112
1740	8.6950e-01	-10.3874	-26.130256	0.000240	2.396965	0.812114	0.019414
1741	8.7000e-01	-10.3649	-26.065685	0.000159	1.594457	0.540217	0.012914
1742	8.7050e-01	-10.3297	-25.977594	0.000218	2.175220	0.736984	0.017618
1743	8.7100e-01	-10.2751	-25.913450	0.000158	1.583898	0.536639	0.012829
1744	8.7150e-01	-10.2286	-25.817662	0.000237	2.365287	0.801381	0.019158
1745	8.7200e-01	-10.1789	-25.783452	0.000084	0.844746	0.286208	0.006842
1746	8.7250e-01	-10.1773	-25.703914	0.000196	1.964033	0.665433	0.015908
1747	8.7300e-01	-10.1388	-25.635066	0.000170	1.700050	0.575993	0.013770
1748	8.7350e-01	-10.0826	-25.555100	0.000197	1.974593	0.669010	0.015993
1749	8.7400e-01	-10.0489	-25.464871	0.000223	2.228016	0.754872	0.018046
1750	8.7450e-01	-9.9960	-25.394741	0.000173	1.731728	0.586725	0.014026
1751	8.7500e-01	-9.9655	-25.351978	0.000106	1.055932	0.357759	0.008553
1752	8.7550e-01	-9.9013	-25.248921	0.000254	2.544796	0.862200	0.020612
1753	8.7600e-01	-9.8837	-25.148429	0.000248	2.481440	0.840735	0.020098
1754	8.7650e-01	-9.8420	-25.132179	0.000040	0.401254	0.135949	0.003250
1755	8.7700e-01	-9.7970	-25.064614	0.000167	1.668372	0.565260	0.013513
1756	8.7750e-01	-9.7618	-24.981227	0.000206	2.059067	0.697631	0.016677
1757	8.7800e-01	-9.7249	-24.887577	0.000231	2.312491	0.783493	0.018730
1758	8.7850e-01	-9.6559	-24.820012	0.000167	1.668372	0.565260	0.013513
1759	8.7900e-01	-9.6142	-24.748599	0.000176	1.763406	0.597458	0.014283
1760	8.7950e-01	-9.5789	-24.663502	0.000210	2.101304	0.711941	0.017019
1761	8.8000e-01	-9.5612	-24.615180	0.000119	1.193203	0.404268	0.009664
1762	8.8050e-01	-9.5035	-24.531365	0.000207	2.069627	0.701208	0.016763
1763	8.8100e-01	-9.4810	-24.431729	0.000246	2.460321	0.833579	0.019927
1764	8.8150e-01	-9.4185	-24.364164	0.000167	1.668372	0.565260	0.013513
1765	8.8200e-01	-9.3912	-24.292750	0.000176	1.763406	0.597458	0.014283
1766	8.8250e-01	-9.3735	-24.236304	0.000139	1.393830	0.472242	0.011289
1767	8.8300e-01	-9.3639	-24.146075	0.000223	2.228016	0.754872	0.018046
1768	8.8350e-01	-9.2693	-24.074662	0.000176	1.763406	0.597458	0.014283
1769	8.8400e-01	-9.2292	-23.978446	0.000238	2.375847	0.804959	0.019243
1770	8.8450e-01	-9.1923	-23.916868	0.000152	1.520542	0.515174	0.012316
1771	8.8500e-01	-9.1666	-23.844172	0.000180	1.795084	0.608191	0.014539
1772	8.8550e-01	-9.0944	-23.776607	0.000167	1.668372	0.565260	0.013513
1773	8.8600e-01	-9.0607	-23.726147	0.000125	1.246000	0.422156	0.010092
1774	8.8650e-01	-9.0318	-23.675260	0.000126	1.256559	0.425734	0.010177
1775	8.8700e-01	-9.0110	-23.531150	0.000356	3.558490	1.205649	0.028822
1776	8.8750e-01	-8.9500	-23.464868	0.000164	1.636694	0.554527	0.013256
1777	8.8800e-01	-8.8939	-23.418257	0.000115	1.150966	0.389958	0.009322
1778	8.8850e-01	-8.8762	-23.330166	0.000218	2.175220	0.736984	0.017618
1779	8.8900e-01	-8.8473	-23.269016	0.000151	1.509983	0.511596	0.012230
1780	8.8950e-01	-8.7687	-23.187339	0.000202	2.016830	0.683320	0.016335
1781	8.9000e-01	-8.7607	-23.091123	0.000238	2.375847	0.804959	0.019243
1782	8.9050e-01	-8.7094	-23.007736	0.000206	2.059067	0.697631	0.016677
1783	8.9100e-01	-8.6661	-22.954711	0.000131	1.309356	0.443622	0.010605
1784	8.9150e-01	-8.6356	-22.904679	0.000124	1.235440	0.418579	0.010006
1785	8.9200e-01	-8.5939	-22.766983	0.000340	3.400101	1.151985	0.027539
1786	8.9250e-01	-8.5522	-22.739188	0.000069	0.686356	0.232544	0.005559
1787	8.9300e-01	-8.4896	-22.668202	0.000175	1.752847	0.593881	0.014197
1788	8.9350e-01	-8.4784	-22.554026	0.000282	2.819338	0.955218	0.022835
1789	8.9400e-01	-8.4126	-22.504849	0.000121	1.214322	0.411423	0.009835
1790	8.9450e-01	-8.3966	-22.382548	0.000302	3.019965	1.023192	0.024460
1791	8.9500e-01	-8.3613	-22.300017	0.000204	2.037949	0.690476	0.016506
1792	8.9550e-01	-8.3115	-22.240577	0.000147	1.467745	0.497286	0.011888
1793	8.9600e-01	-8.2698	-22.153769	0.000214	2.143542	0.726252	0.017362
1794	8.9650e-01	-8.2185	-22.091336	0.000154	1.541661	0.522329	0.012487
1795	8.9700e-01	-8.1896	-22.013935	0.000191	1.911237	0.647545	0.015480
1796	8.9750e-01	-8.1575	-21.937818	0.000188	1.879559	0.636812	0.015223
1797	8.9800e-01	-8.1142	-21.862984	0.000185	1.847881	0.626079	0.014967
1798	8.9850e-01	-8.0773	-21.783873	0.000195	1.953474	0.661855	0.015822
1799	8.9900e-01	-8.0725	-21.685947	0.000242	2.418084	0.819269	0.019585
1800	8.9950e-01	-8.0051	-21.610685	0.000186	1.858440	0.629657	0.015052
1801	9.0000e-01	-7.9811	-21.558087	0.000130	1.298796	0.440044	0.010520
1802	9.0050e-01	-7.9041	-21.474272	0.000207	2.069627	0.701208	0.016763
1803	9.0100e-01	-7.8607	-21.411411	0.000155	1.552220	0.525906	0.012572
1804	9.0150e-01	-7.8335	-21.337432	0.000183	1.826762	0.618924	0.014796
1805	9.0200e-01	-7.8142	-21.210427	0.000314	3.136118	1.062545	0.025401
1806	9.0250e-01	-7.7597	-21.145428	0.000161	1.605016	0.543794	0.013000
1807	9.0300e-01	-7.7115	-21.096251	0.000121	1.214322	0.411423	0.009835
1808	9.0350e-01	-7.6730	-20.984214	0.000277	2.766542	0.937330	0.022408
1809	9.0400e-01	-7.6265	-20.886715	0.000241	2.407525	0.815691	0.019500
1810	9.0450e-01	-7.6041	-20.837966	0.000120	1.203762	0.407846	0.009750
1811	9.0500e-01	-7.5495	-20.755007	0.000205	2.048508	0.694053	0.016592
1812	9.0550e-01	-7.5078	-20.683165	0.000177	1.773966	0.601036	0.014368
1813	9.0600e-01	-7.4870	-20.601917	0.000201	2.006271	0.679743	0.016250
1814	9.0650e-01	-7.4340	-20.519813	0.000203	2.027389	0.686898	0.016421
1815	9.0700e-01	-7.4388	-20.436426	-0.000206	-2.059067	-0.697631	0.016677
1816	9.0750e-01	-7.3346	-20.365440	0.000175	1.752847	0.593881	0.014197
1817	9.0800e-01	-7.2864	-20.313270	0.000129	1.288237	0.436466	0.010434
1818	9.0850e-01	-7.2624	-20.193962	0.000295	2.946050	0.998149	0.023861
1819	9.0900e-01	-7.2303	-20.101595	0.000228	2.280813	0.772760	0.018473
1820	9.0950e-01	-7.1870	-20.028471	0.000181	1.805644	0.611769	0.014625
1821	9.1000e-01	-7.1517	-19.977156	0.000127	1.267118	0.429311	0.010263
1822	9.1050e-01	-7.0923	-19.883934	0.000230	2.301932	0.779916	0.018644
1823	9.1100e-01	-7.0795	-19.800547	0.000206	2.059067	0.697631	0.016677
1824	9.1150e-01	-7.0346	-19.737258	0.000156	1.562779	0.529484	0.012658
1825	9.1200e-01	-6.9624	-19.643181	0.000232	2.323050	0.787071	0.018816
1826	9.1250e-01	-6.9495	-19.556800	0.000213	2.132982	0.722674	0.017276
1827	9.1300e-01	-6.8950	-19.493940	0.000155	1.552220	0.525906	0.012572
1828	9.1350e-01	-6.8565	-19.420816	0.000181	1.805644	0.611769	0.014625
1829	9.1400e-01	-6.8372	-19.337856	0.000205	2.048508	0.694053	0.016592
1830	9.1450e-01	-6.7747	-19.234371	0.000256	2.555355	0.865778	0.020697
1831	9.1500e-01	-6.7442	-19.148418	0.000212	2.122423	0.719096	0.017191
1832	9.1550e-01	-6.6864	-19.075722	0.000180	1.795084	0.608191	0.014539
1833	9.1600e-01	-6.6624	-19.004736	0.000175	1.752847	0.593881	0.014197
1834	9.1650e-01	-6.6303	-18.922632	0.000203	2.027389	0.686898	0.016421
1835	9.1700e-01	-6.5741	-18.848653	0.000183	1.826762	0.618924	0.014796
1836	9.1750e-01	-6.5453	-18.760562	0.000218	2.175220	0.736984	0.017618
1837	9.1800e-01	-6.4779	-18.662636	0.000242	2.418084	0.819269	0.019585
1838	9.1850e-01	-6.4715	-18.581387	0.000201	2.006271	0.679743	0.016250
1839	9.1900e-01	-6.4330	-18.476619	0.000259	2.587033	0.876511	0.020954
1840	9.1950e-01	-6.4298	-18.339779	0.000338	3.378982	1.144830	0.027368
1841	9.2000e-01	-6.3688	-18.335930	0.000010	0.095034	0.032198	0.000770
1842	9.2050e-01	-6.2982	-18.303003	0.000081	0.813068	0.275475	0.006585
1843	9.2100e-01	-6.2950	-18.167874	0.000334	3.336745	1.130520	0.027026
1844	9.2150e-01	-6.2469	-18.119124	0.000120	1.203762	0.407846	0.009750
1845	9.2200e-01	-6.1811	-18.018205	0.000249	2.491999	0.844312	0.020184
1846	9.2250e-01	-6.1619	-17.942087	0.000188	1.879559	0.636812	0.015223
1847	9.2300e-01	-6.1057	-17.862549	0.000196	1.964033	0.665433	0.015908
1848	9.2350e-01	-6.0528	-17.777452	0.000210	2.101304	0.711941	0.017019
1849	9.2400e-01	-6.0255	-17.686795	0.000224	2.238576	0.758450	0.018131
1850	9.2450e-01	-5.9934	-17.609395	0.000191	1.911237	0.647545	0.015480
1851	9.2500e-01	-5.9373	-17.537554	0.000177	1.773966	0.601036	0.014368
1852	9.2550e-01	-5.9196	-17.368642	0.000417	4.170931	1.413150	0.033782
1853	9.2600e-01	-5.8795	-17.362655	0.000015	0.147830	0.050086	0.001197
1854	9.2650e-01	-5.8362	-17.242920	0.000296	2.956609	1.001726	0.023947
1855	9.2700e-01	-5.7736	-17.184335	0.000145	1.446627	0.490130	0.011717
1856	9.2750e-01	-5.7608	-17.091541	0.000229	2.291372	0.776338	0.018559
1857	9.2800e-01	-5.6918	-17.027825	0.000157	1.573339	0.533062	0.012743
1858	9.2850e-01	-5.6806	-16.926050	0.000251	2.513118	0.851467	0.020355
1859	9.2900e-01	-5.6405	-16.826413	0.000246	2.460321	0.833579	0.019927
1860	9.2950e-01	-5.5795	-16.786644	0.000098	0.982017	0.332716	0.007954
1861	9.3000e-01	-5.5603	-16.694277	0.000228	2.280813	0.772760	0.018473
1862	9.3050e-01	-5.5041	-16.556154	0.000341	3.410660	1.155563	0.027625
1863	9.3100e-01	-5.4769	-16.507405	0.000120	1.203762	0.407846	0.009750
1864	9.3150e-01	-5.4287	-16.400926	0.000263	2.629270	0.890821	0.021296
1865	9.3200e-01	-5.4047	-16.275632	0.000309	3.093880	1.048235	0.025059
1866	9.3250e-01	-5.3485	-16.236290	0.000097	0.971457	0.329139	0.007868
1867	9.3300e-01	-5.2988	-16.179844	0.000139	1.393830	0.472242	0.011289
1868	9.3350e-01	-5.2667	-16.054549	0.000309	3.093880	1.048235	0.025059
1869	9.3400e-01	-5.2507	-15.977577	0.000190	1.900677	0.643967	0.015395
1870	9.3450e-01	-5.1769	-15.892907	0.000209	2.090745	0.708364	0.016934
1871	9.3500e-01	-5.1335	-15.806954	0.000212	2.122423	0.719096	0.017191
1872	9.3550e-01	-5.0999	-15.713305	0.000231	2.312491	0.783493	0.018730
1873	9.3600e-01	-5.0630	-15.638898	0.000184	1.837322	0.622501	0.014881
1874	9.3650e-01	-5.0694	-15.480249	-0.000392	-3.917507	-1.327287	0.031730
1875	9.3700e-01	-4.9908	-15.481104	-0.000002	-0.021119	-0.007155	-0.000171
1876	9.3750e-01	-4.9603	-15.359658	0.000300	2.998847	1.016037	0.024289
1877	9.3800e-01	-4.9218	-15.254890	0.000259	2.587033	0.876511	0.020954
1878	9.3850e-01	-4.8608	-15.209134	0.000113	1.129847	0.382803	0.009151
1879	9.3900e-01	-4.8496	-15.100518	0.000268	2.682067	0.908709	0.021723
1880	9.3950e-01	-4.7838	-14.995749	0.000259	2.587033	0.876511	0.020954
1881	9.4000e-01	-4.7582	-14.894830	0.000249	2.491999	0.844312	0.020184
1882	9.4050e-01	-4.7068	-14.821278	0.000182	1.816203	0.615346	0.014710
1883	9.4100e-01	-4.6892	-14.710951	0.000272	2.724304	0.923019	0.022065
1884	9.4150e-01	-4.6378	-14.632695	0.000193	1.932355	0.654700	0.015651
1885	9.4200e-01	-4.5865	-14.583091	0.000122	1.224881	0.415001	0.009921
1886	9.4250e-01	-4.5753	-14.458652	0.000307	3.072762	1.041080	0.024888
1887	9.4300e-01	-4.5255	-14.373982	0.000209	2.090745	0.708364	0.016934
1888	9.4350e-01	-4.4726	-14.295299	0.000194	1.942915	0.658277	0.015737
1889	9.4400e-01	-4.4277	-14.200366	0.000234	2.344169	0.794226	0.018987
1890	9.4450e-01	-4.4020	-14.126387	0.000183	1.826762	0.618924	0.014796
1891	9.4500e-01	-4.3603	-13.988264	0.000341	3.410660	1.155563	0.027625
1892	9.4550e-01	-4.3138	-13.915996	0.000178	1.784525	0.604613	0.014454
1893	9.4600e-01	-4.2689	-13.846293	0.000172	1.721169	0.583148	0.013941
1894	9.4650e-01	-4.2207	-13.747939	0.000243	2.428643	0.822847	0.019671
1895	9.4700e-01	-4.1870	-13.644026	0.000257	2.565915	0.869355	0.020783
1896	9.4750e-01	-4.1566	-13.533271	0.000273	2.734864	0.926597	0.022151
1897	9.4800e-01	-4.1165	-13.432779	0.000248	2.481440	0.840735	0.020098
1898	9.4850e-01	-4.0796	-13.354096	0.000194	1.942915	0.658277	0.015737
1899	9.4900e-01	-4.0298	-13.302353	0.000128	1.277678	0.432889	0.010349
1900	9.4950e-01	-3.9721	-13.204855	0.000241	2.407525	0.815691	0.019500
1901	9.5000e-01	-3.9641	-13.091962	0.000279	2.787660	0.944485	0.022579
1902	9.5050e-01	-3.9047	-12.990614	0.000250	2.502559	0.847890	0.020269
1903	9.5100e-01	-3.8518	-12.934168	0.000139	1.393830	0.472242	0.011289
1904	9.5150e-01	-3.8389	-12.820420	0.000281	2.808779	0.951640	0.022750
1905	9.5200e-01	-3.7892	-12.728052	0.000228	2.280813	0.772760	0.018473
1906	9.5250e-01	-3.7539	-12.597199	0.000323	3.231152	1.094744	0.026171
1907	9.5300e-01	-3.7058	-12.543318	0.000133	1.330474	0.450777	0.010776
1908	9.5350e-01	-3.6657	-12.423583	0.000296	2.956609	1.001726	0.023947
1909	9.5400e-01	-3.6625	-12.275197	0.000366	3.664084	1.241425	0.029677
1910	9.5450e-01	-3.5919	-12.247402	0.000069	0.686356	0.232544	0.005559
1911	9.5500e-01	-3.5502	-12.158456	0.000220	2.196338	0.744140	0.017789
1912	9.5550e-01	-3.4892	-12.060102	0.000243	2.428643	0.822847	0.019671
1913	9.5600e-01	-3.4860	-11.943788	0.000287	2.872135	0.973106	0.023263
1914	9.5650e-01	-3.4587	-11.851848	0.000227	2.270254	0.769183	0.018388
1915	9.5700e-01	-3.4122	-11.747935	0.000257	2.565915	0.869355	0.020783
1916	9.5750e-01	-3.3528	-11.700041	0.000118	1.182644	0.400691	0.009579
1917	9.5800e-01	-3.3047	-11.556359	0.000355	3.547931	1.202072	0.028736
1918	9.5850e-01	-3.2823	-11.495209	0.000151	1.509983	0.511596	0.012230
1919	9.5900e-01	-3.2325	-11.377184	0.000291	2.914372	0.987416	0.023605
1920	9.5950e-01	-3.1908	-11.284390	0.000229	2.291372	0.776338	0.018559
1921	9.6000e-01	-3.1892	-11.143701	0.000347	3.474016	1.177028	0.028138
1922	9.6050e-01	-3.1202	-11.113767	0.000074	0.739152	0.250432	0.005987
1923	9.6100e-01	-3.0561	-11.024393	0.000221	2.206898	0.747717	0.017875
1924	9.6150e-01	-3.0192	-10.896533	0.000316	3.157236	1.069701	0.025572
1925	9.6200e-01	-3.0047	-10.793903	0.000253	2.534237	0.858623	0.020526
1926	9.6250e-01	-2.9614	-10.693839	0.000247	2.470881	0.837157	0.020013
1927	9.6300e-01	-2.9133	-10.609169	0.000209	2.090745	0.708364	0.016934
1928	9.6350e-01	-2.8555	-10.496704	0.000278	2.777101	0.940907	0.022493
1929	9.6400e-01	-2.8732	-10.357726	-0.000343	-3.431779	-1.162718	0.027796
1930	9.6450e-01	-2.7593	-10.329930	0.000069	0.686356	0.232544	0.005559
1931	9.6500e-01	-2.7593	-10.210195	-0.000296	-2.956609	-1.001726	0.023947
1932	9.6550e-01	-2.7015	-10.128091	0.000203	2.027389	0.686898	0.016421
1933	9.6600e-01	-2.6598	-9.988257	0.000345	3.452897	1.169873	0.027967
1934	9.6650e-01	-2.6550	-9.905726	0.000204	2.037949	0.690476	0.016506
1935	9.6700e-01	-2.5652	-9.829181	0.000189	1.890118	0.640389	0.015309
1936	9.6750e-01	-2.5764	-9.685499	-0.000355	-3.547931	-1.202072	0.028736
1937	9.6800e-01	-2.5074	-9.593559	0.000227	2.270254	0.769183	0.018388
1938	9.6850e-01	-2.4801	-9.455864	0.000340	3.400101	1.151985	0.027539
1939	9.6900e-01	-2.4593	-9.369056	0.000214	2.143542	0.726252	0.017362
1940	9.6950e-01	-2.3967	-9.278399	0.000224	2.238576	0.758450	0.018131
1941	9.7000e-01	-2.3502	-9.170638	0.000266	2.660948	0.901554	0.021552
1942	9.7050e-01	-2.3069	-9.052186	0.000292	2.924931	0.990994	0.023690
1943	9.7100e-01	-2.2796	-8.933306	0.000294	2.935491	0.994571	0.023776
1944	9.7150e-01	-2.2427	-8.880708	0.000130	1.298796	0.440044	0.010520
1945	9.7200e-01	-2.1834	-8.751565	0.000319	3.188914	1.080433	0.025829
1946	9.7250e-01	-2.1497	-8.675875	0.000187	1.868999	0.633234	0.015138
1947	9.7300e-01	-2.1112	-8.516799	0.000393	3.928067	1.330865	0.031815
1948	9.7350e-01	-2.0598	-8.422294	0.000233	2.333609	0.790648	0.018901
1949	9.7400e-01	-2.0229	-8.380814	0.000102	1.024254	0.347027	0.008296
1950	9.7450e-01	-1.9860	-8.225586	0.000383	3.833033	1.298667	0.031046
1951	9.7500e-01	-1.9395	-8.118680	0.000264	2.639830	0.894399	0.021381
1952	9.7550e-01	-1.9475	-8.017760	-0.000249	-2.491999	-0.844312	0.020184
1953	9.7600e-01	-1.8834	-7.883913	0.000331	3.305067	1.119787	0.026769
1954	9.7650e-01	-1.8561	-7.775724	0.000267	2.671508	0.905131	0.021638
1955	9.7700e-01	-1.7775	-7.720988	0.000135	1.351593	0.457932	0.010947
1956	9.7750e-01	-1.7566	-7.575168	0.000360	3.600728	1.219960	0.029164
1957	9.7800e-01	-1.7262	-7.450301	0.000308	3.083321	1.044657	0.024973
1958	9.7850e-01	-1.6716	-7.371191	0.000195	1.953474	0.661855	0.015822
1959	9.7900e-01	-1.6379	-7.257442	0.000281	2.808779	0.951640	0.022750
1960	9.7950e-01	-1.6058	-7.121458	0.000336	3.357863	1.137675	0.027197
1961	9.8000e-01	-1.5657	-7.050899	0.000174	1.742288	0.590303	0.014112
1962	9.8050e-01	-1.5224	-6.907645	0.000354	3.537372	1.198494	0.028651
1963	9.8100e-01	-1.4679	-6.859751	0.000118	1.182644	0.400691	0.009579
1964	9.8150e-01	-1.4262	-6.719917	0.000345	3.452897	1.169873	0.027967
1965	9.8200e-01	-1.3636	-6.562124	0.000390	3.896389	1.320132	0.031559
1966	9.8250e-01	-1.3845	-6.453079	-0.000269	-2.692626	-0.912286	0.021809
1967	9.8300e-01	-1.3267	-6.372686	0.000199	1.985152	0.672588	0.016079
1968	9.8350e-01	-1.2722	-6.271338	0.000250	2.502559	0.847890	0.020269
1969	9.8400e-01	-1.2224	-6.132788	0.000342	3.421219	1.159140	0.027710
1970	9.8450e-01	-1.2176	-5.976277	0.000386	3.864711	1.309399	0.031302
1971	9.8500e-01	-1.1759	-5.886476	0.000222	2.217457	0.751295	0.017960
1972	9.8550e-01	-1.1101	-5.817200	0.000171	1.710610	0.579570	0.013855
1973	9.8600e-01	-1.0796	-5.653848	0.000403	4.033660	1.366641	0.032671
1974	9.8650e-01	-1.0428	-5.502041	0.000375	3.748558	1.270046	0.030361
1975	9.8700e-01	-0.9754	-5.449443	0.000130	1.298796	0.440044	0.010520
1976	9.8750e-01	-0.9609	-5.349806	0.000246	2.460321	0.833579	0.019927
1977	9.8800e-01	-0.9096	-5.219808	0.000321	3.210033	1.087589	0.026000
1978	9.8850e-01	-0.8599	-5.113757	0.000262	2.618711	0.887243	0.021210
1979	9.8900e-01	-0.8390	-4.988035	0.000310	3.104440	1.051813	0.025144
1980	9.8950e-01	-0.7700	-4.882412	0.000261	2.608152	0.883666	0.021125
1981	9.9000e-01	-0.7460	-4.743433	0.000343	3.431779	1.162718	0.027796
1982	9.9050e-01	-0.6898	-4.643797	0.000246	2.460321	0.833579	0.019927
1983	9.9100e-01	-0.6561	-4.547153	0.000239	2.386406	0.808536	0.019329
1984	9.9150e-01	-0.6289	-4.393208	0.000380	3.801355	1.287934	0.030789
1985	9.9200e-01	-0.5871	-4.257223	0.000336	3.357863	1.137675	0.027197
1986	9.9250e-01	-0.5679	-4.128936	0.000317	3.167796	1.073278	0.025658
1987	9.9300e-01	-0.5053	-4.022030	0.000264	2.639830	0.894399	0.021381
1988	9.9350e-01	-0.4636	-3.925814	0.000238	2.375847	0.804959	0.019243
1989	9.9400e-01	-0.4043	-3.815059	0.000273	2.734864	0.926597	0.022151
1990	9.9450e-01	-0.4011	-3.693186	0.000301	3.009406	1.019614	0.024375
1991	9.9500e-01	-0.3481	-3.564043	0.000319	3.188914	1.080433	0.025829
1992	9.9550e-01	-0.3305	-3.444308	0.000296	2.956609	1.001726	0.023947
1993	9.9600e-01	-0.2759	-3.315593	0.000318	3.178355	1.076856	0.025743
1994	9.9650e-01	-0.2134	-3.224508	0.000225	2.249135	0.762028	0.018217
1995	9.9700e-01	-0.2118	-3.063721	0.000397	3.970304	1.345175	0.032157
1996	9.9750e-01	-0.1556	-2.979907	0.000207	2.069627	0.701208	0.016763
1997	9.9800e-01	-0.0963	-2.900368	0.000196	1.964033	0.665433	0.015908
1998	9.9850e-01	-0.0754	-2.748561	0.000375	3.748558	1.270046	0.030361
1999	9.9900e-01	-0.0321	-2.599320	0.000369	3.685202	1.248580	0.029848
2000	9.9950e-01	0.0193	-2.509519	0.000222	2.217457	0.751295	0.017960
2001	1.0000e+00	0.0513	-2.361988	0.000222	2.217457	0.751295	0.029506

Center data before PMax,+/-Pr and +/-Vc Calc.

PMax (uC/cm2):	4.11e+01
Pr (uC/cm2):	1.45e-01
-Pr (uC/cm2):	-2.36e+00
PLoss (uC/cm2):	-1.14e+00
Vc:	5.39e-01
-Vc:	-7.34e-02
C (Max-Eff) (nF):	2.05e-01
K (Eff):	6.95e+02
Vert. (+/-Pr) Shift (uC/cm2):	-1.11e+00
Horiz. Shift (+/-Vc):	2.33e-01
Offset (uC/cm2):	1.22e+00

A (Loop Area - uC/cm2·Volts):	1.57e-02



Hysteresis Version: 5.48.1 - Radiant Technologies, Inc., 1999 - 9/12/24

