»»»»»»»»»»»»»»»»»»»»»»»»»»»»»»»»»»»» Hysteresis ««««««««««««««««««««««««««««««««««««
»»»  Executed Version:	5.48.1
»»»  Vision Version:	5.48.4 (R)
»»»  Vision Compiled:	9/18/24
»»»  Driver Version:	5.47.0
»»»  Windows Version:	Windows 8 or 8.1
»»»  Processor Information:	x86 (AMD or Intel) - 32 Processors
»»»  Tester Name:	PMF21124-494 (100V)
»»»  Tester S/N:	PMF21124-494
»»»  Internal Amp Type:	100V RevK 270k
»»»  Internal Amp S/N:	iAB2-596/K     
»»»  Execution Count:	1
»»»»»»»»»»»»»»»»»»»»»»»»»»»»»»»»»»»»»»»»»»««««««««««««««««««««««««««««««««««««««««««

Stored:	6/11/2025 - 14:50:17
Configured:	06/11/25 01:55:56 PM
Executed:	06/11/25 02:49:29 PM

»»»»»»»»»»»»»»»»»»»»»»»»»»»»»»»»»»» Sample Info ««««««««««««««««««««««««««««««««««««
Sample Name:	
Lot Name:	
Wafer Name:	
Die Row/Column:	0/0
Capacitor Number:	0
Sample Area (cm2):	1.00e-04
Sample Thickness (microns):	3.00e-01

Amplifier:	Internal

»»»»»»»»»»»»»»»»»»»»»»»»»»»»»»»»»»» Tester Info «««««««««««««««««««««««««««««««««««
Tester Name:	PMF21124-494 (100V)
Tester Serial Number:	PMF21124-494
Return Signal Amp. Level:	0.19 [Index: 3]

»»»»»»»»»»»»»»»»»»»»»»»»»»»»»»»» Hysteresis Info ««««««««««««««««««««««««««««««««««
Task Name:	Hyst-1287
Volts:	20.00
Field:	666.67 (kV/cm)
DCBias:	0.00
DCField:	0.00 (kV/cm)
Hysteresis Period (ms):	2.00e+02
Preset:	Enabled
Preset Delay (ms):	1.00e+03
Profile:	Standard Bipolar

»»»»»»»»»»»»»»»»»»»»»»»»»»»»»»»»»»»»»» Data «««««««««««««««««««««««««««««««««««««««
Points:	2009

Valid Data

Point	Time (ms)	Drive Voltage	Measured Polarization (uC/cm2)	Capacitance (uF)	Normalized Capacitance (uF/cm2)	Dielectric Constant	Instantaneous Current (mA)
   1	0.0000e+00	-0.0032	1.875250	0.000334	3.344702	1.133216	0.000134
   2	9.9500e-02	0.0257	2.008475	0.000334	3.344702	1.133216	0.000134
   3	1.9900e-01	0.0738	2.250703	0.000608	6.081277	2.060392	0.000243
   4	2.9850e-01	0.1123	2.484857	0.000588	5.878568	1.991713	0.000235
   5	3.9800e-01	0.1524	2.747271	0.000659	6.588050	2.232092	0.000264
   6	4.9750e-01	0.1957	2.941053	0.000487	4.865022	1.648314	0.000195
   7	5.9700e-01	0.2358	3.211541	0.000679	6.790759	2.300772	0.000272
   8	6.9650e-01	0.2727	3.397250	0.000466	4.662312	1.579634	0.000187
   9	7.9600e-01	0.3064	3.655626	0.000649	6.486695	2.197752	0.000260
  10	8.9550e-01	0.3593	3.869595	0.000537	5.371795	1.820013	0.000215
  11	9.9500e-01	0.3914	4.136046	0.000669	6.689405	2.266432	0.000268
  12	1.0945e+00	0.4347	4.414608	0.000699	6.993468	2.369451	0.000280
  13	1.1940e+00	0.4668	4.612428	0.000497	4.966376	1.682654	0.000199
  14	1.2935e+00	0.5085	4.850619	0.000598	5.979922	2.026053	0.000239
  15	1.3930e+00	0.5519	5.048438	0.000497	4.966376	1.682654	0.000199
  16	1.4925e+00	0.5936	5.339112	0.000730	7.297532	2.472471	0.000292
  17	1.5920e+00	0.6321	5.549043	0.000527	5.270440	1.785673	0.000211
  18	1.6915e+00	0.6674	5.767048	0.000547	5.473149	1.854353	0.000219
  19	1.7910e+00	0.7107	6.001202	0.000588	5.878568	1.991713	0.000235
  20	1.8905e+00	0.7508	6.227282	0.000568	5.675858	1.923033	0.000227
  21	1.9900e+00	0.7813	6.493733	0.000669	6.689405	2.266432	0.000268
  22	2.0895e+00	0.8326	6.744035	0.000628	6.283986	2.129072	0.000252
  23	2.1890e+00	0.8647	6.982226	0.000598	5.979922	2.026053	0.000239
  24	2.2885e+00	0.9128	7.176009	0.000487	4.865022	1.648314	0.000195
  25	2.3880e+00	0.9513	7.414200	0.000598	5.979922	2.026053	0.000239
  26	2.4875e+00	0.9882	7.696799	0.000709	7.094823	2.403791	0.000284
  27	2.5870e+00	1.0299	7.910767	0.000537	5.371795	1.820013	0.000215
  28	2.6865e+00	1.0572	8.144921	0.000588	5.878568	1.991713	0.000235
  29	2.7860e+00	1.1085	8.383112	0.000598	5.979922	2.026053	0.000239
  30	2.8855e+00	1.1438	8.633415	0.000628	6.283986	2.129072	0.000252
  31	2.9850e+00	1.2000	8.875643	0.000608	6.081277	2.060392	0.000243
  32	3.0845e+00	1.2240	9.142094	0.000669	6.689405	2.266432	0.000268
  33	3.1840e+00	1.2657	9.380285	0.000598	5.979922	2.026053	0.000239
  34	3.2835e+00	1.3123	9.582142	0.000507	5.067731	1.716994	0.000203
  35	3.3830e+00	1.3492	9.828407	0.000618	6.182632	2.094732	0.000248
  36	3.4825e+00	1.3925	10.030264	0.000507	5.067731	1.716994	0.000203
  37	3.5820e+00	1.4278	10.308826	0.000699	6.993468	2.369451	0.000280
  38	3.6815e+00	1.4647	10.551054	0.000608	6.081277	2.060392	0.000243
  39	3.7810e+00	1.5128	10.789245	0.000598	5.979922	2.026053	0.000239
  40	3.8805e+00	1.5465	11.015325	0.000568	5.675858	1.923033	0.000227
  41	3.9800e+00	1.5818	11.257553	0.000608	6.081277	2.060392	0.000243
  42	4.0795e+00	1.6299	11.540153	0.000709	7.094823	2.403791	0.000284
  43	4.1790e+00	1.6668	11.794492	0.000639	6.385341	2.163412	0.000256
  44	4.2785e+00	1.7037	12.004423	0.000527	5.270440	1.785673	0.000211
  45	4.3780e+00	1.7486	12.266837	0.000659	6.588050	2.232092	0.000264
  46	4.4775e+00	1.7791	12.509065	0.000608	6.081277	2.060392	0.000243
  47	4.5770e+00	1.8192	12.731108	0.000557	5.574504	1.888693	0.000223
  48	4.6765e+00	1.8593	12.969299	0.000598	5.979922	2.026053	0.000239
  49	4.7760e+00	1.9058	13.239787	0.000679	6.790759	2.300772	0.000272
  50	4.8755e+00	1.9443	13.461829	0.000557	5.574504	1.888693	0.000223
  51	4.9750e+00	1.9860	13.732317	0.000679	6.790759	2.300772	0.000272
  52	5.0745e+00	2.0213	13.946285	0.000537	5.371795	1.820013	0.000215
  53	5.1740e+00	2.0727	14.192551	0.000618	6.182632	2.094732	0.000248
  54	5.2735e+00	2.1048	14.454965	0.000659	6.588050	2.232092	0.000264
  55	5.3730e+00	2.1577	14.648747	0.000487	4.865022	1.648314	0.000195
  56	5.4725e+00	2.1802	14.915198	0.000669	6.689405	2.266432	0.000268
  57	5.5720e+00	2.2203	15.125129	0.000527	5.270440	1.785673	0.000211
  58	5.6715e+00	2.2572	15.375431	0.000628	6.283986	2.129072	0.000252
  59	5.7710e+00	2.3069	15.613622	0.000598	5.979922	2.026053	0.000239
  60	5.8705e+00	2.3406	15.859888	0.000618	6.182632	2.094732	0.000248
  61	5.9700e+00	2.3807	16.090004	0.000578	5.777213	1.957373	0.000231
  62	6.0695e+00	2.4208	16.336270	0.000618	6.182632	2.094732	0.000248
  63	6.1690e+00	2.4609	16.578498	0.000608	6.081277	2.060392	0.000243
  64	6.2685e+00	2.5042	16.828800	0.000628	6.283986	2.129072	0.000252
  65	6.3680e+00	2.5427	17.042769	0.000537	5.371795	1.820013	0.000215
  66	6.4675e+00	2.5764	17.301145	0.000649	6.486695	2.197752	0.000260
  67	6.5670e+00	2.6277	17.494928	0.000487	4.865022	1.648314	0.000195
  68	6.6665e+00	2.6598	17.777527	0.000709	7.094823	2.403791	0.000284
  69	6.7660e+00	2.6999	18.023793	0.000618	6.182632	2.094732	0.000248
  70	6.8655e+00	2.7416	18.241798	0.000547	5.473149	1.854353	0.000219
  71	6.9650e+00	2.7882	18.484026	0.000608	6.081277	2.060392	0.000243
  72	7.0645e+00	2.8234	18.730291	0.000618	6.182632	2.094732	0.000248
  73	7.1640e+00	2.8636	18.944259	0.000537	5.371795	1.820013	0.000215
  74	7.2635e+00	2.9069	19.230896	0.000720	7.196178	2.438131	0.000288
  75	7.3630e+00	2.9438	19.469087	0.000598	5.979922	2.026053	0.000239
  76	7.4625e+00	2.9807	19.683055	0.000537	5.371795	1.820013	0.000215
  77	7.5620e+00	3.0288	19.905098	0.000557	5.574504	1.888693	0.000223
  78	7.6615e+00	3.0705	20.163474	0.000649	6.486695	2.197752	0.000260
  79	7.7610e+00	3.0978	20.409740	0.000618	6.182632	2.094732	0.000248
  80	7.8605e+00	3.1395	20.639856	0.000578	5.777213	1.957373	0.000231
  81	7.9600e+00	3.1796	20.878047	0.000598	5.979922	2.026053	0.000239
  82	8.0595e+00	3.2245	21.100090	0.000557	5.574504	1.888693	0.000223
  83	8.1590e+00	3.2566	21.342318	0.000608	6.081277	2.060392	0.000243
  84	8.2585e+00	3.3079	21.612806	0.000679	6.790759	2.300772	0.000272
  85	8.3580e+00	3.3400	21.802552	0.000476	4.763667	1.613974	0.000191
  86	8.4575e+00	3.3801	22.048817	0.000618	6.182632	2.094732	0.000248
  87	8.5570e+00	3.4186	22.287008	0.000598	5.979922	2.026053	0.000239
  88	8.6565e+00	3.4603	22.565570	0.000699	6.993468	2.369451	0.000280
  89	8.7560e+00	3.4972	22.799724	0.000588	5.878568	1.991713	0.000235
  90	8.8555e+00	3.5357	22.985432	0.000466	4.662312	1.579634	0.000187
  91	8.9550e+00	3.5806	23.207475	0.000557	5.574504	1.888693	0.000223
  92	9.0545e+00	3.6127	23.494111	0.000720	7.196178	2.438131	0.000288
  93	9.1540e+00	3.6577	23.695968	0.000507	5.067731	1.716994	0.000203
  94	9.2535e+00	3.7042	23.990679	0.000740	7.398887	2.506811	0.000296
  95	9.3530e+00	3.7427	24.208684	0.000547	5.473149	1.854353	0.000219
  96	9.4525e+00	3.7732	24.418616	0.000527	5.270440	1.785673	0.000211
  97	9.5520e+00	3.8245	24.648732	0.000578	5.777213	1.957373	0.000231
  98	9.6515e+00	3.8582	24.903072	0.000639	6.385341	2.163412	0.000256
  99	9.7510e+00	3.9031	25.117040	0.000537	5.371795	1.820013	0.000215
 100	9.8505e+00	3.9320	25.387528	0.000679	6.790759	2.300772	0.000272
 101	9.9500e+00	3.9833	25.565162	0.000446	4.459603	1.510954	0.000179
 102	1.0050e+01	4.0234	25.811427	0.000618	6.182632	2.094732	0.000248
 103	1.0149e+01	4.0603	26.069804	0.000649	6.486695	2.197752	0.000260
 104	1.0248e+01	4.1004	26.279735	0.000527	5.270440	1.785673	0.000211
 105	1.0348e+01	4.1293	26.517926	0.000598	5.979922	2.026053	0.000239
 106	1.0447e+01	4.1774	26.719783	0.000507	5.067731	1.716994	0.000203
 107	1.0547e+01	4.2111	26.990271	0.000679	6.790759	2.300772	0.000272
 108	1.0646e+01	4.2576	27.208276	0.000547	5.473149	1.854353	0.000219
 109	1.0746e+01	4.2977	27.450504	0.000608	6.081277	2.060392	0.000243
 110	1.0845e+01	4.3298	27.664473	0.000537	5.371795	1.820013	0.000215
 111	1.0945e+01	4.3780	27.926886	0.000659	6.588050	2.232092	0.000264
 112	1.1044e+01	4.4181	28.161040	0.000588	5.878568	1.991713	0.000235
 113	1.1144e+01	4.4517	28.346749	0.000466	4.662312	1.579634	0.000187
 114	1.1243e+01	4.4983	28.597051	0.000628	6.283986	2.129072	0.000252
 115	1.1343e+01	4.5400	28.819093	0.000557	5.574504	1.888693	0.000223
 116	1.1443e+01	4.5721	29.045173	0.000568	5.675858	1.923033	0.000227
 117	1.1542e+01	4.6202	29.247030	0.000507	5.067731	1.716994	0.000203
 118	1.1642e+01	4.6635	29.505407	0.000649	6.486695	2.197752	0.000260
 119	1.1741e+01	4.6988	29.731486	0.000568	5.675858	1.923033	0.000227
 120	1.1841e+01	4.7309	29.961603	0.000578	5.777213	1.957373	0.000231
 121	1.1940e+01	4.7758	30.183645	0.000557	5.574504	1.888693	0.000223
 122	1.2040e+01	4.8143	30.405688	0.000557	5.574504	1.888693	0.000223
 123	1.2139e+01	4.8560	30.603507	0.000497	4.966376	1.682654	0.000199
 124	1.2239e+01	4.8961	30.849773	0.000618	6.182632	2.094732	0.000248
 125	1.2338e+01	4.9282	31.075852	0.000568	5.675858	1.923033	0.000227
 126	1.2438e+01	4.9747	31.305969	0.000578	5.777213	1.957373	0.000231
 127	1.2537e+01	5.0148	31.556271	0.000628	6.283986	2.129072	0.000252
 128	1.2636e+01	5.0517	31.721794	0.000416	4.155539	1.407935	0.000166
 129	1.2736e+01	5.0838	31.976134	0.000639	6.385341	2.163412	0.000256
 130	1.2835e+01	5.1368	32.186065	0.000527	5.270440	1.785673	0.000211
 131	1.2935e+01	5.1624	32.428293	0.000608	6.081277	2.060392	0.000243
 132	1.3034e+01	5.2186	32.626112	0.000497	4.966376	1.682654	0.000199
 133	1.3134e+01	5.2619	32.856229	0.000578	5.777213	1.957373	0.000231
 134	1.3233e+01	5.2892	33.062123	0.000517	5.169085	1.751334	0.000207
 135	1.3333e+01	5.3421	33.268017	0.000517	5.169085	1.751334	0.000207
 136	1.3432e+01	5.3774	33.498134	0.000578	5.777213	1.957373	0.000231
 137	1.3532e+01	5.4111	33.691916	0.000487	4.865022	1.648314	0.000195
 138	1.3632e+01	5.4480	33.950293	0.000649	6.486695	2.197752	0.000260
 139	1.3731e+01	5.4961	34.180410	0.000578	5.777213	1.957373	0.000231
 140	1.3831e+01	5.5346	34.370155	0.000476	4.763667	1.613974	0.000191
 141	1.3930e+01	5.5699	34.584123	0.000537	5.371795	1.820013	0.000215
 142	1.4030e+01	5.6148	34.830389	0.000618	6.182632	2.094732	0.000248
 143	1.4129e+01	5.6549	35.056468	0.000568	5.675858	1.923033	0.000227
 144	1.4229e+01	5.6886	35.310808	0.000639	6.385341	2.163412	0.000256
 145	1.4328e+01	5.7255	35.480367	0.000426	4.256894	1.442275	0.000170
 146	1.4428e+01	5.7784	35.674150	0.000487	4.865022	1.648314	0.000195
 147	1.4527e+01	5.8105	35.932527	0.000649	6.486695	2.197752	0.000260
 148	1.4627e+01	5.8442	36.126309	0.000487	4.865022	1.648314	0.000195
 149	1.4726e+01	5.8972	36.340277	0.000537	5.371795	1.820013	0.000215
 150	1.4825e+01	5.9325	36.558283	0.000547	5.473149	1.854353	0.000219
 151	1.4925e+01	5.9677	36.796474	0.000598	5.979922	2.026053	0.000239
 152	1.5024e+01	6.0062	36.994293	0.000497	4.966376	1.682654	0.000199
 153	1.5124e+01	6.0512	37.248633	0.000639	6.385341	2.163412	0.000256
 154	1.5223e+01	6.0913	37.410118	0.000405	4.054185	1.373595	0.000162
 155	1.5323e+01	6.1362	37.616012	0.000517	5.169085	1.751334	0.000207
 156	1.5422e+01	6.1651	37.838055	0.000557	5.574504	1.888693	0.000223
 157	1.5522e+01	6.2100	38.060097	0.000557	5.574504	1.888693	0.000223
 158	1.5621e+01	6.2501	38.257917	0.000497	4.966376	1.682654	0.000199
 159	1.5721e+01	6.2902	38.483996	0.000568	5.675858	1.923033	0.000227
 160	1.5820e+01	6.3335	38.718150	0.000588	5.878568	1.991713	0.000235
 161	1.5920e+01	6.3736	38.887710	0.000426	4.256894	1.442275	0.000170
 162	1.6020e+01	6.4073	39.125901	0.000598	5.979922	2.026053	0.000239
 163	1.6119e+01	6.4554	39.307572	0.000456	4.560958	1.545294	0.000183
 164	1.6218e+01	6.4843	39.521540	0.000537	5.371795	1.820013	0.000215
 165	1.6318e+01	6.5260	39.727434	0.000517	5.169085	1.751334	0.000207
 166	1.6418e+01	6.5725	39.949477	0.000557	5.574504	1.888693	0.000223
 167	1.6517e+01	6.6014	40.159408	0.000527	5.270440	1.785673	0.000211
 168	1.6616e+01	6.6576	40.316856	0.000395	3.952830	1.339255	0.000158
 169	1.6716e+01	6.6897	40.518713	0.000507	5.067731	1.716994	0.000203
 170	1.6816e+01	6.7249	40.756904	0.000598	5.979922	2.026053	0.000239
 171	1.6915e+01	6.7683	40.926464	0.000426	4.256894	1.442275	0.000170
 172	1.7015e+01	6.8180	41.172729	0.000618	6.182632	2.094732	0.000248
 173	1.7114e+01	6.8421	41.382660	0.000527	5.270440	1.785673	0.000211
 174	1.7213e+01	6.8886	41.560294	0.000446	4.459603	1.510954	0.000179
 175	1.7313e+01	6.9207	41.786373	0.000568	5.675858	1.923033	0.000227
 176	1.7413e+01	6.9688	42.000342	0.000537	5.371795	1.820013	0.000215
 177	1.7512e+01	7.0057	42.186050	0.000466	4.662312	1.579634	0.000187
 178	1.7611e+01	7.0474	42.400018	0.000537	5.371795	1.820013	0.000215
 179	1.7711e+01	7.0843	42.577652	0.000446	4.459603	1.510954	0.000179
 180	1.7811e+01	7.1340	42.803732	0.000568	5.675858	1.923033	0.000227
 181	1.7910e+01	7.1677	42.985403	0.000456	4.560958	1.545294	0.000183
 182	1.8009e+01	7.2094	43.191297	0.000517	5.169085	1.751334	0.000207
 183	1.8109e+01	7.2527	43.381042	0.000476	4.763667	1.613974	0.000191
 184	1.8209e+01	7.2864	43.590973	0.000527	5.270440	1.785673	0.000211
 185	1.8308e+01	7.3297	43.808978	0.000547	5.473149	1.854353	0.000219
 186	1.8407e+01	7.3666	43.978538	0.000426	4.256894	1.442275	0.000170
 187	1.8507e+01	7.4003	44.152135	0.000436	4.358248	1.476615	0.000174
 188	1.8607e+01	7.4356	44.362066	0.000527	5.270440	1.785673	0.000211
 189	1.8706e+01	7.4837	44.588146	0.000568	5.675858	1.923033	0.000227
 190	1.8805e+01	7.5239	44.798077	0.000527	5.270440	1.785673	0.000211
 191	1.8905e+01	7.5688	44.971674	0.000436	4.358248	1.476615	0.000174
 192	1.9005e+01	7.5976	45.201790	0.000578	5.777213	1.957373	0.000231
 193	1.9104e+01	7.6378	45.343090	0.000355	3.547412	1.201896	0.000142
 194	1.9203e+01	7.6827	45.544947	0.000507	5.067731	1.716994	0.000203
 195	1.9303e+01	7.7244	45.766989	0.000557	5.574504	1.888693	0.000223
 196	1.9402e+01	7.7629	45.920400	0.000385	3.851475	1.304915	0.000154
 197	1.9502e+01	7.8062	46.138406	0.000547	5.473149	1.854353	0.000219
 198	1.9602e+01	7.8415	46.348337	0.000527	5.270440	1.785673	0.000211
 199	1.9701e+01	7.8768	46.521934	0.000436	4.358248	1.476615	0.000174
 200	1.9800e+01	7.9233	46.691493	0.000426	4.256894	1.442275	0.000170
 201	1.9900e+01	7.9650	46.897387	0.000517	5.169085	1.751334	0.000207
 202	2.0000e+01	8.0019	47.083096	0.000466	4.662312	1.579634	0.000187
 203	2.0099e+01	8.0468	47.317249	0.000588	5.878568	1.991713	0.000235
 204	2.0198e+01	8.0821	47.474698	0.000395	3.952830	1.339255	0.000158
 205	2.0298e+01	8.1206	47.700777	0.000568	5.675858	1.923033	0.000227
 206	2.0398e+01	8.1607	47.898597	0.000497	4.966376	1.682654	0.000199
 207	2.0497e+01	8.2024	48.043934	0.000365	3.648766	1.236235	0.000146
 208	2.0596e+01	8.2377	48.245791	0.000507	5.067731	1.716994	0.000203
 209	2.0696e+01	8.2730	48.475907	0.000578	5.777213	1.957373	0.000231
 210	2.0796e+01	8.3179	48.657578	0.000456	4.560958	1.545294	0.000183
 211	2.0895e+01	8.3581	48.835212	0.000446	4.459603	1.510954	0.000179
 212	2.0994e+01	8.4030	49.041106	0.000517	5.169085	1.751334	0.000207
 213	2.1094e+01	8.4415	49.218740	0.000446	4.459603	1.510954	0.000179
 214	2.1194e+01	8.4912	49.428671	0.000527	5.270440	1.785673	0.000211
 215	2.1293e+01	8.5169	49.630528	0.000507	5.067731	1.716994	0.000203
 216	2.1392e+01	8.5650	49.796051	0.000416	4.155539	1.407935	0.000166
 217	2.1492e+01	8.6003	49.985796	0.000476	4.763667	1.613974	0.000191
 218	2.1591e+01	8.6388	50.195727	0.000527	5.270440	1.785673	0.000211
 219	2.1691e+01	8.6757	50.385473	0.000476	4.763667	1.613974	0.000191
 220	2.1791e+01	8.7142	50.559069	0.000436	4.358248	1.476615	0.000174
 221	2.1890e+01	8.7559	50.744778	0.000466	4.662312	1.579634	0.000187
 222	2.1989e+01	8.7992	50.914337	0.000426	4.256894	1.442275	0.000170
 223	2.2089e+01	8.8393	51.116194	0.000507	5.067731	1.716994	0.000203
 224	2.2189e+01	8.8810	51.346311	0.000578	5.777213	1.957373	0.000231
 225	2.2288e+01	8.9179	51.507796	0.000405	4.054185	1.373595	0.000162
 226	2.2387e+01	8.9484	51.677356	0.000426	4.256894	1.442275	0.000170
 227	2.2487e+01	9.0078	51.854990	0.000446	4.459603	1.510954	0.000179
 228	2.2587e+01	9.0302	52.064921	0.000527	5.270440	1.785673	0.000211
 229	2.2686e+01	9.0800	52.250629	0.000466	4.662312	1.579634	0.000187
 230	2.2785e+01	9.1120	52.420189	0.000426	4.256894	1.442275	0.000170
 231	2.2885e+01	9.1538	52.626083	0.000517	5.169085	1.751334	0.000207
 232	2.2985e+01	9.1939	52.795643	0.000426	4.256894	1.442275	0.000170
 233	2.3084e+01	9.2340	52.989425	0.000487	4.865022	1.648314	0.000195
 234	2.3183e+01	9.2757	53.138799	0.000375	3.750121	1.270575	0.000150
 235	2.3283e+01	9.3158	53.328545	0.000476	4.763667	1.613974	0.000191
 236	2.3383e+01	9.3623	53.574810	0.000618	6.182632	2.094732	0.000248
 237	2.3482e+01	9.3912	53.740332	0.000416	4.155539	1.407935	0.000166
 238	2.3581e+01	9.4393	53.905855	0.000416	4.155539	1.407935	0.000166
 239	2.3681e+01	9.4746	54.075415	0.000426	4.256894	1.442275	0.000170
 240	2.3780e+01	9.5195	54.289383	0.000537	5.371795	1.820013	0.000215
 241	2.3880e+01	9.5564	54.479128	0.000476	4.763667	1.613974	0.000191
 242	2.3980e+01	9.5933	54.612354	0.000334	3.344702	1.133216	0.000134
 243	2.4079e+01	9.6382	54.798062	0.000466	4.662312	1.579634	0.000187
 244	2.4178e+01	9.6735	54.995882	0.000497	4.966376	1.682654	0.000199
 245	2.4278e+01	9.7184	55.185627	0.000476	4.763667	1.613974	0.000191
 246	2.4378e+01	9.7521	55.343075	0.000395	3.952830	1.339255	0.000158
 247	2.4477e+01	9.7970	55.532821	0.000476	4.763667	1.613974	0.000191
 248	2.4576e+01	9.8307	55.722566	0.000476	4.763667	1.613974	0.000191
 249	2.4676e+01	9.8757	55.875977	0.000385	3.851475	1.304915	0.000154
 250	2.4776e+01	9.9093	56.118205	0.000608	6.081277	2.060392	0.000243
 251	2.4875e+01	9.9527	56.263542	0.000365	3.648766	1.236235	0.000146
 252	2.4974e+01	9.9944	56.445213	0.000456	4.560958	1.545294	0.000183
 253	2.5074e+01	10.0265	56.630922	0.000466	4.662312	1.579634	0.000187
 254	2.5174e+01	10.0682	56.844890	0.000537	5.371795	1.820013	0.000215
 255	2.5273e+01	10.1099	57.006375	0.000405	4.054185	1.373595	0.000162
 256	2.5372e+01	10.1516	57.171898	0.000416	4.155539	1.407935	0.000166
 257	2.5472e+01	10.1901	57.341457	0.000426	4.256894	1.442275	0.000170
 258	2.5572e+01	10.2254	57.519091	0.000446	4.459603	1.510954	0.000179
 259	2.5671e+01	10.2687	57.712874	0.000487	4.865022	1.648314	0.000195
 260	2.5770e+01	10.3104	57.890508	0.000446	4.459603	1.510954	0.000179
 261	2.5870e+01	10.3393	58.056030	0.000416	4.155539	1.407935	0.000166
 262	2.5970e+01	10.3954	58.229627	0.000436	4.358248	1.476615	0.000174
 263	2.6069e+01	10.4339	58.435521	0.000517	5.169085	1.751334	0.000207
 264	2.6169e+01	10.4660	58.605081	0.000426	4.256894	1.442275	0.000170
 265	2.6268e+01	10.5125	58.782715	0.000446	4.459603	1.510954	0.000179
 266	2.6367e+01	10.5559	58.960349	0.000446	4.459603	1.510954	0.000179
 267	2.6467e+01	10.5960	59.133946	0.000436	4.358248	1.476615	0.000174
 268	2.6567e+01	10.6345	59.311580	0.000446	4.459603	1.510954	0.000179
 269	2.6666e+01	10.6746	59.521511	0.000527	5.270440	1.785673	0.000211
 270	2.6765e+01	10.7179	59.687033	0.000416	4.155539	1.407935	0.000166
 271	2.6865e+01	10.7484	59.884853	0.000497	4.966376	1.682654	0.000199
 272	2.6965e+01	10.7869	60.062487	0.000446	4.459603	1.510954	0.000179
 273	2.7064e+01	10.8286	60.183601	0.000304	3.040638	1.030196	0.000122
 274	2.7163e+01	10.8687	60.413718	0.000578	5.777213	1.957373	0.000231
 275	2.7263e+01	10.9088	60.603463	0.000476	4.763667	1.613974	0.000191
 276	2.7363e+01	10.9425	60.752837	0.000375	3.750121	1.270575	0.000150
 277	2.7462e+01	10.9890	60.918360	0.000416	4.155539	1.407935	0.000166
 278	2.7561e+01	11.0243	61.136365	0.000547	5.473149	1.854353	0.000219
 279	2.7661e+01	11.0660	61.265553	0.000324	3.243348	1.098876	0.000130
 280	2.7761e+01	11.1061	61.459336	0.000487	4.865022	1.648314	0.000195
 281	2.7860e+01	11.1494	61.628896	0.000426	4.256894	1.442275	0.000170
 282	2.7959e+01	11.1879	61.834790	0.000517	5.169085	1.751334	0.000207
 283	2.8059e+01	11.2264	61.968015	0.000334	3.344702	1.133216	0.000134
 284	2.8159e+01	11.2729	62.145649	0.000446	4.459603	1.510954	0.000179
 285	2.8258e+01	11.3066	62.311172	0.000416	4.155539	1.407935	0.000166
 286	2.8358e+01	11.3451	62.504954	0.000487	4.865022	1.648314	0.000195
 287	2.8457e+01	11.3981	62.686625	0.000456	4.560958	1.545294	0.000183
 288	2.8556e+01	11.4366	62.872333	0.000466	4.662312	1.579634	0.000187
 289	2.8656e+01	11.4622	62.997485	0.000314	3.141993	1.064536	0.000126
 290	2.8756e+01	11.5120	63.211453	0.000537	5.371795	1.820013	0.000215
 291	2.8855e+01	11.5521	63.389087	0.000446	4.459603	1.510954	0.000179
 292	2.8954e+01	11.5810	63.542498	0.000385	3.851475	1.304915	0.000154
 293	2.9054e+01	11.6243	63.708021	0.000416	4.155539	1.407935	0.000166
 294	2.9154e+01	11.6612	63.901803	0.000487	4.865022	1.648314	0.000195
 295	2.9253e+01	11.7109	64.067326	0.000416	4.155539	1.407935	0.000166
 296	2.9352e+01	11.7414	64.204588	0.000345	3.446057	1.167556	0.000138
 297	2.9452e+01	11.7847	64.382222	0.000446	4.459603	1.510954	0.000179
 298	2.9552e+01	11.8312	64.620413	0.000598	5.979922	2.026053	0.000239
 299	2.9651e+01	11.8681	64.721342	0.000253	2.533865	0.858497	0.000101
 300	2.9750e+01	11.9034	64.935310	0.000537	5.371795	1.820013	0.000215
 301	2.9850e+01	11.9371	65.100832	0.000416	4.155539	1.407935	0.000166
 302	2.9950e+01	11.9820	65.246169	0.000365	3.648766	1.236235	0.000146
 303	3.0049e+01	12.0317	65.419766	0.000436	4.358248	1.476615	0.000174
 304	3.0148e+01	12.0606	65.601437	0.000456	4.560958	1.545294	0.000183
 305	3.0248e+01	12.1023	65.766960	0.000416	4.155539	1.407935	0.000166
 306	3.0348e+01	12.1456	65.908259	0.000355	3.547412	1.201896	0.000142
 307	3.0447e+01	12.1825	66.053596	0.000365	3.648766	1.236235	0.000146
 308	3.0547e+01	12.2210	66.267565	0.000537	5.371795	1.820013	0.000215
 309	3.0646e+01	12.2692	66.412901	0.000365	3.648766	1.236235	0.000146
 310	3.0745e+01	12.3061	66.606684	0.000487	4.865022	1.648314	0.000195
 311	3.0845e+01	12.3494	66.752021	0.000365	3.648766	1.236235	0.000146
 312	3.0945e+01	12.3831	66.909469	0.000395	3.952830	1.339255	0.000158
 313	3.1044e+01	12.4312	67.127474	0.000547	5.473149	1.854353	0.000219
 314	3.1143e+01	12.4633	67.268774	0.000355	3.547412	1.201896	0.000142
 315	3.1243e+01	12.5018	67.442371	0.000436	4.358248	1.476615	0.000174
 316	3.1343e+01	12.5499	67.591745	0.000375	3.750121	1.270575	0.000150
 317	3.1442e+01	12.5836	67.724971	0.000334	3.344702	1.133216	0.000134
 318	3.1541e+01	12.6253	67.914716	0.000476	4.763667	1.613974	0.000191
 319	3.1641e+01	12.6606	68.068127	0.000385	3.851475	1.304915	0.000154
 320	3.1741e+01	12.7055	68.253835	0.000466	4.662312	1.579634	0.000187
 321	3.1840e+01	12.7424	68.383024	0.000324	3.243348	1.098876	0.000130
 322	3.1939e+01	12.7954	68.576806	0.000487	4.865022	1.648314	0.000195
 323	3.2039e+01	12.8242	68.722143	0.000365	3.648766	1.236235	0.000146
 324	3.2139e+01	12.8595	68.936111	0.000537	5.371795	1.820013	0.000215
 325	3.2238e+01	12.8996	69.097597	0.000405	4.054185	1.373595	0.000162
 326	3.2337e+01	12.9478	69.222748	0.000314	3.141993	1.064536	0.000126
 327	3.2437e+01	12.9798	69.364048	0.000355	3.547412	1.201896	0.000142
 328	3.2536e+01	13.0232	69.533607	0.000426	4.256894	1.442275	0.000170
 329	3.2636e+01	13.0697	69.719316	0.000466	4.662312	1.579634	0.000187
 330	3.2736e+01	13.0970	69.896950	0.000446	4.459603	1.510954	0.000179
 331	3.2835e+01	13.1322	70.009989	0.000284	2.837929	0.961516	0.000114
 332	3.2934e+01	13.1836	70.199735	0.000476	4.763667	1.613974	0.000191
 333	3.3034e+01	13.2205	70.345072	0.000365	3.648766	1.236235	0.000146
 334	3.3133e+01	13.2622	70.534817	0.000476	4.763667	1.613974	0.000191
 335	3.3233e+01	13.3007	70.668043	0.000334	3.344702	1.133216	0.000134
 336	3.3333e+01	13.3392	70.865862	0.000497	4.966376	1.682654	0.000199
 337	3.3432e+01	13.3745	71.003125	0.000345	3.446057	1.167556	0.000138
 338	3.3532e+01	13.4306	71.192870	0.000476	4.763667	1.613974	0.000191
 339	3.3631e+01	13.4563	71.313984	0.000304	3.040638	1.030196	0.000122
 340	3.3730e+01	13.5060	71.483544	0.000426	4.256894	1.442275	0.000170
 341	3.3830e+01	13.5349	71.620807	0.000345	3.446057	1.167556	0.000138
 342	3.3929e+01	13.5798	71.758069	0.000345	3.446057	1.167556	0.000138
 343	3.4029e+01	13.6247	71.984149	0.000568	5.675858	1.923033	0.000227
 344	3.4129e+01	13.6552	72.149671	0.000416	4.155539	1.407935	0.000166
 345	3.4228e+01	13.6937	72.262711	0.000284	2.837929	0.961516	0.000114
 346	3.4328e+01	13.7386	72.420159	0.000395	3.952830	1.339255	0.000158
 347	3.4427e+01	13.7804	72.597793	0.000446	4.459603	1.510954	0.000179
 348	3.4526e+01	13.8221	72.759279	0.000405	4.054185	1.373595	0.000162
 349	3.4626e+01	13.8542	72.896541	0.000345	3.446057	1.167556	0.000138
 350	3.4725e+01	13.9023	73.066101	0.000426	4.256894	1.442275	0.000170
 351	3.4825e+01	13.9440	73.235661	0.000426	4.256894	1.442275	0.000170
 352	3.4925e+01	13.9809	73.372923	0.000345	3.446057	1.167556	0.000138
 353	3.5024e+01	14.0162	73.546520	0.000436	4.358248	1.476615	0.000174
 354	3.5123e+01	14.0627	73.695894	0.000375	3.750121	1.270575	0.000150
 355	3.5223e+01	14.0964	73.812971	0.000294	2.939284	0.995856	0.000118
 356	3.5322e+01	14.1365	74.018865	0.000517	5.169085	1.751334	0.000207
 357	3.5422e+01	14.1926	74.160165	0.000355	3.547412	1.201896	0.000142
 358	3.5522e+01	14.2215	74.265130	0.000264	2.635220	0.892837	0.000105
 359	3.5621e+01	14.2536	74.458913	0.000487	4.865022	1.648314	0.000195
 360	3.5721e+01	14.3017	74.604250	0.000365	3.648766	1.236235	0.000146
 361	3.5820e+01	14.3418	74.745550	0.000355	3.547412	1.201896	0.000142
 362	3.5919e+01	14.3819	74.915109	0.000426	4.256894	1.442275	0.000170
 363	3.6019e+01	14.4140	75.068520	0.000385	3.851475	1.304915	0.000154
 364	3.6118e+01	14.4573	75.221932	0.000385	3.851475	1.304915	0.000154
 365	3.6218e+01	14.4942	75.375343	0.000385	3.851475	1.304915	0.000154
 366	3.6318e+01	14.5408	75.532791	0.000395	3.952830	1.339255	0.000158
 367	3.6417e+01	14.5729	75.678128	0.000365	3.648766	1.236235	0.000146
 368	3.6517e+01	14.6162	75.831539	0.000385	3.851475	1.304915	0.000154
 369	3.6616e+01	14.6547	75.972839	0.000355	3.547412	1.201896	0.000142
 370	3.6715e+01	14.6948	76.146436	0.000436	4.358248	1.476615	0.000174
 371	3.6815e+01	14.7253	76.283698	0.000345	3.446057	1.167556	0.000138
 372	3.6914e+01	14.7734	76.449221	0.000416	4.155539	1.407935	0.000166
 373	3.7014e+01	14.8087	76.554186	0.000264	2.635220	0.892837	0.000105
 374	3.7114e+01	14.8520	76.747969	0.000487	4.865022	1.648314	0.000195
 375	3.7213e+01	14.8873	76.913492	0.000416	4.155539	1.407935	0.000166
 376	3.7313e+01	14.9290	77.074977	0.000405	4.054185	1.373595	0.000162
 377	3.7412e+01	14.9755	77.236462	0.000405	4.054185	1.373595	0.000162
 378	3.7511e+01	15.0108	77.357576	0.000304	3.040638	1.030196	0.000122
 379	3.7611e+01	15.0509	77.527136	0.000426	4.256894	1.442275	0.000170
 380	3.7711e+01	15.0974	77.652287	0.000314	3.141993	1.064536	0.000126
 381	3.7810e+01	15.1279	77.829921	0.000446	4.459603	1.510954	0.000179
 382	3.7910e+01	15.1776	77.959110	0.000324	3.243348	1.098876	0.000130
 383	3.8009e+01	15.2097	78.108484	0.000375	3.750121	1.270575	0.000150
 384	3.8108e+01	15.2498	78.274006	0.000416	4.155539	1.407935	0.000166
 385	3.8208e+01	15.2964	78.455677	0.000456	4.560958	1.545294	0.000183
 386	3.8307e+01	15.3333	78.556606	0.000253	2.533865	0.858497	0.000101
 387	3.8407e+01	15.3782	78.734240	0.000446	4.459603	1.510954	0.000179
 388	3.8507e+01	15.4247	78.891688	0.000395	3.952830	1.339255	0.000158
 389	3.8606e+01	15.4536	79.053173	0.000405	4.054185	1.373595	0.000162
 390	3.8706e+01	15.4921	79.202547	0.000375	3.750121	1.270575	0.000150
 391	3.8805e+01	15.5386	79.315587	0.000284	2.837929	0.961516	0.000114
 392	3.8904e+01	15.5803	79.444776	0.000324	3.243348	1.098876	0.000130
 393	3.9004e+01	15.6156	79.594150	0.000375	3.750121	1.270575	0.000150
 394	3.9103e+01	15.6477	79.775821	0.000456	4.560958	1.545294	0.000183
 395	3.9203e+01	15.6958	79.937306	0.000405	4.054185	1.373595	0.000162
 396	3.9303e+01	15.7311	80.054383	0.000294	2.939284	0.995856	0.000118
 397	3.9402e+01	15.7680	80.199720	0.000365	3.648766	1.236235	0.000146
 398	3.9502e+01	15.8065	80.365243	0.000416	4.155539	1.407935	0.000166
 399	3.9601e+01	15.8482	80.534802	0.000426	4.256894	1.442275	0.000170
 400	3.9700e+01	15.8867	80.655916	0.000304	3.040638	1.030196	0.000122
 401	3.9800e+01	15.9381	80.857773	0.000507	5.067731	1.716994	0.000203
 402	3.9900e+01	15.9637	80.954664	0.000243	2.432511	0.824157	0.000097
 403	3.9999e+01	16.0118	81.095964	0.000355	3.547412	1.201896	0.000142
 404	4.0099e+01	16.0471	81.261487	0.000416	4.155539	1.407935	0.000166
 405	4.0198e+01	16.0792	81.427009	0.000416	4.155539	1.407935	0.000166
 406	4.0297e+01	16.1306	81.568309	0.000355	3.547412	1.201896	0.000142
 407	4.0397e+01	16.1707	81.697497	0.000324	3.243348	1.098876	0.000130
 408	4.0496e+01	16.2044	81.846871	0.000375	3.750121	1.270575	0.000150
 409	4.0596e+01	16.2525	82.016431	0.000426	4.256894	1.442275	0.000170
 410	4.0696e+01	16.2782	82.165805	0.000375	3.750121	1.270575	0.000150
 411	4.0795e+01	16.3247	82.311142	0.000365	3.648766	1.236235	0.000146
 412	4.0895e+01	16.3680	82.456479	0.000365	3.648766	1.236235	0.000146
 413	4.0994e+01	16.4129	82.601816	0.000365	3.648766	1.236235	0.000146
 414	4.1093e+01	16.4466	82.739078	0.000345	3.446057	1.167556	0.000138
 415	4.1193e+01	16.4851	82.920749	0.000456	4.560958	1.545294	0.000183
 416	4.1292e+01	16.5364	83.066086	0.000365	3.648766	1.236235	0.000146
 417	4.1392e+01	16.5765	83.207386	0.000355	3.547412	1.201896	0.000142
 418	4.1492e+01	16.6006	83.360797	0.000385	3.851475	1.304915	0.000154
 419	4.1591e+01	16.6471	83.526320	0.000416	4.155539	1.407935	0.000166
 420	4.1691e+01	16.6744	83.623211	0.000243	2.432511	0.824157	0.000097
 421	4.1790e+01	16.7257	83.829105	0.000517	5.169085	1.751334	0.000207
 422	4.1889e+01	16.7739	83.942145	0.000284	2.837929	0.961516	0.000114
 423	4.1989e+01	16.8124	84.091519	0.000375	3.750121	1.270575	0.000150
 424	4.2089e+01	16.8509	84.240893	0.000375	3.750121	1.270575	0.000150
 425	4.2188e+01	16.8813	84.394304	0.000385	3.851475	1.304915	0.000154
 426	4.2288e+01	16.9214	84.551752	0.000395	3.952830	1.339255	0.000158
 427	4.2387e+01	16.9696	84.697089	0.000365	3.648766	1.236235	0.000146
 428	4.2486e+01	17.0017	84.850500	0.000385	3.851475	1.304915	0.000154
 429	4.2586e+01	17.0482	85.011986	0.000405	4.054185	1.373595	0.000162
 430	4.2685e+01	17.0803	85.125026	0.000284	2.837929	0.961516	0.000114
 431	4.2785e+01	17.1300	85.290548	0.000416	4.155539	1.407935	0.000166
 432	4.2885e+01	17.1733	85.435885	0.000365	3.648766	1.236235	0.000146
 433	4.2984e+01	17.2038	85.552962	0.000294	2.939284	0.995856	0.000118
 434	4.3084e+01	17.2487	85.722522	0.000426	4.256894	1.442275	0.000170
 435	4.3183e+01	17.2952	85.859784	0.000345	3.446057	1.167556	0.000138
 436	4.3282e+01	17.3225	86.017233	0.000395	3.952830	1.339255	0.000158
 437	4.3382e+01	17.3690	86.154495	0.000345	3.446057	1.167556	0.000138
 438	4.3481e+01	17.4043	86.315981	0.000405	4.054185	1.373595	0.000162
 439	4.3581e+01	17.4428	86.501689	0.000466	4.662312	1.579634	0.000187
 440	4.3681e+01	17.4813	86.626840	0.000314	3.141993	1.064536	0.000126
 441	4.3780e+01	17.5246	86.776214	0.000375	3.750121	1.270575	0.000150
 442	4.3880e+01	17.5631	86.921551	0.000365	3.648766	1.236235	0.000146
 443	4.3979e+01	17.6081	87.111296	0.000476	4.763667	1.613974	0.000191
 444	4.4078e+01	17.6466	87.216262	0.000264	2.635220	0.892837	0.000105
 445	4.4178e+01	17.6851	87.393896	0.000446	4.459603	1.510954	0.000179
 446	4.4278e+01	17.7236	87.535196	0.000355	3.547412	1.201896	0.000142
 447	4.4377e+01	17.7701	87.668421	0.000334	3.344702	1.133216	0.000134
 448	4.4477e+01	17.8022	87.829907	0.000405	4.054185	1.373595	0.000162
 449	4.4576e+01	17.8407	87.987355	0.000395	3.952830	1.339255	0.000158
 450	4.4675e+01	17.8792	88.116543	0.000324	3.243348	1.098876	0.000130
 451	4.4775e+01	17.9241	88.265917	0.000375	3.750121	1.270575	0.000150
 452	4.4874e+01	17.9610	88.382994	0.000294	2.939284	0.995856	0.000118
 453	4.4974e+01	18.0091	88.552554	0.000426	4.256894	1.442275	0.000170
 454	4.5074e+01	18.0444	88.705965	0.000385	3.851475	1.304915	0.000154
 455	4.5173e+01	18.0845	88.839190	0.000334	3.344702	1.133216	0.000134
 456	4.5273e+01	18.1150	88.980490	0.000355	3.547412	1.201896	0.000142
 457	4.5372e+01	18.1535	89.125827	0.000365	3.648766	1.236235	0.000146
 458	4.5471e+01	18.2000	89.291350	0.000416	4.155539	1.407935	0.000166
 459	4.5571e+01	18.2401	89.412464	0.000304	3.040638	1.030196	0.000122
 460	4.5670e+01	18.2786	89.549726	0.000345	3.446057	1.167556	0.000138
 461	4.5770e+01	18.3187	89.723323	0.000436	4.358248	1.476615	0.000174
 462	4.5870e+01	18.3588	89.856549	0.000334	3.344702	1.133216	0.000134
 463	4.5969e+01	18.4038	90.018034	0.000405	4.054185	1.373595	0.000162
 464	4.6069e+01	18.4439	90.123000	0.000264	2.635220	0.892837	0.000105
 465	4.6168e+01	18.4856	90.276411	0.000385	3.851475	1.304915	0.000154
 466	4.6267e+01	18.5257	90.462119	0.000466	4.662312	1.579634	0.000187
 467	4.6367e+01	18.5578	90.595345	0.000334	3.344702	1.133216	0.000134
 468	4.6467e+01	18.5963	90.748756	0.000385	3.851475	1.304915	0.000154
 469	4.6566e+01	18.6380	90.877944	0.000324	3.243348	1.098876	0.000130
 470	4.6666e+01	18.6781	91.043467	0.000416	4.155539	1.407935	0.000166
 471	4.6765e+01	18.7214	91.160544	0.000294	2.939284	0.995856	0.000118
 472	4.6864e+01	18.7583	91.326066	0.000416	4.155539	1.407935	0.000166
 473	4.6964e+01	18.7968	91.463329	0.000345	3.446057	1.167556	0.000138
 474	4.7063e+01	18.8529	91.620777	0.000395	3.952830	1.339255	0.000158
 475	4.7163e+01	18.8818	91.778225	0.000395	3.952830	1.339255	0.000158
 476	4.7263e+01	18.9203	91.891265	0.000284	2.837929	0.961516	0.000114
 477	4.7362e+01	18.9620	92.068899	0.000446	4.459603	1.510954	0.000179
 478	4.7462e+01	18.9925	92.206162	0.000345	3.446057	1.167556	0.000138
 479	4.7561e+01	19.0342	92.319201	0.000284	2.837929	0.961516	0.000114
 480	4.7660e+01	19.0807	92.488761	0.000426	4.256894	1.442275	0.000170
 481	4.7760e+01	19.1160	92.642172	0.000385	3.851475	1.304915	0.000154
 482	4.7859e+01	19.1626	92.763286	0.000304	3.040638	1.030196	0.000122
 483	4.7959e+01	19.1962	92.948995	0.000466	4.662312	1.579634	0.000187
 484	4.8059e+01	19.2412	93.074146	0.000314	3.141993	1.064536	0.000126
 485	4.8158e+01	19.2700	93.235631	0.000405	4.054185	1.373595	0.000162
 486	4.8258e+01	19.3182	93.385005	0.000375	3.750121	1.270575	0.000150
 487	4.8357e+01	19.3503	93.506119	0.000304	3.040638	1.030196	0.000122
 488	4.8456e+01	19.3936	93.683753	0.000446	4.459603	1.510954	0.000179
 489	4.8556e+01	19.4321	93.784682	0.000253	2.533865	0.858497	0.000101
 490	4.8656e+01	19.4786	93.958279	0.000436	4.358248	1.476615	0.000174
 491	4.8755e+01	19.5123	94.043058	0.000213	2.128447	0.721137	0.000085
 492	4.8855e+01	19.5572	94.224730	0.000456	4.560958	1.545294	0.000183
 493	4.8954e+01	19.5925	94.370066	0.000365	3.648766	1.236235	0.000146
 494	4.9053e+01	19.6358	94.515403	0.000365	3.648766	1.236235	0.000146
 495	4.9153e+01	19.6743	94.652666	0.000345	3.446057	1.167556	0.000138
 496	4.9252e+01	19.7112	94.826263	0.000436	4.358248	1.476615	0.000174
 497	4.9352e+01	19.7545	94.963525	0.000345	3.446057	1.167556	0.000138
 498	4.9452e+01	19.7898	95.096751	0.000334	3.344702	1.133216	0.000134
 499	4.9551e+01	19.8235	95.254199	0.000395	3.952830	1.339255	0.000158
 500	4.9651e+01	19.8829	95.371276	0.000294	2.939284	0.995856	0.000118
 501	4.9750e+01	19.9069	95.548910	0.000446	4.459603	1.510954	0.000179
 502	4.9849e+01	19.9583	95.657913	0.000274	2.736575	0.927177	0.000110
 503	4.9949e+01	19.9903	95.827472	0.000426	4.256894	1.442275	0.000170
 504	5.0048e+01	19.9583	95.726544	0.000253	2.533865	0.858497	-0.000101
 505	5.0148e+01	19.9101	95.637727	0.000223	2.229802	0.755477	-0.000089
 506	5.0248e+01	19.8684	95.556984	0.000203	2.027092	0.686797	-0.000081
 507	5.0347e+01	19.8299	95.419722	0.000345	3.446057	1.167556	-0.000138
 508	5.0447e+01	19.7962	95.306682	0.000284	2.837929	0.961516	-0.000114
 509	5.0546e+01	19.7497	95.266311	0.000101	1.013546	0.343399	-0.000041
 510	5.0645e+01	19.7128	95.108862	0.000395	3.952830	1.339255	-0.000158
 511	5.0745e+01	19.6679	95.007934	0.000253	2.533865	0.858497	-0.000101
 512	5.0844e+01	19.6342	94.955451	0.000132	1.317610	0.446418	-0.000053
 513	5.0944e+01	19.5989	94.806077	0.000375	3.750121	1.270575	-0.000150
 514	5.1044e+01	19.5556	94.721297	0.000213	2.128447	0.721137	-0.000085
 515	5.1143e+01	19.5171	94.632480	0.000223	2.229802	0.755477	-0.000089
 516	5.1242e+01	19.4818	94.519440	0.000284	2.837929	0.961516	-0.000114
 517	5.1342e+01	19.4321	94.422549	0.000243	2.432511	0.824157	-0.000097
 518	5.1441e+01	19.4000	94.273175	0.000375	3.750121	1.270575	-0.000150
 519	5.1541e+01	19.3615	94.192432	0.000203	2.027092	0.686797	-0.000081
 520	5.1641e+01	19.3198	94.091504	0.000253	2.533865	0.858497	-0.000101
 521	5.1740e+01	19.2781	93.958279	0.000334	3.344702	1.133216	-0.000134
 522	5.1840e+01	19.2348	93.869462	0.000223	2.229802	0.755477	-0.000089
 523	5.1939e+01	19.1962	93.764496	0.000264	2.635220	0.892837	-0.000105
 524	5.2038e+01	19.1610	93.647419	0.000294	2.939284	0.995856	-0.000118
 525	5.2138e+01	19.1209	93.514194	0.000334	3.344702	1.133216	-0.000134
 526	5.2237e+01	19.0791	93.409228	0.000264	2.635220	0.892837	-0.000105
 527	5.2337e+01	19.0390	93.324448	0.000213	2.128447	0.721137	-0.000085
 528	5.2437e+01	19.0005	93.195260	0.000324	3.243348	1.098876	-0.000130
 529	5.2536e+01	18.9588	93.098369	0.000243	2.432511	0.824157	-0.000097
 530	5.2636e+01	18.9171	92.997440	0.000253	2.533865	0.858497	-0.000101
 531	5.2735e+01	18.8834	92.856141	0.000355	3.547412	1.201896	-0.000142
 532	5.2834e+01	18.8433	92.726952	0.000324	3.243348	1.098876	-0.000130
 533	5.2934e+01	18.8016	92.638135	0.000223	2.229802	0.755477	-0.000089
 534	5.3033e+01	18.7583	92.492798	0.000365	3.648766	1.236235	-0.000146
 535	5.3133e+01	18.7182	92.403981	0.000223	2.229802	0.755477	-0.000089
 536	5.3233e+01	18.6829	92.290942	0.000284	2.837929	0.961516	-0.000114
 537	5.3332e+01	18.6412	92.157716	0.000334	3.344702	1.133216	-0.000134
 538	5.3431e+01	18.5963	92.044676	0.000284	2.837929	0.961516	-0.000114
 539	5.3531e+01	18.5562	91.955859	0.000223	2.229802	0.755477	-0.000089
 540	5.3630e+01	18.5193	91.830708	0.000314	3.141993	1.064536	-0.000126
 541	5.3730e+01	18.4776	91.697483	0.000334	3.344702	1.133216	-0.000134
 542	5.3830e+01	18.4391	91.596554	0.000253	2.533865	0.858497	-0.000101
 543	5.3929e+01	18.3989	91.443143	0.000385	3.851475	1.304915	-0.000154
 544	5.4029e+01	18.3669	91.338178	0.000264	2.635220	0.892837	-0.000105
 545	5.4128e+01	18.3235	91.245323	0.000233	2.331156	0.789817	-0.000093
 546	5.4227e+01	18.2818	91.112098	0.000334	3.344702	1.133216	-0.000134
 547	5.4327e+01	18.2369	91.027318	0.000213	2.128447	0.721137	-0.000085
 548	5.4426e+01	18.2000	90.853721	0.000436	4.358248	1.476615	-0.000174
 549	5.4526e+01	18.1663	90.777016	0.000193	1.925738	0.652458	-0.000077
 550	5.4626e+01	18.1214	90.672050	0.000264	2.635220	0.892837	-0.000105
 551	5.4725e+01	18.0877	90.546899	0.000314	3.141993	1.064536	-0.000126
 552	5.4825e+01	18.0364	90.409636	0.000345	3.446057	1.167556	-0.000138
 553	5.4924e+01	17.9995	90.300634	0.000274	2.736575	0.927177	-0.000110
 554	5.5023e+01	17.9674	90.175482	0.000314	3.141993	1.064536	-0.000126
 555	5.5123e+01	17.9193	90.070517	0.000264	2.635220	0.892837	-0.000105
 556	5.5222e+01	17.8760	89.941329	0.000324	3.243348	1.098876	-0.000130
 557	5.5322e+01	17.8391	89.779843	0.000405	4.054185	1.373595	-0.000162
 558	5.5422e+01	17.8022	89.691026	0.000223	2.229802	0.755477	-0.000089
 559	5.5521e+01	17.7621	89.586061	0.000264	2.635220	0.892837	-0.000105
 560	5.5620e+01	17.7155	89.464947	0.000304	3.040638	1.030196	-0.000122
 561	5.5720e+01	17.6883	89.339795	0.000314	3.141993	1.064536	-0.000126
 562	5.5819e+01	17.6450	89.206570	0.000334	3.344702	1.133216	-0.000134
 563	5.5919e+01	17.6016	89.097567	0.000274	2.736575	0.927177	-0.000110
 564	5.6019e+01	17.5535	88.964342	0.000334	3.344702	1.133216	-0.000134
 565	5.6118e+01	17.5278	88.855339	0.000274	2.736575	0.927177	-0.000110
 566	5.6218e+01	17.4845	88.701928	0.000385	3.851475	1.304915	-0.000154
 567	5.6317e+01	17.4444	88.600999	0.000253	2.533865	0.858497	-0.000101
 568	5.6416e+01	17.4091	88.447588	0.000385	3.851475	1.304915	-0.000154
 569	5.6516e+01	17.3642	88.322437	0.000314	3.141993	1.064536	-0.000126
 570	5.6615e+01	17.3273	88.205360	0.000294	2.939284	0.995856	-0.000118
 571	5.6715e+01	17.2872	88.112506	0.000233	2.331156	0.789817	-0.000093
 572	5.6815e+01	17.2455	87.955058	0.000395	3.952830	1.339255	-0.000158
 573	5.6914e+01	17.2070	87.854129	0.000253	2.533865	0.858497	-0.000101
 574	5.7014e+01	17.1813	87.737052	0.000294	2.939284	0.995856	-0.000118
 575	5.7113e+01	17.1268	87.607864	0.000324	3.243348	1.098876	-0.000130
 576	5.7212e+01	17.0947	87.478676	0.000324	3.243348	1.098876	-0.000130
 577	5.7312e+01	17.0482	87.337376	0.000355	3.547412	1.201896	-0.000142
 578	5.7411e+01	17.0065	87.228373	0.000274	2.736575	0.927177	-0.000110
 579	5.7511e+01	16.9648	87.087074	0.000355	3.547412	1.201896	-0.000142
 580	5.7611e+01	16.9311	86.978071	0.000274	2.736575	0.927177	-0.000110
 581	5.7710e+01	16.8894	86.816585	0.000405	4.054185	1.373595	-0.000162
 582	5.7809e+01	16.8460	86.743917	0.000182	1.824383	0.618118	-0.000073
 583	5.7909e+01	16.8059	86.618766	0.000314	3.141993	1.064536	-0.000126
 584	5.8008e+01	16.7690	86.505726	0.000284	2.837929	0.961516	-0.000114
 585	5.8108e+01	16.7257	86.384612	0.000304	3.040638	1.030196	-0.000122
 586	5.8208e+01	16.6872	86.255424	0.000324	3.243348	1.098876	-0.000130
 587	5.8307e+01	16.6519	86.097975	0.000395	3.952830	1.339255	-0.000158
 588	5.8407e+01	16.6070	85.964750	0.000334	3.344702	1.133216	-0.000134
 589	5.8506e+01	16.5605	85.831524	0.000334	3.344702	1.133216	-0.000134
 590	5.8605e+01	16.5236	85.746745	0.000213	2.128447	0.721137	-0.000085
 591	5.8705e+01	16.4835	85.609482	0.000345	3.446057	1.167556	-0.000138
 592	5.8804e+01	16.4514	85.443959	0.000416	4.155539	1.407935	-0.000166
 593	5.8904e+01	16.4113	85.326882	0.000294	2.939284	0.995856	-0.000118
 594	5.9004e+01	16.3680	85.250177	0.000193	1.925738	0.652458	-0.000077
 595	5.9103e+01	16.3247	85.068506	0.000456	4.560958	1.545294	-0.000183
 596	5.9203e+01	16.2846	84.971614	0.000243	2.432511	0.824157	-0.000097
 597	5.9302e+01	16.2493	84.846463	0.000314	3.141993	1.064536	-0.000126
 598	5.9401e+01	16.2044	84.697089	0.000375	3.750121	1.270575	-0.000150
 599	5.9501e+01	16.1707	84.575975	0.000304	3.040638	1.030196	-0.000122
 600	5.9600e+01	16.1306	84.446787	0.000324	3.243348	1.098876	-0.000130
 601	5.9700e+01	16.0840	84.321636	0.000314	3.141993	1.064536	-0.000126
 602	5.9800e+01	16.0487	84.228781	0.000233	2.331156	0.789817	-0.000093
 603	5.9899e+01	16.0118	84.079407	0.000375	3.750121	1.270575	-0.000150
 604	5.9998e+01	15.9573	83.990590	0.000223	2.229802	0.755477	-0.000089
 605	6.0098e+01	15.9316	83.816994	0.000436	4.358248	1.476615	-0.000174
 606	6.0197e+01	15.8851	83.687805	0.000324	3.243348	1.098876	-0.000130
 607	6.0297e+01	15.8498	83.574765	0.000284	2.837929	0.961516	-0.000114
 608	6.0397e+01	15.8113	83.445577	0.000324	3.243348	1.098876	-0.000130
 609	6.0496e+01	15.7728	83.328500	0.000294	2.939284	0.995856	-0.000118
 610	6.0596e+01	15.7359	83.179126	0.000375	3.750121	1.270575	-0.000150
 611	6.0695e+01	15.6894	83.058012	0.000304	3.040638	1.030196	-0.000122
 612	6.0794e+01	15.6541	82.936898	0.000304	3.040638	1.030196	-0.000122
 613	6.0894e+01	15.6140	82.815784	0.000304	3.040638	1.030196	-0.000122
 614	6.0993e+01	15.5819	82.650261	0.000416	4.155539	1.407935	-0.000166
 615	6.1093e+01	15.5322	82.541259	0.000274	2.736575	0.927177	-0.000110
 616	6.1193e+01	15.4889	82.403996	0.000345	3.446057	1.167556	-0.000138
 617	6.1292e+01	15.4504	82.331328	0.000182	1.824383	0.618118	-0.000073
 618	6.1392e+01	15.4054	82.157731	0.000436	4.358248	1.476615	-0.000174
 619	6.1491e+01	15.3766	82.032580	0.000314	3.141993	1.064536	-0.000126
 620	6.1590e+01	15.3220	81.907428	0.000314	3.141993	1.064536	-0.000126
 621	6.1690e+01	15.2948	81.790351	0.000294	2.939284	0.995856	-0.000118
 622	6.1789e+01	15.2595	81.640977	0.000375	3.750121	1.270575	-0.000150
 623	6.1889e+01	15.2129	81.507752	0.000334	3.344702	1.133216	-0.000134
 624	6.1989e+01	15.1712	81.358378	0.000375	3.750121	1.270575	-0.000150
 625	6.2088e+01	15.1311	81.245338	0.000284	2.837929	0.961516	-0.000114
 626	6.2188e+01	15.0926	81.116150	0.000324	3.243348	1.098876	-0.000130
 627	6.2287e+01	15.0541	80.962739	0.000385	3.851475	1.304915	-0.000154
 628	6.2386e+01	15.0140	80.873922	0.000223	2.229802	0.755477	-0.000089
 629	6.2486e+01	14.9787	80.704362	0.000426	4.256894	1.442275	-0.000170
 630	6.2586e+01	14.9354	80.587285	0.000294	2.939284	0.995856	-0.000118
 631	6.2685e+01	14.8841	80.462134	0.000314	3.141993	1.064536	-0.000126
 632	6.2785e+01	14.8440	80.320834	0.000355	3.547412	1.201896	-0.000142
 633	6.2884e+01	14.8103	80.151274	0.000426	4.256894	1.442275	-0.000170
 634	6.2983e+01	14.7750	80.038235	0.000284	2.837929	0.961516	-0.000114
 635	6.3083e+01	14.7317	79.880786	0.000395	3.952830	1.339255	-0.000158
 636	6.3182e+01	14.6932	79.759672	0.000304	3.040638	1.030196	-0.000122
 637	6.3282e+01	14.6595	79.622410	0.000345	3.446057	1.167556	-0.000138
 638	6.3382e+01	14.6097	79.473036	0.000375	3.750121	1.270575	-0.000150
 639	6.3481e+01	14.5729	79.380181	0.000233	2.331156	0.789817	-0.000093
 640	6.3581e+01	14.5360	79.214659	0.000416	4.155539	1.407935	-0.000166
 641	6.3680e+01	14.5023	79.109693	0.000264	2.635220	0.892837	-0.000105
 642	6.3779e+01	14.4541	78.972431	0.000345	3.446057	1.167556	-0.000138
 643	6.3879e+01	14.4253	78.851317	0.000304	3.040638	1.030196	-0.000122
 644	6.3978e+01	14.3691	78.689831	0.000405	4.054185	1.373595	-0.000162
 645	6.4078e+01	14.3322	78.552569	0.000345	3.446057	1.167556	-0.000138
 646	6.4177e+01	14.2985	78.443566	0.000274	2.736575	0.927177	-0.000110
 647	6.4277e+01	14.2472	78.290155	0.000385	3.851475	1.304915	-0.000154
 648	6.4376e+01	14.2135	78.156929	0.000334	3.344702	1.133216	-0.000134
 649	6.4476e+01	14.1766	78.007555	0.000375	3.750121	1.270575	-0.000150
 650	6.4576e+01	14.1461	77.862218	0.000365	3.648766	1.236235	-0.000146
 651	6.4675e+01	14.0996	77.737067	0.000314	3.141993	1.064536	-0.000126
 652	6.4775e+01	14.0579	77.583656	0.000385	3.851475	1.304915	-0.000154
 653	6.4874e+01	14.0050	77.486765	0.000243	2.432511	0.824157	-0.000097
 654	6.4974e+01	13.9745	77.341428	0.000365	3.648766	1.236235	-0.000146
 655	6.5073e+01	13.9376	77.171868	0.000426	4.256894	1.442275	-0.000170
 656	6.5172e+01	13.8894	77.058828	0.000284	2.837929	0.961516	-0.000114
 657	6.5272e+01	13.8590	76.897343	0.000405	4.054185	1.373595	-0.000162
 658	6.5371e+01	13.8189	76.768155	0.000324	3.243348	1.098876	-0.000130
 659	6.5471e+01	13.7836	76.643003	0.000314	3.141993	1.064536	-0.000126
 660	6.5570e+01	13.7419	76.473444	0.000426	4.256894	1.442275	-0.000170
 661	6.5670e+01	13.7018	76.340218	0.000334	3.344702	1.133216	-0.000134
 662	6.5769e+01	13.6568	76.227178	0.000284	2.837929	0.961516	-0.000114
 663	6.5869e+01	13.6183	76.097990	0.000324	3.243348	1.098876	-0.000130
 664	6.5969e+01	13.5750	75.944579	0.000385	3.851475	1.304915	-0.000154
 665	6.6068e+01	13.5413	75.791168	0.000385	3.851475	1.304915	-0.000154
 666	6.6168e+01	13.4948	75.674091	0.000294	2.939284	0.995856	-0.000118
 667	6.6267e+01	13.4595	75.496457	0.000446	4.459603	1.510954	-0.000179
 668	6.6367e+01	13.4178	75.330934	0.000416	4.155539	1.407935	-0.000166
 669	6.6466e+01	13.3857	75.225969	0.000264	2.635220	0.892837	-0.000105
 670	6.6566e+01	13.3408	75.104855	0.000304	3.040638	1.030196	-0.000122
 671	6.6665e+01	13.3055	74.935295	0.000426	4.256894	1.442275	-0.000170
 672	6.6764e+01	13.2654	74.789958	0.000365	3.648766	1.236235	-0.000146
 673	6.6864e+01	13.2125	74.656733	0.000334	3.344702	1.133216	-0.000134
 674	6.6963e+01	13.1756	74.507359	0.000375	3.750121	1.270575	-0.000150
 675	6.7063e+01	13.1451	74.353947	0.000385	3.851475	1.304915	-0.000154
 676	6.7162e+01	13.0986	74.212648	0.000355	3.547412	1.201896	-0.000142
 677	6.7262e+01	13.0536	74.055199	0.000395	3.952830	1.339255	-0.000158
 678	6.7362e+01	13.0183	73.938122	0.000294	2.939284	0.995856	-0.000118
 679	6.7461e+01	12.9766	73.764526	0.000436	4.358248	1.476615	-0.000174
 680	6.7561e+01	12.9285	73.651486	0.000284	2.837929	0.961516	-0.000114
 681	6.7660e+01	12.9109	73.461740	0.000476	4.763667	1.613974	-0.000191
 682	6.7760e+01	12.8595	73.397146	0.000162	1.621674	0.549438	-0.000065
 683	6.7859e+01	12.8242	73.207401	0.000476	4.763667	1.613974	-0.000191
 684	6.7959e+01	12.7825	73.041878	0.000416	4.155539	1.407935	-0.000166
 685	6.8058e+01	12.7392	72.969210	0.000182	1.824383	0.618118	-0.000073
 686	6.8157e+01	12.7087	72.763316	0.000517	5.169085	1.751334	-0.000207
 687	6.8257e+01	12.6654	72.630090	0.000334	3.344702	1.133216	-0.000134
 688	6.8356e+01	12.6221	72.480716	0.000375	3.750121	1.270575	-0.000150
 689	6.8456e+01	12.5788	72.339417	0.000355	3.547412	1.201896	-0.000142
 690	6.8555e+01	12.5435	72.145634	0.000487	4.865022	1.648314	-0.000195
 691	6.8655e+01	12.4986	71.988186	0.000395	3.952830	1.339255	-0.000158
 692	6.8754e+01	12.4681	71.891295	0.000243	2.432511	0.824157	-0.000097
 693	6.8854e+01	12.4168	71.733846	0.000395	3.952830	1.339255	-0.000158
 694	6.8954e+01	12.3895	71.560250	0.000436	4.358248	1.476615	-0.000174
 695	6.9053e+01	12.3382	71.418950	0.000355	3.547412	1.201896	-0.000142
 696	6.9153e+01	12.3029	71.281687	0.000345	3.446057	1.167556	-0.000138
 697	6.9252e+01	12.2676	71.124239	0.000395	3.952830	1.339255	-0.000158
 698	6.9352e+01	12.2243	70.962753	0.000405	4.054185	1.373595	-0.000162
 699	6.9451e+01	12.1890	70.809342	0.000385	3.851475	1.304915	-0.000154
 700	6.9550e+01	12.1473	70.676117	0.000334	3.344702	1.133216	-0.000134
 701	6.9650e+01	12.1039	70.498483	0.000446	4.459603	1.510954	-0.000179
 702	6.9749e+01	12.0654	70.393517	0.000264	2.635220	0.892837	-0.000105
 703	6.9849e+01	12.0269	70.223958	0.000426	4.256894	1.442275	-0.000170
 704	6.9948e+01	11.9868	70.026138	0.000497	4.966376	1.682654	-0.000199
 705	7.0048e+01	11.9467	69.884838	0.000355	3.547412	1.201896	-0.000142
 706	7.0147e+01	11.9114	69.755650	0.000324	3.243348	1.098876	-0.000130
 707	7.0247e+01	11.8681	69.590127	0.000416	4.155539	1.407935	-0.000166
 708	7.0347e+01	11.8200	69.448828	0.000355	3.547412	1.201896	-0.000142
 709	7.0446e+01	11.7895	69.311565	0.000345	3.446057	1.167556	-0.000138
 710	7.0546e+01	11.7430	69.158154	0.000385	3.851475	1.304915	-0.000154
 711	7.0645e+01	11.7077	68.972446	0.000466	4.662312	1.579634	-0.000187
 712	7.0745e+01	11.6788	68.855369	0.000294	2.939284	0.995856	-0.000118
 713	7.0844e+01	11.6259	68.661586	0.000487	4.865022	1.648314	-0.000195
 714	7.0944e+01	11.5890	68.544509	0.000294	2.939284	0.995856	-0.000118
 715	7.1043e+01	11.5569	68.387061	0.000395	3.952830	1.339255	-0.000158
 716	7.1142e+01	11.5104	68.229613	0.000395	3.952830	1.339255	-0.000158
 717	7.1242e+01	11.4719	68.124647	0.000264	2.635220	0.892837	-0.000105
 718	7.1341e+01	11.4253	67.926827	0.000497	4.966376	1.682654	-0.000199
 719	7.1441e+01	11.3852	67.769379	0.000395	3.952830	1.339255	-0.000158
 720	7.1540e+01	11.3516	67.636154	0.000334	3.344702	1.133216	-0.000134
 721	7.1640e+01	11.3050	67.454482	0.000456	4.560958	1.545294	-0.000183
 722	7.1740e+01	11.2697	67.321257	0.000334	3.344702	1.133216	-0.000134
 723	7.1839e+01	11.2328	67.151697	0.000426	4.256894	1.442275	-0.000170
 724	7.1939e+01	11.1895	66.974063	0.000446	4.459603	1.510954	-0.000179
 725	7.2038e+01	11.1462	66.820652	0.000385	3.851475	1.304915	-0.000154
 726	7.2138e+01	11.1093	66.679352	0.000355	3.547412	1.201896	-0.000142
 727	7.2237e+01	11.0644	66.525941	0.000385	3.851475	1.304915	-0.000154
 728	7.2337e+01	11.0291	66.356382	0.000426	4.256894	1.442275	-0.000170
 729	7.2436e+01	10.9874	66.235267	0.000304	3.040638	1.030196	-0.000122
 730	7.2535e+01	10.9553	66.037448	0.000497	4.966376	1.682654	-0.000199
 731	7.2635e+01	10.9056	65.867888	0.000426	4.256894	1.442275	-0.000170
 732	7.2734e+01	10.8671	65.734663	0.000334	3.344702	1.133216	-0.000134
 733	7.2834e+01	10.8286	65.597400	0.000345	3.446057	1.167556	-0.000138
 734	7.2933e+01	10.7949	65.411692	0.000466	4.662312	1.579634	-0.000187
 735	7.3033e+01	10.7484	65.282503	0.000324	3.243348	1.098876	-0.000130
 736	7.3132e+01	10.7115	65.100832	0.000456	4.560958	1.545294	-0.000183
 737	7.3232e+01	10.6794	64.947421	0.000385	3.851475	1.304915	-0.000154
 738	7.3332e+01	10.6264	64.810159	0.000345	3.446057	1.167556	-0.000138
 739	7.3431e+01	10.5911	64.636562	0.000436	4.358248	1.476615	-0.000174
 740	7.3531e+01	10.5510	64.426631	0.000527	5.270440	1.785673	-0.000211
 741	7.3630e+01	10.5029	64.285331	0.000355	3.547412	1.201896	-0.000142
 742	7.3730e+01	10.4708	64.139994	0.000365	3.648766	1.236235	-0.000146
 743	7.3829e+01	10.4323	64.002731	0.000345	3.446057	1.167556	-0.000138
 744	7.3928e+01	10.3906	63.861432	0.000355	3.547412	1.201896	-0.000142
 745	7.4028e+01	10.3441	63.703983	0.000395	3.952830	1.339255	-0.000158
 746	7.4127e+01	10.3088	63.498089	0.000517	5.169085	1.751334	-0.000207
 747	7.4227e+01	10.2751	63.389087	0.000274	2.736575	0.927177	-0.000110
 748	7.4326e+01	10.2302	63.223564	0.000416	4.155539	1.407935	-0.000166
 749	7.4426e+01	10.1917	63.037856	0.000466	4.662312	1.579634	-0.000187
 750	7.4525e+01	10.1548	62.904631	0.000334	3.344702	1.133216	-0.000134
 751	7.4625e+01	10.1227	62.731034	0.000436	4.358248	1.476615	-0.000174
 752	7.4725e+01	10.0746	62.557437	0.000436	4.358248	1.476615	-0.000174
 753	7.4824e+01	10.0281	62.375766	0.000456	4.560958	1.545294	-0.000183
 754	7.4924e+01	9.9896	62.222355	0.000385	3.851475	1.304915	-0.000154
 755	7.5023e+01	9.9591	62.048758	0.000436	4.358248	1.476615	-0.000174
 756	7.5123e+01	9.9093	61.931681	0.000294	2.939284	0.995856	-0.000118
 757	7.5222e+01	9.8805	61.721750	0.000527	5.270440	1.785673	-0.000211
 758	7.5322e+01	9.8388	61.584487	0.000345	3.446057	1.167556	-0.000138
 759	7.5421e+01	9.7874	61.414927	0.000426	4.256894	1.442275	-0.000170
 760	7.5520e+01	9.7537	61.209033	0.000517	5.169085	1.751334	-0.000207
 761	7.5620e+01	9.7217	61.079845	0.000324	3.243348	1.098876	-0.000130
 762	7.5719e+01	9.6735	60.898174	0.000456	4.560958	1.545294	-0.000183
 763	7.5819e+01	9.6334	60.773023	0.000314	3.141993	1.064536	-0.000126
 764	7.5918e+01	9.5917	60.595389	0.000446	4.459603	1.510954	-0.000179
 765	7.6018e+01	9.5532	60.409681	0.000466	4.662312	1.579634	-0.000187
 766	7.6118e+01	9.5131	60.284529	0.000314	3.141993	1.064536	-0.000126
 767	7.6217e+01	9.4730	60.102858	0.000456	4.560958	1.545294	-0.000183
 768	7.6317e+01	9.4361	59.933299	0.000426	4.256894	1.442275	-0.000170
 769	7.6416e+01	9.4040	59.824296	0.000274	2.736575	0.927177	-0.000110
 770	7.6516e+01	9.3543	59.626476	0.000497	4.966376	1.682654	-0.000199
 771	7.6615e+01	9.3190	59.456917	0.000426	4.256894	1.442275	-0.000170
 772	7.6715e+01	9.2757	59.295431	0.000405	4.054185	1.373595	-0.000162
 773	7.6814e+01	9.2356	59.113760	0.000456	4.560958	1.545294	-0.000183
 774	7.6913e+01	9.2019	58.952275	0.000405	4.054185	1.373595	-0.000162
 775	7.7013e+01	9.1602	58.786752	0.000416	4.155539	1.407935	-0.000166
 776	7.7112e+01	9.1185	58.629304	0.000395	3.952830	1.339255	-0.000158
 777	7.7212e+01	9.0703	58.455707	0.000436	4.358248	1.476615	-0.000174
 778	7.7311e+01	9.0382	58.306333	0.000375	3.750121	1.270575	-0.000150
 779	7.7411e+01	8.9965	58.124662	0.000456	4.560958	1.545294	-0.000183
 780	7.7510e+01	8.9532	57.955102	0.000426	4.256894	1.442275	-0.000170
 781	7.7610e+01	8.9163	57.777468	0.000446	4.459603	1.510954	-0.000179
 782	7.7710e+01	8.8810	57.656354	0.000304	3.040638	1.030196	-0.000122
 783	7.7809e+01	8.8377	57.490831	0.000416	4.155539	1.407935	-0.000166
 784	7.7909e+01	8.8072	57.284938	0.000517	5.169085	1.751334	-0.000207
 785	7.8008e+01	8.7607	57.155749	0.000324	3.243348	1.098876	-0.000130
 786	7.8108e+01	8.7190	56.978115	0.000446	4.459603	1.510954	-0.000179
 787	7.8207e+01	8.6757	56.828741	0.000375	3.750121	1.270575	-0.000150
 788	7.8306e+01	8.6420	56.610736	0.000547	5.473149	1.854353	-0.000219
 789	7.8406e+01	8.6035	56.457325	0.000385	3.851475	1.304915	-0.000154
 790	7.8505e+01	8.5634	56.303914	0.000385	3.851475	1.304915	-0.000154
 791	7.8605e+01	8.5153	56.106094	0.000497	4.966376	1.682654	-0.000199
 792	7.8704e+01	8.4752	55.980943	0.000314	3.141993	1.064536	-0.000126
 793	7.8804e+01	8.4399	55.742752	0.000598	5.979922	2.026053	-0.000239
 794	7.8903e+01	8.3917	55.625675	0.000294	2.939284	0.995856	-0.000118
 795	7.9003e+01	8.3613	55.452078	0.000436	4.358248	1.476615	-0.000174
 796	7.9103e+01	8.3260	55.294630	0.000395	3.952830	1.339255	-0.000158
 797	7.9202e+01	8.2794	55.076624	0.000547	5.473149	1.854353	-0.000219
 798	7.9302e+01	8.2377	54.886879	0.000476	4.763667	1.613974	-0.000191
 799	7.9401e+01	8.2105	54.773839	0.000284	2.837929	0.961516	-0.000114
 800	7.9501e+01	8.1623	54.584094	0.000476	4.763667	1.613974	-0.000191
 801	7.9600e+01	8.1174	54.370126	0.000537	5.371795	1.820013	-0.000215
 802	7.9700e+01	8.0725	54.244974	0.000314	3.141993	1.064536	-0.000126
 803	7.9799e+01	8.0388	54.047155	0.000497	4.966376	1.682654	-0.000199
 804	7.9898e+01	8.0115	53.861446	0.000466	4.662312	1.579634	-0.000187
 805	7.9998e+01	7.9554	53.708035	0.000385	3.851475	1.304915	-0.000154
 806	8.0097e+01	7.9185	53.518290	0.000476	4.763667	1.613974	-0.000191
 807	8.0197e+01	7.8848	53.364879	0.000385	3.851475	1.304915	-0.000154
 808	8.0296e+01	7.8335	53.167059	0.000497	4.966376	1.682654	-0.000199
 809	8.0396e+01	7.7966	52.997499	0.000426	4.256894	1.442275	-0.000170
 810	8.0496e+01	7.7645	52.815828	0.000456	4.560958	1.545294	-0.000183
 811	8.0595e+01	7.7212	52.662417	0.000385	3.851475	1.304915	-0.000154
 812	8.0695e+01	7.6746	52.452486	0.000527	5.270440	1.785673	-0.000211
 813	8.0794e+01	7.6410	52.286964	0.000416	4.155539	1.407935	-0.000166
 814	8.0894e+01	7.5976	52.105292	0.000456	4.560958	1.545294	-0.000183
 815	8.0993e+01	7.5672	51.939770	0.000416	4.155539	1.407935	-0.000166
 816	8.1093e+01	7.5255	51.733876	0.000517	5.169085	1.751334	-0.000207
 817	8.1192e+01	7.4902	51.616799	0.000294	2.939284	0.995856	-0.000118
 818	8.1291e+01	7.4372	51.418979	0.000497	4.966376	1.682654	-0.000199
 819	8.1391e+01	7.4051	51.237308	0.000456	4.560958	1.545294	-0.000183
 820	8.1490e+01	7.3618	51.015266	0.000557	5.574504	1.888693	-0.000223
 821	8.1590e+01	7.3233	50.886077	0.000324	3.243348	1.098876	-0.000130
 822	8.1689e+01	7.2864	50.664035	0.000557	5.574504	1.888693	-0.000223
 823	8.1789e+01	7.2399	50.530809	0.000334	3.344702	1.133216	-0.000134
 824	8.1888e+01	7.1998	50.324916	0.000517	5.169085	1.751334	-0.000207
 825	8.1988e+01	7.1581	50.195727	0.000324	3.243348	1.098876	-0.000130
 826	8.2088e+01	7.1164	50.010019	0.000466	4.662312	1.579634	-0.000187
 827	8.2187e+01	7.0843	49.792014	0.000547	5.473149	1.854353	-0.000219
 828	8.2287e+01	7.0394	49.578045	0.000537	5.371795	1.820013	-0.000215
 829	8.2386e+01	7.0089	49.416560	0.000405	4.054185	1.373595	-0.000162
 830	8.2486e+01	6.9576	49.222777	0.000487	4.865022	1.648314	-0.000195
 831	8.2585e+01	6.9255	49.020921	0.000507	5.067731	1.716994	-0.000203
 832	8.2684e+01	6.8806	48.887695	0.000334	3.344702	1.133216	-0.000134
 833	8.2784e+01	6.8356	48.693913	0.000487	4.865022	1.648314	-0.000195
 834	8.2883e+01	6.8068	48.492056	0.000507	5.067731	1.716994	-0.000203
 835	8.2983e+01	6.7667	48.326533	0.000416	4.155539	1.407935	-0.000166
 836	8.3082e+01	6.7265	48.112565	0.000537	5.371795	1.820013	-0.000215
 837	8.3182e+01	6.6816	47.938968	0.000436	4.358248	1.476615	-0.000174
 838	8.3281e+01	6.6463	47.720963	0.000547	5.473149	1.854353	-0.000219
 839	8.3381e+01	6.6062	47.559478	0.000405	4.054185	1.373595	-0.000162
 840	8.3481e+01	6.5741	47.341472	0.000547	5.473149	1.854353	-0.000219
 841	8.3580e+01	6.5292	47.188061	0.000385	3.851475	1.304915	-0.000154
 842	8.3680e+01	6.4763	47.018501	0.000426	4.256894	1.442275	-0.000170
 843	8.3779e+01	6.4506	46.804533	0.000537	5.371795	1.820013	-0.000215
 844	8.3879e+01	6.4137	46.626899	0.000446	4.459603	1.510954	-0.000179
 845	8.3978e+01	6.3688	46.453302	0.000436	4.358248	1.476615	-0.000174
 846	8.4078e+01	6.3255	46.259520	0.000487	4.865022	1.648314	-0.000195
 847	8.4177e+01	6.2822	46.037477	0.000557	5.574504	1.888693	-0.000223
 848	8.4276e+01	6.2517	45.884066	0.000385	3.851475	1.304915	-0.000154
 849	8.4376e+01	6.2068	45.641838	0.000608	6.081277	2.060392	-0.000243
 850	8.4475e+01	6.1683	45.456130	0.000466	4.662312	1.579634	-0.000187
 851	8.4575e+01	6.1298	45.258310	0.000497	4.966376	1.682654	-0.000199
 852	8.4674e+01	6.0913	45.096825	0.000405	4.054185	1.373595	-0.000162
 853	8.4774e+01	6.0447	44.911117	0.000466	4.662312	1.579634	-0.000187
 854	8.4874e+01	6.0079	44.668888	0.000608	6.081277	2.060392	-0.000243
 855	8.4973e+01	5.9694	44.483180	0.000466	4.662312	1.579634	-0.000187
 856	8.5073e+01	5.9308	44.329769	0.000385	3.851475	1.304915	-0.000154
 857	8.5172e+01	5.8827	44.119838	0.000527	5.270440	1.785673	-0.000211
 858	8.5272e+01	5.8571	43.942204	0.000446	4.459603	1.510954	-0.000179
 859	8.5371e+01	5.8073	43.732273	0.000527	5.270440	1.785673	-0.000211
 860	8.5471e+01	5.7656	43.514268	0.000547	5.473149	1.854353	-0.000219
 861	8.5570e+01	5.7239	43.316448	0.000497	4.966376	1.682654	-0.000199
 862	8.5669e+01	5.6950	43.142851	0.000436	4.358248	1.476615	-0.000174
 863	8.5769e+01	5.6581	42.953106	0.000476	4.763667	1.613974	-0.000191
 864	8.5868e+01	5.6036	42.690692	0.000659	6.588050	2.232092	-0.000264
 865	8.5968e+01	5.5779	42.529206	0.000405	4.054185	1.373595	-0.000162
 866	8.6067e+01	5.5298	42.303127	0.000568	5.675858	1.923033	-0.000227
 867	8.6167e+01	5.4913	42.157790	0.000365	3.648766	1.236235	-0.000146
 868	8.6266e+01	5.4544	41.935747	0.000557	5.574504	1.888693	-0.000223
 869	8.6366e+01	5.4143	41.741965	0.000487	4.865022	1.648314	-0.000195
 870	8.6466e+01	5.3774	41.536071	0.000517	5.169085	1.751334	-0.000207
 871	8.6565e+01	5.3293	41.370548	0.000416	4.155539	1.407935	-0.000166
 872	8.6665e+01	5.3020	41.160617	0.000527	5.270440	1.785673	-0.000211
 873	8.6764e+01	5.2555	40.978946	0.000456	4.560958	1.545294	-0.000183
 874	8.6864e+01	5.2122	40.732681	0.000618	6.182632	2.094732	-0.000248
 875	8.6963e+01	5.1704	40.534861	0.000497	4.966376	1.682654	-0.000199
 876	8.7063e+01	5.1319	40.316856	0.000547	5.473149	1.854353	-0.000219
 877	8.7162e+01	5.0838	40.123074	0.000487	4.865022	1.648314	-0.000195
 878	8.7261e+01	5.0630	39.941402	0.000456	4.560958	1.545294	-0.000183
 879	8.7361e+01	5.0068	39.731471	0.000527	5.270440	1.785673	-0.000211
 880	8.7460e+01	4.9683	39.565949	0.000416	4.155539	1.407935	-0.000166
 881	8.7560e+01	4.9314	39.364092	0.000507	5.067731	1.716994	-0.000203
 882	8.7659e+01	4.8961	39.129938	0.000588	5.878568	1.991713	-0.000235
 883	8.7759e+01	4.8544	38.915970	0.000537	5.371795	1.820013	-0.000215
 884	8.7859e+01	4.8191	38.750447	0.000416	4.155539	1.407935	-0.000166
 885	8.7958e+01	4.7774	38.532442	0.000547	5.473149	1.854353	-0.000219
 886	8.8058e+01	4.7341	38.334622	0.000497	4.966376	1.682654	-0.000199
 887	8.8157e+01	4.6940	38.108543	0.000568	5.675858	1.923033	-0.000227
 888	8.8257e+01	4.6587	37.866315	0.000608	6.081277	2.060392	-0.000243
 889	8.8356e+01	4.6186	37.708866	0.000395	3.952830	1.339255	-0.000158
 890	8.8456e+01	4.5673	37.486824	0.000557	5.574504	1.888693	-0.000223
 891	8.8555e+01	4.5384	37.264781	0.000557	5.574504	1.888693	-0.000223
 892	8.8654e+01	4.4951	37.062925	0.000507	5.067731	1.716994	-0.000203
 893	8.8754e+01	4.4630	36.857031	0.000517	5.169085	1.751334	-0.000207
 894	8.8853e+01	4.4197	36.671322	0.000466	4.662312	1.579634	-0.000187
 895	8.8953e+01	4.3763	36.437169	0.000588	5.878568	1.991713	-0.000235
 896	8.9052e+01	4.3411	36.267609	0.000426	4.256894	1.442275	-0.000170
 897	8.9152e+01	4.2993	36.057678	0.000527	5.270440	1.785673	-0.000211
 898	8.9251e+01	4.2576	35.807375	0.000628	6.283986	2.129072	-0.000252
 899	8.9351e+01	4.2079	35.613593	0.000487	4.865022	1.648314	-0.000195
 900	8.9451e+01	4.1710	35.403662	0.000527	5.270440	1.785673	-0.000211
 901	8.9550e+01	4.1309	35.193731	0.000527	5.270440	1.785673	-0.000211
 902	8.9650e+01	4.0972	34.991874	0.000507	5.067731	1.716994	-0.000203
 903	8.9749e+01	4.0523	34.761757	0.000578	5.777213	1.957373	-0.000231
 904	8.9849e+01	4.0170	34.563938	0.000497	4.966376	1.682654	-0.000199
 905	8.9948e+01	3.9785	34.321709	0.000608	6.081277	2.060392	-0.000243
 906	9.0047e+01	3.9496	34.136001	0.000466	4.662312	1.579634	-0.000187
 907	9.0147e+01	3.8935	33.954330	0.000456	4.560958	1.545294	-0.000183
 908	9.0246e+01	3.8662	33.691916	0.000659	6.588050	2.232092	-0.000264
 909	9.0346e+01	3.8149	33.481985	0.000527	5.270440	1.785673	-0.000211
 910	9.0445e+01	3.7796	33.296277	0.000466	4.662312	1.579634	-0.000187
 911	9.0545e+01	3.7347	33.062123	0.000588	5.878568	1.991713	-0.000235
 912	9.0644e+01	3.6994	32.844118	0.000547	5.473149	1.854353	-0.000219
 913	9.0744e+01	3.6641	32.666484	0.000446	4.459603	1.510954	-0.000179
 914	9.0844e+01	3.6143	32.428293	0.000598	5.979922	2.026053	-0.000239
 915	9.0943e+01	3.5806	32.242585	0.000466	4.662312	1.579634	-0.000187
 916	9.1043e+01	3.5438	31.964022	0.000699	6.993468	2.369451	-0.000280
 917	9.1142e+01	3.4972	31.802537	0.000405	4.054185	1.373595	-0.000162
 918	9.1242e+01	3.4571	31.596643	0.000517	5.169085	1.751334	-0.000207
 919	9.1341e+01	3.4154	31.354415	0.000608	6.081277	2.060392	-0.000243
 920	9.1441e+01	3.3753	31.136409	0.000547	5.473149	1.854353	-0.000219
 921	9.1540e+01	3.3320	30.926478	0.000527	5.270440	1.785673	-0.000211
 922	9.1639e+01	3.2935	30.704436	0.000557	5.574504	1.888693	-0.000223
 923	9.1739e+01	3.2550	30.522765	0.000456	4.560958	1.545294	-0.000183
 924	9.1838e+01	3.2213	30.264388	0.000649	6.486695	2.197752	-0.000260
 925	9.1938e+01	3.1812	29.997937	0.000669	6.689405	2.266432	-0.000268
 926	9.2037e+01	3.1507	29.844526	0.000385	3.851475	1.304915	-0.000154
 927	9.2137e+01	3.0946	29.618446	0.000568	5.675858	1.923033	-0.000227
 928	9.2237e+01	3.0673	29.380255	0.000598	5.979922	2.026053	-0.000239
 929	9.2336e+01	3.0224	29.166287	0.000537	5.371795	1.820013	-0.000215
 930	9.2436e+01	2.9662	28.964430	0.000507	5.067731	1.716994	-0.000203
 931	9.2535e+01	2.9390	28.750462	0.000537	5.371795	1.820013	-0.000215
 932	9.2635e+01	2.9133	28.528420	0.000557	5.574504	1.888693	-0.000223
 933	9.2734e+01	2.8684	28.257932	0.000679	6.790759	2.300772	-0.000272
 934	9.2834e+01	2.8202	28.064149	0.000487	4.865022	1.648314	-0.000195
 935	9.2933e+01	2.7882	27.870367	0.000487	4.865022	1.648314	-0.000195
 936	9.3032e+01	2.7481	27.652361	0.000547	5.473149	1.854353	-0.000219
 937	9.3132e+01	2.6951	27.434356	0.000547	5.473149	1.854353	-0.000219
 938	9.3231e+01	2.6614	27.208276	0.000568	5.675858	1.923033	-0.000227
 939	9.3331e+01	2.6133	27.002382	0.000517	5.169085	1.751334	-0.000207
 940	9.3430e+01	2.5924	26.731894	0.000679	6.790759	2.300772	-0.000272
 941	9.3530e+01	2.5443	26.526000	0.000517	5.169085	1.751334	-0.000207
 942	9.3629e+01	2.4978	26.303958	0.000557	5.574504	1.888693	-0.000223
 943	9.3729e+01	2.4561	26.085953	0.000547	5.473149	1.854353	-0.000219
 944	9.3829e+01	2.4272	25.871984	0.000537	5.371795	1.820013	-0.000215
 945	9.3928e+01	2.3855	25.686276	0.000466	4.662312	1.579634	-0.000187
 946	9.4028e+01	2.3390	25.423862	0.000659	6.588050	2.232092	-0.000264
 947	9.4127e+01	2.3101	25.205857	0.000547	5.473149	1.854353	-0.000219
 948	9.4227e+01	2.2652	24.979777	0.000568	5.675858	1.923033	-0.000227
 949	9.4326e+01	2.2283	24.749661	0.000578	5.777213	1.957373	-0.000231
 950	9.4425e+01	2.1866	24.547804	0.000507	5.067731	1.716994	-0.000203
 951	9.4525e+01	2.1449	24.297501	0.000628	6.283986	2.129072	-0.000252
 952	9.4624e+01	2.1080	24.043162	0.000639	6.385341	2.163412	-0.000256
 953	9.4724e+01	2.0695	23.845342	0.000497	4.966376	1.682654	-0.000199
 954	9.4823e+01	2.0229	23.599077	0.000618	6.182632	2.094732	-0.000248
 955	9.4923e+01	1.9828	23.401257	0.000497	4.966376	1.682654	-0.000199
 956	9.5022e+01	1.9395	23.154992	0.000618	6.182632	2.094732	-0.000248
 957	9.5122e+01	1.9042	22.953135	0.000507	5.067731	1.716994	-0.000203
 958	9.5222e+01	1.8657	22.698796	0.000639	6.385341	2.163412	-0.000256
 959	9.5321e+01	1.8192	22.464642	0.000588	5.878568	1.991713	-0.000235
 960	9.5421e+01	1.7791	22.222414	0.000608	6.081277	2.060392	-0.000243
 961	9.5520e+01	1.7422	22.000371	0.000557	5.574504	1.888693	-0.000223
 962	9.5620e+01	1.7069	21.746032	0.000639	6.385341	2.163412	-0.000256
 963	9.5719e+01	1.6636	21.576472	0.000426	4.256894	1.442275	-0.000170
 964	9.5819e+01	1.6267	21.305984	0.000679	6.790759	2.300772	-0.000272
 965	9.5918e+01	1.5818	21.063756	0.000608	6.081277	2.060392	-0.000243
 966	9.6017e+01	1.5481	20.845750	0.000547	5.473149	1.854353	-0.000219
 967	9.6117e+01	1.5000	20.639856	0.000517	5.169085	1.751334	-0.000207
 968	9.6216e+01	1.4647	20.405703	0.000588	5.878568	1.991713	-0.000235
 969	9.6316e+01	1.4262	20.159437	0.000618	6.182632	2.094732	-0.000248
 970	9.6415e+01	1.3909	19.905098	0.000639	6.385341	2.163412	-0.000256
 971	9.6515e+01	1.3443	19.630573	0.000689	6.892114	2.335111	-0.000276
 972	9.6615e+01	1.3091	19.448901	0.000456	4.560958	1.545294	-0.000183
 973	9.6714e+01	1.2641	19.222822	0.000568	5.675858	1.923033	-0.000227
 974	9.6814e+01	1.2288	18.980594	0.000608	6.081277	2.060392	-0.000243
 975	9.6913e+01	1.1871	18.762588	0.000547	5.473149	1.854353	-0.000219
 976	9.7013e+01	1.1583	18.496137	0.000669	6.689405	2.266432	-0.000268
 977	9.7112e+01	1.1101	18.249872	0.000618	6.182632	2.094732	-0.000248
 978	9.7212e+01	1.0604	18.039941	0.000527	5.270440	1.785673	-0.000211
 979	9.7311e+01	1.0283	17.789639	0.000628	6.283986	2.129072	-0.000252
 980	9.7410e+01	0.9898	17.535299	0.000639	6.385341	2.163412	-0.000256
 981	9.7510e+01	0.9433	17.297108	0.000598	5.979922	2.026053	-0.000239
 982	9.7609e+01	0.9048	17.075066	0.000557	5.574504	1.888693	-0.000223
 983	9.7709e+01	0.8679	16.800540	0.000689	6.892114	2.335111	-0.000276
 984	9.7808e+01	0.8342	16.586572	0.000537	5.371795	1.820013	-0.000215
 985	9.7908e+01	0.7829	16.332233	0.000639	6.385341	2.163412	-0.000256
 986	9.8007e+01	0.7428	16.090004	0.000608	6.081277	2.060392	-0.000243
 987	9.8107e+01	0.7075	15.851813	0.000598	5.979922	2.026053	-0.000239
 988	9.8207e+01	0.6754	15.645920	0.000517	5.169085	1.751334	-0.000207
 989	9.8306e+01	0.6289	15.395617	0.000628	6.283986	2.129072	-0.000252
 990	9.8406e+01	0.5823	15.201835	0.000487	4.865022	1.648314	-0.000195
 991	9.8505e+01	0.5390	14.907124	0.000740	7.398887	2.506811	-0.000296
 992	9.8605e+01	0.5101	14.648747	0.000649	6.486695	2.197752	-0.000260
 993	9.8704e+01	0.4732	14.450927	0.000497	4.966376	1.682654	-0.000199
 994	9.8803e+01	0.4283	14.188514	0.000659	6.588050	2.232092	-0.000264
 995	9.8903e+01	0.3850	13.934174	0.000639	6.385341	2.163412	-0.000256
 996	9.9002e+01	0.3417	13.736354	0.000497	4.966376	1.682654	-0.000199
 997	9.9102e+01	0.3144	13.465866	0.000679	6.790759	2.300772	-0.000272
 998	9.9201e+01	0.2743	13.211527	0.000639	6.385341	2.163412	-0.000256
 999	9.9301e+01	0.2374	12.957187	0.000639	6.385341	2.163412	-0.000256
1000	9.9400e+01	0.1925	12.731108	0.000568	5.675858	1.923033	-0.000227
1001	9.9500e+01	0.1460	12.488879	0.000608	6.081277	2.060392	-0.000243
1002	9.9600e+01	0.1155	12.194168	0.000740	7.398887	2.506811	-0.000296
1003	9.9699e+01	0.0626	11.955977	0.000598	5.979922	2.026053	-0.000239
1004	9.9799e+01	0.0369	11.733935	0.000557	5.574504	1.888693	-0.000223
1005	9.9898e+01	-0.0032	11.499781	0.000588	5.878568	1.991713	-0.000235
1006	9.9998e+01	-0.0369	11.261590	0.000598	5.979922	2.026053	-0.000239
1007	1.0010e+02	-0.0754	11.011288	0.000628	6.283986	2.129072	-0.000252
1008	1.0020e+02	-0.1155	10.773097	0.000598	5.979922	2.026053	-0.000239
1009	1.0030e+02	-0.1604	10.551054	0.000557	5.574504	1.888693	-0.000223
1010	1.0040e+02	-0.1877	10.316900	0.000588	5.878568	1.991713	-0.000235
1011	1.0050e+02	-0.2390	10.054487	0.000659	6.588050	2.232092	-0.000264
1012	1.0059e+02	-0.2823	9.804184	0.000628	6.283986	2.129072	-0.000252
1013	1.0069e+02	-0.3208	9.553882	0.000628	6.283986	2.129072	-0.000252
1014	1.0079e+02	-0.3529	9.267245	0.000720	7.196178	2.438131	-0.000288
1015	1.0089e+02	-0.3882	9.069425	0.000497	4.966376	1.682654	-0.000199
1016	1.0099e+02	-0.4331	8.815086	0.000639	6.385341	2.163412	-0.000256
1017	1.0109e+02	-0.4716	8.572858	0.000608	6.081277	2.060392	-0.000243
1018	1.0119e+02	-0.5182	8.274110	0.000750	7.500242	2.541151	-0.000300
1019	1.0129e+02	-0.5535	8.052067	0.000557	5.574504	1.888693	-0.000223
1020	1.0139e+02	-0.5952	7.765431	0.000720	7.196178	2.438131	-0.000288
1021	1.0149e+02	-0.6369	7.547425	0.000547	5.473149	1.854353	-0.000219
1022	1.0159e+02	-0.6818	7.289049	0.000649	6.486695	2.197752	-0.000260
1023	1.0169e+02	-0.7155	7.071043	0.000547	5.473149	1.854353	-0.000219
1024	1.0179e+02	-0.7572	6.820741	0.000628	6.283986	2.129072	-0.000252
1025	1.0189e+02	-0.7957	6.526030	0.000740	7.398887	2.506811	-0.000296
1026	1.0199e+02	-0.8278	6.283802	0.000608	6.081277	2.060392	-0.000243
1027	1.0209e+02	-0.8711	6.013314	0.000679	6.790759	2.300772	-0.000272
1028	1.0219e+02	-0.9096	5.775123	0.000598	5.979922	2.026053	-0.000239
1029	1.0229e+02	-0.9529	5.504635	0.000679	6.790759	2.300772	-0.000272
1030	1.0239e+02	-0.9962	5.242221	0.000659	6.588050	2.232092	-0.000264
1031	1.0248e+02	-1.0476	5.016141	0.000568	5.675858	1.923033	-0.000227
1032	1.0258e+02	-1.0764	4.765839	0.000628	6.283986	2.129072	-0.000252
1033	1.0268e+02	-1.1182	4.499388	0.000669	6.689405	2.266432	-0.000268
1034	1.0278e+02	-1.1534	4.220825	0.000699	6.993468	2.369451	-0.000280
1035	1.0288e+02	-1.2016	3.982634	0.000598	5.979922	2.026053	-0.000239
1036	1.0298e+02	-1.2353	3.708109	0.000689	6.892114	2.335111	-0.000276
1037	1.0308e+02	-1.2754	3.482030	0.000568	5.675858	1.923033	-0.000227
1038	1.0318e+02	-1.3139	3.179244	0.000760	7.601596	2.575490	-0.000304
1039	1.0328e+02	-1.3588	2.973350	0.000517	5.169085	1.751334	-0.000207
1040	1.0338e+02	-1.3893	2.714974	0.000649	6.486695	2.197752	-0.000260
1041	1.0348e+02	-1.4326	2.444486	0.000679	6.790759	2.300772	-0.000272
1042	1.0358e+02	-1.4759	2.165923	0.000699	6.993468	2.369451	-0.000280
1043	1.0368e+02	-1.5224	1.964067	0.000507	5.067731	1.716994	-0.000203
1044	1.0378e+02	-1.5577	1.681467	0.000709	7.094823	2.403791	-0.000284
1045	1.0388e+02	-1.5898	1.507870	0.000436	4.358248	1.476615	-0.000174
1046	1.0398e+02	-1.6315	1.188936	0.000801	8.007015	2.712850	-0.000321
1047	1.0408e+02	-1.6732	0.942671	0.000618	6.182632	2.094732	-0.000248
1048	1.0418e+02	-1.7117	0.680257	0.000659	6.588050	2.232092	-0.000264
1049	1.0428e+02	-1.7518	0.458215	0.000557	5.574504	1.888693	-0.000223
1050	1.0438e+02	-1.7871	0.248284	0.000527	5.270440	1.785673	-0.000211
1051	1.0447e+02	-1.8368	-0.058538	0.000770	7.702951	2.609830	-0.000308
1052	1.0457e+02	-1.8770	-0.320952	0.000659	6.588050	2.232092	-0.000264
1053	1.0467e+02	-1.9138	-0.575292	0.000639	6.385341	2.163412	-0.000256
1054	1.0477e+02	-1.9507	-0.793297	0.000547	5.473149	1.854353	-0.000219
1055	1.0487e+02	-1.9989	-1.039562	0.000618	6.182632	2.094732	-0.000248
1056	1.0497e+02	-2.0310	-1.289865	0.000628	6.283986	2.129072	-0.000252
1057	1.0507e+02	-2.0695	-1.524019	0.000588	5.878568	1.991713	-0.000235
1058	1.0517e+02	-2.1096	-1.810655	0.000720	7.196178	2.438131	-0.000288
1059	1.0527e+02	-2.1561	-2.052884	0.000608	6.081277	2.060392	-0.000243
1060	1.0537e+02	-2.1946	-2.327409	0.000689	6.892114	2.335111	-0.000276
1061	1.0547e+02	-2.2379	-2.545414	0.000547	5.473149	1.854353	-0.000219
1062	1.0557e+02	-2.2732	-2.832051	0.000720	7.196178	2.438131	-0.000288
1063	1.0567e+02	-2.3053	-3.029870	0.000497	4.966376	1.682654	-0.000199
1064	1.0577e+02	-2.3566	-3.336693	0.000770	7.702951	2.609830	-0.000308
1065	1.0587e+02	-2.3887	-3.550661	0.000537	5.371795	1.820013	-0.000215
1066	1.0597e+02	-2.4352	-3.821149	0.000679	6.790759	2.300772	-0.000272
1067	1.0607e+02	-2.4689	-4.059340	0.000598	5.979922	2.026053	-0.000239
1068	1.0617e+02	-2.5058	-4.293494	0.000588	5.878568	1.991713	-0.000235
1069	1.0627e+02	-2.5555	-4.555908	0.000659	6.588050	2.232092	-0.000264
1070	1.0637e+02	-2.5956	-4.830433	0.000689	6.892114	2.335111	-0.000276
1071	1.0647e+02	-2.6309	-5.012104	0.000456	4.560958	1.545294	-0.000183
1072	1.0656e+02	-2.6646	-5.294704	0.000709	7.094823	2.403791	-0.000284
1073	1.0666e+02	-2.7128	-5.585377	0.000730	7.297532	2.472471	-0.000292
1074	1.0676e+02	-2.7448	-5.787234	0.000507	5.067731	1.716994	-0.000203
1075	1.0686e+02	-2.7946	-6.017351	0.000578	5.777213	1.957373	-0.000231
1076	1.0696e+02	-2.8234	-6.263616	0.000618	6.182632	2.094732	-0.000248
1077	1.0706e+02	-2.8684	-6.509881	0.000618	6.182632	2.094732	-0.000248
1078	1.0716e+02	-2.9069	-6.748072	0.000598	5.979922	2.026053	-0.000239
1079	1.0726e+02	-2.9470	-7.006449	0.000649	6.486695	2.197752	-0.000260
1080	1.0736e+02	-2.9935	-7.228492	0.000557	5.574504	1.888693	-0.000223
1081	1.0746e+02	-3.0224	-7.470720	0.000608	6.081277	2.060392	-0.000243
1082	1.0756e+02	-3.0817	-7.708911	0.000598	5.979922	2.026053	-0.000239
1083	1.0766e+02	-3.1170	-7.983436	0.000689	6.892114	2.335111	-0.000276
1084	1.0776e+02	-3.1491	-8.173181	0.000476	4.763667	1.613974	-0.000191
1085	1.0786e+02	-3.1988	-8.427521	0.000639	6.385341	2.163412	-0.000256
1086	1.0796e+02	-3.2261	-8.649563	0.000557	5.574504	1.888693	-0.000223
1087	1.0806e+02	-3.2726	-8.907940	0.000649	6.486695	2.197752	-0.000260
1088	1.0816e+02	-3.3159	-9.174391	0.000669	6.689405	2.266432	-0.000268
1089	1.0826e+02	-3.3368	-9.376248	0.000507	5.067731	1.716994	-0.000203
1090	1.0836e+02	-3.3962	-9.594253	0.000547	5.473149	1.854353	-0.000219
1091	1.0845e+02	-3.4266	-9.848593	0.000639	6.385341	2.163412	-0.000256
1092	1.0855e+02	-3.4619	-10.094858	0.000618	6.182632	2.094732	-0.000248
1093	1.0865e+02	-3.5117	-10.312863	0.000547	5.473149	1.854353	-0.000219
1094	1.0875e+02	-3.5502	-10.575277	0.000659	6.588050	2.232092	-0.000264
1095	1.0885e+02	-3.5983	-10.805394	0.000578	5.777213	1.957373	-0.000231
1096	1.0895e+02	-3.6288	-11.031473	0.000568	5.675858	1.923033	-0.000227
1097	1.0905e+02	-3.6609	-11.289850	0.000649	6.486695	2.197752	-0.000260
1098	1.0915e+02	-3.7026	-11.479595	0.000476	4.763667	1.613974	-0.000191
1099	1.0925e+02	-3.7475	-11.709712	0.000578	5.777213	1.957373	-0.000231
1100	1.0935e+02	-3.7764	-12.000386	0.000730	7.297532	2.472471	-0.000292
1101	1.0945e+02	-3.8293	-12.234540	0.000588	5.878568	1.991713	-0.000235
1102	1.0955e+02	-3.8598	-12.404100	0.000426	4.256894	1.442275	-0.000170
1103	1.0965e+02	-3.9079	-12.646328	0.000608	6.081277	2.060392	-0.000243
1104	1.0975e+02	-3.9480	-12.912779	0.000669	6.689405	2.266432	-0.000268
1105	1.0985e+02	-3.9849	-13.098487	0.000466	4.662312	1.579634	-0.000187
1106	1.0995e+02	-4.0282	-13.368975	0.000679	6.790759	2.300772	-0.000272
1107	1.1005e+02	-4.0651	-13.574869	0.000517	5.169085	1.751334	-0.000207
1108	1.1015e+02	-4.1004	-13.788837	0.000537	5.371795	1.820013	-0.000215
1109	1.1025e+02	-4.1485	-14.063362	0.000689	6.892114	2.335111	-0.000276
1110	1.1035e+02	-4.1806	-14.281368	0.000547	5.473149	1.854353	-0.000219
1111	1.1044e+02	-4.2255	-14.495336	0.000537	5.371795	1.820013	-0.000215
1112	1.1054e+02	-4.2689	-14.701230	0.000517	5.169085	1.751334	-0.000207
1113	1.1064e+02	-4.3090	-14.915198	0.000537	5.371795	1.820013	-0.000215
1114	1.1074e+02	-4.3475	-15.161463	0.000618	6.182632	2.094732	-0.000248
1115	1.1084e+02	-4.3828	-15.395617	0.000588	5.878568	1.991713	-0.000235
1116	1.1094e+02	-4.4197	-15.605548	0.000527	5.270440	1.785673	-0.000211
1117	1.1104e+02	-4.4710	-15.827591	0.000557	5.574504	1.888693	-0.000223
1118	1.1114e+02	-4.5015	-16.073856	0.000618	6.182632	2.094732	-0.000248
1119	1.1124e+02	-4.5496	-16.291861	0.000547	5.473149	1.854353	-0.000219
1120	1.1134e+02	-4.5817	-16.485644	0.000487	4.865022	1.648314	-0.000195
1121	1.1144e+02	-4.6218	-16.691538	0.000517	5.169085	1.751334	-0.000207
1122	1.1154e+02	-4.6619	-16.933766	0.000608	6.081277	2.060392	-0.000243
1123	1.1164e+02	-4.6940	-17.159845	0.000568	5.675858	1.923033	-0.000227
1124	1.1174e+02	-4.7437	-17.410148	0.000628	6.283986	2.129072	-0.000252
1125	1.1184e+02	-4.7726	-17.595856	0.000466	4.662312	1.579634	-0.000187
1126	1.1194e+02	-4.8111	-17.874418	0.000699	6.993468	2.369451	-0.000280
1127	1.1204e+02	-4.8608	-18.048015	0.000436	4.358248	1.476615	-0.000174
1128	1.1214e+02	-4.9041	-18.274095	0.000568	5.675858	1.923033	-0.000227
1129	1.1224e+02	-4.9330	-18.484026	0.000527	5.270440	1.785673	-0.000211
1130	1.1234e+02	-4.9747	-18.693957	0.000527	5.270440	1.785673	-0.000211
1131	1.1244e+02	-5.0132	-18.948297	0.000639	6.385341	2.163412	-0.000256
1132	1.1253e+02	-5.0646	-19.174376	0.000568	5.675858	1.923033	-0.000227
1133	1.1263e+02	-5.0950	-19.396419	0.000557	5.574504	1.888693	-0.000223
1134	1.1273e+02	-5.1384	-19.578090	0.000456	4.560958	1.545294	-0.000183
1135	1.1283e+02	-5.1881	-19.836466	0.000649	6.486695	2.197752	-0.000260
1136	1.1293e+02	-5.2234	-20.062546	0.000568	5.675858	1.923033	-0.000227
1137	1.1303e+02	-5.2667	-20.280551	0.000547	5.473149	1.854353	-0.000219
1138	1.1313e+02	-5.3004	-20.474334	0.000487	4.865022	1.648314	-0.000195
1139	1.1323e+02	-5.3421	-20.656005	0.000456	4.560958	1.545294	-0.000183
1140	1.1333e+02	-5.3726	-20.898233	0.000608	6.081277	2.060392	-0.000243
1141	1.1343e+02	-5.4143	-21.180833	0.000709	7.094823	2.403791	-0.000284
1142	1.1353e+02	-5.4624	-21.330207	0.000375	3.750121	1.270575	-0.000150
1143	1.1363e+02	-5.4993	-21.536101	0.000517	5.169085	1.751334	-0.000207
1144	1.1373e+02	-5.5282	-21.782366	0.000618	6.182632	2.094732	-0.000248
1145	1.1383e+02	-5.5827	-21.976148	0.000487	4.865022	1.648314	-0.000195
1146	1.1393e+02	-5.6164	-22.161857	0.000466	4.662312	1.579634	-0.000187
1147	1.1403e+02	-5.6549	-22.408122	0.000618	6.182632	2.094732	-0.000248
1148	1.1413e+02	-5.7030	-22.609979	0.000507	5.067731	1.716994	-0.000203
1149	1.1423e+02	-5.7399	-22.860281	0.000628	6.283986	2.129072	-0.000252
1150	1.1433e+02	-5.7736	-23.013692	0.000385	3.851475	1.304915	-0.000154
1151	1.1442e+02	-5.8250	-23.203438	0.000476	4.763667	1.613974	-0.000191
1152	1.1452e+02	-5.8635	-23.469889	0.000669	6.689405	2.266432	-0.000268
1153	1.1462e+02	-5.8956	-23.655597	0.000466	4.662312	1.579634	-0.000187
1154	1.1472e+02	-5.9325	-23.869565	0.000537	5.371795	1.820013	-0.000215
1155	1.1482e+02	-5.9790	-24.107756	0.000598	5.979922	2.026053	-0.000239
1156	1.1492e+02	-6.0191	-24.297501	0.000476	4.763667	1.613974	-0.000191
1157	1.1502e+02	-6.0608	-24.491284	0.000487	4.865022	1.648314	-0.000195
1158	1.1512e+02	-6.1025	-24.741586	0.000628	6.283986	2.129072	-0.000252
1159	1.1522e+02	-6.1314	-24.894998	0.000385	3.851475	1.304915	-0.000154
1160	1.1532e+02	-6.1747	-25.121077	0.000568	5.675858	1.923033	-0.000227
1161	1.1542e+02	-6.2164	-25.343120	0.000557	5.574504	1.888693	-0.000223
1162	1.1552e+02	-6.2645	-25.549014	0.000517	5.169085	1.751334	-0.000207
1163	1.1562e+02	-6.2966	-25.754907	0.000517	5.169085	1.751334	-0.000207
1164	1.1572e+02	-6.3415	-25.960801	0.000517	5.169085	1.751334	-0.000207
1165	1.1582e+02	-6.3832	-26.162658	0.000507	5.067731	1.716994	-0.000203
1166	1.1592e+02	-6.4153	-26.376626	0.000537	5.371795	1.820013	-0.000215
1167	1.1602e+02	-6.4506	-26.578483	0.000507	5.067731	1.716994	-0.000203
1168	1.1612e+02	-6.5020	-26.780340	0.000507	5.067731	1.716994	-0.000203
1169	1.1622e+02	-6.5324	-26.966048	0.000466	4.662312	1.579634	-0.000187
1170	1.1632e+02	-6.5854	-27.192128	0.000568	5.675858	1.923033	-0.000227
1171	1.1642e+02	-6.6046	-27.393985	0.000507	5.067731	1.716994	-0.000203
1172	1.1651e+02	-6.6431	-27.607953	0.000537	5.371795	1.820013	-0.000215
1173	1.1661e+02	-6.6864	-27.809810	0.000507	5.067731	1.716994	-0.000203
1174	1.1671e+02	-6.7298	-27.991481	0.000456	4.560958	1.545294	-0.000183
1175	1.1681e+02	-6.7715	-28.181226	0.000476	4.763667	1.613974	-0.000191
1176	1.1691e+02	-6.8068	-28.395194	0.000537	5.371795	1.820013	-0.000215
1177	1.1701e+02	-6.8549	-28.605125	0.000527	5.270440	1.785673	-0.000211
1178	1.1711e+02	-6.8886	-28.786796	0.000456	4.560958	1.545294	-0.000183
1179	1.1721e+02	-6.9287	-29.008839	0.000557	5.574504	1.888693	-0.000223
1180	1.1731e+02	-6.9624	-29.226844	0.000547	5.473149	1.854353	-0.000219
1181	1.1741e+02	-7.0057	-29.436775	0.000527	5.270440	1.785673	-0.000211
1182	1.1751e+02	-7.0490	-29.626521	0.000476	4.763667	1.613974	-0.000191
1183	1.1761e+02	-7.0891	-29.848563	0.000557	5.574504	1.888693	-0.000223
1184	1.1771e+02	-7.1388	-30.038308	0.000476	4.763667	1.613974	-0.000191
1185	1.1781e+02	-7.1757	-30.191720	0.000385	3.851475	1.304915	-0.000154
1186	1.1791e+02	-7.2174	-30.413762	0.000557	5.574504	1.888693	-0.000223
1187	1.1801e+02	-7.2479	-30.635805	0.000557	5.574504	1.888693	-0.000223
1188	1.1811e+02	-7.2912	-30.845736	0.000527	5.270440	1.785673	-0.000211
1189	1.1821e+02	-7.3410	-31.059704	0.000537	5.371795	1.820013	-0.000215
1190	1.1831e+02	-7.3682	-31.249449	0.000476	4.763667	1.613974	-0.000191
1191	1.1841e+02	-7.4083	-31.451306	0.000507	5.067731	1.716994	-0.000203
1192	1.1850e+02	-7.4485	-31.628940	0.000446	4.459603	1.510954	-0.000179
1193	1.1860e+02	-7.4886	-31.855020	0.000568	5.675858	1.923033	-0.000227
1194	1.1870e+02	-7.5287	-32.036691	0.000456	4.560958	1.545294	-0.000183
1195	1.1880e+02	-7.5624	-32.270845	0.000588	5.878568	1.991713	-0.000235
1196	1.1890e+02	-7.6137	-32.428293	0.000395	3.952830	1.339255	-0.000158
1197	1.1900e+02	-7.6538	-32.618038	0.000476	4.763667	1.613974	-0.000191
1198	1.1910e+02	-7.6907	-32.799709	0.000456	4.560958	1.545294	-0.000183
1199	1.1920e+02	-7.7276	-33.050012	0.000628	6.283986	2.129072	-0.000252
1200	1.1930e+02	-7.7629	-33.215534	0.000416	4.155539	1.407935	-0.000166
1201	1.1940e+02	-7.8126	-33.413354	0.000497	4.966376	1.682654	-0.000199
1202	1.1950e+02	-7.8447	-33.595025	0.000456	4.560958	1.545294	-0.000183
1203	1.1960e+02	-7.8848	-33.833216	0.000598	5.979922	2.026053	-0.000239
1204	1.1970e+02	-7.9329	-34.039110	0.000517	5.169085	1.751334	-0.000207
1205	1.1980e+02	-7.9602	-34.204633	0.000416	4.155539	1.407935	-0.000166
1206	1.1990e+02	-8.0099	-34.390341	0.000466	4.662312	1.579634	-0.000187
1207	1.2000e+02	-8.0452	-34.580086	0.000476	4.763667	1.613974	-0.000191
1208	1.2010e+02	-8.0885	-34.830389	0.000628	6.283986	2.129072	-0.000252
1209	1.2020e+02	-8.1190	-35.008023	0.000446	4.459603	1.510954	-0.000179
1210	1.2030e+02	-8.1623	-35.165471	0.000395	3.952830	1.339255	-0.000158
1211	1.2039e+02	-8.1992	-35.387513	0.000557	5.574504	1.888693	-0.000223
1212	1.2049e+02	-8.2554	-35.540924	0.000385	3.851475	1.304915	-0.000154
1213	1.2059e+02	-8.2859	-35.787190	0.000618	6.182632	2.094732	-0.000248
1214	1.2069e+02	-8.3244	-35.924452	0.000345	3.446057	1.167556	-0.000138
1215	1.2079e+02	-8.3709	-36.138421	0.000537	5.371795	1.820013	-0.000215
1216	1.2089e+02	-8.4030	-36.356426	0.000547	5.473149	1.854353	-0.000219
1217	1.2099e+02	-8.4511	-36.517911	0.000405	4.054185	1.373595	-0.000162
1218	1.2109e+02	-8.4816	-36.723805	0.000517	5.169085	1.751334	-0.000207
1219	1.2119e+02	-8.5233	-36.893365	0.000426	4.256894	1.442275	-0.000170
1220	1.2129e+02	-8.5682	-37.087147	0.000487	4.865022	1.648314	-0.000195
1221	1.2139e+02	-8.6067	-37.293041	0.000517	5.169085	1.751334	-0.000207
1222	1.2149e+02	-8.6468	-37.430304	0.000345	3.446057	1.167556	-0.000138
1223	1.2159e+02	-8.6853	-37.660421	0.000578	5.777213	1.957373	-0.000231
1224	1.2169e+02	-8.7190	-37.858240	0.000497	4.966376	1.682654	-0.000199
1225	1.2179e+02	-8.7559	-38.080283	0.000557	5.574504	1.888693	-0.000223
1226	1.2189e+02	-8.8024	-38.221583	0.000355	3.547412	1.201896	-0.000142
1227	1.2199e+02	-8.8377	-38.411328	0.000476	4.763667	1.613974	-0.000191
1228	1.2209e+02	-8.8874	-38.609148	0.000497	4.966376	1.682654	-0.000199
1229	1.2219e+02	-8.9260	-38.831190	0.000557	5.574504	1.888693	-0.000223
1230	1.2229e+02	-8.9628	-38.980564	0.000375	3.750121	1.270575	-0.000150
1231	1.2239e+02	-9.0014	-39.158198	0.000446	4.459603	1.510954	-0.000179
1232	1.2248e+02	-9.0479	-39.351981	0.000487	4.865022	1.648314	-0.000195
1233	1.2258e+02	-9.0832	-39.561912	0.000527	5.270440	1.785673	-0.000211
1234	1.2268e+02	-9.1265	-39.695137	0.000334	3.344702	1.133216	-0.000134
1235	1.2278e+02	-9.1714	-39.844511	0.000375	3.750121	1.270575	-0.000150
1236	1.2288e+02	-9.2035	-40.086739	0.000608	6.081277	2.060392	-0.000243
1237	1.2298e+02	-9.2468	-40.272448	0.000466	4.662312	1.579634	-0.000187
1238	1.2308e+02	-9.2789	-40.454119	0.000456	4.560958	1.545294	-0.000183
1239	1.2318e+02	-9.3222	-40.643864	0.000476	4.763667	1.613974	-0.000191
1240	1.2328e+02	-9.3671	-40.837647	0.000487	4.865022	1.648314	-0.000195
1241	1.2338e+02	-9.4088	-40.987021	0.000375	3.750121	1.270575	-0.000150
1242	1.2348e+02	-9.4425	-41.188877	0.000507	5.067731	1.716994	-0.000203
1243	1.2358e+02	-9.4858	-41.390734	0.000507	5.067731	1.716994	-0.000203
1244	1.2368e+02	-9.5243	-41.544145	0.000385	3.851475	1.304915	-0.000154
1245	1.2378e+02	-9.5628	-41.774262	0.000578	5.777213	1.957373	-0.000231
1246	1.2388e+02	-9.6045	-41.895376	0.000304	3.040638	1.030196	-0.000122
1247	1.2398e+02	-9.6414	-42.109344	0.000537	5.371795	1.820013	-0.000215
1248	1.2408e+02	-9.6767	-42.278904	0.000426	4.256894	1.442275	-0.000170
1249	1.2418e+02	-9.7249	-42.448464	0.000426	4.256894	1.442275	-0.000170
1250	1.2428e+02	-9.7537	-42.650321	0.000507	5.067731	1.716994	-0.000203
1251	1.2438e+02	-9.8035	-42.844103	0.000487	4.865022	1.648314	-0.000195
1252	1.2447e+02	-9.8388	-43.013663	0.000426	4.256894	1.442275	-0.000170
1253	1.2457e+02	-9.8773	-43.187260	0.000436	4.358248	1.476615	-0.000174
1254	1.2467e+02	-9.9158	-43.316448	0.000324	3.243348	1.098876	-0.000130
1255	1.2477e+02	-9.9575	-43.530416	0.000537	5.371795	1.820013	-0.000215
1256	1.2487e+02	-10.0056	-43.716124	0.000466	4.662312	1.579634	-0.000187
1257	1.2497e+02	-10.0441	-43.853387	0.000345	3.446057	1.167556	-0.000138
1258	1.2507e+02	-10.0826	-44.079467	0.000568	5.675858	1.923033	-0.000227
1259	1.2517e+02	-10.1115	-44.244989	0.000416	4.155539	1.407935	-0.000166
1260	1.2527e+02	-10.1532	-44.438772	0.000487	4.865022	1.648314	-0.000195
1261	1.2537e+02	-10.1997	-44.543737	0.000264	2.635220	0.892837	-0.000105
1262	1.2547e+02	-10.2446	-44.741557	0.000497	4.966376	1.682654	-0.000199
1263	1.2557e+02	-10.2815	-44.903042	0.000405	4.054185	1.373595	-0.000162
1264	1.2567e+02	-10.3184	-45.112973	0.000527	5.270440	1.785673	-0.000211
1265	1.2577e+02	-10.3633	-45.270422	0.000395	3.952830	1.339255	-0.000158
1266	1.2587e+02	-10.4051	-45.444018	0.000436	4.358248	1.476615	-0.000174
1267	1.2597e+02	-10.4420	-45.601467	0.000395	3.952830	1.339255	-0.000158
1268	1.2607e+02	-10.4837	-45.827546	0.000568	5.675858	1.923033	-0.000227
1269	1.2617e+02	-10.5125	-45.952698	0.000314	3.141993	1.064536	-0.000126
1270	1.2627e+02	-10.5559	-46.110146	0.000395	3.952830	1.339255	-0.000158
1271	1.2636e+02	-10.5944	-46.299891	0.000476	4.763667	1.613974	-0.000191
1272	1.2646e+02	-10.6393	-46.530008	0.000578	5.777213	1.957373	-0.000231
1273	1.2656e+02	-10.6746	-46.634973	0.000264	2.635220	0.892837	-0.000105
1274	1.2666e+02	-10.7147	-46.832793	0.000497	4.966376	1.682654	-0.000199
1275	1.2676e+02	-10.7676	-46.990241	0.000395	3.952830	1.339255	-0.000158
1276	1.2686e+02	-10.7917	-47.171913	0.000456	4.560958	1.545294	-0.000183
1277	1.2696e+02	-10.8382	-47.341472	0.000426	4.256894	1.442275	-0.000170
1278	1.2706e+02	-10.8751	-47.506995	0.000416	4.155539	1.407935	-0.000166
1279	1.2716e+02	-10.9072	-47.672517	0.000416	4.155539	1.407935	-0.000166
1280	1.2726e+02	-10.9569	-47.862263	0.000476	4.763667	1.613974	-0.000191
1281	1.2736e+02	-11.0018	-47.991451	0.000324	3.243348	1.098876	-0.000130
1282	1.2746e+02	-11.0371	-48.152937	0.000405	4.054185	1.373595	-0.000162
1283	1.2756e+02	-11.0772	-48.346719	0.000487	4.865022	1.648314	-0.000195
1284	1.2766e+02	-11.1173	-48.536464	0.000476	4.763667	1.613974	-0.000191
1285	1.2776e+02	-11.1606	-48.685838	0.000375	3.750121	1.270575	-0.000150
1286	1.2786e+02	-11.1959	-48.835212	0.000375	3.750121	1.270575	-0.000150
1287	1.2796e+02	-11.2312	-49.037069	0.000507	5.067731	1.716994	-0.000203
1288	1.2806e+02	-11.2713	-49.133960	0.000243	2.432511	0.824157	-0.000097
1289	1.2816e+02	-11.3147	-49.351966	0.000547	5.473149	1.854353	-0.000219
1290	1.2826e+02	-11.3483	-49.505377	0.000385	3.851475	1.304915	-0.000154
1291	1.2835e+02	-11.3933	-49.695122	0.000476	4.763667	1.613974	-0.000191
1292	1.2845e+02	-11.4334	-49.836422	0.000355	3.547412	1.201896	-0.000142
1293	1.2855e+02	-11.4751	-50.038279	0.000507	5.067731	1.716994	-0.000203
1294	1.2865e+02	-11.5136	-50.171504	0.000334	3.344702	1.133216	-0.000134
1295	1.2875e+02	-11.5473	-50.337027	0.000416	4.155539	1.407935	-0.000166
1296	1.2885e+02	-11.5890	-50.486401	0.000375	3.750121	1.270575	-0.000150
1297	1.2895e+02	-11.6307	-50.643849	0.000395	3.952830	1.339255	-0.000158
1298	1.2905e+02	-11.6708	-50.853780	0.000527	5.270440	1.785673	-0.000211
1299	1.2915e+02	-11.7125	-51.023340	0.000426	4.256894	1.442275	-0.000170
1300	1.2925e+02	-11.7510	-51.180788	0.000395	3.952830	1.339255	-0.000158
1301	1.2935e+02	-11.7911	-51.366497	0.000466	4.662312	1.579634	-0.000187
1302	1.2945e+02	-11.8408	-51.483573	0.000294	2.939284	0.995856	-0.000118
1303	1.2955e+02	-11.8777	-51.661207	0.000446	4.459603	1.510954	-0.000179
1304	1.2965e+02	-11.9114	-51.818656	0.000395	3.952830	1.339255	-0.000158
1305	1.2975e+02	-11.9531	-52.000327	0.000456	4.560958	1.545294	-0.000183
1306	1.2985e+02	-11.9884	-52.149701	0.000375	3.750121	1.270575	-0.000150
1307	1.2995e+02	-12.0398	-52.355595	0.000517	5.169085	1.751334	-0.000207
1308	1.3005e+02	-12.0783	-52.517080	0.000405	4.054185	1.373595	-0.000162
1309	1.3015e+02	-12.1136	-52.658380	0.000355	3.547412	1.201896	-0.000142
1310	1.3025e+02	-12.1553	-52.848125	0.000476	4.763667	1.613974	-0.000191
1311	1.3034e+02	-12.1825	-53.029796	0.000456	4.560958	1.545294	-0.000183
1312	1.3044e+02	-12.2226	-53.158985	0.000324	3.243348	1.098876	-0.000130
1313	1.3054e+02	-12.2708	-53.296247	0.000345	3.446057	1.167556	-0.000138
1314	1.3064e+02	-12.3157	-53.485993	0.000476	4.763667	1.613974	-0.000191
1315	1.3074e+02	-12.3558	-53.647478	0.000405	4.054185	1.373595	-0.000162
1316	1.3084e+02	-12.3911	-53.825112	0.000446	4.459603	1.510954	-0.000179
1317	1.3094e+02	-12.4328	-54.022932	0.000497	4.966376	1.682654	-0.000199
1318	1.3104e+02	-12.4761	-54.152120	0.000324	3.243348	1.098876	-0.000130
1319	1.3114e+02	-12.5098	-54.317643	0.000416	4.155539	1.407935	-0.000166
1320	1.3124e+02	-12.5531	-54.487202	0.000426	4.256894	1.442275	-0.000170
1321	1.3134e+02	-12.5916	-54.584094	0.000243	2.432511	0.824157	-0.000097
1322	1.3144e+02	-12.6269	-54.846508	0.000659	6.588050	2.232092	-0.000264
1323	1.3154e+02	-12.6718	-54.979733	0.000334	3.344702	1.133216	-0.000134
1324	1.3164e+02	-12.7087	-55.193701	0.000537	5.371795	1.820013	-0.000215
1325	1.3174e+02	-12.7520	-55.314815	0.000304	3.040638	1.030196	-0.000122
1326	1.3184e+02	-12.7954	-55.444004	0.000324	3.243348	1.098876	-0.000130
1327	1.3194e+02	-12.8290	-55.597415	0.000385	3.851475	1.304915	-0.000154
1328	1.3204e+02	-12.8643	-55.783123	0.000466	4.662312	1.579634	-0.000187
1329	1.3214e+02	-12.9157	-55.952683	0.000426	4.256894	1.442275	-0.000170
1330	1.3224e+02	-12.9542	-56.114168	0.000405	4.054185	1.373595	-0.000162
1331	1.3234e+02	-12.9782	-56.267579	0.000385	3.851475	1.304915	-0.000154
1332	1.3243e+02	-13.0312	-56.441176	0.000436	4.358248	1.476615	-0.000174
1333	1.3253e+02	-13.0665	-56.602662	0.000405	4.054185	1.373595	-0.000162
1334	1.3263e+02	-13.1018	-56.784333	0.000456	4.560958	1.545294	-0.000183
1335	1.3273e+02	-13.1499	-56.941781	0.000395	3.952830	1.339255	-0.000158
1336	1.3283e+02	-13.1932	-57.103266	0.000405	4.054185	1.373595	-0.000162
1337	1.3293e+02	-13.2301	-57.309160	0.000517	5.169085	1.751334	-0.000207
1338	1.3303e+02	-13.2622	-57.406052	0.000243	2.432511	0.824157	-0.000097
1339	1.3313e+02	-13.3151	-57.599834	0.000487	4.865022	1.648314	-0.000195
1340	1.3323e+02	-13.3472	-57.785542	0.000466	4.662312	1.579634	-0.000187
1341	1.3333e+02	-13.3921	-57.934916	0.000375	3.750121	1.270575	-0.000150
1342	1.3343e+02	-13.4226	-58.112550	0.000446	4.459603	1.510954	-0.000179
1343	1.3353e+02	-13.4611	-58.249813	0.000345	3.446057	1.167556	-0.000138
1344	1.3363e+02	-13.5108	-58.411298	0.000405	4.054185	1.373595	-0.000162
1345	1.3373e+02	-13.5445	-58.629304	0.000547	5.473149	1.854353	-0.000219
1346	1.3383e+02	-13.5782	-58.774641	0.000365	3.648766	1.236235	-0.000146
1347	1.3393e+02	-13.6231	-58.928052	0.000385	3.851475	1.304915	-0.000154
1348	1.3403e+02	-13.6633	-59.129909	0.000507	5.067731	1.716994	-0.000203
1349	1.3413e+02	-13.7034	-59.271208	0.000355	3.547412	1.201896	-0.000142
1350	1.3423e+02	-13.7419	-59.456917	0.000466	4.662312	1.579634	-0.000187
1351	1.3432e+02	-13.7804	-59.606291	0.000375	3.750121	1.270575	-0.000150
1352	1.3442e+02	-13.8285	-59.800073	0.000487	4.865022	1.648314	-0.000195
1353	1.3452e+02	-13.8622	-59.933299	0.000334	3.344702	1.133216	-0.000134
1354	1.3462e+02	-13.9055	-60.127081	0.000487	4.865022	1.648314	-0.000195
1355	1.3472e+02	-13.9472	-60.308752	0.000456	4.560958	1.545294	-0.000183
1356	1.3482e+02	-13.9761	-60.458126	0.000375	3.750121	1.270575	-0.000150
1357	1.3492e+02	-14.0242	-60.651909	0.000487	4.865022	1.648314	-0.000195
1358	1.3502e+02	-14.0723	-60.805320	0.000385	3.851475	1.304915	-0.000154
1359	1.3512e+02	-14.0996	-60.942583	0.000345	3.446057	1.167556	-0.000138
1360	1.3522e+02	-14.1429	-61.132328	0.000476	4.763667	1.613974	-0.000191
1361	1.3532e+02	-14.1798	-61.289776	0.000395	3.952830	1.339255	-0.000158
1362	1.3542e+02	-14.2151	-61.471447	0.000456	4.560958	1.545294	-0.000183
1363	1.3552e+02	-14.2632	-61.689453	0.000547	5.473149	1.854353	-0.000219
1364	1.3562e+02	-14.3033	-61.854975	0.000416	4.155539	1.407935	-0.000166
1365	1.3572e+02	-14.3370	-61.992238	0.000345	3.446057	1.167556	-0.000138
1366	1.3582e+02	-14.3819	-62.157760	0.000416	4.155539	1.407935	-0.000166
1367	1.3592e+02	-14.4237	-62.383840	0.000568	5.675858	1.923033	-0.000227
1368	1.3602e+02	-14.4606	-62.521103	0.000345	3.446057	1.167556	-0.000138
1369	1.3612e+02	-14.4991	-62.726997	0.000517	5.169085	1.751334	-0.000207
1370	1.3622e+02	-14.5456	-62.888482	0.000405	4.054185	1.373595	-0.000162
1371	1.3631e+02	-14.5857	-63.062079	0.000436	4.358248	1.476615	-0.000174
1372	1.3641e+02	-14.6210	-63.247787	0.000466	4.662312	1.579634	-0.000187
1373	1.3651e+02	-14.6627	-63.385050	0.000345	3.446057	1.167556	-0.000138
1374	1.3661e+02	-14.7060	-63.590944	0.000517	5.169085	1.751334	-0.000207
1375	1.3671e+02	-14.7349	-63.756466	0.000416	4.155539	1.407935	-0.000166
1376	1.3681e+02	-14.7878	-63.950249	0.000487	4.865022	1.648314	-0.000195
1377	1.3691e+02	-14.8167	-64.131920	0.000456	4.560958	1.545294	-0.000183
1378	1.3701e+02	-14.8520	-64.261108	0.000324	3.243348	1.098876	-0.000130
1379	1.3711e+02	-14.8905	-64.434705	0.000436	4.358248	1.476615	-0.000174
1380	1.3721e+02	-14.9418	-64.648673	0.000537	5.371795	1.820013	-0.000215
1381	1.3731e+02	-14.9787	-64.858604	0.000527	5.270440	1.785673	-0.000211
1382	1.3741e+02	-15.0156	-64.983755	0.000314	3.141993	1.064536	-0.000126
1383	1.3751e+02	-15.0621	-65.209835	0.000568	5.675858	1.923033	-0.000227
1384	1.3761e+02	-15.0942	-65.326912	0.000294	2.939284	0.995856	-0.000118
1385	1.3771e+02	-15.1424	-65.593363	0.000669	6.689405	2.266432	-0.000268
1386	1.3781e+02	-15.1744	-65.710440	0.000294	2.939284	0.995856	-0.000118
1387	1.3791e+02	-15.2242	-65.900185	0.000476	4.763667	1.613974	-0.000191
1388	1.3801e+02	-15.2643	-66.102042	0.000507	5.067731	1.716994	-0.000203
1389	1.3811e+02	-15.3028	-66.271602	0.000426	4.256894	1.442275	-0.000170
1390	1.3821e+02	-15.3445	-66.449236	0.000446	4.459603	1.510954	-0.000179
1391	1.3831e+02	-15.3814	-66.626870	0.000446	4.459603	1.510954	-0.000179
1392	1.3840e+02	-15.4054	-66.820652	0.000487	4.865022	1.648314	-0.000195
1393	1.3850e+02	-15.4488	-67.022509	0.000507	5.067731	1.716994	-0.000203
1394	1.3860e+02	-15.4969	-67.196106	0.000436	4.358248	1.476615	-0.000174
1395	1.3870e+02	-15.5386	-67.393925	0.000497	4.966376	1.682654	-0.000199
1396	1.3880e+02	-15.5883	-67.535225	0.000355	3.547412	1.201896	-0.000142
1397	1.3890e+02	-15.6284	-67.765342	0.000578	5.777213	1.957373	-0.000231
1398	1.3900e+02	-15.6589	-67.951050	0.000466	4.662312	1.579634	-0.000187
1399	1.3910e+02	-15.6958	-68.116573	0.000416	4.155539	1.407935	-0.000166
1400	1.3920e+02	-15.7407	-68.334578	0.000547	5.473149	1.854353	-0.000219
1401	1.3930e+02	-15.7728	-68.524323	0.000476	4.763667	1.613974	-0.000191
1402	1.3940e+02	-15.8225	-68.705995	0.000456	4.560958	1.545294	-0.000183
1403	1.3950e+02	-15.8530	-68.919963	0.000537	5.371795	1.820013	-0.000215
1404	1.3960e+02	-15.8979	-69.097597	0.000446	4.459603	1.510954	-0.000179
1405	1.3970e+02	-15.9332	-69.291379	0.000487	4.865022	1.648314	-0.000195
1406	1.3980e+02	-15.9782	-69.505347	0.000537	5.371795	1.820013	-0.000215
1407	1.3990e+02	-16.0118	-69.674907	0.000426	4.256894	1.442275	-0.000170
1408	1.4000e+02	-16.0616	-69.900987	0.000568	5.675858	1.923033	-0.000227
1409	1.4010e+02	-16.1049	-70.110918	0.000527	5.270440	1.785673	-0.000211
1410	1.4020e+02	-16.1274	-70.276440	0.000416	4.155539	1.407935	-0.000166
1411	1.4029e+02	-16.1675	-70.454074	0.000446	4.459603	1.510954	-0.000179
1412	1.4039e+02	-16.2156	-70.659968	0.000517	5.169085	1.751334	-0.000207
1413	1.4049e+02	-16.2605	-70.849714	0.000476	4.763667	1.613974	-0.000191
1414	1.4059e+02	-16.2926	-71.067719	0.000547	5.473149	1.854353	-0.000219
1415	1.4069e+02	-16.3327	-71.229204	0.000405	4.054185	1.373595	-0.000162
1416	1.4079e+02	-16.3760	-71.427024	0.000497	4.966376	1.682654	-0.000199
1417	1.4089e+02	-16.4097	-71.689438	0.000659	6.588050	2.232092	-0.000264
1418	1.4099e+02	-16.4546	-71.830738	0.000355	3.547412	1.201896	-0.000142
1419	1.4109e+02	-16.4995	-72.012409	0.000456	4.560958	1.545294	-0.000183
1420	1.4119e+02	-16.5284	-72.278860	0.000669	6.689405	2.266432	-0.000268
1421	1.4129e+02	-16.5669	-72.488791	0.000527	5.270440	1.785673	-0.000211
1422	1.4139e+02	-16.6134	-72.731019	0.000608	6.081277	2.060392	-0.000243
1423	1.4149e+02	-16.6503	-72.892504	0.000405	4.054185	1.373595	-0.000162
1424	1.4159e+02	-16.6985	-73.114547	0.000557	5.574504	1.888693	-0.000223
1425	1.4169e+02	-16.7370	-73.304292	0.000476	4.763667	1.613974	-0.000191
1426	1.4179e+02	-16.7787	-73.502112	0.000497	4.966376	1.682654	-0.000199
1427	1.4189e+02	-16.8059	-73.699931	0.000497	4.966376	1.682654	-0.000199
1428	1.4199e+02	-16.8557	-73.913900	0.000537	5.371795	1.820013	-0.000215
1429	1.4209e+02	-16.8958	-74.119794	0.000517	5.169085	1.751334	-0.000207
1430	1.4219e+02	-16.9295	-74.378170	0.000649	6.486695	2.197752	-0.000260
1431	1.4228e+02	-16.9648	-74.580027	0.000507	5.067731	1.716994	-0.000203
1432	1.4238e+02	-17.0177	-74.814181	0.000588	5.878568	1.991713	-0.000235
1433	1.4248e+02	-17.0578	-75.028149	0.000537	5.371795	1.820013	-0.000215
1434	1.4258e+02	-17.0947	-75.217895	0.000476	4.763667	1.613974	-0.000191
1435	1.4268e+02	-17.1316	-75.448011	0.000578	5.777213	1.957373	-0.000231
1436	1.4278e+02	-17.1701	-75.686202	0.000598	5.979922	2.026053	-0.000239
1437	1.4288e+02	-17.2134	-75.896133	0.000527	5.270440	1.785673	-0.000211
1438	1.4298e+02	-17.2535	-76.110102	0.000537	5.371795	1.820013	-0.000215
1439	1.4308e+02	-17.2920	-76.360404	0.000628	6.283986	2.129072	-0.000252
1440	1.4318e+02	-17.3337	-76.521889	0.000405	4.054185	1.373595	-0.000162
1441	1.4328e+02	-17.3738	-76.808526	0.000720	7.196178	2.438131	-0.000288
1442	1.4338e+02	-17.4156	-77.014420	0.000517	5.169085	1.751334	-0.000207
1443	1.4348e+02	-17.4524	-77.256648	0.000608	6.081277	2.060392	-0.000243
1444	1.4358e+02	-17.4877	-77.462542	0.000517	5.169085	1.751334	-0.000207
1445	1.4368e+02	-17.5359	-77.712844	0.000628	6.283986	2.129072	-0.000252
1446	1.4378e+02	-17.5647	-77.946998	0.000588	5.878568	1.991713	-0.000235
1447	1.4388e+02	-17.6081	-78.169041	0.000557	5.574504	1.888693	-0.000223
1448	1.4398e+02	-17.6466	-78.415306	0.000618	6.182632	2.094732	-0.000248
1449	1.4408e+02	-17.7011	-78.629274	0.000537	5.371795	1.820013	-0.000215
1450	1.4418e+02	-17.7252	-78.871502	0.000608	6.081277	2.060392	-0.000243
1451	1.4428e+02	-17.7653	-79.085471	0.000537	5.371795	1.820013	-0.000215
1452	1.4437e+02	-17.8150	-79.351921	0.000669	6.689405	2.266432	-0.000268
1453	1.4447e+02	-17.8519	-79.557815	0.000517	5.169085	1.751334	-0.000207
1454	1.4457e+02	-17.8968	-79.832341	0.000689	6.892114	2.335111	-0.000276
1455	1.4467e+02	-17.9273	-80.050346	0.000547	5.473149	1.854353	-0.000219
1456	1.4477e+02	-17.9642	-80.300648	0.000628	6.283986	2.129072	-0.000252
1457	1.4487e+02	-18.0139	-80.546914	0.000618	6.182632	2.094732	-0.000248
1458	1.4497e+02	-18.0492	-80.809328	0.000659	6.588050	2.232092	-0.000264
1459	1.4507e+02	-18.0909	-81.047519	0.000598	5.979922	2.026053	-0.000239
1460	1.4517e+02	-18.1134	-81.318007	0.000679	6.790759	2.300772	-0.000272
1461	1.4527e+02	-18.1695	-81.592532	0.000689	6.892114	2.335111	-0.000276
1462	1.4537e+02	-18.2064	-81.854946	0.000659	6.588050	2.232092	-0.000264
1463	1.4547e+02	-18.2481	-82.085062	0.000578	5.777213	1.957373	-0.000231
1464	1.4557e+02	-18.2786	-82.363625	0.000699	6.993468	2.369451	-0.000280
1465	1.4567e+02	-18.3316	-82.609890	0.000618	6.182632	2.094732	-0.000248
1466	1.4577e+02	-18.3749	-82.872304	0.000659	6.588050	2.232092	-0.000264
1467	1.4587e+02	-18.4022	-83.122606	0.000628	6.283986	2.129072	-0.000252
1468	1.4597e+02	-18.4423	-83.376946	0.000639	6.385341	2.163412	-0.000256
1469	1.4607e+02	-18.4792	-83.655508	0.000699	6.993468	2.369451	-0.000280
1470	1.4617e+02	-18.5257	-83.913885	0.000649	6.486695	2.197752	-0.000260
1471	1.4626e+02	-18.5658	-84.164187	0.000628	6.283986	2.129072	-0.000252
1472	1.4636e+02	-18.6043	-84.446787	0.000709	7.094823	2.403791	-0.000284
1473	1.4646e+02	-18.6476	-84.745535	0.000750	7.500242	2.541151	-0.000300
1474	1.4656e+02	-18.6877	-85.007949	0.000659	6.588050	2.232092	-0.000264
1475	1.4666e+02	-18.7278	-85.310734	0.000760	7.601596	2.575490	-0.000304
1476	1.4676e+02	-18.7583	-85.585259	0.000689	6.892114	2.335111	-0.000276
1477	1.4686e+02	-18.8080	-85.827487	0.000608	6.081277	2.060392	-0.000243
1478	1.4696e+02	-18.8497	-86.142384	0.000791	7.905660	2.678510	-0.000316
1479	1.4706e+02	-18.8834	-86.429020	0.000720	7.196178	2.438131	-0.000288
1480	1.4716e+02	-18.9251	-86.727768	0.000750	7.500242	2.541151	-0.000300
1481	1.4726e+02	-18.9717	-87.018442	0.000730	7.297532	2.472471	-0.000292
1482	1.4736e+02	-19.0118	-87.276819	0.000649	6.486695	2.197752	-0.000260
1483	1.4746e+02	-19.0422	-87.567493	0.000730	7.297532	2.472471	-0.000292
1484	1.4756e+02	-19.0904	-87.882389	0.000791	7.905660	2.678510	-0.000316
1485	1.4766e+02	-19.1257	-88.132692	0.000628	6.283986	2.129072	-0.000252
1486	1.4776e+02	-19.1786	-88.435477	0.000760	7.601596	2.575490	-0.000304
1487	1.4786e+02	-19.2059	-88.726151	0.000730	7.297532	2.472471	-0.000292
1488	1.4796e+02	-19.2460	-88.984527	0.000649	6.486695	2.197752	-0.000260
1489	1.4806e+02	-19.2829	-89.347870	0.000912	9.121915	3.090589	-0.000365
1490	1.4816e+02	-19.3230	-89.626432	0.000699	6.993468	2.369451	-0.000280
1491	1.4825e+02	-19.3567	-89.941329	0.000791	7.905660	2.678510	-0.000316
1492	1.4835e+02	-19.4096	-90.223928	0.000709	7.094823	2.403791	-0.000284
1493	1.4845e+02	-19.4369	-90.538825	0.000791	7.905660	2.678510	-0.000316
1494	1.4855e+02	-19.4770	-90.861795	0.000811	8.108369	2.747190	-0.000325
1495	1.4865e+02	-19.5187	-91.164581	0.000760	7.601596	2.575490	-0.000304
1496	1.4875e+02	-19.5700	-91.507737	0.000862	8.615142	2.918889	-0.000345
1497	1.4885e+02	-19.6005	-91.802448	0.000740	7.398887	2.506811	-0.000296
1498	1.4895e+02	-19.6438	-92.149642	0.000872	8.716497	2.953229	-0.000349
1499	1.4905e+02	-19.6807	-92.492798	0.000862	8.615142	2.918889	-0.000345
1500	1.4915e+02	-19.7224	-92.795584	0.000760	7.601596	2.575490	-0.000304
1501	1.4925e+02	-19.7658	-93.118554	0.000811	8.108369	2.747190	-0.000325
1502	1.4935e+02	-19.8091	-93.449599	0.000831	8.311078	2.815870	-0.000333
1503	1.4945e+02	-19.8363	-93.780645	0.000831	8.311078	2.815870	-0.000333
1504	1.4955e+02	-19.8893	-94.131875	0.000882	8.817852	2.987569	-0.000353
1505	1.4965e+02	-19.9198	-94.454846	0.000811	8.108369	2.747190	-0.000325
1506	1.4975e+02	-19.9615	-94.814151	0.000902	9.020561	3.056249	-0.000361
1507	1.4985e+02	-19.9984	-95.141159	0.000821	8.209724	2.781530	-0.000329
1508	1.4995e+02	-19.9534	-95.266311	-0.000314	-3.141993	-1.064536	-0.000126
1509	1.5005e+02	-19.9198	-95.371276	-0.000264	-2.635220	-0.892837	-0.000105
1510	1.5015e+02	-19.8845	-95.419722	-0.000122	-1.216255	-0.412078	-0.000049
1511	1.5025e+02	-19.8315	-95.496427	-0.000193	-1.925738	-0.652458	-0.000077
1512	1.5034e+02	-19.7962	-95.601393	-0.000264	-2.635220	-0.892837	-0.000105
1513	1.5044e+02	-19.7625	-95.670024	-0.000172	-1.723028	-0.583778	-0.000069
1514	1.5054e+02	-19.7240	-95.686173	-0.000041	-0.405418	-0.137359	-0.000016
1515	1.5064e+02	-19.6791	-95.694247	-0.000020	-0.202709	-0.068680	-0.000008
1516	1.5074e+02	-19.6406	-95.779027	-0.000213	-2.128447	-0.721137	-0.000085
1517	1.5084e+02	-19.6021	-95.758841	0.000051	0.506773	0.171699	0.000020
1518	1.5094e+02	-19.5684	-95.827472	-0.000172	-1.723028	-0.583778	-0.000069
1519	1.5104e+02	-19.5283	-95.799212	0.000071	0.709482	0.240379	0.000028
1520	1.5114e+02	-19.4818	-95.827472	-0.000071	-0.709482	-0.240379	-0.000028
1521	1.5124e+02	-19.4385	-95.811324	0.000041	0.405418	0.137359	0.000016
1522	1.5134e+02	-19.4080	-95.823435	-0.000030	-0.304064	-0.103020	-0.000012
1523	1.5144e+02	-19.3567	-95.819398	0.000010	0.101355	0.034340	0.000004
1524	1.5154e+02	-19.3294	-95.803250	0.000041	0.405418	0.137359	0.000016
1525	1.5164e+02	-19.2765	-95.815361	-0.000030	-0.304064	-0.103020	-0.000012
1526	1.5174e+02	-19.2508	-95.815361	0.000000	0.000000	0.000000	0.000000
1527	1.5184e+02	-19.2075	-95.762878	0.000132	1.317610	0.446418	0.000053
1528	1.5194e+02	-19.1674	-95.783064	-0.000051	-0.506773	-0.171699	-0.000020
1529	1.5204e+02	-19.1225	-95.714433	0.000172	1.723028	0.583778	0.000069
1530	1.5214e+02	-19.0872	-95.678098	0.000091	0.912192	0.309059	0.000037
1531	1.5224e+02	-19.0487	-95.665987	0.000030	0.304064	0.103020	0.000012
1532	1.5233e+02	-18.9973	-95.613504	0.000132	1.317610	0.446418	0.000053
1533	1.5243e+02	-18.9652	-95.601393	0.000030	0.304064	0.103020	0.000012
1534	1.5253e+02	-18.9219	-95.552947	0.000122	1.216255	0.412078	0.000049
1535	1.5263e+02	-18.8898	-95.492390	0.000152	1.520319	0.515098	0.000061
1536	1.5273e+02	-18.8545	-95.431833	0.000152	1.520319	0.515098	0.000061
1537	1.5283e+02	-18.8096	-95.423759	0.000020	0.202709	0.068680	0.000008
1538	1.5293e+02	-18.7647	-95.363202	0.000152	1.520319	0.515098	0.000061
1539	1.5303e+02	-18.7262	-95.306682	0.000142	1.418965	0.480758	0.000057
1540	1.5313e+02	-18.6861	-95.221902	0.000213	2.128447	0.721137	0.000085
1541	1.5323e+02	-18.6444	-95.213828	0.000020	0.202709	0.068680	0.000008
1542	1.5333e+02	-18.6139	-95.125011	0.000223	2.229802	0.755477	0.000089
1543	1.5343e+02	-18.5674	-95.064454	0.000152	1.520319	0.515098	0.000061
1544	1.5353e+02	-18.5289	-94.999860	0.000162	1.621674	0.549438	0.000065
1545	1.5363e+02	-18.4888	-94.959488	0.000101	1.013546	0.343399	0.000041
1546	1.5373e+02	-18.4535	-94.902968	0.000142	1.418965	0.480758	0.000057
1547	1.5383e+02	-18.4054	-94.802040	0.000253	2.533865	0.858497	0.000101
1548	1.5393e+02	-18.3685	-94.741483	0.000152	1.520319	0.515098	0.000061
1549	1.5403e+02	-18.3268	-94.697074	0.000111	1.114901	0.377739	0.000045
1550	1.5413e+02	-18.2931	-94.592109	0.000264	2.635220	0.892837	0.000105
1551	1.5422e+02	-18.2498	-94.515403	0.000193	1.925738	0.652458	0.000077
1552	1.5432e+02	-18.2161	-94.458883	0.000142	1.418965	0.480758	0.000057
1553	1.5442e+02	-18.1599	-94.366029	0.000233	2.331156	0.789817	0.000093
1554	1.5452e+02	-18.1278	-94.293361	0.000182	1.824383	0.618118	0.000073
1555	1.5462e+02	-18.0909	-94.216655	0.000193	1.925738	0.652458	0.000077
1556	1.5472e+02	-18.0444	-94.107653	0.000274	2.736575	0.927177	0.000110
1557	1.5482e+02	-18.0043	-94.059207	0.000122	1.216255	0.412078	0.000049
1558	1.5492e+02	-17.9738	-93.978464	0.000203	2.027092	0.686797	0.000081
1559	1.5502e+02	-17.9337	-93.881573	0.000243	2.432511	0.824157	0.000097
1560	1.5512e+02	-17.8952	-93.800830	0.000203	2.027092	0.686797	0.000081
1561	1.5522e+02	-17.8519	-93.744310	0.000142	1.418965	0.480758	0.000057
1562	1.5532e+02	-17.8038	-93.611085	0.000334	3.344702	1.133216	0.000134
1563	1.5542e+02	-17.7701	-93.538416	0.000182	1.824383	0.618118	0.000073
1564	1.5552e+02	-17.7316	-93.429414	0.000274	2.736575	0.927177	0.000110
1565	1.5562e+02	-17.6931	-93.393080	0.000091	0.912192	0.309059	0.000037
1566	1.5572e+02	-17.6498	-93.324448	0.000172	1.723028	0.583778	0.000069
1567	1.5582e+02	-17.6032	-93.207371	0.000294	2.939284	0.995856	0.000118
1568	1.5592e+02	-17.5712	-93.062034	0.000365	3.648766	1.236235	0.000146
1569	1.5602e+02	-17.5246	-93.001477	0.000152	1.520319	0.515098	0.000061
1570	1.5612e+02	-17.4926	-92.900549	0.000253	2.533865	0.858497	0.000101
1571	1.5622e+02	-17.4589	-92.864215	0.000091	0.912192	0.309059	0.000037
1572	1.5631e+02	-17.4236	-92.706767	0.000395	3.952830	1.339255	0.000158
1573	1.5641e+02	-17.3722	-92.617950	0.000223	2.229802	0.755477	0.000089
1574	1.5651e+02	-17.3305	-92.569504	0.000122	1.216255	0.412078	0.000049
1575	1.5661e+02	-17.2808	-92.436278	0.000334	3.344702	1.133216	0.000134
1576	1.5671e+02	-17.2567	-92.363610	0.000182	1.824383	0.618118	0.000073
1577	1.5681e+02	-17.2118	-92.274793	0.000223	2.229802	0.755477	0.000089
1578	1.5691e+02	-17.1685	-92.117345	0.000395	3.952830	1.339255	0.000158
1579	1.5701e+02	-17.1364	-92.068899	0.000122	1.216255	0.412078	0.000049
1580	1.5711e+02	-17.0915	-91.967971	0.000253	2.533865	0.858497	0.000101
1581	1.5721e+02	-17.0594	-91.883191	0.000213	2.128447	0.721137	0.000085
1582	1.5731e+02	-17.0097	-91.749965	0.000334	3.344702	1.133216	0.000134
1583	1.5741e+02	-16.9680	-91.669223	0.000203	2.027092	0.686797	0.000081
1584	1.5751e+02	-16.9375	-91.592517	0.000193	1.925738	0.652458	0.000077
1585	1.5761e+02	-16.8926	-91.439106	0.000385	3.851475	1.304915	0.000154
1586	1.5771e+02	-16.8541	-91.362400	0.000193	1.925738	0.652458	0.000077
1587	1.5781e+02	-16.8108	-91.289732	0.000182	1.824383	0.618118	0.000073
1588	1.5791e+02	-16.7803	-91.168618	0.000304	3.040638	1.030196	0.000122
1589	1.5801e+02	-16.7386	-91.035392	0.000334	3.344702	1.133216	0.000134
1590	1.5811e+02	-16.6985	-90.950612	0.000213	2.128447	0.721137	0.000085
1591	1.5821e+02	-16.6567	-90.817387	0.000334	3.344702	1.133216	0.000134
1592	1.5830e+02	-16.6166	-90.732607	0.000213	2.128447	0.721137	0.000085
1593	1.5840e+02	-16.5637	-90.623604	0.000274	2.736575	0.927177	0.000110
1594	1.5850e+02	-16.5396	-90.534787	0.000223	2.229802	0.755477	0.000089
1595	1.5860e+02	-16.4883	-90.405599	0.000324	3.243348	1.098876	0.000130
1596	1.5870e+02	-16.4514	-90.312745	0.000233	2.331156	0.789817	0.000093
1597	1.5880e+02	-16.4209	-90.187594	0.000314	3.141993	1.064536	0.000126
1598	1.5890e+02	-16.3712	-90.090703	0.000243	2.432511	0.824157	0.000097
1599	1.5900e+02	-16.3343	-89.961514	0.000324	3.243348	1.098876	0.000130
1600	1.5910e+02	-16.2990	-89.904994	0.000142	1.418965	0.480758	0.000057
1601	1.5920e+02	-16.2605	-89.763695	0.000355	3.547412	1.201896	0.000142
1602	1.5930e+02	-16.2156	-89.686989	0.000193	1.925738	0.652458	0.000077
1603	1.5940e+02	-16.1787	-89.537615	0.000375	3.750121	1.270575	0.000150
1604	1.5950e+02	-16.1386	-89.424575	0.000284	2.837929	0.961516	0.000114
1605	1.5960e+02	-16.0953	-89.283275	0.000355	3.547412	1.201896	0.000142
1606	1.5970e+02	-16.0471	-89.186384	0.000243	2.432511	0.824157	0.000097
1607	1.5980e+02	-16.0247	-89.077381	0.000274	2.736575	0.927177	0.000110
1608	1.5990e+02	-15.9814	-88.976453	0.000253	2.533865	0.858497	0.000101
1609	1.6000e+02	-15.9493	-88.871488	0.000264	2.635220	0.892837	0.000105
1610	1.6010e+02	-15.8963	-88.738262	0.000334	3.344702	1.133216	0.000134
1611	1.6019e+02	-15.8578	-88.625222	0.000284	2.837929	0.961516	0.000114
1612	1.6029e+02	-15.8145	-88.479885	0.000365	3.648766	1.236235	0.000146
1613	1.6039e+02	-15.7776	-88.427403	0.000132	1.317610	0.446418	0.000053
1614	1.6049e+02	-15.7423	-88.286103	0.000355	3.547412	1.201896	0.000142
1615	1.6059e+02	-15.7054	-88.164989	0.000304	3.040638	1.030196	0.000122
1616	1.6069e+02	-15.6573	-88.035800	0.000324	3.243348	1.098876	0.000130
1617	1.6079e+02	-15.6188	-87.930835	0.000264	2.635220	0.892837	0.000105
1618	1.6089e+02	-15.5803	-87.821832	0.000274	2.736575	0.927177	0.000110
1619	1.6099e+02	-15.5338	-87.733015	0.000223	2.229802	0.755477	0.000089
1620	1.6109e+02	-15.5017	-87.583641	0.000375	3.750121	1.270575	0.000150
1621	1.6119e+02	-15.4568	-87.470601	0.000284	2.837929	0.961516	0.000114
1622	1.6129e+02	-15.4167	-87.333339	0.000345	3.446057	1.167556	0.000138
1623	1.6139e+02	-15.3830	-87.228373	0.000264	2.635220	0.892837	0.000105
1624	1.6149e+02	-15.3349	-87.091111	0.000345	3.446057	1.167556	0.000138
1625	1.6159e+02	-15.2996	-86.986145	0.000264	2.635220	0.892837	0.000105
1626	1.6169e+02	-15.2579	-86.877143	0.000274	2.736575	0.927177	0.000110
1627	1.6179e+02	-15.2194	-86.768140	0.000274	2.736575	0.927177	0.000110
1628	1.6189e+02	-15.1712	-86.626840	0.000355	3.547412	1.201896	0.000142
1629	1.6199e+02	-15.1311	-86.538023	0.000223	2.229802	0.755477	0.000089
1630	1.6209e+02	-15.1071	-86.376538	0.000405	4.054185	1.373595	0.000162
1631	1.6219e+02	-15.0637	-86.275609	0.000253	2.533865	0.858497	0.000101
1632	1.6228e+02	-15.0188	-86.166607	0.000274	2.736575	0.927177	0.000110
1633	1.6238e+02	-14.9803	-86.041455	0.000314	3.141993	1.064536	0.000126
1634	1.6248e+02	-14.9386	-85.912267	0.000324	3.243348	1.098876	0.000130
1635	1.6258e+02	-14.9001	-85.827487	0.000213	2.128447	0.721137	0.000085
1636	1.6268e+02	-14.8568	-85.670039	0.000395	3.952830	1.339255	0.000158
1637	1.6278e+02	-14.8183	-85.565073	0.000264	2.635220	0.892837	0.000105
1638	1.6288e+02	-14.7798	-85.492405	0.000182	1.824383	0.618118	0.000073
1639	1.6298e+02	-14.7381	-85.318808	0.000436	4.358248	1.476615	0.000174
1640	1.6308e+02	-14.7028	-85.189620	0.000324	3.243348	1.098876	0.000130
1641	1.6318e+02	-14.6643	-85.088691	0.000253	2.533865	0.858497	0.000101
1642	1.6328e+02	-14.6226	-84.975652	0.000284	2.837929	0.961516	0.000114
1643	1.6338e+02	-14.5841	-84.826278	0.000375	3.750121	1.270575	0.000150
1644	1.6348e+02	-14.5360	-84.689015	0.000345	3.446057	1.167556	0.000138
1645	1.6358e+02	-14.4991	-84.575975	0.000284	2.837929	0.961516	0.000114
1646	1.6368e+02	-14.4590	-84.438713	0.000345	3.446057	1.167556	0.000138
1647	1.6378e+02	-14.4253	-84.370081	0.000172	1.723028	0.583778	0.000069
1648	1.6388e+02	-14.3852	-84.240893	0.000324	3.243348	1.098876	0.000130
1649	1.6398e+02	-14.3467	-84.083445	0.000395	3.952830	1.339255	0.000158
1650	1.6408e+02	-14.3049	-83.994628	0.000223	2.229802	0.755477	0.000089
1651	1.6418e+02	-14.2729	-83.808919	0.000466	4.662312	1.579634	0.000187
1652	1.6427e+02	-14.2151	-83.732214	0.000193	1.925738	0.652458	0.000077
1653	1.6437e+02	-14.1910	-83.594951	0.000345	3.446057	1.167556	0.000138
1654	1.6447e+02	-14.1429	-83.433466	0.000405	4.054185	1.373595	0.000162
1655	1.6457e+02	-14.0996	-83.372909	0.000152	1.520319	0.515098	0.000061
1656	1.6467e+02	-14.0563	-83.211423	0.000405	4.054185	1.373595	0.000162
1657	1.6477e+02	-14.0210	-83.053975	0.000395	3.952830	1.339255	0.000158
1658	1.6487e+02	-13.9905	-82.940935	0.000284	2.837929	0.961516	0.000114
1659	1.6497e+02	-13.9456	-82.827895	0.000284	2.837929	0.961516	0.000114
1660	1.6507e+02	-13.9023	-82.702744	0.000314	3.141993	1.064536	0.000126
1661	1.6517e+02	-13.8734	-82.565482	0.000345	3.446057	1.167556	0.000138
1662	1.6527e+02	-13.8301	-82.444367	0.000304	3.040638	1.030196	0.000122
1663	1.6537e+02	-13.7884	-82.299031	0.000365	3.648766	1.236235	0.000146
1664	1.6547e+02	-13.7483	-82.210214	0.000223	2.229802	0.755477	0.000089
1665	1.6557e+02	-13.7098	-82.052765	0.000395	3.952830	1.339255	0.000158
1666	1.6567e+02	-13.6616	-81.943763	0.000274	2.736575	0.927177	0.000110
1667	1.6577e+02	-13.6183	-81.806500	0.000345	3.446057	1.167556	0.000138
1668	1.6587e+02	-13.5782	-81.673275	0.000334	3.344702	1.133216	0.000134
1669	1.6597e+02	-13.5461	-81.580420	0.000233	2.331156	0.789817	0.000093
1670	1.6607e+02	-13.5076	-81.394712	0.000466	4.662312	1.579634	0.000187
1671	1.6616e+02	-13.4643	-81.285710	0.000274	2.736575	0.927177	0.000110
1672	1.6626e+02	-13.4322	-81.128261	0.000395	3.952830	1.339255	0.000158
1673	1.6636e+02	-13.3889	-81.007147	0.000304	3.040638	1.030196	0.000122
1674	1.6646e+02	-13.3440	-80.906219	0.000253	2.533865	0.858497	0.000101
1675	1.6656e+02	-13.3119	-80.764919	0.000355	3.547412	1.201896	0.000142
1676	1.6666e+02	-13.2622	-80.672065	0.000233	2.331156	0.789817	0.000093
1677	1.6676e+02	-13.2285	-80.567099	0.000264	2.635220	0.892837	0.000105
1678	1.6686e+02	-13.1868	-80.429837	0.000345	3.446057	1.167556	0.000138
1679	1.6696e+02	-13.1499	-80.223943	0.000517	5.169085	1.751334	0.000207
1680	1.6706e+02	-13.1050	-80.151274	0.000182	1.824383	0.618118	0.000073
1681	1.6716e+02	-13.0745	-80.001900	0.000375	3.750121	1.270575	0.000150
1682	1.6726e+02	-13.0216	-79.868675	0.000334	3.344702	1.133216	0.000134
1683	1.6736e+02	-12.9863	-79.787932	0.000203	2.027092	0.686797	0.000081
1684	1.6746e+02	-12.9510	-79.646632	0.000355	3.547412	1.201896	0.000142
1685	1.6756e+02	-12.9109	-79.501296	0.000365	3.648766	1.236235	0.000146
1686	1.6766e+02	-12.8627	-79.339810	0.000405	4.054185	1.373595	0.000162
1687	1.6776e+02	-12.8210	-79.238882	0.000253	2.533865	0.858497	0.000101
1688	1.6786e+02	-12.7841	-79.125842	0.000284	2.837929	0.961516	0.000114
1689	1.6796e+02	-12.7553	-78.960319	0.000416	4.155539	1.407935	0.000166
1690	1.6806e+02	-12.7135	-78.871502	0.000223	2.229802	0.755477	0.000089
1691	1.6816e+02	-12.6574	-78.726165	0.000365	3.648766	1.236235	0.000146
1692	1.6825e+02	-12.6349	-78.544494	0.000456	4.560958	1.545294	0.000183
1693	1.6835e+02	-12.5932	-78.399157	0.000365	3.648766	1.236235	0.000146
1694	1.6845e+02	-12.5451	-78.282081	0.000294	2.939284	0.995856	0.000118
1695	1.6855e+02	-12.5146	-78.209412	0.000182	1.824383	0.618118	0.000073
1696	1.6865e+02	-12.4665	-78.100409	0.000274	2.736575	0.927177	0.000110
1697	1.6875e+02	-12.4344	-77.894515	0.000517	5.169085	1.751334	0.000207
1698	1.6885e+02	-12.3847	-77.781476	0.000284	2.837929	0.961516	0.000114
1699	1.6895e+02	-12.3462	-77.656324	0.000314	3.141993	1.064536	0.000126
1700	1.6905e+02	-12.3189	-77.523099	0.000334	3.344702	1.133216	0.000134
1701	1.6915e+02	-12.2740	-77.401985	0.000304	3.040638	1.030196	0.000122
1702	1.6925e+02	-12.2387	-77.212240	0.000476	4.763667	1.613974	0.000191
1703	1.6935e+02	-12.1825	-77.135534	0.000193	1.925738	0.652458	0.000077
1704	1.6945e+02	-12.1521	-77.010383	0.000314	3.141993	1.064536	0.000126
1705	1.6955e+02	-12.1152	-76.856972	0.000385	3.851475	1.304915	0.000154
1706	1.6965e+02	-12.0751	-76.731820	0.000314	3.141993	1.064536	0.000126
1707	1.6975e+02	-12.0301	-76.582446	0.000375	3.750121	1.270575	0.000150
1708	1.6985e+02	-11.9900	-76.453258	0.000324	3.243348	1.098876	0.000130
1709	1.6995e+02	-11.9531	-76.352330	0.000253	2.533865	0.858497	0.000101
1710	1.7005e+02	-11.9114	-76.198918	0.000385	3.851475	1.304915	0.000154
1711	1.7015e+02	-11.8713	-76.025322	0.000436	4.358248	1.476615	0.000174
1712	1.7024e+02	-11.8408	-75.875948	0.000375	3.750121	1.270575	0.000150
1713	1.7034e+02	-11.7943	-75.758871	0.000294	2.939284	0.995856	0.000118
1714	1.7044e+02	-11.7526	-75.597385	0.000405	4.054185	1.373595	0.000162
1715	1.7054e+02	-11.7189	-75.468197	0.000324	3.243348	1.098876	0.000130
1716	1.7064e+02	-11.6644	-75.379380	0.000223	2.229802	0.755477	0.000089
1717	1.7074e+02	-11.6259	-75.209820	0.000426	4.256894	1.442275	0.000170
1718	1.7084e+02	-11.5954	-75.104855	0.000264	2.635220	0.892837	0.000105
1719	1.7094e+02	-11.5601	-74.967592	0.000345	3.446057	1.167556	0.000138
1720	1.7104e+02	-11.5136	-74.814181	0.000385	3.851475	1.304915	0.000154
1721	1.7114e+02	-11.4671	-74.672881	0.000355	3.547412	1.201896	0.000142
1722	1.7124e+02	-11.4334	-74.531581	0.000355	3.547412	1.201896	0.000142
1723	1.7134e+02	-11.3997	-74.382207	0.000375	3.750121	1.270575	0.000150
1724	1.7144e+02	-11.3532	-74.261093	0.000304	3.040638	1.030196	0.000122
1725	1.7154e+02	-11.3147	-74.103645	0.000395	3.952830	1.339255	0.000158
1726	1.7164e+02	-11.2762	-73.950234	0.000385	3.851475	1.304915	0.000154
1727	1.7174e+02	-11.2360	-73.853343	0.000243	2.432511	0.824157	0.000097
1728	1.7184e+02	-11.2024	-73.708006	0.000365	3.648766	1.236235	0.000146
1729	1.7194e+02	-11.1655	-73.518260	0.000476	4.763667	1.613974	0.000191
1730	1.7204e+02	-11.1254	-73.380998	0.000345	3.446057	1.167556	0.000138
1731	1.7213e+02	-11.0836	-73.239698	0.000355	3.547412	1.201896	0.000142
1732	1.7223e+02	-11.0371	-73.106473	0.000334	3.344702	1.133216	0.000134
1733	1.7233e+02	-10.9954	-72.936913	0.000426	4.256894	1.442275	0.000170
1734	1.7243e+02	-10.9681	-72.827910	0.000274	2.736575	0.927177	0.000110
1735	1.7253e+02	-10.9072	-72.694685	0.000334	3.344702	1.133216	0.000134
1736	1.7263e+02	-10.8815	-72.577608	0.000294	2.939284	0.995856	0.000118
1737	1.7273e+02	-10.8318	-72.428234	0.000375	3.750121	1.270575	0.000150
1738	1.7283e+02	-10.7981	-72.274823	0.000385	3.851475	1.304915	0.000154
1739	1.7293e+02	-10.7612	-72.105263	0.000426	4.256894	1.442275	0.000170
1740	1.7303e+02	-10.7163	-71.963963	0.000355	3.547412	1.201896	0.000142
1741	1.7313e+02	-10.6890	-71.806515	0.000395	3.952830	1.339255	0.000158
1742	1.7323e+02	-10.6425	-71.665215	0.000355	3.547412	1.201896	0.000142
1743	1.7333e+02	-10.5927	-71.560250	0.000264	2.635220	0.892837	0.000105
1744	1.7343e+02	-10.5591	-71.386653	0.000436	4.358248	1.476615	0.000174
1745	1.7353e+02	-10.5141	-71.229204	0.000395	3.952830	1.339255	0.000158
1746	1.7363e+02	-10.4821	-71.104053	0.000314	3.141993	1.064536	0.000126
1747	1.7373e+02	-10.4420	-70.986976	0.000294	2.939284	0.995856	0.000118
1748	1.7383e+02	-10.4018	-70.821454	0.000416	4.155539	1.407935	0.000166
1749	1.7393e+02	-10.3682	-70.664005	0.000395	3.952830	1.339255	0.000158
1750	1.7403e+02	-10.3168	-70.530780	0.000334	3.344702	1.133216	0.000134
1751	1.7413e+02	-10.2703	-70.397554	0.000334	3.344702	1.133216	0.000134
1752	1.7422e+02	-10.2446	-70.195698	0.000507	5.067731	1.716994	0.000203
1753	1.7432e+02	-10.1981	-70.094769	0.000253	2.533865	0.858497	0.000101
1754	1.7442e+02	-10.1580	-69.933284	0.000405	4.054185	1.373595	0.000162
1755	1.7452e+02	-10.1163	-69.787947	0.000365	3.648766	1.236235	0.000146
1756	1.7462e+02	-10.0874	-69.590127	0.000497	4.966376	1.682654	0.000199
1757	1.7472e+02	-10.0489	-69.473050	0.000294	2.939284	0.995856	0.000118
1758	1.7482e+02	-9.9976	-69.327713	0.000365	3.648766	1.236235	0.000146
1759	1.7492e+02	-9.9575	-69.150079	0.000446	4.459603	1.510954	0.000179
1760	1.7502e+02	-9.9286	-68.992631	0.000395	3.952830	1.339255	0.000158
1761	1.7512e+02	-9.8821	-68.855369	0.000345	3.446057	1.167556	0.000138
1762	1.7522e+02	-9.8356	-68.681772	0.000436	4.358248	1.476615	0.000174
1763	1.7532e+02	-9.8003	-68.556621	0.000314	3.141993	1.064536	0.000126
1764	1.7542e+02	-9.7618	-68.419358	0.000345	3.446057	1.167556	0.000138
1765	1.7552e+02	-9.7233	-68.282095	0.000345	3.446057	1.167556	0.000138
1766	1.7562e+02	-9.6831	-68.104461	0.000446	4.459603	1.510954	0.000179
1767	1.7572e+02	-9.6398	-67.926827	0.000446	4.459603	1.510954	0.000179
1768	1.7582e+02	-9.6126	-67.785528	0.000355	3.547412	1.201896	0.000142
1769	1.7592e+02	-9.5660	-67.599819	0.000466	4.662312	1.579634	0.000187
1770	1.7602e+02	-9.5275	-67.446408	0.000385	3.851475	1.304915	0.000154
1771	1.7612e+02	-9.4826	-67.329331	0.000294	2.939284	0.995856	0.000118
1772	1.7621e+02	-9.4521	-67.200143	0.000324	3.243348	1.098876	0.000130
1773	1.7631e+02	-9.4072	-67.010398	0.000476	4.763667	1.613974	0.000191
1774	1.7641e+02	-9.3703	-66.820652	0.000476	4.763667	1.613974	0.000191
1775	1.7651e+02	-9.3318	-66.703575	0.000294	2.939284	0.995856	0.000118
1776	1.7661e+02	-9.2821	-66.550164	0.000385	3.851475	1.304915	0.000154
1777	1.7671e+02	-9.2404	-66.384642	0.000416	4.155539	1.407935	0.000166
1778	1.7681e+02	-9.2019	-66.207008	0.000446	4.459603	1.510954	0.000179
1779	1.7691e+02	-9.1682	-66.069745	0.000345	3.446057	1.167556	0.000138
1780	1.7701e+02	-9.1297	-65.916334	0.000385	3.851475	1.304915	0.000154
1781	1.7711e+02	-9.0880	-65.754848	0.000405	4.054185	1.373595	0.000162
1782	1.7721e+02	-9.0447	-65.561066	0.000487	4.865022	1.648314	0.000195
1783	1.7731e+02	-9.0062	-65.419766	0.000355	3.547412	1.201896	0.000142
1784	1.7741e+02	-8.9661	-65.254244	0.000416	4.155539	1.407935	0.000166
1785	1.7751e+02	-8.9243	-65.112944	0.000355	3.547412	1.201896	0.000142
1786	1.7761e+02	-8.8810	-64.907050	0.000517	5.169085	1.751334	0.000207
1787	1.7771e+02	-8.8473	-64.717304	0.000476	4.763667	1.613974	0.000191
1788	1.7781e+02	-8.8072	-64.612339	0.000264	2.635220	0.892837	0.000105
1789	1.7791e+02	-8.7623	-64.410482	0.000507	5.067731	1.716994	0.000203
1790	1.7801e+02	-8.7190	-64.289368	0.000304	3.040638	1.030196	0.000122
1791	1.7810e+02	-8.6885	-64.119808	0.000426	4.256894	1.442275	0.000170
1792	1.7820e+02	-8.6468	-63.970434	0.000375	3.750121	1.270575	0.000150
1793	1.7830e+02	-8.6083	-63.808949	0.000405	4.054185	1.373595	0.000162
1794	1.7840e+02	-8.5618	-63.667649	0.000355	3.547412	1.201896	0.000142
1795	1.7850e+02	-8.5249	-63.485978	0.000456	4.560958	1.545294	0.000183
1796	1.7860e+02	-8.4944	-63.308344	0.000446	4.459603	1.510954	0.000179
1797	1.7870e+02	-8.4447	-63.086302	0.000557	5.574504	1.888693	0.000223
1798	1.7880e+02	-8.4126	-62.977299	0.000274	2.736575	0.927177	0.000110
1799	1.7890e+02	-8.3661	-62.795628	0.000456	4.560958	1.545294	0.000183
1800	1.7900e+02	-8.3228	-62.666439	0.000324	3.243348	1.098876	0.000130
1801	1.7910e+02	-8.2810	-62.492843	0.000436	4.358248	1.476615	0.000174
1802	1.7920e+02	-8.2442	-62.327320	0.000416	4.155539	1.407935	0.000166
1803	1.7930e+02	-8.2024	-62.149686	0.000446	4.459603	1.510954	0.000179
1804	1.7940e+02	-8.1623	-61.972052	0.000446	4.459603	1.510954	0.000179
1805	1.7950e+02	-8.1206	-61.818641	0.000385	3.851475	1.304915	0.000154
1806	1.7960e+02	-8.0821	-61.669267	0.000375	3.750121	1.270575	0.000150
1807	1.7970e+02	-8.0388	-61.459336	0.000527	5.270440	1.785673	0.000211
1808	1.7980e+02	-8.0099	-61.342259	0.000294	2.939284	0.995856	0.000118
1809	1.7990e+02	-7.9730	-61.140402	0.000507	5.067731	1.716994	0.000203
1810	1.8000e+02	-7.9281	-60.946620	0.000487	4.865022	1.648314	0.000195
1811	1.8009e+02	-7.8896	-60.817431	0.000324	3.243348	1.098876	0.000130
1812	1.8019e+02	-7.8479	-60.676132	0.000355	3.547412	1.201896	0.000142
1813	1.8029e+02	-7.8142	-60.478312	0.000497	4.966376	1.682654	0.000199
1814	1.8039e+02	-7.7613	-60.308752	0.000426	4.256894	1.442275	0.000170
1815	1.8049e+02	-7.7164	-60.127081	0.000456	4.560958	1.545294	0.000183
1816	1.8059e+02	-7.6923	-60.026153	0.000253	2.533865	0.858497	0.000101
1817	1.8069e+02	-7.6554	-59.800073	0.000568	5.675858	1.923033	0.000227
1818	1.8079e+02	-7.6057	-59.606291	0.000487	4.865022	1.648314	0.000195
1819	1.8089e+02	-7.5704	-59.440768	0.000416	4.155539	1.407935	0.000166
1820	1.8099e+02	-7.5239	-59.255060	0.000466	4.662312	1.579634	0.000187
1821	1.8109e+02	-7.4902	-59.101649	0.000385	3.851475	1.304915	0.000154
1822	1.8119e+02	-7.4485	-58.948237	0.000385	3.851475	1.304915	0.000154
1823	1.8129e+02	-7.4132	-58.766566	0.000456	4.560958	1.545294	0.000183
1824	1.8139e+02	-7.3731	-58.572784	0.000487	4.865022	1.648314	0.000195
1825	1.8149e+02	-7.3281	-58.407261	0.000416	4.155539	1.407935	0.000166
1826	1.8159e+02	-7.2977	-58.229627	0.000446	4.459603	1.510954	0.000179
1827	1.8169e+02	-7.2447	-58.051993	0.000446	4.459603	1.510954	0.000179
1828	1.8179e+02	-7.2062	-57.890508	0.000405	4.054185	1.373595	0.000162
1829	1.8189e+02	-7.1805	-57.696725	0.000487	4.865022	1.648314	0.000195
1830	1.8199e+02	-7.1340	-57.523129	0.000436	4.358248	1.476615	0.000174
1831	1.8209e+02	-7.0923	-57.341457	0.000456	4.560958	1.545294	0.000183
1832	1.8218e+02	-7.0506	-57.175935	0.000416	4.155539	1.407935	0.000166
1833	1.8228e+02	-7.0185	-57.006375	0.000426	4.256894	1.442275	0.000170
1834	1.8238e+02	-6.9656	-56.836815	0.000426	4.256894	1.442275	0.000170
1835	1.8248e+02	-6.9335	-56.671293	0.000416	4.155539	1.407935	0.000166
1836	1.8258e+02	-6.8934	-56.513845	0.000395	3.952830	1.339255	0.000158
1837	1.8268e+02	-6.8549	-56.287765	0.000568	5.675858	1.923033	0.000227
1838	1.8278e+02	-6.8116	-56.134354	0.000385	3.851475	1.304915	0.000154
1839	1.8288e+02	-6.7699	-55.956720	0.000446	4.459603	1.510954	0.000179
1840	1.8298e+02	-6.7330	-55.779086	0.000446	4.459603	1.510954	0.000179
1841	1.8308e+02	-6.6897	-55.617600	0.000405	4.054185	1.373595	0.000162
1842	1.8318e+02	-6.6463	-55.431892	0.000466	4.662312	1.579634	0.000187
1843	1.8328e+02	-6.6110	-55.246184	0.000466	4.662312	1.579634	0.000187
1844	1.8338e+02	-6.5822	-55.052401	0.000487	4.865022	1.648314	0.000195
1845	1.8348e+02	-6.5405	-54.874768	0.000446	4.459603	1.510954	0.000179
1846	1.8358e+02	-6.4955	-54.672911	0.000507	5.067731	1.716994	0.000203
1847	1.8368e+02	-6.4522	-54.523537	0.000375	3.750121	1.270575	0.000150
1848	1.8378e+02	-6.4169	-54.321680	0.000507	5.067731	1.716994	0.000203
1849	1.8388e+02	-6.3784	-54.188454	0.000334	3.344702	1.133216	0.000134
1850	1.8398e+02	-6.3447	-53.966412	0.000557	5.574504	1.888693	0.000223
1851	1.8407e+02	-6.3046	-53.813001	0.000385	3.851475	1.304915	0.000154
1852	1.8417e+02	-6.2549	-53.643441	0.000426	4.256894	1.442275	0.000170
1853	1.8427e+02	-6.2196	-53.449659	0.000487	4.865022	1.648314	0.000195
1854	1.8437e+02	-6.1827	-53.284136	0.000416	4.155539	1.407935	0.000166
1855	1.8447e+02	-6.1346	-53.082279	0.000507	5.067731	1.716994	0.000203
1856	1.8457e+02	-6.1009	-52.932905	0.000375	3.750121	1.270575	0.000150
1857	1.8467e+02	-6.0592	-52.743160	0.000476	4.763667	1.613974	0.000191
1858	1.8477e+02	-6.0191	-52.496895	0.000618	6.182632	2.094732	0.000248
1859	1.8487e+02	-5.9742	-52.347521	0.000375	3.750121	1.270575	0.000150
1860	1.8497e+02	-5.9325	-52.214295	0.000334	3.344702	1.133216	0.000134
1861	1.8507e+02	-5.8988	-51.976104	0.000598	5.979922	2.026053	0.000239
1862	1.8517e+02	-5.8603	-51.806544	0.000426	4.256894	1.442275	0.000170
1863	1.8527e+02	-5.8153	-51.645059	0.000405	4.054185	1.373595	0.000162
1864	1.8537e+02	-5.7817	-51.467425	0.000446	4.459603	1.510954	0.000179
1865	1.8547e+02	-5.7448	-51.273642	0.000487	4.865022	1.648314	0.000195
1866	1.8557e+02	-5.6934	-51.055637	0.000547	5.473149	1.854353	0.000219
1867	1.8567e+02	-5.6549	-50.841669	0.000537	5.371795	1.820013	0.000215
1868	1.8577e+02	-5.6196	-50.720555	0.000304	3.040638	1.030196	0.000122
1869	1.8587e+02	-5.5827	-50.498512	0.000557	5.574504	1.888693	0.000223
1870	1.8597e+02	-5.5314	-50.349138	0.000375	3.750121	1.270575	0.000150
1871	1.8606e+02	-5.5073	-50.123059	0.000568	5.675858	1.923033	0.000227
1872	1.8616e+02	-5.4560	-49.929276	0.000487	4.865022	1.648314	0.000195
1873	1.8626e+02	-5.4175	-49.787976	0.000355	3.547412	1.201896	0.000142
1874	1.8636e+02	-5.3790	-49.586120	0.000507	5.067731	1.716994	0.000203
1875	1.8646e+02	-5.3357	-49.392337	0.000487	4.865022	1.648314	0.000195
1876	1.8656e+02	-5.3020	-49.170295	0.000557	5.574504	1.888693	0.000223
1877	1.8666e+02	-5.2555	-48.988624	0.000456	4.560958	1.545294	0.000183
1878	1.8676e+02	-5.2314	-48.790804	0.000497	4.966376	1.682654	0.000199
1879	1.8686e+02	-5.1785	-48.633356	0.000395	3.952830	1.339255	0.000158
1880	1.8696e+02	-5.1400	-48.395165	0.000598	5.979922	2.026053	0.000239
1881	1.8706e+02	-5.1047	-48.278088	0.000294	2.939284	0.995856	0.000118
1882	1.8716e+02	-5.0646	-47.995488	0.000709	7.094823	2.403791	0.000284
1883	1.8726e+02	-5.0196	-47.866300	0.000324	3.243348	1.098876	0.000130
1884	1.8736e+02	-4.9779	-47.668480	0.000497	4.966376	1.682654	0.000199
1885	1.8746e+02	-4.9378	-47.458549	0.000527	5.270440	1.785673	0.000211
1886	1.8756e+02	-4.9009	-47.260730	0.000497	4.966376	1.682654	0.000199
1887	1.8766e+02	-4.8624	-47.054836	0.000517	5.169085	1.751334	0.000207
1888	1.8776e+02	-4.8271	-46.889313	0.000416	4.155539	1.407935	0.000166
1889	1.8786e+02	-4.7870	-46.675345	0.000537	5.371795	1.820013	0.000215
1890	1.8796e+02	-4.7437	-46.449265	0.000568	5.675858	1.923033	0.000227
1891	1.8806e+02	-4.7084	-46.247408	0.000507	5.067731	1.716994	0.000203
1892	1.8815e+02	-4.6603	-46.069774	0.000446	4.459603	1.510954	0.000179
1893	1.8825e+02	-4.6266	-45.859843	0.000527	5.270440	1.785673	0.000211
1894	1.8835e+02	-4.5785	-45.670098	0.000476	4.763667	1.613974	0.000191
1895	1.8845e+02	-4.5512	-45.468241	0.000507	5.067731	1.716994	0.000203
1896	1.8855e+02	-4.5015	-45.274459	0.000487	4.865022	1.648314	0.000195
1897	1.8865e+02	-4.4614	-45.044342	0.000578	5.777213	1.957373	0.000231
1898	1.8875e+02	-4.4197	-44.870745	0.000436	4.358248	1.476615	0.000174
1899	1.8885e+02	-4.3828	-44.656777	0.000537	5.371795	1.820013	0.000215
1900	1.8895e+02	-4.3394	-44.543737	0.000284	2.837929	0.961516	0.000114
1901	1.8905e+02	-4.2993	-44.277286	0.000669	6.689405	2.266432	0.000268
1902	1.8915e+02	-4.2705	-44.079467	0.000497	4.966376	1.682654	0.000199
1903	1.8925e+02	-4.2320	-43.885684	0.000487	4.865022	1.648314	0.000195
1904	1.8935e+02	-4.1806	-43.679790	0.000517	5.169085	1.751334	0.000207
1905	1.8945e+02	-4.1502	-43.469859	0.000527	5.270440	1.785673	0.000211
1906	1.8955e+02	-4.1020	-43.215520	0.000639	6.385341	2.163412	0.000256
1907	1.8965e+02	-4.0667	-43.062108	0.000385	3.851475	1.304915	0.000154
1908	1.8975e+02	-4.0218	-42.844103	0.000547	5.473149	1.854353	0.000219
1909	1.8985e+02	-3.9881	-42.646283	0.000497	4.966376	1.682654	0.000199
1910	1.8995e+02	-3.9464	-42.468649	0.000446	4.459603	1.510954	0.000179
1911	1.9004e+02	-3.9159	-42.214310	0.000639	6.385341	2.163412	0.000256
1912	1.9014e+02	-3.8598	-42.044750	0.000426	4.256894	1.442275	0.000170
1913	1.9024e+02	-3.8341	-41.818671	0.000568	5.675858	1.923033	0.000227
1914	1.9034e+02	-3.7876	-41.616814	0.000507	5.067731	1.716994	0.000203
1915	1.9044e+02	-3.7491	-41.386697	0.000578	5.777213	1.957373	0.000231
1916	1.9054e+02	-3.7074	-41.180803	0.000517	5.169085	1.751334	0.000207
1917	1.9064e+02	-3.6609	-40.991058	0.000476	4.763667	1.613974	0.000191
1918	1.9074e+02	-3.6288	-40.789201	0.000507	5.067731	1.716994	0.000203
1919	1.9084e+02	-3.5903	-40.555047	0.000588	5.878568	1.991713	0.000235
1920	1.9094e+02	-3.5470	-40.328967	0.000568	5.675858	1.923033	0.000227
1921	1.9104e+02	-3.5036	-40.147296	0.000456	4.560958	1.545294	0.000183
1922	1.9114e+02	-3.4635	-39.892957	0.000639	6.385341	2.163412	0.000256
1923	1.9124e+02	-3.4282	-39.719360	0.000436	4.358248	1.476615	0.000174
1924	1.9134e+02	-3.3881	-39.452909	0.000669	6.689405	2.266432	0.000268
1925	1.9144e+02	-3.3464	-39.279312	0.000436	4.358248	1.476615	0.000174
1926	1.9154e+02	-3.3031	-39.057270	0.000557	5.574504	1.888693	0.000223
1927	1.9164e+02	-3.2598	-38.839264	0.000547	5.473149	1.854353	0.000219
1928	1.9174e+02	-3.2341	-38.633370	0.000517	5.169085	1.751334	0.000207
1929	1.9184e+02	-3.1860	-38.399217	0.000588	5.878568	1.991713	0.000235
1930	1.9194e+02	-3.1491	-38.209471	0.000476	4.763667	1.613974	0.000191
1931	1.9203e+02	-3.1090	-38.007614	0.000507	5.067731	1.716994	0.000203
1932	1.9213e+02	-3.0801	-37.753275	0.000639	6.385341	2.163412	0.000256
1933	1.9223e+02	-3.0256	-37.531232	0.000557	5.574504	1.888693	0.000223
1934	1.9233e+02	-2.9855	-37.280930	0.000628	6.283986	2.129072	0.000252
1935	1.9243e+02	-2.9518	-37.099259	0.000456	4.560958	1.545294	0.000183
1936	1.9253e+02	-2.9149	-36.861068	0.000598	5.979922	2.026053	0.000239
1937	1.9263e+02	-2.8636	-36.647100	0.000537	5.371795	1.820013	0.000215
1938	1.9273e+02	-2.8234	-36.396797	0.000628	6.283986	2.129072	0.000252
1939	1.9283e+02	-2.7882	-36.186866	0.000527	5.270440	1.785673	0.000211
1940	1.9293e+02	-2.7609	-35.976935	0.000527	5.270440	1.785673	0.000211
1941	1.9303e+02	-2.7047	-35.758930	0.000547	5.473149	1.854353	0.000219
1942	1.9313e+02	-2.6694	-35.504590	0.000639	6.385341	2.163412	0.000256
1943	1.9323e+02	-2.6358	-35.278511	0.000568	5.675858	1.923033	0.000227
1944	1.9333e+02	-2.5940	-35.052431	0.000568	5.675858	1.923033	0.000227
1945	1.9343e+02	-2.5459	-34.866723	0.000466	4.662312	1.579634	0.000187
1946	1.9353e+02	-2.5138	-34.604309	0.000659	6.588050	2.232092	0.000264
1947	1.9363e+02	-2.4625	-34.329784	0.000689	6.892114	2.335111	0.000276
1948	1.9373e+02	-2.4288	-34.156187	0.000436	4.358248	1.476615	0.000174
1949	1.9383e+02	-2.3871	-33.934144	0.000557	5.574504	1.888693	0.000223
1950	1.9393e+02	-2.3502	-33.708065	0.000568	5.675858	1.923033	0.000227
1951	1.9403e+02	-2.3165	-33.457762	0.000628	6.283986	2.129072	0.000252
1952	1.9412e+02	-2.2732	-33.227646	0.000578	5.777213	1.957373	0.000231
1953	1.9422e+02	-2.2411	-32.993492	0.000588	5.878568	1.991713	0.000235
1954	1.9432e+02	-2.1930	-32.767412	0.000568	5.675858	1.923033	0.000227
1955	1.9442e+02	-2.1561	-32.496924	0.000679	6.790759	2.300772	0.000272
1956	1.9452e+02	-2.1112	-32.262770	0.000588	5.878568	1.991713	0.000235
1957	1.9462e+02	-2.0695	-32.077062	0.000466	4.662312	1.579634	0.000187
1958	1.9472e+02	-2.0358	-31.846945	0.000578	5.777213	1.957373	0.000231
1959	1.9482e+02	-1.9941	-31.608754	0.000598	5.979922	2.026053	0.000239
1960	1.9492e+02	-1.9556	-31.342303	0.000669	6.689405	2.266432	0.000268
1961	1.9502e+02	-1.9090	-31.108149	0.000588	5.878568	1.991713	0.000235
1962	1.9512e+02	-1.8770	-30.902256	0.000517	5.169085	1.751334	0.000207
1963	1.9522e+02	-1.8240	-30.684250	0.000547	5.473149	1.854353	0.000219
1964	1.9532e+02	-1.7999	-30.421836	0.000659	6.588050	2.232092	0.000264
1965	1.9542e+02	-1.7518	-30.207868	0.000537	5.371795	1.820013	0.000215
1966	1.9552e+02	-1.7085	-29.961603	0.000618	6.182632	2.094732	0.000248
1967	1.9562e+02	-1.6732	-29.727449	0.000588	5.878568	1.991713	0.000235
1968	1.9572e+02	-1.6363	-29.481184	0.000618	6.182632	2.094732	0.000248
1969	1.9582e+02	-1.5978	-29.238956	0.000608	6.081277	2.060392	0.000243
1970	1.9592e+02	-1.5593	-28.992690	0.000618	6.182632	2.094732	0.000248
1971	1.9601e+02	-1.5256	-28.718165	0.000689	6.892114	2.335111	0.000276
1972	1.9611e+02	-1.4743	-28.508234	0.000527	5.270440	1.785673	0.000211
1973	1.9621e+02	-1.4342	-28.237746	0.000679	6.790759	2.300772	0.000272
1974	1.9631e+02	-1.3973	-28.048001	0.000476	4.763667	1.613974	0.000191
1975	1.9641e+02	-1.3636	-27.769438	0.000699	6.993468	2.369451	0.000280
1976	1.9651e+02	-1.3155	-27.559507	0.000527	5.270440	1.785673	0.000211
1977	1.9661e+02	-1.2722	-27.272870	0.000720	7.196178	2.438131	0.000288
1978	1.9671e+02	-1.2353	-27.058902	0.000537	5.371795	1.820013	0.000215
1979	1.9681e+02	-1.1871	-26.853008	0.000517	5.169085	1.751334	0.000207
1980	1.9691e+02	-1.1534	-26.566372	0.000720	7.196178	2.438131	0.000288
1981	1.9701e+02	-1.1246	-26.332218	0.000588	5.878568	1.991713	0.000235
1982	1.9711e+02	-1.0716	-26.077878	0.000639	6.385341	2.163412	0.000256
1983	1.9721e+02	-1.0363	-25.859873	0.000547	5.473149	1.854353	0.000219
1984	1.9731e+02	-1.0026	-25.565162	0.000740	7.398887	2.506811	0.000296
1985	1.9741e+02	-0.9561	-25.331008	0.000588	5.878568	1.991713	0.000235
1986	1.9751e+02	-0.9128	-25.004000	0.000821	8.209724	2.781530	0.000329
1987	1.9761e+02	-0.8807	-24.834440	0.000426	4.256894	1.442275	0.000170
1988	1.9771e+02	-0.8326	-24.612398	0.000557	5.574504	1.888693	0.000223
1989	1.9781e+02	-0.7941	-24.329799	0.000709	7.094823	2.403791	0.000284
1990	1.9791e+02	-0.7556	-24.087570	0.000608	6.081277	2.060392	0.000243
1991	1.9800e+02	-0.7107	-23.796897	0.000730	7.297532	2.472471	0.000292
1992	1.9810e+02	-0.6754	-23.578891	0.000547	5.473149	1.854353	0.000219
1993	1.9820e+02	-0.6305	-23.320515	0.000649	6.486695	2.197752	0.000260
1994	1.9830e+02	-0.6080	-23.114621	0.000517	5.169085	1.751334	0.000207
1995	1.9840e+02	-0.5535	-22.827984	0.000720	7.196178	2.438131	0.000288
1996	1.9850e+02	-0.5166	-22.573644	0.000639	6.385341	2.163412	0.000256
1997	1.9860e+02	-0.4749	-22.339491	0.000588	5.878568	1.991713	0.000235
1998	1.9870e+02	-0.4396	-22.101300	0.000598	5.979922	2.026053	0.000239
1999	1.9880e+02	-0.3930	-21.842923	0.000649	6.486695	2.197752	0.000260
2000	1.9890e+02	-0.3626	-21.572435	0.000679	6.790759	2.300772	0.000272
2001	1.9900e+02	-0.3273	-21.301947	0.000679	6.790759	2.300772	0.000272
2002	1.9910e+02	-0.2791	-21.063756	0.000598	5.979922	2.026053	0.000239
2003	1.9920e+02	-0.2406	-20.781156	0.000709	7.094823	2.403791	0.000284
2004	1.9930e+02	-0.1941	-20.551039	0.000578	5.777213	1.957373	0.000231
2005	1.9940e+02	-0.1620	-20.337071	0.000537	5.371795	1.820013	0.000215
2006	1.9950e+02	-0.1155	-20.054472	0.000709	7.094823	2.403791	0.000284
2007	1.9960e+02	-0.0866	-19.824355	0.000578	5.777213	1.957373	0.000231
2008	1.9970e+02	-0.0449	-19.545793	0.000699	6.993468	2.369451	0.000280
2009	1.9980e+02	0.0016	-19.263193	0.000699	6.993468	2.369451	0.000284

Center data before PMax,+/-Pr and +/-Vc Calc.

PMax (uC/cm2):	9.58e+01
Pr (uC/cm2):	1.15e+01
-Pr (uC/cm2):	-1.93e+01
PLoss (uC/cm2):	-2.11e+01
-Vc:	-1.83e+00
C (Max-Eff) (nF):	4.79e-01
K (Eff):	1.62e+03
Vert. (+/-Pr) Shift (uC/cm2):	-3.87e+00
Offset (uC/cm2):	-1.88e+00

A (Loop Area - uC/cm2·Volts):	2.74e-01



Hysteresis Version: 5.48.1 - Radiant Technologies, Inc., 1999 - 9/12/24

