»»»»»»»»»»»»»»»»»»»»»»»»»»»»»»»»»»»» Hysteresis ««««««««««««««««««««««««««««««««««««
»»»  Executed Version:	5.48.1
»»»  Vision Version:	5.48.4 (R)
»»»  Vision Compiled:	9/18/24
»»»  Driver Version:	5.47.0
»»»  Windows Version:	Windows 8 or 8.1
»»»  Processor Information:	x86 (AMD or Intel) - 32 Processors
»»»  Tester Name:	PMF21124-494 (100V)
»»»  Tester S/N:	PMF21124-494
»»»  Internal Amp Type:	100V RevK 270k
»»»  Internal Amp S/N:	iAB2-596/K     
»»»  Execution Count:	1
»»»»»»»»»»»»»»»»»»»»»»»»»»»»»»»»»»»»»»»»»»««««««««««««««««««««««««««««««««««««««««««

Stored:	6/11/2025 - 14:54:31
Configured:	06/11/25 01:55:56 PM
Executed:	06/11/25 02:54:04 PM

»»»»»»»»»»»»»»»»»»»»»»»»»»»»»»»»»»» Sample Info ««««««««««««««««««««««««««««««««««««
Sample Name:	
Lot Name:	
Wafer Name:	
Die Row/Column:	0/0
Capacitor Number:	0
Sample Area (cm2):	1.00e-04
Sample Thickness (microns):	3.00e-01

Amplifier:	Internal

»»»»»»»»»»»»»»»»»»»»»»»»»»»»»»»»»»» Tester Info «««««««««««««««««««««««««««««««««««
Tester Name:	PMF21124-494 (100V)
Tester Serial Number:	PMF21124-494
Return Signal Amp. Level:	1.79 [Index: 2]

»»»»»»»»»»»»»»»»»»»»»»»»»»»»»»»» Hysteresis Info ««««««««««««««««««««««««««««««««««
Task Name:	Hyst-1287
Volts:	20.00
Field:	666.67 (kV/cm)
DCBias:	0.00
DCField:	0.00 (kV/cm)
Hysteresis Period (ms):	1.00e+00
Preset:	Enabled
Preset Delay (ms):	1.00e+03
Profile:	Standard Bipolar

»»»»»»»»»»»»»»»»»»»»»»»»»»»»»»»»»»»»»» Data «««««««««««««««««««««««««««««««««««««««
Points:	2001

Valid Data

Point	Time (ms)	Drive Voltage	Measured Polarization (uC/cm2)	Capacitance (uF)	Normalized Capacitance (uF/cm2)	Dielectric Constant	Instantaneous Current (mA)
   1	0.0000e+00	0.0193	-0.807998	0.000148	1.480036	0.501450	0.012059
   2	5.0000e-04	0.0417	-0.747703	0.000148	1.480036	0.501450	0.012059
   3	1.0000e-03	0.0818	-0.722045	0.000063	0.629803	0.213383	0.005132
   4	1.5000e-03	0.1797	-0.680993	0.000101	1.007684	0.341413	0.008210
   5	2.0000e-03	0.2102	-0.618132	0.000154	1.543016	0.522788	0.012572
   6	2.5000e-03	0.2487	-0.533463	0.000208	2.078348	0.704164	0.016934
   7	3.0000e-03	0.3160	-0.447510	0.000211	2.109839	0.714833	0.017191
   8	3.5000e-03	0.2968	-0.367972	-0.000195	-1.952388	-0.661487	0.015908
   9	4.0000e-03	0.3561	-0.283729	0.000207	2.067852	0.700607	0.016848
  10	4.5000e-03	0.4155	-0.246098	0.000092	0.923710	0.312962	0.007526
  11	5.0000e-03	0.4412	-0.166988	0.000194	1.941891	0.657931	0.015822
  12	5.5000e-03	0.4829	-0.091298	0.000186	1.857918	0.629479	0.015138
  13	6.0000e-03	0.5262	-0.021595	0.000171	1.710964	0.579690	0.013941
  14	6.5000e-03	0.5567	0.084884	0.000261	2.613681	0.885539	0.021296
  15	7.0000e-03	0.6240	0.128929	0.000108	1.081161	0.366307	0.008809
  16	7.5000e-03	0.6593	0.183665	0.000134	1.343579	0.455217	0.010947
  17	8.0000e-03	0.6786	0.285440	0.000250	2.498217	0.846419	0.020355
  18	8.5000e-03	0.7123	0.351294	0.000162	1.616493	0.547683	0.013171
  19	9.0000e-03	0.7684	0.407313	0.000138	1.375069	0.465886	0.011204
  20	9.5000e-03	0.7893	0.493266	0.000211	2.109839	0.714833	0.017191
  21	1.0000e-02	0.8551	0.574942	0.000200	2.004871	0.679269	0.016335
  22	1.0500e-02	0.8903	0.672868	0.000240	2.403746	0.814411	0.019585
  23	1.1000e-02	0.9385	0.717341	0.000109	1.091658	0.369864	0.008895
  24	1.1500e-02	0.9722	0.781058	0.000156	1.564010	0.529901	0.012743
  25	1.2000e-02	0.9914	0.870859	0.000220	2.204309	0.746840	0.017960
  26	1.2500e-02	1.0572	0.955529	0.000208	2.078348	0.704164	0.016934
  27	1.3000e-02	1.1342	0.987173	0.000078	0.776756	0.263172	0.006329
  28	1.3500e-02	1.0973	1.087237	-0.000246	-2.456230	-0.832193	0.020013
  29	1.4000e-02	1.1663	1.170624	0.000205	2.046858	0.693494	0.016677
  30	1.4500e-02	1.2016	1.232202	0.000151	1.511526	0.512119	0.012316
  31	1.5000e-02	1.2545	1.307037	0.000184	1.836924	0.622367	0.014967
  32	1.5500e-02	1.2786	1.357924	0.000125	1.249108	0.423209	0.010177
  33	1.6000e-02	1.3203	1.430193	0.000177	1.773944	0.601028	0.014454
  34	1.6500e-02	1.3363	1.528119	0.000240	2.403746	0.814411	0.019585
  35	1.7000e-02	1.4181	1.571309	0.000106	1.060168	0.359195	0.008638
  36	1.7500e-02	1.4647	1.642295	0.000174	1.742454	0.590359	0.014197
  37	1.8000e-02	1.4711	1.735945	0.000230	2.298779	0.778848	0.018730
  38	1.8500e-02	1.5288	1.803082	0.000165	1.647983	0.558352	0.013427
  39	1.9000e-02	1.5208	1.892883	-0.000220	-2.204309	-0.746840	0.017960
  40	1.9500e-02	1.6187	1.959165	0.000163	1.626990	0.551239	0.013256
  41	2.0000e-02	1.6379	2.025019	0.000162	1.616493	0.547683	0.013171
  42	2.0500e-02	1.6796	2.096005	0.000174	1.742454	0.590359	0.014197
  43	2.1000e-02	1.7518	2.160149	0.000157	1.574506	0.533457	0.012829
  44	2.1500e-02	1.7663	2.231135	0.000174	1.742454	0.590359	0.014197
  45	2.2000e-02	1.7823	2.306397	0.000185	1.847421	0.625923	0.015052
  46	2.2500e-02	1.8385	2.374817	0.000168	1.679473	0.569021	0.013684
  47	2.3000e-02	1.8802	2.441954	0.000165	1.647983	0.558352	0.013427
  48	2.3500e-02	1.9106	2.533038	0.000224	2.235799	0.757509	0.018217
  49	2.4000e-02	1.9668	2.573663	0.000100	0.997187	0.337856	0.008125
  50	2.4500e-02	1.9828	2.663464	0.000220	2.204309	0.746840	0.017960
  51	2.5000e-02	2.0406	2.717345	0.000132	1.322585	0.448104	0.010776
  52	2.5500e-02	2.0999	2.796028	0.000193	1.931394	0.654374	0.015737
  53	2.6000e-02	2.1320	2.855895	0.000147	1.469539	0.497893	0.011974
  54	2.6500e-02	2.1737	2.914480	0.000144	1.438049	0.487224	0.011717
  55	2.7000e-02	2.1930	3.002571	0.000216	2.162322	0.732615	0.017618
  56	2.7500e-02	2.2411	3.084247	0.000200	2.004871	0.679269	0.016335
  57	2.8000e-02	2.2844	3.136418	0.000128	1.280599	0.433879	0.010434
  58	2.8500e-02	2.3438	3.176187	0.000098	0.976194	0.330743	0.007954
  59	2.9000e-02	2.3646	3.265988	0.000220	2.204309	0.746840	0.017960
  60	2.9500e-02	2.4144	3.341678	0.000186	1.857918	0.629479	0.015138
  61	3.0000e-02	2.4625	3.375032	0.000082	0.818743	0.277398	0.006671
  62	3.0500e-02	2.4801	3.476807	0.000250	2.498217	0.846419	0.020355
  63	3.1000e-02	2.5283	3.549504	0.000178	1.784441	0.604585	0.014539
  64	3.1500e-02	2.5395	3.611082	0.000151	1.511526	0.512119	0.012316
  65	3.2000e-02	2.5956	3.671377	0.000148	1.480036	0.501450	0.012059
  66	3.2500e-02	2.6358	3.754336	0.000204	2.036362	0.689938	0.016592
  67	3.3000e-02	2.6935	3.819335	0.000160	1.595500	0.540570	0.013000
  68	3.3500e-02	2.7015	3.886900	0.000166	1.658480	0.561908	0.013513
  69	3.4000e-02	2.7689	3.960451	0.000181	1.805434	0.611698	0.014710
  70	3.4500e-02	2.7785	4.029299	0.000169	1.689970	0.572577	0.013770
  71	3.5000e-02	2.8427	4.069496	0.000099	0.986691	0.334300	0.008039
  72	3.5500e-02	2.8860	4.141337	0.000176	1.763447	0.597472	0.014368
  73	3.6000e-02	2.9133	4.220448	0.000194	1.941891	0.657931	0.015822
  74	3.6500e-02	2.9646	4.286730	0.000163	1.626990	0.551239	0.013256
  75	3.7000e-02	3.0240	4.343176	0.000139	1.385566	0.469442	0.011289
  76	3.7500e-02	3.0593	4.407748	0.000159	1.585003	0.537014	0.012914
  77	3.8000e-02	3.0689	4.492417	0.000208	2.078348	0.704164	0.016934
  78	3.8500e-02	3.1218	4.554851	0.000153	1.532520	0.519232	0.012487
  79	3.9000e-02	3.1668	4.585640	0.000076	0.755763	0.256059	0.006158
  80	3.9500e-02	3.1924	4.649356	0.000156	1.564010	0.529901	0.012743
  81	4.0000e-02	3.2117	4.762676	0.000278	2.781628	0.942441	0.022664
  82	4.0500e-02	3.2887	4.815702	0.000130	1.301592	0.440991	0.010605
  83	4.1000e-02	3.3208	4.853333	0.000092	0.923710	0.312962	0.007526
  84	4.1500e-02	3.3593	4.928167	0.000184	1.836924	0.622367	0.014967
  85	4.2000e-02	3.4234	5.000436	0.000177	1.773944	0.601028	0.014454
  86	4.2500e-02	3.4443	5.056455	0.000138	1.375069	0.465886	0.011204
  87	4.3000e-02	3.4956	5.124875	0.000168	1.679473	0.569021	0.013684
  88	4.3500e-02	3.5309	5.179184	0.000133	1.333082	0.451660	0.010862
  89	4.4000e-02	3.5758	5.250597	0.000175	1.752950	0.593916	0.014283
  90	4.4500e-02	3.6063	5.295070	0.000109	1.091658	0.369864	0.008895
  91	4.5000e-02	3.6240	5.381023	0.000211	2.109839	0.714833	0.017191
  92	4.5500e-02	3.6881	5.440890	0.000147	1.469539	0.497893	0.011974
  93	4.6000e-02	3.7571	5.463127	0.000055	0.545829	0.184932	0.004447
  94	4.6500e-02	3.7667	5.560625	0.000239	2.393250	0.810855	0.019500
  95	4.7000e-02	3.8261	5.615361	0.000134	1.343579	0.455217	0.010947
  96	4.7500e-02	3.8229	5.690196	-0.000184	-1.836924	-0.622367	0.014967
  97	4.8000e-02	3.8999	5.735524	0.000111	1.112651	0.376976	0.009066
  98	4.8500e-02	3.9304	5.801378	0.000162	1.616493	0.547683	0.013171
  99	4.9000e-02	3.9833	5.867660	0.000163	1.626990	0.551239	0.013256
 100	4.9500e-02	4.0186	5.931376	0.000156	1.564010	0.529901	0.012743
 101	5.0000e-02	4.0491	6.001507	0.000172	1.721460	0.583247	0.014026
 102	5.0500e-02	4.0828	6.043414	0.000103	1.028677	0.348525	0.008381
 103	5.1000e-02	4.1389	6.098150	0.000134	1.343579	0.455217	0.010947
 104	5.1500e-02	4.1614	6.181537	0.000205	2.046858	0.693494	0.016677
 105	5.2000e-02	4.1983	6.225583	0.000108	1.081161	0.366307	0.008809
 106	5.2500e-02	4.2239	6.337193	0.000274	2.739641	0.928216	0.022322
 107	5.3000e-02	4.2817	6.381666	0.000109	1.091658	0.369864	0.008895
 108	5.3500e-02	4.3330	6.403902	0.000055	0.545829	0.184932	0.004447
 109	5.4000e-02	4.3587	6.485579	0.000200	2.004871	0.679269	0.016335
 110	5.4500e-02	4.4020	6.550578	0.000160	1.595500	0.540570	0.013000
 111	5.5000e-02	4.4389	6.610018	0.000146	1.459043	0.494337	0.011888
 112	5.5500e-02	4.4646	6.683569	0.000181	1.805434	0.611698	0.014710
 113	5.6000e-02	4.5528	6.721200	0.000092	0.923710	0.312962	0.007526
 114	5.6500e-02	4.5865	6.761397	0.000099	0.986691	0.334300	0.008039
 115	5.7000e-02	4.6074	6.853336	0.000226	2.256792	0.764622	0.018388
 116	5.7500e-02	4.6314	6.915342	0.000152	1.522023	0.515675	0.012401
 117	5.8000e-02	4.6683	6.959815	0.000109	1.091658	0.369864	0.008895
 118	5.8500e-02	4.7405	7.004716	0.000110	1.102154	0.373420	0.008980
 119	5.9000e-02	4.7662	7.074419	0.000171	1.710964	0.579690	0.013941
 120	5.9500e-02	4.8015	7.140701	0.000163	1.626990	0.551239	0.013256
 121	6.0000e-02	4.8287	7.205700	0.000160	1.595500	0.540570	0.013000
 122	6.0500e-02	4.9025	7.254877	0.000121	1.207122	0.408984	0.009835
 123	6.1000e-02	4.9234	7.336553	0.000200	2.004871	0.679269	0.016335
 124	6.1500e-02	4.9763	7.372474	0.000088	0.881724	0.298736	0.007184
 125	6.2000e-02	4.9956	7.431058	0.000144	1.438049	0.487224	0.011717
 126	6.2500e-02	5.0309	7.493919	0.000154	1.543016	0.522788	0.012572
 127	6.3000e-02	5.0902	7.575168	0.000199	1.994375	0.675712	0.016250
 128	6.3500e-02	5.1175	7.606812	0.000078	0.776756	0.263172	0.006329
 129	6.4000e-02	5.1560	7.690627	0.000206	2.057355	0.697051	0.016763
 130	6.4500e-02	5.2234	7.723982	0.000082	0.818743	0.277398	0.006671
 131	6.5000e-02	5.2266	7.800954	0.000189	1.889408	0.640149	0.015395
 132	6.5500e-02	5.2876	7.836019	0.000086	0.860730	0.291623	0.007013
 133	6.6000e-02	5.3228	7.908716	0.000178	1.784441	0.604585	0.014539
 134	6.6500e-02	5.3678	7.940360	0.000078	0.776756	0.263172	0.006329
 135	6.7000e-02	5.4095	8.011346	0.000174	1.742454	0.590359	0.014197
 136	6.7500e-02	5.4223	8.074207	0.000154	1.543016	0.522788	0.012572
 137	6.8000e-02	5.4897	8.113976	0.000098	0.976194	0.330743	0.007954
 138	6.8500e-02	5.5170	8.194797	0.000198	1.983878	0.672156	0.016164
 139	6.9000e-02	5.5426	8.238842	0.000108	1.081161	0.366307	0.008809
 140	6.9500e-02	5.5988	8.314532	0.000186	1.857918	0.629479	0.015138
 141	7.0000e-02	5.6581	8.344466	0.000073	0.734770	0.248947	0.005987
 142	7.0500e-02	5.6758	8.421866	0.000190	1.899904	0.643705	0.015480
 143	7.1000e-02	5.7351	8.456076	0.000084	0.839737	0.284511	0.006842
 144	7.1500e-02	5.7480	8.527489	0.000175	1.752950	0.593916	0.014283
 145	7.2000e-02	5.8105	8.587357	0.000147	1.469539	0.497893	0.011974
 146	7.2500e-02	5.8603	8.629692	0.000104	1.039174	0.352082	0.008467
 147	7.3000e-02	5.9148	8.669461	0.000098	0.976194	0.330743	0.007954
 148	7.3500e-02	5.9341	8.725052	0.000136	1.364572	0.462330	0.011118
 149	7.4000e-02	5.9645	8.793472	0.000168	1.679473	0.569021	0.013684
 150	7.4500e-02	5.9998	8.846070	0.000129	1.291095	0.437435	0.010520
 151	7.5000e-02	6.0415	8.920049	0.000182	1.815931	0.615254	0.014796
 152	7.5500e-02	6.0560	8.970937	0.000125	1.249108	0.423209	0.010177
 153	7.6000e-02	6.1250	9.021824	0.000125	1.249108	0.423209	0.010177
 154	7.6500e-02	6.1490	9.079981	0.000143	1.427552	0.483668	0.011631
 155	7.7000e-02	6.1891	9.134290	0.000133	1.333082	0.451660	0.010862
 156	7.7500e-02	6.2437	9.189453	0.000135	1.354075	0.458773	0.011033
 157	7.8000e-02	6.2966	9.225801	0.000089	0.892220	0.302292	0.007270
 158	7.8500e-02	6.3271	9.294649	0.000169	1.689970	0.572577	0.013770
 159	7.9000e-02	6.3496	9.360931	0.000163	1.626990	0.551239	0.013256
 160	7.9500e-02	6.4137	9.418660	0.000142	1.417056	0.480111	0.011546
 161	8.0000e-02	6.4298	9.466555	0.000118	1.175631	0.398315	0.009579
 162	8.0500e-02	6.4987	9.514876	0.000119	1.186128	0.401871	0.009664
 163	8.1000e-02	6.4987	9.590993	-0.000187	-1.868414	-0.633036	0.015223
 164	8.1500e-02	6.5565	9.637177	0.000113	1.133645	0.384089	0.009237
 165	8.2000e-02	6.6046	9.671815	0.000085	0.850233	0.288067	0.006928
 166	8.2500e-02	6.6511	9.713294	0.000102	1.018181	0.344969	0.008296
 167	8.3000e-02	6.6800	9.771024	0.000142	1.417056	0.480111	0.011546
 168	8.3500e-02	6.7265	9.825760	0.000134	1.343579	0.455217	0.010947
 169	8.4000e-02	6.7683	9.894180	0.000168	1.679473	0.569021	0.013684
 170	8.4500e-02	6.7987	9.934804	0.000100	0.997187	0.337856	0.008125
 171	8.5000e-02	6.8308	9.998093	0.000155	1.553513	0.526344	0.012658
 172	8.5500e-02	6.8886	10.039572	0.000102	1.018181	0.344969	0.008296
 173	8.6000e-02	6.9287	10.101150	0.000151	1.511526	0.512119	0.012316
 174	8.6500e-02	6.9768	10.141775	0.000100	0.997187	0.337856	0.008125
 175	8.7000e-02	6.9848	10.223451	0.000200	2.004871	0.679269	0.016335
 176	8.7500e-02	7.0618	10.273483	0.000123	1.228115	0.416097	0.010006
 177	8.8000e-02	7.0907	10.300424	0.000066	0.661293	0.224052	0.005388
 178	8.8500e-02	7.1180	10.374403	0.000182	1.815931	0.615254	0.014796
 179	8.9000e-02	7.1549	10.423152	0.000120	1.196625	0.405427	0.009750
 180	8.9500e-02	7.1982	10.458218	0.000086	0.860730	0.291623	0.007013
 181	9.0000e-02	7.2559	10.520223	0.000152	1.522023	0.515675	0.012401
 182	9.0500e-02	7.2993	10.546308	0.000064	0.640299	0.216939	0.005217
 183	9.1000e-02	7.3025	10.624991	0.000193	1.931394	0.654374	0.015737
 184	9.1500e-02	7.3939	10.656208	0.000077	0.766260	0.259616	0.006243
 185	9.2000e-02	7.4180	10.751141	0.000233	2.330269	0.789517	0.018987
 186	9.2500e-02	7.4436	10.778936	0.000068	0.682286	0.231165	0.005559
 187	9.3000e-02	7.4661	10.824265	0.000111	1.112651	0.376976	0.009066
 188	9.3500e-02	7.5014	10.910217	0.000211	2.109839	0.714833	0.017191
 189	9.4000e-02	7.5944	10.922619	0.000030	0.304405	0.103135	0.002480
 190	9.4500e-02	7.5880	11.001729	-0.000194	-1.941891	-0.657931	0.015822
 191	9.5000e-02	7.6361	11.056038	0.000133	1.333082	0.451660	0.010862
 192	9.5500e-02	7.6795	11.101794	0.000112	1.123148	0.380533	0.009151
 193	9.6000e-02	7.7115	11.158240	0.000139	1.385566	0.469442	0.011289
 194	9.6500e-02	7.7725	11.198009	0.000098	0.976194	0.330743	0.007954
 195	9.7000e-02	7.8126	11.225805	0.000068	0.682286	0.231165	0.005559
 196	9.7500e-02	7.8287	11.308337	0.000203	2.025865	0.686382	0.016506
 197	9.8000e-02	7.8816	11.357086	0.000120	1.196625	0.405427	0.009750
 198	9.8500e-02	7.9329	11.392151	0.000086	0.860730	0.291623	0.007013
 199	9.9000e-02	7.9843	11.434486	0.000104	1.039174	0.352082	0.008467
 200	9.9500e-02	7.9795	11.515307	-0.000198	-1.983878	-0.672156	0.016164
 201	1.0000e-01	8.0597	11.540537	0.000062	0.619306	0.209826	0.005046
 202	1.0050e-01	8.0934	11.597411	0.000140	1.396062	0.472999	0.011375
 203	1.0100e-01	8.0998	11.678660	0.000199	1.994375	0.675712	0.016250
 204	1.0150e-01	8.1784	11.687640	0.000022	0.220431	0.074684	0.001796
 205	1.0200e-01	8.1928	11.762047	0.000183	1.826427	0.618810	0.014881
 206	1.0250e-01	8.2377	11.811652	0.000122	1.217618	0.412540	0.009921
 207	1.0300e-01	8.2955	11.859118	0.000117	1.165135	0.394758	0.009493
 208	1.0350e-01	8.3260	11.901453	0.000104	1.039174	0.352082	0.008467
 209	1.0400e-01	8.3693	11.968590	0.000165	1.647983	0.558352	0.013427
 210	1.0450e-01	8.4190	12.004511	0.000088	0.881724	0.298736	0.007184
 211	1.0500e-01	8.4078	12.067371	-0.000154	-1.543016	-0.522788	0.012572
 212	1.0550e-01	8.4944	12.127239	0.000147	1.469539	0.497893	0.011974
 213	1.0600e-01	8.5281	12.161021	0.000083	0.829240	0.280954	0.006756
 214	1.0650e-01	8.5666	12.196514	0.000087	0.871227	0.295180	0.007099
 215	1.0700e-01	8.5971	12.252961	0.000139	1.385566	0.469442	0.011289
 216	1.0750e-01	8.6484	12.298289	0.000111	1.112651	0.376976	0.009066
 217	1.0800e-01	8.6677	12.352597	0.000133	1.333082	0.451660	0.010862
 218	1.0850e-01	8.7447	12.393650	0.000101	1.007684	0.341413	0.008210
 219	1.0900e-01	8.7575	12.466773	0.000179	1.794937	0.608141	0.014625
 220	1.0950e-01	8.8441	12.489438	0.000056	0.556326	0.188488	0.004533
 221	1.1000e-01	8.8361	12.550160	-0.000149	-1.490533	-0.505006	0.012145
 222	1.1050e-01	8.8874	12.591640	0.000102	1.018181	0.344969	0.008296
 223	1.1100e-01	8.9260	12.637824	0.000113	1.133645	0.384089	0.009237
 224	1.1150e-01	8.9420	12.708382	0.000173	1.731957	0.586803	0.014112
 225	1.1200e-01	9.0238	12.753710	0.000111	1.112651	0.376976	0.009066
 226	1.1250e-01	9.0126	12.799466	-0.000112	-1.123148	-0.380533	0.009151
 227	1.1300e-01	9.0928	12.831538	0.000079	0.787253	0.266729	0.006414
 228	1.1350e-01	9.1265	12.905517	0.000182	1.815931	0.615254	0.014796
 229	1.1400e-01	9.1746	12.912787	0.000018	0.178444	0.060458	0.001454
 230	1.1450e-01	9.1762	13.006009	0.000229	2.288283	0.775291	0.018644
 231	1.1500e-01	9.2404	13.032949	0.000066	0.661293	0.224052	0.005388
 232	1.1550e-01	9.2789	13.106928	0.000182	1.815931	0.615254	0.014796
 233	1.1600e-01	9.3238	13.138573	0.000078	0.776756	0.263172	0.006329
 234	1.1650e-01	9.3848	13.163803	0.000062	0.619306	0.209826	0.005046
 235	1.1700e-01	9.3944	13.245907	0.000202	2.015368	0.682825	0.016421
 236	1.1750e-01	9.4329	13.271137	0.000062	0.619306	0.209826	0.005046
 237	1.1800e-01	9.4874	13.336563	0.000161	1.605997	0.544126	0.013085
 238	1.1850e-01	9.5035	13.388306	0.000127	1.270102	0.430322	0.010349
 239	1.1900e-01	9.5516	13.396003	0.000019	0.188941	0.064015	0.001539
 240	1.1950e-01	9.5853	13.484949	0.000218	2.183316	0.739727	0.017789
 241	1.2000e-01	9.6703	13.510179	0.000062	0.619306	0.209826	0.005046
 242	1.2050e-01	9.7120	13.525146	0.000037	0.367385	0.124473	0.002993
 243	1.2100e-01	9.6944	13.617941	-0.000228	-2.277786	-0.771735	0.018559
 244	1.2150e-01	9.7505	13.656427	0.000094	0.944704	0.320074	0.007697
 245	1.2200e-01	9.8259	13.691065	0.000085	0.850233	0.288067	0.006928
 246	1.2250e-01	9.8115	13.762906	-0.000176	-1.763447	-0.597472	0.014368
 247	1.2300e-01	9.8692	13.803958	0.000101	1.007684	0.341413	0.008210
 248	1.2350e-01	9.9254	13.839451	0.000087	0.871227	0.295180	0.007099
 249	1.2400e-01	9.9639	13.898890	0.000146	1.459043	0.494337	0.011888
 250	1.2450e-01	10.0104	13.946357	0.000117	1.165135	0.394758	0.009493
 251	1.2500e-01	10.0329	13.986126	0.000098	0.976194	0.330743	0.007954
 252	1.2550e-01	10.0650	14.030599	0.000109	1.091658	0.369864	0.008895
 253	1.2600e-01	10.1291	14.083197	0.000129	1.291095	0.437435	0.010520
 254	1.2650e-01	10.1692	14.122539	0.000097	0.965697	0.327187	0.007868
 255	1.2700e-01	10.1997	14.187965	0.000161	1.605997	0.544126	0.013085
 256	1.2750e-01	10.2270	14.205498	0.000043	0.430365	0.145812	0.003507
 257	1.2800e-01	10.2575	14.264938	0.000146	1.459043	0.494337	0.011888
 258	1.2850e-01	10.3200	14.301713	0.000090	0.902717	0.305849	0.007355
 259	1.2900e-01	10.3922	14.345331	0.000107	1.070664	0.362751	0.008724
 260	1.2950e-01	10.3954	14.392370	0.000115	1.154638	0.391202	0.009408
 261	1.3000e-01	10.4452	14.465922	0.000181	1.805434	0.611698	0.014710
 262	1.3050e-01	10.4981	14.485592	0.000048	0.482849	0.163594	0.003934
 263	1.3100e-01	10.5254	14.542467	0.000140	1.396062	0.472999	0.011375
 264	1.3150e-01	10.5575	14.603189	0.000149	1.490533	0.505006	0.012145
 265	1.3200e-01	10.5911	14.634406	0.000077	0.766260	0.259616	0.006243
 266	1.3250e-01	10.6473	14.677168	0.000105	1.049671	0.355638	0.008553
 267	1.3300e-01	10.7083	14.725490	0.000119	1.186128	0.401871	0.009664
 268	1.3350e-01	10.7034	14.773812	-0.000119	-1.186128	-0.401871	0.009664
 269	1.3400e-01	10.7580	14.811443	0.000092	0.923710	0.312962	0.007526
 270	1.3450e-01	10.7901	14.855916	0.000109	1.091658	0.369864	0.008895
 271	1.3500e-01	10.8398	14.929895	0.000182	1.815931	0.615254	0.014796
 272	1.3550e-01	10.8895	14.949138	0.000047	0.472352	0.160037	0.003849
 273	1.3600e-01	10.9361	15.006012	0.000140	1.396062	0.472999	0.011375
 274	1.3650e-01	10.9697	15.052196	0.000113	1.133645	0.384089	0.009237
 275	1.3700e-01	11.0066	15.073149	0.000051	0.514339	0.174263	0.004191
 276	1.3750e-01	11.0339	15.147556	0.000183	1.826427	0.618810	0.014881
 277	1.3800e-01	11.0740	15.194595	0.000115	1.154638	0.391202	0.009408
 278	1.3850e-01	11.1221	15.234792	0.000099	0.986691	0.334300	0.008039
 279	1.3900e-01	11.1558	15.282686	0.000118	1.175631	0.398315	0.009579
 280	1.3950e-01	11.2056	15.328014	0.000111	1.112651	0.376976	0.009066
 281	1.4000e-01	11.2184	15.380184	0.000128	1.280599	0.433879	0.010434
 282	1.4050e-01	11.2986	15.399000	0.000046	0.461855	0.156481	0.003763
 283	1.4100e-01	11.3147	15.459295	0.000148	1.480036	0.501450	0.012059
 284	1.4150e-01	11.3628	15.511893	0.000129	1.291095	0.437435	0.010520
 285	1.4200e-01	11.3868	15.541827	0.000073	0.734770	0.248947	0.005987
 286	1.4250e-01	11.4462	15.570905	0.000071	0.713776	0.241834	0.005816
 287	1.4300e-01	11.4927	15.616234	0.000111	1.112651	0.376976	0.009066
 288	1.4350e-01	11.5056	15.672680	0.000139	1.385566	0.469442	0.011289
 289	1.4400e-01	11.5617	15.732548	0.000147	1.469539	0.497893	0.011974
 290	1.4450e-01	11.6162	15.761199	0.000070	0.703280	0.238278	0.005730
 291	1.4500e-01	11.6499	15.794981	0.000083	0.829240	0.280954	0.006756
 292	1.4550e-01	11.6756	15.842020	0.000115	1.154638	0.391202	0.009408
 293	1.4600e-01	11.7093	15.907446	0.000161	1.605997	0.544126	0.013085
 294	1.4650e-01	11.7622	15.942939	0.000087	0.871227	0.295180	0.007099
 295	1.4700e-01	11.8072	15.978432	0.000087	0.871227	0.295180	0.007099
 296	1.4750e-01	11.8457	16.028892	0.000124	1.238612	0.419653	0.010092
 297	1.4800e-01	11.8809	16.064385	0.000087	0.871227	0.295180	0.007099
 298	1.4850e-01	11.9323	16.119976	0.000136	1.364572	0.462330	0.011118
 299	1.4900e-01	11.9676	16.156752	0.000090	0.902717	0.305849	0.007355
 300	1.4950e-01	11.9884	16.217047	0.000148	1.480036	0.501450	0.012059
 301	1.5000e-01	12.0462	16.249119	0.000079	0.787253	0.266729	0.006414
 302	1.5050e-01	12.0911	16.277342	0.000069	0.692783	0.234721	0.005645
 303	1.5100e-01	12.1312	16.332506	0.000135	1.354075	0.458773	0.011033
 304	1.5150e-01	12.1569	16.376979	0.000109	1.091658	0.369864	0.008895
 305	1.5200e-01	12.1986	16.429149	0.000128	1.280599	0.433879	0.010434
 306	1.5250e-01	12.2259	16.469346	0.000099	0.986691	0.334300	0.008039
 307	1.5300e-01	12.2772	16.509115	0.000098	0.976194	0.330743	0.007954
 308	1.5350e-01	12.3430	16.555299	0.000113	1.133645	0.384089	0.009237
 309	1.5400e-01	12.3510	16.586943	0.000078	0.776756	0.263172	0.006329
 310	1.5450e-01	12.4168	16.620725	0.000083	0.829240	0.280954	0.006756
 311	1.5500e-01	12.4424	16.704968	0.000207	2.067852	0.700607	0.016848
 312	1.5550e-01	12.4761	16.719507	0.000036	0.356888	0.120917	0.002908
 313	1.5600e-01	12.5531	16.774243	0.000134	1.343579	0.455217	0.010947
 314	1.5650e-01	12.5964	16.808880	0.000085	0.850233	0.288067	0.006928
 315	1.5700e-01	12.6173	16.872597	0.000156	1.564010	0.529901	0.012743
 316	1.5750e-01	12.6157	16.907234	-0.000085	-0.850233	-0.288067	0.006928
 317	1.5800e-01	12.6911	16.950424	0.000106	1.060168	0.359195	0.008638
 318	1.5850e-01	12.7135	16.992332	0.000103	1.028677	0.348525	0.008381
 319	1.5900e-01	12.7601	17.027397	0.000086	0.860730	0.291623	0.007013
 320	1.5950e-01	12.8018	17.066311	0.000096	0.955201	0.323631	0.007783
 321	1.6000e-01	12.8451	17.122757	0.000139	1.385566	0.469442	0.011289
 322	1.6050e-01	12.8611	17.153119	0.000075	0.745266	0.252503	0.006072
 323	1.6100e-01	12.8964	17.197592	0.000109	1.091658	0.369864	0.008895
 324	1.6150e-01	12.9333	17.282262	0.000208	2.078348	0.704164	0.016934
 325	1.6200e-01	13.0055	17.274564	-0.000019	-0.188941	-0.064015	-0.001539
 326	1.6250e-01	13.0472	17.324169	0.000122	1.217618	0.412540	0.009921
 327	1.6300e-01	13.0921	17.375912	0.000127	1.270102	0.430322	0.010349
 328	1.6350e-01	13.1210	17.409266	0.000082	0.818743	0.277398	0.006671
 329	1.6400e-01	13.1290	17.450746	0.000102	1.018181	0.344969	0.008296
 330	1.6450e-01	13.1916	17.501633	0.000125	1.249108	0.423209	0.010177
 331	1.6500e-01	13.2205	17.530712	0.000071	0.713776	0.241834	0.005816
 332	1.6550e-01	13.2830	17.583737	0.000130	1.301592	0.440991	0.010605
 333	1.6600e-01	13.3055	17.632487	0.000120	1.196625	0.405427	0.009750
 334	1.6650e-01	13.3568	17.647454	0.000037	0.367385	0.124473	0.002993
 335	1.6700e-01	13.3841	17.700479	0.000130	1.301592	0.440991	0.010605
 336	1.6750e-01	13.4242	17.745807	0.000111	1.112651	0.376976	0.009066
 337	1.6800e-01	13.4595	17.784721	0.000096	0.955201	0.323631	0.007783
 338	1.6850e-01	13.5028	17.821497	0.000090	0.902717	0.305849	0.007355
 339	1.6900e-01	13.5237	17.897614	0.000187	1.868414	0.633036	0.015223
 340	1.6950e-01	13.5895	17.905312	0.000019	0.188941	0.064015	0.001539
 341	1.7000e-01	13.6697	17.937811	0.000080	0.797750	0.270285	0.006500
 342	1.7050e-01	13.6889	17.995541	0.000142	1.417056	0.480111	0.011546
 343	1.7100e-01	13.7178	18.028895	0.000082	0.818743	0.277398	0.006671
 344	1.7150e-01	13.7547	18.083631	0.000134	1.343579	0.455217	0.010947
 345	1.7200e-01	13.8076	18.125111	0.000102	1.018181	0.344969	0.008296
 346	1.7250e-01	13.8429	18.141361	0.000040	0.398875	0.135142	0.003250
 347	1.7300e-01	13.8798	18.185834	0.000109	1.091658	0.369864	0.008895
 348	1.7350e-01	13.9263	18.223037	0.000091	0.913214	0.309405	0.007441
 349	1.7400e-01	13.9713	18.267083	0.000108	1.081161	0.366307	0.008809
 350	1.7450e-01	14.0114	18.310273	0.000106	1.060168	0.359195	0.008638
 351	1.7500e-01	14.0435	18.366719	0.000139	1.385566	0.469442	0.011289
 352	1.7550e-01	14.0996	18.403923	0.000091	0.913214	0.309405	0.007441
 353	1.7600e-01	14.1541	18.427870	0.000059	0.587816	0.199157	0.004789
 354	1.7650e-01	14.1477	18.463363	-0.000087	-0.871227	-0.295180	0.007099
 355	1.7700e-01	14.1910	18.539480	0.000187	1.868414	0.633036	0.015223
 356	1.7750e-01	14.2247	18.580532	0.000101	1.007684	0.341413	0.008210
 357	1.7800e-01	14.3001	18.595499	0.000037	0.367385	0.124473	0.002993
 358	1.7850e-01	14.3017	18.628426	0.000081	0.808247	0.273841	0.006585
 359	1.7900e-01	14.3659	18.688294	0.000147	1.469539	0.497893	0.011974
 360	1.7950e-01	14.4028	18.721221	0.000081	0.808247	0.273841	0.006585
 361	1.8000e-01	14.4606	18.782371	0.000150	1.501029	0.508563	0.012230
 362	1.8050e-01	14.5007	18.793062	0.000026	0.262418	0.088910	0.002138
 363	1.8100e-01	14.5119	18.848225	0.000135	1.354075	0.458773	0.011033
 364	1.8150e-01	14.5600	18.873028	0.000061	0.608809	0.206270	0.004960
 365	1.8200e-01	14.5889	18.965395	0.000227	2.267289	0.768178	0.018473
 366	1.8250e-01	14.6322	18.961974	-0.000008	-0.083974	-0.028451	-0.000684
 367	1.8300e-01	14.6675	19.017993	0.000138	1.375069	0.465886	0.011204
 368	1.8350e-01	14.7285	19.046644	0.000070	0.703280	0.238278	0.005730
 369	1.8400e-01	14.7814	19.087268	0.000100	0.997187	0.337856	0.008125
 370	1.8450e-01	14.8231	19.107794	0.000050	0.503842	0.170706	0.004105
 371	1.8500e-01	14.8343	19.165951	0.000143	1.427552	0.483668	0.011631
 372	1.8550e-01	14.8857	19.202727	0.000090	0.902717	0.305849	0.007355
 373	1.8600e-01	14.9290	19.245062	0.000104	1.039174	0.352082	0.008467
 374	1.8650e-01	14.9450	19.285258	0.000099	0.986691	0.334300	0.008039
 375	1.8700e-01	14.9787	19.331442	0.000113	1.133645	0.384089	0.009237
 376	1.8750e-01	15.0285	19.372494	0.000101	1.007684	0.341413	0.008210
 377	1.8800e-01	15.0766	19.397296	0.000061	0.608809	0.206270	0.004960
 378	1.8850e-01	15.1488	19.438776	0.000102	1.018181	0.344969	0.008296
 379	1.8900e-01	15.1632	19.478117	0.000097	0.965697	0.327187	0.007868
 380	1.8950e-01	15.2033	19.528150	0.000123	1.228115	0.416097	0.010006
 381	1.9000e-01	15.2402	19.564070	0.000088	0.881724	0.298736	0.007184
 382	1.9050e-01	15.2787	19.637622	0.000181	1.805434	0.611698	0.014710
 383	1.9100e-01	15.3124	19.635484	-0.000005	-0.052484	-0.017782	-0.000428
 384	1.9150e-01	15.3686	19.682095	0.000114	1.144141	0.387646	0.009322
 385	1.9200e-01	15.4119	19.724002	0.000103	1.028677	0.348525	0.008381
 386	1.9250e-01	15.4552	19.741107	0.000042	0.419868	0.142255	0.003421
 387	1.9300e-01	15.4648	19.827487	0.000212	2.120335	0.718389	0.017276
 388	1.9350e-01	15.5290	19.834757	0.000018	0.178444	0.060458	0.001454
 389	1.9400e-01	15.5659	19.865546	0.000076	0.755763	0.256059	0.006158
 390	1.9450e-01	15.6044	19.926696	0.000150	1.501029	0.508563	0.012230
 391	1.9500e-01	15.6381	19.968604	0.000103	1.028677	0.348525	0.008381
 392	1.9550e-01	15.6942	19.983998	0.000038	0.377882	0.128030	0.003079
 393	1.9600e-01	15.7215	20.035313	0.000126	1.259605	0.426766	0.010263
 394	1.9650e-01	15.7600	20.065247	0.000073	0.734770	0.248947	0.005987
 395	1.9700e-01	15.8017	20.103733	0.000094	0.944704	0.320074	0.007697
 396	1.9750e-01	15.8418	20.149917	0.000113	1.133645	0.384089	0.009237
 397	1.9800e-01	15.8755	20.198238	0.000119	1.186128	0.401871	0.009664
 398	1.9850e-01	15.9429	20.226889	0.000070	0.703280	0.238278	0.005730
 399	1.9900e-01	15.9605	20.264520	0.000092	0.923710	0.312962	0.007526
 400	1.9950e-01	15.9685	20.329092	0.000159	1.585003	0.537014	0.012914
 401	2.0000e-01	16.0343	20.332085	0.000007	0.073477	0.024895	0.000599
 402	2.0050e-01	16.0744	20.377841	0.000112	1.123148	0.380533	0.009151
 403	2.0100e-01	16.1290	20.410341	0.000080	0.797750	0.270285	0.006500
 404	2.0150e-01	16.1835	20.449254	0.000096	0.955201	0.323631	0.007783
 405	2.0200e-01	16.1723	20.505701	-0.000139	-1.385566	-0.469442	0.011289
 406	2.0250e-01	16.2669	20.517674	0.000029	0.293908	0.099579	0.002395
 407	2.0300e-01	16.2637	20.589088	-0.000175	-1.752950	-0.593916	0.014283
 408	2.0350e-01	16.2878	20.605338	0.000040	0.398875	0.135142	0.003250
 409	2.0400e-01	16.3455	20.648955	0.000107	1.070664	0.362751	0.008724
 410	2.0450e-01	16.3840	20.681027	0.000079	0.787253	0.266729	0.006414
 411	2.0500e-01	16.4338	20.725928	0.000110	1.102154	0.373420	0.008980
 412	2.0550e-01	16.4642	20.775105	0.000121	1.207122	0.408984	0.009835
 413	2.0600e-01	16.5108	20.821716	0.000114	1.144141	0.387646	0.009322
 414	2.0650e-01	16.5621	20.834117	0.000030	0.304405	0.103135	0.002480
 415	2.0700e-01	16.6279	20.867472	0.000082	0.818743	0.277398	0.006671
 416	2.0750e-01	16.6359	20.909807	0.000104	1.039174	0.352082	0.008467
 417	2.0800e-01	16.6439	20.978227	0.000168	1.679473	0.569021	0.013684
 418	2.0850e-01	16.7434	20.982931	0.000012	0.115464	0.039120	0.000941
 419	2.0900e-01	16.7562	21.044936	0.000152	1.522023	0.515675	0.012401
 420	2.0950e-01	16.8156	21.053061	0.000020	0.199437	0.067571	0.001625
 421	2.1000e-01	16.8525	21.096251	0.000106	1.060168	0.359195	0.008638
 422	2.1050e-01	16.8894	21.155691	0.000146	1.459043	0.494337	0.011888
 423	2.1100e-01	16.9006	21.178783	0.000057	0.566822	0.192045	0.004618
 424	2.1150e-01	16.9696	21.202730	0.000059	0.587816	0.199157	0.004789
 425	2.1200e-01	17.0017	21.258321	0.000136	1.364572	0.462330	0.011118
 426	2.1250e-01	17.0289	21.295525	0.000091	0.913214	0.309405	0.007441
 427	2.1300e-01	17.0819	21.321182	0.000063	0.629803	0.213383	0.005132
 428	2.1350e-01	17.1476	21.362234	0.000101	1.007684	0.341413	0.008210
 429	2.1400e-01	17.1605	21.399865	0.000092	0.923710	0.312962	0.007526
 430	2.1450e-01	17.1573	21.445194	-0.000111	-1.112651	-0.376976	0.009066
 431	2.1500e-01	17.2343	21.505061	0.000147	1.469539	0.497893	0.011974
 432	2.1550e-01	17.2648	21.506344	0.000003	0.031490	0.010669	0.000257
 433	2.1600e-01	17.3113	21.552955	0.000114	1.144141	0.387646	0.009322
 434	2.1650e-01	17.3674	21.581179	0.000069	0.692783	0.234721	0.005645
 435	2.1700e-01	17.4043	21.635059	0.000132	1.322585	0.448104	0.010776
 436	2.1750e-01	17.4412	21.669269	0.000084	0.839737	0.284511	0.006842
 437	2.1800e-01	17.4910	21.703907	0.000085	0.850233	0.288067	0.006928
 438	2.1850e-01	17.5295	21.734268	0.000075	0.745266	0.252503	0.006072
 439	2.1900e-01	17.5535	21.786011	0.000127	1.270102	0.430322	0.010349
 440	2.1950e-01	17.6257	21.813807	0.000068	0.682286	0.231165	0.005559
 441	2.2000e-01	17.6193	21.845451	-0.000078	-0.776756	-0.263172	0.006329
 442	2.2050e-01	17.6770	21.902753	0.000141	1.406559	0.476555	0.011460
 443	2.2100e-01	17.7236	21.929266	0.000065	0.650796	0.220496	0.005303
 444	2.2150e-01	17.7540	21.973311	0.000108	1.081161	0.366307	0.008809
 445	2.2200e-01	17.7958	22.012652	0.000097	0.965697	0.327187	0.007868
 446	2.2250e-01	17.8439	22.047718	0.000086	0.860730	0.291623	0.007013
 447	2.2300e-01	17.8663	22.075941	0.000069	0.692783	0.234721	0.005645
 448	2.2350e-01	17.9097	22.125118	0.000121	1.207122	0.408984	0.009835
 449	2.2400e-01	17.9738	22.152058	0.000066	0.661293	0.224052	0.005388
 450	2.2450e-01	18.0300	22.172584	0.000050	0.503842	0.170706	0.004105
 451	2.2500e-01	18.0412	22.239721	0.000165	1.647983	0.558352	0.013427
 452	2.2550e-01	18.0941	22.252978	0.000033	0.325398	0.110248	0.002651
 453	2.2600e-01	18.1262	22.300872	0.000118	1.175631	0.398315	0.009579
 454	2.2650e-01	18.1824	22.324391	0.000058	0.577319	0.195601	0.004704
 455	2.2700e-01	18.1984	22.367581	0.000106	1.060168	0.359195	0.008638
 456	2.2750e-01	18.2369	22.416758	0.000121	1.207122	0.408984	0.009835
 457	2.2800e-01	18.2786	22.440705	0.000059	0.587816	0.199157	0.004789
 458	2.2850e-01	18.3091	22.490310	0.000122	1.217618	0.412540	0.009921
 459	2.2900e-01	18.3637	22.525803	0.000087	0.871227	0.295180	0.007099
 460	2.2950e-01	18.4086	22.560013	0.000084	0.839737	0.284511	0.006842
 461	2.3000e-01	18.4519	22.571559	0.000028	0.283411	0.096022	0.002309
 462	2.3050e-01	18.5048	22.611755	0.000099	0.986691	0.334300	0.008039
 463	2.3100e-01	18.4968	22.680603	-0.000169	-1.689970	-0.572577	0.013770
 464	2.3150e-01	18.5915	22.692149	0.000028	0.283411	0.096022	0.002309
 465	2.3200e-01	18.6011	22.737477	0.000111	1.112651	0.376976	0.009066
 466	2.3250e-01	18.6284	22.768266	0.000076	0.755763	0.256059	0.006158
 467	2.3300e-01	18.6669	22.838824	0.000173	1.731957	0.586803	0.014112
 468	2.3350e-01	18.7070	22.831555	-0.000018	-0.178444	-0.060458	-0.001454
 469	2.3400e-01	18.7727	22.879021	0.000117	1.165135	0.394758	0.009493
 470	2.3450e-01	18.7824	22.905962	0.000066	0.661293	0.224052	0.005388
 471	2.3500e-01	18.8273	22.977375	0.000175	1.752950	0.593916	0.014283
 472	2.3550e-01	18.8850	22.991487	0.000035	0.346391	0.117361	0.002822
 473	2.3600e-01	18.9412	23.011157	0.000048	0.482849	0.163594	0.003934
 474	2.3650e-01	18.9652	23.065466	0.000133	1.333082	0.451660	0.010862
 475	2.3700e-01	18.9925	23.082143	0.000041	0.409372	0.138699	0.003335
 476	2.3750e-01	19.0471	23.133458	0.000126	1.259605	0.426766	0.010263
 477	2.3800e-01	19.0503	23.162537	0.000071	0.713776	0.241834	0.005816
 478	2.3850e-01	19.1064	23.203161	0.000100	0.997187	0.337856	0.008125
 479	2.3900e-01	19.1529	23.236944	0.000083	0.829240	0.280954	0.006756
 480	2.3950e-01	19.2139	23.275858	0.000096	0.955201	0.323631	0.007783
 481	2.4000e-01	19.2444	23.305791	0.000073	0.734770	0.248947	0.005987
 482	2.4050e-01	19.2540	23.353258	0.000117	1.165135	0.394758	0.009493
 483	2.4100e-01	19.3134	23.407566	0.000133	1.333082	0.451660	0.010862
 484	2.4150e-01	19.3791	23.409704	0.000005	0.052484	0.017782	0.000428
 485	2.4200e-01	19.4208	23.443914	0.000084	0.839737	0.284511	0.006842
 486	2.4250e-01	19.4224	23.515328	0.000175	1.752950	0.593916	0.014283
 487	2.4300e-01	19.4882	23.524735	0.000023	0.230928	0.078240	0.001882
 488	2.4350e-01	19.5107	23.540130	0.000038	0.377882	0.128030	0.003079
 489	2.4400e-01	19.5684	23.599570	0.000146	1.459043	0.494337	0.011888
 490	2.4450e-01	19.5893	23.629076	0.000072	0.724273	0.245390	0.005901
 491	2.4500e-01	19.6535	23.657299	0.000069	0.692783	0.234721	0.005645
 492	2.4550e-01	19.6871	23.691082	0.000083	0.829240	0.280954	0.006756
 493	2.4600e-01	19.7208	23.740686	0.000122	1.217618	0.412540	0.009921
 494	2.4650e-01	19.7449	23.786870	0.000113	1.133645	0.384089	0.009237
 495	2.4700e-01	19.7962	23.829632	0.000105	1.049671	0.355638	0.008553
 496	2.4750e-01	19.8460	23.827922	-0.000004	-0.041987	-0.014226	-0.000342
 497	2.4800e-01	19.8668	23.900618	0.000178	1.784441	0.604585	0.014539
 498	2.4850e-01	19.9518	23.902329	0.000004	0.041987	0.014226	0.000342
 499	2.4900e-01	19.9663	23.965189	0.000154	1.543016	0.522788	0.012572
 500	2.4950e-01	20.0016	23.991275	0.000064	0.640299	0.216939	0.005217
 501	2.5000e-01	20.0545	24.016077	0.000061	0.608809	0.206270	0.004960
 502	2.5050e-01	19.9695	24.010945	0.000013	0.125961	0.042677	-0.001026
 503	2.5100e-01	19.9583	23.983150	0.000068	0.682286	0.231165	-0.005559
 504	2.5150e-01	19.8989	23.963907	0.000047	0.472352	0.160037	-0.003849
 505	2.5200e-01	19.8428	23.942953	0.000051	0.514339	0.174263	-0.004191
 506	2.5250e-01	19.8107	23.903184	0.000098	0.976194	0.330743	-0.007954
 507	2.5300e-01	19.7722	23.868974	0.000084	0.839737	0.284511	-0.006842
 508	2.5350e-01	19.7513	23.842461	0.000065	0.650796	0.220496	-0.005303
 509	2.5400e-01	19.6743	23.824073	0.000045	0.451358	0.152924	-0.003678
 510	2.5450e-01	19.6839	23.781738	-0.000104	-1.039174	-0.352082	-0.008467
 511	2.5500e-01	19.6214	23.755225	0.000065	0.650796	0.220496	-0.005303
 512	2.5550e-01	19.5957	23.745818	0.000023	0.230928	0.078240	-0.001882
 513	2.5600e-01	19.5412	23.700917	0.000110	1.102154	0.373420	-0.008980
 514	2.5650e-01	19.4978	23.657299	0.000107	1.070664	0.362751	-0.008724
 515	2.5700e-01	19.4674	23.635063	0.000055	0.545829	0.184932	-0.004447
 516	2.5750e-01	19.4144	23.604701	0.000075	0.745266	0.252503	-0.006072
 517	2.5800e-01	19.4048	23.536709	0.000167	1.668977	0.565465	-0.013598
 518	2.5850e-01	19.3567	23.543123	-0.000016	-0.157451	-0.053346	0.001283
 519	2.5900e-01	19.2909	23.506348	0.000090	0.902717	0.305849	-0.007355
 520	2.5950e-01	19.2460	23.510196	-0.000009	-0.094470	-0.032007	0.000770
 521	2.6000e-01	19.1962	23.453322	0.000140	1.396062	0.472999	-0.011375
 522	2.6050e-01	19.2043	23.412270	-0.000101	-1.007684	-0.341413	-0.008210
 523	2.6100e-01	19.1160	23.390889	0.000052	0.524835	0.177819	-0.004276
 524	2.6150e-01	19.1064	23.359244	0.000078	0.776756	0.263172	-0.006329
 525	2.6200e-01	19.0615	23.334015	0.000062	0.619306	0.209826	-0.005046
 526	2.6250e-01	19.0005	23.310495	0.000058	0.577319	0.195601	-0.004704
 527	2.6300e-01	18.9684	23.271581	0.000096	0.955201	0.323631	-0.007783
 528	2.6350e-01	18.9283	23.236516	0.000086	0.860730	0.291623	-0.007013
 529	2.6400e-01	18.8963	23.192898	0.000107	1.070664	0.362751	-0.008724
 530	2.6450e-01	18.8545	23.185201	0.000019	0.188941	0.064015	-0.001539
 531	2.6500e-01	18.7952	23.158261	0.000066	0.661293	0.224052	-0.005388
 532	2.6550e-01	18.7808	23.090696	0.000166	1.658480	0.561908	-0.013513
 533	2.6600e-01	18.7535	23.065894	0.000061	0.608809	0.206270	-0.004960
 534	2.6650e-01	18.6989	23.028262	0.000092	0.923710	0.312962	-0.007526
 535	2.6700e-01	18.6524	23.032111	-0.000009	-0.094470	-0.032007	0.000770
 536	2.6750e-01	18.6075	22.976947	0.000135	1.354075	0.458773	-0.011033
 537	2.6800e-01	18.5770	22.970105	0.000017	0.167947	0.056902	-0.001368
 538	2.6850e-01	18.5289	22.938034	0.000079	0.787253	0.266729	-0.006414
 539	2.6900e-01	18.5000	22.887574	0.000124	1.238612	0.419653	-0.010092
 540	2.6950e-01	18.4695	22.851226	0.000089	0.892220	0.302292	-0.007270
 541	2.7000e-01	18.4102	22.829417	0.000054	0.535332	0.181375	-0.004362
 542	2.7050e-01	18.3685	22.784088	0.000111	1.112651	0.376976	-0.009066
 543	2.7100e-01	18.3444	22.765701	0.000045	0.451358	0.152924	-0.003678
 544	2.7150e-01	18.3027	22.732346	0.000082	0.818743	0.277398	-0.006671
 545	2.7200e-01	18.2578	22.714813	0.000043	0.430365	0.145812	-0.003507
 546	2.7250e-01	18.2096	22.657084	0.000142	1.417056	0.480111	-0.011546
 547	2.7300e-01	18.1840	22.629288	0.000068	0.682286	0.231165	-0.005559
 548	2.7350e-01	18.1583	22.580111	0.000121	1.207122	0.408984	-0.009835
 549	2.7400e-01	18.1006	22.559585	0.000050	0.503842	0.170706	-0.004105
 550	2.7450e-01	18.0588	22.534355	0.000062	0.619306	0.209826	-0.005046
 551	2.7500e-01	18.0284	22.502283	0.000079	0.787253	0.266729	-0.006414
 552	2.7550e-01	17.9594	22.482185	0.000049	0.493345	0.167150	-0.004020
 553	2.7600e-01	17.9417	22.427021	0.000135	1.354075	0.458773	-0.011033
 554	2.7650e-01	17.8808	22.425311	0.000004	0.041987	0.014226	-0.000342
 555	2.7700e-01	17.8599	22.367154	0.000143	1.427552	0.483668	-0.011631
 556	2.7750e-01	17.8375	22.326957	0.000099	0.986691	0.334300	-0.008039
 557	2.7800e-01	17.7893	22.297451	0.000072	0.724273	0.245390	-0.005901
 558	2.7850e-01	17.7573	22.264096	0.000082	0.818743	0.277398	-0.006671
 559	2.7900e-01	17.6738	22.230741	0.000082	0.818743	0.277398	-0.006671
 560	2.7950e-01	17.6626	22.195248	0.000087	0.871227	0.295180	-0.007099
 561	2.8000e-01	17.6305	22.155479	0.000098	0.976194	0.330743	-0.007954
 562	2.8050e-01	17.5712	22.121269	0.000084	0.839737	0.284511	-0.006842
 563	2.8100e-01	17.5327	22.099460	0.000054	0.535332	0.181375	-0.004362
 564	2.8150e-01	17.4926	22.093046	0.000016	0.157451	0.053346	-0.001283
 565	2.8200e-01	17.4541	22.038310	0.000134	1.343579	0.455217	-0.010947
 566	2.8250e-01	17.4380	21.996403	0.000103	1.028677	0.348525	-0.008381
 567	2.8300e-01	17.3754	21.962193	0.000084	0.839737	0.284511	-0.006842
 568	2.8350e-01	17.3626	21.925417	0.000090	0.902717	0.305849	-0.007355
 569	2.8400e-01	17.3049	21.890779	0.000085	0.850233	0.288067	-0.006928
 570	2.8450e-01	17.2664	21.862984	0.000068	0.682286	0.231165	-0.005559
 571	2.8500e-01	17.1958	21.840319	0.000056	0.556326	0.188488	-0.004533
 572	2.8550e-01	17.2006	21.791998	-0.000119	-1.186128	-0.401871	-0.009664
 573	2.8600e-01	17.1525	21.737262	0.000134	1.343579	0.455217	-0.010947
 574	2.8650e-01	17.1043	21.740683	-0.000008	-0.083974	-0.028451	0.000684
 575	2.8700e-01	17.0562	21.695354	0.000111	1.112651	0.376976	-0.009066
 576	2.8750e-01	17.0241	21.656868	0.000094	0.944704	0.320074	-0.007697
 577	2.8800e-01	16.9648	21.622231	0.000085	0.850233	0.288067	-0.006928
 578	2.8850e-01	16.9391	21.578613	0.000107	1.070664	0.362751	-0.008724
 579	2.8900e-01	16.8974	21.553383	0.000062	0.619306	0.209826	-0.005046
 580	2.8950e-01	16.8653	21.519601	0.000083	0.829240	0.280954	-0.006756
 581	2.9000e-01	16.8188	21.497792	0.000054	0.535332	0.181375	-0.004362
 582	2.9050e-01	16.7867	21.453746	0.000108	1.081161	0.366307	-0.008809
 583	2.9100e-01	16.7225	21.438352	0.000038	0.377882	0.128030	-0.003079
 584	2.9150e-01	16.7257	21.377201	-0.000150	-1.501029	-0.508563	-0.012230
 585	2.9200e-01	16.6535	21.345557	0.000078	0.776756	0.263172	-0.006329
 586	2.9250e-01	16.6118	21.319044	0.000065	0.650796	0.220496	-0.005303
 587	2.9300e-01	16.5733	21.279275	0.000098	0.976194	0.330743	-0.007954
 588	2.9350e-01	16.5364	21.259177	0.000049	0.493345	0.167150	-0.004020
 589	2.9400e-01	16.5060	21.211283	0.000118	1.175631	0.398315	-0.009579
 590	2.9450e-01	16.4450	21.178783	0.000080	0.797750	0.270285	-0.006500
 591	2.9500e-01	16.4289	21.129606	0.000121	1.207122	0.408984	-0.009835
 592	2.9550e-01	16.3808	21.115495	0.000035	0.346391	0.117361	-0.002822
 593	2.9600e-01	16.3327	21.079574	0.000088	0.881724	0.298736	-0.007184
 594	2.9650e-01	16.3038	21.024838	0.000134	1.343579	0.455217	-0.010947
 595	2.9700e-01	16.2573	20.983786	0.000101	1.007684	0.341413	-0.008210
 596	2.9750e-01	16.2156	20.954280	0.000072	0.724273	0.245390	-0.005901
 597	2.9800e-01	16.1803	20.943162	0.000027	0.272914	0.092466	-0.002224
 598	2.9850e-01	16.1562	20.884577	0.000144	1.438049	0.487224	-0.011717
 599	2.9900e-01	16.0600	20.862340	0.000055	0.545829	0.184932	-0.004447
 600	2.9950e-01	16.0471	20.822571	0.000098	0.976194	0.330743	-0.007954
 601	3.0000e-01	16.0503	20.790072	-0.000080	-0.797750	-0.270285	-0.006500
 602	3.0050e-01	15.9894	20.733198	0.000140	1.396062	0.472999	-0.011375
 603	3.0100e-01	15.9493	20.716948	0.000040	0.398875	0.135142	-0.003250
 604	3.0150e-01	15.9092	20.671620	0.000111	1.112651	0.376976	-0.009066
 605	3.0200e-01	15.8610	20.651521	0.000049	0.493345	0.167150	-0.004020
 606	3.0250e-01	15.8177	20.601061	0.000124	1.238612	0.419653	-0.010092
 607	3.0300e-01	15.7889	20.580963	0.000049	0.493345	0.167150	-0.004020
 608	3.0350e-01	15.7520	20.538201	0.000105	1.049671	0.355638	-0.008553
 609	3.0400e-01	15.6910	20.506984	0.000077	0.766260	0.259616	-0.006243
 610	3.0450e-01	15.6557	20.491589	0.000038	0.377882	0.128030	-0.003079
 611	3.0500e-01	15.5883	20.434715	0.000140	1.396062	0.472999	-0.011375
 612	3.0550e-01	15.5643	20.414189	0.000050	0.503842	0.170706	-0.004105
 613	3.0600e-01	15.5434	20.368433	0.000112	1.123148	0.380533	-0.009151
 614	3.0650e-01	15.5177	20.339782	0.000070	0.703280	0.238278	-0.005730
 615	3.0700e-01	15.4648	20.291461	0.000119	1.186128	0.401871	-0.009664
 616	3.0750e-01	15.4167	20.259389	0.000079	0.787253	0.266729	-0.006414
 617	3.0800e-01	15.3766	20.213633	0.000112	1.123148	0.380533	-0.009151
 618	3.0850e-01	15.3782	20.174719	-0.000096	-0.955201	-0.323631	-0.007783
 619	3.0900e-01	15.2787	20.152483	0.000055	0.545829	0.184932	-0.004447
 620	3.0950e-01	15.2739	20.097319	0.000135	1.354075	0.458773	-0.011033
 621	3.1000e-01	15.2370	20.066957	0.000075	0.745266	0.252503	-0.006072
 622	3.1050e-01	15.1616	20.050280	0.000041	0.409372	0.138699	-0.003335
 623	3.1100e-01	15.1343	19.984853	0.000161	1.605997	0.544126	-0.013085
 624	3.1150e-01	15.0942	19.962189	0.000056	0.556326	0.188488	-0.004533
 625	3.1200e-01	15.0509	19.949361	0.000031	0.314901	0.106691	-0.002566
 626	3.1250e-01	15.0060	19.880085	0.000170	1.700467	0.576134	-0.013855
 627	3.1300e-01	14.9498	19.879658	0.000001	0.010497	0.003556	-0.000086
 628	3.1350e-01	14.9354	19.839033	0.000100	0.997187	0.337856	-0.008125
 629	3.1400e-01	14.9162	19.790712	0.000119	1.186128	0.401871	-0.009664
 630	3.1450e-01	14.8488	19.731272	0.000146	1.459043	0.494337	-0.011888
 631	3.1500e-01	14.8247	19.710746	0.000050	0.503842	0.170706	-0.004105
 632	3.1550e-01	14.7910	19.668838	0.000103	1.028677	0.348525	-0.008381
 633	3.1600e-01	14.7301	19.646174	0.000056	0.556326	0.188488	-0.004533
 634	3.1650e-01	14.6980	19.596142	0.000123	1.228115	0.416097	-0.010006
 635	3.1700e-01	14.6515	19.553379	0.000105	1.049671	0.355638	-0.008553
 636	3.1750e-01	14.6097	19.538413	0.000037	0.367385	0.124473	-0.002993
 637	3.1800e-01	14.5745	19.486670	0.000127	1.270102	0.430322	-0.010349
 638	3.1850e-01	14.5632	19.439204	0.000117	1.165135	0.394758	-0.009493
 639	3.1900e-01	14.5023	19.416112	0.000057	0.566822	0.192045	-0.004618
 640	3.1950e-01	14.4445	19.369501	0.000114	1.144141	0.387646	-0.009322
 641	3.2000e-01	14.4140	19.316475	0.000130	1.301592	0.440991	-0.010605
 642	3.2050e-01	14.4044	19.296804	0.000048	0.482849	0.163594	-0.003934
 643	3.2100e-01	14.3547	19.245917	0.000125	1.249108	0.423209	-0.010177
 644	3.2150e-01	14.3082	19.216838	0.000071	0.713776	0.241834	-0.005816
 645	3.2200e-01	14.2408	19.181346	0.000087	0.871227	0.295180	-0.007099
 646	3.2250e-01	14.2039	19.145853	0.000087	0.871227	0.295180	-0.007099
 647	3.2300e-01	14.1894	19.122333	0.000058	0.577319	0.195601	-0.004704
 648	3.2350e-01	14.1429	19.050492	0.000176	1.763447	0.597472	-0.014368
 649	3.2400e-01	14.1092	19.039802	0.000026	0.262418	0.088910	-0.002138
 650	3.2450e-01	14.0547	18.985066	0.000134	1.343579	0.455217	-0.010947
 651	3.2500e-01	14.0082	18.964967	0.000049	0.493345	0.167150	-0.004020
 652	3.2550e-01	13.9905	18.924770	0.000099	0.986691	0.334300	-0.008039
 653	3.2600e-01	13.9279	18.904672	0.000049	0.493345	0.167150	-0.004020
 654	3.2650e-01	13.9103	18.854640	0.000123	1.228115	0.416097	-0.010006
 655	3.2700e-01	13.8558	18.803325	0.000126	1.259605	0.426766	-0.010263
 656	3.2750e-01	13.8076	18.769970	0.000082	0.818743	0.277398	-0.006671
 657	3.2800e-01	13.7739	18.736188	0.000083	0.829240	0.280954	-0.006756
 658	3.2850e-01	13.7435	18.681024	0.000135	1.354075	0.458773	-0.011033
 659	3.2900e-01	13.6985	18.647669	0.000082	0.818743	0.277398	-0.006671
 660	3.2950e-01	13.6681	18.615597	0.000079	0.787253	0.266729	-0.006414
 661	3.3000e-01	13.6199	18.560434	0.000135	1.354075	0.458773	-0.011033
 662	3.3050e-01	13.5622	18.549743	0.000026	0.262418	0.088910	-0.002138
 663	3.3100e-01	13.5173	18.499711	0.000123	1.228115	0.416097	-0.010006
 664	3.3150e-01	13.5221	18.458659	-0.000101	-1.007684	-0.341413	-0.008210
 665	3.3200e-01	13.4531	18.424876	0.000083	0.829240	0.280954	-0.006756
 666	3.3250e-01	13.4162	18.391949	0.000081	0.808247	0.273841	-0.006585
 667	3.3300e-01	13.3873	18.353463	0.000094	0.944704	0.320074	-0.007697
 668	3.3350e-01	13.3280	18.313694	0.000098	0.976194	0.330743	-0.007954
 669	3.3400e-01	13.2959	18.295306	0.000045	0.451358	0.152924	-0.003678
 670	3.3450e-01	13.2622	18.241853	0.000131	1.312089	0.444548	-0.010691
 671	3.3500e-01	13.2349	18.193531	0.000119	1.186128	0.401871	-0.009664
 672	3.3550e-01	13.1836	18.145637	0.000118	1.175631	0.398315	-0.009579
 673	3.3600e-01	13.1355	18.108861	0.000090	0.902717	0.305849	-0.007355
 674	3.3650e-01	13.1018	18.059684	0.000121	1.207122	0.408984	-0.009835
 675	3.3700e-01	13.0312	18.060540	-0.000002	-0.020993	-0.007113	0.000171
 676	3.3750e-01	13.0232	18.003238	0.000141	1.406559	0.476555	-0.011460
 677	3.3800e-01	12.9734	17.964324	0.000096	0.955201	0.323631	-0.007783
 678	3.3850e-01	12.9381	17.922844	0.000102	1.018181	0.344969	-0.008296
 679	3.3900e-01	12.9221	17.839457	0.000205	2.046858	0.693494	-0.016677
 680	3.3950e-01	12.8435	17.852714	-0.000033	-0.325398	-0.110248	0.002651
 681	3.4000e-01	12.8210	17.826201	0.000065	0.650796	0.220496	-0.005303
 682	3.4050e-01	12.8050	17.757353	0.000169	1.689970	0.572577	-0.013770
 683	3.4100e-01	12.7328	17.738538	0.000046	0.461855	0.156481	-0.003763
 684	3.4150e-01	12.7071	17.688506	0.000123	1.228115	0.416097	-0.010006
 685	3.4200e-01	12.6750	17.668835	0.000048	0.482849	0.163594	-0.003934
 686	3.4250e-01	12.6045	17.598277	0.000173	1.731957	0.586803	-0.014112
 687	3.4300e-01	12.5644	17.578178	0.000049	0.493345	0.167150	-0.004020
 688	3.4350e-01	12.5050	17.515317	0.000154	1.543016	0.522788	-0.012572
 689	3.4400e-01	12.5002	17.491798	0.000058	0.577319	0.195601	-0.004704
 690	3.4450e-01	12.4745	17.440911	0.000125	1.249108	0.423209	-0.010177
 691	3.4500e-01	12.4424	17.416964	0.000059	0.587816	0.199157	-0.004789
 692	3.4550e-01	12.3799	17.366504	0.000124	1.238612	0.419653	-0.010092
 693	3.4600e-01	12.3317	17.340846	0.000063	0.629803	0.213383	-0.005132
 694	3.4650e-01	12.2756	17.316044	0.000061	0.608809	0.206270	-0.004960
 695	3.4700e-01	12.2499	17.249335	0.000164	1.637487	0.554795	-0.013342
 696	3.4750e-01	12.1986	17.214697	0.000085	0.850233	0.288067	-0.006928
 697	3.4800e-01	12.1970	17.175355	0.000097	0.965697	0.327187	-0.007868
 698	3.4850e-01	12.1232	17.126606	0.000120	1.196625	0.405427	-0.009750
 699	3.4900e-01	12.1168	17.083844	0.000105	1.049671	0.355638	-0.008553
 700	3.4950e-01	12.0189	17.071015	0.000031	0.314901	0.106691	-0.002566
 701	3.5000e-01	12.0269	17.004305	-0.000164	-1.637487	-0.554795	-0.013342
 702	3.5050e-01	11.9772	16.952563	0.000127	1.270102	0.430322	-0.010349
 703	3.5100e-01	11.9114	16.940161	0.000030	0.304405	0.103135	-0.002480
 704	3.5150e-01	11.9178	16.887991	-0.000128	-1.280599	-0.433879	-0.010434
 705	3.5200e-01	11.8424	16.825130	0.000154	1.543016	0.522788	-0.012572
 706	3.5250e-01	11.8489	16.776809	-0.000119	-1.186128	-0.401871	-0.009664
 707	3.5300e-01	11.7927	16.744737	0.000079	0.787253	0.266729	-0.006414
 708	3.5350e-01	11.7366	16.724211	0.000050	0.503842	0.170706	-0.004105
 709	3.5400e-01	11.6772	16.678027	0.000113	1.133645	0.384089	-0.009237
 710	3.5450e-01	11.6355	16.621153	0.000140	1.396062	0.472999	-0.011375
 711	3.5500e-01	11.6162	16.589936	0.000077	0.766260	0.259616	-0.006243
 712	3.5550e-01	11.5874	16.552305	0.000092	0.923710	0.312962	-0.007526
 713	3.5600e-01	11.5521	16.509543	0.000105	1.049671	0.355638	-0.008553
 714	3.5650e-01	11.5007	16.474905	0.000085	0.850233	0.288067	-0.006928
 715	3.5700e-01	11.4767	16.424445	0.000124	1.238612	0.419653	-0.010092
 716	3.5750e-01	11.4109	16.394939	0.000072	0.724273	0.245390	-0.005901
 717	3.5800e-01	11.3580	16.345762	0.000121	1.207122	0.408984	-0.009835
 718	3.5850e-01	11.3532	16.306848	0.000096	0.955201	0.323631	-0.007783
 719	3.5900e-01	11.3050	16.265369	0.000102	1.018181	0.344969	-0.008296
 720	3.5950e-01	11.2585	16.206784	0.000144	1.438049	0.487224	-0.011717
 721	3.6000e-01	11.2136	16.171719	0.000086	0.860730	0.291623	-0.007013
 722	3.6050e-01	11.1639	16.132805	0.000096	0.955201	0.323631	-0.007783
 723	3.6100e-01	11.1671	16.105437	-0.000067	-0.671789	-0.227608	-0.005474
 724	3.6150e-01	11.0852	16.058826	0.000114	1.144141	0.387646	-0.009322
 725	3.6200e-01	11.0532	16.024616	0.000084	0.839737	0.284511	-0.006842
 726	3.6250e-01	11.0131	15.978005	0.000114	1.144141	0.387646	-0.009322
 727	3.6300e-01	10.9633	15.926690	0.000126	1.259605	0.426766	-0.010263
 728	3.6350e-01	10.9393	15.886493	0.000099	0.986691	0.334300	-0.008039
 729	3.6400e-01	10.9056	15.839882	0.000114	1.144141	0.387646	-0.009322
 730	3.6450e-01	10.8366	15.805672	0.000084	0.839737	0.284511	-0.006842
 731	3.6500e-01	10.8141	15.762481	0.000106	1.060168	0.359195	-0.008638
 732	3.6550e-01	10.8125	15.706890	0.000136	1.364572	0.462330	-0.011118
 733	3.6600e-01	10.7532	15.654720	0.000128	1.280599	0.433879	-0.010434
 734	3.6650e-01	10.7034	15.632483	0.000055	0.545829	0.184932	-0.004447
 735	3.6700e-01	10.6714	15.585017	0.000117	1.165135	0.394758	-0.009493
 736	3.6750e-01	10.6040	15.536695	0.000119	1.186128	0.401871	-0.009664
 737	3.6800e-01	10.5639	15.527288	0.000023	0.230928	0.078240	-0.001882
 738	3.6850e-01	10.5430	15.464427	0.000154	1.543016	0.522788	-0.012572
 739	3.6900e-01	10.5077	15.420381	0.000108	1.081161	0.366307	-0.008809
 740	3.6950e-01	10.4756	15.361797	0.000144	1.438049	0.487224	-0.011717
 741	3.7000e-01	10.4115	15.328869	0.000081	0.808247	0.273841	-0.006585
 742	3.7050e-01	10.3938	15.292949	0.000088	0.881724	0.298736	-0.007184
 743	3.7100e-01	10.3633	15.239923	0.000130	1.301592	0.440991	-0.010605
 744	3.7150e-01	10.3184	15.190319	0.000122	1.217618	0.412540	-0.009921
 745	3.7200e-01	10.2478	15.158675	0.000078	0.776756	0.263172	-0.006329
 746	3.7250e-01	10.2013	15.133872	0.000061	0.608809	0.206270	-0.004960
 747	3.7300e-01	10.1949	15.066735	0.000165	1.647983	0.558352	-0.013427
 748	3.7350e-01	10.1468	15.027394	0.000097	0.965697	0.327187	-0.007868
 749	3.7400e-01	10.1099	14.997032	0.000075	0.745266	0.252503	-0.006072
 750	3.7450e-01	10.0537	14.940158	0.000140	1.396062	0.472999	-0.011375
 751	3.7500e-01	10.0409	14.872593	0.000166	1.658480	0.561908	-0.013513
 752	3.7550e-01	9.9703	14.848646	0.000059	0.587816	0.199157	-0.004789
 753	3.7600e-01	9.9222	14.807167	0.000102	1.018181	0.344969	-0.008296
 754	3.7650e-01	9.8741	14.754569	0.000129	1.291095	0.437435	-0.010520
 755	3.7700e-01	9.8484	14.719503	0.000086	0.860730	0.291623	-0.007013
 756	3.7750e-01	9.8420	14.675886	0.000107	1.070664	0.362751	-0.008724
 757	3.7800e-01	9.7730	14.624571	0.000126	1.259605	0.426766	-0.010263
 758	3.7850e-01	9.7345	14.595920	0.000070	0.703280	0.238278	-0.005730
 759	3.7900e-01	9.7072	14.547598	0.000119	1.186128	0.401871	-0.009664
 760	3.7950e-01	9.6639	14.498849	0.000120	1.196625	0.405427	-0.009750
 761	3.8000e-01	9.6286	14.456086	0.000105	1.049671	0.355638	-0.008553
 762	3.8050e-01	9.5725	14.413324	0.000105	1.049671	0.355638	-0.008553
 763	3.8100e-01	9.5307	14.368851	0.000109	1.091658	0.369864	-0.008895
 764	3.8150e-01	9.4955	14.317963	0.000125	1.249108	0.423209	-0.010177
 765	3.8200e-01	9.4521	14.311977	0.000015	0.146954	0.049789	-0.001197
 766	3.8250e-01	9.3976	14.230300	0.000200	2.004871	0.679269	-0.016335
 767	3.8300e-01	9.3864	14.179413	0.000125	1.249108	0.423209	-0.010177
 768	3.8350e-01	9.3463	14.137505	0.000103	1.028677	0.348525	-0.008381
 769	3.8400e-01	9.2965	14.104151	0.000082	0.818743	0.277398	-0.006671
 770	3.8450e-01	9.2773	14.035303	0.000169	1.689970	0.572577	-0.013770
 771	3.8500e-01	9.2035	14.003231	0.000079	0.787253	0.266729	-0.006414
 772	3.8550e-01	9.1794	13.961751	0.000102	1.018181	0.344969	-0.008296
 773	3.8600e-01	9.1265	13.927114	0.000085	0.850233	0.288067	-0.006928
 774	3.8650e-01	9.1008	13.883496	0.000107	1.070664	0.362751	-0.008724
 775	3.8700e-01	9.0495	13.831753	0.000127	1.270102	0.430322	-0.010349
 776	3.8750e-01	9.0014	13.798399	0.000082	0.818743	0.277398	-0.006671
 777	3.8800e-01	9.0030	13.719288	-0.000194	-1.941891	-0.657931	-0.015822
 778	3.8850e-01	8.9211	13.693630	0.000063	0.629803	0.213383	-0.005132
 779	3.8900e-01	8.8826	13.660703	0.000081	0.808247	0.273841	-0.006585
 780	3.8950e-01	8.8473	13.618368	0.000104	1.039174	0.352082	-0.008467
 781	3.9000e-01	8.8137	13.549093	0.000170	1.700467	0.576134	-0.013855
 782	3.9050e-01	8.7575	13.499488	0.000122	1.217618	0.412540	-0.009921
 783	3.9100e-01	8.7543	13.459719	0.000098	0.976194	0.330743	-0.007954
 784	3.9150e-01	8.7046	13.431496	0.000069	0.692783	0.234721	-0.005645
 785	3.9200e-01	8.6500	13.354524	0.000189	1.889408	0.640149	-0.015395
 786	3.9250e-01	8.6019	13.320313	0.000084	0.839737	0.284511	-0.006842
 787	3.9300e-01	8.5714	13.299360	0.000051	0.514339	0.174263	-0.004191
 788	3.9350e-01	8.5345	13.228374	0.000174	1.742454	0.590359	-0.014197
 789	3.9400e-01	8.4960	13.167651	0.000149	1.490533	0.505006	-0.012145
 790	3.9450e-01	8.4671	13.146270	0.000052	0.524835	0.177819	-0.004276
 791	3.9500e-01	8.4206	13.098804	0.000117	1.165135	0.394758	-0.009493
 792	3.9550e-01	8.3933	13.049627	0.000121	1.207122	0.408984	-0.009835
 793	3.9600e-01	8.3212	13.000022	0.000122	1.217618	0.412540	-0.009921
 794	3.9650e-01	8.3196	12.944431	0.000136	1.364572	0.462330	-0.011118
 795	3.9700e-01	8.2762	12.899958	0.000109	1.091658	0.369864	-0.008895
 796	3.9750e-01	8.2233	12.845222	0.000134	1.343579	0.455217	-0.010947
 797	3.9800e-01	8.1527	12.824696	0.000050	0.503842	0.170706	-0.004105
 798	3.9850e-01	8.1238	12.772526	0.000128	1.280599	0.433879	-0.010434
 799	3.9900e-01	8.0757	12.744302	0.000069	0.692783	0.234721	-0.005645
 800	3.9950e-01	8.0693	12.654501	0.000220	2.204309	0.746840	-0.017960
 801	4.0000e-01	8.0115	12.631409	0.000057	0.566822	0.192045	-0.004618
 802	4.0050e-01	7.9618	12.586081	0.000111	1.112651	0.376976	-0.009066
 803	4.0100e-01	7.9474	12.534766	0.000126	1.259605	0.426766	-0.010263
 804	4.0150e-01	7.9089	12.479602	0.000135	1.354075	0.458773	-0.011033
 805	4.0200e-01	7.8367	12.456938	0.000056	0.556326	0.188488	-0.004533
 806	4.0250e-01	7.8078	12.399209	0.000142	1.417056	0.480111	-0.011546
 807	4.0300e-01	7.7484	12.353880	0.000111	1.112651	0.376976	-0.009066
 808	4.0350e-01	7.7581	12.283750	-0.000172	-1.721460	-0.583247	-0.014026
 809	4.0400e-01	7.6939	12.249112	0.000085	0.850233	0.288067	-0.006928
 810	4.0450e-01	7.6586	12.185396	0.000156	1.564010	0.529901	-0.012743
 811	4.0500e-01	7.5960	12.145627	0.000098	0.976194	0.330743	-0.007954
 812	4.0550e-01	7.5752	12.111844	0.000083	0.829240	0.280954	-0.006756
 813	4.0600e-01	7.5543	12.039148	0.000178	1.784441	0.604585	-0.014539
 814	4.0650e-01	7.4982	12.010925	0.000069	0.692783	0.234721	-0.005645
 815	4.0700e-01	7.4581	11.955761	0.000135	1.354075	0.458773	-0.011033
 816	4.0750e-01	7.3987	11.903591	0.000128	1.280599	0.433879	-0.010434
 817	4.0800e-01	7.3747	11.861684	0.000103	1.028677	0.348525	-0.008381
 818	4.0850e-01	7.3346	11.812507	0.000121	1.207122	0.408984	-0.009835
 819	4.0900e-01	7.2832	11.768889	0.000107	1.070664	0.362751	-0.008724
 820	4.0950e-01	7.2688	11.685074	0.000206	2.057355	0.697051	-0.016763
 821	4.1000e-01	7.1918	11.678232	0.000017	0.167947	0.056902	-0.001368
 822	4.1050e-01	7.1581	11.623496	0.000134	1.343579	0.455217	-0.010947
 823	4.1100e-01	7.0987	11.573464	0.000123	1.228115	0.416097	-0.010006
 824	4.1150e-01	7.0763	11.540537	0.000081	0.808247	0.273841	-0.006585
 825	4.1200e-01	7.0410	11.486229	0.000133	1.333082	0.451660	-0.010862
 826	4.1250e-01	7.0057	11.426789	0.000146	1.459043	0.494337	-0.011888
 827	4.1300e-01	6.9816	11.375474	0.000126	1.259605	0.426766	-0.010263
 828	4.1350e-01	6.9078	11.347250	0.000069	0.692783	0.234721	-0.005645
 829	4.1400e-01	6.8757	11.282679	0.000159	1.585003	0.537014	-0.012914
 830	4.1450e-01	6.8693	11.219391	0.000155	1.553513	0.526344	-0.012658
 831	4.1500e-01	6.8212	11.157812	0.000151	1.511526	0.512119	-0.012316
 832	4.1550e-01	6.7763	11.116333	0.000102	1.018181	0.344969	-0.008296
 833	4.1600e-01	6.7330	11.051761	0.000159	1.585003	0.537014	-0.012914
 834	4.1650e-01	6.7025	11.028670	0.000057	0.566822	0.192045	-0.004618
 835	4.1700e-01	6.6656	10.963243	0.000161	1.605997	0.544126	-0.013085
 836	4.1750e-01	6.6191	10.929033	0.000084	0.839737	0.284511	-0.006842
 837	4.1800e-01	6.5982	10.872159	0.000140	1.396062	0.472999	-0.011375
 838	4.1850e-01	6.5405	10.818706	0.000131	1.312089	0.444548	-0.010691
 839	4.1900e-01	6.4939	10.776371	0.000104	1.039174	0.352082	-0.008467
 840	4.1950e-01	6.5036	10.667326	-0.000268	-2.676661	-0.906877	-0.021809
 841	4.2000e-01	6.4266	10.662195	0.000013	0.125961	0.042677	-0.001026
 842	4.2050e-01	6.3993	10.612590	0.000122	1.217618	0.412540	-0.009921
 843	4.2100e-01	6.3111	10.567690	0.000110	1.102154	0.373420	-0.008980
 844	4.2150e-01	6.3271	10.506112	-0.000151	-1.511526	-0.512119	-0.012316
 845	4.2200e-01	6.2357	10.471046	0.000086	0.860730	0.291623	-0.007013
 846	4.2250e-01	6.1859	10.431705	0.000097	0.965697	0.327187	-0.007868
 847	4.2300e-01	6.1955	10.358581	-0.000179	-1.794937	-0.608141	-0.014625
 848	4.2350e-01	6.1458	10.323516	0.000086	0.860730	0.291623	-0.007013
 849	4.2400e-01	6.0865	10.261938	0.000151	1.511526	0.512119	-0.012316
 850	4.2450e-01	6.0528	10.204636	0.000141	1.406559	0.476555	-0.011460
 851	4.2500e-01	6.0303	10.178551	0.000064	0.640299	0.216939	-0.005217
 852	4.2550e-01	5.9565	10.107992	0.000173	1.731957	0.586803	-0.014112
 853	4.2600e-01	5.9212	10.078059	0.000073	0.734770	0.248947	-0.005987
 854	4.2650e-01	5.9020	9.998093	0.000196	1.962885	0.665043	-0.015993
 855	4.2700e-01	5.8651	9.951482	0.000114	1.144141	0.387646	-0.009322
 856	4.2750e-01	5.8169	9.889476	0.000152	1.522023	0.515675	-0.012401
 857	4.2800e-01	5.7704	9.851417	0.000093	0.934207	0.316518	-0.007612
 858	4.2850e-01	5.7287	9.795826	0.000136	1.364572	0.462330	-0.011118
 859	4.2900e-01	5.6982	9.747504	0.000119	1.186128	0.401871	-0.009664
 860	4.2950e-01	5.6501	9.691913	0.000136	1.364572	0.462330	-0.011118
 861	4.3000e-01	5.6228	9.644019	0.000118	1.175631	0.398315	-0.009579
 862	4.3050e-01	5.5699	9.592704	0.000126	1.259605	0.426766	-0.010263
 863	4.3100e-01	5.5362	9.528988	0.000156	1.564010	0.529901	-0.012743
 864	4.3150e-01	5.4881	9.489646	0.000097	0.965697	0.327187	-0.007868
 865	4.3200e-01	5.4592	9.425075	0.000159	1.585003	0.537014	-0.012914
 866	4.3250e-01	5.4063	9.395569	0.000072	0.724273	0.245390	-0.005901
 867	4.3300e-01	5.3565	9.335274	0.000148	1.480036	0.501450	-0.012059
 868	4.3350e-01	5.3405	9.263860	0.000175	1.752950	0.593916	-0.014283
 869	4.3400e-01	5.2908	9.216394	0.000117	1.165135	0.394758	-0.009493
 870	4.3450e-01	5.2410	9.161658	0.000134	1.343579	0.455217	-0.010947
 871	4.3500e-01	5.2266	9.108632	0.000130	1.301592	0.440991	-0.010605
 872	4.3550e-01	5.1672	9.057317	0.000126	1.259605	0.426766	-0.010263
 873	4.3600e-01	5.1239	9.000015	0.000141	1.406559	0.476555	-0.011460
 874	4.3650e-01	5.0950	8.961957	0.000093	0.934207	0.316518	-0.007612
 875	4.3700e-01	5.0581	8.896102	0.000162	1.616493	0.547683	-0.013171
 876	4.3750e-01	5.0196	8.837090	0.000145	1.448546	0.490781	-0.011802
 877	4.3800e-01	4.9699	8.772946	0.000157	1.574506	0.533457	-0.012829
 878	4.3850e-01	4.9218	8.722914	0.000123	1.228115	0.416097	-0.010006
 879	4.3900e-01	4.8865	8.678441	0.000109	1.091658	0.369864	-0.008895
 880	4.3950e-01	4.8688	8.615153	0.000155	1.553513	0.526344	-0.012658
 881	4.4000e-01	4.8239	8.562127	0.000130	1.301592	0.440991	-0.010605
 882	4.4050e-01	4.7694	8.506536	0.000136	1.364572	0.462330	-0.011118
 883	4.4100e-01	4.7501	8.465911	0.000100	0.997187	0.337856	-0.008125
 884	4.4150e-01	4.6731	8.421438	0.000109	1.091658	0.369864	-0.008895
 885	4.4200e-01	4.6683	8.341472	0.000196	1.962885	0.665043	-0.015993
 886	4.4250e-01	4.6410	8.290157	0.000126	1.259605	0.426766	-0.010263
 887	4.4300e-01	4.5833	8.225586	0.000159	1.585003	0.537014	-0.012914
 888	4.4350e-01	4.5336	8.153317	0.000177	1.773944	0.601028	-0.014454
 889	4.4400e-01	4.4870	8.135357	0.000044	0.440862	0.149368	-0.003592
 890	4.4450e-01	4.4421	8.048549	0.000213	2.130832	0.721945	-0.017362
 891	4.4500e-01	4.4229	8.006642	0.000103	1.028677	0.348525	-0.008381
 892	4.4550e-01	4.3603	7.951906	0.000134	1.343579	0.455217	-0.010947
 893	4.4600e-01	4.3314	7.907860	0.000108	1.081161	0.366307	-0.008809
 894	4.4650e-01	4.2753	7.833454	0.000183	1.826427	0.618810	-0.014881
 895	4.4700e-01	4.2400	7.775297	0.000143	1.427552	0.483668	-0.011631
 896	4.4750e-01	4.2063	7.751350	0.000059	0.587816	0.199157	-0.004789
 897	4.4800e-01	4.1694	7.676515	0.000184	1.836924	0.622367	-0.014967
 898	4.4850e-01	4.1437	7.618358	0.000143	1.427552	0.483668	-0.011631
 899	4.4900e-01	4.0940	7.548228	0.000172	1.721460	0.583247	-0.014026
 900	4.4950e-01	4.0507	7.475531	0.000178	1.784441	0.604585	-0.014539
 901	4.5000e-01	4.0026	7.460992	0.000036	0.356888	0.120917	-0.002908
 902	4.5050e-01	3.9609	7.359645	0.000249	2.487720	0.842862	-0.020269
 903	4.5100e-01	3.9207	7.336553	0.000057	0.566822	0.192045	-0.004618
 904	4.5150e-01	3.9095	7.246324	0.000221	2.214806	0.750396	-0.018046
 905	4.5200e-01	3.8678	7.177049	0.000170	1.700467	0.576134	-0.013855
 906	4.5250e-01	3.8309	7.160799	0.000040	0.398875	0.135142	-0.003250
 907	4.5300e-01	3.7812	7.076129	0.000208	2.078348	0.704164	-0.016934
 908	4.5350e-01	3.7651	7.032084	0.000108	1.081161	0.366307	-0.008809
 909	4.5400e-01	3.6849	6.981196	0.000125	1.249108	0.423209	-0.010177
 910	4.5450e-01	3.6769	6.889685	0.000225	2.246296	0.761066	-0.018302
 911	4.5500e-01	3.6480	6.843073	0.000114	1.144141	0.387646	-0.009322
 912	4.5550e-01	3.5839	6.813567	0.000072	0.724273	0.245390	-0.005901
 913	4.5600e-01	3.5181	6.741299	0.000177	1.773944	0.601028	-0.014454
 914	4.5650e-01	3.5069	6.668175	0.000179	1.794937	0.608141	-0.014625
 915	4.5700e-01	3.4491	6.617287	0.000125	1.249108	0.423209	-0.010177
 916	4.5750e-01	3.4154	6.558703	0.000144	1.438049	0.487224	-0.011717
 917	4.5800e-01	3.4074	6.490283	0.000168	1.679473	0.569021	-0.013684
 918	4.5850e-01	3.3304	6.410317	0.000196	1.962885	0.665043	-0.015993
 919	4.5900e-01	3.2983	6.362850	0.000117	1.165135	0.394758	-0.009493
 920	4.5950e-01	3.2486	6.316239	0.000114	1.144141	0.387646	-0.009322
 921	4.6000e-01	3.2502	6.223017	-0.000229	-2.288283	-0.775291	-0.018644
 922	4.6050e-01	3.1539	6.180254	0.000105	1.049671	0.355638	-0.008553
 923	4.6100e-01	3.1154	6.147327	0.000081	0.808247	0.273841	-0.006585
 924	4.6150e-01	3.0978	6.081045	0.000163	1.626990	0.551239	-0.013256
 925	4.6200e-01	3.0561	6.006211	0.000184	1.836924	0.622367	-0.014967
 926	4.6250e-01	3.0127	5.944205	0.000152	1.522023	0.515675	-0.012401
 927	4.6300e-01	2.9919	5.875785	0.000168	1.679473	0.569021	-0.013684
 928	4.6350e-01	2.9341	5.815918	0.000147	1.469539	0.497893	-0.011974
 929	4.6400e-01	2.9117	5.759471	0.000139	1.385566	0.469442	-0.011289
 930	4.6450e-01	2.8491	5.699176	0.000148	1.480036	0.501450	-0.012059
 931	4.6500e-01	2.8138	5.616644	0.000203	2.025865	0.686382	-0.016506
 932	4.6550e-01	2.7978	5.565757	0.000125	1.249108	0.423209	-0.010177
 933	4.6600e-01	2.7272	5.500758	0.000160	1.595500	0.540570	-0.013000
 934	4.6650e-01	2.6518	5.448587	0.000128	1.280599	0.433879	-0.010434
 935	4.6700e-01	2.6518	5.394279	0.000133	1.333082	0.451660	-0.010862
 936	4.6750e-01	2.6165	5.302767	0.000225	2.246296	0.761066	-0.018302
 937	4.6800e-01	2.5860	5.248886	0.000132	1.322585	0.448104	-0.010776
 938	4.6850e-01	2.5235	5.198854	0.000123	1.228115	0.416097	-0.010006
 939	4.6900e-01	2.4769	5.136421	0.000153	1.532520	0.519232	-0.012487
 940	4.6950e-01	2.4368	5.058593	0.000191	1.910401	0.647261	-0.015566
 941	4.7000e-01	2.3823	5.001291	0.000141	1.406559	0.476555	-0.011460
 942	4.7050e-01	2.3566	4.935009	0.000163	1.626990	0.551239	-0.013256
 943	4.7100e-01	2.3326	4.862741	0.000177	1.773944	0.601028	-0.014454
 944	4.7150e-01	2.3117	4.768663	0.000231	2.309276	0.782404	-0.018816
 945	4.7200e-01	2.2652	4.741295	0.000067	0.671789	0.227608	-0.005474
 946	4.7250e-01	2.2187	4.652777	0.000217	2.172819	0.736171	-0.017704
 947	4.7300e-01	2.1769	4.619850	0.000081	0.808247	0.273841	-0.006585
 948	4.7350e-01	2.1064	4.548864	0.000174	1.742454	0.590359	-0.014197
 949	4.7400e-01	2.0791	4.469326	0.000195	1.952388	0.661487	-0.015908
 950	4.7450e-01	2.0646	4.389787	0.000195	1.952388	0.661487	-0.015908
 951	4.7500e-01	2.0197	4.326071	0.000156	1.564010	0.529901	-0.012743
 952	4.7550e-01	1.9684	4.251237	0.000184	1.836924	0.622367	-0.014967
 953	4.7600e-01	1.9524	4.207619	0.000107	1.070664	0.362751	-0.008724
 954	4.7650e-01	1.9074	4.125087	0.000203	2.025865	0.686382	-0.016506
 955	4.7700e-01	1.8641	4.058805	0.000163	1.626990	0.551239	-0.013256
 956	4.7750e-01	1.8144	4.015188	0.000107	1.070664	0.362751	-0.008724
 957	4.7800e-01	1.7727	3.938643	0.000188	1.878911	0.636592	-0.015309
 958	4.7850e-01	1.7229	3.857821	0.000198	1.983878	0.672156	-0.016164
 959	4.7900e-01	1.7021	3.789401	0.000168	1.679473	0.569021	-0.013684
 960	4.7950e-01	1.6427	3.713284	0.000187	1.868414	0.633036	-0.015223
 961	4.8000e-01	1.6171	3.654699	0.000144	1.438049	0.487224	-0.011717
 962	4.8050e-01	1.5561	3.586707	0.000167	1.668977	0.565465	-0.013598
 963	4.8100e-01	1.5353	3.515294	0.000175	1.752950	0.593916	-0.014283
 964	4.8150e-01	1.4919	3.452433	0.000154	1.543016	0.522788	-0.012572
 965	4.8200e-01	1.4775	3.346382	0.000260	2.603184	0.881983	-0.021210
 966	4.8250e-01	1.4358	3.291218	0.000135	1.354075	0.458773	-0.011033
 967	4.8300e-01	1.3893	3.225791	0.000161	1.605997	0.544126	-0.013085
 968	4.8350e-01	1.3315	3.162503	0.000155	1.553513	0.526344	-0.012658
 969	4.8400e-01	1.2818	3.080399	0.000202	2.015368	0.682825	-0.016421
 970	4.8450e-01	1.2353	3.032077	0.000119	1.186128	0.401871	-0.009664
 971	4.8500e-01	1.2192	2.948262	0.000206	2.057355	0.697051	-0.016763
 972	4.8550e-01	1.1695	2.894809	0.000131	1.312089	0.444548	-0.010691
 973	4.8600e-01	1.1214	2.787048	0.000265	2.645171	0.896208	-0.021552
 974	4.8650e-01	1.0813	2.740864	0.000113	1.133645	0.384089	-0.009237
 975	4.8700e-01	1.0347	2.665175	0.000186	1.857918	0.629479	-0.015138
 976	4.8750e-01	1.0139	2.591195	0.000182	1.815931	0.615254	-0.014796
 977	4.8800e-01	0.9770	2.512085	0.000194	1.941891	0.657931	-0.015822
 978	4.8850e-01	0.9192	2.434257	0.000191	1.910401	0.647261	-0.015566
 979	4.8900e-01	0.8871	2.369685	0.000159	1.585003	0.537014	-0.012914
 980	4.8950e-01	0.8727	2.282450	0.000214	2.141329	0.725502	-0.017447
 981	4.9000e-01	0.8262	2.212747	0.000171	1.710964	0.579690	-0.013941
 982	4.9050e-01	0.7973	2.141334	0.000175	1.752950	0.593916	-0.014283
 983	4.9100e-01	0.7492	2.053243	0.000216	2.162322	0.732615	-0.017618
 984	4.9150e-01	0.6786	2.009625	0.000107	1.070664	0.362751	-0.008724
 985	4.9200e-01	0.6577	1.959165	0.000124	1.238612	0.419653	-0.010092
 986	4.9250e-01	0.6080	1.838147	0.000297	2.970569	1.006456	-0.024204
 987	4.9300e-01	0.5839	1.758181	0.000196	1.962885	0.665043	-0.015993
 988	4.9350e-01	0.5422	1.700880	0.000141	1.406559	0.476555	-0.011460
 989	4.9400e-01	0.5134	1.582427	0.000291	2.907588	0.985118	-0.023690
 990	4.9450e-01	0.4540	1.547362	0.000086	0.860730	0.291623	-0.007013
 991	4.9500e-01	0.4091	1.458844	0.000217	2.172819	0.736171	-0.017704
 992	4.9550e-01	0.3834	1.398548	0.000148	1.480036	0.501450	-0.012059
 993	4.9600e-01	0.3353	1.300622	0.000240	2.403746	0.814411	-0.019585
 994	4.9650e-01	0.3080	1.224077	0.000188	1.878911	0.636592	-0.015309
 995	4.9700e-01	0.2727	1.127006	0.000238	2.382753	0.807299	-0.019414
 996	4.9750e-01	0.1733	1.114178	0.000031	0.314901	0.106691	-0.002566
 997	4.9800e-01	0.1652	1.013258	0.000248	2.477223	0.839306	-0.020184
 998	4.9850e-01	0.1251	0.938424	0.000184	1.836924	0.622367	-0.014967
 999	4.9900e-01	0.0882	0.813985	0.000305	3.054542	1.034907	-0.024888
1000	4.9950e-01	0.0561	0.793886	0.000049	0.493345	0.167150	-0.004020
1001	5.0000e-01	0.0786	0.651487	-0.000350	-3.495404	-1.184275	-0.028480
1002	5.0050e-01	-0.0193	0.641224	0.000025	0.251921	0.085353	-0.002053
1003	5.0100e-01	-0.0658	0.542443	0.000242	2.424740	0.821524	-0.019756
1004	5.0150e-01	-0.1091	0.466753	0.000186	1.857918	0.629479	-0.015138
1005	5.0200e-01	-0.1299	0.388070	0.000193	1.931394	0.654374	-0.015737
1006	5.0250e-01	-0.1813	0.316229	0.000176	1.763447	0.597472	-0.014368
1007	5.0300e-01	-0.2053	0.222579	0.000230	2.298779	0.778848	-0.018730
1008	5.0350e-01	-0.2438	0.144751	0.000191	1.910401	0.647261	-0.015566
1009	5.0400e-01	-0.3064	0.082318	0.000153	1.532520	0.519232	-0.012487
1010	5.0450e-01	-0.3321	-0.011760	0.000231	2.309276	0.782404	-0.018816
1011	5.0500e-01	-0.4027	-0.085739	0.000182	1.815931	0.615254	-0.014796
1012	5.0550e-01	-0.4059	-0.184520	0.000242	2.424740	0.821524	-0.019756
1013	5.0600e-01	-0.4572	-0.270901	0.000212	2.120335	0.718389	-0.017276
1014	5.0650e-01	-0.5101	-0.330768	0.000147	1.469539	0.497893	-0.011974
1015	5.0700e-01	-0.5262	-0.418004	0.000214	2.141329	0.725502	-0.017447
1016	5.0750e-01	-0.5855	-0.502246	0.000207	2.067852	0.700607	-0.016848
1017	5.0800e-01	-0.5807	-0.615139	-0.000277	-2.771131	-0.938885	-0.022579
1018	5.0850e-01	-0.6561	-0.661750	0.000114	1.144141	0.387646	-0.009322
1019	5.0900e-01	-0.6994	-0.731453	0.000171	1.710964	0.579690	-0.013941
1020	5.0950e-01	-0.7283	-0.821254	0.000220	2.204309	0.746840	-0.017960
1021	5.1000e-01	-0.7604	-0.898227	0.000189	1.889408	0.640149	-0.015395
1022	5.1050e-01	-0.7925	-1.000002	0.000250	2.498217	0.846419	-0.020355
1023	5.1100e-01	-0.8551	-1.067566	0.000166	1.658480	0.561908	-0.013513
1024	5.1150e-01	-0.9000	-1.150953	0.000205	2.046858	0.693494	-0.016677
1025	5.1200e-01	-0.9449	-1.233057	0.000202	2.015368	0.682825	-0.016421
1026	5.1250e-01	-0.9898	-1.306609	0.000181	1.805434	0.611698	-0.014710
1027	5.1300e-01	-1.0091	-1.405390	0.000242	2.424740	0.821524	-0.019756
1028	5.1350e-01	-1.0668	-1.447298	0.000103	1.028677	0.348525	-0.008381
1029	5.1400e-01	-1.0973	-1.538382	0.000224	2.235799	0.757509	-0.018217
1030	5.1450e-01	-1.1454	-1.610651	0.000177	1.773944	0.601028	-0.014454
1031	5.1500e-01	-1.1791	-1.705156	0.000232	2.319773	0.785960	-0.018901
1032	5.1550e-01	-1.2417	-1.769727	0.000159	1.585003	0.537014	-0.012914
1033	5.1600e-01	-1.2722	-1.873640	0.000255	2.550700	0.864201	-0.020783
1034	5.1650e-01	-1.2706	-1.947619	-0.000182	-1.815931	-0.615254	-0.014796
1035	5.1700e-01	-1.3315	-2.033572	0.000211	2.109839	0.714833	-0.017191
1036	5.1750e-01	-1.3812	-2.112255	0.000193	1.931394	0.654374	-0.015737
1037	5.1800e-01	-1.3877	-2.190938	0.000193	1.931394	0.654374	-0.015737
1038	5.1850e-01	-1.4422	-2.269621	0.000193	1.931394	0.654374	-0.015737
1039	5.1900e-01	-1.5096	-2.336331	0.000164	1.637487	0.554795	-0.013342
1040	5.1950e-01	-1.5304	-2.412448	0.000187	1.868414	0.633036	-0.015223
1041	5.2000e-01	-1.5738	-2.500539	0.000216	2.162322	0.732615	-0.017618
1042	5.2050e-01	-1.6010	-2.603596	0.000253	2.529707	0.857088	-0.020612
1043	5.2100e-01	-1.6652	-2.651063	0.000117	1.165135	0.394758	-0.009493
1044	5.2150e-01	-1.6973	-2.709648	0.000144	1.438049	0.487224	-0.011717
1045	5.2200e-01	-1.7486	-2.800732	0.000224	2.235799	0.757509	-0.018217
1046	5.2250e-01	-1.7727	-2.869579	0.000169	1.689970	0.572577	-0.013770
1047	5.2300e-01	-1.8192	-2.965795	0.000236	2.361760	0.800186	-0.019243
1048	5.2350e-01	-1.8770	-3.049182	0.000205	2.046858	0.693494	-0.016677
1049	5.2400e-01	-1.8882	-3.108622	0.000146	1.459043	0.494337	-0.011888
1050	5.2450e-01	-1.9491	-3.207403	0.000242	2.424740	0.821524	-0.019756
1051	5.2500e-01	-1.9796	-3.258718	0.000126	1.259605	0.426766	-0.010263
1052	5.2550e-01	-2.0294	-3.336119	0.000190	1.899904	0.643705	-0.015480
1053	5.2600e-01	-2.0679	-3.417367	0.000199	1.994375	0.675712	-0.016250
1054	5.2650e-01	-2.1272	-3.468682	0.000126	1.259605	0.426766	-0.010263
1055	5.2700e-01	-2.1320	-3.567891	0.000244	2.435237	0.825080	-0.019842
1056	5.2750e-01	-2.1785	-3.644864	0.000189	1.889408	0.640149	-0.015395
1057	5.2800e-01	-2.2042	-3.721837	0.000189	1.889408	0.640149	-0.015395
1058	5.2850e-01	-2.2379	-3.800520	0.000193	1.931394	0.654374	-0.015737
1059	5.2900e-01	-2.2908	-3.872788	0.000177	1.773944	0.601028	-0.014454
1060	5.2950e-01	-2.3406	-3.919399	0.000114	1.144141	0.387646	-0.009322
1061	5.3000e-01	-2.4047	-3.998083	0.000193	1.931394	0.654374	-0.015737
1062	5.3050e-01	-2.3903	-4.093015	-0.000233	-2.330269	-0.789517	-0.018987
1063	5.3100e-01	-2.4256	-4.147324	0.000133	1.333082	0.451660	-0.010862
1064	5.3150e-01	-2.5042	-4.220020	0.000178	1.784441	0.604585	-0.014539
1065	5.3200e-01	-2.5395	-4.310677	0.000223	2.225302	0.753953	-0.018131
1066	5.3250e-01	-2.5764	-4.340183	0.000072	0.724273	0.245390	-0.005901
1067	5.3300e-01	-2.6053	-4.434688	0.000232	2.319773	0.785960	-0.018901
1068	5.3350e-01	-2.6454	-4.529621	0.000233	2.330269	0.789517	-0.018987
1069	5.3400e-01	-2.7047	-4.569390	0.000098	0.976194	0.330743	-0.007954
1070	5.3450e-01	-2.7593	-4.623698	0.000133	1.333082	0.451660	-0.010862
1071	5.3500e-01	-2.7801	-4.717348	0.000230	2.298779	0.778848	-0.018730
1072	5.3550e-01	-2.8379	-4.774650	0.000141	1.406559	0.476555	-0.011460
1073	5.3600e-01	-2.8700	-4.829814	0.000135	1.354075	0.458773	-0.011033
1074	5.3650e-01	-2.8940	-4.941851	0.000275	2.750138	0.931772	-0.022408
1075	5.3700e-01	-2.9374	-4.981193	0.000097	0.965697	0.327187	-0.007868
1076	5.3750e-01	-2.9582	-5.061159	0.000196	1.962885	0.665043	-0.015993
1077	5.3800e-01	-3.0192	-5.111191	0.000123	1.228115	0.416097	-0.010006
1078	5.3850e-01	-3.0545	-5.176190	0.000160	1.595500	0.540570	-0.013000
1079	5.3900e-01	-3.0801	-5.254018	0.000191	1.910401	0.647261	-0.015566
1080	5.3950e-01	-3.1266	-5.333984	0.000196	1.962885	0.665043	-0.015993
1081	5.4000e-01	-3.1988	-5.378457	0.000109	1.091658	0.369864	-0.008895
1082	5.4050e-01	-3.1988	-5.467831	0.000219	2.193812	0.743284	-0.017875
1083	5.4100e-01	-3.2341	-5.529409	0.000151	1.511526	0.512119	-0.012316
1084	5.4150e-01	-3.3031	-5.582434	0.000130	1.301592	0.440991	-0.010605
1085	5.4200e-01	-3.3545	-5.632894	0.000124	1.238612	0.419653	-0.010092
1086	5.4250e-01	-3.3528	-5.722695	-0.000220	-2.204309	-0.746840	-0.017960
1087	5.4300e-01	-3.4042	-5.789832	0.000165	1.647983	0.558352	-0.013427
1088	5.4350e-01	-3.4667	-5.840292	0.000124	1.238612	0.419653	-0.010092
1089	5.4400e-01	-3.5101	-5.906146	0.000162	1.616493	0.547683	-0.013171
1090	5.4450e-01	-3.5582	-5.973711	0.000166	1.658480	0.561908	-0.013513
1091	5.4500e-01	-3.5518	-6.034434	-0.000149	-1.490533	-0.505006	-0.012145
1092	5.4550e-01	-3.6368	-6.101144	0.000164	1.637487	0.554795	-0.013342
1093	5.4600e-01	-3.6721	-6.158018	0.000140	1.396062	0.472999	-0.011375
1094	5.4650e-01	-3.6785	-6.244826	0.000213	2.130832	0.721945	-0.017362
1095	5.4700e-01	-3.7363	-6.276042	0.000077	0.766260	0.259616	-0.006243
1096	5.4750e-01	-3.7732	-6.374396	0.000241	2.414243	0.817968	-0.019671
1097	5.4800e-01	-3.8245	-6.421435	0.000115	1.154638	0.391202	-0.009408
1098	5.4850e-01	-3.8582	-6.481302	0.000147	1.469539	0.497893	-0.011974
1099	5.4900e-01	-3.9015	-6.532190	0.000125	1.249108	0.423209	-0.010177
1100	5.4950e-01	-3.9448	-6.595478	0.000155	1.553513	0.526344	-0.012658
1101	5.5000e-01	-3.9753	-6.671596	0.000187	1.868414	0.633036	-0.015223
1102	5.5050e-01	-4.0314	-6.734457	0.000154	1.543016	0.522788	-0.012572
1103	5.5100e-01	-4.0459	-6.777219	0.000105	1.049671	0.355638	-0.008553
1104	5.5150e-01	-4.1052	-6.834521	0.000141	1.406559	0.476555	-0.011460
1105	5.5200e-01	-4.1341	-6.925178	0.000223	2.225302	0.753953	-0.018131
1106	5.5250e-01	-4.1742	-6.954256	0.000071	0.713776	0.241834	-0.005816
1107	5.5300e-01	-4.2063	-7.043202	0.000218	2.183316	0.739727	-0.017789
1108	5.5350e-01	-4.2368	-7.083826	0.000100	0.997187	0.337856	-0.008125
1109	5.5400e-01	-4.3234	-7.138563	0.000134	1.343579	0.455217	-0.010947
1110	5.5450e-01	-4.3715	-7.189878	0.000126	1.259605	0.426766	-0.010263
1111	5.5500e-01	-4.3635	-7.259153	-0.000170	-1.700467	-0.576134	-0.013855
1112	5.5550e-01	-4.4100	-7.314317	0.000135	1.354075	0.458773	-0.011033
1113	5.5600e-01	-4.4501	-7.374184	0.000147	1.469539	0.497893	-0.011974
1114	5.5650e-01	-4.5159	-7.434907	0.000149	1.490533	0.505006	-0.012145
1115	5.5700e-01	-4.5368	-7.483228	0.000119	1.186128	0.401871	-0.009664
1116	5.5750e-01	-4.6122	-7.561912	0.000193	1.931394	0.654374	-0.015737
1117	5.5800e-01	-4.6074	-7.598687	-0.000090	-0.902717	-0.305849	-0.007355
1118	5.5850e-01	-4.6507	-7.662831	0.000157	1.574506	0.533457	-0.012829
1119	5.5900e-01	-4.7164	-7.711580	0.000120	1.196625	0.405427	-0.009750
1120	5.5950e-01	-4.7293	-7.777435	0.000162	1.616493	0.547683	-0.013171
1121	5.6000e-01	-4.7918	-7.821480	0.000108	1.081161	0.366307	-0.008809
1122	5.6050e-01	-4.8287	-7.863815	0.000104	1.039174	0.352082	-0.008467
1123	5.6100e-01	-4.8416	-7.962169	0.000241	2.414243	0.817968	-0.019671
1124	5.6150e-01	-4.9073	-7.968583	0.000016	0.157451	0.053346	-0.001283
1125	5.6200e-01	-4.9539	-8.044273	0.000186	1.857918	0.629479	-0.015138
1126	5.6250e-01	-4.9811	-8.125949	0.000200	2.004871	0.679269	-0.016335
1127	5.6300e-01	-5.0357	-8.164008	0.000093	0.934207	0.316518	-0.007612
1128	5.6350e-01	-5.0614	-8.217461	0.000131	1.312089	0.444548	-0.010691
1129	5.6400e-01	-5.0983	-8.286736	0.000170	1.700467	0.576134	-0.013855
1130	5.6450e-01	-5.1464	-8.312822	0.000064	0.640299	0.216939	-0.005217
1131	5.6500e-01	-5.1688	-8.385945	0.000179	1.794937	0.608141	-0.014625
1132	5.6550e-01	-5.2298	-8.454365	0.000168	1.679473	0.569021	-0.013684
1133	5.6600e-01	-5.2603	-8.500977	0.000114	1.144141	0.387646	-0.009322
1134	5.6650e-01	-5.3004	-8.571962	0.000174	1.742454	0.590359	-0.014197
1135	5.6700e-01	-5.3244	-8.619856	0.000118	1.175631	0.398315	-0.009579
1136	5.6750e-01	-5.3694	-8.671172	0.000126	1.259605	0.426766	-0.010263
1137	5.6800e-01	-5.4111	-8.696829	0.000063	0.629803	0.213383	-0.005132
1138	5.6850e-01	-5.4416	-8.779788	0.000204	2.036362	0.689938	-0.016592
1139	5.6900e-01	-5.4993	-8.813998	0.000084	0.839737	0.284511	-0.006842
1140	5.6950e-01	-5.5394	-8.887550	0.000181	1.805434	0.611698	-0.014710
1141	5.7000e-01	-5.5779	-8.951266	0.000156	1.564010	0.529901	-0.012743
1142	5.7050e-01	-5.6132	-9.013699	0.000153	1.532520	0.519232	-0.012487
1143	5.7100e-01	-5.6645	-9.051758	0.000093	0.934207	0.316518	-0.007612
1144	5.7150e-01	-5.7111	-9.116757	0.000160	1.595500	0.540570	-0.013000
1145	5.7200e-01	-5.7576	-9.140704	0.000059	0.587816	0.199157	-0.004789
1146	5.7250e-01	-5.7736	-9.192019	0.000126	1.259605	0.426766	-0.010263
1147	5.7300e-01	-5.8378	-9.253597	0.000151	1.511526	0.512119	-0.012316
1148	5.7350e-01	-5.8779	-9.286952	0.000082	0.818743	0.277398	-0.006671
1149	5.7400e-01	-5.8988	-9.368201	0.000199	1.994375	0.675712	-0.016250
1150	5.7450e-01	-5.9389	-9.401128	0.000081	0.808247	0.273841	-0.006585
1151	5.7500e-01	-5.9501	-9.482804	0.000200	2.004871	0.679269	-0.016335
1152	5.7550e-01	-6.0159	-9.496061	0.000033	0.325398	0.110248	-0.002651
1153	5.7600e-01	-6.0303	-9.573461	0.000190	1.899904	0.643705	-0.015480
1154	5.7650e-01	-6.0849	-9.635467	0.000152	1.522023	0.515675	-0.012401
1155	5.7700e-01	-6.1522	-9.662835	0.000067	0.671789	0.227608	-0.005474
1156	5.7750e-01	-6.1731	-9.722702	0.000147	1.469539	0.497893	-0.011974
1157	5.7800e-01	-6.2308	-9.764182	0.000102	1.018181	0.344969	-0.008296
1158	5.7850e-01	-6.2677	-9.825332	0.000150	1.501029	0.508563	-0.012230
1159	5.7900e-01	-6.3094	-9.867667	0.000104	1.039174	0.352082	-0.008467
1160	5.7950e-01	-6.3255	-9.937370	0.000171	1.710964	0.579690	-0.013941
1161	5.8000e-01	-6.4153	-9.975856	0.000094	0.944704	0.320074	-0.007697
1162	5.8050e-01	-6.4057	-10.028882	-0.000130	-1.301592	-0.440991	-0.010605
1163	5.8100e-01	-6.4330	-10.103716	0.000184	1.836924	0.622367	-0.014967
1164	5.8150e-01	-6.5116	-10.112269	0.000021	0.209934	0.071128	-0.001711
1165	5.8200e-01	-6.5340	-10.162301	0.000123	1.228115	0.416097	-0.010006
1166	5.8250e-01	-6.5725	-10.205919	0.000107	1.070664	0.362751	-0.008724
1167	5.8300e-01	-6.6287	-10.288023	0.000202	2.015368	0.682825	-0.016421
1168	5.8350e-01	-6.6672	-10.325654	0.000092	0.923710	0.312962	-0.007526
1169	5.8400e-01	-6.7025	-10.359008	0.000082	0.818743	0.277398	-0.006671
1170	5.8450e-01	-6.7667	-10.415027	0.000138	1.375069	0.465886	-0.011204
1171	5.8500e-01	-6.7795	-10.467198	0.000128	1.280599	0.433879	-0.010434
1172	5.8550e-01	-6.8308	-10.515519	0.000119	1.186128	0.401871	-0.009664
1173	5.8600e-01	-6.8854	-10.588643	0.000179	1.794937	0.608141	-0.014625
1174	5.8650e-01	-6.9110	-10.620715	0.000079	0.787253	0.266729	-0.006414
1175	5.8700e-01	-6.9576	-10.672885	0.000128	1.280599	0.433879	-0.010434
1176	5.8750e-01	-6.9608	-10.718641	0.000112	1.123148	0.380533	-0.009151
1177	5.8800e-01	-7.0153	-10.767818	0.000121	1.207122	0.408984	-0.009835
1178	5.8850e-01	-7.0458	-10.834955	0.000165	1.647983	0.558352	-0.013427
1179	5.8900e-01	-7.0971	-10.862751	0.000068	0.682286	0.231165	-0.005559
1180	5.8950e-01	-7.1613	-10.918770	0.000138	1.375069	0.465886	-0.011204
1181	5.9000e-01	-7.1822	-10.972651	0.000132	1.322585	0.448104	-0.010776
1182	5.9050e-01	-7.2014	-11.023538	0.000125	1.249108	0.423209	-0.010177
1183	5.9100e-01	-7.2335	-11.079129	0.000136	1.364572	0.462330	-0.011118
1184	5.9150e-01	-7.2912	-11.119754	0.000100	0.997187	0.337856	-0.008125
1185	5.9200e-01	-7.3634	-11.132583	0.000031	0.314901	0.106691	-0.002566
1186	5.9250e-01	-7.3939	-11.218108	0.000210	2.099342	0.711276	-0.017105
1187	5.9300e-01	-7.4420	-11.242482	0.000060	0.598312	0.202714	-0.004875
1188	5.9350e-01	-7.4468	-11.306198	0.000156	1.564010	0.529901	-0.012743
1189	5.9400e-01	-7.4886	-11.356658	0.000124	1.238612	0.419653	-0.010092
1190	5.9450e-01	-7.5319	-11.416098	0.000146	1.459043	0.494337	-0.011888
1191	5.9500e-01	-7.5784	-11.451163	0.000086	0.860730	0.291623	-0.007013
1192	5.9550e-01	-7.6201	-11.502051	0.000125	1.249108	0.423209	-0.010177
1193	5.9600e-01	-7.6634	-11.549090	0.000115	1.154638	0.391202	-0.009408
1194	5.9650e-01	-7.7003	-11.590142	0.000101	1.007684	0.341413	-0.008210
1195	5.9700e-01	-7.7356	-11.637180	0.000115	1.154638	0.391202	-0.009408
1196	5.9750e-01	-7.7789	-11.669252	0.000079	0.787253	0.266729	-0.006414
1197	5.9800e-01	-7.8126	-11.744514	0.000185	1.847421	0.625923	-0.015052
1198	5.9850e-01	-7.8704	-11.771027	0.000065	0.650796	0.220496	-0.005303
1199	5.9900e-01	-7.9025	-11.817211	0.000113	1.133645	0.384089	-0.009237
1200	5.9950e-01	-7.9313	-11.874940	0.000142	1.417056	0.480111	-0.011546
1201	6.0000e-01	-7.9875	-11.905301	0.000075	0.745266	0.252503	-0.006072
1202	6.0050e-01	-7.9859	-11.982274	-0.000189	-1.889408	-0.640149	-0.015395
1203	6.0100e-01	-8.0629	-12.015629	0.000082	0.818743	0.277398	-0.006671
1204	6.0150e-01	-8.0661	-12.046418	0.000076	0.755763	0.256059	-0.006158
1205	6.0200e-01	-8.1431	-12.091318	0.000110	1.102154	0.373420	-0.008980
1206	6.0250e-01	-8.1848	-12.154179	0.000154	1.543016	0.522788	-0.012572
1207	6.0300e-01	-8.2249	-12.176416	0.000055	0.545829	0.184932	-0.004447
1208	6.0350e-01	-8.2313	-12.258948	0.000203	2.025865	0.686382	-0.016506
1209	6.0400e-01	-8.3083	-12.278191	0.000047	0.472352	0.160037	-0.003849
1210	6.0450e-01	-8.3228	-12.334210	0.000138	1.375069	0.465886	-0.011204
1211	6.0500e-01	-8.3645	-12.382959	0.000120	1.196625	0.405427	-0.009750
1212	6.0550e-01	-8.3998	-12.432563	0.000122	1.217618	0.412540	-0.009921
1213	6.0600e-01	-8.4623	-12.446675	0.000035	0.346391	0.117361	-0.002822
1214	6.0650e-01	-8.4880	-12.520227	0.000181	1.805434	0.611698	-0.014710
1215	6.0700e-01	-8.5570	-12.536049	0.000039	0.388378	0.131586	-0.003164
1216	6.0750e-01	-8.5666	-12.603614	0.000166	1.658480	0.561908	-0.013513
1217	6.0800e-01	-8.6260	-12.642100	0.000094	0.944704	0.320074	-0.007697
1218	6.0850e-01	-8.6292	-12.700684	0.000144	1.438049	0.487224	-0.011717
1219	6.0900e-01	-8.6837	-12.732756	0.000079	0.787253	0.266729	-0.006414
1220	6.0950e-01	-8.7254	-12.784927	0.000128	1.280599	0.433879	-0.010434
1221	6.1000e-01	-8.7880	-12.830683	0.000112	1.123148	0.380533	-0.009151
1222	6.1050e-01	-8.8297	-12.864037	0.000082	0.818743	0.277398	-0.006671
1223	6.1100e-01	-8.8634	-12.909366	0.000111	1.112651	0.376976	-0.009066
1224	6.1150e-01	-8.9468	-12.962819	0.000131	1.312089	0.444548	-0.010691
1225	6.1200e-01	-8.9645	-12.974365	0.000028	0.283411	0.096022	-0.002309
1226	6.1250e-01	-8.9885	-13.019693	0.000111	1.112651	0.376976	-0.009066
1227	6.1300e-01	-8.9933	-13.091106	0.000175	1.752950	0.593916	-0.014283
1228	6.1350e-01	-9.0751	-13.113343	0.000055	0.545829	0.184932	-0.004447
1229	6.1400e-01	-9.0944	-13.165086	0.000127	1.270102	0.430322	-0.010349
1230	6.1450e-01	-9.1265	-13.240348	0.000185	1.847421	0.625923	-0.015052
1231	6.1500e-01	-9.1874	-13.263012	0.000056	0.556326	0.188488	-0.004533
1232	6.1550e-01	-9.2147	-13.313471	0.000124	1.238612	0.419653	-0.010092
1233	6.1600e-01	-9.2644	-13.358372	0.000110	1.102154	0.373420	-0.008980
1234	6.1650e-01	-9.2709	-13.394293	0.000088	0.881724	0.298736	-0.007184
1235	6.1700e-01	-9.3447	-13.454160	0.000147	1.469539	0.497893	-0.011974
1236	6.1750e-01	-9.3960	-13.469982	0.000039	0.388378	0.131586	-0.003164
1237	6.1800e-01	-9.3864	-13.567909	-0.000240	-2.403746	-0.814411	-0.019585
1238	6.1850e-01	-9.4457	-13.578599	0.000026	0.262418	0.088910	-0.002138
1239	6.1900e-01	-9.4826	-13.612382	0.000083	0.829240	0.280954	-0.006756
1240	6.1950e-01	-9.5227	-13.654716	0.000104	1.039174	0.352082	-0.008467
1241	6.2000e-01	-9.5628	-13.736393	0.000200	2.004871	0.679269	-0.016335
1242	6.2050e-01	-9.6142	-13.749222	0.000031	0.314901	0.106691	-0.002566
1243	6.2100e-01	-9.6350	-13.809944	0.000149	1.490533	0.505006	-0.012145
1244	6.2150e-01	-9.6944	-13.836030	0.000064	0.640299	0.216939	-0.005217
1245	6.2200e-01	-9.7393	-13.877937	0.000103	1.028677	0.348525	-0.008381
1246	6.2250e-01	-9.7810	-13.915996	0.000093	0.934207	0.316518	-0.007612
1247	6.2300e-01	-9.8147	-13.966028	0.000123	1.228115	0.416097	-0.010006
1248	6.2350e-01	-9.8628	-14.009218	0.000106	1.060168	0.359195	-0.008638
1249	6.2400e-01	-9.9045	-14.031454	0.000055	0.545829	0.184932	-0.004447
1250	6.2450e-01	-9.9671	-14.085763	0.000133	1.333082	0.451660	-0.010862
1251	6.2500e-01	-9.9831	-14.138788	0.000130	1.301592	0.440991	-0.010605
1252	6.2550e-01	-9.9847	-14.192669	0.000132	1.322585	0.448104	-0.010776
1253	6.2600e-01	-10.0682	-14.203360	0.000026	0.262418	0.088910	-0.002138
1254	6.2650e-01	-10.1035	-14.265793	0.000153	1.532520	0.519232	-0.012487
1255	6.2700e-01	-10.1468	-14.309838	0.000108	1.081161	0.366307	-0.008809
1256	6.2750e-01	-10.1933	-14.344048	0.000084	0.839737	0.284511	-0.006842
1257	6.2800e-01	-10.2318	-14.384245	0.000099	0.986691	0.334300	-0.008039
1258	6.2850e-01	-10.2607	-14.419310	0.000086	0.860730	0.291623	-0.007013
1259	6.2900e-01	-10.2944	-14.474474	0.000135	1.354075	0.458773	-0.011033
1260	6.2950e-01	-10.3200	-14.521941	0.000117	1.165135	0.394758	-0.009493
1261	6.3000e-01	-10.3938	-14.552730	0.000076	0.755763	0.256059	-0.006158
1262	6.3050e-01	-10.4339	-14.592499	0.000098	0.976194	0.330743	-0.007954
1263	6.3100e-01	-10.4660	-14.654504	0.000152	1.522023	0.515675	-0.012401
1264	6.3150e-01	-10.5013	-14.673320	0.000046	0.461855	0.156481	-0.003763
1265	6.3200e-01	-10.5430	-14.720786	0.000117	1.165135	0.394758	-0.009493
1266	6.3250e-01	-10.5847	-14.784930	0.000157	1.574506	0.533457	-0.012829
1267	6.3300e-01	-10.6040	-14.808449	0.000058	0.577319	0.195601	-0.004704
1268	6.3350e-01	-10.6698	-14.846080	0.000092	0.923710	0.312962	-0.007526
1269	6.3400e-01	-10.6505	-14.910652	-0.000159	-1.585003	-0.537014	-0.012914
1270	6.3450e-01	-10.7291	-14.943151	0.000080	0.797750	0.270285	-0.006500
1271	6.3500e-01	-10.7820	-14.964533	0.000052	0.524835	0.177819	-0.004276
1272	6.3550e-01	-10.8061	-15.021407	0.000140	1.396062	0.472999	-0.011375
1273	6.3600e-01	-10.8767	-15.053479	0.000079	0.787253	0.266729	-0.006414
1274	6.3650e-01	-10.8959	-15.084695	0.000077	0.766260	0.259616	-0.006243
1275	6.3700e-01	-10.9457	-15.142852	0.000143	1.427552	0.483668	-0.011631
1276	6.3750e-01	-10.9697	-15.195878	0.000130	1.301592	0.440991	-0.010605
1277	6.3800e-01	-11.0307	-15.244200	0.000119	1.186128	0.401871	-0.009664
1278	6.3850e-01	-11.0676	-15.279693	0.000087	0.871227	0.295180	-0.007099
1279	6.3900e-01	-11.1141	-15.285679	0.000015	0.146954	0.049789	-0.001197
1280	6.3950e-01	-11.1125	-15.353244	-0.000166	-1.658480	-0.561908	-0.013513
1281	6.4000e-01	-11.1927	-15.401993	0.000120	1.196625	0.405427	-0.009750
1282	6.4050e-01	-11.2152	-15.439197	0.000091	0.913214	0.309405	-0.007441
1283	6.4100e-01	-11.1975	-15.480676	-0.000102	-1.018181	-0.344969	-0.008296
1284	6.4150e-01	-11.2794	-15.528143	0.000117	1.165135	0.394758	-0.009493
1285	6.4200e-01	-11.3403	-15.566201	0.000093	0.934207	0.316518	-0.007612
1286	6.4250e-01	-11.3644	-15.601267	0.000086	0.860730	0.291623	-0.007013
1287	6.4300e-01	-11.4205	-15.624786	0.000058	0.577319	0.195601	-0.004704
1288	6.4350e-01	-11.4462	-15.656430	0.000078	0.776756	0.263172	-0.006329
1289	6.4400e-01	-11.5152	-15.701331	0.000110	1.102154	0.373420	-0.008980
1290	6.4450e-01	-11.5248	-15.762909	0.000151	1.511526	0.512119	-0.012316
1291	6.4500e-01	-11.5810	-15.780442	0.000043	0.430365	0.145812	-0.003507
1292	6.4550e-01	-11.6323	-15.819783	0.000097	0.965697	0.327187	-0.007868
1293	6.4600e-01	-11.6740	-15.863401	0.000107	1.070664	0.362751	-0.008724
1294	6.4650e-01	-11.6997	-15.911723	0.000119	1.186128	0.401871	-0.009664
1295	6.4700e-01	-11.7510	-15.963038	0.000126	1.259605	0.426766	-0.010263
1296	6.4750e-01	-11.8023	-15.995537	0.000080	0.797750	0.270285	-0.006500
1297	6.4800e-01	-11.8104	-16.011359	0.000039	0.388378	0.131586	-0.003164
1298	6.4850e-01	-11.8280	-16.070372	0.000145	1.448546	0.490781	-0.011802
1299	6.4900e-01	-11.8858	-16.113989	0.000107	1.070664	0.362751	-0.008724
1300	6.4950e-01	-11.9387	-16.140502	0.000065	0.650796	0.220496	-0.005303
1301	6.5000e-01	-11.9644	-16.190534	0.000123	1.228115	0.416097	-0.010006
1302	6.5050e-01	-12.0269	-16.227310	0.000090	0.902717	0.305849	-0.007355
1303	6.5100e-01	-12.0783	-16.258527	0.000077	0.766260	0.259616	-0.006243
1304	6.5150e-01	-12.0975	-16.296585	0.000093	0.934207	0.316518	-0.007612
1305	6.5200e-01	-12.1264	-16.362012	0.000161	1.605997	0.544126	-0.013085
1306	6.5250e-01	-12.1793	-16.399643	0.000092	0.923710	0.312962	-0.007526
1307	6.5300e-01	-12.2243	-16.443261	0.000107	1.070664	0.362751	-0.008724
1308	6.5350e-01	-12.2612	-16.465925	0.000056	0.556326	0.188488	-0.004533
1309	6.5400e-01	-12.2756	-16.513819	0.000118	1.175631	0.398315	-0.009579
1310	6.5450e-01	-12.3189	-16.540759	0.000066	0.661293	0.224052	-0.005388
1311	6.5500e-01	-12.3702	-16.594640	0.000132	1.322585	0.448104	-0.010776
1312	6.5550e-01	-12.4152	-16.638686	0.000108	1.081161	0.366307	-0.008809
1313	6.5600e-01	-12.4472	-16.652797	0.000035	0.346391	0.117361	-0.002822
1314	6.5650e-01	-12.5082	-16.719079	0.000163	1.626990	0.551239	-0.013256
1315	6.5700e-01	-12.5194	-16.749441	0.000075	0.745266	0.252503	-0.006072
1316	6.5750e-01	-12.5852	-16.776381	0.000066	0.661293	0.224052	-0.005388
1317	6.5800e-01	-12.6301	-16.810591	0.000084	0.839737	0.284511	-0.006842
1318	6.5850e-01	-12.6333	-16.858485	0.000118	1.175631	0.398315	-0.009579
1319	6.5900e-01	-12.6959	-16.911938	0.000131	1.312089	0.444548	-0.010691
1320	6.5950e-01	-12.7553	-16.927333	0.000038	0.377882	0.128030	-0.003079
1321	6.6000e-01	-12.7825	-16.967102	0.000098	0.976194	0.330743	-0.007954
1322	6.6050e-01	-12.8371	-17.002167	0.000086	0.860730	0.291623	-0.007013
1323	6.6100e-01	-12.8371	-17.071442	0.000170	1.700467	0.576134	-0.013855
1324	6.6150e-01	-12.8178	-17.143711	-0.000177	-1.773944	-0.601028	-0.014454
1325	6.6200e-01	-12.9510	-17.123185	-0.000050	-0.503842	-0.170706	0.004105
1326	6.6250e-01	-12.9558	-17.166803	0.000107	1.070664	0.362751	-0.008724
1327	6.6300e-01	-13.0216	-17.218118	0.000126	1.259605	0.426766	-0.010263
1328	6.6350e-01	-13.0601	-17.236506	0.000045	0.451358	0.152924	-0.003678
1329	6.6400e-01	-13.0889	-17.286110	0.000122	1.217618	0.412540	-0.009921
1330	6.6450e-01	-13.1563	-17.327162	0.000101	1.007684	0.341413	-0.008210
1331	6.6500e-01	-13.1820	-17.364793	0.000092	0.923710	0.312962	-0.007526
1332	6.6550e-01	-13.2012	-17.418674	0.000132	1.322585	0.448104	-0.010776
1333	6.6600e-01	-13.2462	-17.451174	0.000080	0.797750	0.270285	-0.006500
1334	6.6650e-01	-13.3103	-17.446470	-0.000012	-0.115464	-0.039120	0.000941
1335	6.6700e-01	-13.3456	-17.509331	0.000154	1.543016	0.522788	-0.012572
1336	6.6750e-01	-13.3601	-17.573902	0.000159	1.585003	0.537014	-0.012914
1337	6.6800e-01	-13.4226	-17.590152	0.000040	0.398875	0.135142	-0.003250
1338	6.6850e-01	-13.4547	-17.617092	0.000066	0.661293	0.224052	-0.005388
1339	6.6900e-01	-13.4932	-17.657289	0.000099	0.986691	0.334300	-0.008039
1340	6.6950e-01	-13.5510	-17.701334	0.000108	1.081161	0.366307	-0.008809
1341	6.7000e-01	-13.5718	-17.742814	0.000102	1.018181	0.344969	-0.008296
1342	6.7050e-01	-13.5975	-17.795840	0.000130	1.301592	0.440991	-0.010605
1343	6.7100e-01	-13.6472	-17.833043	0.000091	0.913214	0.309405	-0.007441
1344	6.7150e-01	-13.6793	-17.866825	0.000083	0.829240	0.280954	-0.006756
1345	6.7200e-01	-13.7274	-17.888634	0.000054	0.535332	0.181375	-0.004362
1346	6.7250e-01	-13.7739	-17.939522	0.000125	1.249108	0.423209	-0.010177
1347	6.7300e-01	-13.8108	-17.971594	0.000079	0.787253	0.266729	-0.006414
1348	6.7350e-01	-13.8782	-18.028468	0.000140	1.396062	0.472999	-0.011375
1349	6.7400e-01	-13.8766	-18.064816	-0.000089	-0.892220	-0.302292	-0.007270
1350	6.7450e-01	-13.9312	-18.093467	0.000070	0.703280	0.238278	-0.005730
1351	6.7500e-01	-13.9953	-18.110999	0.000043	0.430365	0.145812	-0.003507
1352	6.7550e-01	-14.0001	-18.165308	0.000133	1.333082	0.451660	-0.010862
1353	6.7600e-01	-14.0483	-18.184551	0.000047	0.472352	0.160037	-0.003849
1354	6.7650e-01	-14.0739	-18.247840	0.000155	1.553513	0.526344	-0.012658
1355	6.7700e-01	-14.1461	-18.282050	0.000084	0.839737	0.284511	-0.006842
1356	6.7750e-01	-14.1894	-18.312411	0.000075	0.745266	0.252503	-0.006072
1357	6.7800e-01	-14.2231	-18.352180	0.000098	0.976194	0.330743	-0.007954
1358	6.7850e-01	-14.2504	-18.406061	0.000132	1.322585	0.448104	-0.010776
1359	6.7900e-01	-14.2905	-18.435139	0.000071	0.713776	0.241834	-0.005816
1360	6.7950e-01	-14.3819	-18.449251	0.000035	0.346391	0.117361	-0.002822
1361	6.8000e-01	-14.3948	-18.492441	0.000106	1.060168	0.359195	-0.008638
1362	6.8050e-01	-14.3996	-18.544184	0.000127	1.270102	0.430322	-0.010349
1363	6.8100e-01	-14.4573	-18.583098	0.000096	0.955201	0.323631	-0.007783
1364	6.8150e-01	-14.4718	-18.631419	0.000119	1.186128	0.401871	-0.009664
1365	6.8200e-01	-14.5536	-18.646386	0.000037	0.367385	0.124473	-0.002993
1366	6.8250e-01	-14.5472	-18.695991	-0.000122	-1.217618	-0.412540	-0.009921
1367	6.8300e-01	-14.6210	-18.734049	0.000093	0.934207	0.316518	-0.007612
1368	6.8350e-01	-14.6547	-18.765694	0.000078	0.776756	0.263172	-0.006329
1369	6.8400e-01	-14.6932	-18.808029	0.000104	1.039174	0.352082	-0.008467
1370	6.8450e-01	-14.7188	-18.845660	0.000092	0.923710	0.312962	-0.007526
1371	6.8500e-01	-14.7670	-18.872600	0.000066	0.661293	0.224052	-0.005388
1372	6.8550e-01	-14.8119	-18.910231	0.000092	0.923710	0.312962	-0.007526
1373	6.8600e-01	-14.8696	-18.940592	0.000075	0.745266	0.252503	-0.006072
1374	6.8650e-01	-14.8761	-19.022697	0.000202	2.015368	0.682825	-0.016421
1375	6.8700e-01	-14.9210	-19.020131	-0.000006	-0.062980	-0.021338	0.000513
1376	6.8750e-01	-14.9514	-19.087696	0.000166	1.658480	0.561908	-0.013513
1377	6.8800e-01	-15.0092	-19.102235	0.000036	0.356888	0.120917	-0.002908
1378	6.8850e-01	-15.0317	-19.149701	0.000117	1.165135	0.394758	-0.009493
1379	6.8900e-01	-15.0702	-19.189043	0.000097	0.965697	0.327187	-0.007868
1380	6.8950e-01	-15.1327	-19.224536	0.000087	0.871227	0.295180	-0.007099
1381	6.9000e-01	-15.1969	-19.253614	0.000071	0.713776	0.241834	-0.005816
1382	6.9050e-01	-15.2226	-19.285258	0.000078	0.776756	0.263172	-0.006329
1383	6.9100e-01	-15.2482	-19.331870	0.000114	1.144141	0.387646	-0.009322
1384	6.9150e-01	-15.2867	-19.382757	0.000125	1.249108	0.423209	-0.010177
1385	6.9200e-01	-15.3252	-19.402428	0.000048	0.482849	0.163594	-0.003934
1386	6.9250e-01	-15.3750	-19.451177	0.000120	1.196625	0.405427	-0.009750
1387	6.9300e-01	-15.4119	-19.481966	0.000076	0.755763	0.256059	-0.006158
1388	6.9350e-01	-15.4536	-19.520025	0.000093	0.934207	0.316518	-0.007612
1389	6.9400e-01	-15.4889	-19.569629	0.000122	1.217618	0.412540	-0.009921
1390	6.9450e-01	-15.5498	-19.589728	0.000049	0.493345	0.167150	-0.004020
1391	6.9500e-01	-15.6012	-19.616668	0.000066	0.661293	0.224052	-0.005388
1392	6.9550e-01	-15.6365	-19.679101	0.000153	1.532520	0.519232	-0.012487
1393	6.9600e-01	-15.6814	-19.706042	0.000066	0.661293	0.224052	-0.005388
1394	6.9650e-01	-15.7006	-19.744956	0.000096	0.955201	0.323631	-0.007783
1395	6.9700e-01	-15.7584	-19.782587	0.000092	0.923710	0.312962	-0.007526
1396	6.9750e-01	-15.7889	-19.800975	0.000045	0.451358	0.152924	-0.003678
1397	6.9800e-01	-15.8177	-19.871533	0.000173	1.731957	0.586803	-0.014112
1398	6.9850e-01	-15.8899	-19.898473	0.000066	0.661293	0.224052	-0.005388
1399	6.9900e-01	-15.9044	-19.924986	0.000065	0.650796	0.220496	-0.005303
1400	6.9950e-01	-15.9397	-19.982715	0.000142	1.417056	0.480111	-0.011546
1401	7.0000e-01	-15.9701	-20.024195	0.000102	1.018181	0.344969	-0.008296
1402	7.0050e-01	-16.0327	-20.064819	0.000100	0.997187	0.337856	-0.008125
1403	7.0100e-01	-16.0487	-20.075510	0.000026	0.262418	0.088910	-0.002138
1404	7.0150e-01	-16.0921	-20.118700	0.000106	1.060168	0.359195	-0.008638
1405	7.0200e-01	-16.0985	-20.166594	0.000118	1.175631	0.398315	-0.009579
1406	7.0250e-01	-16.1867	-20.208501	0.000103	1.028677	0.348525	-0.008381
1407	7.0300e-01	-16.2268	-20.211922	0.000008	0.083974	0.028451	-0.000684
1408	7.0350e-01	-16.2589	-20.266658	0.000134	1.343579	0.455217	-0.010947
1409	7.0400e-01	-16.2958	-20.300868	0.000084	0.839737	0.284511	-0.006842
1410	7.0450e-01	-16.3231	-20.366723	0.000162	1.616493	0.547683	-0.013171
1411	7.0500e-01	-16.3921	-20.387676	0.000051	0.514339	0.174263	-0.004191
1412	7.0550e-01	-16.4081	-20.412906	0.000062	0.619306	0.209826	-0.005046
1413	7.0600e-01	-16.4594	-20.444123	0.000077	0.766260	0.259616	-0.006243
1414	7.0650e-01	-16.4851	-20.497148	0.000130	1.301592	0.440991	-0.010605
1415	7.0700e-01	-16.5348	-20.530503	0.000082	0.818743	0.277398	-0.006671
1416	7.0750e-01	-16.6022	-20.571128	0.000100	0.997187	0.337856	-0.008125
1417	7.0800e-01	-16.6215	-20.605765	0.000085	0.850233	0.288067	-0.006928
1418	7.0850e-01	-16.6455	-20.665205	0.000146	1.459043	0.494337	-0.011888
1419	7.0900e-01	-16.7177	-20.690863	0.000063	0.629803	0.213383	-0.005132
1420	7.0950e-01	-16.7145	-20.747309	-0.000139	-1.385566	-0.469442	-0.011289
1421	7.1000e-01	-16.7755	-20.756717	0.000023	0.230928	0.078240	-0.001882
1422	7.1050e-01	-16.8412	-20.790072	0.000082	0.818743	0.277398	-0.006671
1423	7.1100e-01	-16.8573	-20.849084	0.000145	1.448546	0.490781	-0.011802
1424	7.1150e-01	-16.8974	-20.878590	0.000072	0.724273	0.245390	-0.005901
1425	7.1200e-01	-16.9311	-20.917076	0.000094	0.944704	0.320074	-0.007697
1426	7.1250e-01	-16.9680	-20.976944	0.000147	1.469539	0.497893	-0.011974
1427	7.1300e-01	-17.0097	-20.990628	0.000034	0.335895	0.113804	-0.002737
1428	7.1350e-01	-17.0466	-21.031680	0.000101	1.007684	0.341413	-0.008210
1429	7.1400e-01	-17.0883	-21.077436	0.000112	1.123148	0.380533	-0.009151
1430	7.1450e-01	-17.1476	-21.118916	0.000102	1.018181	0.344969	-0.008296
1431	7.1500e-01	-17.1717	-21.156974	0.000093	0.934207	0.316518	-0.007612
1432	7.1550e-01	-17.2182	-21.186053	0.000071	0.713776	0.241834	-0.005816
1433	7.1600e-01	-17.2535	-21.215131	0.000071	0.713776	0.241834	-0.005816
1434	7.1650e-01	-17.2984	-21.246776	0.000078	0.776756	0.263172	-0.006329
1435	7.1700e-01	-17.3097	-21.315623	0.000169	1.689970	0.572577	-0.013770
1436	7.1750e-01	-17.3546	-21.365228	0.000122	1.217618	0.412540	-0.009921
1437	7.1800e-01	-17.3979	-21.396444	0.000077	0.766260	0.259616	-0.006243
1438	7.1850e-01	-17.4781	-21.422530	0.000064	0.640299	0.216939	-0.005217
1439	7.1900e-01	-17.5054	-21.450753	0.000069	0.692783	0.234721	-0.005645
1440	7.1950e-01	-17.5487	-21.506344	0.000136	1.364572	0.462330	-0.011118
1441	7.2000e-01	-17.5936	-21.552100	0.000112	1.123148	0.380533	-0.009151
1442	7.2050e-01	-17.6225	-21.579040	0.000066	0.661293	0.224052	-0.005388
1443	7.2100e-01	-17.6546	-21.638480	0.000146	1.459043	0.494337	-0.011888
1444	7.2150e-01	-17.7075	-21.677822	0.000097	0.965697	0.327187	-0.007868
1445	7.2200e-01	-17.7573	-21.685519	0.000019	0.188941	0.064015	-0.001539
1446	7.2250e-01	-17.7669	-21.718874	0.000082	0.818743	0.277398	-0.006671
1447	7.2300e-01	-17.8022	-21.797557	0.000193	1.931394	0.654374	-0.015737
1448	7.2350e-01	-17.8471	-21.818938	0.000052	0.524835	0.177819	-0.004276
1449	7.2400e-01	-17.8968	-21.843740	0.000061	0.608809	0.206270	-0.004960
1450	7.2450e-01	-17.9385	-21.902753	0.000145	1.448546	0.490781	-0.011802
1451	7.2500e-01	-17.9770	-21.936535	0.000083	0.829240	0.280954	-0.006756
1452	7.2550e-01	-18.0011	-21.983574	0.000115	1.154638	0.391202	-0.009408
1453	7.2600e-01	-18.0813	-22.010087	0.000065	0.650796	0.220496	-0.005303
1454	7.2650e-01	-18.1038	-22.053704	0.000107	1.070664	0.362751	-0.008724
1455	7.2700e-01	-18.1342	-22.093046	0.000097	0.965697	0.327187	-0.007868
1456	7.2750e-01	-18.1711	-22.122980	0.000073	0.734770	0.248947	-0.005987
1457	7.2800e-01	-18.2385	-22.156762	0.000083	0.829240	0.280954	-0.006756
1458	7.2850e-01	-18.2305	-22.232879	-0.000187	-1.868414	-0.633036	-0.015223
1459	7.2900e-01	-18.3284	-22.268800	0.000088	0.881724	0.298736	-0.007184
1460	7.2950e-01	-18.3588	-22.290181	0.000052	0.524835	0.177819	-0.004276
1461	7.3000e-01	-18.3829	-22.338503	0.000119	1.186128	0.401871	-0.009664
1462	7.3050e-01	-18.4342	-22.382121	0.000107	1.070664	0.362751	-0.008724
1463	7.3100e-01	-18.4615	-22.404357	0.000055	0.545829	0.184932	-0.004447
1464	7.3150e-01	-18.5032	-22.477053	0.000178	1.784441	0.604585	-0.014539
1465	7.3200e-01	-18.5433	-22.514257	0.000091	0.913214	0.309405	-0.007441
1466	7.3250e-01	-18.5915	-22.532217	0.000044	0.440862	0.149368	-0.003592
1467	7.3300e-01	-18.6027	-22.571559	0.000097	0.965697	0.327187	-0.007868
1468	7.3350e-01	-18.6428	-22.606624	0.000086	0.860730	0.291623	-0.007013
1469	7.3400e-01	-18.7102	-22.644255	0.000092	0.923710	0.312962	-0.007526
1470	7.3450e-01	-18.7487	-22.709682	0.000161	1.605997	0.544126	-0.013085
1471	7.3500e-01	-18.7952	-22.735767	0.000064	0.640299	0.216939	-0.005217
1472	7.3550e-01	-18.8096	-22.791358	0.000136	1.364572	0.462330	-0.011118
1473	7.3600e-01	-18.8802	-22.839680	0.000119	1.186128	0.401871	-0.009664
1474	7.3650e-01	-18.8995	-22.872607	0.000081	0.808247	0.273841	-0.006585
1475	7.3700e-01	-18.9476	-22.913231	0.000100	0.997187	0.337856	-0.008125
1476	7.3750e-01	-18.9861	-22.931192	0.000044	0.440862	0.149368	-0.003592
1477	7.3800e-01	-19.0246	-22.990204	0.000145	1.448546	0.490781	-0.011802
1478	7.3850e-01	-19.0711	-23.058196	0.000167	1.668977	0.565465	-0.013598
1479	7.3900e-01	-19.1016	-23.083854	0.000063	0.629803	0.213383	-0.005132
1480	7.3950e-01	-19.1513	-23.139017	0.000135	1.354075	0.458773	-0.011033
1481	7.4000e-01	-19.1754	-23.181352	0.000104	1.039174	0.352082	-0.008467
1482	7.4050e-01	-19.2315	-23.210003	0.000070	0.703280	0.238278	-0.005730
1483	7.4100e-01	-19.2765	-23.222832	0.000031	0.314901	0.106691	-0.002566
1484	7.4150e-01	-19.2877	-23.301087	0.000192	1.920898	0.650818	-0.015651
1485	7.4200e-01	-19.2861	-23.378488	-0.000190	-1.899904	-0.643705	-0.015480
1486	7.4250e-01	-19.4016	-23.379770	0.000003	0.031490	0.010669	-0.000257
1487	7.4300e-01	-19.4000	-23.411415	-0.000078	-0.776756	-0.263172	-0.006329
1488	7.4350e-01	-19.4353	-23.456743	0.000111	1.112651	0.376976	-0.009066
1489	7.4400e-01	-19.4962	-23.498223	0.000102	1.018181	0.344969	-0.008296
1490	7.4450e-01	-19.5347	-23.529867	0.000078	0.776756	0.263172	-0.006329
1491	7.4500e-01	-19.5604	-23.600853	0.000174	1.742454	0.590359	-0.014197
1492	7.4550e-01	-19.6214	-23.638056	0.000091	0.913214	0.309405	-0.007441
1493	7.4600e-01	-19.6711	-23.672694	0.000085	0.850233	0.288067	-0.006928
1494	7.4650e-01	-19.6823	-23.727430	0.000134	1.343579	0.455217	-0.010947
1495	7.4700e-01	-19.7385	-23.751377	0.000059	0.587816	0.199157	-0.004789
1496	7.4750e-01	-19.7770	-23.811244	0.000147	1.469539	0.497893	-0.011974
1497	7.4800e-01	-19.8203	-23.850586	0.000097	0.965697	0.327187	-0.007868
1498	7.4850e-01	-19.8684	-23.896342	0.000112	1.123148	0.380533	-0.009151
1499	7.4900e-01	-19.9149	-23.928414	0.000079	0.787253	0.266729	-0.006414
1500	7.4950e-01	-19.9278	-23.990847	0.000153	1.532520	0.519232	-0.012487
1501	7.5000e-01	-19.9855	-24.012228	0.000052	0.524835	0.177819	-0.004276
1502	7.5050e-01	-19.9085	-24.013939	-0.000004	-0.041987	-0.014226	-0.000342
1503	7.5100e-01	-19.8716	-24.016077	-0.000005	-0.052484	-0.017782	-0.000428
1504	7.5150e-01	-19.8283	-24.000682	0.000038	0.377882	0.128030	0.003079
1505	7.5200e-01	-19.8043	-23.981439	0.000047	0.472352	0.160037	0.003849
1506	7.5250e-01	-19.7337	-23.967755	0.000034	0.335895	0.113804	0.002737
1507	7.5300e-01	-19.7064	-23.948084	0.000048	0.482849	0.163594	0.003934
1508	7.5350e-01	-19.6887	-23.930979	0.000042	0.419868	0.142255	0.003421
1509	7.5400e-01	-19.6150	-23.907888	0.000057	0.566822	0.192045	0.004618
1510	7.5450e-01	-19.6021	-23.890355	0.000043	0.430365	0.145812	0.003507
1511	7.5500e-01	-19.5732	-23.855290	0.000086	0.860730	0.291623	0.007013
1512	7.5550e-01	-19.5075	-23.853579	0.000004	0.041987	0.014226	0.000342
1513	7.5600e-01	-19.4738	-23.836902	0.000041	0.409372	0.138699	0.003335
1514	7.5650e-01	-19.4385	-23.797133	0.000098	0.976194	0.330743	0.007954
1515	7.5700e-01	-19.4032	-23.766771	0.000075	0.745266	0.252503	0.006072
1516	7.5750e-01	-19.3454	-23.773186	-0.000016	-0.157451	-0.053346	-0.001283
1517	7.5800e-01	-19.3422	-23.727857	0.000111	1.112651	0.376976	0.009066
1518	7.5850e-01	-19.2813	-23.689371	0.000094	0.944704	0.320074	0.007697
1519	7.5900e-01	-19.2235	-23.691509	-0.000005	-0.052484	-0.017782	-0.000428
1520	7.5950e-01	-19.1690	-23.672266	0.000047	0.472352	0.160037	0.003849
1521	7.6000e-01	-19.1770	-23.653878	-0.000045	-0.451358	-0.152924	0.003678
1522	7.6050e-01	-19.1257	-23.613254	0.000100	0.997187	0.337856	0.008125
1523	7.6100e-01	-19.0711	-23.570919	0.000104	1.039174	0.352082	0.008467
1524	7.6150e-01	-19.0150	-23.579471	-0.000021	-0.209934	-0.071128	-0.001711
1525	7.6200e-01	-18.9973	-23.549538	0.000073	0.734770	0.248947	0.005987
1526	7.6250e-01	-18.9428	-23.504637	0.000110	1.102154	0.373420	0.008980
1527	7.6300e-01	-18.9187	-23.504209	0.000001	0.010497	0.003556	0.000086
1528	7.6350e-01	-18.8722	-23.473848	0.000075	0.745266	0.252503	0.006072
1529	7.6400e-01	-18.8177	-23.428947	0.000110	1.102154	0.373420	0.008980
1530	7.6450e-01	-18.8209	-23.397731	-0.000077	-0.766260	-0.259616	0.006243
1531	7.6500e-01	-18.7326	-23.384902	0.000031	0.314901	0.106691	0.002566
1532	7.6550e-01	-18.7342	-23.345988	-0.000096	-0.955201	-0.323631	0.007783
1533	7.6600e-01	-18.6636	-23.346843	-0.000002	-0.020993	-0.007113	-0.000171
1534	7.6650e-01	-18.6524	-23.295956	0.000125	1.249108	0.423209	0.010177
1535	7.6700e-01	-18.5866	-23.274575	0.000052	0.524835	0.177819	0.004276
1536	7.6750e-01	-18.5433	-23.242930	0.000078	0.776756	0.263172	0.006329
1537	7.6800e-01	-18.5177	-23.224970	0.000044	0.440862	0.149368	0.003592
1538	7.6850e-01	-18.4824	-23.193753	0.000077	0.766260	0.259616	0.006243
1539	7.6900e-01	-18.4166	-23.157833	0.000088	0.881724	0.298736	0.007184
1540	7.6950e-01	-18.3909	-23.138162	0.000048	0.482849	0.163594	0.003934
1541	7.7000e-01	-18.3428	-23.107373	0.000076	0.755763	0.256059	0.006158
1542	7.7050e-01	-18.3043	-23.096255	0.000027	0.272914	0.092466	0.002224
1543	7.7100e-01	-18.2802	-23.044940	0.000126	1.259605	0.426766	0.010263
1544	7.7150e-01	-18.2321	-23.031683	0.000033	0.325398	0.110248	0.002651
1545	7.7200e-01	-18.1824	-22.998756	0.000081	0.808247	0.273841	0.006585
1546	7.7250e-01	-18.1631	-22.965829	0.000081	0.808247	0.273841	0.006585
1547	7.7300e-01	-18.1214	-22.959415	0.000016	0.157451	0.053346	0.001283
1548	7.7350e-01	-18.0717	-22.906817	0.000129	1.291095	0.437435	0.010520
1549	7.7400e-01	-18.0380	-22.886719	0.000049	0.493345	0.167150	0.004020
1550	7.7450e-01	-18.0011	-22.860206	0.000065	0.650796	0.220496	0.005303
1551	7.7500e-01	-17.9417	-22.827279	0.000081	0.808247	0.273841	0.006585
1552	7.7550e-01	-17.9032	-22.790930	0.000089	0.892220	0.302292	0.007270
1553	7.7600e-01	-17.8904	-22.772543	0.000045	0.451358	0.152924	0.003678
1554	7.7650e-01	-17.8407	-22.760141	0.000030	0.304405	0.103135	0.002480
1555	7.7700e-01	-17.7909	-22.719517	0.000100	0.997187	0.337856	0.008125
1556	7.7750e-01	-17.7605	-22.675044	0.000109	1.091658	0.369864	0.008895
1557	7.7800e-01	-17.7364	-22.653663	0.000052	0.524835	0.177819	0.004276
1558	7.7850e-01	-17.6819	-22.618597	0.000086	0.860730	0.291623	0.007013
1559	7.7900e-01	-17.6257	-22.599354	0.000047	0.472352	0.160037	0.003849
1560	7.7950e-01	-17.5920	-22.569421	0.000073	0.734770	0.248947	0.005987
1561	7.8000e-01	-17.5503	-22.528369	0.000101	1.007684	0.341413	0.008210
1562	7.8050e-01	-17.5262	-22.486889	0.000102	1.018181	0.344969	0.008296
1563	7.8100e-01	-17.4942	-22.477053	0.000024	0.241424	0.081797	0.001967
1564	7.8150e-01	-17.4348	-22.447120	0.000073	0.734770	0.248947	0.005987
1565	7.8200e-01	-17.3995	-22.419752	0.000067	0.671789	0.227608	0.005474
1566	7.8250e-01	-17.3546	-22.391528	0.000069	0.692783	0.234721	0.005645
1567	7.8300e-01	-17.3081	-22.360739	0.000076	0.755763	0.256059	0.006158
1568	7.8350e-01	-17.2455	-22.311135	0.000122	1.217618	0.412540	0.009921
1569	7.8400e-01	-17.2359	-22.287616	0.000058	0.577319	0.195601	0.004704
1570	7.8450e-01	-17.1797	-22.280773	0.000017	0.167947	0.056902	0.001368
1571	7.8500e-01	-17.1942	-22.218340	-0.000153	-1.532520	-0.519232	0.012487
1572	7.8550e-01	-17.1091	-22.199525	0.000046	0.461855	0.156481	0.003763
1573	7.8600e-01	-17.0963	-22.176861	0.000056	0.556326	0.188488	0.004533
1574	7.8650e-01	-17.0337	-22.125973	0.000125	1.249108	0.423209	0.010177
1575	7.8700e-01	-16.9888	-22.117848	0.000020	0.199437	0.067571	0.001625
1576	7.8750e-01	-16.9487	-22.071665	0.000113	1.133645	0.384089	0.009237
1577	7.8800e-01	-16.9102	-22.064395	0.000018	0.178444	0.060458	0.001454
1578	7.8850e-01	-16.8797	-22.020350	0.000108	1.081161	0.366307	0.008809
1579	7.8900e-01	-16.8493	-21.976732	0.000107	1.070664	0.362751	0.008724
1580	7.8950e-01	-16.7578	-21.957489	0.000047	0.472352	0.160037	0.003849
1581	7.9000e-01	-16.7498	-21.943377	0.000035	0.346391	0.117361	0.002822
1582	7.9050e-01	-16.6872	-21.924562	0.000046	0.461855	0.156481	0.003763
1583	7.9100e-01	-16.6792	-21.878378	0.000113	1.133645	0.384089	0.009237
1584	7.9150e-01	-16.6215	-21.849727	0.000070	0.703280	0.238278	0.005730
1585	7.9200e-01	-16.6231	-21.829201	-0.000050	-0.503842	-0.170706	0.004105
1586	7.9250e-01	-16.5621	-21.763775	0.000161	1.605997	0.544126	0.013085
1587	7.9300e-01	-16.4947	-21.753084	0.000026	0.262418	0.088910	0.002138
1588	7.9350e-01	-16.5011	-21.678249	-0.000184	-1.836924	-0.622367	0.014967
1589	7.9400e-01	-16.4674	-21.670125	0.000020	0.199437	0.067571	0.001625
1590	7.9450e-01	-16.3888	-21.641474	0.000070	0.703280	0.238278	0.005730
1591	7.9500e-01	-16.3503	-21.606836	0.000085	0.850233	0.288067	0.006928
1592	7.9550e-01	-16.3070	-21.589303	0.000043	0.430365	0.145812	0.003507
1593	7.9600e-01	-16.2733	-21.554238	0.000086	0.860730	0.291623	0.007013
1594	7.9650e-01	-16.2364	-21.529436	0.000061	0.608809	0.206270	0.004960
1595	7.9700e-01	-16.1787	-21.487101	0.000104	1.039174	0.352082	0.008467
1596	7.9750e-01	-16.1562	-21.462726	0.000060	0.598312	0.202714	0.004875
1597	7.9800e-01	-16.1033	-21.421247	0.000102	1.018181	0.344969	0.008296
1598	7.9850e-01	-16.0905	-21.378057	0.000106	1.060168	0.359195	0.008638
1599	7.9900e-01	-16.0199	-21.383188	-0.000013	-0.125961	-0.042677	-0.001026
1600	7.9950e-01	-16.0022	-21.339570	0.000107	1.070664	0.362751	0.008724
1601	8.0000e-01	-15.9685	-21.294242	0.000111	1.112651	0.376976	0.009066
1602	8.0050e-01	-15.9300	-21.249341	0.000110	1.102154	0.373420	0.008980
1603	8.0100e-01	-15.8594	-21.266446	-0.000042	-0.419868	-0.142255	-0.003421
1604	8.0150e-01	-15.8274	-21.210427	0.000138	1.375069	0.465886	0.011204
1605	8.0200e-01	-15.7969	-21.168093	0.000104	1.039174	0.352082	0.008467
1606	8.0250e-01	-15.7696	-21.125758	0.000104	1.039174	0.352082	0.008467
1607	8.0300e-01	-15.7247	-21.110363	0.000038	0.377882	0.128030	0.003079
1608	8.0350e-01	-15.6718	-21.068028	0.000104	1.039174	0.352082	0.008467
1609	8.0400e-01	-15.6477	-21.041943	0.000064	0.640299	0.216939	0.005217
1610	8.0450e-01	-15.5851	-21.016713	0.000062	0.619306	0.209826	0.005046
1611	8.0500e-01	-15.5530	-20.992339	0.000060	0.598312	0.202714	0.004875
1612	8.0550e-01	-15.5242	-20.938458	0.000132	1.322585	0.448104	0.010776
1613	8.0600e-01	-15.4536	-20.911090	0.000067	0.671789	0.227608	0.005474
1614	8.0650e-01	-15.4199	-20.891847	0.000047	0.472352	0.160037	0.003849
1615	8.0700e-01	-15.4022	-20.857637	0.000084	0.839737	0.284511	0.006842
1616	8.0750e-01	-15.3445	-20.825565	0.000079	0.787253	0.266729	0.006414
1617	8.0800e-01	-15.3204	-20.797769	0.000068	0.682286	0.231165	0.005559
1618	8.0850e-01	-15.2803	-20.754151	0.000107	1.070664	0.362751	0.008724
1619	8.0900e-01	-15.2466	-20.712244	0.000103	1.028677	0.348525	0.008381
1620	8.0950e-01	-15.1841	-20.685304	0.000066	0.661293	0.224052	0.005388
1621	8.1000e-01	-15.1327	-20.668199	0.000042	0.419868	0.142255	0.003421
1622	8.1050e-01	-15.1103	-20.625008	0.000106	1.060168	0.359195	0.008638
1623	8.1100e-01	-15.0766	-20.595075	0.000073	0.734770	0.248947	0.005987
1624	8.1150e-01	-15.0285	-20.571128	0.000059	0.587816	0.199157	0.004789
1625	8.1200e-01	-14.9996	-20.506984	0.000157	1.574506	0.533457	0.012829
1626	8.1250e-01	-14.9354	-20.495010	0.000029	0.293908	0.099579	0.002395
1627	8.1300e-01	-14.9226	-20.469353	0.000063	0.629803	0.213383	0.005132
1628	8.1350e-01	-14.8905	-20.418465	0.000125	1.249108	0.423209	0.010177
1629	8.1400e-01	-14.8087	-20.391953	0.000065	0.650796	0.220496	0.005303
1630	8.1450e-01	-14.8055	-20.354749	0.000091	0.913214	0.309405	0.007441
1631	8.1500e-01	-14.7365	-20.326954	0.000068	0.682286	0.231165	0.005559
1632	8.1550e-01	-14.7204	-20.285046	0.000103	1.028677	0.348525	0.008381
1633	8.1600e-01	-14.6563	-20.250409	0.000085	0.850233	0.288067	0.006928
1634	8.1650e-01	-14.6354	-20.220903	0.000072	0.724273	0.245390	0.005901
1635	8.1700e-01	-14.6001	-20.199521	0.000052	0.524835	0.177819	0.004276
1636	8.1750e-01	-14.5648	-20.155904	0.000107	1.070664	0.362751	0.008724
1637	8.1800e-01	-14.4975	-20.121266	0.000085	0.850233	0.288067	0.006928
1638	8.1850e-01	-14.4573	-20.103733	0.000043	0.430365	0.145812	0.003507
1639	8.1900e-01	-14.4365	-20.065675	0.000093	0.934207	0.316518	0.007612
1640	8.1950e-01	-14.3980	-20.020346	0.000111	1.112651	0.376976	0.009066
1641	8.2000e-01	-14.3948	-19.966038	0.000133	1.333082	0.451660	0.010862
1642	8.2050e-01	-14.3210	-19.951926	0.000035	0.346391	0.117361	0.002822
1643	8.2100e-01	-14.2680	-19.918144	0.000083	0.829240	0.280954	0.006756
1644	8.2150e-01	-14.2344	-19.901039	0.000042	0.419868	0.142255	0.003421
1645	8.2200e-01	-14.1638	-19.854428	0.000114	1.144141	0.387646	0.009322
1646	8.2250e-01	-14.1558	-19.815941	0.000094	0.944704	0.320074	0.007697
1647	8.2300e-01	-14.0964	-19.780449	0.000087	0.871227	0.295180	0.007099
1648	8.2350e-01	-14.0643	-19.753080	0.000067	0.671789	0.227608	0.005474
1649	8.2400e-01	-14.0178	-19.730844	0.000055	0.545829	0.184932	0.004447
1650	8.2450e-01	-13.9793	-19.700055	0.000076	0.755763	0.256059	0.006158
1651	8.2500e-01	-13.9568	-19.649168	0.000125	1.249108	0.423209	0.010177
1652	8.2550e-01	-13.9231	-19.616668	0.000080	0.797750	0.270285	0.006500
1653	8.2600e-01	-13.8911	-19.571340	0.000111	1.112651	0.376976	0.009066
1654	8.2650e-01	-13.8317	-19.543544	0.000068	0.682286	0.231165	0.005559
1655	8.2700e-01	-13.7916	-19.509762	0.000083	0.829240	0.280954	0.006756
1656	8.2750e-01	-13.7354	-19.473414	0.000089	0.892220	0.302292	0.007270
1657	8.2800e-01	-13.7226	-19.453743	0.000048	0.482849	0.163594	0.003934
1658	8.2850e-01	-13.6745	-19.414401	0.000097	0.965697	0.327187	0.007868
1659	8.2900e-01	-13.6103	-19.386178	0.000069	0.692783	0.234721	0.005645
1660	8.2950e-01	-13.5862	-19.370356	0.000039	0.388378	0.131586	0.003164
1661	8.3000e-01	-13.5477	-19.317758	0.000129	1.291095	0.437435	0.010520
1662	8.3050e-01	-13.5237	-19.252759	0.000160	1.595500	0.540570	0.013000
1663	8.3100e-01	-13.4531	-19.237364	0.000038	0.377882	0.128030	0.003079
1664	8.3150e-01	-13.4242	-19.212562	0.000061	0.608809	0.206270	0.004960
1665	8.3200e-01	-13.3953	-19.169800	0.000105	1.049671	0.355638	0.008553
1666	8.3250e-01	-13.3424	-19.113781	0.000138	1.375069	0.465886	0.011204
1667	8.3300e-01	-13.3135	-19.110787	0.000007	0.073477	0.024895	0.000599
1668	8.3350e-01	-13.2798	-19.051347	0.000146	1.459043	0.494337	0.011888
1669	8.3400e-01	-13.2189	-19.020558	0.000076	0.755763	0.256059	0.006158
1670	8.3450e-01	-13.2076	-18.993618	0.000066	0.661293	0.224052	0.005388
1671	8.3500e-01	-13.1306	-18.964967	0.000070	0.703280	0.238278	0.005730
1672	8.3550e-01	-13.1322	-18.938882	-0.000064	-0.640299	-0.216939	0.005217
1673	8.3600e-01	-13.0552	-18.890988	0.000118	1.175631	0.398315	0.009579
1674	8.3650e-01	-13.0264	-18.852929	0.000093	0.934207	0.316518	0.007612
1675	8.3700e-01	-12.9815	-18.817009	0.000088	0.881724	0.298736	0.007184
1676	8.3750e-01	-12.9413	-18.794345	0.000056	0.556326	0.188488	0.004533
1677	8.3800e-01	-12.9077	-18.759707	0.000085	0.850233	0.288067	0.006928
1678	8.3850e-01	-12.8884	-18.701550	0.000143	1.427552	0.483668	0.011631
1679	8.3900e-01	-12.8676	-18.640400	0.000150	1.501029	0.508563	0.012230
1680	8.3950e-01	-12.7520	-18.642965	-0.000006	-0.062980	-0.021338	-0.000513
1681	8.4000e-01	-12.7537	-18.604051	-0.000096	-0.955201	-0.323631	0.007783
1682	8.4050e-01	-12.7392	-18.559151	0.000110	1.102154	0.373420	0.008980
1683	8.4100e-01	-12.6734	-18.533066	0.000064	0.640299	0.216939	0.005217
1684	8.4150e-01	-12.6333	-18.481323	0.000127	1.270102	0.430322	0.010349
1685	8.4200e-01	-12.6061	-18.448823	0.000080	0.797750	0.270285	0.006500
1686	8.4250e-01	-12.5451	-18.441981	0.000017	0.167947	0.056902	0.001368
1687	8.4300e-01	-12.5194	-18.388101	0.000132	1.322585	0.448104	0.010776
1688	8.4350e-01	-12.4825	-18.360305	0.000068	0.682286	0.231165	0.005559
1689	8.4400e-01	-12.4360	-18.295306	0.000160	1.595500	0.540570	0.013000
1690	8.4450e-01	-12.4055	-18.280339	0.000037	0.367385	0.124473	0.002993
1691	8.4500e-01	-12.3382	-18.252971	0.000067	0.671789	0.227608	0.005474
1692	8.4550e-01	-12.3141	-18.226458	0.000065	0.650796	0.220496	0.005303
1693	8.4600e-01	-12.2708	-18.180702	0.000112	1.123148	0.380533	0.009151
1694	8.4650e-01	-12.2066	-18.149913	0.000076	0.755763	0.256059	0.006158
1695	8.4700e-01	-12.1825	-18.089191	0.000149	1.490533	0.505006	0.012145
1696	8.4750e-01	-12.1424	-18.077217	0.000029	0.293908	0.099579	0.002395
1697	8.4800e-01	-12.1200	-18.013501	0.000156	1.564010	0.529901	0.012743
1698	8.4850e-01	-12.0606	-18.003238	0.000025	0.251921	0.085353	0.002053
1699	8.4900e-01	-12.0526	-17.946364	0.000140	1.396062	0.472999	0.011375
1700	8.4950e-01	-11.9852	-17.914292	0.000079	0.787253	0.266729	0.006414
1701	8.5000e-01	-11.9708	-17.889490	0.000061	0.608809	0.206270	0.004960
1702	8.5050e-01	-11.9259	-17.853997	0.000087	0.871227	0.295180	0.007099
1703	8.5100e-01	-11.8745	-17.817221	0.000090	0.902717	0.305849	0.007355
1704	8.5150e-01	-11.8232	-17.777879	0.000097	0.965697	0.327187	0.007868
1705	8.5200e-01	-11.8088	-17.733406	0.000109	1.091658	0.369864	0.008895
1706	8.5250e-01	-11.7446	-17.704755	0.000070	0.703280	0.238278	0.005730
1707	8.5300e-01	-11.7494	-17.647881	-0.000140	-1.396062	-0.472999	0.011375
1708	8.5350e-01	-11.7013	-17.603836	0.000108	1.081161	0.366307	0.008809
1709	8.5400e-01	-11.6403	-17.597849	0.000015	0.146954	0.049789	0.001197
1710	8.5450e-01	-11.5794	-17.524298	0.000181	1.805434	0.611698	0.014710
1711	8.5500e-01	-11.5296	-17.521304	0.000007	0.073477	0.024895	0.000599
1712	8.5550e-01	-11.4879	-17.487094	0.000084	0.839737	0.284511	0.006842
1713	8.5600e-01	-11.4558	-17.445187	0.000103	1.028677	0.348525	0.008381
1714	8.5650e-01	-11.4382	-17.395582	0.000122	1.217618	0.412540	0.009921
1715	8.5700e-01	-11.4109	-17.349826	0.000112	1.123148	0.380533	0.009151
1716	8.5750e-01	-11.3355	-17.321603	0.000069	0.692783	0.234721	0.005645
1717	8.5800e-01	-11.3082	-17.301077	0.000050	0.503842	0.170706	0.004105
1718	8.5850e-01	-11.2858	-17.243775	0.000141	1.406559	0.476555	0.011460
1719	8.5900e-01	-11.2393	-17.196309	0.000117	1.165135	0.394758	0.009493
1720	8.5950e-01	-11.1831	-17.204861	-0.000021	-0.209934	-0.071128	-0.001711
1721	8.6000e-01	-11.1590	-17.149270	0.000136	1.364572	0.462330	0.011118
1722	8.6050e-01	-11.1318	-17.095389	0.000132	1.322585	0.448104	0.010776
1723	8.6100e-01	-11.0516	-17.062890	0.000080	0.797750	0.270285	0.006500
1724	8.6150e-01	-11.0227	-17.023121	0.000098	0.976194	0.330743	0.007954
1725	8.6200e-01	-10.9906	-16.977792	0.000111	1.112651	0.376976	0.009066
1726	8.6250e-01	-10.9425	-16.955984	0.000054	0.535332	0.181375	0.004362
1727	8.6300e-01	-10.9184	-16.924767	0.000077	0.766260	0.259616	0.006243
1728	8.6350e-01	-10.8879	-16.868320	0.000139	1.385566	0.469442	0.011289
1729	8.6400e-01	-10.8366	-16.823847	0.000109	1.091658	0.369864	0.008895
1730	8.6450e-01	-10.7837	-16.793058	0.000076	0.755763	0.256059	0.006158
1731	8.6500e-01	-10.7548	-16.756283	0.000090	0.902717	0.305849	0.007355
1732	8.6550e-01	-10.7115	-16.723355	0.000081	0.808247	0.273841	0.006585
1733	8.6600e-01	-10.6746	-16.672040	0.000126	1.259605	0.426766	0.010263
1734	8.6650e-01	-10.6248	-16.652797	0.000047	0.472352	0.160037	0.003849
1735	8.6700e-01	-10.5783	-16.632271	0.000050	0.503842	0.170706	0.004105
1736	8.6750e-01	-10.5478	-16.578390	0.000132	1.322585	0.448104	0.010776
1737	8.6800e-01	-10.4997	-16.510398	0.000167	1.668977	0.565465	0.013598
1738	8.6850e-01	-10.4468	-16.495431	0.000037	0.367385	0.124473	0.002993
1739	8.6900e-01	-10.4548	-16.432143	-0.000155	-1.553513	-0.526344	0.012658
1740	8.6950e-01	-10.3890	-16.406485	0.000063	0.629803	0.213383	0.005132
1741	8.7000e-01	-10.3537	-16.376551	0.000073	0.734770	0.248947	0.005987
1742	8.7050e-01	-10.3072	-16.335499	0.000101	1.007684	0.341413	0.008210
1743	8.7100e-01	-10.2815	-16.318822	0.000041	0.409372	0.138699	0.003335
1744	8.7150e-01	-10.2430	-16.237573	0.000199	1.994375	0.675712	0.016250
1745	8.7200e-01	-10.1837	-16.224317	0.000033	0.325398	0.110248	0.002651
1746	8.7250e-01	-10.1580	-16.184120	0.000099	0.986691	0.334300	0.008039
1747	8.7300e-01	-10.1131	-16.147344	0.000090	0.902717	0.305849	0.007355
1748	8.7350e-01	-10.0778	-16.095602	0.000127	1.270102	0.430322	0.010349
1749	8.7400e-01	-10.0168	-16.051984	0.000107	1.070664	0.362751	0.008724
1750	8.7450e-01	-9.9831	-16.019912	0.000079	0.787253	0.266729	0.006414
1751	8.7500e-01	-9.9527	-15.953630	0.000163	1.626990	0.551239	0.013256
1752	8.7550e-01	-9.8821	-15.960044	-0.000016	-0.157451	-0.053346	-0.001283
1753	8.7600e-01	-9.8644	-15.892907	0.000165	1.647983	0.558352	0.013427
1754	8.7650e-01	-9.8083	-15.881361	0.000028	0.283411	0.096022	0.002309
1755	8.7700e-01	-9.8051	-15.800112	0.000199	1.994375	0.675712	0.016250
1756	8.7750e-01	-9.7505	-15.768896	0.000077	0.766260	0.259616	0.006243
1757	8.7800e-01	-9.7072	-15.764620	0.000010	0.104967	0.035564	0.000855
1758	8.7850e-01	-9.6815	-15.699193	0.000161	1.605997	0.544126	0.013085
1759	8.7900e-01	-9.6094	-15.664128	0.000086	0.860730	0.291623	0.007013
1760	8.7950e-01	-9.6142	-15.599984	-0.000157	-1.574506	-0.533457	0.012829
1761	8.8000e-01	-9.5644	-15.581596	0.000045	0.451358	0.152924	0.003678
1762	8.8050e-01	-9.4890	-15.537123	0.000109	1.091658	0.369864	0.008895
1763	8.8100e-01	-9.4810	-15.507189	0.000073	0.734770	0.248947	0.005987
1764	8.8150e-01	-9.4553	-15.446894	0.000148	1.480036	0.501450	0.012059
1765	8.8200e-01	-9.3992	-15.414822	0.000079	0.787253	0.266729	0.006414
1766	8.8250e-01	-9.3495	-15.391730	0.000057	0.566822	0.192045	0.004618
1767	8.8300e-01	-9.3270	-15.333146	0.000144	1.438049	0.487224	0.011717
1768	8.8350e-01	-9.2773	-15.287817	0.000111	1.112651	0.376976	0.009066
1769	8.8400e-01	-9.2324	-15.259166	0.000070	0.703280	0.238278	0.005730
1770	8.8450e-01	-9.1826	-15.221535	0.000092	0.923710	0.312962	0.007526
1771	8.8500e-01	-9.1361	-15.184760	0.000090	0.902717	0.305849	0.007355
1772	8.8550e-01	-9.1088	-15.124892	0.000147	1.469539	0.497893	0.011974
1773	8.8600e-01	-9.0655	-15.096241	0.000070	0.703280	0.238278	0.005730
1774	8.8650e-01	-9.0158	-15.060748	0.000087	0.871227	0.295180	0.007099
1775	8.8700e-01	-8.9981	-15.004302	0.000139	1.385566	0.469442	0.011289
1776	8.8750e-01	-8.9340	-14.965816	0.000094	0.944704	0.320074	0.007697
1777	8.8800e-01	-8.9404	-14.917066	-0.000120	-1.196625	-0.405427	0.009750
1778	8.8850e-01	-8.8730	-14.871310	0.000112	1.123148	0.380533	0.009151
1779	8.8900e-01	-8.8329	-14.855488	0.000039	0.388378	0.131586	0.003164
1780	8.8950e-01	-8.7703	-14.808022	0.000117	1.165135	0.394758	0.009493
1781	8.9000e-01	-8.7286	-14.760555	0.000117	1.165135	0.394758	0.009493
1782	8.9050e-01	-8.7222	-14.710523	0.000123	1.228115	0.416097	0.010006
1783	8.9100e-01	-8.6741	-14.672465	0.000093	0.934207	0.316518	0.007612
1784	8.9150e-01	-8.6340	-14.616873	0.000136	1.364572	0.462330	0.011118
1785	8.9200e-01	-8.6019	-14.601479	0.000038	0.377882	0.128030	0.003079
1786	8.9250e-01	-8.5586	-14.548881	0.000129	1.291095	0.437435	0.010520
1787	8.9300e-01	-8.4687	-14.520230	0.000070	0.703280	0.238278	0.005730
1788	8.9350e-01	-8.4623	-14.459507	0.000149	1.490533	0.505006	0.012145
1789	8.9400e-01	-8.4206	-14.425725	0.000083	0.829240	0.280954	0.006756
1790	8.9450e-01	-8.3773	-14.386383	0.000097	0.965697	0.327187	0.007868
1791	8.9500e-01	-8.3725	-14.329509	0.000140	1.396062	0.472999	0.011375
1792	8.9550e-01	-8.2939	-14.321384	0.000020	0.199437	0.067571	0.001625
1793	8.9600e-01	-8.2602	-14.265793	0.000136	1.364572	0.462330	0.011118
1794	8.9650e-01	-8.2089	-14.225169	0.000100	0.997187	0.337856	0.008125
1795	8.9700e-01	-8.2201	-14.171715	-0.000131	-1.312089	-0.444548	0.010691
1796	8.9750e-01	-8.1447	-14.113986	0.000142	1.417056	0.480111	0.011546
1797	8.9800e-01	-8.0950	-14.088328	0.000063	0.629803	0.213383	0.005132
1798	8.9850e-01	-8.0773	-14.036158	0.000128	1.280599	0.433879	0.010434
1799	8.9900e-01	-8.0388	-14.001948	0.000084	0.839737	0.284511	0.006842
1800	8.9950e-01	-8.0051	-13.951916	0.000123	1.228115	0.416097	0.010006
1801	9.0000e-01	-7.9265	-13.919844	0.000079	0.787253	0.266729	0.006414
1802	9.0050e-01	-7.8992	-13.881785	0.000093	0.934207	0.316518	0.007612
1803	9.0100e-01	-7.8656	-13.846293	0.000087	0.871227	0.295180	0.007099
1804	9.0150e-01	-7.8367	-13.801392	0.000110	1.102154	0.373420	0.008980
1805	9.0200e-01	-7.8110	-13.730406	0.000174	1.742454	0.590359	0.014197
1806	9.0250e-01	-7.7404	-13.681657	0.000120	1.196625	0.405427	0.009750
1807	9.0300e-01	-7.7148	-13.644453	0.000091	0.913214	0.309405	0.007441
1808	9.0350e-01	-7.6666	-13.620079	0.000060	0.598312	0.202714	0.004875
1809	9.0400e-01	-7.6217	-13.557646	0.000153	1.532520	0.519232	0.012487
1810	9.0450e-01	-7.5880	-13.525146	0.000080	0.797750	0.270285	0.006500
1811	9.0500e-01	-7.5287	-13.480673	0.000109	1.091658	0.369864	0.008895
1812	9.0550e-01	-7.4870	-13.458436	0.000055	0.545829	0.184932	0.004447
1813	9.0600e-01	-7.4886	-13.369063	-0.000219	-2.193812	-0.743284	0.017875
1814	9.0650e-01	-7.4485	-13.361366	0.000019	0.188941	0.064015	0.001539
1815	9.0700e-01	-7.3827	-13.292518	0.000169	1.689970	0.572577	0.013770
1816	9.0750e-01	-7.3506	-13.250183	0.000104	1.039174	0.352082	0.008467
1817	9.0800e-01	-7.3009	-13.227091	0.000057	0.566822	0.192045	0.004618
1818	9.0850e-01	-7.2672	-13.166796	0.000148	1.480036	0.501450	0.012059
1819	9.0900e-01	-7.2479	-13.115481	0.000126	1.259605	0.426766	0.010263
1820	9.0950e-01	-7.1966	-13.071436	0.000108	1.081161	0.366307	0.008809
1821	9.1000e-01	-7.1356	-13.047916	0.000058	0.577319	0.195601	0.004704
1822	9.1050e-01	-7.1035	-12.999595	0.000119	1.186128	0.401871	0.009664
1823	9.1100e-01	-7.0731	-12.939727	0.000147	1.469539	0.497893	0.011974
1824	9.1150e-01	-7.0538	-12.897392	0.000104	1.039174	0.352082	0.008467
1825	9.1200e-01	-6.9784	-12.847360	0.000123	1.228115	0.416097	0.010006
1826	9.1250e-01	-6.9431	-12.811439	0.000088	0.881724	0.298736	0.007184
1827	9.1300e-01	-6.9094	-12.765684	0.000112	1.123148	0.380533	0.009151
1828	9.1350e-01	-6.8806	-12.725914	0.000098	0.976194	0.330743	0.007954
1829	9.1400e-01	-6.8437	-12.668613	0.000141	1.406559	0.476555	0.011460
1830	9.1450e-01	-6.7843	-12.638251	0.000075	0.745266	0.252503	0.006072
1831	9.1500e-01	-6.7362	-12.605324	0.000081	0.808247	0.273841	0.006585
1832	9.1550e-01	-6.7025	-12.526641	0.000193	1.931394	0.654374	0.015737
1833	9.1600e-01	-6.6640	-12.494569	0.000079	0.787253	0.266729	0.006414
1834	9.1650e-01	-6.6495	-12.421018	0.000181	1.805434	0.611698	0.014710
1835	9.1700e-01	-6.5758	-12.412893	0.000020	0.199437	0.067571	0.001625
1836	9.1750e-01	-6.5693	-12.359867	0.000130	1.301592	0.440991	0.010605
1837	9.1800e-01	-6.4907	-12.314539	0.000111	1.112651	0.376976	0.009066
1838	9.1850e-01	-6.4811	-12.255954	0.000144	1.438049	0.487224	0.011717
1839	9.1900e-01	-6.4586	-12.191383	0.000159	1.585003	0.537014	0.012914
1840	9.1950e-01	-6.4025	-12.121680	0.000171	1.710964	0.579690	0.013941
1841	9.2000e-01	-6.3592	-12.106285	0.000038	0.377882	0.128030	0.003079
1842	9.2050e-01	-6.3094	-12.092601	0.000034	0.335895	0.113804	0.002737
1843	9.2100e-01	-6.2726	-12.034444	0.000143	1.427552	0.483668	0.011631
1844	9.2150e-01	-6.2597	-11.963886	0.000173	1.731957	0.586803	0.014112
1845	9.2200e-01	-6.2052	-11.935235	0.000070	0.703280	0.238278	0.005730
1846	9.2250e-01	-6.1474	-11.882210	0.000130	1.301592	0.440991	0.010605
1847	9.2300e-01	-6.1250	-11.836454	0.000112	1.123148	0.380533	0.009151
1848	9.2350e-01	-6.0977	-11.805665	0.000076	0.755763	0.256059	0.006158
1849	9.2400e-01	-6.0062	-11.763757	0.000103	1.028677	0.348525	0.008381
1850	9.2450e-01	-5.9790	-11.692344	0.000175	1.752950	0.593916	0.014283
1851	9.2500e-01	-5.9597	-11.651292	0.000101	1.007684	0.341413	0.008210
1852	9.2550e-01	-5.9036	-11.579879	0.000175	1.752950	0.593916	0.014283
1853	9.2600e-01	-5.8731	-11.566195	0.000034	0.335895	0.113804	0.002737
1854	9.2650e-01	-5.8250	-11.501196	0.000160	1.595500	0.540570	0.013000
1855	9.2700e-01	-5.8153	-11.437479	0.000156	1.564010	0.529901	0.012743
1856	9.2750e-01	-5.7576	-11.397710	0.000098	0.976194	0.330743	0.007954
1857	9.2800e-01	-5.7175	-11.347250	0.000124	1.238612	0.419653	0.010092
1858	9.2850e-01	-5.6966	-11.299356	0.000118	1.175631	0.398315	0.009579
1859	9.2900e-01	-5.6309	-11.258732	0.000100	0.997187	0.337856	0.008125
1860	9.2950e-01	-5.5779	-11.223239	0.000087	0.871227	0.295180	0.007099
1861	9.3000e-01	-5.5458	-11.136004	0.000214	2.141329	0.725502	0.017447
1862	9.3050e-01	-5.4993	-11.104787	0.000077	0.766260	0.259616	0.006243
1863	9.3100e-01	-5.4977	-11.021400	0.000205	2.046858	0.693494	0.016677
1864	9.3150e-01	-5.4127	-11.005578	0.000039	0.388378	0.131586	0.003164
1865	9.3200e-01	-5.3806	-10.974361	0.000077	0.766260	0.259616	0.006243
1866	9.3250e-01	-5.3613	-10.908935	0.000161	1.605997	0.544126	0.013085
1867	9.3300e-01	-5.3036	-10.878146	0.000076	0.755763	0.256059	0.006158
1868	9.3350e-01	-5.2523	-10.819133	0.000145	1.448546	0.490781	0.011802
1869	9.3400e-01	-5.2346	-10.751568	0.000166	1.658480	0.561908	0.013513
1870	9.3450e-01	-5.1801	-10.714365	0.000091	0.913214	0.309405	0.007441
1871	9.3500e-01	-5.1688	-10.645090	0.000170	1.700467	0.576134	0.013855
1872	9.3550e-01	-5.1015	-10.604038	0.000101	1.007684	0.341413	0.008210
1873	9.3600e-01	-5.0678	-10.561275	0.000105	1.049671	0.355638	0.008553
1874	9.3650e-01	-5.0245	-10.479599	0.000200	2.004871	0.679269	0.016335
1875	9.3700e-01	-4.9603	-10.479599	0.000000	0.000000	0.000000	0.000000
1876	9.3750e-01	-4.9458	-10.417593	0.000152	1.522023	0.515675	0.012401
1877	9.3800e-01	-4.9009	-10.344897	0.000178	1.784441	0.604585	0.014539
1878	9.3850e-01	-4.8608	-10.321377	0.000058	0.577319	0.195601	0.004704
1879	9.3900e-01	-4.8239	-10.255096	0.000163	1.626990	0.551239	0.013256
1880	9.3950e-01	-4.8271	-10.194373	-0.000149	-1.490533	-0.505006	0.012145
1881	9.4000e-01	-4.7630	-10.133222	0.000150	1.501029	0.508563	0.012230
1882	9.4050e-01	-4.6876	-10.090887	0.000104	1.039174	0.352082	0.008467
1883	9.4100e-01	-4.6587	-10.038717	0.000128	1.280599	0.433879	0.010434
1884	9.4150e-01	-4.6218	-9.964310	0.000183	1.826427	0.618810	0.014881
1885	9.4200e-01	-4.6009	-9.949771	0.000036	0.356888	0.120917	0.002908
1886	9.4250e-01	-4.5705	-9.873654	0.000187	1.868414	0.633036	0.015223
1887	9.4300e-01	-4.4870	-9.855694	0.000044	0.440862	0.149368	0.003592
1888	9.4350e-01	-4.4919	-9.783852	-0.000176	-1.763447	-0.597472	0.014368
1889	9.4400e-01	-4.4132	-9.742800	0.000101	1.007684	0.341413	0.008210
1890	9.4450e-01	-4.3924	-9.669677	0.000179	1.794937	0.608141	0.014625
1891	9.4500e-01	-4.3394	-9.599118	0.000173	1.731957	0.586803	0.014112
1892	9.4550e-01	-4.3106	-9.582013	0.000042	0.419868	0.142255	0.003421
1893	9.4600e-01	-4.2705	-9.512738	0.000170	1.700467	0.576134	0.013855
1894	9.4650e-01	-4.2239	-9.473397	0.000097	0.965697	0.327187	0.007868
1895	9.4700e-01	-4.1806	-9.402838	0.000173	1.731957	0.586803	0.014112
1896	9.4750e-01	-4.1630	-9.350668	0.000128	1.280599	0.433879	0.010434
1897	9.4800e-01	-4.1213	-9.284386	0.000163	1.626990	0.551239	0.013256
1898	9.4850e-01	-4.0780	-9.236920	0.000117	1.165135	0.394758	0.009493
1899	9.4900e-01	-4.0475	-9.174914	0.000152	1.522023	0.515675	0.012401
1900	9.4950e-01	-3.9673	-9.133434	0.000102	1.018181	0.344969	0.008296
1901	9.5000e-01	-3.9625	-9.067580	0.000162	1.616493	0.547683	0.013171
1902	9.5050e-01	-3.8983	-9.015837	0.000127	1.270102	0.430322	0.010349
1903	9.5100e-01	-3.8502	-8.965805	0.000123	1.228115	0.416097	0.010006
1904	9.5150e-01	-3.8437	-8.905083	0.000149	1.490533	0.505006	0.012145
1905	9.5200e-01	-3.7956	-8.852912	0.000128	1.280599	0.433879	0.010434
1906	9.5250e-01	-3.7411	-8.807584	0.000111	1.112651	0.376976	0.009066
1907	9.5300e-01	-3.6962	-8.749855	0.000142	1.417056	0.480111	0.011546
1908	9.5350e-01	-3.6753	-8.688277	0.000151	1.511526	0.512119	0.012316
1909	9.5400e-01	-3.6352	-8.620712	0.000166	1.658480	0.561908	0.013513
1910	9.5450e-01	-3.5823	-8.556140	0.000159	1.585003	0.537014	0.012914
1911	9.5500e-01	-3.5454	-8.516799	0.000097	0.965697	0.327187	0.007868
1912	9.5550e-01	-3.5052	-8.453510	0.000155	1.553513	0.526344	0.012658
1913	9.5600e-01	-3.4379	-8.432129	0.000052	0.524835	0.177819	0.004276
1914	9.5650e-01	-3.4234	-8.335486	0.000237	2.372256	0.803742	0.019329
1915	9.5700e-01	-3.3753	-8.296144	0.000097	0.965697	0.327187	0.007868
1916	9.5750e-01	-3.3593	-8.212757	0.000205	2.046858	0.693494	0.016677
1917	9.5800e-01	-3.2871	-8.172560	0.000099	0.986691	0.334300	0.008039
1918	9.5850e-01	-3.2630	-8.120390	0.000128	1.280599	0.433879	0.010434
1919	9.5900e-01	-3.2566	-8.031444	0.000218	2.183316	0.739727	0.017789
1920	9.5950e-01	-3.1732	-8.017332	0.000035	0.346391	0.117361	0.002822
1921	9.6000e-01	-3.1619	-7.902301	0.000282	2.823615	0.956667	0.023006
1922	9.6050e-01	-3.0962	-7.881775	0.000050	0.503842	0.170706	0.004105
1923	9.6100e-01	-3.0769	-7.822335	0.000146	1.459043	0.494337	0.011888
1924	9.6150e-01	-3.0529	-7.738948	0.000205	2.046858	0.693494	0.016677
1925	9.6200e-01	-2.9775	-7.689344	0.000122	1.217618	0.412540	0.009921
1926	9.6250e-01	-2.9646	-7.633753	0.000136	1.364572	0.462330	0.011118
1927	9.6300e-01	-2.8988	-7.575168	0.000144	1.438049	0.487224	0.011717
1928	9.6350e-01	-2.8924	-7.503327	0.000176	1.763447	0.597472	0.014368
1929	9.6400e-01	-2.8603	-7.425071	0.000192	1.920898	0.650818	0.015651
1930	9.6450e-01	-2.7737	-7.391717	0.000082	0.818743	0.277398	0.006671
1931	9.6500e-01	-2.7432	-7.327573	0.000157	1.574506	0.533457	0.012829
1932	9.6550e-01	-2.7047	-7.257015	0.000173	1.731957	0.586803	0.014112
1933	9.6600e-01	-2.6887	-7.174911	0.000202	2.015368	0.682825	0.016421
1934	9.6650e-01	-2.6181	-7.157806	0.000042	0.419868	0.142255	0.003421
1935	9.6700e-01	-2.5780	-7.077412	0.000197	1.973381	0.668600	0.016079
1936	9.6750e-01	-2.5395	-7.017972	0.000146	1.459043	0.494337	0.011888
1937	9.6800e-01	-2.5074	-6.967085	0.000125	1.249108	0.423209	0.010177
1938	9.6850e-01	-2.4561	-6.904224	0.000154	1.543016	0.522788	0.012572
1939	9.6900e-01	-2.4400	-6.829389	0.000184	1.836924	0.622367	0.014967
1940	9.6950e-01	-2.3999	-6.759687	0.000171	1.710964	0.579690	0.013941
1941	9.7000e-01	-2.3358	-6.707944	0.000127	1.270102	0.430322	0.010349
1942	9.7050e-01	-2.2828	-6.663043	0.000110	1.102154	0.373420	0.008980
1943	9.7100e-01	-2.2588	-6.568966	0.000231	2.309276	0.782404	0.018816
1944	9.7150e-01	-2.2170	-6.517651	0.000126	1.259605	0.426766	0.010263
1945	9.7200e-01	-2.1962	-6.436402	0.000199	1.994375	0.675712	0.016250
1946	9.7250e-01	-2.1320	-6.374824	0.000151	1.511526	0.512119	0.012316
1947	9.7300e-01	-2.1160	-6.329923	0.000110	1.102154	0.373420	0.008980
1948	9.7350e-01	-2.0679	-6.235418	0.000232	2.319773	0.785960	0.018901
1949	9.7400e-01	-2.0342	-6.182392	0.000130	1.301592	0.440991	0.010605
1950	9.7450e-01	-1.9909	-6.104565	0.000191	1.910401	0.647261	0.015566
1951	9.7500e-01	-1.9588	-6.047690	0.000140	1.396062	0.472999	0.011375
1952	9.7550e-01	-1.9251	-5.985257	0.000153	1.532520	0.519232	0.012487
1953	9.7600e-01	-1.8705	-5.900587	0.000208	2.078348	0.704164	0.016934
1954	9.7650e-01	-1.8368	-5.833023	0.000166	1.658480	0.561908	0.013513
1955	9.7700e-01	-1.8080	-5.781708	0.000126	1.259605	0.426766	0.010263
1956	9.7750e-01	-1.7855	-5.690623	0.000224	2.235799	0.757509	0.018217
1957	9.7800e-01	-1.7037	-5.646578	0.000108	1.081161	0.366307	0.008809
1958	9.7850e-01	-1.6860	-5.555494	0.000224	2.235799	0.757509	0.018217
1959	9.7900e-01	-1.6187	-5.480232	0.000185	1.847421	0.625923	0.015052
1960	9.7950e-01	-1.5802	-5.448160	0.000079	0.787253	0.266729	0.006414
1961	9.8000e-01	-1.5802	-5.354082	-0.000231	-2.309276	-0.782404	0.018816
1962	9.8050e-01	-1.5304	-5.271551	0.000203	2.025865	0.686382	0.016506
1963	9.8100e-01	-1.4823	-5.207834	0.000156	1.564010	0.529901	0.012743
1964	9.8150e-01	-1.4390	-5.151815	0.000138	1.375069	0.465886	0.011204
1965	9.8200e-01	-1.3893	-5.072277	0.000195	1.952388	0.661487	0.015908
1966	9.8250e-01	-1.3604	-5.008133	0.000157	1.574506	0.533457	0.012829
1967	9.8300e-01	-1.3155	-4.940569	0.000166	1.658480	0.561908	0.013513
1968	9.8350e-01	-1.2754	-4.865307	0.000185	1.847421	0.625923	0.015052
1969	9.8400e-01	-1.2080	-4.784485	0.000198	1.983878	0.672156	0.016164
1970	9.8450e-01	-1.1807	-4.731032	0.000131	1.312089	0.444548	0.010691
1971	9.8500e-01	-1.1438	-4.659619	0.000175	1.752950	0.593916	0.014283
1972	9.8550e-01	-1.1214	-4.580936	0.000193	1.931394	0.654374	0.015737
1973	9.8600e-01	-1.0813	-4.526627	0.000133	1.333082	0.451660	0.010862
1974	9.8650e-01	-1.0299	-4.417583	0.000268	2.676661	0.906877	0.021809
1975	9.8700e-01	-0.9674	-4.366268	0.000126	1.259605	0.426766	0.010263
1976	9.8750e-01	-0.9722	-4.278177	-0.000216	-2.162322	-0.732615	0.017618
1977	9.8800e-01	-0.9064	-4.199494	0.000193	1.931394	0.654374	0.015737
1978	9.8850e-01	-0.8759	-4.103706	0.000235	2.351263	0.796629	0.019158
1979	9.8900e-01	-0.8101	-4.034003	0.000171	1.710964	0.579690	0.013941
1980	9.8950e-01	-0.7748	-4.000648	0.000082	0.818743	0.277398	0.006671
1981	9.9000e-01	-0.7636	-3.886045	0.000281	2.813118	0.953110	0.022921
1982	9.9050e-01	-0.7043	-3.825750	0.000148	1.480036	0.501450	0.012059
1983	9.9100e-01	-0.6642	-3.750915	0.000184	1.836924	0.622367	0.014967
1984	9.9150e-01	-0.6192	-3.672232	0.000193	1.931394	0.654374	0.015737
1985	9.9200e-01	-0.5759	-3.605523	0.000164	1.637487	0.554795	0.013342
1986	9.9250e-01	-0.5599	-3.532399	0.000179	1.794937	0.608141	0.014625
1987	9.9300e-01	-0.5198	-3.439176	0.000229	2.288283	0.775291	0.018644
1988	9.9350e-01	-0.4925	-3.347237	0.000226	2.256792	0.764622	0.018388
1989	9.9400e-01	-0.4460	-3.273685	0.000181	1.805434	0.611698	0.014710
1990	9.9450e-01	-0.3722	-3.227074	0.000114	1.144141	0.387646	0.009322
1991	9.9500e-01	-0.3722	-3.140266	-0.000213	-2.130832	-0.721945	0.017362
1992	9.9550e-01	-0.3096	-3.060300	0.000196	1.962885	0.665043	0.015993
1993	9.9600e-01	-0.2615	-2.970071	0.000221	2.214806	0.750396	0.018046
1994	9.9650e-01	-0.2358	-2.916191	0.000132	1.322585	0.448104	0.010776
1995	9.9700e-01	-0.1749	-2.818692	0.000239	2.393250	0.810855	0.019500
1996	9.9750e-01	-0.1123	-2.756686	0.000152	1.522023	0.515675	0.012401
1997	9.9800e-01	-0.1203	-2.675010	-0.000200	-2.004871	-0.679269	0.016335
1998	9.9850e-01	-0.0642	-2.589912	0.000209	2.088845	0.707720	0.017019
1999	9.9900e-01	-0.0144	-2.534749	0.000135	1.354075	0.458773	0.011033
2000	9.9950e-01	-0.0032	-2.422711	0.000275	2.750138	0.931772	0.022408
2001	1.0000e+00	0.0626	-2.351298	0.000275	2.750138	0.931772	0.014283

Center data before PMax,+/-Pr and +/-Vc Calc.

PMax (uC/cm2):	2.40e+01
Pr (uC/cm2):	6.43e-01
-Pr (uC/cm2):	-2.35e+00
PLoss (uC/cm2):	-1.54e+00
Vc:	5.32e-01
-Vc:	-3.29e-01
C (Max-Eff) (nF):	1.20e-01
K (Eff):	4.06e+02
Vert. (+/-Pr) Shift (uC/cm2):	-8.54e-01
Horiz. Shift (+/-Vc):	1.02e-01
Offset (uC/cm2):	8.08e-01

A (Loop Area - uC/cm2·Volts):	1.14e-01



Hysteresis Version: 5.48.1 - Radiant Technologies, Inc., 1999 - 9/12/24

