»»»»»»»»»»»»»»»»»»»»»»»»»»»»»»»»»»»» Hysteresis ««««««««««««««««««««««««««««««««««««
»»»  Executed Version:	5.48.1
»»»  Vision Version:	5.48.4 (R)
»»»  Vision Compiled:	9/18/24
»»»  Driver Version:	5.47.0
»»»  Windows Version:	Windows 8 or 8.1
»»»  Processor Information:	x86 (AMD or Intel) - 32 Processors
»»»  Tester Name:	PMF21124-494 (100V)
»»»  Tester S/N:	PMF21124-494
»»»  Internal Amp Type:	100V RevK 270k
»»»  Internal Amp S/N:	iAB2-596/K     
»»»  Execution Count:	1
»»»»»»»»»»»»»»»»»»»»»»»»»»»»»»»»»»»»»»»»»»««««««««««««««««««««««««««««««««««««««««««

Stored:	6/11/2025 - 14:59:56
Configured:	06/11/25 01:55:56 PM
Executed:	06/11/25 02:59:24 PM

»»»»»»»»»»»»»»»»»»»»»»»»»»»»»»»»»»» Sample Info ««««««««««««««««««««««««««««««««««««
Sample Name:	
Lot Name:	
Wafer Name:	
Die Row/Column:	0/0
Capacitor Number:	0
Sample Area (cm2):	1.00e-04
Sample Thickness (microns):	3.00e-01

Amplifier:	Internal

»»»»»»»»»»»»»»»»»»»»»»»»»»»»»»»»»»» Tester Info «««««««««««««««««««««««««««««««««««
Tester Name:	PMF21124-494 (100V)
Tester Serial Number:	PMF21124-494
Return Signal Amp. Level:	0.19 [Index: 3]

»»»»»»»»»»»»»»»»»»»»»»»»»»»»»»»» Hysteresis Info ««««««««««««««««««««««««««««««««««
Task Name:	Hyst-1287
Volts:	20.00
Field:	666.67 (kV/cm)
DCBias:	0.00
DCField:	0.00 (kV/cm)
Hysteresis Period (ms):	2.00e+02
Preset:	Enabled
Preset Delay (ms):	1.00e+03
Profile:	Standard Bipolar

»»»»»»»»»»»»»»»»»»»»»»»»»»»»»»»»»»»»»» Data «««««««««««««««««««««««««««««««««««««««
Points:	2009

Valid Data

Point	Time (ms)	Drive Voltage	Measured Polarization (uC/cm2)	Capacitance (uF)	Normalized Capacitance (uF/cm2)	Dielectric Constant	Instantaneous Current (mA)
   1	0.0000e+00	-0.0016	-5.486467	0.000375	3.749444	1.270346	0.000150
   2	9.9500e-02	0.0385	-5.337093	0.000375	3.749444	1.270346	0.000150
   3	1.9900e-01	0.0738	-5.147348	0.000476	4.762807	1.613683	0.000191
   4	2.9850e-01	0.1187	-4.905120	0.000608	6.080179	2.060021	0.000243
   5	3.9800e-01	0.1492	-4.650780	0.000638	6.384188	2.163022	0.000256
   6	4.9750e-01	0.1909	-4.432775	0.000547	5.472161	1.854018	0.000219
   7	5.9700e-01	0.2294	-4.230918	0.000507	5.066816	1.716684	0.000203
   8	6.9650e-01	0.2711	-4.000802	0.000578	5.776170	1.957020	0.000231
   9	7.9600e-01	0.3176	-3.766648	0.000588	5.877507	1.991353	0.000235
  10	8.9550e-01	0.3561	-3.544605	0.000557	5.573498	1.888352	0.000223
  11	9.9500e-01	0.3898	-3.330637	0.000537	5.370825	1.819685	0.000215
  12	1.0945e+00	0.4364	-3.076297	0.000638	6.384188	2.163022	0.000256
  13	1.1940e+00	0.4765	-2.854255	0.000557	5.573498	1.888352	0.000223
  14	1.2935e+00	0.5101	-2.644324	0.000527	5.269489	1.785351	0.000211
  15	1.3930e+00	0.5438	-2.402096	0.000608	6.080179	2.060021	0.000243
  16	1.4925e+00	0.5855	-2.188128	0.000537	5.370825	1.819685	0.000215
  17	1.5920e+00	0.6305	-1.953974	0.000588	5.877507	1.991353	0.000235
  18	1.6915e+00	0.6786	-1.735968	0.000547	5.472161	1.854018	0.000219
  19	1.7910e+00	0.7091	-1.477592	0.000649	6.485525	2.197355	0.000260
  20	1.8905e+00	0.7492	-1.247475	0.000578	5.776170	1.957020	0.000231
  21	1.9900e+00	0.7909	-1.009284	0.000598	5.978843	2.025687	0.000239
  22	2.0895e+00	0.8342	-0.819539	0.000476	4.762807	1.613683	0.000191
  23	2.1890e+00	0.8743	-0.581348	0.000598	5.978843	2.025687	0.000239
  24	2.2885e+00	0.9032	-0.359305	0.000557	5.573498	1.888352	0.000223
  25	2.3880e+00	0.9433	-0.161485	0.000497	4.965480	1.682350	0.000199
  26	2.4875e+00	0.9946	0.113040	0.000689	6.890870	2.334690	0.000276
  27	2.5870e+00	1.0299	0.343157	0.000578	5.776170	1.957020	0.000231
  28	2.6865e+00	1.0684	0.577310	0.000588	5.877507	1.991353	0.000235
  29	2.7860e+00	1.1085	0.811464	0.000588	5.877507	1.991353	0.000235
  30	2.8855e+00	1.1502	1.021395	0.000527	5.269489	1.785351	0.000211
  31	2.9850e+00	1.1871	1.259586	0.000598	5.978843	2.025687	0.000239
  32	3.0845e+00	1.2288	1.473555	0.000537	5.370825	1.819685	0.000215
  33	3.1840e+00	1.2657	1.772303	0.000750	7.498888	2.540692	0.000300
  34	3.2835e+00	1.3058	1.998382	0.000567	5.674834	1.922686	0.000227
  35	3.3830e+00	1.3524	2.220425	0.000557	5.573498	1.888352	0.000223
  36	3.4825e+00	1.3861	2.474764	0.000638	6.384188	2.163022	0.000256
  37	3.5820e+00	1.4246	2.648361	0.000436	4.357462	1.476348	0.000174
  38	3.6815e+00	1.4727	2.902701	0.000638	6.384188	2.163022	0.000256
  39	3.7810e+00	1.5032	3.136854	0.000588	5.877507	1.991353	0.000235
  40	3.8805e+00	1.5433	3.395231	0.000649	6.485525	2.197355	0.000260
  41	3.9800e+00	1.5786	3.621311	0.000567	5.674834	1.922686	0.000227
  42	4.0795e+00	1.6267	3.843353	0.000557	5.573498	1.888352	0.000223
  43	4.1790e+00	1.6636	4.089619	0.000618	6.181516	2.094354	0.000248
  44	4.2785e+00	1.7053	4.307624	0.000547	5.472161	1.854018	0.000219
  45	4.3780e+00	1.7470	4.545815	0.000598	5.978843	2.025687	0.000239
  46	4.4775e+00	1.7791	4.759783	0.000537	5.370825	1.819685	0.000215
  47	4.5770e+00	1.8352	5.006048	0.000618	6.181516	2.094354	0.000248
  48	4.6765e+00	1.8625	5.171571	0.000415	4.154789	1.407681	0.000166
  49	4.7760e+00	1.9058	5.474356	0.000760	7.600224	2.575026	0.000304
  50	4.8755e+00	1.9331	5.688324	0.000537	5.370825	1.819685	0.000215
  51	4.9750e+00	1.9860	5.906330	0.000547	5.472161	1.854018	0.000219
  52	5.0745e+00	2.0213	6.156632	0.000628	6.282852	2.128688	0.000252
  53	5.1740e+00	2.0711	6.366563	0.000527	5.269489	1.785351	0.000211
  54	5.2735e+00	2.0967	6.608791	0.000608	6.080179	2.060021	0.000243
  55	5.3730e+00	2.1545	6.826797	0.000547	5.472161	1.854018	0.000219
  56	5.4725e+00	2.1850	7.060950	0.000588	5.877507	1.991353	0.000235
  57	5.5720e+00	2.2203	7.319327	0.000649	6.485525	2.197355	0.000260
  58	5.6715e+00	2.2684	7.537332	0.000547	5.472161	1.854018	0.000219
  59	5.7710e+00	2.2989	7.763412	0.000567	5.674834	1.922686	0.000227
  60	5.8705e+00	2.3438	7.989492	0.000567	5.674834	1.922686	0.000227
  61	5.9700e+00	2.3807	8.207497	0.000547	5.472161	1.854018	0.000219
  62	6.0695e+00	2.4304	8.445688	0.000598	5.978843	2.025687	0.000239
  63	6.1690e+00	2.4625	8.647545	0.000507	5.066816	1.716684	0.000203
  64	6.2685e+00	2.5106	8.909959	0.000659	6.586861	2.231689	0.000264
  65	6.3680e+00	2.5475	9.103741	0.000486	4.864143	1.648016	0.000195
  66	6.4675e+00	2.5764	9.358081	0.000638	6.384188	2.163022	0.000256
  67	6.5670e+00	2.6245	9.559937	0.000507	5.066816	1.716684	0.000203
  68	6.6665e+00	2.6566	9.810240	0.000628	6.282852	2.128688	0.000252
  69	6.7660e+00	2.7015	10.032282	0.000557	5.573498	1.888352	0.000223
  70	6.8655e+00	2.7320	10.226065	0.000486	4.864143	1.648016	0.000195
  71	6.9650e+00	2.7866	10.452144	0.000567	5.674834	1.922686	0.000227
  72	7.0645e+00	2.8299	10.686298	0.000588	5.877507	1.991353	0.000235
  73	7.1640e+00	2.8603	10.892192	0.000517	5.168152	1.751017	0.000207
  74	7.2635e+00	2.9069	11.142495	0.000628	6.282852	2.128688	0.000252
  75	7.3630e+00	2.9390	11.368574	0.000567	5.674834	1.922686	0.000227
  76	7.4625e+00	2.9710	11.558320	0.000476	4.762807	1.613683	0.000191
  77	7.5620e+00	3.0272	11.772288	0.000537	5.370825	1.819685	0.000215
  78	7.6615e+00	3.0625	11.966070	0.000486	4.864143	1.648016	0.000195
  79	7.7610e+00	3.1074	12.228484	0.000659	6.586861	2.231689	0.000264
  80	7.8605e+00	3.1475	12.454564	0.000567	5.674834	1.922686	0.000227
  81	7.9600e+00	3.1796	12.668532	0.000537	5.370825	1.819685	0.000215
  82	8.0595e+00	3.2293	12.878463	0.000527	5.269489	1.785351	0.000211
  83	8.1590e+00	3.2614	13.092431	0.000537	5.370825	1.819685	0.000215
  84	8.2585e+00	3.2935	13.314474	0.000557	5.573498	1.888352	0.000223
  85	8.3580e+00	3.3368	13.536516	0.000557	5.573498	1.888352	0.000223
  86	8.4575e+00	3.3737	13.766633	0.000578	5.776170	1.957020	0.000231
  87	8.5570e+00	3.4266	13.952341	0.000466	4.661471	1.579349	0.000187
  88	8.6565e+00	3.4555	14.178421	0.000567	5.674834	1.922686	0.000227
  89	8.7560e+00	3.5036	14.388352	0.000527	5.269489	1.785351	0.000211
  90	8.8555e+00	3.5421	14.630580	0.000608	6.080179	2.060021	0.000243
  91	8.9550e+00	3.5806	14.828400	0.000497	4.965480	1.682350	0.000199
  92	9.0545e+00	3.6127	15.034293	0.000517	5.168152	1.751017	0.000207
  93	9.1540e+00	3.6689	15.228076	0.000486	4.864143	1.648016	0.000195
  94	9.2535e+00	3.6962	15.474341	0.000618	6.181516	2.094354	0.000248
  95	9.3530e+00	3.7427	15.635827	0.000405	4.053453	1.373347	0.000162
  96	9.4525e+00	3.7860	15.865943	0.000578	5.776170	1.957020	0.000231
  97	9.5520e+00	3.8181	16.067800	0.000507	5.066816	1.716684	0.000203
  98	9.6515e+00	3.8550	16.285806	0.000547	5.472161	1.854018	0.000219
  99	9.7510e+00	3.8967	16.487662	0.000507	5.066816	1.716684	0.000203
 100	9.8505e+00	3.9320	16.717779	0.000578	5.776170	1.957020	0.000231
 101	9.9500e+00	3.9721	16.951933	0.000588	5.877507	1.991353	0.000235
 102	1.0050e+01	4.0170	17.157827	0.000517	5.168152	1.751017	0.000207
 103	1.0149e+01	4.0571	17.315275	0.000395	3.952117	1.339013	0.000158
 104	1.0248e+01	4.1020	17.557503	0.000608	6.080179	2.060021	0.000243
 105	1.0348e+01	4.1373	17.779546	0.000557	5.573498	1.888352	0.000223
 106	1.0447e+01	4.1838	17.989477	0.000527	5.269489	1.785351	0.000211
 107	1.0547e+01	4.2175	18.187296	0.000497	4.965480	1.682350	0.000199
 108	1.0646e+01	4.2528	18.405302	0.000547	5.472161	1.854018	0.000219
 109	1.0746e+01	4.2945	18.627344	0.000557	5.573498	1.888352	0.000223
 110	1.0845e+01	4.3298	18.796904	0.000426	4.256126	1.442014	0.000170
 111	1.0945e+01	4.3812	19.014909	0.000547	5.472161	1.854018	0.000219
 112	1.1044e+01	4.4132	19.204655	0.000476	4.762807	1.613683	0.000191
 113	1.1144e+01	4.4517	19.422660	0.000547	5.472161	1.854018	0.000219
 114	1.1243e+01	4.4967	19.616443	0.000486	4.864143	1.648016	0.000195
 115	1.1343e+01	4.5432	19.838485	0.000557	5.573498	1.888352	0.000223
 116	1.1443e+01	4.5817	20.016119	0.000446	4.458798	1.510682	0.000179
 117	1.1542e+01	4.6138	20.238161	0.000557	5.573498	1.888352	0.000223
 118	1.1642e+01	4.6507	20.415795	0.000446	4.458798	1.510682	0.000179
 119	1.1741e+01	4.6972	20.593429	0.000446	4.458798	1.510682	0.000179
 120	1.1841e+01	4.7325	20.799323	0.000517	5.168152	1.751017	0.000207
 121	1.1940e+01	4.7678	20.985032	0.000466	4.661471	1.579349	0.000187
 122	1.2040e+01	4.8175	21.194963	0.000527	5.269489	1.785351	0.000211
 123	1.2139e+01	4.8624	21.384708	0.000476	4.762807	1.613683	0.000191
 124	1.2239e+01	4.8993	21.586565	0.000507	5.066816	1.716684	0.000203
 125	1.2338e+01	4.9410	21.756124	0.000426	4.256126	1.442014	0.000170
 126	1.2438e+01	4.9795	21.978167	0.000557	5.573498	1.888352	0.000223
 127	1.2537e+01	5.0084	22.228469	0.000628	6.282852	2.128688	0.000252
 128	1.2636e+01	5.0565	22.389955	0.000405	4.053453	1.373347	0.000162
 129	1.2736e+01	5.0934	22.567589	0.000446	4.458798	1.510682	0.000179
 130	1.2835e+01	5.1384	22.733111	0.000415	4.154789	1.407681	0.000166
 131	1.2935e+01	5.1624	22.930931	0.000497	4.965480	1.682350	0.000199
 132	1.3034e+01	5.2234	23.120676	0.000476	4.762807	1.613683	0.000191
 133	1.3134e+01	5.2490	23.314459	0.000486	4.864143	1.648016	0.000195
 134	1.3233e+01	5.2956	23.516316	0.000507	5.066816	1.716684	0.000203
 135	1.3333e+01	5.3293	23.726247	0.000527	5.269489	1.785351	0.000211
 136	1.3432e+01	5.3774	23.891769	0.000415	4.154789	1.407681	0.000166
 137	1.3532e+01	5.4175	24.097663	0.000517	5.168152	1.751017	0.000207
 138	1.3632e+01	5.4496	24.263186	0.000415	4.154789	1.407681	0.000166
 139	1.3731e+01	5.5009	24.461005	0.000497	4.965480	1.682350	0.000199
 140	1.3831e+01	5.5170	24.674974	0.000537	5.370825	1.819685	0.000215
 141	1.3930e+01	5.5667	24.880868	0.000517	5.168152	1.751017	0.000207
 142	1.4030e+01	5.6036	25.066576	0.000466	4.661471	1.579349	0.000187
 143	1.4129e+01	5.6501	25.240173	0.000436	4.357462	1.476348	0.000174
 144	1.4229e+01	5.6950	25.454141	0.000537	5.370825	1.819685	0.000215
 145	1.4328e+01	5.7319	25.599478	0.000365	3.648108	1.236012	0.000146
 146	1.4428e+01	5.7736	25.789223	0.000476	4.762807	1.613683	0.000191
 147	1.4527e+01	5.8137	25.962820	0.000436	4.357462	1.476348	0.000174
 148	1.4627e+01	5.8410	26.160640	0.000497	4.965480	1.682350	0.000199
 149	1.4726e+01	5.8907	26.354422	0.000486	4.864143	1.648016	0.000195
 150	1.4825e+01	5.9244	26.560316	0.000517	5.168152	1.751017	0.000207
 151	1.4925e+01	5.9742	26.721801	0.000405	4.053453	1.373347	0.000162
 152	1.5024e+01	6.0014	26.919621	0.000497	4.965480	1.682350	0.000199
 153	1.5124e+01	6.0431	27.073032	0.000385	3.850780	1.304680	0.000154
 154	1.5223e+01	6.0865	27.299112	0.000567	5.674834	1.922686	0.000227
 155	1.5323e+01	6.1298	27.484820	0.000466	4.661471	1.579349	0.000187
 156	1.5422e+01	6.1763	27.642268	0.000395	3.952117	1.339013	0.000158
 157	1.5522e+01	6.2100	27.827977	0.000466	4.661471	1.579349	0.000187
 158	1.5621e+01	6.2501	28.050019	0.000557	5.573498	1.888352	0.000223
 159	1.5721e+01	6.2918	28.191319	0.000355	3.546771	1.201679	0.000142
 160	1.5820e+01	6.3287	28.372990	0.000456	4.560135	1.545015	0.000183
 161	1.5920e+01	6.3688	28.566772	0.000486	4.864143	1.648016	0.000195
 162	1.6020e+01	6.4121	28.728258	0.000405	4.053453	1.373347	0.000162
 163	1.6119e+01	6.4570	28.934152	0.000517	5.168152	1.751017	0.000207
 164	1.6218e+01	6.4843	29.115823	0.000456	4.560135	1.545015	0.000183
 165	1.6318e+01	6.5244	29.273271	0.000395	3.952117	1.339013	0.000158
 166	1.6418e+01	6.5629	29.438794	0.000415	4.154789	1.407681	0.000166
 167	1.6517e+01	6.6014	29.660836	0.000557	5.573498	1.888352	0.000223
 168	1.6616e+01	6.6447	29.834433	0.000436	4.357462	1.476348	0.000174
 169	1.6716e+01	6.6832	29.971696	0.000345	3.445435	1.167345	0.000138
 170	1.6816e+01	6.7282	30.193738	0.000557	5.573498	1.888352	0.000223
 171	1.6915e+01	6.7650	30.331001	0.000345	3.445435	1.167345	0.000138
 172	1.7015e+01	6.8036	30.524783	0.000486	4.864143	1.648016	0.000195
 173	1.7114e+01	6.8356	30.722603	0.000497	4.965480	1.682350	0.000199
 174	1.7213e+01	6.8757	30.863903	0.000355	3.546771	1.201679	0.000142
 175	1.7313e+01	6.9239	31.057685	0.000486	4.864143	1.648016	0.000195
 176	1.7413e+01	6.9624	31.243393	0.000466	4.661471	1.579349	0.000187
 177	1.7512e+01	7.0025	31.412953	0.000426	4.256126	1.442014	0.000170
 178	1.7611e+01	7.0410	31.586550	0.000436	4.357462	1.476348	0.000174
 179	1.7711e+01	7.0795	31.764184	0.000446	4.458798	1.510682	0.000179
 180	1.7811e+01	7.1148	31.966041	0.000507	5.066816	1.716684	0.000203
 181	1.7910e+01	7.1581	32.119452	0.000385	3.850780	1.304680	0.000154
 182	1.8009e+01	7.1966	32.260752	0.000355	3.546771	1.201679	0.000142
 183	1.8109e+01	7.2399	32.462608	0.000507	5.066816	1.716684	0.000203
 184	1.8209e+01	7.2848	32.603908	0.000355	3.546771	1.201679	0.000142
 185	1.8308e+01	7.3201	32.805765	0.000507	5.066816	1.716684	0.000203
 186	1.8407e+01	7.3666	32.999548	0.000486	4.864143	1.648016	0.000195
 187	1.8507e+01	7.3939	33.161033	0.000405	4.053453	1.373347	0.000162
 188	1.8607e+01	7.4404	33.302333	0.000355	3.546771	1.201679	0.000142
 189	1.8706e+01	7.4918	33.500152	0.000497	4.965480	1.682350	0.000199
 190	1.8805e+01	7.5174	33.677786	0.000446	4.458798	1.510682	0.000179
 191	1.8905e+01	7.5559	33.827160	0.000375	3.749444	1.270346	0.000150
 192	1.9005e+01	7.6041	34.008831	0.000456	4.560135	1.545015	0.000183
 193	1.9104e+01	7.6410	34.113797	0.000263	2.634744	0.892676	0.000105
 194	1.9203e+01	7.6827	34.303542	0.000476	4.762807	1.613683	0.000191
 195	1.9303e+01	7.7260	34.497325	0.000486	4.864143	1.648016	0.000195
 196	1.9402e+01	7.7549	34.683033	0.000466	4.661471	1.579349	0.000187
 197	1.9502e+01	7.8014	34.864704	0.000456	4.560135	1.545015	0.000183
 198	1.9602e+01	7.8431	34.997930	0.000334	3.344099	1.133011	0.000134
 199	1.9701e+01	7.8784	35.187675	0.000476	4.762807	1.613683	0.000191
 200	1.9800e+01	7.9169	35.300715	0.000284	2.837417	0.961343	0.000114
 201	1.9900e+01	7.9522	35.530832	0.000578	5.776170	1.957020	0.000231
 202	2.0000e+01	8.0067	35.700391	0.000426	4.256126	1.442014	0.000170
 203	2.0099e+01	8.0436	35.869951	0.000426	4.256126	1.442014	0.000170
 204	2.0198e+01	8.0773	36.035474	0.000415	4.154789	1.407681	0.000166
 205	2.0298e+01	8.1174	36.152551	0.000294	2.938753	0.995677	0.000118
 206	2.0398e+01	8.1591	36.346333	0.000486	4.864143	1.648016	0.000195
 207	2.0497e+01	8.2008	36.523967	0.000446	4.458798	1.510682	0.000179
 208	2.0596e+01	8.2442	36.689490	0.000415	4.154789	1.407681	0.000166
 209	2.0696e+01	8.2762	36.879235	0.000476	4.762807	1.613683	0.000191
 210	2.0796e+01	8.3228	37.040720	0.000405	4.053453	1.373347	0.000162
 211	2.0895e+01	8.3613	37.222392	0.000456	4.560135	1.545015	0.000183
 212	2.0994e+01	8.4046	37.387914	0.000415	4.154789	1.407681	0.000166
 213	2.1094e+01	8.4447	37.549399	0.000405	4.053453	1.373347	0.000162
 214	2.1194e+01	8.4832	37.706848	0.000395	3.952117	1.339013	0.000158
 215	2.1293e+01	8.5249	37.864296	0.000395	3.952117	1.339013	0.000158
 216	2.1392e+01	8.5634	38.025782	0.000405	4.053453	1.373347	0.000162
 217	2.1492e+01	8.5923	38.223601	0.000497	4.965480	1.682350	0.000199
 218	2.1591e+01	8.6308	38.389124	0.000415	4.154789	1.407681	0.000166
 219	2.1691e+01	8.6805	38.514275	0.000314	3.141426	1.064344	0.000126
 220	2.1791e+01	8.7190	38.720169	0.000517	5.168152	1.751017	0.000207
 221	2.1890e+01	8.7559	38.897803	0.000446	4.458798	1.510682	0.000179
 222	2.1989e+01	8.8056	39.031028	0.000334	3.344099	1.133011	0.000134
 223	2.2089e+01	8.8441	39.176365	0.000365	3.648108	1.236012	0.000146
 224	2.2189e+01	8.8794	39.362073	0.000466	4.661471	1.579349	0.000187
 225	2.2288e+01	8.9131	39.519522	0.000395	3.952117	1.339013	0.000158
 226	2.2387e+01	8.9596	39.697156	0.000446	4.458798	1.510682	0.000179
 227	2.2487e+01	8.9949	39.826344	0.000324	3.242762	1.098678	0.000130
 228	2.2587e+01	9.0286	40.032238	0.000517	5.168152	1.751017	0.000207
 229	2.2686e+01	9.0687	40.161426	0.000324	3.242762	1.098678	0.000130
 230	2.2785e+01	9.1120	40.294652	0.000334	3.344099	1.133011	0.000134
 231	2.2885e+01	9.1570	40.496509	0.000507	5.066816	1.716684	0.000203
 232	2.2985e+01	9.2003	40.621660	0.000314	3.141426	1.064344	0.000126
 233	2.3084e+01	9.2404	40.799294	0.000446	4.458798	1.510682	0.000179
 234	2.3183e+01	9.2789	40.968853	0.000426	4.256126	1.442014	0.000170
 235	2.3283e+01	9.3190	41.077856	0.000274	2.736081	0.927009	0.000110
 236	2.3383e+01	9.3687	41.307973	0.000578	5.776170	1.957020	0.000231
 237	2.3482e+01	9.4008	41.453310	0.000365	3.648108	1.236012	0.000146
 238	2.3581e+01	9.4361	41.610758	0.000395	3.952117	1.339013	0.000158
 239	2.3681e+01	9.4714	41.756095	0.000365	3.648108	1.236012	0.000146
 240	2.3780e+01	9.5147	41.889320	0.000334	3.344099	1.133011	0.000134
 241	2.3880e+01	9.5516	42.079066	0.000476	4.762807	1.613683	0.000191
 242	2.3980e+01	9.5981	42.224403	0.000365	3.648108	1.236012	0.000146
 243	2.4079e+01	9.6382	42.426259	0.000507	5.066816	1.716684	0.000203
 244	2.4178e+01	9.6783	42.547374	0.000304	3.040090	1.030010	0.000122
 245	2.4278e+01	9.7136	42.712896	0.000415	4.154789	1.407681	0.000166
 246	2.4378e+01	9.7489	42.866307	0.000385	3.850780	1.304680	0.000154
 247	2.4477e+01	9.7874	43.007607	0.000355	3.546771	1.201679	0.000142
 248	2.4576e+01	9.8339	43.197352	0.000476	4.762807	1.613683	0.000191
 249	2.4676e+01	9.8757	43.322504	0.000314	3.141426	1.064344	0.000126
 250	2.4776e+01	9.9158	43.488026	0.000415	4.154789	1.407681	0.000166
 251	2.4875e+01	9.9495	43.637400	0.000375	3.749444	1.270346	0.000150
 252	2.4974e+01	9.9976	43.806960	0.000426	4.256126	1.442014	0.000170
 253	2.5074e+01	10.0297	43.968445	0.000405	4.053453	1.373347	0.000162
 254	2.5174e+01	10.0730	44.117819	0.000375	3.749444	1.270346	0.000150
 255	2.5273e+01	10.1195	44.283342	0.000415	4.154789	1.407681	0.000166
 256	2.5372e+01	10.1500	44.440790	0.000395	3.952117	1.339013	0.000158
 257	2.5472e+01	10.1933	44.578053	0.000345	3.445435	1.167345	0.000138
 258	2.5572e+01	10.2238	44.751650	0.000436	4.357462	1.476348	0.000174
 259	2.5671e+01	10.2783	44.892949	0.000355	3.546771	1.201679	0.000142
 260	2.5770e+01	10.3184	45.070583	0.000446	4.458798	1.510682	0.000179
 261	2.5870e+01	10.3553	45.223995	0.000385	3.850780	1.304680	0.000154
 262	2.5970e+01	10.3874	45.381443	0.000395	3.952117	1.339013	0.000158
 263	2.6069e+01	10.4291	45.506594	0.000314	3.141426	1.064344	0.000126
 264	2.6169e+01	10.4853	45.692302	0.000466	4.661471	1.579349	0.000187
 265	2.6268e+01	10.5093	45.845713	0.000385	3.850780	1.304680	0.000154
 266	2.6367e+01	10.5430	45.987013	0.000355	3.546771	1.201679	0.000142
 267	2.6467e+01	10.6008	46.120239	0.000334	3.344099	1.133011	0.000134
 268	2.6567e+01	10.6329	46.289798	0.000426	4.256126	1.442014	0.000170
 269	2.6666e+01	10.6698	46.439172	0.000375	3.749444	1.270346	0.000150
 270	2.6765e+01	10.7131	46.624881	0.000466	4.661471	1.579349	0.000187
 271	2.6865e+01	10.7548	46.733883	0.000274	2.736081	0.927009	0.000110
 272	2.6965e+01	10.7885	46.915554	0.000456	4.560135	1.545015	0.000183
 273	2.7064e+01	10.8173	47.044743	0.000324	3.242762	1.098678	0.000130
 274	2.7163e+01	10.8639	47.177968	0.000334	3.344099	1.133011	0.000134
 275	2.7263e+01	10.9200	47.351565	0.000436	4.357462	1.476348	0.000174
 276	2.7363e+01	10.9553	47.513051	0.000405	4.053453	1.373347	0.000162
 277	2.7462e+01	10.9890	47.686647	0.000436	4.357462	1.476348	0.000174
 278	2.7561e+01	11.0339	47.823910	0.000345	3.445435	1.167345	0.000138
 279	2.7661e+01	11.0692	47.961173	0.000345	3.445435	1.167345	0.000138
 280	2.7761e+01	11.1157	48.118621	0.000395	3.952117	1.339013	0.000158
 281	2.7860e+01	11.1446	48.276069	0.000395	3.952117	1.339013	0.000158
 282	2.7959e+01	11.1879	48.413332	0.000345	3.445435	1.167345	0.000138
 283	2.8059e+01	11.2425	48.578854	0.000415	4.154789	1.407681	0.000166
 284	2.8159e+01	11.2681	48.720154	0.000355	3.546771	1.201679	0.000142
 285	2.8258e+01	11.3066	48.865491	0.000365	3.648108	1.236012	0.000146
 286	2.8358e+01	11.3387	49.006791	0.000355	3.546771	1.201679	0.000142
 287	2.8457e+01	11.3965	49.140016	0.000334	3.344099	1.133011	0.000134
 288	2.8556e+01	11.4286	49.269205	0.000324	3.242762	1.098678	0.000130
 289	2.8656e+01	11.4687	49.438764	0.000426	4.256126	1.442014	0.000170
 290	2.8756e+01	11.5120	49.608324	0.000426	4.256126	1.442014	0.000170
 291	2.8855e+01	11.5409	49.741549	0.000334	3.344099	1.133011	0.000134
 292	2.8954e+01	11.5858	49.862664	0.000304	3.040090	1.030010	0.000122
 293	2.9054e+01	11.6307	50.012038	0.000375	3.749444	1.270346	0.000150
 294	2.9154e+01	11.6612	50.189671	0.000446	4.458798	1.510682	0.000179
 295	2.9253e+01	11.7157	50.318860	0.000324	3.242762	1.098678	0.000130
 296	2.9352e+01	11.7430	50.452085	0.000334	3.344099	1.133011	0.000134
 297	2.9452e+01	11.7815	50.609534	0.000395	3.952117	1.339013	0.000158
 298	2.9552e+01	11.8184	50.734685	0.000314	3.141426	1.064344	0.000126
 299	2.9651e+01	11.8665	50.912319	0.000446	4.458798	1.510682	0.000179
 300	2.9750e+01	11.9146	51.021321	0.000274	2.736081	0.927009	0.000110
 301	2.9850e+01	11.9451	51.186844	0.000415	4.154789	1.407681	0.000166
 302	2.9950e+01	11.9900	51.320070	0.000334	3.344099	1.133011	0.000134
 303	3.0049e+01	12.0285	51.461369	0.000355	3.546771	1.201679	0.000142
 304	3.0148e+01	12.0638	51.618818	0.000395	3.952117	1.339013	0.000158
 305	3.0248e+01	12.1120	51.772229	0.000385	3.850780	1.304680	0.000154
 306	3.0348e+01	12.1424	51.941788	0.000426	4.256126	1.442014	0.000170
 307	3.0447e+01	12.1922	52.046754	0.000263	2.634744	0.892676	0.000105
 308	3.0547e+01	12.2226	52.216314	0.000426	4.256126	1.442014	0.000170
 309	3.0646e+01	12.2644	52.325316	0.000274	2.736081	0.927009	0.000110
 310	3.0745e+01	12.3061	52.494876	0.000426	4.256126	1.442014	0.000170
 311	3.0845e+01	12.3462	52.644250	0.000375	3.749444	1.270346	0.000150
 312	3.0945e+01	12.3847	52.789587	0.000365	3.648108	1.236012	0.000146
 313	3.1044e+01	12.4216	52.942998	0.000385	3.850780	1.304680	0.000154
 314	3.1143e+01	12.4633	53.043926	0.000253	2.533408	0.858342	0.000101
 315	3.1243e+01	12.5066	53.201375	0.000395	3.952117	1.339013	0.000158
 316	3.1343e+01	12.5435	53.338637	0.000345	3.445435	1.167345	0.000138
 317	3.1442e+01	12.5852	53.488011	0.000375	3.749444	1.270346	0.000150
 318	3.1541e+01	12.6205	53.645460	0.000395	3.952117	1.339013	0.000158
 319	3.1641e+01	12.6702	53.794834	0.000375	3.749444	1.270346	0.000150
 320	3.1741e+01	12.7007	53.895762	0.000253	2.533408	0.858342	0.000101
 321	3.1840e+01	12.7553	54.053210	0.000395	3.952117	1.339013	0.000158
 322	3.1939e+01	12.7873	54.198547	0.000365	3.648108	1.236012	0.000146
 323	3.2039e+01	12.8178	54.327736	0.000324	3.242762	1.098678	0.000130
 324	3.2139e+01	12.8627	54.473073	0.000365	3.648108	1.236012	0.000146
 325	3.2238e+01	12.8996	54.602261	0.000324	3.242762	1.098678	0.000130
 326	3.2337e+01	12.9349	54.727412	0.000314	3.141426	1.064344	0.000126
 327	3.2437e+01	12.9782	54.888897	0.000405	4.053453	1.373347	0.000162
 328	3.2536e+01	13.0200	55.026160	0.000345	3.445435	1.167345	0.000138
 329	3.2636e+01	13.0681	55.183608	0.000395	3.952117	1.339013	0.000158
 330	3.2736e+01	13.1082	55.320871	0.000345	3.445435	1.167345	0.000138
 331	3.2835e+01	13.1355	55.425837	0.000263	2.634744	0.892676	0.000105
 332	3.2934e+01	13.1740	55.563099	0.000345	3.445435	1.167345	0.000138
 333	3.3034e+01	13.2221	55.740733	0.000446	4.458798	1.510682	0.000179
 334	3.3133e+01	13.2622	55.861847	0.000304	3.040090	1.030010	0.000122
 335	3.3233e+01	13.3039	56.019296	0.000395	3.952117	1.339013	0.000158
 336	3.3333e+01	13.3408	56.176744	0.000395	3.952117	1.339013	0.000158
 337	3.3432e+01	13.3825	56.289784	0.000284	2.837417	0.961343	0.000114
 338	3.3532e+01	13.4162	56.427046	0.000345	3.445435	1.167345	0.000138
 339	3.3631e+01	13.4579	56.560272	0.000334	3.344099	1.133011	0.000134
 340	3.3730e+01	13.4948	56.657163	0.000243	2.432072	0.824008	0.000097
 341	3.3830e+01	13.5317	56.879205	0.000557	5.573498	1.888352	0.000223
 342	3.3929e+01	13.5734	57.000319	0.000304	3.040090	1.030010	0.000122
 343	3.4029e+01	13.6264	57.149694	0.000375	3.749444	1.270346	0.000150
 344	3.4129e+01	13.6536	57.282919	0.000334	3.344099	1.133011	0.000134
 345	3.4228e+01	13.6953	57.412107	0.000324	3.242762	1.098678	0.000130
 346	3.4328e+01	13.7451	57.549370	0.000345	3.445435	1.167345	0.000138
 347	3.4427e+01	13.7884	57.722967	0.000436	4.357462	1.476348	0.000174
 348	3.4526e+01	13.8189	57.836007	0.000284	2.837417	0.961343	0.000114
 349	3.4626e+01	13.8558	57.977306	0.000355	3.546771	1.201679	0.000142
 350	3.4725e+01	13.8911	58.082272	0.000263	2.634744	0.892676	0.000105
 351	3.4825e+01	13.9376	58.231646	0.000375	3.749444	1.270346	0.000150
 352	3.4925e+01	13.9777	58.360834	0.000324	3.242762	1.098678	0.000130
 353	3.5024e+01	14.0226	58.485985	0.000314	3.141426	1.064344	0.000126
 354	3.5123e+01	14.0531	58.623248	0.000345	3.445435	1.167345	0.000138
 355	3.5223e+01	14.0964	58.736288	0.000284	2.837417	0.961343	0.000114
 356	3.5322e+01	14.1397	58.889699	0.000385	3.850780	1.304680	0.000154
 357	3.5422e+01	14.1718	59.063296	0.000436	4.357462	1.476348	0.000174
 358	3.5522e+01	14.2215	59.188447	0.000314	3.141426	1.064344	0.000126
 359	3.5621e+01	14.2584	59.309561	0.000304	3.040090	1.030010	0.000122
 360	3.5721e+01	14.2873	59.446824	0.000345	3.445435	1.167345	0.000138
 361	3.5820e+01	14.3338	59.576012	0.000324	3.242762	1.098678	0.000130
 362	3.5919e+01	14.3803	59.660792	0.000213	2.128063	0.721007	0.000085
 363	3.6019e+01	14.4156	59.858612	0.000497	4.965480	1.682350	0.000199
 364	3.6118e+01	14.4493	59.975689	0.000294	2.938753	0.995677	0.000118
 365	3.6218e+01	14.4975	60.100840	0.000314	3.141426	1.064344	0.000126
 366	3.6318e+01	14.5392	60.242139	0.000355	3.546771	1.201679	0.000142
 367	3.6417e+01	14.5616	60.379402	0.000345	3.445435	1.167345	0.000138
 368	3.6517e+01	14.6033	60.500516	0.000304	3.040090	1.030010	0.000122
 369	3.6616e+01	14.6482	60.706410	0.000517	5.168152	1.751017	0.000207
 370	3.6715e+01	14.6948	60.799264	0.000233	2.330735	0.789675	0.000093
 371	3.6815e+01	14.7285	60.940564	0.000355	3.546771	1.201679	0.000142
 372	3.6914e+01	14.7718	61.069752	0.000324	3.242762	1.098678	0.000130
 373	3.7014e+01	14.8071	61.182792	0.000284	2.837417	0.961343	0.000114
 374	3.7114e+01	14.8536	61.372537	0.000476	4.762807	1.613683	0.000191
 375	3.7213e+01	14.8905	61.481540	0.000274	2.736081	0.927009	0.000110
 376	3.7313e+01	14.9322	61.614766	0.000334	3.344099	1.133011	0.000134
 377	3.7412e+01	14.9659	61.776251	0.000405	4.053453	1.373347	0.000162
 378	3.7511e+01	15.0156	61.865068	0.000223	2.229399	0.755341	0.000089
 379	3.7611e+01	15.0493	62.062888	0.000497	4.965480	1.682350	0.000199
 380	3.7711e+01	15.0830	62.175928	0.000284	2.837417	0.961343	0.000114
 381	3.7810e+01	15.1295	62.264744	0.000223	2.229399	0.755341	0.000089
 382	3.7910e+01	15.1760	62.430267	0.000415	4.154789	1.407681	0.000166
 383	3.8009e+01	15.2097	62.599827	0.000426	4.256126	1.442014	0.000170
 384	3.8108e+01	15.2466	62.672495	0.000182	1.824054	0.618006	0.000073
 385	3.8208e+01	15.3012	62.821869	0.000375	3.749444	1.270346	0.000150
 386	3.8307e+01	15.3284	62.955095	0.000334	3.344099	1.133011	0.000134
 387	3.8407e+01	15.3750	63.096394	0.000355	3.546771	1.201679	0.000142
 388	3.8507e+01	15.4071	63.213471	0.000294	2.938753	0.995677	0.000118
 389	3.8606e+01	15.4568	63.334585	0.000304	3.040090	1.030010	0.000122
 390	3.8706e+01	15.4921	63.471848	0.000345	3.445435	1.167345	0.000138
 391	3.8805e+01	15.5418	63.609111	0.000345	3.445435	1.167345	0.000138
 392	3.8904e+01	15.5707	63.770596	0.000405	4.053453	1.373347	0.000162
 393	3.9004e+01	15.6124	63.911896	0.000355	3.546771	1.201679	0.000142
 394	3.9103e+01	15.6477	64.020899	0.000274	2.736081	0.927009	0.000110
 395	3.9203e+01	15.6894	64.150087	0.000324	3.242762	1.098678	0.000130
 396	3.9303e+01	15.7295	64.287349	0.000345	3.445435	1.167345	0.000138
 397	3.9402e+01	15.7696	64.428649	0.000355	3.546771	1.201679	0.000142
 398	3.9502e+01	15.8177	64.521503	0.000233	2.330735	0.789675	0.000093
 399	3.9601e+01	15.8482	64.691063	0.000426	4.256126	1.442014	0.000170
 400	3.9700e+01	15.8867	64.816214	0.000314	3.141426	1.064344	0.000126
 401	3.9800e+01	15.9332	64.977700	0.000405	4.053453	1.373347	0.000162
 402	3.9900e+01	15.9750	65.090740	0.000284	2.837417	0.961343	0.000114
 403	3.9999e+01	16.0070	65.175519	0.000213	2.128063	0.721007	0.000085
 404	4.0099e+01	16.0536	65.337005	0.000405	4.053453	1.373347	0.000162
 405	4.0198e+01	16.0889	65.470230	0.000334	3.344099	1.133011	0.000134
 406	4.0297e+01	16.1322	65.583270	0.000284	2.837417	0.961343	0.000114
 407	4.0397e+01	16.1723	65.724570	0.000355	3.546771	1.201679	0.000142
 408	4.0496e+01	16.2060	65.869907	0.000365	3.648108	1.236012	0.000146
 409	4.0596e+01	16.2445	65.978909	0.000274	2.736081	0.927009	0.000110
 410	4.0696e+01	16.2782	66.095986	0.000294	2.938753	0.995677	0.000118
 411	4.0795e+01	16.3199	66.217100	0.000304	3.040090	1.030010	0.000122
 412	4.0895e+01	16.3632	66.366474	0.000375	3.749444	1.270346	0.000150
 413	4.0994e+01	16.4193	66.515848	0.000375	3.749444	1.270346	0.000150
 414	4.1093e+01	16.4402	66.653111	0.000345	3.445435	1.167345	0.000138
 415	4.1193e+01	16.4787	66.729817	0.000193	1.925390	0.652340	0.000077
 416	4.1292e+01	16.5188	66.903413	0.000436	4.357462	1.476348	0.000174
 417	4.1392e+01	16.5621	67.024528	0.000304	3.040090	1.030010	0.000122
 418	4.1492e+01	16.6038	67.165827	0.000355	3.546771	1.201679	0.000142
 419	4.1591e+01	16.6487	67.307127	0.000355	3.546771	1.201679	0.000142
 420	4.1691e+01	16.6792	67.440353	0.000334	3.344099	1.133011	0.000134
 421	4.1790e+01	16.7257	67.553392	0.000284	2.837417	0.961343	0.000114
 422	4.1889e+01	16.7690	67.678544	0.000314	3.141426	1.064344	0.000126
 423	4.1989e+01	16.7995	67.779472	0.000253	2.533408	0.858342	0.000101
 424	4.2089e+01	16.8444	67.940957	0.000405	4.053453	1.373347	0.000162
 425	4.2188e+01	16.8829	68.045923	0.000263	2.634744	0.892676	0.000105
 426	4.2288e+01	16.9247	68.215483	0.000426	4.256126	1.442014	0.000170
 427	4.2387e+01	16.9680	68.320448	0.000263	2.634744	0.892676	0.000105
 428	4.2486e+01	17.0017	68.485971	0.000415	4.154789	1.407681	0.000166
 429	4.2586e+01	17.0434	68.594973	0.000274	2.736081	0.927009	0.000110
 430	4.2685e+01	17.0867	68.716087	0.000304	3.040090	1.030010	0.000122
 431	4.2785e+01	17.1300	68.845276	0.000324	3.242762	1.098678	0.000130
 432	4.2885e+01	17.1701	68.982538	0.000345	3.445435	1.167345	0.000138
 433	4.2984e+01	17.2022	69.135950	0.000385	3.850780	1.304680	0.000154
 434	4.3084e+01	17.2503	69.204581	0.000172	1.722717	0.583672	0.000069
 435	4.3183e+01	17.2904	69.333769	0.000324	3.242762	1.098678	0.000130
 436	4.3282e+01	17.3257	69.483143	0.000375	3.749444	1.270346	0.000150
 437	4.3382e+01	17.3626	69.616369	0.000334	3.344099	1.133011	0.000134
 438	4.3481e+01	17.4075	69.745557	0.000324	3.242762	1.098678	0.000130
 439	4.3581e+01	17.4508	69.890894	0.000365	3.648108	1.236012	0.000146
 440	4.3681e+01	17.4765	70.007971	0.000294	2.938753	0.995677	0.000118
 441	4.3780e+01	17.5311	70.153308	0.000365	3.648108	1.236012	0.000146
 442	4.3880e+01	17.5535	70.221939	0.000172	1.722717	0.583672	0.000069
 443	4.3979e+01	17.6065	70.419759	0.000497	4.965480	1.682350	0.000199
 444	4.4078e+01	17.6466	70.512613	0.000233	2.330735	0.789675	0.000093
 445	4.4178e+01	17.6915	70.661987	0.000375	3.749444	1.270346	0.000150
 446	4.4278e+01	17.7220	70.803287	0.000355	3.546771	1.201679	0.000142
 447	4.4377e+01	17.7605	70.932475	0.000324	3.242762	1.098678	0.000130
 448	4.4477e+01	17.8070	71.041478	0.000274	2.736081	0.927009	0.000110
 449	4.4576e+01	17.8343	71.166629	0.000314	3.141426	1.064344	0.000126
 450	4.4675e+01	17.8808	71.287743	0.000304	3.040090	1.030010	0.000122
 451	4.4775e+01	17.9193	71.420968	0.000334	3.344099	1.133011	0.000134
 452	4.4874e+01	17.9642	71.538045	0.000294	2.938753	0.995677	0.000118
 453	4.4974e+01	17.9915	71.671271	0.000334	3.344099	1.133011	0.000134
 454	4.5074e+01	18.0316	71.800459	0.000324	3.242762	1.098678	0.000130
 455	4.5173e+01	18.0829	71.921573	0.000304	3.040090	1.030010	0.000122
 456	4.5273e+01	18.1214	72.054799	0.000334	3.344099	1.133011	0.000134
 457	4.5372e+01	18.1567	72.135541	0.000203	2.026726	0.686674	0.000081
 458	4.5471e+01	18.2000	72.329324	0.000486	4.864143	1.648016	0.000195
 459	4.5571e+01	18.2401	72.434289	0.000263	2.634744	0.892676	0.000105
 460	4.5670e+01	18.2770	72.539255	0.000263	2.634744	0.892676	0.000105
 461	4.5770e+01	18.3203	72.692666	0.000385	3.850780	1.304680	0.000154
 462	4.5870e+01	18.3588	72.785520	0.000233	2.330735	0.789675	0.000093
 463	4.5969e+01	18.3957	72.918746	0.000334	3.344099	1.133011	0.000134
 464	4.6069e+01	18.4439	73.084268	0.000415	4.154789	1.407681	0.000166
 465	4.6168e+01	18.4792	73.181160	0.000243	2.432072	0.824008	0.000097
 466	4.6267e+01	18.5257	73.310348	0.000324	3.242762	1.098678	0.000130
 467	4.6367e+01	18.5594	73.423388	0.000284	2.837417	0.961343	0.000114
 468	4.6467e+01	18.6091	73.552576	0.000324	3.242762	1.098678	0.000130
 469	4.6566e+01	18.6412	73.669653	0.000294	2.938753	0.995677	0.000118
 470	4.6666e+01	18.6781	73.798841	0.000324	3.242762	1.098678	0.000130
 471	4.6765e+01	18.7182	73.952252	0.000385	3.850780	1.304680	0.000154
 472	4.6864e+01	18.7567	74.041069	0.000223	2.229399	0.755341	0.000089
 473	4.6964e+01	18.8032	74.174295	0.000334	3.344099	1.133011	0.000134
 474	4.7063e+01	18.8433	74.299446	0.000314	3.141426	1.064344	0.000126
 475	4.7163e+01	18.8834	74.440746	0.000355	3.546771	1.201679	0.000142
 476	4.7263e+01	18.9091	74.582046	0.000355	3.546771	1.201679	0.000142
 477	4.7362e+01	18.9524	74.687011	0.000263	2.634744	0.892676	0.000105
 478	4.7462e+01	18.9941	74.791977	0.000263	2.634744	0.892676	0.000105
 479	4.7561e+01	19.0358	74.949425	0.000395	3.952117	1.339013	0.000158
 480	4.7660e+01	19.0743	75.078613	0.000324	3.242762	1.098678	0.000130
 481	4.7760e+01	19.1225	75.211839	0.000334	3.344099	1.133011	0.000134
 482	4.7859e+01	19.1561	75.336990	0.000314	3.141426	1.064344	0.000126
 483	4.7959e+01	19.1946	75.425807	0.000223	2.229399	0.755341	0.000089
 484	4.8059e+01	19.2444	75.587292	0.000405	4.053453	1.373347	0.000162
 485	4.8158e+01	19.2781	75.684184	0.000243	2.432072	0.824008	0.000097
 486	4.8258e+01	19.3182	75.861818	0.000446	4.458798	1.510682	0.000179
 487	4.8357e+01	19.3454	75.966783	0.000263	2.634744	0.892676	0.000105
 488	4.8456e+01	19.3952	76.067712	0.000253	2.533408	0.858342	0.000101
 489	4.8556e+01	19.4321	76.196900	0.000324	3.242762	1.098678	0.000130
 490	4.8656e+01	19.4658	76.301865	0.000263	2.634744	0.892676	0.000105
 491	4.8755e+01	19.5107	76.471425	0.000426	4.256126	1.442014	0.000170
 492	4.8855e+01	19.5540	76.592539	0.000304	3.040090	1.030010	0.000122
 493	4.8954e+01	19.5925	76.717690	0.000314	3.141426	1.064344	0.000126
 494	4.9053e+01	19.6278	76.822656	0.000263	2.634744	0.892676	0.000105
 495	4.9153e+01	19.6807	76.963956	0.000355	3.546771	1.201679	0.000142
 496	4.9252e+01	19.7112	77.072958	0.000274	2.736081	0.927009	0.000110
 497	4.9352e+01	19.7561	77.214258	0.000355	3.546771	1.201679	0.000142
 498	4.9452e+01	19.7930	77.327298	0.000284	2.837417	0.961343	0.000114
 499	4.9551e+01	19.8251	77.464561	0.000345	3.445435	1.167345	0.000138
 500	4.9651e+01	19.8716	77.577600	0.000284	2.837417	0.961343	0.000114
 501	4.9750e+01	19.9182	77.714863	0.000345	3.445435	1.167345	0.000138
 502	4.9849e+01	19.9454	77.831940	0.000294	2.938753	0.995677	0.000118
 503	4.9949e+01	19.9968	77.977277	0.000365	3.648108	1.236012	0.000146
 504	5.0048e+01	19.9502	77.888460	0.000223	2.229399	0.755341	-0.000089
 505	5.0148e+01	19.9214	77.831940	0.000142	1.418709	0.480671	-0.000057
 506	5.0248e+01	19.8732	77.718900	0.000284	2.837417	0.961343	-0.000114
 507	5.0347e+01	19.8331	77.646232	0.000182	1.824054	0.618006	-0.000073
 508	5.0447e+01	19.7978	77.557415	0.000223	2.229399	0.755341	-0.000089
 509	5.0546e+01	19.7513	77.468598	0.000223	2.229399	0.755341	-0.000089
 510	5.0645e+01	19.7112	77.387855	0.000203	2.026726	0.686674	-0.000081
 511	5.0745e+01	19.6743	77.319224	0.000172	1.722717	0.583672	-0.000069
 512	5.0844e+01	19.6358	77.230407	0.000223	2.229399	0.755341	-0.000089
 513	5.0944e+01	19.5957	77.113330	0.000294	2.938753	0.995677	-0.000118
 514	5.1044e+01	19.5572	77.000290	0.000284	2.837417	0.961343	-0.000114
 515	5.1143e+01	19.5123	76.963956	0.000091	0.912027	0.309003	-0.000037
 516	5.1242e+01	19.4690	76.838805	0.000314	3.141426	1.064344	-0.000126
 517	5.1342e+01	19.4449	76.758062	0.000203	2.026726	0.686674	-0.000081
 518	5.1441e+01	19.3936	76.657133	0.000253	2.533408	0.858342	-0.000101
 519	5.1541e+01	19.3583	76.540056	0.000294	2.938753	0.995677	-0.000118
 520	5.1641e+01	19.3214	76.435091	0.000263	2.634744	0.892676	-0.000105
 521	5.1740e+01	19.2668	76.354348	0.000203	2.026726	0.686674	-0.000081
 522	5.1840e+01	19.2460	76.229197	0.000314	3.141426	1.064344	-0.000126
 523	5.1939e+01	19.2027	76.140380	0.000223	2.229399	0.755341	-0.000089
 524	5.2038e+01	19.1497	76.063674	0.000193	1.925390	0.652340	-0.000077
 525	5.2138e+01	19.1257	75.958709	0.000263	2.634744	0.892676	-0.000105
 526	5.2237e+01	19.0791	75.861818	0.000243	2.432072	0.824008	-0.000097
 527	5.2337e+01	19.0406	75.752815	0.000274	2.736081	0.927009	-0.000110
 528	5.2437e+01	19.0021	75.659961	0.000233	2.330735	0.789675	-0.000093
 529	5.2536e+01	18.9588	75.595367	0.000162	1.621381	0.549339	-0.000065
 530	5.2636e+01	18.9187	75.482327	0.000284	2.837417	0.961343	-0.000114
 531	5.2735e+01	18.8770	75.369287	0.000284	2.837417	0.961343	-0.000114
 532	5.2834e+01	18.8433	75.252210	0.000294	2.938753	0.995677	-0.000118
 533	5.2934e+01	18.7984	75.183579	0.000172	1.722717	0.583672	-0.000069
 534	5.3033e+01	18.7503	75.058428	0.000314	3.141426	1.064344	-0.000126
 535	5.3133e+01	18.7262	74.993833	0.000162	1.621381	0.549339	-0.000065
 536	5.3233e+01	18.6781	74.844459	0.000375	3.749444	1.270346	-0.000150
 537	5.3332e+01	18.6380	74.755642	0.000223	2.229399	0.755341	-0.000089
 538	5.3431e+01	18.5995	74.682974	0.000182	1.824054	0.618006	-0.000073
 539	5.3531e+01	18.5562	74.557823	0.000314	3.141426	1.064344	-0.000126
 540	5.3630e+01	18.5177	74.473043	0.000213	2.128063	0.721007	-0.000085
 541	5.3730e+01	18.4856	74.376152	0.000243	2.432072	0.824008	-0.000097
 542	5.3830e+01	18.4455	74.275223	0.000253	2.533408	0.858342	-0.000101
 543	5.3929e+01	18.3925	74.150072	0.000314	3.141426	1.064344	-0.000126
 544	5.4029e+01	18.3620	74.032995	0.000294	2.938753	0.995677	-0.000118
 545	5.4128e+01	18.3252	73.911881	0.000304	3.040090	1.030010	-0.000122
 546	5.4227e+01	18.2754	73.871510	0.000101	1.013363	0.343337	-0.000041
 547	5.4327e+01	18.2401	73.754433	0.000294	2.938753	0.995677	-0.000118
 548	5.4426e+01	18.1968	73.653504	0.000253	2.533408	0.858342	-0.000101
 549	5.4526e+01	18.1599	73.552576	0.000253	2.533408	0.858342	-0.000101
 550	5.4626e+01	18.1150	73.475870	0.000193	1.925390	0.652340	-0.000077
 551	5.4725e+01	18.0797	73.346682	0.000324	3.242762	1.098678	-0.000130
 552	5.4825e+01	18.0364	73.241717	0.000263	2.634744	0.892676	-0.000105
 553	5.4924e+01	17.9947	73.116565	0.000314	3.141426	1.064344	-0.000126
 554	5.5023e+01	17.9610	73.043897	0.000182	1.824054	0.618006	-0.000073
 555	5.5123e+01	17.9209	72.951043	0.000233	2.330735	0.789675	-0.000093
 556	5.5222e+01	17.8760	72.825892	0.000314	3.141426	1.064344	-0.000126
 557	5.5322e+01	17.8439	72.749186	0.000193	1.925390	0.652340	-0.000077
 558	5.5422e+01	17.8006	72.579626	0.000426	4.256126	1.442014	-0.000170
 559	5.5521e+01	17.7637	72.510995	0.000172	1.722717	0.583672	-0.000069
 560	5.5620e+01	17.7284	72.377770	0.000334	3.344099	1.133011	-0.000134
 561	5.5720e+01	17.6835	72.297027	0.000203	2.026726	0.686674	-0.000081
 562	5.5819e+01	17.6450	72.204173	0.000233	2.330735	0.789675	-0.000093
 563	5.5919e+01	17.5984	72.050762	0.000385	3.850780	1.304680	-0.000154
 564	5.6019e+01	17.5696	71.949833	0.000253	2.533408	0.858342	-0.000101
 565	5.6118e+01	17.5246	71.877165	0.000182	1.824054	0.618006	-0.000073
 566	5.6218e+01	17.4797	71.747976	0.000324	3.242762	1.098678	-0.000130
 567	5.6317e+01	17.4380	71.667234	0.000203	2.026726	0.686674	-0.000081
 568	5.6416e+01	17.4027	71.529971	0.000345	3.445435	1.167345	-0.000138
 569	5.6516e+01	17.3610	71.433080	0.000243	2.432072	0.824008	-0.000097
 570	5.6615e+01	17.3241	71.328114	0.000263	2.634744	0.892676	-0.000105
 571	5.6715e+01	17.2856	71.194889	0.000334	3.344099	1.133011	-0.000134
 572	5.6815e+01	17.2471	71.073775	0.000304	3.040090	1.030010	-0.000122
 573	5.6914e+01	17.2118	71.001106	0.000182	1.824054	0.618006	-0.000073
 574	5.7014e+01	17.1669	70.896141	0.000263	2.634744	0.892676	-0.000105
 575	5.7113e+01	17.1220	70.762915	0.000334	3.344099	1.133011	-0.000134
 576	5.7212e+01	17.0738	70.661987	0.000253	2.533408	0.858342	-0.000101
 577	5.7312e+01	17.0466	70.585281	0.000193	1.925390	0.652340	-0.000077
 578	5.7411e+01	17.0049	70.439944	0.000365	3.648108	1.236012	-0.000146
 579	5.7511e+01	16.9664	70.355165	0.000213	2.128063	0.721007	-0.000085
 580	5.7611e+01	16.9214	70.217902	0.000345	3.445435	1.167345	-0.000138
 581	5.7710e+01	16.8878	70.112936	0.000263	2.634744	0.892676	-0.000105
 582	5.7809e+01	16.8460	69.987785	0.000314	3.141426	1.064344	-0.000126
 583	5.7909e+01	16.8027	69.923191	0.000162	1.621381	0.549339	-0.000065
 584	5.8008e+01	16.7658	69.789966	0.000334	3.344099	1.133011	-0.000134
 585	5.8108e+01	16.7241	69.672889	0.000294	2.938753	0.995677	-0.000118
 586	5.8208e+01	16.6872	69.559849	0.000284	2.837417	0.961343	-0.000114
 587	5.8307e+01	16.6455	69.462958	0.000243	2.432072	0.824008	-0.000097
 588	5.8407e+01	16.6070	69.353955	0.000274	2.736081	0.927009	-0.000110
 589	5.8506e+01	16.5733	69.228804	0.000314	3.141426	1.064344	-0.000126
 590	5.8605e+01	16.5316	69.111727	0.000294	2.938753	0.995677	-0.000118
 591	5.8705e+01	16.4819	68.982538	0.000324	3.242762	1.098678	-0.000130
 592	5.8804e+01	16.4466	68.913907	0.000172	1.722717	0.583672	-0.000069
 593	5.8904e+01	16.4017	68.760496	0.000385	3.850780	1.304680	-0.000154
 594	5.9004e+01	16.3664	68.651493	0.000274	2.736081	0.927009	-0.000110
 595	5.9103e+01	16.3199	68.522305	0.000324	3.242762	1.098678	-0.000130
 596	5.9203e+01	16.2814	68.421376	0.000253	2.533408	0.858342	-0.000101
 597	5.9302e+01	16.2445	68.328522	0.000233	2.330735	0.789675	-0.000093
 598	5.9401e+01	16.2076	68.231631	0.000243	2.432072	0.824008	-0.000097
 599	5.9501e+01	16.1739	68.106480	0.000314	3.141426	1.064344	-0.000126
 600	5.9600e+01	16.1290	68.021700	0.000213	2.128063	0.721007	-0.000085
 601	5.9700e+01	16.0856	67.827918	0.000486	4.864143	1.648016	-0.000195
 602	5.9800e+01	16.0439	67.803695	0.000061	0.608018	0.206002	-0.000024
 603	5.9899e+01	16.0070	67.670469	0.000334	3.344099	1.133011	-0.000134
 604	5.9998e+01	15.9685	67.537244	0.000334	3.344099	1.133011	-0.000134
 605	6.0098e+01	15.9348	67.432278	0.000263	2.634744	0.892676	-0.000105
 606	6.0197e+01	15.8819	67.266756	0.000415	4.154789	1.407681	-0.000166
 607	6.0297e+01	15.8498	67.157753	0.000274	2.736081	0.927009	-0.000110
 608	6.0397e+01	15.8097	67.081047	0.000193	1.925390	0.652340	-0.000077
 609	6.0496e+01	15.7696	66.996268	0.000213	2.128063	0.721007	-0.000085
 610	6.0596e+01	15.7327	66.859005	0.000345	3.445435	1.167345	-0.000138
 611	6.0695e+01	15.6878	66.758077	0.000253	2.533408	0.858342	-0.000101
 612	6.0794e+01	15.6445	66.616777	0.000355	3.546771	1.201679	-0.000142
 613	6.0894e+01	15.6060	66.519886	0.000243	2.432072	0.824008	-0.000097
 614	6.0993e+01	15.5739	66.406846	0.000284	2.837417	0.961343	-0.000114
 615	6.1093e+01	15.5354	66.309954	0.000243	2.432072	0.824008	-0.000097
 616	6.1193e+01	15.4825	66.140395	0.000426	4.256126	1.442014	-0.000170
 617	6.1292e+01	15.4472	66.055615	0.000213	2.128063	0.721007	-0.000085
 618	6.1392e+01	15.4135	65.902204	0.000385	3.850780	1.304680	-0.000154
 619	6.1491e+01	15.3637	65.785127	0.000294	2.938753	0.995677	-0.000118
 620	6.1590e+01	15.3204	65.692273	0.000233	2.330735	0.789675	-0.000093
 621	6.1690e+01	15.2899	65.546936	0.000365	3.648108	1.236012	-0.000146
 622	6.1789e+01	15.2595	65.462156	0.000213	2.128063	0.721007	-0.000085
 623	6.1889e+01	15.2049	65.292596	0.000426	4.256126	1.442014	-0.000170
 624	6.1989e+01	15.1712	65.215891	0.000193	1.925390	0.652340	-0.000077
 625	6.2088e+01	15.1247	65.090740	0.000314	3.141426	1.064344	-0.000126
 626	6.2188e+01	15.0990	64.949440	0.000355	3.546771	1.201679	-0.000142
 627	6.2287e+01	15.0525	64.848511	0.000253	2.533408	0.858342	-0.000101
 628	6.2386e+01	15.0140	64.735472	0.000284	2.837417	0.961343	-0.000114
 629	6.2486e+01	14.9803	64.642617	0.000233	2.330735	0.789675	-0.000093
 630	6.2586e+01	14.9386	64.525541	0.000294	2.938753	0.995677	-0.000118
 631	6.2685e+01	14.8937	64.372129	0.000385	3.850780	1.304680	-0.000154
 632	6.2785e+01	14.8456	64.255052	0.000294	2.938753	0.995677	-0.000118
 633	6.2884e+01	14.8103	64.150087	0.000263	2.634744	0.892676	-0.000105
 634	6.2983e+01	14.7766	64.008787	0.000355	3.546771	1.201679	-0.000142
 635	6.3083e+01	14.7317	63.859413	0.000375	3.749444	1.270346	-0.000150
 636	6.3182e+01	14.6964	63.762522	0.000243	2.432072	0.824008	-0.000097
 637	6.3282e+01	14.6595	63.669668	0.000233	2.330735	0.789675	-0.000093
 638	6.3382e+01	14.6146	63.556628	0.000284	2.837417	0.961343	-0.000114
 639	6.3481e+01	14.5664	63.427440	0.000324	3.242762	1.098678	-0.000130
 640	6.3581e+01	14.5311	63.318437	0.000274	2.736081	0.927009	-0.000110
 641	6.3680e+01	14.4975	63.165026	0.000385	3.850780	1.304680	-0.000154
 642	6.3779e+01	14.4525	63.056023	0.000274	2.736081	0.927009	-0.000110
 643	6.3879e+01	14.4108	62.938946	0.000294	2.938753	0.995677	-0.000118
 644	6.3978e+01	14.3884	62.793609	0.000365	3.648108	1.236012	-0.000146
 645	6.4078e+01	14.3450	62.724978	0.000172	1.722717	0.583672	-0.000069
 646	6.4177e+01	14.3049	62.575604	0.000375	3.749444	1.270346	-0.000150
 647	6.4277e+01	14.2568	62.470638	0.000263	2.634744	0.892676	-0.000105
 648	6.4376e+01	14.2167	62.293004	0.000446	4.458798	1.510682	-0.000179
 649	6.4476e+01	14.1814	62.240522	0.000132	1.317372	0.446338	-0.000053
 650	6.4576e+01	14.1333	62.107296	0.000334	3.344099	1.133011	-0.000134
 651	6.4675e+01	14.0868	61.949848	0.000395	3.952117	1.339013	-0.000158
 652	6.4775e+01	14.0595	61.836808	0.000284	2.837417	0.961343	-0.000114
 653	6.4874e+01	14.0210	61.719731	0.000294	2.938753	0.995677	-0.000118
 654	6.4974e+01	13.9729	61.586506	0.000334	3.344099	1.133011	-0.000134
 655	6.5073e+01	13.9344	61.477503	0.000274	2.736081	0.927009	-0.000110
 656	6.5172e+01	13.8814	61.320055	0.000395	3.952117	1.339013	-0.000158
 657	6.5272e+01	13.8526	61.202978	0.000294	2.938753	0.995677	-0.000118
 658	6.5371e+01	13.8140	61.069752	0.000334	3.344099	1.133011	-0.000134
 659	6.5471e+01	13.7836	60.964787	0.000263	2.634744	0.892676	-0.000105
 660	6.5570e+01	13.7354	60.831561	0.000334	3.344099	1.133011	-0.000134
 661	6.5670e+01	13.6985	60.714484	0.000294	2.938753	0.995677	-0.000118
 662	6.5769e+01	13.6633	60.621630	0.000233	2.330735	0.789675	-0.000093
 663	6.5869e+01	13.6231	60.480330	0.000355	3.546771	1.201679	-0.000142
 664	6.5969e+01	13.5782	60.355179	0.000314	3.141426	1.064344	-0.000126
 665	6.6068e+01	13.5429	60.221954	0.000334	3.344099	1.133011	-0.000134
 666	6.6168e+01	13.4932	60.080654	0.000355	3.546771	1.201679	-0.000142
 667	6.6267e+01	13.4643	59.983763	0.000243	2.432072	0.824008	-0.000097
 668	6.6367e+01	13.4114	59.846500	0.000345	3.445435	1.167345	-0.000138
 669	6.6466e+01	13.3761	59.721349	0.000314	3.141426	1.064344	-0.000126
 670	6.6566e+01	13.3424	59.596198	0.000314	3.141426	1.064344	-0.000126
 671	6.6665e+01	13.2991	59.487195	0.000274	2.736081	0.927009	-0.000110
 672	6.6764e+01	13.2670	59.362044	0.000314	3.141426	1.064344	-0.000126
 673	6.6864e+01	13.2205	59.212670	0.000375	3.749444	1.270346	-0.000150
 674	6.6963e+01	13.1820	59.123853	0.000223	2.229399	0.755341	-0.000089
 675	6.7063e+01	13.1355	58.954293	0.000426	4.256126	1.442014	-0.000170
 676	6.7162e+01	13.0986	58.861439	0.000233	2.330735	0.789675	-0.000093
 677	6.7262e+01	13.0633	58.708028	0.000385	3.850780	1.304680	-0.000154
 678	6.7362e+01	13.0167	58.607100	0.000253	2.533408	0.858342	-0.000101
 679	6.7461e+01	12.9686	58.461763	0.000365	3.648108	1.236012	-0.000146
 680	6.7561e+01	12.9494	58.332574	0.000324	3.242762	1.098678	-0.000130
 681	6.7660e+01	12.8948	58.247794	0.000213	2.128063	0.721007	-0.000085
 682	6.7760e+01	12.8676	58.078235	0.000426	4.256126	1.442014	-0.000170
 683	6.7859e+01	12.8242	57.977306	0.000253	2.533408	0.858342	-0.000101
 684	6.7959e+01	12.7857	57.848118	0.000324	3.242762	1.098678	-0.000130
 685	6.8058e+01	12.7376	57.710855	0.000345	3.445435	1.167345	-0.000138
 686	6.8157e+01	12.7039	57.601853	0.000274	2.736081	0.927009	-0.000110
 687	6.8257e+01	12.6654	57.452479	0.000375	3.749444	1.270346	-0.000150
 688	6.8356e+01	12.6173	57.299068	0.000385	3.850780	1.304680	-0.000154
 689	6.8456e+01	12.5884	57.210251	0.000223	2.229399	0.755341	-0.000089
 690	6.8555e+01	12.5467	57.072988	0.000345	3.445435	1.167345	-0.000138
 691	6.8655e+01	12.5002	56.939762	0.000334	3.344099	1.133011	-0.000134
 692	6.8754e+01	12.4537	56.778277	0.000405	4.053453	1.373347	-0.000162
 693	6.8854e+01	12.4136	56.689460	0.000223	2.229399	0.755341	-0.000089
 694	6.8954e+01	12.3895	56.560272	0.000324	3.242762	1.098678	-0.000130
 695	6.9053e+01	12.3430	56.398786	0.000405	4.053453	1.373347	-0.000162
 696	6.9153e+01	12.2997	56.285746	0.000284	2.837417	0.961343	-0.000114
 697	6.9252e+01	12.2660	56.156558	0.000324	3.242762	1.098678	-0.000130
 698	6.9352e+01	12.2210	56.023333	0.000334	3.344099	1.133011	-0.000134
 699	6.9451e+01	12.1874	55.886070	0.000345	3.445435	1.167345	-0.000138
 700	6.9550e+01	12.1392	55.764956	0.000304	3.040090	1.030010	-0.000122
 701	6.9650e+01	12.1039	55.627693	0.000345	3.445435	1.167345	-0.000138
 702	6.9749e+01	12.0702	55.510616	0.000294	2.938753	0.995677	-0.000118
 703	6.9849e+01	12.0221	55.385465	0.000314	3.141426	1.064344	-0.000126
 704	6.9948e+01	11.9900	55.244165	0.000355	3.546771	1.201679	-0.000142
 705	7.0048e+01	11.9483	55.114977	0.000324	3.242762	1.098678	-0.000130
 706	7.0147e+01	11.9066	55.001937	0.000284	2.837417	0.961343	-0.000114
 707	7.0247e+01	11.8649	54.840452	0.000405	4.053453	1.373347	-0.000162
 708	7.0347e+01	11.8200	54.723375	0.000294	2.938753	0.995677	-0.000118
 709	7.0446e+01	11.7847	54.594187	0.000324	3.242762	1.098678	-0.000130
 710	7.0546e+01	11.7494	54.477110	0.000294	2.938753	0.995677	-0.000118
 711	7.0645e+01	11.7077	54.351958	0.000314	3.141426	1.064344	-0.000126
 712	7.0745e+01	11.6660	54.214696	0.000345	3.445435	1.167345	-0.000138
 713	7.0844e+01	11.6259	54.093582	0.000304	3.040090	1.030010	-0.000122
 714	7.0944e+01	11.5810	53.956319	0.000345	3.445435	1.167345	-0.000138
 715	7.1043e+01	11.5425	53.798871	0.000395	3.952117	1.339013	-0.000158
 716	7.1142e+01	11.5023	53.677757	0.000304	3.040090	1.030010	-0.000122
 717	7.1242e+01	11.4751	53.560680	0.000294	2.938753	0.995677	-0.000118
 718	7.1341e+01	11.4286	53.443603	0.000294	2.938753	0.995677	-0.000118
 719	7.1441e+01	11.3933	53.274043	0.000426	4.256126	1.442014	-0.000170
 720	7.1540e+01	11.3483	53.161003	0.000284	2.837417	0.961343	-0.000114
 721	7.1640e+01	11.3098	53.023741	0.000345	3.445435	1.167345	-0.000138
 722	7.1740e+01	11.2762	52.898590	0.000314	3.141426	1.064344	-0.000126
 723	7.1839e+01	11.2232	52.741141	0.000395	3.952117	1.339013	-0.000158
 724	7.1939e+01	11.1943	52.624064	0.000294	2.938753	0.995677	-0.000118
 725	7.2038e+01	11.1494	52.482765	0.000355	3.546771	1.201679	-0.000142
 726	7.2138e+01	11.1125	52.353576	0.000324	3.242762	1.098678	-0.000130
 727	7.2237e+01	11.0692	52.196128	0.000395	3.952117	1.339013	-0.000158
 728	7.2337e+01	11.0307	52.087125	0.000274	2.736081	0.927009	-0.000110
 729	7.2436e+01	10.9906	51.945826	0.000355	3.546771	1.201679	-0.000142
 730	7.2535e+01	10.9569	51.808563	0.000345	3.445435	1.167345	-0.000138
 731	7.2635e+01	10.9184	51.659189	0.000375	3.749444	1.270346	-0.000150
 732	7.2734e+01	10.8719	51.521926	0.000345	3.445435	1.167345	-0.000138
 733	7.2834e+01	10.8318	51.376589	0.000365	3.648108	1.236012	-0.000146
 734	7.2933e+01	10.7933	51.255475	0.000304	3.040090	1.030010	-0.000122
 735	7.3033e+01	10.7435	51.106101	0.000375	3.749444	1.270346	-0.000150
 736	7.3132e+01	10.7211	50.984987	0.000304	3.040090	1.030010	-0.000122
 737	7.3232e+01	10.6746	50.863873	0.000304	3.040090	1.030010	-0.000122
 738	7.3332e+01	10.6377	50.750833	0.000284	2.837417	0.961343	-0.000114
 739	7.3431e+01	10.5960	50.573199	0.000446	4.458798	1.510682	-0.000179
 740	7.3531e+01	10.5526	50.452085	0.000304	3.040090	1.030010	-0.000122
 741	7.3630e+01	10.5045	50.306748	0.000365	3.648108	1.236012	-0.000146
 742	7.3730e+01	10.4756	50.185634	0.000304	3.040090	1.030010	-0.000122
 743	7.3829e+01	10.4371	50.048372	0.000345	3.445435	1.167345	-0.000138
 744	7.3928e+01	10.3954	49.898998	0.000375	3.749444	1.270346	-0.000150
 745	7.4028e+01	10.3505	49.757698	0.000355	3.546771	1.201679	-0.000142
 746	7.4127e+01	10.3152	49.628510	0.000324	3.242762	1.098678	-0.000130
 747	7.4227e+01	10.2767	49.471061	0.000395	3.952117	1.339013	-0.000158
 748	7.4326e+01	10.2302	49.329762	0.000355	3.546771	1.201679	-0.000142
 749	7.4426e+01	10.1917	49.188462	0.000355	3.546771	1.201679	-0.000142
 750	7.4525e+01	10.1580	49.127905	0.000152	1.520045	0.515005	-0.000061
 751	7.4625e+01	10.1131	48.909899	0.000547	5.472161	1.854018	-0.000219
 752	7.4725e+01	10.0762	48.792823	0.000294	2.938753	0.995677	-0.000118
 753	7.4824e+01	10.0361	48.671708	0.000304	3.040090	1.030010	-0.000122
 754	7.4924e+01	9.9928	48.473889	0.000497	4.965480	1.682350	-0.000199
 755	7.5023e+01	9.9607	48.360849	0.000284	2.837417	0.961343	-0.000114
 756	7.5123e+01	9.9029	48.235698	0.000314	3.141426	1.064344	-0.000126
 757	7.5222e+01	9.8773	48.070175	0.000415	4.154789	1.407681	-0.000166
 758	7.5322e+01	9.8420	47.904653	0.000415	4.154789	1.407681	-0.000166
 759	7.5421e+01	9.7858	47.787576	0.000294	2.938753	0.995677	-0.000118
 760	7.5520e+01	9.7537	47.646276	0.000355	3.546771	1.201679	-0.000142
 761	7.5620e+01	9.7136	47.529199	0.000294	2.938753	0.995677	-0.000118
 762	7.5719e+01	9.6719	47.383862	0.000365	3.648108	1.236012	-0.000146
 763	7.5819e+01	9.6334	47.194117	0.000476	4.762807	1.613683	-0.000191
 764	7.5918e+01	9.5933	47.085114	0.000274	2.736081	0.927009	-0.000110
 765	7.6018e+01	9.5516	46.988223	0.000243	2.432072	0.824008	-0.000097
 766	7.6118e+01	9.5147	46.806552	0.000456	4.560135	1.545015	-0.000183
 767	7.6217e+01	9.4746	46.653141	0.000385	3.850780	1.304680	-0.000154
 768	7.6317e+01	9.4361	46.515878	0.000345	3.445435	1.167345	-0.000138
 769	7.6416e+01	9.4024	46.374578	0.000355	3.546771	1.201679	-0.000142
 770	7.6516e+01	9.3511	46.237316	0.000345	3.445435	1.167345	-0.000138
 771	7.6615e+01	9.3062	46.108127	0.000324	3.242762	1.098678	-0.000130
 772	7.6715e+01	9.2725	45.926456	0.000456	4.560135	1.545015	-0.000183
 773	7.6814e+01	9.2356	45.781119	0.000365	3.648108	1.236012	-0.000146
 774	7.6913e+01	9.1939	45.655968	0.000314	3.141426	1.064344	-0.000126
 775	7.7013e+01	9.1570	45.502557	0.000385	3.850780	1.304680	-0.000154
 776	7.7112e+01	9.1136	45.405666	0.000243	2.432072	0.824008	-0.000097
 777	7.7212e+01	9.0703	45.223995	0.000456	4.560135	1.545015	-0.000183
 778	7.7311e+01	9.0527	45.090769	0.000334	3.344099	1.133011	-0.000134
 779	7.7411e+01	8.9997	44.969655	0.000304	3.040090	1.030010	-0.000122
 780	7.7510e+01	8.9628	44.767798	0.000507	5.066816	1.716684	-0.000203
 781	7.7610e+01	8.9179	44.654758	0.000284	2.837417	0.961343	-0.000114
 782	7.7710e+01	8.8891	44.513459	0.000355	3.546771	1.201679	-0.000142
 783	7.7809e+01	8.8361	44.343899	0.000426	4.256126	1.442014	-0.000170
 784	7.7909e+01	8.8008	44.178376	0.000415	4.154789	1.407681	-0.000166
 785	7.8008e+01	8.7559	44.037077	0.000355	3.546771	1.201679	-0.000142
 786	7.8108e+01	8.7206	43.879628	0.000395	3.952117	1.339013	-0.000158
 787	7.8207e+01	8.6709	43.746403	0.000334	3.344099	1.133011	-0.000134
 788	7.8306e+01	8.6372	43.597029	0.000375	3.749444	1.270346	-0.000150
 789	7.8406e+01	8.6035	43.431506	0.000415	4.154789	1.407681	-0.000166
 790	7.8505e+01	8.5618	43.346726	0.000213	2.128063	0.721007	-0.000085
 791	7.8605e+01	8.5185	43.173130	0.000436	4.357462	1.476348	-0.000174
 792	7.8704e+01	8.4800	43.011644	0.000405	4.053453	1.373347	-0.000162
 793	7.8804e+01	8.4351	42.866307	0.000365	3.648108	1.236012	-0.000146
 794	7.8903e+01	8.3966	42.684636	0.000456	4.560135	1.545015	-0.000183
 795	7.9003e+01	8.3613	42.515076	0.000426	4.256126	1.442014	-0.000170
 796	7.9103e+01	8.3163	42.410111	0.000263	2.634744	0.892676	-0.000105
 797	7.9202e+01	8.2794	42.232477	0.000446	4.458798	1.510682	-0.000179
 798	7.9302e+01	8.2361	42.079066	0.000385	3.850780	1.304680	-0.000154
 799	7.9401e+01	8.2008	41.957952	0.000304	3.040090	1.030010	-0.000122
 800	7.9501e+01	8.1575	41.804541	0.000385	3.850780	1.304680	-0.000154
 801	7.9600e+01	8.1190	41.639018	0.000415	4.154789	1.407681	-0.000166
 802	7.9700e+01	8.0741	41.513867	0.000314	3.141426	1.064344	-0.000126
 803	7.9799e+01	8.0372	41.324121	0.000476	4.762807	1.613683	-0.000191
 804	7.9898e+01	8.0003	41.126302	0.000497	4.965480	1.682350	-0.000199
 805	7.9998e+01	7.9666	41.041522	0.000213	2.128063	0.721007	-0.000085
 806	8.0097e+01	7.9201	40.843702	0.000497	4.965480	1.682350	-0.000199
 807	8.0197e+01	7.8784	40.702403	0.000355	3.546771	1.201679	-0.000142
 808	8.0296e+01	7.8447	40.589363	0.000284	2.837417	0.961343	-0.000114
 809	8.0396e+01	7.8014	40.375395	0.000537	5.370825	1.819685	-0.000215
 810	8.0496e+01	7.7645	40.226020	0.000375	3.749444	1.270346	-0.000150
 811	8.0595e+01	7.7196	40.129129	0.000243	2.432072	0.824008	-0.000097
 812	8.0695e+01	7.6698	39.903050	0.000567	5.674834	1.922686	-0.000227
 813	8.0794e+01	7.6458	39.806158	0.000243	2.432072	0.824008	-0.000097
 814	8.0894e+01	7.6057	39.620450	0.000466	4.661471	1.579349	-0.000187
 815	8.0993e+01	7.5672	39.495299	0.000314	3.141426	1.064344	-0.000126
 816	8.1093e+01	7.5222	39.297479	0.000497	4.965480	1.682350	-0.000199
 817	8.1192e+01	7.4837	39.156180	0.000355	3.546771	1.201679	-0.000142
 818	8.1291e+01	7.4436	39.014880	0.000355	3.546771	1.201679	-0.000142
 819	8.1391e+01	7.4003	38.861469	0.000385	3.850780	1.304680	-0.000154
 820	8.1490e+01	7.3602	38.679798	0.000456	4.560135	1.545015	-0.000183
 821	8.1590e+01	7.3201	38.534461	0.000365	3.648108	1.236012	-0.000146
 822	8.1689e+01	7.2800	38.409309	0.000314	3.141426	1.064344	-0.000126
 823	8.1789e+01	7.2624	38.223601	0.000466	4.661471	1.579349	-0.000187
 824	8.1888e+01	7.2030	38.090376	0.000334	3.344099	1.133011	-0.000134
 825	8.1988e+01	7.1677	37.908705	0.000456	4.560135	1.545015	-0.000183
 826	8.2088e+01	7.1212	37.731071	0.000446	4.458798	1.510682	-0.000179
 827	8.2187e+01	7.0811	37.581697	0.000375	3.749444	1.270346	-0.000150
 828	8.2287e+01	7.0474	37.424248	0.000395	3.952117	1.339013	-0.000158
 829	8.2386e+01	7.0025	37.266800	0.000395	3.952117	1.339013	-0.000158
 830	8.2486e+01	6.9720	37.109352	0.000395	3.952117	1.339013	-0.000158
 831	8.2585e+01	6.9158	36.927681	0.000456	4.560135	1.545015	-0.000183
 832	8.2684e+01	6.8790	36.782344	0.000365	3.648108	1.236012	-0.000146
 833	8.2784e+01	6.8421	36.661230	0.000304	3.040090	1.030010	-0.000122
 834	8.2883e+01	6.8116	36.459373	0.000507	5.066816	1.716684	-0.000203
 835	8.2983e+01	6.7618	36.301925	0.000395	3.952117	1.339013	-0.000158
 836	8.3082e+01	6.7265	36.156588	0.000365	3.648108	1.236012	-0.000146
 837	8.3182e+01	6.6816	35.962805	0.000486	4.864143	1.648016	-0.000195
 838	8.3281e+01	6.6463	35.801320	0.000405	4.053453	1.373347	-0.000162
 839	8.3381e+01	6.6014	35.664057	0.000345	3.445435	1.167345	-0.000138
 840	8.3481e+01	6.5597	35.482386	0.000456	4.560135	1.545015	-0.000183
 841	8.3580e+01	6.5340	35.341086	0.000355	3.546771	1.201679	-0.000142
 842	8.3680e+01	6.4891	35.147304	0.000486	4.864143	1.648016	-0.000195
 843	8.3779e+01	6.4490	35.001967	0.000365	3.648108	1.236012	-0.000146
 844	8.3879e+01	6.4025	34.864704	0.000345	3.445435	1.167345	-0.000138
 845	8.3978e+01	6.3672	34.687070	0.000446	4.458798	1.510682	-0.000179
 846	8.4078e+01	6.3175	34.505399	0.000456	4.560135	1.545015	-0.000183
 847	8.4177e+01	6.2854	34.380248	0.000314	3.141426	1.064344	-0.000126
 848	8.4276e+01	6.2517	34.162243	0.000547	5.472161	1.854018	-0.000219
 849	8.4376e+01	6.2036	34.045166	0.000294	2.938753	0.995677	-0.000118
 850	8.4475e+01	6.1731	33.859457	0.000466	4.661471	1.579349	-0.000187
 851	8.4575e+01	6.1282	33.649526	0.000527	5.269489	1.785351	-0.000211
 852	8.4674e+01	6.0865	33.524375	0.000314	3.141426	1.064344	-0.000126
 853	8.4774e+01	6.0464	33.358853	0.000415	4.154789	1.407681	-0.000166
 854	8.4874e+01	6.0127	33.152959	0.000517	5.168152	1.751017	-0.000207
 855	8.4973e+01	5.9694	32.983399	0.000426	4.256126	1.442014	-0.000170
 856	8.5073e+01	5.9357	32.842099	0.000355	3.546771	1.201679	-0.000142
 857	8.5172e+01	5.8827	32.696762	0.000365	3.648108	1.236012	-0.000146
 858	8.5272e+01	5.8458	32.486831	0.000527	5.269489	1.785351	-0.000211
 859	8.5371e+01	5.8153	32.357643	0.000324	3.242762	1.098678	-0.000130
 860	8.5471e+01	5.7688	32.155786	0.000507	5.066816	1.716684	-0.000203
 861	8.5570e+01	5.7303	32.006412	0.000375	3.749444	1.270346	-0.000150
 862	8.5669e+01	5.6918	31.824741	0.000456	4.560135	1.545015	-0.000183
 863	8.5769e+01	5.6421	31.663256	0.000405	4.053453	1.373347	-0.000162
 864	8.5868e+01	5.6020	31.473510	0.000476	4.762807	1.613683	-0.000191
 865	8.5968e+01	5.5747	31.324136	0.000375	3.749444	1.270346	-0.000150
 866	8.6067e+01	5.5282	31.158614	0.000415	4.154789	1.407681	-0.000166
 867	8.6167e+01	5.4913	30.989054	0.000426	4.256126	1.442014	-0.000170
 868	8.6266e+01	5.4528	30.791234	0.000497	4.965480	1.682350	-0.000199
 869	8.6366e+01	5.4159	30.605526	0.000466	4.661471	1.579349	-0.000187
 870	8.6466e+01	5.3726	30.444041	0.000405	4.053453	1.373347	-0.000162
 871	8.6565e+01	5.3453	30.310815	0.000334	3.344099	1.133011	-0.000134
 872	8.6665e+01	5.2843	30.092810	0.000547	5.472161	1.854018	-0.000219
 873	8.6764e+01	5.2571	29.959584	0.000334	3.344099	1.133011	-0.000134
 874	8.6864e+01	5.2089	29.790025	0.000426	4.256126	1.442014	-0.000170
 875	8.6963e+01	5.1801	29.551834	0.000598	5.978843	2.025687	-0.000239
 876	8.7063e+01	5.1384	29.406497	0.000365	3.648108	1.236012	-0.000146
 877	8.7162e+01	5.0902	29.224826	0.000456	4.560135	1.545015	-0.000183
 878	8.7261e+01	5.0549	29.067377	0.000395	3.952117	1.339013	-0.000158
 879	8.7361e+01	5.0164	28.942226	0.000314	3.141426	1.064344	-0.000126
 880	8.7460e+01	4.9731	28.764592	0.000446	4.458798	1.510682	-0.000179
 881	8.7560e+01	4.9330	28.546587	0.000547	5.472161	1.854018	-0.000219
 882	8.7659e+01	4.8849	28.377027	0.000426	4.256126	1.442014	-0.000170
 883	8.7759e+01	4.8480	28.219579	0.000395	3.952117	1.339013	-0.000158
 884	8.7859e+01	4.8111	28.025796	0.000486	4.864143	1.648016	-0.000195
 885	8.7958e+01	4.7726	27.864311	0.000405	4.053453	1.373347	-0.000162
 886	8.8058e+01	4.7357	27.666491	0.000497	4.965480	1.682350	-0.000199
 887	8.8157e+01	4.7004	27.488857	0.000446	4.458798	1.510682	-0.000179
 888	8.8257e+01	4.6555	27.327372	0.000405	4.053453	1.373347	-0.000162
 889	8.8356e+01	4.6074	27.149738	0.000446	4.458798	1.510682	-0.000179
 890	8.8456e+01	4.5721	26.964030	0.000466	4.661471	1.579349	-0.000187
 891	8.8555e+01	4.5271	26.798507	0.000415	4.154789	1.407681	-0.000166
 892	8.8654e+01	4.4902	26.641059	0.000395	3.952117	1.339013	-0.000158
 893	8.8754e+01	4.4614	26.406905	0.000588	5.877507	1.991353	-0.000235
 894	8.8853e+01	4.4181	26.192937	0.000537	5.370825	1.819685	-0.000215
 895	8.8953e+01	4.3683	26.067785	0.000314	3.141426	1.064344	-0.000126
 896	8.9052e+01	4.3330	25.890151	0.000446	4.458798	1.510682	-0.000179
 897	8.9152e+01	4.2897	25.696369	0.000486	4.864143	1.648016	-0.000195
 898	8.9251e+01	4.2657	25.510661	0.000466	4.661471	1.579349	-0.000187
 899	8.9351e+01	4.2143	25.337064	0.000436	4.357462	1.476348	-0.000174
 900	8.9451e+01	4.1694	25.183653	0.000385	3.850780	1.304680	-0.000154
 901	8.9550e+01	4.1357	24.985833	0.000497	4.965480	1.682350	-0.000199
 902	8.9650e+01	4.0972	24.739568	0.000618	6.181516	2.094354	-0.000248
 903	8.9749e+01	4.0555	24.602305	0.000345	3.445435	1.167345	-0.000138
 904	8.9849e+01	4.0170	24.420634	0.000456	4.560135	1.545015	-0.000183
 905	8.9948e+01	3.9705	24.226852	0.000486	4.864143	1.648016	-0.000195
 906	9.0047e+01	3.9320	24.012883	0.000537	5.370825	1.819685	-0.000215
 907	9.0147e+01	3.8999	23.855435	0.000395	3.952117	1.339013	-0.000158
 908	9.0246e+01	3.8566	23.681838	0.000436	4.357462	1.476348	-0.000174
 909	9.0346e+01	3.8181	23.488056	0.000486	4.864143	1.648016	-0.000195
 910	9.0445e+01	3.7780	23.290236	0.000497	4.965480	1.682350	-0.000199
 911	9.0545e+01	3.7411	23.080305	0.000527	5.269489	1.785351	-0.000211
 912	9.0644e+01	3.7042	22.886522	0.000486	4.864143	1.648016	-0.000195
 913	9.0744e+01	3.6577	22.688703	0.000497	4.965480	1.682350	-0.000199
 914	9.0844e+01	3.6143	22.502995	0.000466	4.661471	1.579349	-0.000187
 915	9.0943e+01	3.5742	22.377843	0.000314	3.141426	1.064344	-0.000126
 916	9.1043e+01	3.5438	22.159838	0.000547	5.472161	1.854018	-0.000219
 917	9.1142e+01	3.4972	21.974130	0.000466	4.661471	1.579349	-0.000187
 918	9.1242e+01	3.4555	21.756124	0.000547	5.472161	1.854018	-0.000219
 919	9.1341e+01	3.4218	21.562342	0.000486	4.864143	1.648016	-0.000195
 920	9.1441e+01	3.3817	21.392782	0.000426	4.256126	1.442014	-0.000170
 921	9.1540e+01	3.3400	21.219185	0.000436	4.357462	1.476348	-0.000174
 922	9.1639e+01	3.3031	21.021366	0.000497	4.965480	1.682350	-0.000199
 923	9.1739e+01	3.2630	20.831620	0.000476	4.762807	1.613683	-0.000191
 924	9.1838e+01	3.2213	20.633801	0.000497	4.965480	1.682350	-0.000199
 925	9.1938e+01	3.1764	20.407721	0.000567	5.674834	1.922686	-0.000227
 926	9.2037e+01	3.1379	20.185679	0.000557	5.573498	1.888352	-0.000223
 927	9.2137e+01	3.0994	20.020156	0.000415	4.154789	1.407681	-0.000166
 928	9.2237e+01	3.0609	19.830411	0.000476	4.762807	1.613683	-0.000191
 929	9.2336e+01	3.0192	19.664888	0.000415	4.154789	1.407681	-0.000166
 930	9.2436e+01	2.9823	19.438809	0.000567	5.674834	1.922686	-0.000227
 931	9.2535e+01	2.9486	19.192543	0.000618	6.181516	2.094354	-0.000248
 932	9.2635e+01	2.9101	19.055281	0.000345	3.445435	1.167345	-0.000138
 933	9.2734e+01	2.8555	18.837275	0.000547	5.472161	1.854018	-0.000219
 934	9.2834e+01	2.8186	18.639456	0.000497	4.965480	1.682350	-0.000199
 935	9.2933e+01	2.7849	18.449710	0.000476	4.762807	1.613683	-0.000191
 936	9.3032e+01	2.7400	18.251891	0.000497	4.965480	1.682350	-0.000199
 937	9.3132e+01	2.7144	18.037922	0.000537	5.370825	1.819685	-0.000215
 938	9.3231e+01	2.6646	17.840103	0.000497	4.965480	1.682350	-0.000199
 939	9.3331e+01	2.6213	17.614023	0.000567	5.674834	1.922686	-0.000227
 940	9.3430e+01	2.5908	17.456575	0.000395	3.952117	1.339013	-0.000158
 941	9.3530e+01	2.5427	17.234532	0.000557	5.573498	1.888352	-0.000223
 942	9.3629e+01	2.5074	17.004416	0.000578	5.776170	1.957020	-0.000231
 943	9.3729e+01	2.4705	16.863116	0.000355	3.546771	1.201679	-0.000142
 944	9.3829e+01	2.4256	16.649148	0.000537	5.370825	1.819685	-0.000215
 945	9.3928e+01	2.3743	16.443254	0.000517	5.168152	1.751017	-0.000207
 946	9.4028e+01	2.3502	16.237360	0.000517	5.168152	1.751017	-0.000207
 947	9.4127e+01	2.2957	16.007243	0.000578	5.776170	1.957020	-0.000231
 948	9.4227e+01	2.2668	15.869981	0.000345	3.445435	1.167345	-0.000138
 949	9.4326e+01	2.2251	15.639864	0.000578	5.776170	1.957020	-0.000231
 950	9.4425e+01	2.1866	15.405710	0.000588	5.877507	1.991353	-0.000235
 951	9.4525e+01	2.1433	15.244225	0.000405	4.053453	1.373347	-0.000162
 952	9.4624e+01	2.1064	15.010071	0.000588	5.877507	1.991353	-0.000235
 953	9.4724e+01	2.0534	14.796102	0.000537	5.370825	1.819685	-0.000215
 954	9.4823e+01	2.0342	14.537726	0.000649	6.485525	2.197355	-0.000260
 955	9.4923e+01	1.9860	14.360092	0.000446	4.458798	1.510682	-0.000179
 956	9.5022e+01	1.9411	14.174384	0.000466	4.661471	1.579349	-0.000187
 957	9.5122e+01	1.9010	13.964453	0.000527	5.269489	1.785351	-0.000211
 958	9.5222e+01	1.8673	13.693964	0.000679	6.789534	2.300356	-0.000272
 959	9.5321e+01	1.8240	13.532479	0.000405	4.053453	1.373347	-0.000162
 960	9.5421e+01	1.7839	13.306399	0.000567	5.674834	1.922686	-0.000227
 961	9.5520e+01	1.7470	13.084357	0.000557	5.573498	1.888352	-0.000223
 962	9.5620e+01	1.7133	12.842129	0.000608	6.080179	2.060021	-0.000243
 963	9.5719e+01	1.6620	12.684680	0.000395	3.952117	1.339013	-0.000158
 964	9.5819e+01	1.6315	12.474749	0.000527	5.269489	1.785351	-0.000211
 965	9.5918e+01	1.5754	12.212336	0.000659	6.586861	2.231689	-0.000264
 966	9.6017e+01	1.5465	11.994330	0.000547	5.472161	1.854018	-0.000219
 967	9.6117e+01	1.5080	11.780362	0.000537	5.370825	1.819685	-0.000215
 968	9.6216e+01	1.4743	11.550245	0.000578	5.776170	1.957020	-0.000231
 969	9.6316e+01	1.4181	11.348389	0.000507	5.066816	1.716684	-0.000203
 970	9.6415e+01	1.3812	11.126346	0.000557	5.573498	1.888352	-0.000223
 971	9.6515e+01	1.3427	10.900266	0.000567	5.674834	1.922686	-0.000227
 972	9.6615e+01	1.3074	10.698410	0.000507	5.066816	1.716684	-0.000203
 973	9.6714e+01	1.2673	10.456182	0.000608	6.080179	2.060021	-0.000243
 974	9.6814e+01	1.2240	10.270473	0.000466	4.661471	1.579349	-0.000187
 975	9.6913e+01	1.1855	10.056505	0.000537	5.370825	1.819685	-0.000215
 976	9.7013e+01	1.1502	9.842537	0.000537	5.370825	1.819685	-0.000215
 977	9.7112e+01	1.1133	9.588197	0.000638	6.384188	2.163022	-0.000256
 978	9.7212e+01	1.0684	9.382303	0.000517	5.168152	1.751017	-0.000207
 979	9.7311e+01	1.0203	9.164298	0.000547	5.472161	1.854018	-0.000219
 980	9.7410e+01	0.9802	8.966478	0.000497	4.965480	1.682350	-0.000199
 981	9.7510e+01	0.9369	8.720213	0.000618	6.181516	2.094354	-0.000248
 982	9.7609e+01	0.9048	8.477985	0.000608	6.080179	2.060021	-0.000243
 983	9.7709e+01	0.8711	8.259980	0.000547	5.472161	1.854018	-0.000219
 984	9.7808e+01	0.8278	8.033900	0.000567	5.674834	1.922686	-0.000227
 985	9.7908e+01	0.7813	7.840118	0.000486	4.864143	1.648016	-0.000195
 986	9.8007e+01	0.7476	7.573667	0.000669	6.688197	2.266023	-0.000268
 987	9.8107e+01	0.7123	7.351624	0.000557	5.573498	1.888352	-0.000223
 988	9.8207e+01	0.6658	7.173990	0.000446	4.458798	1.510682	-0.000179
 989	9.8306e+01	0.6208	6.903502	0.000679	6.789534	2.300356	-0.000272
 990	9.8406e+01	0.5839	6.697608	0.000517	5.168152	1.751017	-0.000207
 991	9.8505e+01	0.5406	6.451343	0.000618	6.181516	2.094354	-0.000248
 992	9.8605e+01	0.5150	6.249486	0.000507	5.066816	1.716684	-0.000203
 993	9.8704e+01	0.4684	6.051666	0.000497	4.965480	1.682350	-0.000199
 994	9.8803e+01	0.4331	5.821550	0.000578	5.776170	1.957020	-0.000231
 995	9.8903e+01	0.3850	5.547025	0.000689	6.890870	2.334690	-0.000276
 996	9.9002e+01	0.3513	5.341131	0.000517	5.168152	1.751017	-0.000207
 997	9.9102e+01	0.3096	5.123125	0.000547	5.472161	1.854018	-0.000219
 998	9.9201e+01	0.2663	4.893009	0.000578	5.776170	1.957020	-0.000231
 999	9.9301e+01	0.2326	4.658855	0.000588	5.877507	1.991353	-0.000235
1000	9.9400e+01	0.1877	4.408552	0.000628	6.282852	2.128688	-0.000252
1001	9.9500e+01	0.1508	4.210733	0.000497	4.965480	1.682350	-0.000199
1002	9.9600e+01	0.1091	3.952356	0.000649	6.485525	2.197355	-0.000260
1003	9.9699e+01	0.0722	3.750499	0.000507	5.066816	1.716684	-0.000203
1004	9.9799e+01	0.0305	3.524419	0.000567	5.674834	1.922686	-0.000227
1005	9.9898e+01	-0.0032	3.338711	0.000466	4.661471	1.579349	-0.000187
1006	9.9998e+01	-0.0385	3.084372	0.000638	6.384188	2.163022	-0.000256
1007	1.0010e+02	-0.0930	2.882515	0.000507	5.066816	1.716684	-0.000203
1008	1.0020e+02	-0.1235	2.620101	0.000659	6.586861	2.231689	-0.000264
1009	1.0030e+02	-0.1588	2.394021	0.000567	5.674834	1.922686	-0.000227
1010	1.0040e+02	-0.2118	2.171979	0.000557	5.573498	1.888352	-0.000223
1011	1.0050e+02	-0.2326	1.941862	0.000578	5.776170	1.957020	-0.000231
1012	1.0059e+02	-0.2711	1.707708	0.000588	5.877507	1.991353	-0.000235
1013	1.0069e+02	-0.3257	1.445295	0.000659	6.586861	2.231689	-0.000264
1014	1.0079e+02	-0.3561	1.247475	0.000497	4.965480	1.682350	-0.000199
1015	1.0089e+02	-0.3962	0.989098	0.000649	6.485525	2.197355	-0.000260
1016	1.0099e+02	-0.4476	0.775130	0.000537	5.370825	1.819685	-0.000215
1017	1.0109e+02	-0.4813	0.557125	0.000547	5.472161	1.854018	-0.000219
1018	1.0119e+02	-0.5166	0.266451	0.000730	7.296215	2.472025	-0.000292
1019	1.0129e+02	-0.5535	0.076706	0.000476	4.762807	1.613683	-0.000191
1020	1.0139e+02	-0.5968	-0.193783	0.000679	6.789534	2.300356	-0.000272
1021	1.0149e+02	-0.6353	-0.411788	0.000547	5.472161	1.854018	-0.000219
1022	1.0159e+02	-0.6770	-0.633830	0.000557	5.573498	1.888352	-0.000223
1023	1.0169e+02	-0.7171	-0.851836	0.000547	5.472161	1.854018	-0.000219
1024	1.0179e+02	-0.7588	-1.098101	0.000618	6.181516	2.094354	-0.000248
1025	1.0189e+02	-0.7957	-1.336292	0.000598	5.978843	2.025687	-0.000239
1026	1.0199e+02	-0.8358	-1.570446	0.000588	5.877507	1.991353	-0.000235
1027	1.0209e+02	-0.8759	-1.800563	0.000578	5.776170	1.957020	-0.000231
1028	1.0219e+02	-0.9240	-2.067013	0.000669	6.688197	2.266023	-0.000268
1029	1.0229e+02	-0.9657	-2.272907	0.000517	5.168152	1.751017	-0.000207
1030	1.0239e+02	-0.9962	-2.523210	0.000628	6.282852	2.128688	-0.000252
1031	1.0248e+02	-1.0379	-2.777549	0.000638	6.384188	2.163022	-0.000256
1032	1.0258e+02	-1.0780	-2.939035	0.000405	4.053453	1.373347	-0.000162
1033	1.0268e+02	-1.1149	-3.173189	0.000588	5.877507	1.991353	-0.000235
1034	1.0278e+02	-1.1518	-3.455788	0.000709	7.093543	2.403357	-0.000284
1035	1.0288e+02	-1.2048	-3.661682	0.000517	5.168152	1.751017	-0.000207
1036	1.0298e+02	-1.2353	-3.883725	0.000557	5.573498	1.888352	-0.000223
1037	1.0308e+02	-1.2850	-4.162287	0.000699	6.992206	2.369024	-0.000280
1038	1.0318e+02	-1.3123	-4.380292	0.000547	5.472161	1.854018	-0.000219
1039	1.0328e+02	-1.3604	-4.614446	0.000588	5.877507	1.991353	-0.000235
1040	1.0338e+02	-1.3909	-4.832451	0.000547	5.472161	1.854018	-0.000219
1041	1.0348e+02	-1.4342	-5.038345	0.000517	5.168152	1.751017	-0.000207
1042	1.0358e+02	-1.4663	-5.280574	0.000608	6.080179	2.060021	-0.000243
1043	1.0368e+02	-1.5112	-5.530876	0.000628	6.282852	2.128688	-0.000252
1044	1.0378e+02	-1.5513	-5.744844	0.000537	5.370825	1.819685	-0.000215
1045	1.0388e+02	-1.5946	-5.934590	0.000476	4.762807	1.613683	-0.000191
1046	1.0398e+02	-1.6411	-6.164706	0.000578	5.776170	1.957020	-0.000231
1047	1.0408e+02	-1.6764	-6.427120	0.000659	6.586861	2.231689	-0.000264
1048	1.0418e+02	-1.7181	-6.637051	0.000527	5.269489	1.785351	-0.000211
1049	1.0428e+02	-1.7566	-6.814685	0.000446	4.458798	1.510682	-0.000179
1050	1.0438e+02	-1.7967	-7.056913	0.000608	6.080179	2.060021	-0.000243
1051	1.0447e+02	-1.8352	-7.315290	0.000649	6.485525	2.197355	-0.000260
1052	1.0457e+02	-1.8641	-7.549444	0.000588	5.877507	1.991353	-0.000235
1053	1.0467e+02	-1.9122	-7.731115	0.000456	4.560135	1.545015	-0.000183
1054	1.0477e+02	-1.9572	-7.985454	0.000638	6.384188	2.163022	-0.000256
1055	1.0487e+02	-1.9925	-8.235757	0.000628	6.282852	2.128688	-0.000252
1056	1.0497e+02	-2.0358	-8.433577	0.000497	4.965480	1.682350	-0.000199
1057	1.0507e+02	-2.0679	-8.687916	0.000638	6.384188	2.163022	-0.000256
1058	1.0517e+02	-2.1160	-8.877661	0.000476	4.762807	1.613683	-0.000191
1059	1.0527e+02	-2.1577	-9.087593	0.000527	5.269489	1.785351	-0.000211
1060	1.0537e+02	-2.2026	-9.285412	0.000497	4.965480	1.682350	-0.000199
1061	1.0547e+02	-2.2379	-9.523603	0.000598	5.978843	2.025687	-0.000239
1062	1.0557e+02	-2.2780	-9.753720	0.000578	5.776170	1.957020	-0.000231
1063	1.0567e+02	-2.3197	-9.987874	0.000588	5.877507	1.991353	-0.000235
1064	1.0577e+02	-2.3502	-10.217991	0.000578	5.776170	1.957020	-0.000231
1065	1.0587e+02	-2.3983	-10.419847	0.000507	5.066816	1.716684	-0.000203
1066	1.0597e+02	-2.4336	-10.670150	0.000628	6.282852	2.128688	-0.000252
1067	1.0607e+02	-2.4641	-10.855858	0.000466	4.661471	1.579349	-0.000187
1068	1.0617e+02	-2.5122	-11.065789	0.000527	5.269489	1.785351	-0.000211
1069	1.0627e+02	-2.5475	-11.279757	0.000537	5.370825	1.819685	-0.000215
1070	1.0637e+02	-2.5860	-11.501800	0.000557	5.573498	1.888352	-0.000223
1071	1.0647e+02	-2.6277	-11.695582	0.000486	4.864143	1.648016	-0.000195
1072	1.0656e+02	-2.6678	-11.941848	0.000618	6.181516	2.094354	-0.000248
1073	1.0666e+02	-2.7063	-12.176001	0.000588	5.877507	1.991353	-0.000235
1074	1.0676e+02	-2.7641	-12.381895	0.000517	5.168152	1.751017	-0.000207
1075	1.0686e+02	-2.7898	-12.579715	0.000497	4.965480	1.682350	-0.000199
1076	1.0696e+02	-2.8299	-12.781572	0.000507	5.066816	1.716684	-0.000203
1077	1.0706e+02	-2.8716	-13.027837	0.000618	6.181516	2.094354	-0.000248
1078	1.0716e+02	-2.9133	-13.213545	0.000466	4.661471	1.579349	-0.000187
1079	1.0726e+02	-2.9550	-13.447699	0.000588	5.877507	1.991353	-0.000235
1080	1.0736e+02	-2.9919	-13.629370	0.000456	4.560135	1.545015	-0.000183
1081	1.0746e+02	-3.0272	-13.863524	0.000588	5.877507	1.991353	-0.000235
1082	1.0756e+02	-3.0753	-14.029047	0.000415	4.154789	1.407681	-0.000166
1083	1.0766e+02	-3.1170	-14.271275	0.000608	6.080179	2.060021	-0.000243
1084	1.0776e+02	-3.1491	-14.477169	0.000517	5.168152	1.751017	-0.000207
1085	1.0786e+02	-3.1908	-14.703248	0.000567	5.674834	1.922686	-0.000227
1086	1.0796e+02	-3.2325	-14.888957	0.000466	4.661471	1.579349	-0.000187
1087	1.0806e+02	-3.2726	-15.131185	0.000608	6.080179	2.060021	-0.000243
1088	1.0816e+02	-3.3047	-15.288633	0.000395	3.952117	1.339013	-0.000158
1089	1.0826e+02	-3.3545	-15.526824	0.000598	5.978843	2.025687	-0.000239
1090	1.0836e+02	-3.3881	-15.724644	0.000497	4.965480	1.682350	-0.000199
1091	1.0845e+02	-3.4234	-15.918426	0.000486	4.864143	1.648016	-0.000195
1092	1.0855e+02	-3.4635	-16.124320	0.000517	5.168152	1.751017	-0.000207
1093	1.0865e+02	-3.5069	-16.318103	0.000486	4.864143	1.648016	-0.000195
1094	1.0875e+02	-3.5405	-16.515922	0.000497	4.965480	1.682350	-0.000199
1095	1.0885e+02	-3.5839	-16.733928	0.000547	5.472161	1.854018	-0.000219
1096	1.0895e+02	-3.6272	-16.951933	0.000547	5.472161	1.854018	-0.000219
1097	1.0905e+02	-3.6721	-17.157827	0.000517	5.168152	1.751017	-0.000207
1098	1.0915e+02	-3.7122	-17.319312	0.000405	4.053453	1.373347	-0.000162
1099	1.0925e+02	-3.7427	-17.561540	0.000608	6.080179	2.060021	-0.000243
1100	1.0935e+02	-3.7860	-17.747249	0.000466	4.661471	1.579349	-0.000187
1101	1.0945e+02	-3.8293	-17.936994	0.000476	4.762807	1.613683	-0.000191
1102	1.0955e+02	-3.8662	-18.126739	0.000476	4.762807	1.613683	-0.000191
1103	1.0965e+02	-3.9047	-18.340708	0.000537	5.370825	1.819685	-0.000215
1104	1.0975e+02	-3.9368	-18.526416	0.000466	4.661471	1.579349	-0.000187
1105	1.0985e+02	-3.9913	-18.764607	0.000598	5.978843	2.025687	-0.000239
1106	1.0995e+02	-4.0266	-18.913981	0.000375	3.749444	1.270346	-0.000150
1107	1.1005e+02	-4.0587	-19.111801	0.000497	4.965480	1.682350	-0.000199
1108	1.1015e+02	-4.1116	-19.277323	0.000415	4.154789	1.407681	-0.000166
1109	1.1025e+02	-4.1534	-19.511477	0.000588	5.877507	1.991353	-0.000235
1110	1.1035e+02	-4.1822	-19.705260	0.000486	4.864143	1.648016	-0.000195
1111	1.1044e+02	-4.2191	-19.882894	0.000446	4.458798	1.510682	-0.000179
1112	1.1054e+02	-4.2705	-20.088787	0.000517	5.168152	1.751017	-0.000207
1113	1.1064e+02	-4.3009	-20.306793	0.000547	5.472161	1.854018	-0.000219
1114	1.1074e+02	-4.3475	-20.480390	0.000436	4.357462	1.476348	-0.000174
1115	1.1084e+02	-4.3796	-20.649949	0.000426	4.256126	1.442014	-0.000170
1116	1.1094e+02	-4.4293	-20.863917	0.000537	5.370825	1.819685	-0.000215
1117	1.1104e+02	-4.4646	-21.061737	0.000497	4.965480	1.682350	-0.000199
1118	1.1114e+02	-4.4999	-21.207074	0.000365	3.648108	1.236012	-0.000146
1119	1.1124e+02	-4.5384	-21.396819	0.000476	4.762807	1.613683	-0.000191
1120	1.1134e+02	-4.5865	-21.602713	0.000517	5.168152	1.751017	-0.000207
1121	1.1144e+02	-4.6218	-21.756124	0.000385	3.850780	1.304680	-0.000154
1122	1.1154e+02	-4.6619	-22.030650	0.000689	6.890870	2.334690	-0.000276
1123	1.1164e+02	-4.7052	-22.171949	0.000355	3.546771	1.201679	-0.000142
1124	1.1174e+02	-4.7566	-22.377843	0.000517	5.168152	1.751017	-0.000207
1125	1.1184e+02	-4.7934	-22.571626	0.000486	4.864143	1.648016	-0.000195
1126	1.1194e+02	-4.8223	-22.729074	0.000395	3.952117	1.339013	-0.000158
1127	1.1204e+02	-4.8640	-22.951117	0.000557	5.573498	1.888352	-0.000223
1128	1.1214e+02	-4.9057	-23.173159	0.000557	5.573498	1.888352	-0.000223
1129	1.1224e+02	-4.9458	-23.322533	0.000375	3.749444	1.270346	-0.000150
1130	1.1234e+02	-4.9876	-23.512279	0.000476	4.762807	1.613683	-0.000191
1131	1.1244e+02	-5.0212	-23.661653	0.000375	3.749444	1.270346	-0.000150
1132	1.1253e+02	-5.0630	-23.891769	0.000578	5.776170	1.957020	-0.000231
1133	1.1263e+02	-5.1031	-24.089589	0.000497	4.965480	1.682350	-0.000199
1134	1.1273e+02	-5.1464	-24.214740	0.000314	3.141426	1.064344	-0.000126
1135	1.1283e+02	-5.1865	-24.469080	0.000638	6.384188	2.163022	-0.000256
1136	1.1293e+02	-5.2234	-24.561934	0.000233	2.330735	0.789675	-0.000093
1137	1.1303e+02	-5.2587	-24.804162	0.000608	6.080179	2.060021	-0.000243
1138	1.1313e+02	-5.2892	-25.030242	0.000567	5.674834	1.922686	-0.000227
1139	1.1323e+02	-5.3389	-25.155393	0.000314	3.141426	1.064344	-0.000126
1140	1.1333e+02	-5.3726	-25.316878	0.000405	4.053453	1.373347	-0.000162
1141	1.1343e+02	-5.4207	-25.518735	0.000507	5.066816	1.716684	-0.000203
1142	1.1353e+02	-5.4576	-25.716555	0.000497	4.965480	1.682350	-0.000199
1143	1.1363e+02	-5.4993	-25.874003	0.000395	3.952117	1.339013	-0.000158
1144	1.1373e+02	-5.5330	-26.047600	0.000436	4.357462	1.476348	-0.000174
1145	1.1383e+02	-5.5843	-26.273679	0.000567	5.674834	1.922686	-0.000227
1146	1.1393e+02	-5.6180	-26.410942	0.000345	3.445435	1.167345	-0.000138
1147	1.1403e+02	-5.6517	-26.612799	0.000507	5.066816	1.716684	-0.000203
1148	1.1413e+02	-5.6918	-26.778321	0.000415	4.154789	1.407681	-0.000166
1149	1.1423e+02	-5.7399	-26.935770	0.000395	3.952117	1.339013	-0.000158
1150	1.1433e+02	-5.7768	-27.133589	0.000497	4.965480	1.682350	-0.000199
1151	1.1442e+02	-5.8218	-27.347557	0.000537	5.370825	1.819685	-0.000215
1152	1.1452e+02	-5.8554	-27.484820	0.000345	3.445435	1.167345	-0.000138
1153	1.1462e+02	-5.8940	-27.646306	0.000405	4.053453	1.373347	-0.000162
1154	1.1472e+02	-5.9421	-27.803754	0.000395	3.952117	1.339013	-0.000158
1155	1.1482e+02	-5.9822	-28.017722	0.000537	5.370825	1.819685	-0.000215
1156	1.1492e+02	-6.0159	-28.215542	0.000497	4.965480	1.682350	-0.000199
1157	1.1502e+02	-6.0624	-28.381064	0.000415	4.154789	1.407681	-0.000166
1158	1.1512e+02	-6.0993	-28.562735	0.000456	4.560135	1.545015	-0.000183
1159	1.1522e+02	-6.1394	-28.720184	0.000395	3.952117	1.339013	-0.000158
1160	1.1532e+02	-6.1779	-28.873595	0.000385	3.850780	1.304680	-0.000154
1161	1.1542e+02	-6.2180	-29.075452	0.000507	5.066816	1.716684	-0.000203
1162	1.1552e+02	-6.2581	-29.249048	0.000436	4.357462	1.476348	-0.000174
1163	1.1562e+02	-6.2966	-29.434757	0.000466	4.661471	1.579349	-0.000187
1164	1.1572e+02	-6.3351	-29.572019	0.000345	3.445435	1.167345	-0.000138
1165	1.1582e+02	-6.3848	-29.745616	0.000436	4.357462	1.476348	-0.000174
1166	1.1592e+02	-6.4217	-29.935361	0.000476	4.762807	1.613683	-0.000191
1167	1.1602e+02	-6.4586	-30.092810	0.000395	3.952117	1.339013	-0.000158
1168	1.1612e+02	-6.4891	-30.262369	0.000426	4.256126	1.442014	-0.000170
1169	1.1622e+02	-6.5372	-30.407706	0.000365	3.648108	1.236012	-0.000146
1170	1.1632e+02	-6.5741	-30.605526	0.000497	4.965480	1.682350	-0.000199
1171	1.1642e+02	-6.6126	-30.734714	0.000324	3.242762	1.098678	-0.000130
1172	1.1651e+02	-6.6463	-30.928497	0.000486	4.864143	1.648016	-0.000195
1173	1.1661e+02	-6.6897	-31.114205	0.000466	4.661471	1.579349	-0.000187
1174	1.1671e+02	-6.7346	-31.275691	0.000405	4.053453	1.373347	-0.000162
1175	1.1681e+02	-6.7731	-31.465436	0.000476	4.762807	1.613683	-0.000191
1176	1.1691e+02	-6.8116	-31.626921	0.000405	4.053453	1.373347	-0.000162
1177	1.1701e+02	-6.8501	-31.752073	0.000314	3.141426	1.064344	-0.000126
1178	1.1711e+02	-6.8918	-31.913558	0.000405	4.053453	1.373347	-0.000162
1179	1.1721e+02	-6.9319	-32.095229	0.000456	4.560135	1.545015	-0.000183
1180	1.1731e+02	-6.9704	-32.264789	0.000426	4.256126	1.442014	-0.000170
1181	1.1741e+02	-7.0073	-32.446460	0.000456	4.560135	1.545015	-0.000183
1182	1.1751e+02	-7.0506	-32.587760	0.000355	3.546771	1.201679	-0.000142
1183	1.1761e+02	-7.0939	-32.769431	0.000456	4.560135	1.545015	-0.000183
1184	1.1771e+02	-7.1308	-32.930916	0.000405	4.053453	1.373347	-0.000162
1185	1.1781e+02	-7.1677	-33.096439	0.000415	4.154789	1.407681	-0.000166
1186	1.1791e+02	-7.2207	-33.270036	0.000436	4.357462	1.476348	-0.000174
1187	1.1801e+02	-7.2543	-33.447670	0.000446	4.458798	1.510682	-0.000179
1188	1.1811e+02	-7.2928	-33.629341	0.000456	4.560135	1.545015	-0.000183
1189	1.1821e+02	-7.3394	-33.730269	0.000253	2.533408	0.858342	-0.000101
1190	1.1831e+02	-7.3682	-33.924052	0.000486	4.864143	1.648016	-0.000195
1191	1.1841e+02	-7.4148	-34.109760	0.000466	4.661471	1.579349	-0.000187
1192	1.1850e+02	-7.4436	-34.267208	0.000395	3.952117	1.339013	-0.000158
1193	1.1860e+02	-7.4918	-34.412545	0.000365	3.648108	1.236012	-0.000146
1194	1.1870e+02	-7.5351	-34.574030	0.000405	4.053453	1.373347	-0.000162
1195	1.1880e+02	-7.5672	-34.723404	0.000375	3.749444	1.270346	-0.000150
1196	1.1890e+02	-7.6089	-34.905076	0.000456	4.560135	1.545015	-0.000183
1197	1.1900e+02	-7.6538	-35.054450	0.000375	3.749444	1.270346	-0.000150
1198	1.1910e+02	-7.6971	-35.224009	0.000426	4.256126	1.442014	-0.000170
1199	1.1920e+02	-7.7292	-35.429903	0.000517	5.168152	1.751017	-0.000207
1200	1.1930e+02	-7.7645	-35.546980	0.000294	2.938753	0.995677	-0.000118
1201	1.1940e+02	-7.8094	-35.720577	0.000436	4.357462	1.476348	-0.000174
1202	1.1950e+02	-7.8495	-35.910322	0.000476	4.762807	1.613683	-0.000191
1203	1.1960e+02	-7.8928	-36.035474	0.000314	3.141426	1.064344	-0.000126
1204	1.1970e+02	-7.9249	-36.176773	0.000355	3.546771	1.201679	-0.000142
1205	1.1980e+02	-7.9666	-36.382667	0.000517	5.168152	1.751017	-0.000207
1206	1.1990e+02	-8.0019	-36.511856	0.000324	3.242762	1.098678	-0.000130
1207	1.2000e+02	-8.0468	-36.681415	0.000426	4.256126	1.442014	-0.000170
1208	1.2010e+02	-8.0805	-36.842901	0.000405	4.053453	1.373347	-0.000162
1209	1.2020e+02	-8.1222	-36.976126	0.000334	3.344099	1.133011	-0.000134
1210	1.2030e+02	-8.1704	-37.097240	0.000304	3.040090	1.030010	-0.000122
1211	1.2039e+02	-8.2008	-37.319283	0.000557	5.573498	1.888352	-0.000223
1212	1.2049e+02	-8.2506	-37.444434	0.000314	3.141426	1.064344	-0.000126
1213	1.2059e+02	-8.2859	-37.557474	0.000284	2.837417	0.961343	-0.000114
1214	1.2069e+02	-8.3308	-37.759331	0.000507	5.066816	1.716684	-0.000203
1215	1.2079e+02	-8.3661	-37.904667	0.000365	3.648108	1.236012	-0.000146
1216	1.2089e+02	-8.4142	-38.102487	0.000497	4.965480	1.682350	-0.000199
1217	1.2099e+02	-8.4495	-38.219564	0.000294	2.938753	0.995677	-0.000118
1218	1.2109e+02	-8.4784	-38.364901	0.000365	3.648108	1.236012	-0.000146
1219	1.2119e+02	-8.5249	-38.510238	0.000365	3.648108	1.236012	-0.000146
1220	1.2129e+02	-8.5666	-38.712095	0.000507	5.066816	1.716684	-0.000203
1221	1.2139e+02	-8.6115	-38.829172	0.000294	2.938753	0.995677	-0.000118
1222	1.2149e+02	-8.6452	-38.986620	0.000395	3.952117	1.339013	-0.000158
1223	1.2159e+02	-8.6853	-39.164254	0.000446	4.458798	1.510682	-0.000179
1224	1.2169e+02	-8.7254	-39.313628	0.000375	3.749444	1.270346	-0.000150
1225	1.2179e+02	-8.7591	-39.426668	0.000284	2.837417	0.961343	-0.000114
1226	1.2189e+02	-8.7912	-39.608339	0.000456	4.560135	1.545015	-0.000183
1227	1.2199e+02	-8.8441	-39.765787	0.000395	3.952117	1.339013	-0.000158
1228	1.2209e+02	-8.8923	-39.915161	0.000375	3.749444	1.270346	-0.000150
1229	1.2219e+02	-8.9211	-40.044349	0.000324	3.242762	1.098678	-0.000130
1230	1.2229e+02	-8.9612	-40.201798	0.000395	3.952117	1.339013	-0.000158
1231	1.2239e+02	-9.0062	-40.355209	0.000385	3.850780	1.304680	-0.000154
1232	1.2248e+02	-9.0463	-40.508620	0.000385	3.850780	1.304680	-0.000154
1233	1.2258e+02	-9.0816	-40.649920	0.000355	3.546771	1.201679	-0.000142
1234	1.2268e+02	-9.1249	-40.803331	0.000385	3.850780	1.304680	-0.000154
1235	1.2278e+02	-9.1634	-40.964816	0.000405	4.053453	1.373347	-0.000162
1236	1.2288e+02	-9.2051	-41.094005	0.000324	3.242762	1.098678	-0.000130
1237	1.2298e+02	-9.2420	-41.279713	0.000466	4.661471	1.579349	-0.000187
1238	1.2308e+02	-9.2757	-41.429087	0.000375	3.749444	1.270346	-0.000150
1239	1.2318e+02	-9.3286	-41.578461	0.000375	3.749444	1.270346	-0.000150
1240	1.2328e+02	-9.3703	-41.743984	0.000415	4.154789	1.407681	-0.000166
1241	1.2338e+02	-9.4136	-41.889320	0.000365	3.648108	1.236012	-0.000146
1242	1.2348e+02	-9.4425	-41.986212	0.000243	2.432072	0.824008	-0.000097
1243	1.2358e+02	-9.4858	-42.184031	0.000497	4.965480	1.682350	-0.000199
1244	1.2368e+02	-9.5243	-42.252663	0.000172	1.722717	0.583672	-0.000069
1245	1.2378e+02	-9.5596	-42.462594	0.000527	5.269489	1.785351	-0.000211
1246	1.2388e+02	-9.6110	-42.620042	0.000395	3.952117	1.339013	-0.000158
1247	1.2398e+02	-9.6463	-42.781527	0.000405	4.053453	1.373347	-0.000162
1248	1.2408e+02	-9.6864	-42.918790	0.000345	3.445435	1.167345	-0.000138
1249	1.2418e+02	-9.7200	-43.052016	0.000334	3.344099	1.133011	-0.000134
1250	1.2428e+02	-9.7553	-43.185241	0.000334	3.344099	1.133011	-0.000134
1251	1.2438e+02	-9.7987	-43.354801	0.000426	4.256126	1.442014	-0.000170
1252	1.2447e+02	-9.8404	-43.463803	0.000274	2.736081	0.927009	-0.000110
1253	1.2457e+02	-9.8821	-43.673734	0.000527	5.269489	1.785351	-0.000211
1254	1.2467e+02	-9.9238	-43.774663	0.000253	2.533408	0.858342	-0.000101
1255	1.2477e+02	-9.9639	-43.891740	0.000294	2.938753	0.995677	-0.000118
1256	1.2487e+02	-9.9992	-44.077448	0.000466	4.661471	1.579349	-0.000187
1257	1.2497e+02	-10.0377	-44.251045	0.000436	4.357462	1.476348	-0.000174
1258	1.2507e+02	-10.0794	-44.368122	0.000294	2.938753	0.995677	-0.000118
1259	1.2517e+02	-10.1291	-44.505384	0.000345	3.445435	1.167345	-0.000138
1260	1.2527e+02	-10.1548	-44.678981	0.000436	4.357462	1.476348	-0.000174
1261	1.2537e+02	-10.2174	-44.783947	0.000263	2.634744	0.892676	-0.000105
1262	1.2547e+02	-10.2382	-44.949469	0.000415	4.154789	1.407681	-0.000166
1263	1.2557e+02	-10.2799	-45.119029	0.000426	4.256126	1.442014	-0.000170
1264	1.2567e+02	-10.3216	-45.260329	0.000355	3.546771	1.201679	-0.000142
1265	1.2577e+02	-10.3601	-45.373369	0.000284	2.837417	0.961343	-0.000114
1266	1.2587e+02	-10.3954	-45.583300	0.000527	5.269489	1.785351	-0.000211
1267	1.2597e+02	-10.4371	-45.688265	0.000263	2.634744	0.892676	-0.000105
1268	1.2607e+02	-10.4788	-45.829565	0.000355	3.546771	1.201679	-0.000142
1269	1.2617e+02	-10.5174	-45.966828	0.000345	3.445435	1.167345	-0.000138
1270	1.2627e+02	-10.5607	-46.100053	0.000334	3.344099	1.133011	-0.000134
1271	1.2636e+02	-10.6008	-46.249427	0.000375	3.749444	1.270346	-0.000150
1272	1.2646e+02	-10.6425	-46.358430	0.000274	2.736081	0.927009	-0.000110
1273	1.2656e+02	-10.6730	-46.532027	0.000436	4.357462	1.476348	-0.000174
1274	1.2666e+02	-10.7163	-46.701586	0.000426	4.256126	1.442014	-0.000170
1275	1.2676e+02	-10.7484	-46.826737	0.000314	3.141426	1.064344	-0.000126
1276	1.2686e+02	-10.8045	-46.955926	0.000324	3.242762	1.098678	-0.000130
1277	1.2696e+02	-10.8398	-47.121448	0.000415	4.154789	1.407681	-0.000166
1278	1.2706e+02	-10.8735	-47.258711	0.000345	3.445435	1.167345	-0.000138
1279	1.2716e+02	-10.9184	-47.371751	0.000284	2.837417	0.961343	-0.000114
1280	1.2726e+02	-10.9617	-47.533236	0.000405	4.053453	1.373347	-0.000162
1281	1.2736e+02	-10.9954	-47.678573	0.000365	3.648108	1.236012	-0.000146
1282	1.2746e+02	-11.0419	-47.819873	0.000355	3.546771	1.201679	-0.000142
1283	1.2756e+02	-11.0788	-47.949061	0.000324	3.242762	1.098678	-0.000130
1284	1.2766e+02	-11.1141	-48.082287	0.000334	3.344099	1.133011	-0.000134
1285	1.2776e+02	-11.1574	-48.247809	0.000415	4.154789	1.407681	-0.000166
1286	1.2786e+02	-11.2024	-48.389109	0.000355	3.546771	1.201679	-0.000142
1287	1.2796e+02	-11.2409	-48.522334	0.000334	3.344099	1.133011	-0.000134
1288	1.2806e+02	-11.2745	-48.687857	0.000415	4.154789	1.407681	-0.000166
1289	1.2816e+02	-11.3179	-48.817045	0.000324	3.242762	1.098678	-0.000130
1290	1.2826e+02	-11.3596	-48.974494	0.000395	3.952117	1.339013	-0.000158
1291	1.2835e+02	-11.3868	-49.091571	0.000294	2.938753	0.995677	-0.000118
1292	1.2845e+02	-11.4446	-49.265167	0.000436	4.357462	1.476348	-0.000174
1293	1.2855e+02	-11.4767	-49.382244	0.000294	2.938753	0.995677	-0.000118
1294	1.2865e+02	-11.5168	-49.539693	0.000395	3.952117	1.339013	-0.000158
1295	1.2875e+02	-11.5649	-49.644658	0.000263	2.634744	0.892676	-0.000105
1296	1.2885e+02	-11.5922	-49.802106	0.000395	3.952117	1.339013	-0.000158
1297	1.2895e+02	-11.6419	-49.955518	0.000385	3.850780	1.304680	-0.000154
1298	1.2905e+02	-11.6836	-50.104892	0.000375	3.749444	1.270346	-0.000150
1299	1.2915e+02	-11.7093	-50.209857	0.000263	2.634744	0.892676	-0.000105
1300	1.2925e+02	-11.7574	-50.343083	0.000334	3.344099	1.133011	-0.000134
1301	1.2935e+02	-11.8007	-50.452085	0.000274	2.736081	0.927009	-0.000110
1302	1.2945e+02	-11.8376	-50.613571	0.000405	4.053453	1.373347	-0.000162
1303	1.2955e+02	-11.8729	-50.783130	0.000426	4.256126	1.442014	-0.000170
1304	1.2965e+02	-11.9211	-50.932504	0.000375	3.749444	1.270346	-0.000150
1305	1.2975e+02	-11.9531	-51.057656	0.000314	3.141426	1.064344	-0.000126
1306	1.2985e+02	-11.9981	-51.166658	0.000274	2.736081	0.927009	-0.000110
1307	1.2995e+02	-12.0350	-51.324107	0.000395	3.952117	1.339013	-0.000158
1308	1.3005e+02	-12.0735	-51.465406	0.000355	3.546771	1.201679	-0.000142
1309	1.3015e+02	-12.1104	-51.602669	0.000345	3.445435	1.167345	-0.000138
1310	1.3025e+02	-12.1505	-51.735894	0.000334	3.344099	1.133011	-0.000134
1311	1.3034e+02	-12.1954	-51.881231	0.000365	3.648108	1.236012	-0.000146
1312	1.3044e+02	-12.2403	-52.014457	0.000334	3.344099	1.133011	-0.000134
1313	1.3054e+02	-12.2708	-52.184017	0.000426	4.256126	1.442014	-0.000170
1314	1.3064e+02	-12.3125	-52.317242	0.000334	3.344099	1.133011	-0.000134
1315	1.3074e+02	-12.3606	-52.478727	0.000405	4.053453	1.373347	-0.000162
1316	1.3084e+02	-12.3911	-52.587730	0.000274	2.736081	0.927009	-0.000110
1317	1.3094e+02	-12.4312	-52.729030	0.000355	3.546771	1.201679	-0.000142
1318	1.3104e+02	-12.4681	-52.870330	0.000355	3.546771	1.201679	-0.000142
1319	1.3114e+02	-12.5114	-52.991444	0.000304	3.040090	1.030010	-0.000122
1320	1.3124e+02	-12.5531	-53.124669	0.000334	3.344099	1.133011	-0.000134
1321	1.3134e+02	-12.5932	-53.265969	0.000355	3.546771	1.201679	-0.000142
1322	1.3144e+02	-12.6301	-53.370934	0.000263	2.634744	0.892676	-0.000105
1323	1.3154e+02	-12.6622	-53.528383	0.000395	3.952117	1.339013	-0.000158
1324	1.3164e+02	-12.7135	-53.673720	0.000365	3.648108	1.236012	-0.000146
1325	1.3174e+02	-12.7537	-53.786759	0.000284	2.837417	0.961343	-0.000114
1326	1.3184e+02	-12.7841	-53.911911	0.000314	3.141426	1.064344	-0.000126
1327	1.3194e+02	-12.8242	-54.045136	0.000334	3.344099	1.133011	-0.000134
1328	1.3204e+02	-12.8627	-54.218733	0.000436	4.357462	1.476348	-0.000174
1329	1.3214e+02	-12.9189	-54.323698	0.000263	2.634744	0.892676	-0.000105
1330	1.3224e+02	-12.9478	-54.473073	0.000375	3.749444	1.270346	-0.000150
1331	1.3234e+02	-12.9831	-54.638595	0.000415	4.154789	1.407681	-0.000166
1332	1.3243e+02	-13.0280	-54.743561	0.000263	2.634744	0.892676	-0.000105
1333	1.3253e+02	-13.0713	-54.888897	0.000365	3.648108	1.236012	-0.000146
1334	1.3263e+02	-13.1114	-55.010012	0.000304	3.040090	1.030010	-0.000122
1335	1.3273e+02	-13.1435	-55.110940	0.000253	2.533408	0.858342	-0.000101
1336	1.3283e+02	-13.1868	-55.300685	0.000476	4.762807	1.613683	-0.000191
1337	1.3293e+02	-13.2333	-55.433911	0.000334	3.344099	1.133011	-0.000134
1338	1.3303e+02	-13.2686	-55.538876	0.000263	2.634744	0.892676	-0.000105
1339	1.3313e+02	-13.3055	-55.716510	0.000446	4.458798	1.510682	-0.000179
1340	1.3323e+02	-13.3536	-55.817439	0.000253	2.533408	0.858342	-0.000101
1341	1.3333e+02	-13.3889	-55.970850	0.000385	3.850780	1.304680	-0.000154
1342	1.3343e+02	-13.4274	-56.120224	0.000375	3.749444	1.270346	-0.000150
1343	1.3353e+02	-13.4707	-56.200967	0.000203	2.026726	0.686674	-0.000081
1344	1.3363e+02	-13.5076	-56.362452	0.000405	4.053453	1.373347	-0.000162
1345	1.3373e+02	-13.5381	-56.487603	0.000314	3.141426	1.064344	-0.000126
1346	1.3383e+02	-13.5895	-56.649089	0.000405	4.053453	1.373347	-0.000162
1347	1.3393e+02	-13.6264	-56.737906	0.000223	2.229399	0.755341	-0.000089
1348	1.3403e+02	-13.6600	-56.871131	0.000334	3.344099	1.133011	-0.000134
1349	1.3413e+02	-13.7066	-57.008394	0.000345	3.445435	1.167345	-0.000138
1350	1.3423e+02	-13.7451	-57.129508	0.000304	3.040090	1.030010	-0.000122
1351	1.3432e+02	-13.7900	-57.266770	0.000345	3.445435	1.167345	-0.000138
1352	1.3442e+02	-13.8221	-57.399996	0.000334	3.344099	1.133011	-0.000134
1353	1.3452e+02	-13.8670	-57.521110	0.000304	3.040090	1.030010	-0.000122
1354	1.3462e+02	-13.9071	-57.642224	0.000304	3.040090	1.030010	-0.000122
1355	1.3472e+02	-13.9440	-57.815821	0.000436	4.357462	1.476348	-0.000174
1356	1.3482e+02	-13.9793	-57.904638	0.000223	2.229399	0.755341	-0.000089
1357	1.3492e+02	-14.0226	-58.054012	0.000375	3.749444	1.270346	-0.000150
1358	1.3502e+02	-14.0595	-58.215497	0.000405	4.053453	1.373347	-0.000162
1359	1.3512e+02	-14.1108	-58.356797	0.000355	3.546771	1.201679	-0.000142
1360	1.3522e+02	-14.1477	-58.481948	0.000314	3.141426	1.064344	-0.000126
1361	1.3532e+02	-14.1862	-58.631322	0.000375	3.749444	1.270346	-0.000150
1362	1.3542e+02	-14.2279	-58.744362	0.000284	2.837417	0.961343	-0.000114
1363	1.3552e+02	-14.2729	-58.837216	0.000233	2.330735	0.789675	-0.000093
1364	1.3562e+02	-14.3065	-58.966405	0.000324	3.242762	1.098678	-0.000130
1365	1.3572e+02	-14.3434	-59.140001	0.000436	4.357462	1.476348	-0.000174
1366	1.3582e+02	-14.3787	-59.257078	0.000294	2.938753	0.995677	-0.000118
1367	1.3592e+02	-14.4269	-59.349932	0.000233	2.330735	0.789675	-0.000093
1368	1.3602e+02	-14.4622	-59.559864	0.000527	5.269489	1.785351	-0.000211
1369	1.3612e+02	-14.5071	-59.660792	0.000253	2.533408	0.858342	-0.000101
1370	1.3622e+02	-14.5360	-59.806129	0.000365	3.648108	1.236012	-0.000146
1371	1.3631e+02	-14.5793	-59.862649	0.000142	1.418709	0.480671	-0.000057
1372	1.3641e+02	-14.6146	-60.007986	0.000365	3.648108	1.236012	-0.000146
1373	1.3651e+02	-14.6611	-60.165434	0.000395	3.952117	1.339013	-0.000158
1374	1.3661e+02	-14.6948	-60.310771	0.000365	3.648108	1.236012	-0.000146
1375	1.3671e+02	-14.7365	-60.431885	0.000304	3.040090	1.030010	-0.000122
1376	1.3681e+02	-14.7862	-60.532813	0.000253	2.533408	0.858342	-0.000101
1377	1.3691e+02	-14.8135	-60.657964	0.000314	3.141426	1.064344	-0.000126
1378	1.3701e+02	-14.8600	-60.811376	0.000385	3.850780	1.304680	-0.000154
1379	1.3711e+02	-14.8953	-60.916341	0.000263	2.634744	0.892676	-0.000105
1380	1.3721e+02	-14.9322	-61.065715	0.000375	3.749444	1.270346	-0.000150
1381	1.3731e+02	-14.9803	-61.166644	0.000253	2.533408	0.858342	-0.000101
1382	1.3741e+02	-15.0140	-61.291795	0.000314	3.141426	1.064344	-0.000126
1383	1.3751e+02	-15.0654	-61.425020	0.000334	3.344099	1.133011	-0.000134
1384	1.3761e+02	-15.0974	-61.594580	0.000426	4.256126	1.442014	-0.000170
1385	1.3771e+02	-15.1375	-61.675323	0.000203	2.026726	0.686674	-0.000081
1386	1.3781e+02	-15.1744	-61.796437	0.000304	3.040090	1.030010	-0.000122
1387	1.3791e+02	-15.2178	-61.965996	0.000426	4.256126	1.442014	-0.000170
1388	1.3801e+02	-15.2691	-62.074999	0.000274	2.736081	0.927009	-0.000110
1389	1.3811e+02	-15.2932	-62.196113	0.000304	3.040090	1.030010	-0.000122
1390	1.3821e+02	-15.3413	-62.313190	0.000294	2.938753	0.995677	-0.000118
1391	1.3831e+02	-15.3750	-62.438341	0.000314	3.141426	1.064344	-0.000126
1392	1.3840e+02	-15.4151	-62.611938	0.000436	4.357462	1.476348	-0.000174
1393	1.3850e+02	-15.4536	-62.684607	0.000182	1.824054	0.618006	-0.000073
1394	1.3860e+02	-15.5001	-62.866278	0.000456	4.560135	1.545015	-0.000183
1395	1.3870e+02	-15.5322	-62.991429	0.000314	3.141426	1.064344	-0.000126
1396	1.3880e+02	-15.5819	-63.108506	0.000294	2.938753	0.995677	-0.000118
1397	1.3890e+02	-15.6204	-63.205397	0.000243	2.432072	0.824008	-0.000097
1398	1.3900e+02	-15.6541	-63.326511	0.000304	3.040090	1.030010	-0.000122
1399	1.3910e+02	-15.7022	-63.479922	0.000385	3.850780	1.304680	-0.000154
1400	1.3920e+02	-15.7439	-63.621222	0.000355	3.546771	1.201679	-0.000142
1401	1.3930e+02	-15.7808	-63.762522	0.000355	3.546771	1.201679	-0.000142
1402	1.3940e+02	-15.8129	-63.863450	0.000253	2.533408	0.858342	-0.000101
1403	1.3950e+02	-15.8562	-63.960341	0.000243	2.432072	0.824008	-0.000097
1404	1.3960e+02	-15.8899	-64.137975	0.000446	4.458798	1.510682	-0.000179
1405	1.3970e+02	-15.9445	-64.226792	0.000223	2.229399	0.755341	-0.000089
1406	1.3980e+02	-15.9782	-64.380204	0.000385	3.850780	1.304680	-0.000154
1407	1.3990e+02	-16.0231	-64.497281	0.000294	2.938753	0.995677	-0.000118
1408	1.4000e+02	-16.0552	-64.634543	0.000345	3.445435	1.167345	-0.000138
1409	1.4010e+02	-16.0921	-64.743546	0.000274	2.736081	0.927009	-0.000110
1410	1.4020e+02	-16.1370	-64.856586	0.000284	2.837417	0.961343	-0.000114
1411	1.4029e+02	-16.1819	-64.989811	0.000334	3.344099	1.133011	-0.000134
1412	1.4039e+02	-16.2108	-65.139185	0.000375	3.749444	1.270346	-0.000150
1413	1.4049e+02	-16.2493	-65.268373	0.000324	3.242762	1.098678	-0.000130
1414	1.4059e+02	-16.3070	-65.349116	0.000203	2.026726	0.686674	-0.000081
1415	1.4069e+02	-16.3359	-65.522713	0.000436	4.357462	1.476348	-0.000174
1416	1.4079e+02	-16.3792	-65.639790	0.000294	2.938753	0.995677	-0.000118
1417	1.4089e+02	-16.4097	-65.732644	0.000233	2.330735	0.789675	-0.000093
1418	1.4099e+02	-16.4498	-65.938538	0.000517	5.168152	1.751017	-0.000207
1419	1.4109e+02	-16.4947	-65.986984	0.000122	1.216036	0.412004	-0.000049
1420	1.4119e+02	-16.5348	-66.136358	0.000375	3.749444	1.270346	-0.000150
1421	1.4129e+02	-16.5653	-66.289769	0.000385	3.850780	1.304680	-0.000154
1422	1.4139e+02	-16.6086	-66.439143	0.000375	3.749444	1.270346	-0.000150
1423	1.4149e+02	-16.6503	-66.523923	0.000213	2.128063	0.721007	-0.000085
1424	1.4159e+02	-16.6953	-66.697520	0.000436	4.357462	1.476348	-0.000174
1425	1.4169e+02	-16.7305	-66.786337	0.000223	2.229399	0.755341	-0.000089
1426	1.4179e+02	-16.7755	-66.911488	0.000314	3.141426	1.064344	-0.000126
1427	1.4189e+02	-16.8108	-67.016453	0.000263	2.634744	0.892676	-0.000105
1428	1.4199e+02	-16.8573	-67.181976	0.000415	4.154789	1.407681	-0.000166
1429	1.4209e+02	-16.8910	-67.278867	0.000243	2.432072	0.824008	-0.000097
1430	1.4219e+02	-16.9359	-67.420167	0.000355	3.546771	1.201679	-0.000142
1431	1.4228e+02	-16.9776	-67.549355	0.000324	3.242762	1.098678	-0.000130
1432	1.4238e+02	-17.0129	-67.706803	0.000395	3.952117	1.339013	-0.000158
1433	1.4248e+02	-17.0498	-67.831955	0.000314	3.141426	1.064344	-0.000126
1434	1.4258e+02	-17.0899	-67.924809	0.000233	2.330735	0.789675	-0.000093
1435	1.4268e+02	-17.1380	-68.102443	0.000446	4.458798	1.510682	-0.000179
1436	1.4278e+02	-17.1685	-68.239705	0.000345	3.445435	1.167345	-0.000138
1437	1.4288e+02	-17.2182	-68.320448	0.000203	2.026726	0.686674	-0.000081
1438	1.4298e+02	-17.2471	-68.457711	0.000345	3.445435	1.167345	-0.000138
1439	1.4308e+02	-17.2936	-68.615159	0.000395	3.952117	1.339013	-0.000158
1440	1.4318e+02	-17.3402	-68.699939	0.000213	2.128063	0.721007	-0.000085
1441	1.4328e+02	-17.3738	-68.881610	0.000456	4.560135	1.545015	-0.000183
1442	1.4338e+02	-17.4059	-68.921981	0.000101	1.013363	0.343337	-0.000041
1443	1.4348e+02	-17.4701	-69.087504	0.000415	4.154789	1.407681	-0.000166
1444	1.4358e+02	-17.4990	-69.216692	0.000324	3.242762	1.098678	-0.000130
1445	1.4368e+02	-17.5278	-69.345881	0.000324	3.242762	1.098678	-0.000130
1446	1.4378e+02	-17.5760	-69.511403	0.000415	4.154789	1.407681	-0.000166
1447	1.4388e+02	-17.6129	-69.628480	0.000294	2.938753	0.995677	-0.000118
1448	1.4398e+02	-17.6466	-69.745557	0.000294	2.938753	0.995677	-0.000118
1449	1.4408e+02	-17.6867	-69.903005	0.000395	3.952117	1.339013	-0.000158
1450	1.4418e+02	-17.7316	-70.012008	0.000274	2.736081	0.927009	-0.000110
1451	1.4428e+02	-17.7781	-70.157345	0.000365	3.648108	1.236012	-0.000146
1452	1.4437e+02	-17.8102	-70.278459	0.000304	3.040090	1.030010	-0.000122
1453	1.4447e+02	-17.8439	-70.468204	0.000476	4.762807	1.613683	-0.000191
1454	1.4457e+02	-17.8872	-70.512613	0.000111	1.114700	0.377670	-0.000045
1455	1.4467e+02	-17.9337	-70.661987	0.000375	3.749444	1.270346	-0.000150
1456	1.4477e+02	-17.9626	-70.815398	0.000385	3.850780	1.304680	-0.000154
1457	1.4487e+02	-18.0091	-70.960735	0.000365	3.648108	1.236012	-0.000146
1458	1.4497e+02	-18.0524	-71.073775	0.000284	2.837417	0.961343	-0.000114
1459	1.4507e+02	-18.0893	-71.207000	0.000334	3.344099	1.133011	-0.000134
1460	1.4517e+02	-18.1278	-71.328114	0.000304	3.040090	1.030010	-0.000122
1461	1.4527e+02	-18.1727	-71.477488	0.000375	3.749444	1.270346	-0.000150
1462	1.4537e+02	-18.2096	-71.614751	0.000345	3.445435	1.167345	-0.000138
1463	1.4547e+02	-18.2449	-71.772199	0.000395	3.952117	1.339013	-0.000158
1464	1.4557e+02	-18.2899	-71.881202	0.000274	2.736081	0.927009	-0.000110
1465	1.4567e+02	-18.3316	-71.994242	0.000284	2.837417	0.961343	-0.000114
1466	1.4577e+02	-18.3637	-72.155727	0.000405	4.053453	1.373347	-0.000162
1467	1.4587e+02	-18.4054	-72.280878	0.000314	3.141426	1.064344	-0.000126
1468	1.4597e+02	-18.4455	-72.446401	0.000415	4.154789	1.407681	-0.000166
1469	1.4607e+02	-18.4888	-72.543292	0.000243	2.432072	0.824008	-0.000097
1470	1.4617e+02	-18.5257	-72.708815	0.000415	4.154789	1.407681	-0.000166
1471	1.4626e+02	-18.5690	-72.842040	0.000334	3.344099	1.133011	-0.000134
1472	1.4636e+02	-18.6107	-72.991414	0.000375	3.749444	1.270346	-0.000150
1473	1.4646e+02	-18.6428	-73.104454	0.000284	2.837417	0.961343	-0.000114
1474	1.4656e+02	-18.6813	-73.229605	0.000314	3.141426	1.064344	-0.000126
1475	1.4666e+02	-18.7326	-73.370905	0.000355	3.546771	1.201679	-0.000142
1476	1.4676e+02	-18.7663	-73.512205	0.000355	3.546771	1.201679	-0.000142
1477	1.4686e+02	-18.8016	-73.645430	0.000334	3.344099	1.133011	-0.000134
1478	1.4696e+02	-18.8337	-73.798841	0.000385	3.850780	1.304680	-0.000154
1479	1.4706e+02	-18.8834	-73.964364	0.000415	4.154789	1.407681	-0.000166
1480	1.4716e+02	-18.9187	-74.125849	0.000405	4.053453	1.373347	-0.000162
1481	1.4726e+02	-18.9701	-74.218703	0.000233	2.330735	0.789675	-0.000093
1482	1.4736e+02	-19.0134	-74.388263	0.000426	4.256126	1.442014	-0.000170
1483	1.4746e+02	-19.0438	-74.485154	0.000243	2.432072	0.824008	-0.000097
1484	1.4756e+02	-19.0856	-74.618380	0.000334	3.344099	1.133011	-0.000134
1485	1.4766e+02	-19.1305	-74.767754	0.000375	3.749444	1.270346	-0.000150
1486	1.4776e+02	-19.1706	-74.949425	0.000456	4.560135	1.545015	-0.000183
1487	1.4786e+02	-19.1946	-75.038242	0.000223	2.229399	0.755341	-0.000089
1488	1.4796e+02	-19.2524	-75.179542	0.000355	3.546771	1.201679	-0.000142
1489	1.4806e+02	-19.2909	-75.357176	0.000446	4.458798	1.510682	-0.000179
1490	1.4816e+02	-19.3198	-75.490401	0.000334	3.344099	1.133011	-0.000134
1491	1.4825e+02	-19.3615	-75.603441	0.000284	2.837417	0.961343	-0.000114
1492	1.4835e+02	-19.4128	-75.740704	0.000345	3.445435	1.167345	-0.000138
1493	1.4845e+02	-19.4385	-75.918338	0.000446	4.458798	1.510682	-0.000179
1494	1.4855e+02	-19.4834	-76.051563	0.000334	3.344099	1.133011	-0.000134
1495	1.4865e+02	-19.5139	-76.152491	0.000253	2.533408	0.858342	-0.000101
1496	1.4875e+02	-19.5668	-76.330125	0.000446	4.458798	1.510682	-0.000179
1497	1.4885e+02	-19.5973	-76.511797	0.000456	4.560135	1.545015	-0.000183
1498	1.4895e+02	-19.6422	-76.624836	0.000284	2.837417	0.961343	-0.000114
1499	1.4905e+02	-19.6887	-76.822656	0.000497	4.965480	1.682350	-0.000199
1500	1.4915e+02	-19.7160	-76.939733	0.000294	2.938753	0.995677	-0.000118
1501	1.4925e+02	-19.7577	-77.137553	0.000497	4.965480	1.682350	-0.000199
1502	1.4935e+02	-19.7978	-77.222332	0.000213	2.128063	0.721007	-0.000085
1503	1.4945e+02	-19.8347	-77.391892	0.000426	4.256126	1.442014	-0.000170
1504	1.4955e+02	-19.8829	-77.549340	0.000395	3.952117	1.339013	-0.000158
1505	1.4965e+02	-19.9214	-77.678529	0.000324	3.242762	1.098678	-0.000130
1506	1.4975e+02	-19.9631	-77.831940	0.000385	3.850780	1.304680	-0.000154
1507	1.4985e+02	-20.0048	-77.977277	0.000365	3.648108	1.236012	-0.000146
1508	1.4995e+02	-19.9567	-77.932868	0.000111	1.114700	0.377670	0.000045
1509	1.5005e+02	-19.9182	-77.876348	0.000142	1.418709	0.480671	0.000057
1510	1.5015e+02	-19.8813	-77.848088	0.000071	0.709354	0.240336	0.000028
1511	1.5025e+02	-19.8428	-77.803680	0.000111	1.114700	0.377670	0.000045
1512	1.5034e+02	-19.8026	-77.735049	0.000172	1.722717	0.583672	0.000069
1513	1.5044e+02	-19.7658	-77.646232	0.000223	2.229399	0.755341	0.000089
1514	1.5054e+02	-19.7112	-77.613935	0.000081	0.810691	0.274669	0.000032
1515	1.5064e+02	-19.6743	-77.504932	0.000274	2.736081	0.927009	0.000110
1516	1.5074e+02	-19.6406	-77.525118	-0.000051	-0.506682	-0.171668	-0.000020
1517	1.5084e+02	-19.6005	-77.444375	0.000203	2.026726	0.686674	0.000081
1518	1.5094e+02	-19.5572	-77.339409	0.000263	2.634744	0.892676	0.000105
1519	1.5104e+02	-19.5251	-77.323261	0.000041	0.405345	0.137335	0.000016
1520	1.5114e+02	-19.4834	-77.198110	0.000314	3.141426	1.064344	0.000126
1521	1.5124e+02	-19.4465	-77.157738	0.000101	1.013363	0.343337	0.000041
1522	1.5134e+02	-19.3952	-77.085070	0.000182	1.824054	0.618006	0.000073
1523	1.5144e+02	-19.3615	-77.060847	0.000061	0.608018	0.206002	0.000024
1524	1.5154e+02	-19.3262	-76.947807	0.000284	2.837417	0.961343	0.000114
1525	1.5164e+02	-19.2845	-76.895324	0.000132	1.317372	0.446338	0.000053
1526	1.5174e+02	-19.2380	-76.766136	0.000324	3.242762	1.098678	0.000130
1527	1.5184e+02	-19.2059	-76.770173	-0.000010	-0.101336	-0.034334	-0.000004
1528	1.5194e+02	-19.1690	-76.673282	0.000243	2.432072	0.824008	0.000097
1529	1.5204e+02	-19.1257	-76.616762	0.000142	1.418709	0.480671	0.000057
1530	1.5214e+02	-19.0888	-76.511797	0.000263	2.634744	0.892676	0.000105
1531	1.5224e+02	-19.0487	-76.459314	0.000132	1.317372	0.446338	0.000053
1532	1.5233e+02	-19.0086	-76.358385	0.000253	2.533408	0.858342	0.000101
1533	1.5243e+02	-18.9652	-76.338200	0.000051	0.506682	0.171668	0.000020
1534	1.5253e+02	-18.9203	-76.221123	0.000294	2.938753	0.995677	0.000118
1535	1.5263e+02	-18.8866	-76.160566	0.000152	1.520045	0.515005	0.000061
1536	1.5273e+02	-18.8513	-76.055600	0.000263	2.634744	0.892676	0.000105
1537	1.5283e+02	-18.8048	-75.954672	0.000253	2.533408	0.858342	0.000101
1538	1.5293e+02	-18.7647	-75.882003	0.000182	1.824054	0.618006	0.000073
1539	1.5303e+02	-18.7278	-75.797223	0.000213	2.128063	0.721007	0.000085
1540	1.5313e+02	-18.6941	-75.716481	0.000203	2.026726	0.686674	0.000081
1541	1.5323e+02	-18.6460	-75.643812	0.000182	1.824054	0.618006	0.000073
1542	1.5333e+02	-18.6027	-75.542884	0.000253	2.533408	0.858342	0.000101
1543	1.5343e+02	-18.5626	-75.470215	0.000182	1.824054	0.618006	0.000073
1544	1.5353e+02	-18.5241	-75.389473	0.000203	2.026726	0.686674	0.000081
1545	1.5363e+02	-18.4808	-75.280470	0.000274	2.736081	0.927009	0.000110
1546	1.5373e+02	-18.4519	-75.223950	0.000142	1.418709	0.480671	0.000057
1547	1.5383e+02	-18.4006	-75.114948	0.000274	2.736081	0.927009	0.000110
1548	1.5393e+02	-18.3717	-75.018056	0.000243	2.432072	0.824008	0.000097
1549	1.5403e+02	-18.3268	-74.969611	0.000122	1.216036	0.412004	0.000049
1550	1.5413e+02	-18.2963	-74.860608	0.000274	2.736081	0.927009	0.000110
1551	1.5422e+02	-18.2385	-74.755642	0.000263	2.634744	0.892676	0.000105
1552	1.5432e+02	-18.2129	-74.642603	0.000284	2.837417	0.961343	0.000114
1553	1.5442e+02	-18.1744	-74.582046	0.000152	1.520045	0.515005	0.000061
1554	1.5452e+02	-18.1262	-74.464969	0.000294	2.938753	0.995677	0.000118
1555	1.5462e+02	-18.0909	-74.392300	0.000182	1.824054	0.618006	0.000073
1556	1.5472e+02	-18.0380	-74.275223	0.000294	2.938753	0.995677	0.000118
1557	1.5482e+02	-18.0107	-74.210629	0.000162	1.621381	0.549339	0.000065
1558	1.5492e+02	-17.9610	-74.105664	0.000263	2.634744	0.892676	0.000105
1559	1.5502e+02	-17.9257	-74.045107	0.000152	1.520045	0.515005	0.000061
1560	1.5512e+02	-17.8920	-73.899770	0.000365	3.648108	1.236012	0.000146
1561	1.5522e+02	-17.8471	-73.831138	0.000172	1.722717	0.583672	0.000069
1562	1.5532e+02	-17.7942	-73.734247	0.000243	2.432072	0.824008	0.000097
1563	1.5542e+02	-17.7765	-73.661579	0.000182	1.824054	0.618006	0.000073
1564	1.5552e+02	-17.7412	-73.572762	0.000223	2.229399	0.755341	0.000089
1565	1.5562e+02	-17.6899	-73.479908	0.000233	2.330735	0.789675	0.000093
1566	1.5572e+02	-17.6562	-73.370905	0.000274	2.736081	0.927009	0.000110
1567	1.5582e+02	-17.6097	-73.265939	0.000263	2.634744	0.892676	0.000105
1568	1.5592e+02	-17.5680	-73.140788	0.000314	3.141426	1.064344	0.000126
1569	1.5602e+02	-17.5343	-73.112528	0.000071	0.709354	0.240336	0.000028
1570	1.5612e+02	-17.4926	-73.031786	0.000203	2.026726	0.686674	0.000081
1571	1.5622e+02	-17.4557	-72.854152	0.000446	4.458798	1.510682	0.000179
1572	1.5631e+02	-17.4139	-72.805706	0.000122	1.216036	0.412004	0.000049
1573	1.5641e+02	-17.3642	-72.704778	0.000253	2.533408	0.858342	0.000101
1574	1.5651e+02	-17.3305	-72.611923	0.000233	2.330735	0.789675	0.000093
1575	1.5661e+02	-17.2984	-72.506958	0.000263	2.634744	0.892676	0.000105
1576	1.5671e+02	-17.2519	-72.389881	0.000294	2.938753	0.995677	0.000118
1577	1.5681e+02	-17.2150	-72.333361	0.000142	1.418709	0.480671	0.000057
1578	1.5691e+02	-17.1685	-72.240507	0.000233	2.330735	0.789675	0.000093
1579	1.5701e+02	-17.1268	-72.127467	0.000284	2.837417	0.961343	0.000114
1580	1.5711e+02	-17.1011	-72.022502	0.000263	2.634744	0.892676	0.000105
1581	1.5721e+02	-17.0418	-71.941759	0.000203	2.026726	0.686674	0.000081
1582	1.5731e+02	-17.0113	-71.836793	0.000263	2.634744	0.892676	0.000105
1583	1.5741e+02	-16.9664	-71.739902	0.000243	2.432072	0.824008	0.000097
1584	1.5751e+02	-16.9407	-71.622825	0.000294	2.938753	0.995677	0.000118
1585	1.5761e+02	-16.8862	-71.550157	0.000182	1.824054	0.618006	0.000073
1586	1.5771e+02	-16.8557	-71.400783	0.000375	3.749444	1.270346	0.000150
1587	1.5781e+02	-16.8075	-71.348300	0.000132	1.317372	0.446338	0.000053
1588	1.5791e+02	-16.7610	-71.211037	0.000345	3.445435	1.167345	0.000138
1589	1.5801e+02	-16.7338	-71.138369	0.000182	1.824054	0.618006	0.000073
1590	1.5811e+02	-16.6904	-71.057626	0.000203	2.026726	0.686674	0.000081
1591	1.5821e+02	-16.6535	-70.928438	0.000324	3.242762	1.098678	0.000130
1592	1.5830e+02	-16.6150	-70.855769	0.000182	1.824054	0.618006	0.000073
1593	1.5840e+02	-16.5749	-70.762915	0.000233	2.330735	0.789675	0.000093
1594	1.5850e+02	-16.5316	-70.670061	0.000233	2.330735	0.789675	0.000093
1595	1.5860e+02	-16.4979	-70.557021	0.000284	2.837417	0.961343	0.000114
1596	1.5870e+02	-16.4610	-70.431870	0.000314	3.141426	1.064344	0.000126
1597	1.5880e+02	-16.4129	-70.367276	0.000162	1.621381	0.549339	0.000065
1598	1.5890e+02	-16.3696	-70.225976	0.000355	3.546771	1.201679	0.000142
1599	1.5900e+02	-16.3391	-70.088714	0.000345	3.445435	1.167345	0.000138
1600	1.5910e+02	-16.3022	-70.040268	0.000122	1.216036	0.412004	0.000049
1601	1.5920e+02	-16.2525	-69.943377	0.000243	2.432072	0.824008	0.000097
1602	1.5930e+02	-16.2108	-69.842448	0.000253	2.533408	0.858342	0.000101
1603	1.5940e+02	-16.1787	-69.753631	0.000223	2.229399	0.755341	0.000089
1604	1.5950e+02	-16.1386	-69.608294	0.000365	3.648108	1.236012	0.000146
1605	1.5960e+02	-16.0985	-69.547737	0.000152	1.520045	0.515005	0.000061
1606	1.5970e+02	-16.0536	-69.442772	0.000263	2.634744	0.892676	0.000105
1607	1.5980e+02	-16.0183	-69.325695	0.000294	2.938753	0.995677	0.000118
1608	1.5990e+02	-15.9750	-69.216692	0.000274	2.736081	0.927009	0.000110
1609	1.6000e+02	-15.9332	-69.152098	0.000162	1.621381	0.549339	0.000065
1610	1.6010e+02	-15.8915	-68.958316	0.000486	4.864143	1.648016	0.000195
1611	1.6019e+02	-15.8643	-68.889684	0.000172	1.722717	0.583672	0.000069
1612	1.6029e+02	-15.8177	-68.796830	0.000233	2.330735	0.789675	0.000093
1613	1.6039e+02	-15.7824	-68.699939	0.000243	2.432072	0.824008	0.000097
1614	1.6049e+02	-15.7375	-68.574788	0.000314	3.141426	1.064344	0.000126
1615	1.6059e+02	-15.6974	-68.494045	0.000203	2.026726	0.686674	0.000081
1616	1.6069e+02	-15.6557	-68.401191	0.000233	2.330735	0.789675	0.000093
1617	1.6079e+02	-15.6188	-68.296225	0.000263	2.634744	0.892676	0.000105
1618	1.6089e+02	-15.5739	-68.167037	0.000324	3.242762	1.098678	0.000130
1619	1.6099e+02	-15.5514	-68.062071	0.000263	2.634744	0.892676	0.000105
1620	1.6109e+02	-15.5001	-67.953069	0.000274	2.736081	0.927009	0.000110
1621	1.6119e+02	-15.4568	-67.884437	0.000172	1.722717	0.583672	0.000069
1622	1.6129e+02	-15.4151	-67.763323	0.000304	3.040090	1.030010	0.000122
1623	1.6139e+02	-15.3830	-67.630098	0.000334	3.344099	1.133011	0.000134
1624	1.6149e+02	-15.3317	-67.537244	0.000233	2.330735	0.789675	0.000093
1625	1.6159e+02	-15.2932	-67.440353	0.000243	2.432072	0.824008	0.000097
1626	1.6169e+02	-15.2514	-67.371721	0.000172	1.722717	0.583672	0.000069
1627	1.6179e+02	-15.2258	-67.250607	0.000304	3.040090	1.030010	0.000122
1628	1.6189e+02	-15.1793	-67.125456	0.000314	3.141426	1.064344	0.000126
1629	1.6199e+02	-15.1407	-67.004342	0.000304	3.040090	1.030010	0.000122
1630	1.6209e+02	-15.1071	-66.911488	0.000233	2.330735	0.789675	0.000093
1631	1.6219e+02	-15.0589	-66.838819	0.000182	1.824054	0.618006	0.000073
1632	1.6228e+02	-15.0236	-66.693482	0.000365	3.648108	1.236012	0.000146
1633	1.6238e+02	-14.9851	-66.616777	0.000193	1.925390	0.652340	0.000077
1634	1.6248e+02	-14.9370	-66.471440	0.000365	3.648108	1.236012	0.000146
1635	1.6258e+02	-14.9017	-66.386660	0.000213	2.128063	0.721007	0.000085
1636	1.6268e+02	-14.8616	-66.309954	0.000193	1.925390	0.652340	0.000077
1637	1.6278e+02	-14.8199	-66.188840	0.000304	3.040090	1.030010	0.000122
1638	1.6288e+02	-14.7750	-66.047541	0.000355	3.546771	1.201679	0.000142
1639	1.6298e+02	-14.7445	-65.966798	0.000203	2.026726	0.686674	0.000081
1640	1.6308e+02	-14.6980	-65.857795	0.000274	2.736081	0.927009	0.000110
1641	1.6318e+02	-14.6659	-65.768978	0.000223	2.229399	0.755341	0.000089
1642	1.6328e+02	-14.6178	-65.635753	0.000334	3.344099	1.133011	0.000134
1643	1.6338e+02	-14.5809	-65.526750	0.000274	2.736081	0.927009	0.000110
1644	1.6348e+02	-14.5424	-65.437933	0.000223	2.229399	0.755341	0.000089
1645	1.6358e+02	-14.5071	-65.300671	0.000345	3.445435	1.167345	0.000138
1646	1.6368e+02	-14.4606	-65.187631	0.000284	2.837417	0.961343	0.000114
1647	1.6378e+02	-14.4204	-65.114962	0.000182	1.824054	0.618006	0.000073
1648	1.6388e+02	-14.3771	-64.985774	0.000324	3.242762	1.098678	0.000130
1649	1.6398e+02	-14.3418	-64.884846	0.000253	2.533408	0.858342	0.000101
1650	1.6408e+02	-14.3065	-64.743546	0.000355	3.546771	1.201679	0.000142
1651	1.6418e+02	-14.2680	-64.682989	0.000152	1.520045	0.515005	0.000061
1652	1.6427e+02	-14.2199	-64.557838	0.000314	3.141426	1.064344	0.000126
1653	1.6437e+02	-14.1878	-64.469021	0.000223	2.229399	0.755341	0.000089
1654	1.6447e+02	-14.1461	-64.335795	0.000334	3.344099	1.133011	0.000134
1655	1.6457e+02	-14.1108	-64.238904	0.000243	2.432072	0.824008	0.000097
1656	1.6467e+02	-14.0531	-64.117790	0.000304	3.040090	1.030010	0.000122
1657	1.6477e+02	-14.0210	-64.024936	0.000233	2.330735	0.789675	0.000093
1658	1.6487e+02	-13.9793	-63.915933	0.000274	2.736081	0.927009	0.000110
1659	1.6497e+02	-13.9344	-63.794819	0.000304	3.040090	1.030010	0.000122
1660	1.6507e+02	-13.9039	-63.681779	0.000284	2.837417	0.961343	0.000114
1661	1.6517e+02	-13.8606	-63.536442	0.000365	3.648108	1.236012	0.000146
1662	1.6527e+02	-13.8189	-63.435514	0.000253	2.533408	0.858342	0.000101
1663	1.6537e+02	-13.7868	-63.342660	0.000233	2.330735	0.789675	0.000093
1664	1.6547e+02	-13.7499	-63.233657	0.000274	2.736081	0.927009	0.000110
1665	1.6557e+02	-13.7050	-63.112543	0.000304	3.040090	1.030010	0.000122
1666	1.6567e+02	-13.6745	-63.019689	0.000233	2.330735	0.789675	0.000093
1667	1.6577e+02	-13.6376	-62.894538	0.000314	3.141426	1.064344	0.000126
1668	1.6587e+02	-13.5798	-62.761312	0.000334	3.344099	1.133011	0.000134
1669	1.6597e+02	-13.5494	-62.688644	0.000182	1.824054	0.618006	0.000073
1670	1.6607e+02	-13.5012	-62.575604	0.000284	2.837417	0.961343	0.000114
1671	1.6616e+02	-13.4723	-62.494861	0.000203	2.026726	0.686674	0.000081
1672	1.6626e+02	-13.4178	-62.345487	0.000375	3.749444	1.270346	0.000150
1673	1.6636e+02	-13.3969	-62.192076	0.000385	3.850780	1.304680	0.000154
1674	1.6646e+02	-13.3424	-62.111333	0.000203	2.026726	0.686674	0.000081
1675	1.6656e+02	-13.3071	-61.982145	0.000324	3.242762	1.098678	0.000130
1676	1.6666e+02	-13.2782	-61.873142	0.000274	2.736081	0.927009	0.000110
1677	1.6676e+02	-13.2205	-61.792400	0.000203	2.026726	0.686674	0.000081
1678	1.6686e+02	-13.1868	-61.691471	0.000253	2.533408	0.858342	0.000101
1679	1.6696e+02	-13.1499	-61.529986	0.000405	4.053453	1.373347	0.000162
1680	1.6706e+02	-13.1098	-61.429057	0.000253	2.533408	0.858342	0.000101
1681	1.6716e+02	-13.0665	-61.316018	0.000284	2.837417	0.961343	0.000114
1682	1.6726e+02	-13.0248	-61.190866	0.000314	3.141426	1.064344	0.000126
1683	1.6736e+02	-12.9911	-61.089938	0.000253	2.533408	0.858342	0.000101
1684	1.6746e+02	-12.9413	-60.944601	0.000365	3.648108	1.236012	0.000146
1685	1.6756e+02	-12.9141	-60.859821	0.000213	2.128063	0.721007	0.000085
1686	1.6766e+02	-12.8756	-60.746781	0.000284	2.837417	0.961343	0.000114
1687	1.6776e+02	-12.8355	-60.682187	0.000162	1.621381	0.549339	0.000065
1688	1.6786e+02	-12.7905	-60.504553	0.000446	4.458798	1.510682	0.000179
1689	1.6796e+02	-12.7488	-60.375365	0.000324	3.242762	1.098678	0.000130
1690	1.6806e+02	-12.7151	-60.314808	0.000152	1.520045	0.515005	0.000061
1691	1.6816e+02	-12.6670	-60.173508	0.000355	3.546771	1.201679	0.000142
1692	1.6825e+02	-12.6253	-60.048357	0.000314	3.141426	1.064344	0.000126
1693	1.6835e+02	-12.5964	-59.911094	0.000345	3.445435	1.167345	0.000138
1694	1.6845e+02	-12.5595	-59.854574	0.000142	1.418709	0.480671	0.000057
1695	1.6855e+02	-12.5050	-59.689052	0.000415	4.154789	1.407681	0.000166
1696	1.6865e+02	-12.4713	-59.580049	0.000274	2.736081	0.927009	0.000110
1697	1.6875e+02	-12.4264	-59.495269	0.000213	2.128063	0.721007	0.000085
1698	1.6885e+02	-12.4023	-59.382230	0.000284	2.837417	0.961343	0.000114
1699	1.6895e+02	-12.3510	-59.236893	0.000365	3.648108	1.236012	0.000146
1700	1.6905e+02	-12.3077	-59.123853	0.000284	2.837417	0.961343	0.000114
1701	1.6915e+02	-12.2724	-59.051184	0.000182	1.824054	0.618006	0.000073
1702	1.6925e+02	-12.2307	-58.857402	0.000486	4.864143	1.648016	0.000195
1703	1.6935e+02	-12.1922	-58.780696	0.000193	1.925390	0.652340	0.000077
1704	1.6945e+02	-12.1473	-58.659582	0.000304	3.040090	1.030010	0.000122
1705	1.6955e+02	-12.1120	-58.554617	0.000263	2.634744	0.892676	0.000105
1706	1.6965e+02	-12.0735	-58.457725	0.000243	2.432072	0.824008	0.000097
1707	1.6975e+02	-12.0334	-58.300277	0.000395	3.952117	1.339013	0.000158
1708	1.6985e+02	-11.9884	-58.171089	0.000324	3.242762	1.098678	0.000130
1709	1.6995e+02	-11.9596	-58.033826	0.000345	3.445435	1.167345	0.000138
1710	1.7005e+02	-11.9162	-57.945009	0.000223	2.229399	0.755341	0.000089
1711	1.7015e+02	-11.8697	-57.791598	0.000385	3.850780	1.304680	0.000154
1712	1.7024e+02	-11.8328	-57.694707	0.000243	2.432072	0.824008	0.000097
1713	1.7034e+02	-11.7895	-57.549370	0.000365	3.648108	1.236012	0.000146
1714	1.7044e+02	-11.7622	-57.480739	0.000172	1.722717	0.583672	0.000069
1715	1.7054e+02	-11.7173	-57.363662	0.000294	2.938753	0.995677	0.000118
1716	1.7064e+02	-11.6708	-57.214288	0.000375	3.749444	1.270346	0.000150
1717	1.7074e+02	-11.6275	-57.077025	0.000345	3.445435	1.167345	0.000138
1718	1.7084e+02	-11.5922	-56.939762	0.000345	3.445435	1.167345	0.000138
1719	1.7094e+02	-11.5617	-56.842871	0.000243	2.432072	0.824008	0.000097
1720	1.7104e+02	-11.5152	-56.709646	0.000334	3.344099	1.133011	0.000134
1721	1.7114e+02	-11.4783	-56.592569	0.000294	2.938753	0.995677	0.000118
1722	1.7124e+02	-11.4398	-56.471455	0.000304	3.040090	1.030010	0.000122
1723	1.7134e+02	-11.4029	-56.334192	0.000345	3.445435	1.167345	0.000138
1724	1.7144e+02	-11.3467	-56.213078	0.000304	3.040090	1.030010	0.000122
1725	1.7154e+02	-11.3147	-56.063704	0.000375	3.749444	1.270346	0.000150
1726	1.7164e+02	-11.2729	-55.982961	0.000203	2.026726	0.686674	0.000081
1727	1.7174e+02	-11.2296	-55.845699	0.000345	3.445435	1.167345	0.000138
1728	1.7184e+02	-11.1991	-55.732659	0.000284	2.837417	0.961343	0.000114
1729	1.7194e+02	-11.1542	-55.599433	0.000334	3.344099	1.133011	0.000134
1730	1.7204e+02	-11.1077	-55.502542	0.000243	2.432072	0.824008	0.000097
1731	1.7213e+02	-11.0708	-55.361242	0.000355	3.546771	1.201679	0.000142
1732	1.7223e+02	-11.0371	-55.215905	0.000365	3.648108	1.236012	0.000146
1733	1.7233e+02	-10.9954	-55.094791	0.000304	3.040090	1.030010	0.000122
1734	1.7243e+02	-10.9617	-54.977714	0.000294	2.938753	0.995677	0.000118
1735	1.7253e+02	-10.9088	-54.844489	0.000334	3.344099	1.133011	0.000134
1736	1.7263e+02	-10.8799	-54.743561	0.000253	2.533408	0.858342	0.000101
1737	1.7273e+02	-10.8414	-54.634558	0.000274	2.736081	0.927009	0.000110
1738	1.7283e+02	-10.7917	-54.436738	0.000497	4.965480	1.682350	0.000199
1739	1.7293e+02	-10.7516	-54.347921	0.000223	2.229399	0.755341	0.000089
1740	1.7303e+02	-10.7163	-54.214696	0.000334	3.344099	1.133011	0.000134
1741	1.7313e+02	-10.6794	-54.097619	0.000294	2.938753	0.995677	0.000118
1742	1.7323e+02	-10.6361	-53.972468	0.000314	3.141426	1.064344	0.000126
1743	1.7333e+02	-10.5992	-53.839242	0.000334	3.344099	1.133011	0.000134
1744	1.7343e+02	-10.5559	-53.730240	0.000274	2.736081	0.927009	0.000110
1745	1.7353e+02	-10.5238	-53.649497	0.000203	2.026726	0.686674	0.000081
1746	1.7363e+02	-10.4885	-53.443603	0.000517	5.168152	1.751017	0.000207
1747	1.7373e+02	-10.4371	-53.350749	0.000233	2.330735	0.789675	0.000093
1748	1.7383e+02	-10.3986	-53.169078	0.000456	4.560135	1.545015	0.000183
1749	1.7393e+02	-10.3585	-53.108521	0.000152	1.520045	0.515005	0.000061
1750	1.7403e+02	-10.3120	-52.947035	0.000405	4.053453	1.373347	0.000162
1751	1.7413e+02	-10.2767	-52.813810	0.000334	3.344099	1.133011	0.000134
1752	1.7422e+02	-10.2382	-52.700770	0.000284	2.837417	0.961343	0.000114
1753	1.7432e+02	-10.1965	-52.555433	0.000365	3.648108	1.236012	0.000146
1754	1.7442e+02	-10.1548	-52.462579	0.000233	2.330735	0.789675	0.000093
1755	1.7452e+02	-10.1211	-52.305131	0.000395	3.952117	1.339013	0.000158
1756	1.7462e+02	-10.0794	-52.204202	0.000253	2.533408	0.858342	0.000101
1757	1.7472e+02	-10.0425	-52.062902	0.000355	3.546771	1.201679	0.000142
1758	1.7482e+02	-9.9928	-51.937751	0.000314	3.141426	1.064344	0.000126
1759	1.7492e+02	-9.9575	-51.776266	0.000405	4.053453	1.373347	0.000162
1760	1.7502e+02	-9.9222	-51.643040	0.000334	3.344099	1.133011	0.000134
1761	1.7512e+02	-9.8869	-51.554223	0.000223	2.229399	0.755341	0.000089
1762	1.7522e+02	-9.8259	-51.416961	0.000345	3.445435	1.167345	0.000138
1763	1.7532e+02	-9.8035	-51.271624	0.000365	3.648108	1.236012	0.000146
1764	1.7542e+02	-9.7521	-51.146473	0.000314	3.141426	1.064344	0.000126
1765	1.7552e+02	-9.7297	-51.041507	0.000263	2.634744	0.892676	0.000105
1766	1.7562e+02	-9.6719	-50.884059	0.000395	3.952117	1.339013	0.000158
1767	1.7572e+02	-9.6463	-50.766982	0.000294	2.938753	0.995677	0.000118
1768	1.7582e+02	-9.6013	-50.637794	0.000324	3.242762	1.098678	0.000130
1769	1.7592e+02	-9.5644	-50.504568	0.000334	3.344099	1.133011	0.000134
1770	1.7602e+02	-9.5179	-50.367305	0.000345	3.445435	1.167345	0.000138
1771	1.7612e+02	-9.4826	-50.254266	0.000284	2.837417	0.961343	0.000114
1772	1.7621e+02	-9.4425	-50.076632	0.000446	4.458798	1.510682	0.000179
1773	1.7631e+02	-9.4056	-49.951480	0.000314	3.141426	1.064344	0.000126
1774	1.7641e+02	-9.3639	-49.838441	0.000284	2.837417	0.961343	0.000114
1775	1.7651e+02	-9.3206	-49.672918	0.000415	4.154789	1.407681	0.000166
1776	1.7661e+02	-9.2821	-49.559878	0.000284	2.837417	0.961343	0.000114
1777	1.7671e+02	-9.2564	-49.458950	0.000253	2.533408	0.858342	0.000101
1778	1.7681e+02	-9.2067	-49.325724	0.000334	3.344099	1.133011	0.000134
1779	1.7691e+02	-9.1634	-49.144053	0.000456	4.560135	1.545015	0.000183
1780	1.7701e+02	-9.1120	-49.014865	0.000324	3.242762	1.098678	0.000130
1781	1.7711e+02	-9.0848	-48.873565	0.000355	3.546771	1.201679	0.000142
1782	1.7721e+02	-9.0415	-48.760525	0.000284	2.837417	0.961343	0.000114
1783	1.7731e+02	-8.9933	-48.590966	0.000426	4.256126	1.442014	0.000170
1784	1.7741e+02	-8.9612	-48.469852	0.000304	3.040090	1.030010	0.000122
1785	1.7751e+02	-8.9227	-48.360849	0.000274	2.736081	0.927009	0.000110
1786	1.7761e+02	-8.8762	-48.263958	0.000243	2.432072	0.824008	0.000097
1787	1.7771e+02	-8.8441	-48.102472	0.000405	4.053453	1.373347	0.000162
1788	1.7781e+02	-8.7992	-47.977321	0.000314	3.141426	1.064344	0.000126
1789	1.7791e+02	-8.7591	-47.771427	0.000517	5.168152	1.751017	0.000207
1790	1.7801e+02	-8.7318	-47.674536	0.000243	2.432072	0.824008	0.000097
1791	1.7810e+02	-8.6933	-47.517088	0.000395	3.952117	1.339013	0.000158
1792	1.7820e+02	-8.6372	-47.367714	0.000375	3.749444	1.270346	0.000150
1793	1.7830e+02	-8.6035	-47.242562	0.000314	3.141426	1.064344	0.000126
1794	1.7840e+02	-8.5666	-47.109337	0.000334	3.344099	1.133011	0.000134
1795	1.7850e+02	-8.5297	-47.024557	0.000213	2.128063	0.721007	0.000085
1796	1.7860e+02	-8.4912	-46.891332	0.000334	3.344099	1.133011	0.000134
1797	1.7870e+02	-8.4479	-46.697549	0.000486	4.864143	1.648016	0.000195
1798	1.7880e+02	-8.4142	-46.560286	0.000345	3.445435	1.167345	0.000138
1799	1.7890e+02	-8.3629	-46.427061	0.000334	3.344099	1.133011	0.000134
1800	1.7900e+02	-8.3196	-46.305947	0.000304	3.040090	1.030010	0.000122
1801	1.7910e+02	-8.2843	-46.184833	0.000304	3.040090	1.030010	0.000122
1802	1.7920e+02	-8.2458	-46.067756	0.000294	2.938753	0.995677	0.000118
1803	1.7930e+02	-8.2040	-45.898196	0.000426	4.256126	1.442014	0.000170
1804	1.7940e+02	-8.1639	-45.760934	0.000345	3.445435	1.167345	0.000138
1805	1.7950e+02	-8.1254	-45.631745	0.000324	3.242762	1.098678	0.000130
1806	1.7960e+02	-8.0918	-45.478334	0.000385	3.850780	1.304680	0.000154
1807	1.7970e+02	-8.0468	-45.361257	0.000294	2.938753	0.995677	0.000118
1808	1.7980e+02	-8.0067	-45.228032	0.000334	3.344099	1.133011	0.000134
1809	1.7990e+02	-7.9650	-45.098843	0.000324	3.242762	1.098678	0.000130
1810	1.8000e+02	-7.9249	-44.909098	0.000476	4.762807	1.613683	0.000191
1811	1.8009e+02	-7.8816	-44.796058	0.000284	2.837417	0.961343	0.000114
1812	1.8019e+02	-7.8495	-44.654758	0.000355	3.546771	1.201679	0.000142
1813	1.8029e+02	-7.8078	-44.497310	0.000395	3.952117	1.339013	0.000158
1814	1.8039e+02	-7.7693	-44.364085	0.000334	3.344099	1.133011	0.000134
1815	1.8049e+02	-7.7292	-44.198562	0.000415	4.154789	1.407681	0.000166
1816	1.8059e+02	-7.6827	-44.081485	0.000294	2.938753	0.995677	0.000118
1817	1.8069e+02	-7.6426	-43.960371	0.000304	3.040090	1.030010	0.000122
1818	1.8079e+02	-7.6009	-43.806960	0.000385	3.850780	1.304680	0.000154
1819	1.8089e+02	-7.5640	-43.633363	0.000436	4.357462	1.476348	0.000174
1820	1.8099e+02	-7.5287	-43.500138	0.000334	3.344099	1.133011	0.000134
1821	1.8109e+02	-7.4950	-43.354801	0.000365	3.648108	1.236012	0.000146
1822	1.8119e+02	-7.4501	-43.217538	0.000345	3.445435	1.167345	0.000138
1823	1.8129e+02	-7.4116	-43.043941	0.000436	4.357462	1.476348	0.000174
1824	1.8139e+02	-7.3698	-42.910716	0.000334	3.344099	1.133011	0.000134
1825	1.8149e+02	-7.3329	-42.801713	0.000274	2.736081	0.927009	0.000110
1826	1.8159e+02	-7.2832	-42.672525	0.000324	3.242762	1.098678	0.000130
1827	1.8169e+02	-7.2495	-42.486817	0.000466	4.661471	1.579349	0.000187
1828	1.8179e+02	-7.2142	-42.365702	0.000304	3.040090	1.030010	0.000122
1829	1.8189e+02	-7.1693	-42.188068	0.000446	4.458798	1.510682	0.000179
1830	1.8199e+02	-7.1372	-42.058880	0.000324	3.242762	1.098678	0.000130
1831	1.8209e+02	-7.0923	-41.913543	0.000365	3.648108	1.236012	0.000146
1832	1.8218e+02	-7.0506	-41.772243	0.000355	3.546771	1.201679	0.000142
1833	1.8228e+02	-7.0249	-41.606721	0.000415	4.154789	1.407681	0.000166
1834	1.8238e+02	-6.9800	-41.433124	0.000436	4.357462	1.476348	0.000174
1835	1.8248e+02	-6.9207	-41.332196	0.000253	2.533408	0.858342	0.000101
1836	1.8258e+02	-6.8918	-41.182822	0.000375	3.749444	1.270346	0.000150
1837	1.8268e+02	-6.8533	-40.976928	0.000517	5.168152	1.751017	0.000207
1838	1.8278e+02	-6.8116	-40.896185	0.000203	2.026726	0.686674	0.000081
1839	1.8288e+02	-6.7634	-40.738737	0.000395	3.952117	1.339013	0.000158
1840	1.8298e+02	-6.7298	-40.561103	0.000446	4.458798	1.510682	0.000179
1841	1.8308e+02	-6.6961	-40.439989	0.000304	3.040090	1.030010	0.000122
1842	1.8318e+02	-6.6479	-40.290615	0.000375	3.749444	1.270346	0.000150
1843	1.8328e+02	-6.6078	-40.141241	0.000375	3.749444	1.270346	0.000150
1844	1.8338e+02	-6.5774	-39.991867	0.000375	3.749444	1.270346	0.000150
1845	1.8348e+02	-6.5340	-39.810196	0.000456	4.560135	1.545015	0.000183
1846	1.8358e+02	-6.4955	-39.689081	0.000304	3.040090	1.030010	0.000122
1847	1.8368e+02	-6.4426	-39.519522	0.000426	4.256126	1.442014	0.000170
1848	1.8378e+02	-6.4201	-39.337851	0.000456	4.560135	1.545015	0.000183
1849	1.8388e+02	-6.3816	-39.208662	0.000324	3.242762	1.098678	0.000130
1850	1.8398e+02	-6.3431	-39.047177	0.000405	4.053453	1.373347	0.000162
1851	1.8407e+02	-6.2998	-38.922026	0.000314	3.141426	1.064344	0.000126
1852	1.8417e+02	-6.2629	-38.768614	0.000385	3.850780	1.304680	0.000154
1853	1.8427e+02	-6.2180	-38.607129	0.000405	4.053453	1.373347	0.000162
1854	1.8437e+02	-6.1811	-38.453718	0.000385	3.850780	1.304680	0.000154
1855	1.8447e+02	-6.1314	-38.308381	0.000365	3.648108	1.236012	0.000146
1856	1.8457e+02	-6.0961	-38.163044	0.000365	3.648108	1.236012	0.000146
1857	1.8467e+02	-6.0608	-38.013670	0.000375	3.749444	1.270346	0.000150
1858	1.8477e+02	-6.0223	-37.795665	0.000547	5.472161	1.854018	0.000219
1859	1.8487e+02	-5.9677	-37.674551	0.000304	3.040090	1.030010	0.000122
1860	1.8497e+02	-5.9437	-37.504991	0.000426	4.256126	1.442014	0.000170
1861	1.8507e+02	-5.9068	-37.351580	0.000385	3.850780	1.304680	0.000154
1862	1.8517e+02	-5.8683	-37.198169	0.000385	3.850780	1.304680	0.000154
1863	1.8527e+02	-5.8218	-37.036683	0.000405	4.053453	1.373347	0.000162
1864	1.8537e+02	-5.7784	-36.915569	0.000304	3.040090	1.030010	0.000122
1865	1.8547e+02	-5.7448	-36.762158	0.000385	3.850780	1.304680	0.000154
1866	1.8557e+02	-5.6950	-36.624895	0.000345	3.445435	1.167345	0.000138
1867	1.8567e+02	-5.6597	-36.439187	0.000466	4.661471	1.579349	0.000187
1868	1.8577e+02	-5.6228	-36.265590	0.000436	4.357462	1.476348	0.000174
1869	1.8587e+02	-5.5827	-36.136402	0.000324	3.242762	1.098678	0.000130
1870	1.8597e+02	-5.5346	-35.946657	0.000476	4.762807	1.613683	0.000191
1871	1.8606e+02	-5.5041	-35.797283	0.000375	3.749444	1.270346	0.000150
1872	1.8616e+02	-5.4432	-35.627723	0.000426	4.256126	1.442014	0.000170
1873	1.8626e+02	-5.4239	-35.494497	0.000334	3.344099	1.133011	0.000134
1874	1.8636e+02	-5.3790	-35.304752	0.000476	4.762807	1.613683	0.000191
1875	1.8646e+02	-5.3437	-35.159415	0.000365	3.648108	1.236012	0.000146
1876	1.8656e+02	-5.3004	-34.989855	0.000426	4.256126	1.442014	0.000170
1877	1.8666e+02	-5.2635	-34.828370	0.000405	4.053453	1.373347	0.000162
1878	1.8676e+02	-5.2218	-34.630550	0.000497	4.965480	1.682350	0.000199
1879	1.8686e+02	-5.1769	-34.517511	0.000284	2.837417	0.961343	0.000114
1880	1.8696e+02	-5.1416	-34.287394	0.000578	5.776170	1.957020	0.000231
1881	1.8706e+02	-5.1047	-34.186465	0.000253	2.533408	0.858342	0.000101
1882	1.8716e+02	-5.0662	-33.996720	0.000476	4.762807	1.613683	0.000191
1883	1.8726e+02	-5.0132	-33.823123	0.000436	4.357462	1.476348	0.000174
1884	1.8736e+02	-4.9827	-33.669712	0.000385	3.850780	1.304680	0.000154
1885	1.8746e+02	-4.9426	-33.496115	0.000436	4.357462	1.476348	0.000174
1886	1.8756e+02	-4.9073	-33.330593	0.000415	4.154789	1.407681	0.000166
1887	1.8766e+02	-4.8705	-33.169107	0.000405	4.053453	1.373347	0.000162
1888	1.8776e+02	-4.8207	-32.975325	0.000486	4.864143	1.648016	0.000195
1889	1.8786e+02	-4.7854	-32.797691	0.000446	4.458798	1.510682	0.000179
1890	1.8796e+02	-4.7389	-32.640242	0.000395	3.952117	1.339013	0.000158
1891	1.8806e+02	-4.7052	-32.450497	0.000476	4.762807	1.613683	0.000191
1892	1.8815e+02	-4.6587	-32.284974	0.000415	4.154789	1.407681	0.000166
1893	1.8825e+02	-4.6122	-32.075043	0.000527	5.269489	1.785351	0.000211
1894	1.8835e+02	-4.5833	-31.957967	0.000294	2.938753	0.995677	0.000118
1895	1.8845e+02	-4.5448	-31.792444	0.000415	4.154789	1.407681	0.000166
1896	1.8855e+02	-4.5031	-31.610773	0.000456	4.560135	1.545015	0.000183
1897	1.8865e+02	-4.4646	-31.441213	0.000426	4.256126	1.442014	0.000170
1898	1.8875e+02	-4.4293	-31.255505	0.000466	4.661471	1.579349	0.000187
1899	1.8885e+02	-4.3780	-31.077871	0.000446	4.458798	1.510682	0.000179
1900	1.8895e+02	-4.3459	-30.904274	0.000436	4.357462	1.476348	0.000174
1901	1.8905e+02	-4.3106	-30.734714	0.000426	4.256126	1.442014	0.000170
1902	1.8915e+02	-4.2576	-30.613600	0.000304	3.040090	1.030010	0.000122
1903	1.8925e+02	-4.2207	-30.363298	0.000628	6.282852	2.128688	0.000252
1904	1.8935e+02	-4.1919	-30.230072	0.000334	3.344099	1.133011	0.000134
1905	1.8945e+02	-4.1469	-30.056476	0.000436	4.357462	1.476348	0.000174
1906	1.8955e+02	-4.1020	-29.882879	0.000436	4.357462	1.476348	0.000174
1907	1.8965e+02	-4.0635	-29.689096	0.000486	4.864143	1.648016	0.000195
1908	1.8975e+02	-4.0266	-29.519537	0.000426	4.256126	1.442014	0.000170
1909	1.8985e+02	-3.9881	-29.317680	0.000507	5.066816	1.716684	0.000203
1910	1.8995e+02	-3.9416	-29.144083	0.000436	4.357462	1.476348	0.000174
1911	1.9004e+02	-3.9031	-28.982597	0.000405	4.053453	1.373347	0.000162
1912	1.9014e+02	-3.8614	-28.804963	0.000446	4.458798	1.510682	0.000179
1913	1.9024e+02	-3.8309	-28.627330	0.000446	4.458798	1.510682	0.000179
1914	1.9034e+02	-3.7796	-28.453733	0.000436	4.357462	1.476348	0.000174
1915	1.9044e+02	-3.7427	-28.276099	0.000446	4.458798	1.510682	0.000179
1916	1.9054e+02	-3.6978	-28.066168	0.000527	5.269489	1.785351	0.000211
1917	1.9064e+02	-3.6625	-27.904682	0.000405	4.053453	1.373347	0.000162
1918	1.9074e+02	-3.6127	-27.690714	0.000537	5.370825	1.819685	0.000215
1919	1.9084e+02	-3.5887	-27.537303	0.000385	3.850780	1.304680	0.000154
1920	1.9094e+02	-3.5486	-27.335446	0.000507	5.066816	1.716684	0.000203
1921	1.9104e+02	-3.5036	-27.153775	0.000456	4.560135	1.545015	0.000183
1922	1.9114e+02	-3.4716	-26.972104	0.000456	4.560135	1.545015	0.000183
1923	1.9124e+02	-3.4282	-26.794470	0.000446	4.458798	1.510682	0.000179
1924	1.9134e+02	-3.3897	-26.604725	0.000476	4.762807	1.613683	0.000191
1925	1.9144e+02	-3.3480	-26.406905	0.000497	4.965480	1.682350	0.000199
1926	1.9154e+02	-3.3111	-26.245419	0.000405	4.053453	1.373347	0.000162
1927	1.9164e+02	-3.2758	-26.015303	0.000578	5.776170	1.957020	0.000231
1928	1.9174e+02	-3.2325	-25.874003	0.000355	3.546771	1.201679	0.000142
1929	1.9184e+02	-3.1892	-25.704443	0.000426	4.256126	1.442014	0.000170
1930	1.9194e+02	-3.1539	-25.482401	0.000557	5.573498	1.888352	0.000223
1931	1.9203e+02	-3.1074	-25.337064	0.000365	3.648108	1.236012	0.000146
1932	1.9213e+02	-3.0625	-25.110984	0.000567	5.674834	1.922686	0.000227
1933	1.9223e+02	-3.0304	-24.945462	0.000415	4.154789	1.407681	0.000166
1934	1.9233e+02	-2.9855	-24.731494	0.000537	5.370825	1.819685	0.000215
1935	1.9243e+02	-2.9502	-24.541748	0.000476	4.762807	1.613683	0.000191
1936	1.9253e+02	-2.9085	-24.356040	0.000466	4.661471	1.579349	0.000187
1937	1.9263e+02	-2.8700	-24.170332	0.000466	4.661471	1.579349	0.000187
1938	1.9273e+02	-2.8299	-23.948289	0.000557	5.573498	1.888352	0.000223
1939	1.9283e+02	-2.7962	-23.782767	0.000415	4.154789	1.407681	0.000166
1940	1.9293e+02	-2.7545	-23.576873	0.000517	5.168152	1.751017	0.000207
1941	1.9303e+02	-2.7079	-23.399239	0.000446	4.458798	1.510682	0.000179
1942	1.9313e+02	-2.6743	-23.161048	0.000598	5.978843	2.025687	0.000239
1943	1.9323e+02	-2.6309	-22.951117	0.000527	5.269489	1.785351	0.000211
1944	1.9333e+02	-2.5892	-22.789631	0.000405	4.053453	1.373347	0.000162
1945	1.9343e+02	-2.5555	-22.547403	0.000608	6.080179	2.060021	0.000243
1946	1.9353e+02	-2.5058	-22.385918	0.000405	4.053453	1.373347	0.000162
1947	1.9363e+02	-2.4705	-22.151764	0.000588	5.877507	1.991353	0.000235
1948	1.9373e+02	-2.4368	-21.962018	0.000476	4.762807	1.613683	0.000191
1949	1.9383e+02	-2.3967	-21.756124	0.000517	5.168152	1.751017	0.000207
1950	1.9393e+02	-2.3566	-21.578491	0.000446	4.458798	1.510682	0.000179
1951	1.9403e+02	-2.3117	-21.356448	0.000557	5.573498	1.888352	0.000223
1952	1.9412e+02	-2.2748	-21.207074	0.000375	3.749444	1.270346	0.000150
1953	1.9422e+02	-2.2267	-20.952734	0.000638	6.384188	2.163022	0.000256
1954	1.9432e+02	-2.1946	-20.767026	0.000466	4.661471	1.579349	0.000187
1955	1.9442e+02	-2.1545	-20.561132	0.000517	5.168152	1.751017	0.000207
1956	1.9452e+02	-2.1160	-20.347164	0.000537	5.370825	1.819685	0.000215
1957	1.9462e+02	-2.0743	-20.137233	0.000527	5.269489	1.785351	0.000211
1958	1.9472e+02	-2.0342	-19.939413	0.000497	4.965480	1.682350	0.000199
1959	1.9482e+02	-1.9941	-19.745631	0.000486	4.864143	1.648016	0.000195
1960	1.9492e+02	-1.9459	-19.535700	0.000527	5.269489	1.785351	0.000211
1961	1.9502e+02	-1.9074	-19.349992	0.000466	4.661471	1.579349	0.000187
1962	1.9512e+02	-1.8705	-19.103726	0.000618	6.181516	2.094354	0.000248
1963	1.9522e+02	-1.8272	-18.897832	0.000517	5.168152	1.751017	0.000207
1964	1.9532e+02	-1.7903	-18.704050	0.000486	4.864143	1.648016	0.000195
1965	1.9542e+02	-1.7566	-18.510267	0.000486	4.864143	1.648016	0.000195
1966	1.9552e+02	-1.7213	-18.296299	0.000537	5.370825	1.819685	0.000215
1967	1.9562e+02	-1.6684	-18.106554	0.000476	4.762807	1.613683	0.000191
1968	1.9572e+02	-1.6363	-17.864326	0.000608	6.080179	2.060021	0.000243
1969	1.9582e+02	-1.5946	-17.634209	0.000578	5.776170	1.957020	0.000231
1970	1.9592e+02	-1.5577	-17.464649	0.000426	4.256126	1.442014	0.000170
1971	1.9601e+02	-1.5176	-17.230495	0.000588	5.877507	1.991353	0.000235
1972	1.9611e+02	-1.4743	-17.044787	0.000466	4.661471	1.579349	0.000187
1973	1.9621e+02	-1.4374	-16.826782	0.000547	5.472161	1.854018	0.000219
1974	1.9631e+02	-1.3957	-16.588591	0.000598	5.978843	2.025687	0.000239
1975	1.9641e+02	-1.3684	-16.346363	0.000608	6.080179	2.060021	0.000243
1976	1.9651e+02	-1.3091	-16.164691	0.000456	4.560135	1.545015	0.000183
1977	1.9661e+02	-1.2866	-15.946686	0.000547	5.472161	1.854018	0.000219
1978	1.9671e+02	-1.2353	-15.744829	0.000507	5.066816	1.716684	0.000203
1979	1.9681e+02	-1.1984	-15.534898	0.000527	5.269489	1.785351	0.000211
1980	1.9691e+02	-1.1583	-15.284596	0.000628	6.282852	2.128688	0.000252
1981	1.9701e+02	-1.1165	-15.078702	0.000517	5.168152	1.751017	0.000207
1982	1.9711e+02	-1.0700	-14.832437	0.000618	6.181516	2.094354	0.000248
1983	1.9721e+02	-1.0444	-14.642691	0.000476	4.762807	1.613683	0.000191
1984	1.9731e+02	-0.9882	-14.380277	0.000659	6.586861	2.231689	0.000264
1985	1.9741e+02	-0.9609	-14.174384	0.000517	5.168152	1.751017	0.000207
1986	1.9751e+02	-0.9128	-13.920044	0.000638	6.384188	2.163022	0.000256
1987	1.9761e+02	-0.8743	-13.714150	0.000517	5.168152	1.751017	0.000207
1988	1.9771e+02	-0.8358	-13.488071	0.000567	5.674834	1.922686	0.000227
1989	1.9781e+02	-0.7989	-13.282177	0.000517	5.168152	1.751017	0.000207
1990	1.9791e+02	-0.7572	-13.027837	0.000638	6.384188	2.163022	0.000256
1991	1.9800e+02	-0.7203	-12.805795	0.000557	5.573498	1.888352	0.000223
1992	1.9810e+02	-0.6818	-12.603938	0.000507	5.066816	1.716684	0.000203
1993	1.9820e+02	-0.6353	-12.353635	0.000628	6.282852	2.128688	0.000252
1994	1.9830e+02	-0.6048	-12.115444	0.000598	5.978843	2.025687	0.000239
1995	1.9840e+02	-0.5519	-11.913588	0.000507	5.066816	1.716684	0.000203
1996	1.9850e+02	-0.5182	-11.655211	0.000649	6.485525	2.197355	0.000260
1997	1.9860e+02	-0.4765	-11.433168	0.000557	5.573498	1.888352	0.000223
1998	1.9870e+02	-0.4412	-11.219200	0.000537	5.370825	1.819685	0.000215
1999	1.9880e+02	-0.4027	-10.932564	0.000719	7.194879	2.437691	0.000288
2000	1.9890e+02	-0.3529	-10.726670	0.000517	5.168152	1.751017	0.000207
2001	1.9900e+02	-0.3273	-10.496553	0.000578	5.776170	1.957020	0.000231
2002	1.9910e+02	-0.2823	-10.254325	0.000608	6.080179	2.060021	0.000243
2003	1.9920e+02	-0.2358	-10.012097	0.000608	6.080179	2.060021	0.000243
2004	1.9930e+02	-0.1973	-9.757757	0.000638	6.384188	2.163022	0.000256
2005	1.9940e+02	-0.1540	-9.563975	0.000486	4.864143	1.648016	0.000195
2006	1.9950e+02	-0.1251	-9.333858	0.000578	5.776170	1.957020	0.000231
2007	1.9960e+02	-0.0754	-9.083555	0.000628	6.282852	2.128688	0.000252
2008	1.9970e+02	-0.0481	-8.857476	0.000567	5.674834	1.922686	0.000227
2009	1.9980e+02	-0.0080	-8.615248	0.000567	5.674834	1.922686	0.000243

Center data before PMax,+/-Pr and +/-Vc Calc.

PMax (uC/cm2):	7.80e+01
Pr (uC/cm2):	3.36e+00
-Pr (uC/cm2):	-8.62e+00
PLoss (uC/cm2):	-3.13e+00
Vc:	9.73e-01
-Vc:	-5.66e-01
C (Max-Eff) (nF):	3.90e-01
K (Eff):	1.32e+03
Vert. (+/-Pr) Shift (uC/cm2):	-2.63e+00
Horiz. Shift (+/-Vc):	2.04e-01
Offset (uC/cm2):	5.49e+00

A (Loop Area - uC/cm2·Volts):	-3.03e-02



Hysteresis Version: 5.48.1 - Radiant Technologies, Inc., 1999 - 9/12/24

