»»»»»»»»»»»»»»»»»»»»»»»»»»»»»»»»»»»» Hysteresis ««««««««««««««««««««««««««««««««««««
»»»  Executed Version:	5.48.1
»»»  Vision Version:	5.48.4 (R)
»»»  Vision Compiled:	9/18/24
»»»  Driver Version:	5.47.0
»»»  Windows Version:	Windows 8 or 8.1
»»»  Processor Information:	x86 (AMD or Intel) - 32 Processors
»»»  Tester Name:	PMF21124-494 (100V)
»»»  Tester S/N:	PMF21124-494
»»»  Internal Amp Type:	100V RevK 270k
»»»  Internal Amp S/N:	iAB2-596/K     
»»»  Execution Count:	1
»»»»»»»»»»»»»»»»»»»»»»»»»»»»»»»»»»»»»»»»»»««««««««««««««««««««««««««««««««««««««««««

Stored:	6/11/2025 - 17:24:38
Configured:	06/11/25 01:55:56 PM
Executed:	06/11/25 05:23:57 PM

»»»»»»»»»»»»»»»»»»»»»»»»»»»»»»»»»»» Sample Info ««««««««««««««««««««««««««««««««««««
Sample Name:	
Lot Name:	
Wafer Name:	
Die Row/Column:	0/0
Capacitor Number:	0
Sample Area (cm2):	1.00e-04
Sample Thickness (microns):	3.00e-01

Amplifier:	Internal

»»»»»»»»»»»»»»»»»»»»»»»»»»»»»»»»»»» Tester Info «««««««««««««««««««««««««««««««««««
Tester Name:	PMF21124-494 (100V)
Tester Serial Number:	PMF21124-494
Return Signal Amp. Level:	1.9 [Index: 2]

»»»»»»»»»»»»»»»»»»»»»»»»»»»»»»»» Hysteresis Info ««««««««««««««««««««««««««««««««««
Task Name:	Hyst-1287
Volts:	20.00
Field:	666.67 (kV/cm)
DCBias:	0.00
DCField:	0.00 (kV/cm)
Hysteresis Period (ms):	2.00e+02
Preset:	Enabled
Preset Delay (ms):	1.00e+03
Profile:	Standard Bipolar

»»»»»»»»»»»»»»»»»»»»»»»»»»»»»»»»»»»»»» Data «««««««««««««««««««««««««««««««««««««««
Points:	2009

Valid Data

Point	Time (ms)	Drive Voltage	Measured Polarization (uC/cm2)	Capacitance (uF)	Normalized Capacitance (uF/cm2)	Dielectric Constant	Instantaneous Current (mA)
   1	0.0000e+00	0.0257	-2.269305	0.000172	1.722113	0.583468	0.000069
   2	9.9500e-02	0.0578	-2.200464	0.000172	1.722113	0.583468	0.000069
   3	1.9900e-01	0.0738	-2.101073	0.000249	2.486364	0.842403	0.000100
   4	2.9850e-01	0.1219	-2.011458	0.000224	2.241804	0.759544	0.000090
   5	3.9800e-01	0.1668	-1.912881	0.000247	2.465984	0.835498	0.000099
   6	4.9750e-01	0.2086	-1.816748	0.000240	2.404844	0.814783	0.000097
   7	5.9700e-01	0.2358	-1.721022	0.000239	2.394654	0.811331	0.000096
   8	6.9650e-01	0.2968	-1.615113	0.000265	2.649405	0.897643	0.000106
   9	7.9600e-01	0.3385	-1.524683	0.000226	2.262184	0.766449	0.000091
  10	8.9550e-01	0.3545	-1.426106	0.000247	2.465984	0.835498	0.000099
  11	9.9500e-01	0.4043	-1.330788	0.000238	2.384464	0.807878	0.000096
  12	1.0945e+00	0.4139	-1.231397	0.000249	2.486364	0.842403	0.000100
  13	1.1940e+00	0.4845	-1.134449	0.000243	2.425224	0.821688	0.000097
  14	1.2935e+00	0.5134	-1.027318	0.000268	2.679975	0.908000	0.000108
  15	1.3930e+00	0.5775	-0.938517	0.000222	2.221424	0.752639	0.000089
  16	1.4925e+00	0.5855	-0.835052	0.000259	2.588264	0.876928	0.000104
  17	1.5920e+00	0.6369	-0.732402	0.000257	2.567884	0.870023	0.000103
  18	1.6915e+00	0.6690	-0.626900	0.000264	2.639215	0.894190	0.000106
  19	1.7910e+00	0.7315	-0.539729	0.000218	2.180664	0.738829	0.000088
  20	1.8905e+00	0.7684	-0.437486	0.000256	2.557694	0.866570	0.000103
  21	1.9900e+00	0.8053	-0.332799	0.000262	2.618835	0.887285	0.000105
  22	2.0895e+00	0.8358	-0.227297	0.000264	2.639215	0.894190	0.000106
  23	2.1890e+00	0.8791	-0.131164	0.000240	2.404844	0.814783	0.000097
  24	2.2885e+00	0.9385	-0.036661	0.000236	2.364084	0.800973	0.000095
  25	2.3880e+00	0.9545	0.054991	0.000229	2.292754	0.776806	0.000092
  26	2.4875e+00	0.9898	0.158456	0.000259	2.588264	0.876928	0.000104
  27	2.5870e+00	1.0508	0.259885	0.000254	2.537314	0.859665	0.000102
  28	2.6865e+00	1.0748	0.352351	0.000231	2.313134	0.783711	0.000093
  29	2.7860e+00	1.1326	0.444003	0.000229	2.292754	0.776806	0.000092
  30	2.8855e+00	1.1695	0.544617	0.000252	2.516934	0.852760	0.000101
  31	2.9850e+00	1.2000	0.639528	0.000237	2.374274	0.804426	0.000095
  32	3.0845e+00	1.2433	0.738105	0.000247	2.465984	0.835498	0.000099
  33	3.1840e+00	1.2930	0.838718	0.000252	2.516934	0.852760	0.000101
  34	3.2835e+00	1.3123	0.929556	0.000227	2.272374	0.769901	0.000091
  35	3.3830e+00	1.3556	1.035057	0.000264	2.639215	0.894190	0.000106
  36	3.4825e+00	1.3941	1.134449	0.000249	2.486364	0.842403	0.000100
  37	3.5820e+00	1.4390	1.225694	0.000228	2.282564	0.773354	0.000092
  38	3.6815e+00	1.4903	1.318160	0.000231	2.313134	0.783711	0.000093
  39	3.7810e+00	1.5288	1.418774	0.000252	2.516934	0.852760	0.000101
  40	3.8805e+00	1.5545	1.512056	0.000233	2.333514	0.790616	0.000094
  41	3.9800e+00	1.5882	1.607374	0.000238	2.384464	0.807878	0.000096
  42	4.0795e+00	1.6299	1.705136	0.000245	2.445604	0.828593	0.000098
  43	4.1790e+00	1.6732	1.806157	0.000253	2.527124	0.856213	0.000102
  44	4.2785e+00	1.7213	1.901068	0.000237	2.374274	0.804426	0.000095
  45	4.3780e+00	1.7470	2.004125	0.000258	2.578074	0.873475	0.000104
  46	4.4775e+00	1.7887	2.092926	0.000222	2.221424	0.752639	0.000089
  47	4.5770e+00	1.8545	2.195984	0.000258	2.578074	0.873475	0.000104
  48	4.6765e+00	1.8657	2.298634	0.000257	2.567884	0.870023	0.000103
  49	4.7760e+00	1.9251	2.400470	0.000255	2.547504	0.863118	0.000102
  50	4.8755e+00	1.9764	2.488863	0.000221	2.211234	0.749186	0.000089
  51	4.9750e+00	1.9973	2.592328	0.000259	2.588264	0.876928	0.000104
  52	5.0745e+00	2.0197	2.694571	0.000256	2.557694	0.866570	0.000103
  53	5.1740e+00	2.0695	2.795999	0.000254	2.537314	0.859665	0.000102
  54	5.2735e+00	2.1208	2.888466	0.000231	2.313134	0.783711	0.000093
  55	5.3730e+00	2.1481	2.990302	0.000255	2.547504	0.863118	0.000102
  56	5.4725e+00	2.2042	3.092952	0.000257	2.567884	0.870023	0.000103
  57	5.5720e+00	2.2604	3.193973	0.000253	2.527124	0.856213	0.000102
  58	5.6715e+00	2.2700	3.294179	0.000251	2.506744	0.849308	0.000101
  59	5.7710e+00	2.3133	3.386646	0.000231	2.313134	0.783711	0.000093
  60	5.8705e+00	2.3662	3.491740	0.000263	2.629025	0.890738	0.000106
  61	5.9700e+00	2.4031	3.583392	0.000229	2.292754	0.776806	0.000092
  62	6.0695e+00	2.4416	3.686043	0.000257	2.567884	0.870023	0.000103
  63	6.1690e+00	2.4834	3.781361	0.000238	2.384464	0.807878	0.000096
  64	6.2685e+00	2.4978	3.881975	0.000252	2.516934	0.852760	0.000101
  65	6.3680e+00	2.5491	3.978922	0.000243	2.425224	0.821688	0.000097
  66	6.4675e+00	2.5908	4.075870	0.000243	2.425224	0.821688	0.000097
  67	6.5670e+00	2.6518	4.178927	0.000258	2.578074	0.873475	0.000104
  68	6.6665e+00	2.6694	4.273431	0.000236	2.364084	0.800973	0.000095
  69	6.7660e+00	2.7240	4.369564	0.000240	2.404844	0.814783	0.000097
  70	6.8655e+00	2.7545	4.469362	0.000250	2.496554	0.845856	0.000100
  71	6.9650e+00	2.7866	4.565495	0.000240	2.404844	0.814783	0.000097
  72	7.0645e+00	2.8379	4.662036	0.000242	2.415034	0.818236	0.000097
  73	7.1640e+00	2.8716	4.756132	0.000235	2.353894	0.797521	0.000095
  74	7.2635e+00	2.9101	4.854709	0.000247	2.465984	0.835498	0.000099
  75	7.3630e+00	2.9566	4.952063	0.000244	2.435414	0.825141	0.000098
  76	7.4625e+00	2.9903	5.046160	0.000235	2.353894	0.797521	0.000095
  77	7.5620e+00	3.0240	5.143107	0.000243	2.425224	0.821688	0.000097
  78	7.6615e+00	3.0689	5.240869	0.000245	2.445604	0.828593	0.000098
  79	7.7610e+00	3.0898	5.339039	0.000246	2.455794	0.832046	0.000099
  80	7.8605e+00	3.1411	5.436394	0.000244	2.435414	0.825141	0.000098
  81	7.9600e+00	3.1972	5.532527	0.000240	2.404844	0.814783	0.000097
  82	8.0595e+00	3.2325	5.627437	0.000237	2.374274	0.804426	0.000095
  83	8.1590e+00	3.2791	5.726014	0.000247	2.465984	0.835498	0.000099
  84	8.2585e+00	3.3464	5.818481	0.000231	2.313134	0.783711	0.000093
  85	8.3580e+00	3.3528	5.913799	0.000238	2.384464	0.807878	0.000096
  86	8.4575e+00	3.4106	6.007081	0.000233	2.333514	0.790616	0.000094
  87	8.5570e+00	3.4363	6.106472	0.000249	2.486364	0.842403	0.000100
  88	8.6565e+00	3.4908	6.202605	0.000240	2.404844	0.814783	0.000097
  89	8.7560e+00	3.5036	6.296294	0.000234	2.343704	0.794068	0.000094
  90	8.8555e+00	3.5438	6.383872	0.000219	2.190854	0.742281	0.000088
  91	8.9550e+00	3.5999	6.480413	0.000242	2.415034	0.818236	0.000097
  92	9.0545e+00	3.6480	6.575731	0.000238	2.384464	0.807878	0.000096
  93	9.1540e+00	3.6609	6.671864	0.000240	2.404844	0.814783	0.000097
  94	9.2535e+00	3.7026	6.756998	0.000213	2.129714	0.721567	0.000086
  95	9.3530e+00	3.7475	6.857612	0.000252	2.516934	0.852760	0.000101
  96	9.4525e+00	3.7587	6.947635	0.000225	2.251994	0.762996	0.000090
  97	9.5520e+00	3.8293	7.040509	0.000232	2.323324	0.787163	0.000093
  98	9.6515e+00	3.8678	7.132568	0.000230	2.302944	0.780259	0.000093
  99	9.7510e+00	3.9175	7.227072	0.000236	2.364084	0.800973	0.000095
 100	9.8505e+00	3.9352	7.318316	0.000228	2.282564	0.773354	0.000092
 101	9.9500e+00	3.9721	7.413227	0.000237	2.374274	0.804426	0.000095
 102	1.0050e+01	4.0218	7.500398	0.000218	2.180664	0.738829	0.000088
 103	1.0149e+01	4.0715	7.592050	0.000229	2.292754	0.776806	0.000092
 104	1.0248e+01	4.1020	7.681666	0.000224	2.241804	0.759544	0.000090
 105	1.0348e+01	4.1469	7.776577	0.000237	2.374274	0.804426	0.000095
 106	1.0447e+01	4.2031	7.864970	0.000221	2.211234	0.749186	0.000089
 107	1.0547e+01	4.2496	7.954178	0.000223	2.231614	0.756091	0.000090
 108	1.0646e+01	4.2913	8.052755	0.000247	2.465984	0.835498	0.000099
 109	1.0746e+01	4.2977	8.144814	0.000230	2.302944	0.780259	0.000093
 110	1.0845e+01	4.3362	8.238096	0.000233	2.333514	0.790616	0.000094
 111	1.0945e+01	4.3763	8.324860	0.000217	2.170474	0.735376	0.000087
 112	1.1044e+01	4.4357	8.424659	0.000250	2.496554	0.845856	0.000100
 113	1.1144e+01	4.4694	8.519977	0.000238	2.384464	0.807878	0.000096
 114	1.1243e+01	4.4967	8.612036	0.000230	2.302944	0.780259	0.000093
 115	1.1343e+01	4.5496	8.704503	0.000231	2.313134	0.783711	0.000093
 116	1.1443e+01	4.5817	8.793711	0.000223	2.231614	0.756091	0.000090
 117	1.1542e+01	4.6074	8.886585	0.000232	2.323324	0.787163	0.000093
 118	1.1642e+01	4.6828	8.981089	0.000236	2.364084	0.800973	0.000095
 119	1.1741e+01	4.7020	9.072333	0.000228	2.282564	0.773354	0.000092
 120	1.1841e+01	4.7389	9.156653	0.000211	2.109334	0.714662	0.000085
 121	1.1940e+01	4.7726	9.252379	0.000239	2.394654	0.811331	0.000096
 122	1.2040e+01	4.8608	9.343623	0.000228	2.282564	0.773354	0.000092
 123	1.2139e+01	4.8512	9.435276	-0.000229	-2.292754	-0.776806	0.000092
 124	1.2239e+01	4.8929	9.529372	0.000235	2.353894	0.797521	0.000095
 125	1.2338e+01	4.9378	9.614099	0.000212	2.119524	0.718114	0.000085
 126	1.2438e+01	4.9860	9.706973	0.000232	2.323324	0.787163	0.000093
 127	1.2537e+01	5.0261	9.792108	0.000213	2.129714	0.721567	0.000086
 128	1.2636e+01	5.0790	9.884574	0.000231	2.313134	0.783711	0.000093
 129	1.2736e+01	5.0983	9.967672	0.000208	2.078764	0.704304	0.000084
 130	1.2835e+01	5.1544	10.057288	0.000224	2.241804	0.759544	0.000090
 131	1.2935e+01	5.1977	10.138349	0.000203	2.027814	0.687042	0.000081
 132	1.3034e+01	5.2314	10.223891	0.000214	2.139904	0.725019	0.000086
 133	1.3134e+01	5.2667	10.314728	0.000227	2.272374	0.769901	0.000091
 134	1.3233e+01	5.2956	10.398641	0.000210	2.099144	0.711209	0.000084
 135	1.3333e+01	5.3517	10.485812	0.000218	2.180664	0.738829	0.000088
 136	1.3432e+01	5.3966	10.568910	0.000208	2.078764	0.704304	0.000084
 137	1.3532e+01	5.3998	10.654859	0.000215	2.150094	0.728471	0.000086
 138	1.3632e+01	5.4608	10.735920	0.000203	2.027814	0.687042	0.000081
 139	1.3731e+01	5.5137	10.821055	0.000213	2.129714	0.721567	0.000086
 140	1.3831e+01	5.5522	10.900079	0.000198	1.976863	0.669779	0.000079
 141	1.3930e+01	5.5940	10.989287	0.000223	2.231614	0.756091	0.000090
 142	1.4030e+01	5.6180	11.065460	0.000191	1.905533	0.645612	0.000077
 143	1.4129e+01	5.6533	11.148966	0.000209	2.088954	0.707757	0.000084
 144	1.4229e+01	5.7191	11.230841	0.000205	2.048194	0.693947	0.000082
 145	1.4328e+01	5.7720	11.316791	0.000215	2.150094	0.728471	0.000086
 146	1.4428e+01	5.7929	11.397445	0.000202	2.017623	0.683589	0.000081
 147	1.4527e+01	5.8105	11.477284	0.000200	1.997243	0.676684	0.000080
 148	1.4627e+01	5.8619	11.559974	0.000207	2.068574	0.700852	0.000083
 149	1.4726e+01	5.9036	11.646738	0.000217	2.170474	0.735376	0.000087
 150	1.4825e+01	5.9437	11.724541	0.000195	1.946293	0.659422	0.000078
 151	1.4925e+01	5.9790	11.803972	0.000199	1.987053	0.673232	0.000080
 152	1.5024e+01	6.0271	11.885034	0.000203	2.027814	0.687042	0.000081
 153	1.5124e+01	6.0608	11.968539	0.000209	2.088954	0.707757	0.000084
 154	1.5223e+01	6.0961	12.047156	0.000197	1.966673	0.666327	0.000079
 155	1.5323e+01	6.1554	12.130254	0.000208	2.078764	0.704304	0.000084
 156	1.5422e+01	6.1859	12.206834	0.000192	1.915723	0.649065	0.000077
 157	1.5522e+01	6.2148	12.285044	0.000196	1.956483	0.662875	0.000079
 158	1.5621e+01	6.2613	12.369771	0.000212	2.119524	0.718114	0.000085
 159	1.5721e+01	6.3014	12.449610	0.000200	1.997243	0.676684	0.000080
 160	1.5820e+01	6.3383	12.528228	0.000197	1.966673	0.666327	0.000079
 161	1.5920e+01	6.3688	12.605215	0.000193	1.925913	0.652517	0.000077
 162	1.6020e+01	6.4137	12.683832	0.000197	1.966673	0.666327	0.000079
 163	1.6119e+01	6.4731	12.765301	0.000204	2.038004	0.690494	0.000082
 164	1.6218e+01	6.5148	12.832105	0.000167	1.671163	0.566205	0.000067
 165	1.6318e+01	6.5613	12.910722	0.000197	1.966673	0.666327	0.000079
 166	1.6418e+01	6.5677	12.990154	0.000199	1.987053	0.673232	0.000080
 167	1.6517e+01	6.6094	13.062254	0.000180	1.803633	0.611087	0.000072
 168	1.6616e+01	6.6383	13.144537	0.000206	2.058384	0.697399	0.000083
 169	1.6716e+01	6.6832	13.217858	0.000183	1.834203	0.621445	0.000074
 170	1.6816e+01	6.7458	13.300142	0.000206	2.058384	0.697399	0.000083
 171	1.6915e+01	6.7795	13.375093	0.000187	1.874963	0.635255	0.000075
 172	1.7015e+01	6.8132	13.453710	0.000197	1.966673	0.666327	0.000079
 173	1.7114e+01	6.8565	13.527846	0.000185	1.854583	0.628350	0.000075
 174	1.7213e+01	6.9094	13.605649	0.000195	1.946293	0.659422	0.000078
 175	1.7313e+01	6.9431	13.678563	0.000182	1.824013	0.617992	0.000073
 176	1.7413e+01	7.0185	13.760439	0.000205	2.048194	0.693947	0.000082
 177	1.7512e+01	7.0073	13.835390	-0.000187	-1.874963	-0.635255	0.000075
 178	1.7611e+01	7.0666	13.907897	0.000181	1.813823	0.614540	0.000073
 179	1.7711e+01	7.1019	13.983255	0.000189	1.885153	0.638707	0.000076
 180	1.7811e+01	7.1469	14.058206	0.000187	1.874963	0.635255	0.000075
 181	1.7910e+01	7.1693	14.136416	0.000196	1.956483	0.662875	0.000079
 182	1.8009e+01	7.1886	14.209738	0.000183	1.834203	0.621445	0.000074
 183	1.8109e+01	7.2752	14.287947	0.000196	1.956483	0.662875	0.000079
 184	1.8209e+01	7.2912	14.361676	0.000184	1.844393	0.624897	0.000074
 185	1.8308e+01	7.3329	14.439479	0.000195	1.946293	0.659422	0.000078
 186	1.8407e+01	7.3682	14.510764	0.000178	1.783253	0.604183	0.000072
 187	1.8507e+01	7.4019	14.590196	0.000199	1.987053	0.673232	0.000080
 188	1.8607e+01	7.4565	14.663110	0.000182	1.824013	0.617992	0.000073
 189	1.8706e+01	7.5046	14.740505	0.000194	1.936103	0.655970	0.000078
 190	1.8805e+01	7.5415	14.813012	0.000181	1.813823	0.614540	0.000073
 191	1.8905e+01	7.5752	14.887148	0.000185	1.854583	0.628350	0.000075
 192	1.9005e+01	7.6185	14.959248	0.000180	1.803633	0.611087	0.000072
 193	1.9104e+01	7.6730	15.029718	0.000176	1.762873	0.597278	0.000071
 194	1.9203e+01	7.6859	15.101818	0.000180	1.803633	0.611087	0.000072
 195	1.9303e+01	7.7212	15.171881	0.000175	1.752683	0.593825	0.000070
 196	1.9402e+01	7.7645	15.236241	0.000161	1.610023	0.545490	0.000065
 197	1.9502e+01	7.8126	15.308340	0.000180	1.803633	0.611087	0.000072
 198	1.9602e+01	7.8479	15.378403	0.000175	1.752683	0.593825	0.000070
 199	1.9701e+01	7.8816	15.454169	0.000190	1.895343	0.642160	0.000076
 200	1.9800e+01	7.9217	15.517714	0.000159	1.589643	0.538586	0.000064
 201	1.9900e+01	7.9506	15.591036	0.000183	1.834203	0.621445	0.000074
 202	2.0000e+01	8.0180	15.662728	0.000179	1.793443	0.607635	0.000072
 203	2.0099e+01	8.0468	15.734828	0.000180	1.803633	0.611087	0.000072
 204	2.0198e+01	8.0693	15.800003	0.000163	1.630403	0.552395	0.000066
 205	2.0298e+01	8.1383	15.870066	0.000175	1.752683	0.593825	0.000070
 206	2.0398e+01	8.1655	15.937685	0.000169	1.691543	0.573110	0.000068
 207	2.0497e+01	8.2040	16.011821	0.000185	1.854583	0.628350	0.000075
 208	2.0596e+01	8.2425	16.077403	0.000164	1.640593	0.555848	0.000066
 209	2.0696e+01	8.2875	16.143393	0.000165	1.650783	0.559300	0.000066
 210	2.0796e+01	8.3131	16.215900	0.000181	1.813823	0.614540	0.000073
 211	2.0895e+01	8.3805	16.286370	0.000176	1.762873	0.597278	0.000071
 212	2.0994e+01	8.4030	16.360506	0.000185	1.854583	0.628350	0.000075
 213	2.1094e+01	8.4591	16.424052	0.000159	1.589643	0.538586	0.000064
 214	2.1194e+01	8.4864	16.502261	0.000196	1.956483	0.662875	0.000079
 215	2.1293e+01	8.5377	16.571510	0.000173	1.732303	0.586920	0.000070
 216	2.1392e+01	8.5714	16.646053	0.000186	1.864773	0.631802	0.000075
 217	2.1492e+01	8.6131	16.716116	0.000175	1.752683	0.593825	0.000070
 218	2.1591e+01	8.6548	16.790253	0.000185	1.854583	0.628350	0.000075
 219	2.1691e+01	8.6821	16.858279	0.000170	1.701733	0.576563	0.000068
 220	2.1791e+01	8.7174	16.933230	0.000187	1.874963	0.635255	0.000075
 221	2.1890e+01	8.7575	17.008588	0.000189	1.885153	0.638707	0.000076
 222	2.1989e+01	8.8233	17.078244	0.000174	1.742493	0.590373	0.000070
 223	2.2089e+01	8.8762	17.151565	0.000183	1.834203	0.621445	0.000074
 224	2.2189e+01	8.8971	17.226517	0.000187	1.874963	0.635255	0.000075
 225	2.2288e+01	8.9276	17.296172	0.000174	1.742493	0.590373	0.000070
 226	2.2387e+01	8.9725	17.364606	0.000171	1.711923	0.580015	0.000069
 227	2.2487e+01	9.0270	17.436705	0.000180	1.803633	0.611087	0.000072
 228	2.2587e+01	9.0527	17.513693	0.000193	1.925913	0.652517	0.000077
 229	2.2686e+01	9.0816	17.585793	0.000180	1.803633	0.611087	0.000072
 230	2.2785e+01	9.1233	17.653411	0.000169	1.691543	0.573110	0.000068
 231	2.2885e+01	9.1521	17.724696	0.000178	1.783253	0.604183	0.000072
 232	2.2985e+01	9.2035	17.796389	0.000179	1.793443	0.607635	0.000072
 233	2.3084e+01	9.2580	17.868896	0.000181	1.813823	0.614540	0.000073
 234	2.3183e+01	9.2757	17.943439	0.000186	1.864773	0.631802	0.000075
 235	2.3283e+01	9.3174	18.016354	0.000182	1.824013	0.617992	0.000073
 236	2.3383e+01	9.3639	18.084787	0.000171	1.711923	0.580015	0.000069
 237	2.3482e+01	9.4152	18.158516	0.000184	1.844393	0.624897	0.000074
 238	2.3581e+01	9.4393	18.229394	0.000177	1.773063	0.600730	0.000071
 239	2.3681e+01	9.4890	18.297420	0.000170	1.701733	0.576563	0.000068
 240	2.3780e+01	9.5275	18.370334	0.000182	1.824013	0.617992	0.000073
 241	2.3880e+01	9.5805	18.442434	0.000180	1.803633	0.611087	0.000072
 242	2.3980e+01	9.6238	18.511275	0.000172	1.722113	0.583468	0.000069
 243	2.4079e+01	9.6366	18.587041	0.000190	1.895343	0.642160	0.000076
 244	2.4178e+01	9.6815	18.650993	0.000160	1.599833	0.542038	0.000064
 245	2.4278e+01	9.7217	18.723093	0.000180	1.803633	0.611087	0.000072
 246	2.4378e+01	9.7794	18.793971	0.000177	1.773063	0.600730	0.000071
 247	2.4477e+01	9.8115	18.868514	0.000186	1.864773	0.631802	0.000075
 248	2.4576e+01	9.8532	18.938985	0.000176	1.762873	0.597278	0.000071
 249	2.4676e+01	9.8789	19.011084	0.000180	1.803633	0.611087	0.000072
 250	2.4776e+01	9.9527	19.083999	0.000182	1.824013	0.617992	0.000073
 251	2.4875e+01	9.9671	19.156913	0.000182	1.824013	0.617992	0.000073
 252	2.4974e+01	10.0120	19.224124	0.000168	1.681353	0.569658	0.000068
 253	2.5074e+01	10.0345	19.295409	0.000178	1.783253	0.604183	0.000072
 254	2.5174e+01	10.0970	19.368731	0.000183	1.834203	0.621445	0.000074
 255	2.5273e+01	10.1420	19.440016	0.000178	1.783253	0.604183	0.000072
 256	2.5372e+01	10.1676	19.508449	0.000171	1.711923	0.580015	0.000069
 257	2.5472e+01	10.2125	19.574439	0.000165	1.650783	0.559300	0.000066
 258	2.5572e+01	10.2302	19.647761	0.000183	1.834203	0.621445	0.000074
 259	2.5671e+01	10.2895	19.719860	0.000180	1.803633	0.611087	0.000072
 260	2.5770e+01	10.3168	19.792367	0.000181	1.813823	0.614540	0.000073
 261	2.5870e+01	10.3666	19.859986	0.000169	1.691543	0.573110	0.000068
 262	2.5970e+01	10.4291	19.934530	0.000186	1.864773	0.631802	0.000075
 263	2.6069e+01	10.4436	20.001334	0.000167	1.671163	0.566205	0.000067
 264	2.6169e+01	10.4805	20.075878	0.000186	1.864773	0.631802	0.000075
 265	2.6268e+01	10.5157	20.145941	0.000175	1.752683	0.593825	0.000070
 266	2.6367e+01	10.5446	20.214374	0.000171	1.711923	0.580015	0.000069
 267	2.6467e+01	10.6168	20.280364	0.000165	1.650783	0.559300	0.000066
 268	2.6567e+01	10.6361	20.351649	0.000178	1.783253	0.604183	0.000072
 269	2.6666e+01	10.6890	20.424563	0.000182	1.824013	0.617992	0.000073
 270	2.6765e+01	10.7291	20.492589	0.000170	1.701733	0.576563	0.000068
 271	2.6865e+01	10.7676	20.561430	0.000172	1.722113	0.583468	0.000069
 272	2.6965e+01	10.8109	20.631493	0.000175	1.752683	0.593825	0.000070
 273	2.7064e+01	10.8478	20.699112	0.000169	1.691543	0.573110	0.000068
 274	2.7163e+01	10.8927	20.767545	0.000171	1.711923	0.580015	0.000069
 275	2.7263e+01	10.9377	20.834349	0.000167	1.671163	0.566205	0.000067
 276	2.7363e+01	10.9553	20.912152	0.000195	1.946293	0.659422	0.000078
 277	2.7462e+01	10.9906	20.980993	0.000172	1.722113	0.583468	0.000069
 278	2.7561e+01	11.0532	21.057166	0.000191	1.905533	0.645612	0.000077
 279	2.7661e+01	11.0740	21.127636	0.000176	1.762873	0.597278	0.000071
 280	2.7761e+01	11.1173	21.201365	0.000184	1.844393	0.624897	0.000074
 281	2.7860e+01	11.1671	21.276723	0.000189	1.885153	0.638707	0.000076
 282	2.7959e+01	11.1975	21.346786	0.000175	1.752683	0.593825	0.000070
 283	2.8059e+01	11.2473	21.411554	0.000162	1.620213	0.548943	0.000065
 284	2.8159e+01	11.2826	21.488134	0.000192	1.915723	0.649065	0.000077
 285	2.8258e+01	11.3499	21.560234	0.000180	1.803633	0.611087	0.000072
 286	2.8358e+01	11.3724	21.629482	0.000173	1.732303	0.586920	0.000070
 287	2.8457e+01	11.4189	21.705655	0.000191	1.905533	0.645612	0.000077
 288	2.8556e+01	11.4253	21.770015	0.000161	1.610023	0.545490	0.000065
 289	2.8656e+01	11.5088	21.841300	0.000178	1.783253	0.604183	0.000072
 290	2.8756e+01	11.5023	21.917066	-0.000190	-1.895343	-0.642160	0.000076
 291	2.8855e+01	11.5681	21.989980	0.000182	1.824013	0.617992	0.000073
 292	2.8954e+01	11.6162	22.052711	0.000157	1.569263	0.531681	0.000063
 293	2.9054e+01	11.6419	22.128884	0.000191	1.905533	0.645612	0.000077
 294	2.9154e+01	11.6836	22.202613	0.000184	1.844393	0.624897	0.000074
 295	2.9253e+01	11.7205	22.273083	0.000176	1.762873	0.597278	0.000071
 296	2.9352e+01	11.7558	22.338666	0.000164	1.640593	0.555848	0.000066
 297	2.9452e+01	11.8007	22.405877	0.000168	1.681353	0.569658	0.000068
 298	2.9552e+01	11.8537	22.470237	0.000161	1.610023	0.545490	0.000065
 299	2.9651e+01	11.8826	22.538671	0.000171	1.711923	0.580015	0.000069
 300	2.9750e+01	11.9130	22.604253	0.000164	1.640593	0.555848	0.000066
 301	2.9850e+01	11.9403	22.671057	0.000167	1.671163	0.566205	0.000067
 302	2.9950e+01	11.9900	22.735010	0.000160	1.599833	0.542038	0.000064
 303	3.0049e+01	12.0414	22.803851	0.000172	1.722113	0.583468	0.000069
 304	3.0148e+01	12.0799	22.868211	0.000161	1.610023	0.545490	0.000065
 305	3.0248e+01	12.1200	22.936644	0.000171	1.711923	0.580015	0.000069
 306	3.0348e+01	12.1617	22.999375	0.000157	1.569263	0.531681	0.000063
 307	3.0447e+01	12.2259	23.066587	0.000168	1.681353	0.569658	0.000068
 308	3.0547e+01	12.2595	23.134206	0.000169	1.691543	0.573110	0.000068
 309	3.0646e+01	12.2868	23.195714	0.000154	1.538693	0.521323	0.000062
 310	3.0745e+01	12.3205	23.260889	0.000163	1.630403	0.552395	0.000066
 311	3.0845e+01	12.3494	23.327693	0.000167	1.671163	0.566205	0.000067
 312	3.0945e+01	12.3943	23.392868	0.000163	1.630403	0.552395	0.000066
 313	3.1044e+01	12.4408	23.461302	0.000171	1.711923	0.580015	0.000069
 314	3.1143e+01	12.4777	23.522403	0.000153	1.528503	0.517871	0.000061
 315	3.1243e+01	12.5034	23.584319	0.000155	1.548883	0.524776	0.000062
 316	3.1343e+01	12.5724	23.654789	0.000176	1.762873	0.597278	0.000071
 317	3.1442e+01	12.6029	23.719149	0.000161	1.610023	0.545490	0.000065
 318	3.1541e+01	12.6430	23.781065	0.000155	1.548883	0.524776	0.000062
 319	3.1641e+01	12.6927	23.844204	0.000158	1.579453	0.535133	0.000063
 320	3.1741e+01	12.7248	23.906527	0.000156	1.559073	0.528228	0.000063
 321	3.1840e+01	12.7553	23.972924	0.000166	1.660973	0.562753	0.000067
 322	3.1939e+01	12.8002	24.037284	0.000161	1.610023	0.545490	0.000065
 323	3.2039e+01	12.8290	24.099607	0.000156	1.559073	0.528228	0.000063
 324	3.2139e+01	12.8772	24.165190	0.000164	1.640593	0.555848	0.000066
 325	3.2238e+01	12.9221	24.226291	0.000153	1.528503	0.517871	0.000061
 326	3.2337e+01	12.9734	24.286578	0.000151	1.508123	0.510966	0.000061
 327	3.2437e+01	13.0055	24.346050	0.000149	1.487743	0.504061	0.000060
 328	3.2536e+01	13.0200	24.411632	0.000164	1.640593	0.555848	0.000066
 329	3.2636e+01	13.0841	24.473955	0.000156	1.559073	0.528228	0.000063
 330	3.2736e+01	13.1082	24.534649	0.000152	1.518313	0.514418	0.000061
 331	3.2835e+01	13.1483	24.594936	0.000151	1.508123	0.510966	0.000061
 332	3.2934e+01	13.1836	24.659296	0.000161	1.610023	0.545490	0.000065
 333	3.3034e+01	13.2253	24.718768	0.000149	1.487743	0.504061	0.000060
 334	3.3133e+01	13.2702	24.782721	0.000160	1.599833	0.542038	0.000064
 335	3.3233e+01	13.3007	24.842600	0.000150	1.497933	0.507513	0.000060
 336	3.3333e+01	13.3456	24.901258	0.000147	1.467363	0.497156	0.000059
 337	3.3432e+01	13.3986	24.964803	0.000159	1.589643	0.538586	0.000064
 338	3.3532e+01	13.4354	25.030792	0.000165	1.650783	0.559300	0.000066
 339	3.3631e+01	13.4675	25.091486	0.000152	1.518313	0.514418	0.000061
 340	3.3730e+01	13.5108	25.147700	0.000141	1.406222	0.476441	0.000056
 341	3.3830e+01	13.5397	25.215319	0.000169	1.691543	0.573110	0.000068
 342	3.3929e+01	13.5927	25.275198	0.000150	1.497933	0.507513	0.000060
 343	3.4029e+01	13.6408	25.339151	0.000160	1.599833	0.542038	0.000064
 344	3.4129e+01	13.6584	25.396179	0.000143	1.426602	0.483346	0.000057
 345	3.4228e+01	13.7258	25.461354	0.000163	1.630403	0.552395	0.000066
 346	3.4328e+01	13.7579	25.517567	0.000141	1.406222	0.476441	0.000056
 347	3.4427e+01	13.7964	25.583149	0.000164	1.640593	0.555848	0.000066
 348	3.4526e+01	13.8189	25.642214	0.000148	1.477553	0.500608	0.000059
 349	3.4626e+01	13.8750	25.703315	0.000153	1.528503	0.517871	0.000061
 350	3.4725e+01	13.9055	25.764009	0.000152	1.518313	0.514418	0.000061
 351	3.4825e+01	13.9841	25.824296	0.000151	1.508123	0.510966	0.000061
 352	3.4925e+01	13.9953	25.883360	0.000148	1.477553	0.500608	0.000059
 353	3.5024e+01	14.0210	25.951387	0.000170	1.701733	0.576563	0.000068
 354	3.5123e+01	14.0659	26.005156	0.000135	1.345082	0.455726	0.000054
 355	3.5223e+01	14.1108	26.068701	0.000159	1.589643	0.538586	0.000064
 356	3.5322e+01	14.1493	26.133061	0.000161	1.610023	0.545490	0.000065
 357	3.5422e+01	14.2007	26.192126	0.000148	1.477553	0.500608	0.000059
 358	3.5522e+01	14.2183	26.247932	0.000140	1.396032	0.472989	0.000056
 359	3.5621e+01	14.2648	26.307404	0.000149	1.487743	0.504061	0.000060
 360	3.5721e+01	14.3226	26.368098	0.000152	1.518313	0.514418	0.000061
 361	3.5820e+01	14.3210	26.426755	-0.000147	-1.467363	-0.497156	0.000059
 362	3.5919e+01	14.3836	26.479710	0.000132	1.324702	0.448821	0.000053
 363	3.6019e+01	14.4349	26.537553	0.000145	1.446983	0.490251	0.000058
 364	3.6118e+01	14.4622	26.598654	0.000153	1.528503	0.517871	0.000061
 365	3.6218e+01	14.5151	26.653645	0.000138	1.375652	0.466084	0.000055
 366	3.6318e+01	14.5408	26.703341	0.000124	1.243182	0.421202	0.000050
 367	3.6417e+01	14.5777	26.761184	0.000145	1.446983	0.490251	0.000058
 368	3.6517e+01	14.6162	26.819026	0.000145	1.446983	0.490251	0.000058
 369	3.6616e+01	14.6900	26.874832	0.000140	1.396032	0.472989	0.000056
 370	3.6715e+01	14.7076	26.935526	0.000152	1.518313	0.514418	0.000061
 371	3.6815e+01	14.7381	26.989703	0.000136	1.355272	0.459179	0.000054
 372	3.6914e+01	14.7654	27.044287	0.000137	1.365462	0.462631	0.000055
 373	3.7014e+01	14.8151	27.100500	0.000141	1.406222	0.476441	0.000056
 374	3.7114e+01	14.8793	27.157935	0.000144	1.436792	0.486798	0.000058
 375	3.7213e+01	14.9113	27.216185	0.000146	1.457173	0.493703	0.000059
 376	3.7313e+01	14.9531	27.272399	0.000141	1.406222	0.476441	0.000056
 377	3.7412e+01	14.9948	27.326168	0.000135	1.345082	0.455726	0.000054
 378	3.7511e+01	15.0124	27.382788	0.000142	1.416412	0.479894	0.000057
 379	3.7611e+01	15.0461	27.441446	0.000147	1.467363	0.497156	0.000059
 380	3.7711e+01	15.1167	27.502547	0.000153	1.528503	0.517871	0.000061
 381	3.7810e+01	15.1359	27.560390	0.000145	1.446983	0.490251	0.000058
 382	3.7910e+01	15.1889	27.618232	0.000145	1.446983	0.490251	0.000058
 383	3.8009e+01	15.2322	27.673224	0.000138	1.375652	0.466084	0.000055
 384	3.8108e+01	15.2579	27.736362	0.000158	1.579453	0.535133	0.000063
 385	3.8208e+01	15.3300	27.799092	0.000157	1.569263	0.531681	0.000063
 386	3.8307e+01	15.3669	27.860194	0.000153	1.528503	0.517871	0.000061
 387	3.8407e+01	15.3830	27.919258	0.000148	1.477553	0.500608	0.000059
 388	3.8507e+01	15.4231	27.977101	0.000145	1.446983	0.490251	0.000058
 389	3.8606e+01	15.4680	28.038203	0.000153	1.528503	0.517871	0.000061
 390	3.8706e+01	15.5065	28.097675	0.000149	1.487743	0.504061	0.000060
 391	3.8805e+01	15.5514	28.157147	0.000149	1.487743	0.504061	0.000060
 392	3.8904e+01	15.5867	28.215397	0.000146	1.457173	0.493703	0.000059
 393	3.9004e+01	15.6397	28.274054	0.000147	1.467363	0.497156	0.000059
 394	3.9103e+01	15.6846	28.337192	0.000158	1.579453	0.535133	0.000063
 395	3.9203e+01	15.6878	28.393813	0.000142	1.416412	0.479894	0.000057
 396	3.9303e+01	15.7327	28.455729	0.000155	1.548883	0.524776	0.000062
 397	3.9402e+01	15.7969	28.516015	0.000151	1.508123	0.510966	0.000061
 398	3.9502e+01	15.8001	28.575080	0.000148	1.477553	0.500608	0.000059
 399	3.9601e+01	15.8659	28.632923	0.000145	1.446983	0.490251	0.000058
 400	3.9700e+01	15.9012	28.690358	0.000144	1.436792	0.486798	0.000058
 401	3.9800e+01	15.9429	28.751867	0.000154	1.538693	0.521323	0.000062
 402	3.9900e+01	15.9862	28.810524	0.000147	1.467363	0.497156	0.000059
 403	3.9999e+01	16.0102	28.871218	0.000152	1.518313	0.514418	0.000061
 404	4.0099e+01	16.0696	28.931912	0.000152	1.518313	0.514418	0.000061
 405	4.0198e+01	16.0921	28.991791	0.000150	1.497933	0.507513	0.000060
 406	4.0297e+01	16.1434	29.048005	0.000141	1.406222	0.476441	0.000056
 407	4.0397e+01	16.1691	29.108291	0.000151	1.508123	0.510966	0.000061
 408	4.0496e+01	16.2156	29.172244	0.000160	1.599833	0.542038	0.000064
 409	4.0596e+01	16.2637	29.228865	0.000142	1.416412	0.479894	0.000057
 410	4.0696e+01	16.3022	29.291188	0.000156	1.559073	0.528228	0.000063
 411	4.0795e+01	16.3247	29.346587	0.000139	1.385842	0.469536	0.000056
 412	4.0895e+01	16.3824	29.406466	0.000150	1.497933	0.507513	0.000060
 413	4.0994e+01	16.4241	29.468790	0.000156	1.559073	0.528228	0.000063
 414	4.1093e+01	16.4594	29.526225	0.000144	1.436792	0.486798	0.000058
 415	4.1193e+01	16.5156	29.588548	0.000156	1.559073	0.528228	0.000063
 416	4.1292e+01	16.5509	29.651279	0.000157	1.569263	0.531681	0.000063
 417	4.1392e+01	16.5653	29.710751	0.000149	1.487743	0.504061	0.000060
 418	4.1492e+01	16.6231	29.772260	0.000154	1.538693	0.521323	0.000062
 419	4.1591e+01	16.6744	29.829288	0.000143	1.426602	0.483346	0.000057
 420	4.1691e+01	16.7017	29.891611	0.000156	1.559073	0.528228	0.000063
 421	4.1790e+01	16.7370	29.949454	0.000145	1.446983	0.490251	0.000058
 422	4.1889e+01	16.7626	30.014629	0.000163	1.630403	0.552395	0.000066
 423	4.1989e+01	16.8075	30.070842	0.000141	1.406222	0.476441	0.000056
 424	4.2089e+01	16.8316	30.130314	0.000149	1.487743	0.504061	0.000060
 425	4.2188e+01	16.8862	30.190601	0.000151	1.508123	0.510966	0.000061
 426	4.2288e+01	16.9375	30.250073	0.000149	1.487743	0.504061	0.000060
 427	4.2387e+01	16.9840	30.309137	0.000148	1.477553	0.500608	0.000059
 428	4.2486e+01	17.0081	30.369017	0.000150	1.497933	0.507513	0.000060
 429	4.2586e+01	17.0803	30.422786	0.000135	1.345082	0.455726	0.000054
 430	4.2685e+01	17.0947	30.490405	0.000169	1.691543	0.573110	0.000068
 431	4.2785e+01	17.1300	30.549877	0.000149	1.487743	0.504061	0.000060
 432	4.2885e+01	17.1653	30.611385	0.000154	1.538693	0.521323	0.000062
 433	4.2984e+01	17.2263	30.669228	0.000145	1.446983	0.490251	0.000058
 434	4.3084e+01	17.2583	30.730737	0.000154	1.538693	0.521323	0.000062
 435	4.3183e+01	17.3065	30.783284	0.000131	1.314512	0.445369	0.000053
 436	4.3282e+01	17.3257	30.847237	0.000160	1.599833	0.542038	0.000064
 437	4.3382e+01	17.3867	30.901821	0.000137	1.365462	0.462631	0.000055
 438	4.3481e+01	17.4139	30.962515	0.000152	1.518313	0.514418	0.000061
 439	4.3581e+01	17.4541	31.021579	0.000148	1.477553	0.500608	0.000059
 440	4.3681e+01	17.4861	31.081051	0.000149	1.487743	0.504061	0.000060
 441	4.3780e+01	17.5246	31.145004	0.000160	1.599833	0.542038	0.000064
 442	4.3880e+01	17.5792	31.202439	0.000144	1.436792	0.486798	0.000058
 443	4.3979e+01	17.6081	31.263133	0.000152	1.518313	0.514418	0.000061
 444	4.4078e+01	17.6434	31.324235	0.000153	1.528503	0.517871	0.000061
 445	4.4178e+01	17.7043	31.389817	0.000164	1.640593	0.555848	0.000066
 446	4.4278e+01	17.7428	31.447252	0.000144	1.436792	0.486798	0.000058
 447	4.4377e+01	17.7749	31.514871	0.000169	1.691543	0.573110	0.000068
 448	4.4477e+01	17.8166	31.577195	0.000156	1.559073	0.528228	0.000063
 449	4.4576e+01	17.8471	31.640333	0.000158	1.579453	0.535133	0.000063
 450	4.4675e+01	17.8904	31.698583	0.000146	1.457173	0.493703	0.000059
 451	4.4775e+01	17.9417	31.764572	0.000165	1.650783	0.559300	0.000066
 452	4.4874e+01	17.9690	31.824044	0.000149	1.487743	0.504061	0.000060
 453	4.4974e+01	18.0284	31.885553	0.000154	1.538693	0.521323	0.000062
 454	4.5074e+01	18.0540	31.948284	0.000157	1.569263	0.531681	0.000063
 455	4.5173e+01	18.1006	32.008163	0.000150	1.497933	0.507513	0.000060
 456	4.5273e+01	18.1359	32.070486	0.000156	1.559073	0.528228	0.000063
 457	4.5372e+01	18.1760	32.136069	0.000164	1.640593	0.555848	0.000066
 458	4.5471e+01	18.2064	32.198799	0.000157	1.569263	0.531681	0.000063
 459	4.5571e+01	18.2578	32.259086	0.000151	1.508123	0.510966	0.000061
 460	4.5670e+01	18.3011	32.315707	0.000142	1.416412	0.479894	0.000057
 461	4.5770e+01	18.3284	32.385770	0.000175	1.752683	0.593825	0.000070
 462	4.5870e+01	18.3749	32.444834	0.000148	1.477553	0.500608	0.000059
 463	4.5969e+01	18.4198	32.505121	0.000151	1.508123	0.510966	0.000061
 464	4.6069e+01	18.4439	32.561742	0.000142	1.416412	0.479894	0.000057
 465	4.6168e+01	18.4567	32.622843	0.000153	1.528503	0.517871	0.000061
 466	4.6267e+01	18.5610	32.680686	0.000145	1.446983	0.490251	0.000058
 467	4.6367e+01	18.5818	32.737306	0.000142	1.416412	0.479894	0.000057
 468	4.6467e+01	18.6300	32.795149	0.000145	1.446983	0.490251	0.000058
 469	4.6566e+01	18.6652	32.853399	0.000146	1.457173	0.493703	0.000059
 470	4.6666e+01	18.6941	32.911649	0.000146	1.457173	0.493703	0.000059
 471	4.6765e+01	18.7342	32.971121	0.000149	1.487743	0.504061	0.000060
 472	4.6864e+01	18.7856	33.027334	0.000141	1.406222	0.476441	0.000056
 473	4.6964e+01	18.8273	33.085177	0.000145	1.446983	0.490251	0.000058
 474	4.7063e+01	18.8513	33.143019	0.000145	1.446983	0.490251	0.000058
 475	4.7163e+01	18.8818	33.198011	0.000138	1.375652	0.466084	0.000055
 476	4.7263e+01	18.9203	33.257075	0.000148	1.477553	0.500608	0.000059
 477	4.7362e+01	18.9749	33.311659	0.000137	1.365462	0.462631	0.000055
 478	4.7462e+01	19.0118	33.371131	0.000149	1.487743	0.504061	0.000060
 479	4.7561e+01	19.0615	33.429381	0.000146	1.457173	0.493703	0.000059
 480	4.7660e+01	19.1064	33.487224	0.000145	1.446983	0.490251	0.000058
 481	4.7760e+01	19.1305	33.539771	0.000131	1.314512	0.445369	0.000053
 482	4.7859e+01	19.1722	33.600058	0.000151	1.508123	0.510966	0.000061
 483	4.7959e+01	19.1914	33.657493	0.000144	1.436792	0.486798	0.000058
 484	4.8059e+01	19.2331	33.714928	0.000144	1.436792	0.486798	0.000058
 485	4.8158e+01	19.2749	33.769105	0.000136	1.355272	0.459179	0.000054
 486	4.8258e+01	19.3246	33.822059	0.000132	1.324702	0.448821	0.000053
 487	4.8357e+01	19.3807	33.881939	0.000150	1.497933	0.507513	0.000060
 488	4.8456e+01	19.3952	33.933264	0.000128	1.283942	0.435011	0.000052
 489	4.8556e+01	19.4465	33.993143	0.000150	1.497933	0.507513	0.000060
 490	4.8656e+01	19.4946	34.051393	0.000146	1.457173	0.493703	0.000059
 491	4.8755e+01	19.5299	34.111273	0.000150	1.497933	0.507513	0.000060
 492	4.8855e+01	19.5716	34.163005	0.000129	1.294132	0.438464	0.000052
 493	4.8954e+01	19.6278	34.222477	0.000149	1.487743	0.504061	0.000060
 494	4.9053e+01	19.6326	34.275839	0.000133	1.334892	0.452274	0.000054
 495	4.9153e+01	19.6663	34.332460	0.000142	1.416412	0.479894	0.000057
 496	4.9252e+01	19.7321	34.381748	0.000123	1.232992	0.417749	0.000050
 497	4.9352e+01	19.7834	34.442849	0.000153	1.528503	0.517871	0.000061
 498	4.9452e+01	19.7962	34.497433	0.000137	1.365462	0.462631	0.000055
 499	4.9551e+01	19.8460	34.553239	0.000140	1.396032	0.472989	0.000056
 500	4.9651e+01	19.8732	34.609045	0.000140	1.396032	0.472989	0.000056
 501	4.9750e+01	19.9278	34.663629	0.000137	1.365462	0.462631	0.000055
 502	4.9849e+01	19.9759	34.719842	0.000141	1.406222	0.476441	0.000056
 503	4.9949e+01	19.9952	34.774834	0.000138	1.375652	0.466084	0.000055
 504	5.0048e+01	19.9727	34.738173	0.000092	0.917102	0.310722	-0.000037
 505	5.0148e+01	19.9454	34.698661	0.000099	0.988432	0.334890	-0.000040
 506	5.0248e+01	19.8797	34.654668	0.000110	1.100522	0.372867	-0.000044
 507	5.0347e+01	19.8283	34.610675	0.000110	1.100522	0.372867	-0.000044
 508	5.0447e+01	19.8155	34.571977	0.000097	0.968052	0.327985	-0.000039
 509	5.0546e+01	19.7738	34.532872	0.000098	0.978242	0.331437	-0.000039
 510	5.0645e+01	19.7385	34.488879	0.000110	1.100522	0.372867	-0.000044
 511	5.0745e+01	19.6871	34.446516	0.000106	1.059762	0.359057	-0.000043
 512	5.0844e+01	19.6663	34.402115	0.000111	1.110712	0.376319	-0.000045
 513	5.0944e+01	19.5957	34.356493	0.000114	1.141282	0.386677	-0.000046
 514	5.1044e+01	19.5781	34.310056	0.000116	1.161662	0.393582	-0.000047
 515	5.1143e+01	19.5396	34.270951	0.000098	0.978242	0.331437	-0.000039
 516	5.1242e+01	19.4786	34.224921	0.000115	1.151472	0.390129	-0.000046
 517	5.1342e+01	19.4561	34.180521	0.000111	1.110712	0.376319	-0.000045
 518	5.1441e+01	19.3920	34.133269	0.000118	1.182042	0.400487	-0.000047
 519	5.1541e+01	19.3647	34.088461	0.000112	1.120902	0.379772	-0.000045
 520	5.1641e+01	19.3358	34.046098	0.000106	1.059762	0.359057	-0.000043
 521	5.1740e+01	19.2909	34.002512	0.000109	1.090332	0.369414	-0.000044
 522	5.1840e+01	19.2412	33.955260	0.000118	1.182042	0.400487	-0.000047
 523	5.1939e+01	19.1898	33.905972	0.000123	1.232992	0.417749	-0.000050
 524	5.2038e+01	19.1626	33.862794	0.000108	1.080142	0.365962	-0.000043
 525	5.2138e+01	19.1369	33.813913	0.000122	1.222802	0.414297	-0.000049
 526	5.2237e+01	19.1016	33.771549	0.000106	1.059762	0.359057	-0.000043
 527	5.2337e+01	19.0503	33.720224	0.000128	1.283942	0.435011	-0.000052
 528	5.2437e+01	19.0134	33.670121	0.000125	1.253372	0.424654	-0.000050
 529	5.2536e+01	18.9733	33.617166	0.000132	1.324702	0.448821	-0.000053
 530	5.2636e+01	18.9235	33.569100	0.000120	1.202422	0.407392	-0.000048
 531	5.2735e+01	18.8770	33.514516	0.000137	1.365462	0.462631	-0.000055
 532	5.2834e+01	18.8385	33.465635	0.000122	1.222802	0.414297	-0.000049
 533	5.2934e+01	18.8112	33.412680	0.000132	1.324702	0.448821	-0.000053
 534	5.3033e+01	18.7631	33.362577	0.000125	1.253372	0.424654	-0.000050
 535	5.3133e+01	18.7310	33.311252	0.000128	1.283942	0.435011	-0.000052
 536	5.3233e+01	18.7086	33.261556	0.000124	1.243182	0.421202	-0.000050
 537	5.3332e+01	18.6428	33.208194	0.000133	1.334892	0.452274	-0.000054
 538	5.3431e+01	18.6107	33.162164	0.000115	1.151472	0.390129	-0.000046
 539	5.3531e+01	18.5706	33.111247	0.000127	1.273752	0.431559	-0.000051
 540	5.3630e+01	18.5481	33.055033	0.000141	1.406222	0.476441	-0.000056
 541	5.3730e+01	18.4952	33.001671	0.000133	1.334892	0.452274	-0.000054
 542	5.3830e+01	18.4439	32.947088	0.000137	1.365462	0.462631	-0.000055
 543	5.3929e+01	18.4230	32.898206	0.000122	1.222802	0.414297	-0.000049
 544	5.4029e+01	18.3653	32.847696	0.000126	1.263562	0.428106	-0.000051
 545	5.4128e+01	18.3268	32.793112	0.000137	1.365462	0.462631	-0.000055
 546	5.4227e+01	18.2915	32.739750	0.000133	1.334892	0.452274	-0.000054
 547	5.4327e+01	18.2706	32.689240	0.000126	1.263562	0.428106	-0.000051
 548	5.4426e+01	18.1968	32.640766	0.000121	1.212612	0.410844	-0.000049
 549	5.4526e+01	18.1711	32.591478	0.000123	1.232992	0.417749	-0.000050
 550	5.4626e+01	18.1198	32.543411	0.000120	1.202422	0.407392	-0.000048
 551	5.4725e+01	18.0974	32.494530	0.000122	1.222802	0.414297	-0.000049
 552	5.4825e+01	18.0605	32.444834	0.000124	1.243182	0.421202	-0.000050
 553	5.4924e+01	18.0268	32.394731	0.000125	1.253372	0.424654	-0.000050
 554	5.5023e+01	17.9818	32.342591	0.000130	1.304322	0.441916	-0.000052
 555	5.5123e+01	17.9401	32.293303	0.000123	1.232992	0.417749	-0.000050
 556	5.5222e+01	17.9048	32.245236	0.000120	1.202422	0.407392	-0.000048
 557	5.5322e+01	17.8583	32.202058	0.000108	1.080142	0.365962	-0.000043
 558	5.5422e+01	17.8150	32.145845	0.000141	1.406222	0.476441	-0.000056
 559	5.5521e+01	17.7813	32.103481	0.000106	1.059762	0.359057	-0.000043
 560	5.5620e+01	17.7139	32.051341	0.000130	1.304322	0.441916	-0.000052
 561	5.5720e+01	17.7171	32.000424	-0.000127	-1.273752	-0.431559	-0.000051
 562	5.5819e+01	17.6401	31.952764	0.000119	1.192232	0.403939	-0.000048
 563	5.5919e+01	17.6016	31.902254	0.000126	1.263562	0.428106	-0.000051
 564	5.6019e+01	17.5840	31.850929	0.000128	1.283942	0.435011	-0.000052
 565	5.6118e+01	17.5487	31.806528	0.000111	1.110712	0.376319	-0.000045
 566	5.6218e+01	17.5134	31.756833	0.000124	1.243182	0.421202	-0.000050
 567	5.6317e+01	17.4605	31.705507	0.000128	1.283942	0.435011	-0.000052
 568	5.6416e+01	17.4220	31.654182	0.000128	1.283942	0.435011	-0.000052
 569	5.6516e+01	17.3787	31.604894	0.000123	1.232992	0.417749	-0.000050
 570	5.6615e+01	17.3385	31.553976	0.000127	1.273752	0.431559	-0.000051
 571	5.6715e+01	17.2824	31.503058	0.000127	1.273752	0.431559	-0.000051
 572	5.6815e+01	17.2519	31.455399	0.000119	1.192232	0.403939	-0.000048
 573	5.6914e+01	17.2198	31.405296	0.000125	1.253372	0.424654	-0.000050
 574	5.7014e+01	17.1845	31.355600	0.000124	1.243182	0.421202	-0.000050
 575	5.7113e+01	17.1476	31.307941	0.000119	1.192232	0.403939	-0.000048
 576	5.7212e+01	17.1204	31.256616	0.000128	1.283942	0.435011	-0.000052
 577	5.7312e+01	17.0546	31.205698	0.000127	1.273752	0.431559	-0.000051
 578	5.7411e+01	17.0177	31.156817	0.000122	1.222802	0.414297	-0.000049
 579	5.7511e+01	16.9920	31.109158	0.000119	1.192232	0.403939	-0.000048
 580	5.7611e+01	16.9471	31.058240	0.000127	1.273752	0.431559	-0.000051
 581	5.7710e+01	16.8765	31.006915	0.000128	1.283942	0.435011	-0.000052
 582	5.7809e+01	16.8653	30.960071	0.000117	1.171852	0.397034	-0.000047
 583	5.7909e+01	16.8268	30.911190	0.000122	1.222802	0.414297	-0.000049
 584	5.8008e+01	16.7915	30.859864	0.000128	1.283942	0.435011	-0.000052
 585	5.8108e+01	16.7466	30.810169	0.000124	1.243182	0.421202	-0.000050
 586	5.8208e+01	16.6953	30.763732	0.000116	1.161662	0.393582	-0.000047
 587	5.8307e+01	16.6744	30.713628	0.000125	1.253372	0.424654	-0.000050
 588	5.8407e+01	16.5942	30.666377	0.000118	1.182042	0.400487	-0.000047
 589	5.8506e+01	16.5525	30.613015	0.000133	1.334892	0.452274	-0.000054
 590	5.8605e+01	16.5461	30.565763	0.000118	1.182042	0.400487	-0.000047
 591	5.8705e+01	16.4963	30.511586	0.000136	1.355272	0.459179	-0.000054
 592	5.8804e+01	16.4530	30.463113	0.000121	1.212612	0.410844	-0.000049
 593	5.8904e+01	16.4338	30.409343	0.000135	1.345082	0.455726	-0.000054
 594	5.9004e+01	16.3937	30.360870	0.000121	1.212612	0.410844	-0.000049
 595	5.9103e+01	16.3455	30.306693	0.000136	1.355272	0.459179	-0.000054
 596	5.9203e+01	16.3038	30.259034	0.000119	1.192232	0.403939	-0.000048
 597	5.9302e+01	16.2685	30.209746	0.000123	1.232992	0.417749	-0.000050
 598	5.9401e+01	16.2140	30.156384	0.000133	1.334892	0.452274	-0.000054
 599	5.9501e+01	16.1803	30.109539	0.000117	1.171852	0.397034	-0.000047
 600	5.9600e+01	16.1306	30.054548	0.000138	1.375652	0.466084	-0.000055
 601	5.9700e+01	16.0969	30.008926	0.000114	1.141282	0.386677	-0.000046
 602	5.9800e+01	16.0600	29.955971	0.000132	1.324702	0.448821	-0.000053
 603	5.9899e+01	16.0199	29.907905	0.000120	1.202422	0.407392	-0.000048
 604	5.9998e+01	15.9701	29.849655	0.000146	1.457173	0.493703	-0.000059
 605	6.0098e+01	15.9637	29.806069	0.000109	1.090332	0.369414	-0.000044
 606	6.0197e+01	15.8979	29.755966	0.000125	1.253372	0.424654	-0.000050
 607	6.0297e+01	15.8546	29.700975	0.000138	1.375652	0.466084	-0.000055
 608	6.0397e+01	15.8402	29.649650	0.000128	1.283942	0.435011	-0.000052
 609	6.0496e+01	15.7921	29.603620	0.000115	1.151472	0.390129	-0.000046
 610	6.0596e+01	15.7375	29.554331	0.000123	1.232992	0.417749	-0.000050
 611	6.0695e+01	15.6910	29.503414	0.000127	1.273752	0.431559	-0.000051
 612	6.0794e+01	15.6573	29.450866	0.000131	1.314512	0.445369	-0.000053
 613	6.0894e+01	15.6284	29.407281	0.000109	1.090332	0.369414	-0.000044
 614	6.0993e+01	15.5980	29.358400	0.000122	1.222802	0.414297	-0.000049
 615	6.1093e+01	15.5418	29.308297	0.000125	1.253372	0.424654	-0.000050
 616	6.1193e+01	15.5161	29.259823	0.000121	1.212612	0.410844	-0.000049
 617	6.1292e+01	15.4568	29.213793	0.000115	1.151472	0.390129	-0.000046
 618	6.1392e+01	15.4167	29.160839	0.000132	1.324702	0.448821	-0.000053
 619	6.1491e+01	15.3798	29.116031	0.000112	1.120902	0.379772	-0.000045
 620	6.1590e+01	15.3493	29.065113	0.000127	1.273752	0.431559	-0.000051
 621	6.1690e+01	15.3028	29.011751	0.000133	1.334892	0.452274	-0.000054
 622	6.1789e+01	15.2595	28.958797	0.000132	1.324702	0.448821	-0.000053
 623	6.1889e+01	15.2210	28.919284	0.000099	0.988432	0.334890	-0.000040
 624	6.1989e+01	15.1809	28.867145	0.000130	1.304322	0.441916	-0.000052
 625	6.2088e+01	15.1359	28.818263	0.000122	1.222802	0.414297	-0.000049
 626	6.2188e+01	15.1006	28.769790	0.000121	1.212612	0.410844	-0.000049
 627	6.2287e+01	15.0621	28.721723	0.000120	1.202422	0.407392	-0.000048
 628	6.2386e+01	15.0461	28.671620	0.000125	1.253372	0.424654	-0.000050
 629	6.2486e+01	14.9531	28.619480	0.000130	1.304322	0.441916	-0.000052
 630	6.2586e+01	14.9338	28.568970	0.000126	1.263562	0.428106	-0.000051
 631	6.2685e+01	14.9210	28.518867	0.000125	1.253372	0.424654	-0.000050
 632	6.2785e+01	14.8584	28.463061	0.000140	1.396032	0.472989	-0.000056
 633	6.2884e+01	14.8183	28.410106	0.000132	1.324702	0.448821	-0.000053
 634	6.2983e+01	14.7814	28.355522	0.000137	1.365462	0.462631	-0.000055
 635	6.3083e+01	14.7253	28.300124	0.000139	1.385842	0.469536	-0.000056
 636	6.3182e+01	14.7060	28.250428	0.000124	1.243182	0.421202	-0.000050
 637	6.3282e+01	14.6515	28.194622	0.000140	1.396032	0.472989	-0.000056
 638	6.3382e+01	14.6274	28.140445	0.000136	1.355272	0.459179	-0.000054
 639	6.3481e+01	14.5712	28.083825	0.000142	1.416412	0.479894	-0.000057
 640	6.3581e+01	14.5504	28.032907	0.000127	1.273752	0.431559	-0.000051
 641	6.3680e+01	14.5071	27.976694	0.000141	1.406222	0.476441	-0.000056
 642	6.3779e+01	14.4590	27.922110	0.000137	1.365462	0.462631	-0.000055
 643	6.3879e+01	14.4349	27.869563	0.000131	1.314512	0.445369	-0.000053
 644	6.3978e+01	14.4044	27.812127	0.000144	1.436792	0.486798	-0.000058
 645	6.4078e+01	14.3354	27.758766	0.000133	1.334892	0.452274	-0.000054
 646	6.4177e+01	14.3082	27.702552	0.000141	1.406222	0.476441	-0.000056
 647	6.4277e+01	14.2873	27.648376	0.000136	1.355272	0.459179	-0.000054
 648	6.4376e+01	14.2263	27.592977	0.000139	1.385842	0.469536	-0.000056
 649	6.4476e+01	14.1878	27.535542	0.000144	1.436792	0.486798	-0.000058
 650	6.4576e+01	14.1429	27.482995	0.000131	1.314512	0.445369	-0.000053
 651	6.4675e+01	14.0900	27.423523	0.000149	1.487743	0.504061	-0.000060
 652	6.4775e+01	14.0627	27.370568	0.000132	1.324702	0.448821	-0.000053
 653	6.4874e+01	14.0338	27.315577	0.000138	1.375652	0.466084	-0.000055
 654	6.4974e+01	13.9568	27.258549	0.000143	1.426602	0.483346	-0.000057
 655	6.5073e+01	13.9279	27.203558	0.000138	1.375652	0.466084	-0.000055
 656	6.5172e+01	13.8943	27.141642	0.000155	1.548883	0.524776	-0.000062
 657	6.5272e+01	13.8526	27.087872	0.000135	1.345082	0.455726	-0.000054
 658	6.5371e+01	13.8205	27.032881	0.000138	1.375652	0.466084	-0.000055
 659	6.5471e+01	13.7820	26.977075	0.000140	1.396032	0.472989	-0.000056
 660	6.5570e+01	13.7723	26.920047	0.000143	1.426602	0.483346	-0.000057
 661	6.5670e+01	13.7162	26.860575	0.000149	1.487743	0.504061	-0.000060
 662	6.5769e+01	13.6633	26.804769	0.000140	1.396032	0.472989	-0.000056
 663	6.5869e+01	13.6183	26.750593	0.000136	1.355272	0.459179	-0.000054
 664	6.5969e+01	13.5734	26.688269	0.000156	1.559073	0.528228	-0.000063
 665	6.6068e+01	13.5638	26.630834	0.000144	1.436792	0.486798	-0.000058
 666	6.6168e+01	13.5269	26.570955	0.000150	1.497933	0.507513	-0.000060
 667	6.6267e+01	13.4707	26.514334	0.000142	1.416412	0.479894	-0.000057
 668	6.6367e+01	13.4274	26.458528	0.000140	1.396032	0.472989	-0.000056
 669	6.6466e+01	13.3825	26.397834	0.000152	1.518313	0.514418	-0.000061
 670	6.6566e+01	13.3392	26.336733	0.000153	1.528503	0.517871	-0.000061
 671	6.6665e+01	13.3103	26.276853	0.000150	1.497933	0.507513	-0.000060
 672	6.6764e+01	13.2654	26.220640	0.000141	1.406222	0.476441	-0.000056
 673	6.6864e+01	13.2429	26.161983	0.000147	1.467363	0.497156	-0.000059
 674	6.6963e+01	13.1708	26.101696	0.000151	1.508123	0.510966	-0.000061
 675	6.7063e+01	13.1499	26.046705	0.000138	1.375652	0.466084	-0.000055
 676	6.7162e+01	13.1114	25.988455	0.000146	1.457173	0.493703	-0.000059
 677	6.7262e+01	13.0793	25.931834	0.000142	1.416412	0.479894	-0.000057
 678	6.7362e+01	13.0232	25.870733	0.000153	1.528503	0.517871	-0.000061
 679	6.7461e+01	12.9895	25.810446	0.000151	1.508123	0.510966	-0.000061
 680	6.7561e+01	12.9462	25.758306	0.000130	1.304322	0.441916	-0.000052
 681	6.7660e+01	12.9109	25.700464	0.000145	1.446983	0.490251	-0.000058
 682	6.7760e+01	12.8692	25.637326	0.000158	1.579453	0.535133	-0.000063
 683	6.7859e+01	12.8595	25.581927	0.000139	1.385842	0.469536	-0.000056
 684	6.7959e+01	12.8114	25.520826	0.000153	1.528503	0.517871	-0.000061
 685	6.8058e+01	12.7440	25.459724	0.000153	1.528503	0.517871	-0.000061
 686	6.8157e+01	12.7168	25.399845	0.000150	1.497933	0.507513	-0.000060
 687	6.8257e+01	12.6750	25.342817	0.000143	1.426602	0.483346	-0.000057
 688	6.8356e+01	12.6414	25.282123	0.000152	1.518313	0.514418	-0.000061
 689	6.8456e+01	12.5964	25.226317	0.000140	1.396032	0.472989	-0.000056
 690	6.8555e+01	12.5531	25.165215	0.000153	1.528503	0.517871	-0.000061
 691	6.8655e+01	12.5275	25.104521	0.000152	1.518313	0.514418	-0.000061
 692	6.8754e+01	12.4761	25.044642	0.000150	1.497933	0.507513	-0.000060
 693	6.8854e+01	12.4360	24.985985	0.000147	1.467363	0.497156	-0.000059
 694	6.8954e+01	12.4184	24.922032	0.000160	1.599833	0.542038	-0.000064
 695	6.9053e+01	12.3702	24.858487	0.000159	1.589643	0.538586	-0.000064
 696	6.9153e+01	12.3077	24.796978	0.000154	1.538693	0.521323	-0.000062
 697	6.9252e+01	12.2676	24.733432	0.000159	1.589643	0.538586	-0.000064
 698	6.9352e+01	12.2371	24.668665	0.000162	1.620213	0.548943	-0.000065
 699	6.9451e+01	12.1825	24.601453	0.000168	1.681353	0.569658	-0.000068
 700	6.9550e+01	12.1841	24.536279	-0.000163	-1.630403	-0.552395	-0.000066
 701	6.9650e+01	12.0911	24.474770	0.000154	1.538693	0.521323	-0.000062
 702	6.9749e+01	12.0815	24.410817	0.000160	1.599833	0.542038	-0.000064
 703	6.9849e+01	12.0366	24.348086	0.000157	1.569263	0.531681	-0.000063
 704	6.9948e+01	11.9997	24.287392	0.000152	1.518313	0.514418	-0.000061
 705	7.0048e+01	11.9547	24.223440	0.000160	1.599833	0.542038	-0.000064
 706	7.0147e+01	11.9275	24.159487	0.000160	1.599833	0.542038	-0.000064
 707	7.0247e+01	11.8938	24.097163	0.000156	1.559073	0.528228	-0.000063
 708	7.0347e+01	11.8489	24.028322	0.000172	1.722113	0.583468	-0.000069
 709	7.0446e+01	11.7847	23.963555	0.000162	1.620213	0.548943	-0.000065
 710	7.0546e+01	11.7638	23.899602	0.000160	1.599833	0.542038	-0.000064
 711	7.0645e+01	11.7189	23.835649	0.000160	1.599833	0.542038	-0.000064
 712	7.0745e+01	11.6660	23.773326	0.000156	1.559073	0.528228	-0.000063
 713	7.0844e+01	11.6467	23.708966	0.000161	1.610023	0.545490	-0.000065
 714	7.0944e+01	11.5810	23.642162	0.000167	1.671163	0.566205	-0.000067
 715	7.1043e+01	11.5633	23.585134	0.000143	1.426602	0.483346	-0.000057
 716	7.1142e+01	11.5104	23.524440	0.000152	1.518313	0.514418	-0.000061
 717	7.1242e+01	11.4783	23.458858	0.000164	1.640593	0.555848	-0.000066
 718	7.1341e+01	11.4478	23.396941	0.000155	1.548883	0.524776	-0.000062
 719	7.1441e+01	11.4061	23.335840	0.000153	1.528503	0.517871	-0.000061
 720	7.1540e+01	11.3516	23.276368	0.000149	1.487743	0.504061	-0.000060
 721	7.1640e+01	11.3227	23.214452	0.000155	1.548883	0.524776	-0.000062
 722	7.1740e+01	11.2505	23.151721	0.000157	1.569263	0.531681	-0.000063
 723	7.1839e+01	11.2425	23.090620	0.000153	1.528503	0.517871	-0.000061
 724	7.1939e+01	11.2008	23.031555	0.000148	1.477553	0.500608	-0.000059
 725	7.2038e+01	11.1783	22.968824	0.000157	1.569263	0.531681	-0.000063
 726	7.2138e+01	11.1173	22.908538	0.000151	1.508123	0.510966	-0.000061
 727	7.2237e+01	11.0852	22.845807	0.000157	1.569263	0.531681	-0.000063
 728	7.2337e+01	11.0291	22.784706	0.000153	1.528503	0.517871	-0.000061
 729	7.2436e+01	10.9826	22.726863	0.000145	1.446983	0.490251	-0.000058
 730	7.2535e+01	10.9601	22.663318	0.000159	1.589643	0.538586	-0.000064
 731	7.2635e+01	10.9056	22.603031	0.000151	1.508123	0.510966	-0.000061
 732	7.2734e+01	10.8703	22.539078	0.000160	1.599833	0.542038	-0.000064
 733	7.2834e+01	10.8446	22.480013	0.000148	1.477553	0.500608	-0.000059
 734	7.2933e+01	10.7837	22.413209	0.000167	1.671163	0.566205	-0.000067
 735	7.3033e+01	10.7676	22.355774	0.000144	1.436792	0.486798	-0.000058
 736	7.3132e+01	10.7131	22.296302	0.000149	1.487743	0.504061	-0.000060
 737	7.3232e+01	10.7050	22.232349	0.000160	1.599833	0.542038	-0.000064
 738	7.3332e+01	10.6120	22.171248	0.000153	1.528503	0.517871	-0.000061
 739	7.3431e+01	10.6040	22.108517	0.000157	1.569263	0.531681	-0.000063
 740	7.3531e+01	10.5591	22.048230	0.000151	1.508123	0.510966	-0.000061
 741	7.3630e+01	10.5398	21.987129	0.000153	1.528503	0.517871	-0.000061
 742	7.3730e+01	10.4756	21.924398	0.000157	1.569263	0.531681	-0.000063
 743	7.3829e+01	10.4355	21.862482	0.000155	1.548883	0.524776	-0.000062
 744	7.3928e+01	10.4067	21.804232	0.000146	1.457173	0.493703	-0.000059
 745	7.4028e+01	10.3569	21.737021	0.000168	1.681353	0.569658	-0.000068
 746	7.4127e+01	10.3329	21.678363	0.000147	1.467363	0.497156	-0.000059
 747	7.4227e+01	10.2815	21.615225	0.000158	1.579453	0.535133	-0.000063
 748	7.4326e+01	10.2430	21.553716	0.000154	1.538693	0.521323	-0.000062
 749	7.4426e+01	10.2190	21.492208	0.000154	1.538693	0.521323	-0.000062
 750	7.4525e+01	10.1692	21.433143	0.000148	1.477553	0.500608	-0.000059
 751	7.4625e+01	10.1355	21.367968	0.000163	1.630403	0.552395	-0.000066
 752	7.4725e+01	10.0858	21.310533	0.000144	1.436792	0.486798	-0.000058
 753	7.4824e+01	10.0521	21.245765	0.000162	1.620213	0.548943	-0.000065
 754	7.4924e+01	9.9767	21.183035	0.000157	1.569263	0.531681	-0.000063
 755	7.5023e+01	9.9767	21.124377	0.000147	1.467363	0.497156	-0.000059
 756	7.5123e+01	9.9190	21.062461	0.000155	1.548883	0.524776	-0.000062
 757	7.5222e+01	9.8821	20.998509	0.000160	1.599833	0.542038	-0.000064
 758	7.5322e+01	9.8516	20.932926	0.000164	1.640593	0.555848	-0.000066
 759	7.5421e+01	9.7987	20.872640	0.000151	1.508123	0.510966	-0.000061
 760	7.5520e+01	9.7602	20.810316	0.000156	1.559073	0.528228	-0.000063
 761	7.5620e+01	9.7040	20.745956	0.000161	1.610023	0.545490	-0.000065
 762	7.5719e+01	9.6799	20.683633	0.000156	1.559073	0.528228	-0.000063
 763	7.5819e+01	9.6527	20.624161	0.000149	1.487743	0.504061	-0.000060
 764	7.5918e+01	9.6078	20.558579	0.000164	1.640593	0.555848	-0.000066
 765	7.6018e+01	9.5692	20.498292	0.000151	1.508123	0.510966	-0.000061
 766	7.6118e+01	9.5067	20.433524	0.000162	1.620213	0.548943	-0.000065
 767	7.6217e+01	9.5035	20.370794	0.000157	1.569263	0.531681	-0.000063
 768	7.6317e+01	9.4570	20.312544	0.000146	1.457173	0.493703	-0.000059
 769	7.6416e+01	9.4201	20.246554	0.000165	1.650783	0.559300	-0.000066
 770	7.6516e+01	9.3687	20.178935	0.000169	1.691543	0.573110	-0.000068
 771	7.6615e+01	9.3334	20.117019	0.000155	1.548883	0.524776	-0.000062
 772	7.6715e+01	9.2933	20.052252	0.000162	1.620213	0.548943	-0.000065
 773	7.6814e+01	9.2484	19.986670	0.000164	1.640593	0.555848	-0.000066
 774	7.6913e+01	9.2067	19.922717	0.000160	1.599833	0.542038	-0.000064
 775	7.7013e+01	9.1858	19.858764	0.000160	1.599833	0.542038	-0.000064
 776	7.7112e+01	9.1345	19.797663	0.000153	1.528503	0.517871	-0.000061
 777	7.7212e+01	9.0800	19.736154	0.000154	1.538693	0.521323	-0.000062
 778	7.7311e+01	9.0623	19.671386	0.000162	1.620213	0.548943	-0.000065
 779	7.7411e+01	8.9997	19.607841	0.000159	1.589643	0.538586	-0.000064
 780	7.7510e+01	8.9628	19.547147	0.000152	1.518313	0.514418	-0.000061
 781	7.7610e+01	8.9356	19.487268	0.000150	1.497933	0.507513	-0.000060
 782	7.7710e+01	8.8907	19.426574	0.000152	1.518313	0.514418	-0.000061
 783	7.7809e+01	8.8570	19.369546	0.000143	1.426602	0.483346	-0.000057
 784	7.7909e+01	8.8169	19.308037	0.000154	1.538693	0.521323	-0.000062
 785	7.8008e+01	8.7607	19.244899	0.000158	1.579453	0.535133	-0.000063
 786	7.8108e+01	8.7447	19.184612	0.000151	1.508123	0.510966	-0.000061
 787	7.8207e+01	8.6917	19.119845	0.000162	1.620213	0.548943	-0.000065
 788	7.8306e+01	8.6613	19.055892	0.000160	1.599833	0.542038	-0.000064
 789	7.8406e+01	8.6244	18.995198	0.000152	1.518313	0.514418	-0.000061
 790	7.8505e+01	8.5794	18.933282	0.000155	1.548883	0.524776	-0.000062
 791	7.8605e+01	8.5329	18.868922	0.000161	1.610023	0.545490	-0.000065
 792	7.8704e+01	8.4816	18.807413	0.000154	1.538693	0.521323	-0.000062
 793	7.8804e+01	8.4687	18.744275	0.000158	1.579453	0.535133	-0.000063
 794	7.8903e+01	8.3998	18.686025	0.000146	1.457173	0.493703	-0.000059
 795	7.9003e+01	8.3597	18.625331	0.000152	1.518313	0.514418	-0.000061
 796	7.9103e+01	8.3147	18.558119	0.000168	1.681353	0.569658	-0.000068
 797	7.9202e+01	8.2891	18.492130	0.000165	1.650783	0.559300	-0.000066
 798	7.9302e+01	8.2442	18.429399	0.000157	1.569263	0.531681	-0.000063
 799	7.9401e+01	8.2265	18.361780	0.000169	1.691543	0.573110	-0.000068
 800	7.9501e+01	8.1736	18.296605	0.000163	1.630403	0.552395	-0.000066
 801	7.9600e+01	8.1142	18.229801	0.000167	1.671163	0.566205	-0.000067
 802	7.9700e+01	8.0805	18.156887	0.000182	1.824013	0.617992	-0.000073
 803	7.9799e+01	8.0693	18.097008	0.000150	1.497933	0.507513	-0.000060
 804	7.9898e+01	8.0212	18.022057	0.000187	1.874963	0.635255	-0.000075
 805	7.9998e+01	7.9602	17.954030	0.000170	1.701733	0.576563	-0.000068
 806	8.0097e+01	7.9249	17.887633	0.000166	1.660973	0.562753	-0.000067
 807	8.0197e+01	7.8864	17.823273	0.000161	1.610023	0.545490	-0.000065
 808	8.0296e+01	7.8447	17.752803	0.000176	1.762873	0.597278	-0.000071
 809	8.0396e+01	7.8110	17.684777	0.000170	1.701733	0.576563	-0.000068
 810	8.0496e+01	7.7837	17.614307	0.000176	1.762873	0.597278	-0.000071
 811	8.0595e+01	7.7324	17.546280	0.000170	1.701733	0.576563	-0.000068
 812	8.0695e+01	7.6843	17.483957	0.000156	1.559073	0.528228	-0.000063
 813	8.0794e+01	7.6618	17.412672	0.000178	1.783253	0.604183	-0.000072
 814	8.0894e+01	7.6089	17.340165	0.000181	1.813823	0.614540	-0.000073
 815	8.0993e+01	7.5736	17.272954	0.000168	1.681353	0.569658	-0.000068
 816	8.1093e+01	7.5415	17.203298	0.000174	1.742493	0.590373	-0.000070
 817	8.1192e+01	7.4918	17.131198	0.000180	1.803633	0.611087	-0.000072
 818	8.1291e+01	7.4340	17.061543	0.000174	1.742493	0.590373	-0.000070
 819	8.1391e+01	7.4116	16.993517	0.000170	1.701733	0.576563	-0.000068
 820	8.1490e+01	7.3763	16.918973	0.000186	1.864773	0.631802	-0.000075
 821	8.1590e+01	7.3394	16.853798	0.000163	1.630403	0.552395	-0.000066
 822	8.1689e+01	7.2993	16.782106	0.000179	1.793443	0.607635	-0.000072
 823	8.1789e+01	7.2575	16.710413	0.000179	1.793443	0.607635	-0.000072
 824	8.1888e+01	7.1966	16.636277	0.000185	1.854583	0.628350	-0.000075
 825	8.1988e+01	7.1661	16.568658	0.000169	1.691543	0.573110	-0.000068
 826	8.2088e+01	7.1469	16.494929	0.000184	1.844393	0.624897	-0.000074
 827	8.2187e+01	7.0955	16.424866	0.000175	1.752683	0.593825	-0.000070
 828	8.2287e+01	7.0474	16.351545	0.000183	1.834203	0.621445	-0.000074
 829	8.2386e+01	7.0137	16.282704	0.000172	1.722113	0.583468	-0.000069
 830	8.2486e+01	6.9656	16.208975	0.000184	1.844393	0.624897	-0.000074
 831	8.2585e+01	6.9271	16.132802	0.000191	1.905533	0.645612	-0.000077
 832	8.2684e+01	6.9014	16.065590	0.000168	1.681353	0.569658	-0.000068
 833	8.2784e+01	6.8388	15.989010	0.000192	1.915723	0.649065	-0.000077
 834	8.2883e+01	6.8084	15.916910	0.000180	1.803633	0.611087	-0.000072
 835	8.2983e+01	6.7634	15.841552	0.000189	1.885153	0.638707	-0.000076
 836	8.3082e+01	6.7410	15.772304	0.000173	1.732303	0.586920	-0.000070
 837	8.3182e+01	6.7025	15.695723	0.000192	1.915723	0.649065	-0.000077
 838	8.3281e+01	6.6560	15.623216	0.000181	1.813823	0.614540	-0.000073
 839	8.3381e+01	6.6046	15.548265	0.000187	1.874963	0.635255	-0.000075
 840	8.3481e+01	6.5998	15.475351	0.000182	1.824013	0.617992	-0.000073
 841	8.3580e+01	6.5180	15.403251	0.000180	1.803633	0.611087	-0.000072
 842	8.3680e+01	6.5036	15.327486	0.000190	1.895343	0.642160	-0.000076
 843	8.3779e+01	6.4554	15.256608	0.000177	1.773063	0.600730	-0.000071
 844	8.3879e+01	6.4330	15.186138	0.000176	1.762873	0.597278	-0.000071
 845	8.3978e+01	6.3848	15.109965	0.000191	1.905533	0.645612	-0.000077
 846	8.4078e+01	6.3175	15.032570	0.000194	1.936103	0.655970	-0.000078
 847	8.4177e+01	6.3127	14.958026	0.000186	1.864773	0.631802	-0.000075
 848	8.4276e+01	6.2726	14.888370	0.000174	1.742493	0.590373	-0.000070
 849	8.4376e+01	6.2196	14.811790	0.000192	1.915723	0.649065	-0.000077
 850	8.4475e+01	6.1699	14.731951	0.000200	1.997243	0.676684	-0.000080
 851	8.4575e+01	6.1474	14.659036	0.000182	1.824013	0.617992	-0.000073
 852	8.4674e+01	6.1057	14.586122	0.000182	1.824013	0.617992	-0.000073
 853	8.4774e+01	6.0560	14.510764	0.000189	1.885153	0.638707	-0.000076
 854	8.4874e+01	6.0223	14.428481	0.000206	2.058384	0.697399	-0.000083
 855	8.4973e+01	5.9950	14.356381	0.000180	1.803633	0.611087	-0.000072
 856	8.5073e+01	5.9373	14.285503	0.000177	1.773063	0.600730	-0.000071
 857	8.5172e+01	5.9036	14.207294	0.000196	1.956483	0.662875	-0.000079
 858	8.5272e+01	5.8490	14.127047	0.000201	2.007433	0.680137	-0.000081
 859	8.5371e+01	5.8169	14.057799	0.000173	1.732303	0.586920	-0.000070
 860	8.5471e+01	5.7929	13.976330	0.000204	2.038004	0.690494	-0.000082
 861	8.5570e+01	5.7544	13.901787	0.000186	1.864773	0.631802	-0.000075
 862	8.5669e+01	5.6998	13.819503	0.000206	2.058384	0.697399	-0.000083
 863	8.5769e+01	5.6485	13.741701	0.000195	1.946293	0.659422	-0.000078
 864	8.5868e+01	5.6341	13.658196	0.000209	2.088954	0.707757	-0.000084
 865	8.5968e+01	5.5763	13.579171	0.000198	1.976863	0.669779	-0.000079
 866	8.6067e+01	5.5410	13.499739	0.000199	1.987053	0.673232	-0.000080
 867	8.6167e+01	5.5105	13.418271	0.000204	2.038004	0.690494	-0.000082
 868	8.6266e+01	5.4817	13.336395	0.000205	2.048194	0.693947	-0.000082
 869	8.6366e+01	5.4400	13.259407	0.000193	1.925913	0.652517	-0.000077
 870	8.6466e+01	5.3870	13.175902	0.000209	2.088954	0.707757	-0.000084
 871	8.6565e+01	5.3485	13.097692	0.000196	1.956483	0.662875	-0.000079
 872	8.6665e+01	5.3196	13.008892	0.000222	2.221424	0.752639	-0.000089
 873	8.6764e+01	5.2683	12.938421	0.000176	1.762873	0.597278	-0.000071
 874	8.6864e+01	5.2282	12.852472	0.000215	2.150094	0.728471	-0.000086
 875	8.6963e+01	5.1865	12.767338	0.000213	2.129714	0.721567	-0.000086
 876	8.7063e+01	5.1400	12.683832	0.000209	2.088954	0.707757	-0.000084
 877	8.7162e+01	5.1079	12.602364	0.000204	2.038004	0.690494	-0.000082
 878	8.7261e+01	5.0774	12.523339	0.000198	1.976863	0.669779	-0.000079
 879	8.7361e+01	5.0357	12.437797	0.000214	2.139904	0.725019	-0.000086
 880	8.7460e+01	4.9876	12.358366	0.000199	1.987053	0.673232	-0.000080
 881	8.7560e+01	4.9651	12.279749	0.000197	1.966673	0.666327	-0.000079
 882	8.7659e+01	4.9073	12.196243	0.000209	2.088954	0.707757	-0.000084
 883	8.7759e+01	4.8640	12.114367	0.000205	2.048194	0.693947	-0.000082
 884	8.7859e+01	4.8191	12.034121	0.000201	2.007433	0.680137	-0.000081
 885	8.7958e+01	4.7806	11.952245	0.000205	2.048194	0.693947	-0.000082
 886	8.8058e+01	4.7485	11.874035	0.000196	1.956483	0.662875	-0.000079
 887	8.8157e+01	4.7020	11.798270	0.000190	1.895343	0.642160	-0.000076
 888	8.8257e+01	4.6651	11.715172	0.000208	2.078764	0.704304	-0.000084
 889	8.8356e+01	4.6170	11.638591	0.000192	1.915723	0.649065	-0.000077
 890	8.8456e+01	4.5913	11.559974	0.000197	1.966673	0.666327	-0.000079
 891	8.8555e+01	4.5496	11.480950	0.000198	1.976863	0.669779	-0.000079
 892	8.8654e+01	4.5127	11.397445	0.000209	2.088954	0.707757	-0.000084
 893	8.8754e+01	4.4582	11.314754	0.000207	2.068574	0.700852	-0.000083
 894	8.8853e+01	4.4309	11.234915	0.000200	1.997243	0.676684	-0.000080
 895	8.8953e+01	4.4036	11.157927	0.000193	1.925913	0.652517	-0.000077
 896	8.9052e+01	4.3507	11.076459	0.000204	2.038004	0.690494	-0.000082
 897	8.9152e+01	4.3042	10.995805	0.000202	2.017623	0.683589	-0.000081
 898	8.9251e+01	4.2801	10.917188	0.000197	1.966673	0.666327	-0.000079
 899	8.9351e+01	4.2400	10.832460	0.000212	2.119524	0.718114	-0.000085
 900	8.9451e+01	4.1854	10.748141	0.000211	2.109334	0.714662	-0.000085
 901	8.9550e+01	4.1469	10.671153	0.000193	1.925913	0.652517	-0.000077
 902	8.9650e+01	4.1004	10.591314	0.000200	1.997243	0.676684	-0.000080
 903	8.9749e+01	4.0876	10.507401	0.000210	2.099144	0.711209	-0.000084
 904	8.9849e+01	4.0186	10.421859	0.000214	2.139904	0.725019	-0.000086
 905	8.9948e+01	3.9961	10.344057	0.000195	1.946293	0.659422	-0.000078
 906	9.0047e+01	3.9480	10.261774	0.000206	2.058384	0.697399	-0.000083
 907	9.0147e+01	3.8999	10.181527	0.000201	2.007433	0.680137	-0.000081
 908	9.0246e+01	3.8774	10.095578	0.000215	2.150094	0.728471	-0.000086
 909	9.0346e+01	3.8052	10.016961	0.000197	1.966673	0.666327	-0.000079
 910	9.0445e+01	3.7988	9.930604	0.000216	2.160284	0.731924	-0.000087
 911	9.0545e+01	3.7523	9.847099	0.000209	2.088954	0.707757	-0.000084
 912	9.0644e+01	3.7186	9.766852	0.000201	2.007433	0.680137	-0.000081
 913	9.0744e+01	3.6785	9.687421	0.000199	1.987053	0.673232	-0.000080
 914	9.0844e+01	3.6368	9.599842	0.000219	2.190854	0.742281	-0.000088
 915	9.0943e+01	3.5967	9.520410	0.000199	1.987053	0.673232	-0.000080
 916	9.1043e+01	3.5518	9.434461	0.000215	2.150094	0.728471	-0.000086
 917	9.1142e+01	3.5229	9.353807	0.000202	2.017623	0.683589	-0.000081
 918	9.1242e+01	3.4651	9.273968	0.000200	1.997243	0.676684	-0.000080
 919	9.1341e+01	3.4363	9.192092	0.000205	2.048194	0.693947	-0.000082
 920	9.1441e+01	3.3785	9.105735	0.000216	2.160284	0.731924	-0.000087
 921	9.1540e+01	3.3304	9.020601	0.000213	2.129714	0.721567	-0.000086
 922	9.1639e+01	3.3224	8.935059	0.000214	2.139904	0.725019	-0.000086
 923	9.1739e+01	3.2678	8.856442	0.000197	1.966673	0.666327	-0.000079
 924	9.1838e+01	3.2245	8.766012	0.000226	2.262184	0.766449	-0.000091
 925	9.1938e+01	3.1908	8.686173	0.000200	1.997243	0.676684	-0.000080
 926	9.2037e+01	3.1491	8.599816	0.000216	2.160284	0.731924	-0.000087
 927	9.2137e+01	3.1074	8.510608	0.000223	2.231614	0.756091	-0.000090
 928	9.2237e+01	3.0753	8.429547	0.000203	2.027814	0.687042	-0.000081
 929	9.2336e+01	3.0256	8.341968	0.000219	2.190854	0.742281	-0.000088
 930	9.2436e+01	2.9951	8.256019	0.000215	2.150094	0.728471	-0.000086
 931	9.2535e+01	2.9550	8.174958	0.000203	2.027814	0.687042	-0.000081
 932	9.2635e+01	2.9197	8.088601	0.000216	2.160284	0.731924	-0.000087
 933	9.2734e+01	2.8475	7.994098	0.000236	2.364084	0.800973	-0.000095
 934	9.2834e+01	2.8331	7.908556	0.000214	2.139904	0.725019	-0.000086
 935	9.2933e+01	2.7978	7.826272	0.000206	2.058384	0.697399	-0.000083
 936	9.3032e+01	2.7561	7.742767	0.000209	2.088954	0.707757	-0.000084
 937	9.3132e+01	2.7256	7.656003	0.000217	2.170474	0.735376	-0.000087
 938	9.3231e+01	2.6582	7.567203	0.000222	2.221424	0.752639	-0.000089
 939	9.3331e+01	2.6390	7.478402	0.000222	2.221424	0.752639	-0.000089
 940	9.3430e+01	2.6149	7.391638	0.000217	2.170474	0.735376	-0.000087
 941	9.3530e+01	2.5459	7.302430	0.000223	2.231614	0.756091	-0.000090
 942	9.3629e+01	2.5202	7.210778	0.000229	2.292754	0.776806	-0.000092
 943	9.3729e+01	2.4785	7.121977	0.000222	2.221424	0.752639	-0.000089
 944	9.3829e+01	2.4176	7.039287	0.000207	2.068574	0.700852	-0.000083
 945	9.3928e+01	2.4063	6.949671	0.000224	2.241804	0.759544	-0.000090
 946	9.4028e+01	2.3566	6.863722	0.000215	2.150094	0.728471	-0.000086
 947	9.4127e+01	2.3133	6.772477	0.000228	2.282564	0.773354	-0.000092
 948	9.4227e+01	2.2941	6.693453	0.000198	1.976863	0.669779	-0.000079
 949	9.4326e+01	2.2411	6.603837	0.000224	2.241804	0.759544	-0.000090
 950	9.4425e+01	2.2010	6.520332	0.000209	2.088954	0.707757	-0.000084
 951	9.4525e+01	2.1400	6.434383	0.000215	2.150094	0.728471	-0.000086
 952	9.4624e+01	2.1160	6.342324	0.000230	2.302944	0.780259	-0.000093
 953	9.4724e+01	2.0711	6.261262	0.000203	2.027814	0.687042	-0.000081
 954	9.4823e+01	2.0422	6.168796	0.000231	2.313134	0.783711	-0.000093
 955	9.4923e+01	2.0021	6.082846	0.000215	2.150094	0.728471	-0.000086
 956	9.5022e+01	1.9732	5.987528	0.000238	2.384464	0.807878	-0.000096
 957	9.5122e+01	1.9155	5.903616	0.000210	2.099144	0.711209	-0.000084
 958	9.5222e+01	1.8866	5.814000	0.000224	2.241804	0.759544	-0.000090
 959	9.5321e+01	1.8224	5.728458	0.000214	2.139904	0.725019	-0.000086
 960	9.5421e+01	1.7935	5.638028	0.000226	2.262184	0.766449	-0.000091
 961	9.5520e+01	1.7486	5.550450	0.000219	2.190854	0.742281	-0.000088
 962	9.5620e+01	1.7133	5.464093	0.000216	2.160284	0.731924	-0.000087
 963	9.5719e+01	1.6764	5.372848	0.000228	2.282564	0.773354	-0.000092
 964	9.5819e+01	1.6508	5.282418	0.000226	2.262184	0.766449	-0.000091
 965	9.5918e+01	1.6171	5.190766	0.000229	2.292754	0.776806	-0.000092
 966	9.6017e+01	1.5449	5.095855	0.000237	2.374274	0.804426	-0.000095
 967	9.6117e+01	1.5288	5.001759	0.000235	2.353894	0.797521	-0.000095
 968	9.6216e+01	1.4599	4.908478	0.000233	2.333514	0.790616	-0.000094
 969	9.6316e+01	1.4406	4.818048	0.000226	2.262184	0.766449	-0.000091
 970	9.6415e+01	1.3893	4.719063	0.000248	2.476174	0.838951	-0.000099
 971	9.6515e+01	1.3700	4.622931	0.000240	2.404844	0.814783	-0.000097
 972	9.6615e+01	1.3331	4.527205	0.000239	2.394654	0.811331	-0.000096
 973	9.6714e+01	1.2754	4.435960	0.000228	2.282564	0.773354	-0.000092
 974	9.6814e+01	1.2561	4.332903	0.000258	2.578074	0.873475	-0.000104
 975	9.6913e+01	1.1984	4.240436	0.000231	2.313134	0.783711	-0.000093
 976	9.7013e+01	1.1631	4.144710	0.000239	2.394654	0.811331	-0.000096
 977	9.7112e+01	1.1358	4.045726	0.000248	2.476174	0.838951	-0.000099
 978	9.7212e+01	1.0829	3.944298	0.000254	2.537314	0.859665	-0.000102
 979	9.7311e+01	1.0460	3.848165	0.000240	2.404844	0.814783	-0.000097
 980	9.7410e+01	0.9930	3.752847	0.000238	2.384464	0.807878	-0.000096
 981	9.7510e+01	0.9641	3.653455	0.000249	2.486364	0.842403	-0.000100
 982	9.7609e+01	0.9305	3.557323	0.000240	2.404844	0.814783	-0.000097
 983	9.7709e+01	0.8631	3.457931	0.000249	2.486364	0.842403	-0.000100
 984	9.7808e+01	0.8551	3.358132	0.000250	2.496554	0.845856	-0.000100
 985	9.7908e+01	0.7925	3.255482	0.000257	2.567884	0.870023	-0.000103
 986	9.8007e+01	0.7748	3.163830	0.000229	2.292754	0.776806	-0.000092
 987	9.8107e+01	0.6930	3.061587	0.000256	2.557694	0.866570	-0.000103
 988	9.8207e+01	0.6946	2.962195	-0.000249	-2.486364	-0.842403	-0.000100
 989	9.8306e+01	0.6449	2.858730	0.000259	2.588264	0.876928	-0.000104
 990	9.8406e+01	0.6016	2.756894	0.000255	2.547504	0.863118	-0.000102
 991	9.8505e+01	0.5503	2.663206	0.000234	2.343704	0.794068	-0.000094
 992	9.8605e+01	0.5310	2.562999	0.000251	2.506744	0.849308	-0.000101
 993	9.8704e+01	0.4668	2.459534	0.000259	2.588264	0.876928	-0.000104
 994	9.8803e+01	0.4428	2.360143	0.000249	2.486364	0.842403	-0.000100
 995	9.8903e+01	0.3866	2.252604	0.000269	2.690165	0.911452	-0.000108
 996	9.9002e+01	0.3722	2.154435	0.000246	2.455794	0.832046	-0.000099
 997	9.9102e+01	0.3449	2.053821	0.000252	2.516934	0.852760	-0.000101
 998	9.9201e+01	0.2839	1.953615	0.000251	2.506744	0.849308	-0.000101
 999	9.9301e+01	0.2310	1.848113	0.000264	2.639215	0.894190	-0.000106
1000	9.9400e+01	0.2053	1.749536	0.000247	2.465984	0.835498	-0.000099
1001	9.9500e+01	0.1636	1.640776	0.000272	2.720735	0.921810	-0.000109
1002	9.9600e+01	0.1364	1.533237	0.000269	2.690165	0.911452	-0.000108
1003	9.9699e+01	0.1075	1.435475	0.000245	2.445604	0.828593	-0.000098
1004	9.9799e+01	0.0385	1.326307	0.000273	2.730925	0.925262	-0.000110
1005	9.9898e+01	0.0225	1.248505	0.000195	1.946293	0.659422	-0.000078
1006	9.9998e+01	-0.0385	1.145040	0.000259	2.588264	0.876928	-0.000104
1007	1.0010e+02	-0.0818	1.041982	0.000258	2.578074	0.873475	-0.000104
1008	1.0020e+02	-0.1203	0.936888	0.000263	2.629025	0.890738	-0.000106
1009	1.0030e+02	-0.1556	0.834238	0.000257	2.567884	0.870023	-0.000103
1010	1.0040e+02	-0.1941	0.727921	0.000266	2.659595	0.901095	-0.000107
1011	1.0050e+02	-0.2406	0.627715	0.000251	2.506744	0.849308	-0.000101
1012	1.0059e+02	-0.2711	0.521398	0.000266	2.659595	0.901095	-0.000107
1013	1.0069e+02	-0.3112	0.417526	0.000260	2.598454	0.880380	-0.000104
1014	1.0079e+02	-0.3401	0.316913	0.000252	2.516934	0.852760	-0.000101
1015	1.0089e+02	-0.3593	0.213040	0.000260	2.598454	0.880380	-0.000104
1016	1.0099e+02	-0.4219	0.102243	0.000277	2.771685	0.939072	-0.000111
1017	1.0109e+02	-0.4652	-0.000407	0.000257	2.567884	0.870023	-0.000103
1018	1.0119e+02	-0.5118	-0.111612	0.000278	2.781875	0.942525	-0.000112
1019	1.0129e+02	-0.5519	-0.209374	0.000245	2.445604	0.828593	-0.000098
1020	1.0139e+02	-0.5823	-0.315283	0.000265	2.649405	0.897643	-0.000106
1021	1.0149e+02	-0.6305	-0.420378	0.000263	2.629025	0.890738	-0.000106
1022	1.0159e+02	-0.6593	-0.521398	0.000253	2.527124	0.856213	-0.000102
1023	1.0169e+02	-0.7203	-0.624863	0.000259	2.588264	0.876928	-0.000104
1024	1.0179e+02	-0.7588	-0.731995	0.000268	2.679975	0.908000	-0.000108
1025	1.0189e+02	-0.7909	-0.834645	0.000257	2.567884	0.870023	-0.000103
1026	1.0199e+02	-0.8310	-0.943405	0.000272	2.720735	0.921810	-0.000109
1027	1.0209e+02	-0.8551	-1.041982	0.000247	2.465984	0.835498	-0.000099
1028	1.0219e+02	-0.9000	-1.151557	0.000274	2.741115	0.928715	-0.000110
1029	1.0229e+02	-0.9449	-1.259503	0.000270	2.700355	0.914905	-0.000108
1030	1.0239e+02	-0.9770	-1.362561	0.000258	2.578074	0.873475	-0.000104
1031	1.0248e+02	-1.0091	-1.470099	0.000269	2.690165	0.911452	-0.000108
1032	1.0258e+02	-1.0636	-1.579267	0.000273	2.730925	0.925262	-0.000110
1033	1.0268e+02	-1.1053	-1.692508	0.000283	2.832825	0.959787	-0.000114
1034	1.0278e+02	-1.1390	-1.796788	0.000261	2.608645	0.883833	-0.000105
1035	1.0288e+02	-1.1855	-1.903104	0.000266	2.659595	0.901095	-0.000107
1036	1.0298e+02	-1.2144	-2.008199	0.000263	2.629025	0.890738	-0.000106
1037	1.0308e+02	-1.2433	-2.123069	0.000287	2.873585	0.973597	-0.000115
1038	1.0318e+02	-1.2946	-2.218388	0.000238	2.384464	0.807878	-0.000096
1039	1.0328e+02	-1.3540	-2.332036	0.000284	2.843015	0.963240	-0.000114
1040	1.0338e+02	-1.3845	-2.439982	0.000270	2.700355	0.914905	-0.000108
1041	1.0348e+02	-1.4262	-2.543854	0.000260	2.598454	0.880380	-0.000104
1042	1.0358e+02	-1.4759	-2.644468	0.000252	2.516934	0.852760	-0.000101
1043	1.0368e+02	-1.4967	-2.754043	0.000274	2.741115	0.928715	-0.000110
1044	1.0378e+02	-1.5449	-2.863618	0.000274	2.741115	0.928715	-0.000110
1045	1.0388e+02	-1.5850	-2.963417	0.000250	2.496554	0.845856	-0.000100
1046	1.0398e+02	-1.6283	-3.075436	0.000280	2.802255	0.949430	-0.000113
1047	1.0408e+02	-1.6411	-3.182160	0.000267	2.669785	0.904548	-0.000107
1048	1.0418e+02	-1.6989	-3.282366	0.000251	2.506744	0.849308	-0.000101
1049	1.0428e+02	-1.7422	-3.387868	0.000264	2.639215	0.894190	-0.000106
1050	1.0438e+02	-1.7679	-3.487667	0.000250	2.496554	0.845856	-0.000100
1051	1.0447e+02	-1.8032	-3.591539	0.000260	2.598454	0.880380	-0.000104
1052	1.0457e+02	-1.8737	-3.688487	0.000243	2.425224	0.821688	-0.000097
1053	1.0467e+02	-1.9042	-3.792766	0.000261	2.608645	0.883833	-0.000105
1054	1.0477e+02	-1.9267	-3.890529	0.000245	2.445604	0.828593	-0.000098
1055	1.0487e+02	-1.9860	-3.993586	0.000258	2.578074	0.873475	-0.000104
1056	1.0497e+02	-2.0213	-4.094607	0.000253	2.527124	0.856213	-0.000102
1057	1.0507e+02	-2.0454	-4.192370	0.000245	2.445604	0.828593	-0.000098
1058	1.0517e+02	-2.1048	-4.289317	0.000243	2.425224	0.821688	-0.000097
1059	1.0527e+02	-2.1497	-4.382599	0.000233	2.333514	0.790616	-0.000094
1060	1.0537e+02	-2.1802	-4.490544	0.000270	2.700355	0.914905	-0.000108
1061	1.0547e+02	-2.2219	-4.585455	0.000237	2.374274	0.804426	-0.000095
1062	1.0557e+02	-2.2588	-4.684847	0.000249	2.486364	0.842403	-0.000100
1063	1.0567e+02	-2.3005	-4.782202	0.000244	2.435414	0.825141	-0.000098
1064	1.0577e+02	-2.3518	-4.880371	0.000246	2.455794	0.832046	-0.000099
1065	1.0587e+02	-2.3791	-4.979355	0.000248	2.476174	0.838951	-0.000099
1066	1.0597e+02	-2.4256	-5.075896	0.000242	2.415034	0.818236	-0.000097
1067	1.0607e+02	-2.4561	-5.166733	0.000227	2.272374	0.769901	-0.000091
1068	1.0617e+02	-2.5010	-5.266939	0.000251	2.506744	0.849308	-0.000101
1069	1.0627e+02	-2.5347	-5.361443	0.000236	2.364084	0.800973	-0.000095
1070	1.0637e+02	-2.5973	-5.455539	0.000235	2.353894	0.797521	-0.000095
1071	1.0647e+02	-2.6181	-5.548006	0.000231	2.313134	0.783711	-0.000093
1072	1.0656e+02	-2.6486	-5.646990	0.000248	2.476174	0.838951	-0.000099
1073	1.0666e+02	-2.7031	-5.741493	0.000236	2.364084	0.800973	-0.000095
1074	1.0676e+02	-2.7336	-5.834367	0.000232	2.323324	0.787163	-0.000093
1075	1.0686e+02	-2.7753	-5.931722	0.000244	2.435414	0.825141	-0.000098
1076	1.0696e+02	-2.8122	-6.025411	0.000234	2.343704	0.794068	-0.000094
1077	1.0706e+02	-2.8587	-6.116248	0.000227	2.272374	0.769901	-0.000091
1078	1.0716e+02	-2.9069	-6.211567	0.000238	2.384464	0.807878	-0.000096
1079	1.0726e+02	-2.9438	-6.307699	0.000240	2.404844	0.814783	-0.000097
1080	1.0736e+02	-2.9678	-6.393241	0.000214	2.139904	0.725019	-0.000086
1081	1.0746e+02	-3.0063	-6.489374	0.000240	2.404844	0.814783	-0.000097
1082	1.0756e+02	-3.0609	-6.580619	0.000228	2.282564	0.773354	-0.000092
1083	1.0766e+02	-3.1074	-6.668605	0.000220	2.201044	0.745734	-0.000088
1084	1.0776e+02	-3.1202	-6.758220	0.000224	2.241804	0.759544	-0.000090
1085	1.0786e+02	-3.1668	-6.843762	0.000214	2.139904	0.725019	-0.000086
1086	1.0796e+02	-3.2037	-6.932563	0.000222	2.221424	0.752639	-0.000089
1087	1.0806e+02	-3.2486	-7.028696	0.000240	2.404844	0.814783	-0.000097
1088	1.0816e+02	-3.2903	-7.116274	0.000219	2.190854	0.742281	-0.000088
1089	1.0826e+02	-3.3256	-7.207112	0.000227	2.272374	0.769901	-0.000091
1090	1.0836e+02	-3.3785	-7.291839	0.000212	2.119524	0.718114	-0.000085
1091	1.0845e+02	-3.4363	-7.381047	0.000223	2.231614	0.756091	-0.000090
1092	1.0855e+02	-3.4539	-7.474736	0.000234	2.343704	0.794068	-0.000094
1093	1.0865e+02	-3.5036	-7.558648	0.000210	2.099144	0.711209	-0.000084
1094	1.0875e+02	-3.5357	-7.645820	0.000218	2.180664	0.738829	-0.000088
1095	1.0885e+02	-3.5967	-7.737064	0.000228	2.282564	0.773354	-0.000092
1096	1.0895e+02	-3.6272	-7.824643	0.000219	2.190854	0.742281	-0.000088
1097	1.0905e+02	-3.6929	-7.912629	0.000220	2.201044	0.745734	-0.000088
1098	1.0915e+02	-3.6962	-7.995320	0.000207	2.068574	0.700852	-0.000083
1099	1.0925e+02	-3.7475	-8.083713	0.000221	2.211234	0.749186	-0.000089
1100	1.0935e+02	-3.7716	-8.169255	0.000214	2.139904	0.725019	-0.000086
1101	1.0945e+02	-3.8101	-8.259278	0.000225	2.251994	0.762996	-0.000090
1102	1.0955e+02	-3.8470	-8.339117	0.000200	1.997243	0.676684	-0.000080
1103	1.0965e+02	-3.8999	-8.428325	0.000223	2.231614	0.756091	-0.000090
1104	1.0975e+02	-3.9175	-8.512645	0.000211	2.109334	0.714662	-0.000085
1105	1.0985e+02	-3.9657	-8.599816	0.000218	2.180664	0.738829	-0.000088
1106	1.0995e+02	-4.0250	-8.682914	0.000208	2.078764	0.704304	-0.000084
1107	1.1005e+02	-4.0491	-8.770085	0.000218	2.180664	0.738829	-0.000088
1108	1.1015e+02	-4.1020	-8.858886	0.000222	2.221424	0.752639	-0.000089
1109	1.1025e+02	-4.1485	-8.939132	0.000201	2.007433	0.680137	-0.000081
1110	1.1035e+02	-4.1774	-9.023452	0.000211	2.109334	0.714662	-0.000085
1111	1.1044e+02	-4.2127	-9.103291	0.000200	1.997243	0.676684	-0.000080
1112	1.1054e+02	-4.2544	-9.186389	0.000208	2.078764	0.704304	-0.000084
1113	1.1064e+02	-4.3042	-9.268672	0.000206	2.058384	0.697399	-0.000083
1114	1.1074e+02	-4.3330	-9.351770	0.000208	2.078764	0.704304	-0.000084
1115	1.1084e+02	-4.3475	-9.428758	0.000193	1.925913	0.652517	-0.000077
1116	1.1094e+02	-4.4277	-9.506560	0.000195	1.946293	0.659422	-0.000078
1117	1.1104e+02	-4.4389	-9.587214	0.000202	2.017623	0.683589	-0.000081
1118	1.1114e+02	-4.4902	-9.667461	0.000201	2.007433	0.680137	-0.000081
1119	1.1124e+02	-4.5239	-9.739968	0.000181	1.813823	0.614540	-0.000073
1120	1.1134e+02	-4.5608	-9.816955	0.000193	1.925913	0.652517	-0.000077
1121	1.1144e+02	-4.6186	-9.899646	0.000207	2.068574	0.700852	-0.000083
1122	1.1154e+02	-4.6635	-9.978263	0.000197	1.966673	0.666327	-0.000079
1123	1.1164e+02	-4.6892	-10.056880	0.000197	1.966673	0.666327	-0.000079
1124	1.1174e+02	-4.7437	-10.135497	0.000197	1.966673	0.666327	-0.000079
1125	1.1184e+02	-4.7646	-10.215337	0.000200	1.997243	0.676684	-0.000080
1126	1.1194e+02	-4.7951	-10.289473	0.000185	1.854583	0.628350	-0.000075
1127	1.1204e+02	-4.8528	-10.370941	0.000204	2.038004	0.690494	-0.000082
1128	1.1214e+02	-4.8977	-10.445485	0.000186	1.864773	0.631802	-0.000075
1129	1.1224e+02	-4.9378	-10.516770	0.000178	1.783253	0.604183	-0.000072
1130	1.1234e+02	-4.9795	-10.596202	0.000199	1.987053	0.673232	-0.000080
1131	1.1244e+02	-4.9924	-10.676041	0.000200	1.997243	0.676684	-0.000080
1132	1.1253e+02	-5.0357	-10.752214	0.000191	1.905533	0.645612	-0.000077
1133	1.1263e+02	-5.0934	-10.827980	0.000190	1.895343	0.642160	-0.000076
1134	1.1273e+02	-5.1432	-10.908226	0.000201	2.007433	0.680137	-0.000081
1135	1.1283e+02	-5.1704	-10.990917	0.000207	2.068574	0.700852	-0.000083
1136	1.1293e+02	-5.2154	-11.065053	0.000185	1.854583	0.628350	-0.000075
1137	1.1303e+02	-5.2571	-11.143263	0.000196	1.956483	0.662875	-0.000079
1138	1.1313e+02	-5.2795	-11.223917	0.000202	2.017623	0.683589	-0.000081
1139	1.1323e+02	-5.3277	-11.302534	0.000197	1.966673	0.666327	-0.000079
1140	1.1333e+02	-5.3565	-11.383595	0.000203	2.027814	0.687042	-0.000081
1141	1.1343e+02	-5.3982	-11.460175	0.000192	1.915723	0.649065	-0.000077
1142	1.1353e+02	-5.4608	-11.539200	0.000198	1.976863	0.669779	-0.000079
1143	1.1363e+02	-5.4913	-11.619854	0.000202	2.017623	0.683589	-0.000081
1144	1.1373e+02	-5.5394	-11.697249	0.000194	1.936103	0.655970	-0.000078
1145	1.1383e+02	-5.5715	-11.778310	0.000203	2.027814	0.687042	-0.000081
1146	1.1393e+02	-5.6084	-11.848373	0.000175	1.752683	0.593825	-0.000070
1147	1.1403e+02	-5.6565	-11.929434	0.000203	2.027814	0.687042	-0.000081
1148	1.1413e+02	-5.6998	-12.010088	0.000202	2.017623	0.683589	-0.000081
1149	1.1423e+02	-5.7432	-12.086668	0.000192	1.915723	0.649065	-0.000077
1150	1.1433e+02	-5.7464	-12.166100	0.000199	1.987053	0.673232	-0.000080
1151	1.1442e+02	-5.8009	-12.240644	0.000186	1.864773	0.631802	-0.000075
1152	1.1452e+02	-5.8330	-12.318446	0.000195	1.946293	0.659422	-0.000078
1153	1.1462e+02	-5.8635	-12.398285	0.000200	1.997243	0.676684	-0.000080
1154	1.1472e+02	-5.9180	-12.475680	0.000194	1.936103	0.655970	-0.000078
1155	1.1482e+02	-5.9838	-12.552668	0.000193	1.925913	0.652517	-0.000077
1156	1.1492e+02	-6.0191	-12.627619	0.000187	1.874963	0.635255	-0.000075
1157	1.1502e+02	-6.0351	-12.707866	0.000201	2.007433	0.680137	-0.000081
1158	1.1512e+02	-6.0736	-12.784853	0.000193	1.925913	0.652517	-0.000077
1159	1.1522e+02	-6.1153	-12.856138	0.000178	1.783253	0.604183	-0.000072
1160	1.1532e+02	-6.1474	-12.935977	0.000200	1.997243	0.676684	-0.000080
1161	1.1542e+02	-6.2004	-13.012965	0.000193	1.925913	0.652517	-0.000077
1162	1.1552e+02	-6.2565	-13.090360	0.000194	1.936103	0.655970	-0.000078
1163	1.1562e+02	-6.2854	-13.162460	0.000180	1.803633	0.611087	-0.000072
1164	1.1572e+02	-6.3271	-13.241484	0.000198	1.976863	0.669779	-0.000079
1165	1.1582e+02	-6.3479	-13.320509	0.000198	1.976863	0.669779	-0.000079
1166	1.1592e+02	-6.3977	-13.392608	0.000180	1.803633	0.611087	-0.000072
1167	1.1602e+02	-6.4282	-13.461449	0.000172	1.722113	0.583468	-0.000069
1168	1.1612e+02	-6.4891	-13.537215	0.000190	1.895343	0.642160	-0.000076
1169	1.1622e+02	-6.5244	-13.614203	0.000193	1.925913	0.652517	-0.000077
1170	1.1632e+02	-6.5421	-13.690376	0.000191	1.905533	0.645612	-0.000077
1171	1.1642e+02	-6.6159	-13.767364	0.000193	1.925913	0.652517	-0.000077
1172	1.1651e+02	-6.6399	-13.848832	0.000204	2.038004	0.690494	-0.000082
1173	1.1661e+02	-6.6800	-13.918895	0.000175	1.752683	0.593825	-0.000070
1174	1.1671e+02	-6.6929	-13.997919	0.000198	1.976863	0.669779	-0.000079
1175	1.1681e+02	-6.7699	-14.069612	0.000179	1.793443	0.607635	-0.000072
1176	1.1691e+02	-6.8019	-14.148636	0.000198	1.976863	0.669779	-0.000079
1177	1.1701e+02	-6.8212	-14.223587	0.000187	1.874963	0.635255	-0.000075
1178	1.1711e+02	-6.8806	-14.296094	0.000181	1.813823	0.614540	-0.000073
1179	1.1721e+02	-6.9030	-14.368601	0.000181	1.813823	0.614540	-0.000073
1180	1.1731e+02	-6.9640	-14.447626	0.000198	1.976863	0.669779	-0.000079
1181	1.1741e+02	-7.0057	-14.517281	0.000174	1.742493	0.590373	-0.000070
1182	1.1751e+02	-7.0346	-14.590603	0.000183	1.834203	0.621445	-0.000074
1183	1.1761e+02	-7.0875	-14.667591	0.000193	1.925913	0.652517	-0.000077
1184	1.1771e+02	-7.0843	-14.740505	-0.000182	-1.824013	-0.617992	-0.000073
1185	1.1781e+02	-7.1420	-14.818715	0.000196	1.956483	0.662875	-0.000079
1186	1.1791e+02	-7.1789	-14.894480	0.000190	1.895343	0.642160	-0.000076
1187	1.1801e+02	-7.2351	-14.967802	0.000183	1.834203	0.621445	-0.000074
1188	1.1811e+02	-7.2784	-15.039087	0.000178	1.783253	0.604183	-0.000072
1189	1.1821e+02	-7.3089	-15.113631	0.000186	1.864773	0.631802	-0.000075
1190	1.1831e+02	-7.3698	-15.178398	0.000162	1.620213	0.548943	-0.000065
1191	1.1841e+02	-7.3939	-15.257423	0.000198	1.976863	0.669779	-0.000079
1192	1.1850e+02	-7.4517	-15.330337	0.000182	1.824013	0.617992	-0.000073
1193	1.1860e+02	-7.4854	-15.401622	0.000178	1.783253	0.604183	-0.000072
1194	1.1870e+02	-7.5062	-15.481054	0.000199	1.987053	0.673232	-0.000080
1195	1.1880e+02	-7.5287	-15.547451	0.000166	1.660973	0.562753	-0.000067
1196	1.1890e+02	-7.5928	-15.619957	0.000181	1.813823	0.614540	-0.000073
1197	1.1900e+02	-7.6201	-15.700204	0.000201	2.007433	0.680137	-0.000081
1198	1.1910e+02	-7.6730	-15.775562	0.000189	1.885153	0.638707	-0.000076
1199	1.1920e+02	-7.7083	-15.849291	0.000184	1.844393	0.624897	-0.000074
1200	1.1930e+02	-7.7517	-15.925057	0.000190	1.895343	0.642160	-0.000076
1201	1.1940e+02	-7.7934	-16.002452	0.000194	1.936103	0.655970	-0.000078
1202	1.1950e+02	-7.8206	-16.077811	0.000189	1.885153	0.638707	-0.000076
1203	1.1960e+02	-7.8656	-16.156835	0.000198	1.976863	0.669779	-0.000079
1204	1.1970e+02	-7.9121	-16.228120	0.000178	1.783253	0.604183	-0.000072
1205	1.1980e+02	-7.9410	-16.303478	0.000189	1.885153	0.638707	-0.000076
1206	1.1990e+02	-7.9971	-16.380466	0.000193	1.925913	0.652517	-0.000077
1207	1.2000e+02	-8.0356	-16.450529	0.000175	1.752683	0.593825	-0.000070
1208	1.2010e+02	-8.0773	-16.525480	0.000187	1.874963	0.635255	-0.000075
1209	1.2020e+02	-8.1046	-16.600838	0.000189	1.885153	0.638707	-0.000076
1210	1.2030e+02	-8.1479	-16.674975	0.000185	1.854583	0.628350	-0.000075
1211	1.2039e+02	-8.2040	-16.747074	0.000180	1.803633	0.611087	-0.000072
1212	1.2049e+02	-8.2377	-16.825284	0.000196	1.956483	0.662875	-0.000079
1213	1.2059e+02	-8.2746	-16.900235	0.000187	1.874963	0.635255	-0.000075
1214	1.2069e+02	-8.3163	-16.972742	0.000181	1.813823	0.614540	-0.000073
1215	1.2079e+02	-8.3452	-17.050137	0.000194	1.936103	0.655970	-0.000078
1216	1.2089e+02	-8.4046	-17.121829	0.000179	1.793443	0.607635	-0.000072
1217	1.2099e+02	-8.4270	-17.191485	0.000174	1.742493	0.590373	-0.000070
1218	1.2109e+02	-8.4623	-17.261955	0.000176	1.762873	0.597278	-0.000071
1219	1.2119e+02	-8.5008	-17.327945	0.000165	1.650783	0.559300	-0.000066
1220	1.2129e+02	-8.5329	-17.397600	0.000174	1.742493	0.590373	-0.000070
1221	1.2139e+02	-8.5875	-17.471737	0.000185	1.854583	0.628350	-0.000075
1222	1.2149e+02	-8.6340	-17.537726	0.000165	1.650783	0.559300	-0.000066
1223	1.2159e+02	-8.6548	-17.611048	0.000183	1.834203	0.621445	-0.000074
1224	1.2169e+02	-8.7190	-17.679889	0.000172	1.722113	0.583468	-0.000069
1225	1.2179e+02	-8.7623	-17.741805	0.000155	1.548883	0.524776	-0.000062
1226	1.2189e+02	-8.7960	-17.815534	0.000184	1.844393	0.624897	-0.000074
1227	1.2199e+02	-8.8281	-17.883560	0.000170	1.701733	0.576563	-0.000068
1228	1.2209e+02	-8.8746	-17.952401	0.000172	1.722113	0.583468	-0.000069
1229	1.2219e+02	-8.8987	-18.017576	0.000163	1.630403	0.552395	-0.000066
1230	1.2229e+02	-8.9612	-18.093749	0.000191	1.905533	0.645612	-0.000077
1231	1.2239e+02	-9.0046	-18.156887	0.000158	1.579453	0.535133	-0.000063
1232	1.2248e+02	-9.0222	-18.223691	0.000167	1.671163	0.566205	-0.000067
1233	1.2258e+02	-9.0800	-18.293754	0.000175	1.752683	0.593825	-0.000070
1234	1.2268e+02	-9.0928	-18.357299	0.000159	1.589643	0.538586	-0.000064
1235	1.2278e+02	-9.1521	-18.426548	0.000173	1.732303	0.586920	-0.000070
1236	1.2288e+02	-9.1890	-18.497018	0.000176	1.762873	0.597278	-0.000071
1237	1.2298e+02	-9.2340	-18.559749	0.000157	1.569263	0.531681	-0.000063
1238	1.2308e+02	-9.2596	-18.624516	0.000162	1.620213	0.548943	-0.000065
1239	1.2318e+02	-9.3302	-18.695801	0.000178	1.783253	0.604183	-0.000072
1240	1.2328e+02	-9.3655	-18.761383	0.000164	1.640593	0.555848	-0.000066
1241	1.2338e+02	-9.3864	-18.830224	0.000172	1.722113	0.583468	-0.000069
1242	1.2348e+02	-9.4281	-18.893362	0.000158	1.579453	0.535133	-0.000063
1243	1.2358e+02	-9.4778	-18.958537	0.000163	1.630403	0.552395	-0.000066
1244	1.2368e+02	-9.5067	-19.028600	0.000175	1.752683	0.593825	-0.000070
1245	1.2378e+02	-9.5676	-19.095404	0.000167	1.671163	0.566205	-0.000067
1246	1.2388e+02	-9.5981	-19.161394	0.000165	1.650783	0.559300	-0.000066
1247	1.2398e+02	-9.6190	-19.221680	0.000151	1.508123	0.510966	-0.000061
1248	1.2408e+02	-9.6783	-19.289299	0.000169	1.691543	0.573110	-0.000068
1249	1.2418e+02	-9.7200	-19.355696	0.000166	1.660973	0.562753	-0.000067
1250	1.2428e+02	-9.7537	-19.420056	0.000161	1.610023	0.545490	-0.000065
1251	1.2438e+02	-9.7922	-19.483602	0.000159	1.589643	0.538586	-0.000064
1252	1.2447e+02	-9.8436	-19.546332	0.000157	1.569263	0.531681	-0.000063
1253	1.2457e+02	-9.8757	-19.615988	0.000174	1.742493	0.590373	-0.000070
1254	1.2467e+02	-9.9126	-19.673831	0.000145	1.446983	0.490251	-0.000058
1255	1.2477e+02	-9.9751	-19.739005	0.000163	1.630403	0.552395	-0.000066
1256	1.2487e+02	-9.9799	-19.807439	0.000171	1.711923	0.580015	-0.000069
1257	1.2497e+02	-10.0377	-19.870984	0.000159	1.589643	0.538586	-0.000064
1258	1.2507e+02	-10.0553	-19.933308	0.000156	1.559073	0.528228	-0.000063
1259	1.2517e+02	-10.1002	-20.000112	0.000167	1.671163	0.566205	-0.000067
1260	1.2527e+02	-10.1468	-20.068545	0.000171	1.711923	0.580015	-0.000069
1261	1.2537e+02	-10.1805	-20.126795	0.000146	1.457173	0.493703	-0.000059
1262	1.2547e+02	-10.2270	-20.196858	0.000175	1.752683	0.593825	-0.000070
1263	1.2557e+02	-10.2591	-20.255516	0.000147	1.467363	0.497156	-0.000059
1264	1.2567e+02	-10.2992	-20.319061	0.000159	1.589643	0.538586	-0.000064
1265	1.2577e+02	-10.3393	-20.378941	0.000150	1.497933	0.507513	-0.000060
1266	1.2587e+02	-10.3826	-20.446559	0.000169	1.691543	0.573110	-0.000068
1267	1.2597e+02	-10.4243	-20.505624	0.000148	1.477553	0.500608	-0.000059
1268	1.2607e+02	-10.4548	-20.572836	0.000168	1.681353	0.569658	-0.000068
1269	1.2617e+02	-10.4965	-20.629456	0.000142	1.416412	0.479894	-0.000057
1270	1.2627e+02	-10.5382	-20.699926	0.000176	1.762873	0.597278	-0.000071
1271	1.2636e+02	-10.5911	-20.766731	0.000167	1.671163	0.566205	-0.000067
1272	1.2646e+02	-10.6296	-20.826610	0.000150	1.497933	0.507513	-0.000060
1273	1.2656e+02	-10.6521	-20.895044	0.000171	1.711923	0.580015	-0.000069
1274	1.2666e+02	-10.7050	-20.954108	0.000148	1.477553	0.500608	-0.000059
1275	1.2676e+02	-10.7452	-21.008692	0.000137	1.365462	0.462631	-0.000055
1276	1.2686e+02	-10.8045	-21.081199	0.000181	1.813823	0.614540	-0.000073
1277	1.2696e+02	-10.8430	-21.139042	0.000145	1.446983	0.490251	-0.000058
1278	1.2706e+02	-10.8574	-21.204217	0.000163	1.630403	0.552395	-0.000066
1279	1.2716e+02	-10.8911	-21.264096	0.000150	1.497933	0.507513	-0.000060
1280	1.2726e+02	-10.9328	-21.328456	0.000161	1.610023	0.545490	-0.000065
1281	1.2736e+02	-10.9601	-21.388743	0.000151	1.508123	0.510966	-0.000061
1282	1.2746e+02	-11.0387	-21.450251	0.000154	1.538693	0.521323	-0.000062
1283	1.2756e+02	-11.0612	-21.508501	0.000146	1.457173	0.493703	-0.000059
1284	1.2766e+02	-11.0949	-21.564307	0.000140	1.396032	0.472989	-0.000056
1285	1.2776e+02	-11.1510	-21.621743	0.000144	1.436792	0.486798	-0.000058
1286	1.2786e+02	-11.1847	-21.684881	0.000158	1.579453	0.535133	-0.000063
1287	1.2796e+02	-11.2008	-21.741501	0.000142	1.416412	0.479894	-0.000057
1288	1.2806e+02	-11.2794	-21.801381	0.000150	1.497933	0.507513	-0.000060
1289	1.2816e+02	-11.3082	-21.861260	0.000150	1.497933	0.507513	-0.000060
1290	1.2826e+02	-11.3227	-21.918695	0.000144	1.436792	0.486798	-0.000058
1291	1.2835e+02	-11.3981	-21.975723	0.000143	1.426602	0.483346	-0.000057
1292	1.2845e+02	-11.4478	-22.037639	0.000155	1.548883	0.524776	-0.000062
1293	1.2855e+02	-11.4638	-22.102000	0.000161	1.610023	0.545490	-0.000065
1294	1.2865e+02	-11.5104	-22.155769	0.000135	1.345082	0.455726	-0.000054
1295	1.2875e+02	-11.5376	-22.215241	0.000149	1.487743	0.504061	-0.000060
1296	1.2885e+02	-11.5858	-22.270232	0.000138	1.375652	0.466084	-0.000055
1297	1.2895e+02	-11.6162	-22.326445	0.000141	1.406222	0.476441	-0.000056
1298	1.2905e+02	-11.6612	-22.384288	0.000145	1.446983	0.490251	-0.000058
1299	1.2915e+02	-11.7013	-22.447019	0.000157	1.569263	0.531681	-0.000063
1300	1.2925e+02	-11.7253	-22.500788	0.000135	1.345082	0.455726	-0.000054
1301	1.2935e+02	-11.7879	-22.565148	0.000161	1.610023	0.545490	-0.000065
1302	1.2945e+02	-11.8441	-22.624620	0.000149	1.487743	0.504061	-0.000060
1303	1.2955e+02	-11.8376	-22.690202	-0.000164	-1.640593	-0.555848	-0.000066
1304	1.2965e+02	-11.9002	-22.749267	0.000148	1.477553	0.500608	-0.000059
1305	1.2975e+02	-11.9563	-22.814034	0.000162	1.620213	0.548943	-0.000065
1306	1.2985e+02	-11.9852	-22.871470	0.000144	1.436792	0.486798	-0.000058
1307	1.2995e+02	-11.9884	-22.935422	0.000160	1.599833	0.542038	-0.000064
1308	1.3005e+02	-12.0462	-23.002634	0.000168	1.681353	0.569658	-0.000068
1309	1.3015e+02	-12.0975	-23.055588	0.000132	1.324702	0.448821	-0.000053
1310	1.3025e+02	-12.1553	-23.122800	0.000168	1.681353	0.569658	-0.000068
1311	1.3034e+02	-12.1809	-23.186345	0.000159	1.589643	0.538586	-0.000064
1312	1.3044e+02	-12.2130	-23.247854	0.000154	1.538693	0.521323	-0.000062
1313	1.3054e+02	-12.2692	-23.304067	0.000141	1.406222	0.476441	-0.000056
1314	1.3064e+02	-12.2916	-23.365169	0.000153	1.528503	0.517871	-0.000061
1315	1.3074e+02	-12.3285	-23.432788	0.000169	1.691543	0.573110	-0.000068
1316	1.3084e+02	-12.3815	-23.496333	0.000159	1.589643	0.538586	-0.000064
1317	1.3094e+02	-12.4103	-23.554176	0.000145	1.446983	0.490251	-0.000058
1318	1.3104e+02	-12.4633	-23.617314	0.000158	1.579453	0.535133	-0.000063
1319	1.3114e+02	-12.4906	-23.675971	0.000147	1.467363	0.497156	-0.000059
1320	1.3124e+02	-12.5210	-23.737073	0.000153	1.528503	0.517871	-0.000061
1321	1.3134e+02	-12.5836	-23.800211	0.000158	1.579453	0.535133	-0.000063
1322	1.3144e+02	-12.6301	-23.860905	0.000152	1.518313	0.514418	-0.000061
1323	1.3154e+02	-12.6670	-23.919562	0.000147	1.467363	0.497156	-0.000059
1324	1.3164e+02	-12.6911	-23.984329	0.000162	1.620213	0.548943	-0.000065
1325	1.3174e+02	-12.7392	-24.047060	0.000157	1.569263	0.531681	-0.000063
1326	1.3184e+02	-12.7841	-24.108569	0.000154	1.538693	0.521323	-0.000062
1327	1.3194e+02	-12.8226	-24.172114	0.000159	1.589643	0.538586	-0.000064
1328	1.3204e+02	-12.8659	-24.230364	0.000146	1.457173	0.493703	-0.000059
1329	1.3214e+02	-12.8964	-24.288614	0.000146	1.457173	0.493703	-0.000059
1330	1.3224e+02	-12.9317	-24.354196	0.000164	1.640593	0.555848	-0.000066
1331	1.3234e+02	-12.9590	-24.408373	0.000136	1.355272	0.459179	-0.000054
1332	1.3243e+02	-12.9911	-24.474770	0.000166	1.660973	0.562753	-0.000067
1333	1.3253e+02	-13.0793	-24.535871	0.000153	1.528503	0.517871	-0.000061
1334	1.3263e+02	-13.0921	-24.601046	0.000163	1.630403	0.552395	-0.000066
1335	1.3273e+02	-13.1194	-24.660111	0.000148	1.477553	0.500608	-0.000059
1336	1.3283e+02	-13.1772	-24.722434	0.000156	1.559073	0.528228	-0.000063
1337	1.3293e+02	-13.1932	-24.791275	0.000172	1.722113	0.583468	-0.000069
1338	1.3303e+02	-13.2558	-24.849118	0.000145	1.446983	0.490251	-0.000058
1339	1.3313e+02	-13.2895	-24.914292	0.000163	1.630403	0.552395	-0.000066
1340	1.3323e+02	-13.3312	-24.973764	0.000149	1.487743	0.504061	-0.000060
1341	1.3333e+02	-13.3633	-25.036903	0.000158	1.579453	0.535133	-0.000063
1342	1.3343e+02	-13.4050	-25.099226	0.000156	1.559073	0.528228	-0.000063
1343	1.3353e+02	-13.4483	-25.159920	0.000152	1.518313	0.514418	-0.000061
1344	1.3363e+02	-13.4884	-25.217763	0.000145	1.446983	0.490251	-0.000058
1345	1.3373e+02	-13.5317	-25.281308	0.000159	1.589643	0.538586	-0.000064
1346	1.3383e+02	-13.5750	-25.342817	0.000154	1.538693	0.521323	-0.000062
1347	1.3393e+02	-13.6167	-25.403918	0.000153	1.528503	0.517871	-0.000061
1348	1.3403e+02	-13.6440	-25.463390	0.000149	1.487743	0.504061	-0.000060
1349	1.3413e+02	-13.6905	-25.526936	0.000159	1.589643	0.538586	-0.000064
1350	1.3423e+02	-13.7194	-25.584778	0.000145	1.446983	0.490251	-0.000058
1351	1.3432e+02	-13.7707	-25.648324	0.000159	1.589643	0.538586	-0.000064
1352	1.3442e+02	-13.7868	-25.708203	0.000150	1.497933	0.507513	-0.000060
1353	1.3452e+02	-13.8381	-25.769712	0.000154	1.538693	0.521323	-0.000062
1354	1.3462e+02	-13.8830	-25.829591	0.000150	1.497933	0.507513	-0.000060
1355	1.3472e+02	-13.9215	-25.895988	0.000166	1.660973	0.562753	-0.000067
1356	1.3482e+02	-13.9921	-25.955460	0.000149	1.487743	0.504061	-0.000060
1357	1.3492e+02	-14.0226	-26.009637	0.000136	1.355272	0.459179	-0.000054
1358	1.3502e+02	-14.0691	-26.075219	0.000164	1.640593	0.555848	-0.000066
1359	1.3512e+02	-14.0932	-26.132654	0.000144	1.436792	0.486798	-0.000058
1360	1.3522e+02	-14.1221	-26.199051	0.000166	1.660973	0.562753	-0.000067
1361	1.3532e+02	-14.1734	-26.257708	0.000147	1.467363	0.497156	-0.000059
1362	1.3542e+02	-14.1975	-26.320846	0.000158	1.579453	0.535133	-0.000063
1363	1.3552e+02	-14.2632	-26.379504	0.000147	1.467363	0.497156	-0.000059
1364	1.3562e+02	-14.2793	-26.446715	0.000168	1.681353	0.569658	-0.000068
1365	1.3572e+02	-14.3226	-26.506187	0.000149	1.487743	0.504061	-0.000060
1366	1.3582e+02	-14.3691	-26.571769	0.000164	1.640593	0.555848	-0.000066
1367	1.3592e+02	-14.4221	-26.634093	0.000156	1.559073	0.528228	-0.000063
1368	1.3602e+02	-14.4525	-26.696823	0.000157	1.569263	0.531681	-0.000063
1369	1.3612e+02	-14.4686	-26.758740	0.000155	1.548883	0.524776	-0.000062
1370	1.3622e+02	-14.5360	-26.824729	0.000165	1.650783	0.559300	-0.000066
1371	1.3631e+02	-14.5696	-26.889497	0.000162	1.620213	0.548943	-0.000065
1372	1.3641e+02	-14.6049	-26.949376	0.000150	1.497933	0.507513	-0.000060
1373	1.3651e+02	-14.6450	-27.017809	0.000171	1.711923	0.580015	-0.000069
1374	1.3661e+02	-14.6723	-27.078096	0.000151	1.508123	0.510966	-0.000061
1375	1.3671e+02	-14.7285	-27.135531	0.000144	1.436792	0.486798	-0.000058
1376	1.3681e+02	-14.7702	-27.204780	0.000173	1.732303	0.586920	-0.000070
1377	1.3691e+02	-14.8151	-27.267918	0.000158	1.579453	0.535133	-0.000063
1378	1.3701e+02	-14.8456	-27.332278	0.000161	1.610023	0.545490	-0.000065
1379	1.3711e+02	-14.9097	-27.393379	0.000153	1.528503	0.517871	-0.000061
1380	1.3721e+02	-14.9242	-27.458961	0.000164	1.640593	0.555848	-0.000066
1381	1.3731e+02	-14.9611	-27.521285	0.000156	1.559073	0.528228	-0.000063
1382	1.3741e+02	-14.9900	-27.581979	0.000152	1.518313	0.514418	-0.000061
1383	1.3751e+02	-15.0718	-27.648376	0.000166	1.660973	0.562753	-0.000067
1384	1.3761e+02	-15.0862	-27.703367	0.000138	1.375652	0.466084	-0.000055
1385	1.3771e+02	-15.1231	-27.766912	0.000159	1.589643	0.538586	-0.000064
1386	1.3781e+02	-15.1552	-27.827199	0.000151	1.508123	0.510966	-0.000061
1387	1.3791e+02	-15.2194	-27.885449	0.000146	1.457173	0.493703	-0.000059
1388	1.3801e+02	-15.2322	-27.938404	0.000132	1.324702	0.448821	-0.000053
1389	1.3811e+02	-15.2867	-28.001134	0.000157	1.569263	0.531681	-0.000063
1390	1.3821e+02	-15.3317	-28.062236	0.000153	1.528503	0.517871	-0.000061
1391	1.3831e+02	-15.3686	-28.122115	0.000150	1.497933	0.507513	-0.000060
1392	1.3840e+02	-15.4006	-28.178736	0.000142	1.416412	0.479894	-0.000057
1393	1.3850e+02	-15.4472	-28.234949	0.000141	1.406222	0.476441	-0.000056
1394	1.3860e+02	-15.4857	-28.299309	0.000161	1.610023	0.545490	-0.000065
1395	1.3870e+02	-15.5210	-28.354708	0.000139	1.385842	0.469536	-0.000056
1396	1.3880e+02	-15.5899	-28.410921	0.000141	1.406222	0.476441	-0.000056
1397	1.3890e+02	-15.6156	-28.470393	0.000149	1.487743	0.504061	-0.000060
1398	1.3900e+02	-15.6429	-28.527421	0.000143	1.426602	0.483346	-0.000057
1399	1.3910e+02	-15.7006	-28.582819	0.000139	1.385842	0.469536	-0.000056
1400	1.3920e+02	-15.7375	-28.641884	0.000148	1.477553	0.500608	-0.000059
1401	1.3930e+02	-15.7744	-28.703800	0.000155	1.548883	0.524776	-0.000062
1402	1.3940e+02	-15.8209	-28.762458	0.000147	1.467363	0.497156	-0.000059
1403	1.3950e+02	-15.8514	-28.822337	0.000150	1.497933	0.507513	-0.000060
1404	1.3960e+02	-15.8562	-28.876921	0.000137	1.365462	0.462631	-0.000055
1405	1.3970e+02	-15.9076	-28.934356	0.000144	1.436792	0.486798	-0.000058
1406	1.3980e+02	-15.9669	-28.990977	0.000142	1.416412	0.479894	-0.000057
1407	1.3990e+02	-15.9798	-29.047597	0.000142	1.416412	0.479894	-0.000057
1408	1.4000e+02	-16.0439	-29.105847	0.000146	1.457173	0.493703	-0.000059
1409	1.4010e+02	-16.0840	-29.162468	0.000142	1.416412	0.479894	-0.000057
1410	1.4020e+02	-16.1225	-29.219089	0.000142	1.416412	0.479894	-0.000057
1411	1.4029e+02	-16.1594	-29.272043	0.000132	1.324702	0.448821	-0.000053
1412	1.4039e+02	-16.2028	-29.330700	0.000147	1.467363	0.497156	-0.000059
1413	1.4049e+02	-16.2461	-29.390580	0.000150	1.497933	0.507513	-0.000060
1414	1.4059e+02	-16.2830	-29.449644	0.000148	1.477553	0.500608	-0.000059
1415	1.4069e+02	-16.3231	-29.502192	0.000131	1.314512	0.445369	-0.000053
1416	1.4079e+02	-16.3600	-29.558812	0.000142	1.416412	0.479894	-0.000057
1417	1.4089e+02	-16.3840	-29.619099	0.000151	1.508123	0.510966	-0.000061
1418	1.4099e+02	-16.3969	-29.676127	0.000143	1.426602	0.483346	-0.000057
1419	1.4109e+02	-16.4691	-29.725008	0.000122	1.222802	0.414297	-0.000049
1420	1.4119e+02	-16.5204	-29.786109	0.000153	1.528503	0.517871	-0.000061
1421	1.4129e+02	-16.5573	-29.840286	0.000136	1.355272	0.459179	-0.000054
1422	1.4139e+02	-16.5958	-29.896092	0.000140	1.396032	0.472989	-0.000056
1423	1.4149e+02	-16.6535	-29.955564	0.000149	1.487743	0.504061	-0.000060
1424	1.4159e+02	-16.7145	-30.008518	0.000132	1.324702	0.448821	-0.000053
1425	1.4169e+02	-16.7257	-30.064732	0.000141	1.406222	0.476441	-0.000056
1426	1.4179e+02	-16.7514	-30.121352	0.000142	1.416412	0.479894	-0.000057
1427	1.4189e+02	-16.8108	-30.175122	0.000135	1.345082	0.455726	-0.000054
1428	1.4199e+02	-16.8380	-30.231742	0.000142	1.416412	0.479894	-0.000057
1429	1.4209e+02	-16.8878	-30.287548	0.000140	1.396032	0.472989	-0.000056
1430	1.4219e+02	-16.9102	-30.344169	0.000142	1.416412	0.479894	-0.000057
1431	1.4228e+02	-16.9632	-30.401604	0.000144	1.436792	0.486798	-0.000058
1432	1.4238e+02	-16.9760	-30.458632	0.000143	1.426602	0.483346	-0.000057
1433	1.4248e+02	-17.0594	-30.515660	0.000143	1.426602	0.483346	-0.000057
1434	1.4258e+02	-17.0835	-30.573910	0.000146	1.457173	0.493703	-0.000059
1435	1.4268e+02	-17.1316	-30.628086	0.000136	1.355272	0.459179	-0.000054
1436	1.4278e+02	-17.1733	-30.683485	0.000139	1.385842	0.469536	-0.000056
1437	1.4288e+02	-17.2150	-30.740920	0.000144	1.436792	0.486798	-0.000058
1438	1.4298e+02	-17.2391	-30.795912	0.000138	1.375652	0.466084	-0.000055
1439	1.4308e+02	-17.2952	-30.854976	0.000148	1.477553	0.500608	-0.000059
1440	1.4318e+02	-17.3450	-30.909967	0.000138	1.375652	0.466084	-0.000055
1441	1.4328e+02	-17.3530	-30.968625	0.000147	1.467363	0.497156	-0.000059
1442	1.4338e+02	-17.3899	-31.021172	0.000131	1.314512	0.445369	-0.000053
1443	1.4348e+02	-17.4589	-31.083903	0.000157	1.569263	0.531681	-0.000063
1444	1.4358e+02	-17.4861	-31.133191	0.000123	1.232992	0.417749	-0.000050
1445	1.4368e+02	-17.4958	-31.188182	0.000138	1.375652	0.466084	-0.000055
1446	1.4378e+02	-17.5760	-31.245618	0.000144	1.436792	0.486798	-0.000058
1447	1.4388e+02	-17.5968	-31.304682	0.000148	1.477553	0.500608	-0.000059
1448	1.4398e+02	-17.6417	-31.356008	0.000128	1.283942	0.435011	-0.000052
1449	1.4408e+02	-17.6514	-31.412628	0.000142	1.416412	0.479894	-0.000057
1450	1.4418e+02	-17.7348	-31.463546	0.000127	1.273752	0.431559	-0.000051
1451	1.4428e+02	-17.7556	-31.514464	0.000127	1.273752	0.431559	-0.000051
1452	1.4437e+02	-17.8022	-31.567826	0.000133	1.334892	0.452274	-0.000054
1453	1.4447e+02	-17.8166	-31.619558	0.000129	1.294132	0.438464	-0.000052
1454	1.4457e+02	-17.8792	-31.674957	0.000139	1.385842	0.469536	-0.000056
1455	1.4467e+02	-17.9016	-31.724653	0.000124	1.243182	0.421202	-0.000050
1456	1.4477e+02	-17.9321	-31.780459	0.000140	1.396032	0.472989	-0.000056
1457	1.4487e+02	-17.9979	-31.833413	0.000132	1.324702	0.448821	-0.000053
1458	1.4497e+02	-18.0220	-31.892885	0.000149	1.487743	0.504061	-0.000060
1459	1.4507e+02	-18.0621	-31.939729	0.000117	1.171852	0.397034	-0.000047
1460	1.4517e+02	-18.1054	-31.996350	0.000142	1.416412	0.479894	-0.000057
1461	1.4527e+02	-18.1711	-32.049305	0.000132	1.324702	0.448821	-0.000053
1462	1.4537e+02	-18.2016	-32.105518	0.000141	1.406222	0.476441	-0.000056
1463	1.4547e+02	-18.2369	-32.156436	0.000127	1.273752	0.431559	-0.000051
1464	1.4557e+02	-18.2610	-32.213464	0.000143	1.426602	0.483346	-0.000057
1465	1.4567e+02	-18.3300	-32.267233	0.000135	1.345082	0.455726	-0.000054
1466	1.4577e+02	-18.3733	-32.321409	0.000136	1.355272	0.459179	-0.000054
1467	1.4587e+02	-18.3941	-32.377623	0.000141	1.406222	0.476441	-0.000056
1468	1.4597e+02	-18.4358	-32.433021	0.000139	1.385842	0.469536	-0.000056
1469	1.4607e+02	-18.4551	-32.487198	0.000136	1.355272	0.459179	-0.000054
1470	1.4617e+02	-18.5257	-32.547485	0.000151	1.508123	0.510966	-0.000061
1471	1.4626e+02	-18.5530	-32.606957	0.000149	1.487743	0.504061	-0.000060
1472	1.4636e+02	-18.5722	-32.661948	0.000138	1.375652	0.466084	-0.000055
1473	1.4646e+02	-18.6171	-32.724271	0.000156	1.559073	0.528228	-0.000063
1474	1.4656e+02	-18.6620	-32.778040	0.000135	1.345082	0.455726	-0.000054
1475	1.4666e+02	-18.7198	-32.839549	0.000154	1.538693	0.521323	-0.000062
1476	1.4676e+02	-18.7246	-32.902280	0.000157	1.569263	0.531681	-0.000063
1477	1.4686e+02	-18.7743	-32.954827	0.000131	1.314512	0.445369	-0.000053
1478	1.4696e+02	-18.8369	-33.013484	0.000147	1.467363	0.497156	-0.000059
1479	1.4706e+02	-18.8658	-33.073771	0.000151	1.508123	0.510966	-0.000061
1480	1.4716e+02	-18.9155	-33.137317	0.000159	1.589643	0.538586	-0.000064
1481	1.4726e+02	-18.9572	-33.192715	0.000139	1.385842	0.469536	-0.000056
1482	1.4736e+02	-19.0005	-33.248521	0.000140	1.396032	0.472989	-0.000056
1483	1.4746e+02	-19.0150	-33.307586	0.000148	1.477553	0.500608	-0.000059
1484	1.4756e+02	-19.0727	-33.367058	0.000149	1.487743	0.504061	-0.000060
1485	1.4766e+02	-19.1112	-33.429381	0.000156	1.559073	0.528228	-0.000063
1486	1.4776e+02	-19.1465	-33.483965	0.000137	1.365462	0.462631	-0.000055
1487	1.4786e+02	-19.1818	-33.549547	0.000164	1.640593	0.555848	-0.000066
1488	1.4796e+02	-19.2155	-33.612278	0.000157	1.569263	0.531681	-0.000063
1489	1.4806e+02	-19.2652	-33.674601	0.000156	1.559073	0.528228	-0.000063
1490	1.4816e+02	-19.3198	-33.730815	0.000141	1.406222	0.476441	-0.000056
1491	1.4825e+02	-19.3727	-33.789472	0.000147	1.467363	0.497156	-0.000059
1492	1.4835e+02	-19.3839	-33.848537	0.000148	1.477553	0.500608	-0.000059
1493	1.4845e+02	-19.4192	-33.910453	0.000155	1.548883	0.524776	-0.000062
1494	1.4855e+02	-19.4529	-33.967888	0.000144	1.436792	0.486798	-0.000058
1495	1.4865e+02	-19.5123	-34.028989	0.000153	1.528503	0.517871	-0.000061
1496	1.4875e+02	-19.5652	-34.096201	0.000168	1.681353	0.569658	-0.000068
1497	1.4885e+02	-19.5909	-34.150377	0.000136	1.355272	0.459179	-0.000054
1498	1.4895e+02	-19.6358	-34.206591	0.000141	1.406222	0.476441	-0.000056
1499	1.4905e+02	-19.6695	-34.271766	0.000163	1.630403	0.552395	-0.000066
1500	1.4915e+02	-19.7080	-34.339384	0.000169	1.691543	0.573110	-0.000068
1501	1.4925e+02	-19.7337	-34.399671	0.000151	1.508123	0.510966	-0.000061
1502	1.4935e+02	-19.7529	-34.461180	0.000154	1.538693	0.521323	-0.000062
1503	1.4945e+02	-19.8444	-34.523096	0.000155	1.548883	0.524776	-0.000062
1504	1.4955e+02	-19.8684	-34.587456	0.000161	1.610023	0.545490	-0.000065
1505	1.4965e+02	-19.9069	-34.652631	0.000163	1.630403	0.552395	-0.000066
1506	1.4975e+02	-19.9486	-34.711696	0.000148	1.477553	0.500608	-0.000059
1507	1.4985e+02	-19.9887	-34.774834	0.000158	1.579453	0.535133	-0.000063
1508	1.4995e+02	-19.9502	-34.752837	0.000055	0.550261	0.186433	0.000022
1509	1.5005e+02	-19.8925	-34.729211	0.000059	0.591021	0.200243	0.000024
1510	1.5015e+02	-19.8444	-34.699068	0.000075	0.754061	0.255483	0.000030
1511	1.5025e+02	-19.8428	-34.669739	0.000073	0.733681	0.248578	0.000029
1512	1.5034e+02	-19.7722	-34.639189	0.000076	0.764251	0.258935	0.000031
1513	1.5044e+02	-19.7337	-34.607823	0.000078	0.784631	0.265840	0.000032
1514	1.5054e+02	-19.6952	-34.573199	0.000087	0.866151	0.293460	0.000035
1515	1.5064e+02	-19.6679	-34.542241	0.000077	0.774441	0.262388	0.000031
1516	1.5074e+02	-19.5957	-34.508839	0.000084	0.835581	0.283103	0.000034
1517	1.5084e+02	-19.5989	-34.479918	-0.000072	-0.723491	-0.245125	0.000029
1518	1.5094e+02	-19.5572	-34.446108	0.000085	0.845771	0.286555	0.000034
1519	1.5104e+02	-19.5331	-34.415557	0.000076	0.764251	0.258935	0.000031
1520	1.5114e+02	-19.4770	-34.374823	0.000102	1.019002	0.345247	0.000041
1521	1.5124e+02	-19.4305	-34.349161	0.000064	0.641971	0.217506	0.000026
1522	1.5134e+02	-19.3839	-34.312500	0.000092	0.917102	0.310722	0.000037
1523	1.5144e+02	-19.3454	-34.276654	0.000090	0.896722	0.303817	0.000036
1524	1.5154e+02	-19.3037	-34.242030	0.000087	0.866151	0.293460	0.000035
1525	1.5164e+02	-19.2652	-34.200481	0.000104	1.039382	0.352152	0.000042
1526	1.5174e+02	-19.2444	-34.173189	0.000068	0.682731	0.231316	0.000027
1527	1.5184e+02	-19.1930	-34.132454	0.000102	1.019002	0.345247	0.000041
1528	1.5194e+02	-19.1658	-34.094572	0.000095	0.947672	0.321080	0.000038
1529	1.5204e+02	-19.1305	-34.061169	0.000084	0.835581	0.283103	0.000034
1530	1.5214e+02	-19.0856	-34.026953	0.000086	0.855961	0.290008	0.000034
1531	1.5224e+02	-19.0471	-33.990292	0.000092	0.917102	0.310722	0.000037
1532	1.5233e+02	-18.9877	-33.948743	0.000104	1.039382	0.352152	0.000042
1533	1.5243e+02	-18.9684	-33.917785	0.000077	0.774441	0.262388	0.000031
1534	1.5253e+02	-18.9043	-33.881531	0.000091	0.906912	0.307270	0.000036
1535	1.5263e+02	-18.8802	-33.848944	0.000082	0.815201	0.276198	0.000033
1536	1.5273e+02	-18.8305	-33.816357	0.000082	0.815201	0.276198	0.000033
1537	1.5283e+02	-18.8000	-33.774808	0.000104	1.039382	0.352152	0.000042
1538	1.5293e+02	-18.7439	-33.740998	0.000085	0.845771	0.286555	0.000034
1539	1.5303e+02	-18.7134	-33.707189	0.000085	0.845771	0.286555	0.000034
1540	1.5313e+02	-18.6893	-33.672565	0.000087	0.866151	0.293460	0.000035
1541	1.5323e+02	-18.6428	-33.633460	0.000098	0.978242	0.331437	0.000039
1542	1.5333e+02	-18.6107	-33.592318	0.000103	1.029192	0.348700	0.000041
1543	1.5343e+02	-18.5594	-33.559731	0.000082	0.815201	0.276198	0.000033
1544	1.5353e+02	-18.5128	-33.521848	0.000095	0.947672	0.321080	0.000038
1545	1.5363e+02	-18.4792	-33.486816	0.000088	0.876342	0.296913	0.000035
1546	1.5373e+02	-18.4519	-33.446897	0.000100	0.998622	0.338342	0.000040
1547	1.5383e+02	-18.3893	-33.415532	0.000078	0.784631	0.265840	0.000032
1548	1.5393e+02	-18.3332	-33.375612	0.000100	0.998622	0.338342	0.000040
1549	1.5403e+02	-18.3107	-33.337729	0.000095	0.947672	0.321080	0.000038
1550	1.5413e+02	-18.2658	-33.300661	0.000093	0.927292	0.314175	0.000037
1551	1.5422e+02	-18.2674	-33.259519	-0.000103	-1.029192	-0.348700	0.000041
1552	1.5432e+02	-18.2080	-33.220007	0.000099	0.988432	0.334890	0.000040
1553	1.5442e+02	-18.1455	-33.177236	0.000107	1.069952	0.362510	0.000043
1554	1.5452e+02	-18.0925	-33.133650	0.000109	1.090332	0.369414	0.000044
1555	1.5462e+02	-18.0733	-33.091287	0.000106	1.059762	0.359057	0.000043
1556	1.5472e+02	-18.0348	-33.051775	0.000099	0.988432	0.334890	0.000040
1557	1.5482e+02	-18.0043	-33.006560	0.000113	1.131092	0.383224	0.000045
1558	1.5492e+02	-17.9498	-32.963381	0.000108	1.080142	0.365962	0.000043
1559	1.5502e+02	-17.9273	-32.921832	0.000104	1.039382	0.352152	0.000042
1560	1.5512e+02	-17.8583	-32.872544	0.000123	1.232992	0.417749	0.000050
1561	1.5522e+02	-17.8471	-32.836698	0.000090	0.896722	0.303817	0.000036
1562	1.5532e+02	-17.7829	-32.792297	0.000111	1.110712	0.376319	0.000045
1563	1.5542e+02	-17.7621	-32.750748	0.000104	1.039382	0.352152	0.000042
1564	1.5552e+02	-17.7252	-32.697794	0.000132	1.324702	0.448821	0.000053
1565	1.5562e+02	-17.6690	-32.657467	0.000101	1.008812	0.341795	0.000041
1566	1.5572e+02	-17.6305	-32.613067	0.000111	1.110712	0.376319	0.000045
1567	1.5582e+02	-17.5920	-32.570296	0.000107	1.069952	0.362510	0.000043
1568	1.5592e+02	-17.5615	-32.527932	0.000106	1.059762	0.359057	0.000043
1569	1.5602e+02	-17.5311	-32.478644	0.000123	1.232992	0.417749	0.000050
1570	1.5612e+02	-17.4557	-32.435465	0.000108	1.080142	0.365962	0.000043
1571	1.5622e+02	-17.4508	-32.392694	0.000107	1.069952	0.362510	0.000043
1572	1.5631e+02	-17.4156	-32.348294	0.000111	1.110712	0.376319	0.000045
1573	1.5641e+02	-17.3722	-32.303894	0.000111	1.110712	0.376319	0.000045
1574	1.5651e+02	-17.3193	-32.261937	0.000105	1.049572	0.355605	0.000042
1575	1.5661e+02	-17.2888	-32.213871	0.000120	1.202422	0.407392	0.000048
1576	1.5671e+02	-17.2263	-32.167841	0.000115	1.151472	0.390129	0.000046
1577	1.5681e+02	-17.2118	-32.123441	0.000111	1.110712	0.376319	0.000045
1578	1.5691e+02	-17.1557	-32.078226	0.000113	1.131092	0.383224	0.000045
1579	1.5701e+02	-17.1396	-32.029345	0.000122	1.222802	0.414297	0.000049
1580	1.5711e+02	-17.0851	-31.982093	0.000118	1.182042	0.400487	0.000047
1581	1.5721e+02	-17.0337	-31.933212	0.000122	1.222802	0.414297	0.000049
1582	1.5731e+02	-16.9904	-31.890034	0.000108	1.080142	0.365962	0.000043
1583	1.5741e+02	-16.9776	-31.843597	0.000116	1.161662	0.393582	0.000047
1584	1.5751e+02	-16.9102	-31.797567	0.000115	1.151472	0.390129	0.000046
1585	1.5761e+02	-16.8669	-31.747464	0.000125	1.253372	0.424654	0.000050
1586	1.5771e+02	-16.8621	-31.702656	0.000112	1.120902	0.379772	0.000045
1587	1.5781e+02	-16.7995	-31.653775	0.000122	1.222802	0.414297	0.000049
1588	1.5791e+02	-16.7626	-31.602857	0.000127	1.273752	0.431559	0.000051
1589	1.5801e+02	-16.6985	-31.553976	0.000122	1.222802	0.414297	0.000049
1590	1.5811e+02	-16.6792	-31.503873	0.000125	1.253372	0.424654	0.000050
1591	1.5821e+02	-16.6600	-31.456621	0.000118	1.182042	0.400487	0.000047
1592	1.5830e+02	-16.5814	-31.413036	0.000109	1.090332	0.369414	0.000044
1593	1.5840e+02	-16.5621	-31.364969	0.000120	1.202422	0.407392	0.000048
1594	1.5850e+02	-16.4915	-31.309978	0.000138	1.375652	0.466084	0.000055
1595	1.5860e+02	-16.4851	-31.267614	0.000106	1.059762	0.359057	0.000043
1596	1.5870e+02	-16.4273	-31.221992	0.000114	1.141282	0.386677	0.000046
1597	1.5880e+02	-16.3840	-31.171481	0.000126	1.263562	0.428106	0.000051
1598	1.5890e+02	-16.3407	-31.124230	0.000118	1.182042	0.400487	0.000047
1599	1.5900e+02	-16.3022	-31.075756	0.000121	1.212612	0.410844	0.000049
1600	1.5910e+02	-16.3038	-31.030948	-0.000112	-1.120902	-0.379772	0.000045
1601	1.5920e+02	-16.2332	-30.980030	0.000127	1.273752	0.431559	0.000051
1602	1.5930e+02	-16.2156	-30.927076	0.000132	1.324702	0.448821	0.000053
1603	1.5940e+02	-16.1594	-30.879824	0.000118	1.182042	0.400487	0.000047
1604	1.5950e+02	-16.1017	-30.824018	0.000140	1.396032	0.472989	0.000056
1605	1.5960e+02	-16.0728	-30.777174	0.000117	1.171852	0.397034	0.000047
1606	1.5970e+02	-16.0664	-30.729515	0.000119	1.192232	0.403939	0.000048
1607	1.5980e+02	-15.9782	-30.687151	0.000106	1.059762	0.359057	0.000043
1608	1.5990e+02	-15.9348	-30.635419	0.000129	1.294132	0.438464	0.000052
1609	1.6000e+02	-15.9188	-30.586130	0.000123	1.232992	0.417749	0.000050
1610	1.6010e+02	-15.8899	-30.537656	0.000121	1.212612	0.410844	0.000049
1611	1.6019e+02	-15.8675	-30.489997	0.000119	1.192232	0.403939	0.000048
1612	1.6029e+02	-15.8242	-30.439080	0.000127	1.273752	0.431559	0.000051
1613	1.6039e+02	-15.7568	-30.391013	0.000120	1.202422	0.407392	0.000048
1614	1.6049e+02	-15.7022	-30.335207	0.000140	1.396032	0.472989	0.000056
1615	1.6059e+02	-15.7022	-30.287548	-0.000119	-1.192232	-0.403939	0.000048
1616	1.6069e+02	-15.6493	-30.233372	0.000136	1.355272	0.459179	0.000054
1617	1.6079e+02	-15.6044	-30.179195	0.000136	1.355272	0.459179	0.000054
1618	1.6089e+02	-15.5803	-30.128684	0.000126	1.263562	0.428106	0.000051
1619	1.6099e+02	-15.5097	-30.072064	0.000142	1.416412	0.479894	0.000057
1620	1.6109e+02	-15.4841	-30.021553	0.000126	1.263562	0.428106	0.000051
1621	1.6119e+02	-15.4504	-29.966562	0.000138	1.375652	0.466084	0.000055
1622	1.6129e+02	-15.3974	-29.910349	0.000141	1.406222	0.476441	0.000056
1623	1.6139e+02	-15.3621	-29.859024	0.000128	1.283942	0.435011	0.000052
1624	1.6149e+02	-15.3188	-29.806884	0.000130	1.304322	0.441916	0.000052
1625	1.6159e+02	-15.2755	-29.754744	0.000130	1.304322	0.441916	0.000052
1626	1.6169e+02	-15.2482	-29.700160	0.000137	1.365462	0.462631	0.000055
1627	1.6179e+02	-15.2097	-29.649650	0.000126	1.263562	0.428106	0.000051
1628	1.6189e+02	-15.1552	-29.593029	0.000142	1.416412	0.479894	0.000057
1629	1.6199e+02	-15.1407	-29.541704	0.000128	1.283942	0.435011	0.000052
1630	1.6209e+02	-15.0782	-29.479788	0.000155	1.548883	0.524776	0.000062
1631	1.6219e+02	-15.0252	-29.426426	0.000133	1.334892	0.452274	0.000054
1632	1.6228e+02	-15.0124	-29.374286	0.000130	1.304322	0.441916	0.000052
1633	1.6238e+02	-14.9867	-29.318073	0.000141	1.406222	0.476441	0.000056
1634	1.6248e+02	-14.9386	-29.267155	0.000127	1.273752	0.431559	0.000051
1635	1.6258e+02	-14.8648	-29.212164	0.000138	1.375652	0.466084	0.000055
1636	1.6268e+02	-14.8504	-29.168171	0.000110	1.100522	0.372867	0.000044
1637	1.6278e+02	-14.8135	-29.106662	0.000154	1.538693	0.521323	0.000062
1638	1.6288e+02	-14.7477	-29.059410	0.000118	1.182042	0.400487	0.000047
1639	1.6298e+02	-14.7605	-29.009307	-0.000125	-1.253372	-0.424654	0.000050
1640	1.6308e+02	-14.7204	-28.959611	0.000124	1.243182	0.421202	0.000050
1641	1.6318e+02	-14.6466	-28.907472	0.000130	1.304322	0.441916	0.000052
1642	1.6328e+02	-14.6001	-28.858590	0.000122	1.222802	0.414297	0.000049
1643	1.6338e+02	-14.5680	-28.807673	0.000127	1.273752	0.431559	0.000051
1644	1.6348e+02	-14.5151	-28.758791	0.000122	1.222802	0.414297	0.000049
1645	1.6358e+02	-14.4910	-28.705430	0.000133	1.334892	0.452274	0.000054
1646	1.6368e+02	-14.4365	-28.657363	0.000120	1.202422	0.407392	0.000048
1647	1.6378e+02	-14.4221	-28.604816	0.000131	1.314512	0.445369	0.000053
1648	1.6388e+02	-14.3755	-28.559601	0.000113	1.131092	0.383224	0.000045
1649	1.6398e+02	-14.3434	-28.505017	0.000137	1.365462	0.462631	0.000055
1650	1.6408e+02	-14.2857	-28.454914	0.000125	1.253372	0.424654	0.000050
1651	1.6418e+02	-14.2472	-28.399923	0.000138	1.375652	0.466084	0.000055
1652	1.6427e+02	-14.2215	-28.349005	0.000127	1.273752	0.431559	0.000051
1653	1.6437e+02	-14.1718	-28.300124	0.000122	1.222802	0.414297	0.000049
1654	1.6447e+02	-14.1189	-28.246762	0.000133	1.334892	0.452274	0.000054
1655	1.6457e+02	-14.0916	-28.197881	0.000122	1.222802	0.414297	0.000049
1656	1.6467e+02	-14.0627	-28.145741	0.000130	1.304322	0.441916	0.000052
1657	1.6477e+02	-14.0001	-28.095230	0.000126	1.263562	0.428106	0.000051
1658	1.6487e+02	-13.9889	-28.047571	0.000119	1.192232	0.403939	0.000048
1659	1.6497e+02	-13.9360	-27.990136	0.000144	1.436792	0.486798	0.000058
1660	1.6507e+02	-13.8975	-27.940848	0.000123	1.232992	0.417749	0.000050
1661	1.6517e+02	-13.8526	-27.894411	0.000116	1.161662	0.393582	0.000047
1662	1.6527e+02	-13.8124	-27.839012	0.000139	1.385842	0.469536	0.000056
1663	1.6537e+02	-13.7483	-27.791760	0.000118	1.182042	0.400487	0.000047
1664	1.6547e+02	-13.7386	-27.738398	0.000133	1.334892	0.452274	0.000054
1665	1.6557e+02	-13.6825	-27.691961	0.000116	1.161662	0.393582	0.000047
1666	1.6567e+02	-13.6600	-27.636155	0.000140	1.396032	0.472989	0.000056
1667	1.6577e+02	-13.6135	-27.584830	0.000128	1.283942	0.435011	0.000052
1668	1.6587e+02	-13.5622	-27.531876	0.000132	1.324702	0.448821	0.000053
1669	1.6597e+02	-13.5253	-27.482180	0.000124	1.243182	0.421202	0.000050
1670	1.6607e+02	-13.4788	-27.430855	0.000128	1.283942	0.435011	0.000052
1671	1.6616e+02	-13.4627	-27.384825	0.000115	1.151472	0.390129	0.000046
1672	1.6626e+02	-13.4210	-27.327390	0.000144	1.436792	0.486798	0.000058
1673	1.6636e+02	-13.3841	-27.278509	0.000122	1.222802	0.414297	0.000049
1674	1.6646e+02	-13.3280	-27.227591	0.000127	1.273752	0.431559	0.000051
1675	1.6656e+02	-13.2943	-27.182376	0.000113	1.131092	0.383224	0.000045
1676	1.6666e+02	-13.2718	-27.128199	0.000136	1.355272	0.459179	0.000054
1677	1.6676e+02	-13.2221	-27.081762	0.000116	1.161662	0.393582	0.000047
1678	1.6686e+02	-13.1724	-27.029622	0.000130	1.304322	0.441916	0.000052
1679	1.6696e+02	-13.1226	-26.975038	0.000137	1.365462	0.462631	0.000055
1680	1.6706e+02	-13.1114	-26.924528	0.000126	1.263562	0.428106	0.000051
1681	1.6716e+02	-13.0504	-26.870759	0.000135	1.345082	0.455726	0.000054
1682	1.6726e+02	-13.0167	-26.817804	0.000132	1.324702	0.448821	0.000053
1683	1.6736e+02	-12.9606	-26.765257	0.000131	1.314512	0.445369	0.000053
1684	1.6746e+02	-12.9413	-26.712710	0.000131	1.314512	0.445369	0.000053
1685	1.6756e+02	-12.9093	-26.663829	0.000122	1.222802	0.414297	0.000049
1686	1.6766e+02	-12.8740	-26.613726	0.000125	1.253372	0.424654	0.000050
1687	1.6776e+02	-12.8178	-26.559142	0.000137	1.365462	0.462631	0.000055
1688	1.6786e+02	-12.7809	-26.514334	0.000112	1.120902	0.379772	0.000045
1689	1.6796e+02	-12.7456	-26.461379	0.000132	1.324702	0.448821	0.000053
1690	1.6806e+02	-12.6943	-26.404352	0.000143	1.426602	0.483346	0.000057
1691	1.6816e+02	-12.6574	-26.354248	0.000125	1.253372	0.424654	0.000050
1692	1.6825e+02	-12.6317	-26.302923	0.000128	1.283942	0.435011	0.000052
1693	1.6835e+02	-12.5756	-26.247525	0.000139	1.385842	0.469536	0.000056
1694	1.6845e+02	-12.5275	-26.198236	0.000123	1.232992	0.417749	0.000050
1695	1.6855e+02	-12.4970	-26.142023	0.000141	1.406222	0.476441	0.000056
1696	1.6865e+02	-12.4440	-26.093957	0.000120	1.202422	0.407392	0.000048
1697	1.6875e+02	-12.4200	-26.040595	0.000133	1.334892	0.452274	0.000054
1698	1.6885e+02	-12.3943	-25.990491	0.000125	1.253372	0.424654	0.000050
1699	1.6895e+02	-12.3382	-25.935093	0.000139	1.385842	0.469536	0.000056
1700	1.6905e+02	-12.3029	-25.885804	0.000123	1.232992	0.417749	0.000050
1701	1.6915e+02	-12.2579	-25.834072	0.000129	1.294132	0.438464	0.000052
1702	1.6925e+02	-12.2162	-25.790079	0.000110	1.100522	0.372867	0.000044
1703	1.6935e+02	-12.1841	-25.737124	0.000132	1.324702	0.448821	0.000053
1704	1.6945e+02	-12.1473	-25.693539	0.000109	1.090332	0.369414	0.000044
1705	1.6955e+02	-12.1136	-25.640584	0.000132	1.324702	0.448821	0.000053
1706	1.6965e+02	-12.0638	-25.588444	0.000130	1.304322	0.441916	0.000052
1707	1.6975e+02	-12.0077	-25.536712	0.000129	1.294132	0.438464	0.000052
1708	1.6985e+02	-11.9788	-25.484165	0.000131	1.314512	0.445369	0.000053
1709	1.6995e+02	-11.9531	-25.436098	0.000120	1.202422	0.407392	0.000048
1710	1.7005e+02	-11.9130	-25.385588	0.000126	1.263562	0.428106	0.000051
1711	1.7015e+02	-11.8569	-25.334670	0.000127	1.273752	0.431559	0.000051
1712	1.7024e+02	-11.8023	-25.283752	0.000127	1.273752	0.431559	0.000051
1713	1.7034e+02	-11.7590	-25.233649	0.000125	1.253372	0.424654	0.000050
1714	1.7044e+02	-11.7446	-25.181102	0.000131	1.314512	0.445369	0.000053
1715	1.7054e+02	-11.6981	-25.135479	0.000114	1.141282	0.386677	0.000046
1716	1.7064e+02	-11.6676	-25.082932	0.000131	1.314512	0.445369	0.000053
1717	1.7074e+02	-11.6227	-25.030792	0.000130	1.304322	0.441916	0.000052
1718	1.7084e+02	-11.5681	-24.974579	0.000141	1.406222	0.476441	0.000056
1719	1.7094e+02	-11.5312	-24.926105	0.000121	1.212612	0.410844	0.000049
1720	1.7104e+02	-11.4943	-24.873151	0.000132	1.324702	0.448821	0.000053
1721	1.7114e+02	-11.4526	-24.819382	0.000135	1.345082	0.455726	0.000054
1722	1.7124e+02	-11.4430	-24.757873	0.000154	1.538693	0.521323	0.000062
1723	1.7134e+02	-11.3981	-24.703696	0.000136	1.355272	0.459179	0.000054
1724	1.7144e+02	-11.3499	-24.649520	0.000136	1.355272	0.459179	0.000054
1725	1.7154e+02	-11.3179	-24.595343	0.000136	1.355272	0.459179	0.000054
1726	1.7164e+02	-11.2425	-24.536686	0.000147	1.467363	0.497156	0.000059
1727	1.7174e+02	-11.2168	-24.484546	0.000130	1.304322	0.441916	0.000052
1728	1.7184e+02	-11.1767	-24.427111	0.000144	1.436792	0.486798	0.000058
1729	1.7194e+02	-11.1302	-24.367231	0.000150	1.497933	0.507513	0.000060
1730	1.7204e+02	-11.1013	-24.314277	0.000132	1.324702	0.448821	0.000053
1731	1.7213e+02	-11.0676	-24.259286	0.000138	1.375652	0.466084	0.000055
1732	1.7223e+02	-11.0307	-24.201036	0.000146	1.457173	0.493703	0.000059
1733	1.7233e+02	-11.0018	-24.142786	0.000146	1.457173	0.493703	0.000059
1734	1.7243e+02	-10.9473	-24.092683	0.000125	1.253372	0.424654	0.000050
1735	1.7253e+02	-10.9040	-24.031989	0.000152	1.518313	0.514418	0.000061
1736	1.7263e+02	-10.8462	-23.972516	0.000149	1.487743	0.504061	0.000060
1737	1.7273e+02	-10.8093	-23.916711	0.000140	1.396032	0.472989	0.000056
1738	1.7283e+02	-10.7869	-23.861719	0.000138	1.375652	0.466084	0.000055
1739	1.7293e+02	-10.7500	-23.798989	0.000157	1.569263	0.531681	0.000063
1740	1.7303e+02	-10.6970	-23.739109	0.000150	1.497933	0.507513	0.000060
1741	1.7313e+02	-10.6665	-23.683303	0.000140	1.396032	0.472989	0.000056
1742	1.7323e+02	-10.6280	-23.628312	0.000138	1.375652	0.466084	0.000055
1743	1.7333e+02	-10.5687	-23.564767	0.000159	1.589643	0.538586	0.000064
1744	1.7343e+02	-10.5526	-23.510997	0.000135	1.345082	0.455726	0.000054
1745	1.7353e+02	-10.5109	-23.448267	0.000157	1.569263	0.531681	0.000063
1746	1.7363e+02	-10.4740	-23.397349	0.000127	1.273752	0.431559	0.000051
1747	1.7373e+02	-10.4131	-23.336247	0.000153	1.528503	0.517871	0.000061
1748	1.7383e+02	-10.3794	-23.276368	0.000150	1.497933	0.507513	0.000060
1749	1.7393e+02	-10.3521	-23.216081	0.000151	1.508123	0.510966	0.000061
1750	1.7403e+02	-10.3072	-23.162720	0.000133	1.334892	0.452274	0.000054
1751	1.7413e+02	-10.2639	-23.097545	0.000163	1.630403	0.552395	0.000066
1752	1.7422e+02	-10.2270	-23.040517	0.000143	1.426602	0.483346	0.000057
1753	1.7432e+02	-10.1773	-22.980637	0.000150	1.497933	0.507513	0.000060
1754	1.7442e+02	-10.1307	-22.921573	0.000148	1.477553	0.500608	0.000059
1755	1.7452e+02	-10.0954	-22.864137	0.000144	1.436792	0.486798	0.000058
1756	1.7462e+02	-10.0746	-22.804665	0.000149	1.487743	0.504061	0.000060
1757	1.7472e+02	-10.0313	-22.736232	0.000171	1.711923	0.580015	0.000069
1758	1.7482e+02	-9.9831	-22.675945	0.000151	1.508123	0.510966	0.000061
1759	1.7492e+02	-9.9286	-22.619325	0.000142	1.416412	0.479894	0.000057
1760	1.7502e+02	-9.9029	-22.559853	0.000149	1.487743	0.504061	0.000060
1761	1.7512e+02	-9.8660	-22.493456	0.000166	1.660973	0.562753	0.000067
1762	1.7522e+02	-9.8211	-22.437650	0.000140	1.396032	0.472989	0.000056
1763	1.7532e+02	-9.7778	-22.376141	0.000154	1.538693	0.521323	0.000062
1764	1.7542e+02	-9.7441	-22.313818	0.000156	1.559073	0.528228	0.000063
1765	1.7552e+02	-9.7377	-22.253531	0.000151	1.508123	0.510966	0.000061
1766	1.7562e+02	-9.6543	-22.194466	0.000148	1.477553	0.500608	0.000059
1767	1.7572e+02	-9.6270	-22.137031	0.000144	1.436792	0.486798	0.000058
1768	1.7582e+02	-9.5933	-22.073893	0.000158	1.579453	0.535133	0.000063
1769	1.7592e+02	-9.5564	-22.010347	0.000159	1.589643	0.538586	0.000064
1770	1.7602e+02	-9.5147	-21.948431	0.000155	1.548883	0.524776	0.000062
1771	1.7612e+02	-9.4778	-21.882442	0.000165	1.650783	0.559300	0.000066
1772	1.7621e+02	-9.4265	-21.825414	0.000143	1.426602	0.483346	0.000057
1773	1.7631e+02	-9.3816	-21.761054	0.000161	1.610023	0.545490	0.000065
1774	1.7641e+02	-9.3302	-21.701174	0.000150	1.497933	0.507513	0.000060
1775	1.7651e+02	-9.3062	-21.640073	0.000153	1.528503	0.517871	0.000061
1776	1.7661e+02	-9.2596	-21.578972	0.000153	1.528503	0.517871	0.000061
1777	1.7671e+02	-9.2195	-21.518685	0.000151	1.508123	0.510966	0.000061
1778	1.7681e+02	-9.1955	-21.453510	0.000163	1.630403	0.552395	0.000066
1779	1.7691e+02	-9.1489	-21.396482	0.000143	1.426602	0.483346	0.000057
1780	1.7701e+02	-9.1040	-21.328863	0.000169	1.691543	0.573110	0.000068
1781	1.7711e+02	-9.0639	-21.268169	0.000152	1.518313	0.514418	0.000061
1782	1.7721e+02	-9.0350	-21.207883	0.000151	1.508123	0.510966	0.000061
1783	1.7731e+02	-8.9885	-21.136598	0.000178	1.783253	0.604183	0.000072
1784	1.7741e+02	-8.9356	-21.074274	0.000156	1.559073	0.528228	0.000063
1785	1.7751e+02	-8.9260	-21.008285	0.000165	1.650783	0.559300	0.000066
1786	1.7761e+02	-8.8842	-20.942295	0.000165	1.650783	0.559300	0.000066
1787	1.7771e+02	-8.8329	-20.869788	0.000181	1.813823	0.614540	0.000073
1788	1.7781e+02	-8.8153	-20.804613	0.000163	1.630403	0.552395	0.000066
1789	1.7791e+02	-8.7447	-20.734143	0.000176	1.762873	0.597278	0.000071
1790	1.7801e+02	-8.7110	-20.675893	0.000146	1.457173	0.493703	0.000059
1791	1.7810e+02	-8.6837	-20.607052	0.000172	1.722113	0.583468	0.000069
1792	1.7820e+02	-8.6372	-20.545136	0.000155	1.548883	0.524776	0.000062
1793	1.7830e+02	-8.5971	-20.471815	0.000183	1.834203	0.621445	0.000074
1794	1.7840e+02	-8.5393	-20.414379	0.000144	1.436792	0.486798	0.000058
1795	1.7850e+02	-8.4992	-20.339021	0.000189	1.885153	0.638707	0.000076
1796	1.7860e+02	-8.4752	-20.276698	0.000156	1.559073	0.528228	0.000063
1797	1.7870e+02	-8.4431	-20.204191	0.000181	1.813823	0.614540	0.000073
1798	1.7880e+02	-8.3885	-20.136164	0.000170	1.701733	0.576563	0.000068
1799	1.7890e+02	-8.3581	-20.069768	0.000166	1.660973	0.562753	0.000067
1800	1.7900e+02	-8.3404	-20.003371	0.000166	1.660973	0.562753	0.000067
1801	1.7910e+02	-8.2650	-19.936566	0.000167	1.671163	0.566205	0.000067
1802	1.7920e+02	-8.2361	-19.870170	0.000166	1.660973	0.562753	0.000067
1803	1.7930e+02	-8.2024	-19.805402	0.000162	1.620213	0.548943	0.000065
1804	1.7940e+02	-8.1559	-19.741857	0.000159	1.589643	0.538586	0.000064
1805	1.7950e+02	-8.1254	-19.676682	0.000163	1.630403	0.552395	0.000066
1806	1.7960e+02	-8.0693	-19.612322	0.000161	1.610023	0.545490	0.000065
1807	1.7970e+02	-8.0516	-19.545518	0.000167	1.671163	0.566205	0.000067
1808	1.7980e+02	-7.9891	-19.483194	0.000156	1.559073	0.528228	0.000063
1809	1.7990e+02	-7.9442	-19.422908	0.000151	1.508123	0.510966	0.000061
1810	1.8000e+02	-7.9057	-19.359362	0.000159	1.589643	0.538586	0.000064
1811	1.8009e+02	-7.8623	-19.293373	0.000165	1.650783	0.559300	0.000066
1812	1.8019e+02	-7.8351	-19.222902	0.000176	1.762873	0.597278	0.000071
1813	1.8029e+02	-7.7998	-19.162208	0.000152	1.518313	0.514418	0.000061
1814	1.8039e+02	-7.7581	-19.094182	0.000170	1.701733	0.576563	0.000068
1815	1.8049e+02	-7.7356	-19.030229	0.000160	1.599833	0.542038	0.000064
1816	1.8059e+02	-7.6891	-18.970757	0.000149	1.487743	0.504061	0.000060
1817	1.8069e+02	-7.6345	-18.906397	0.000161	1.610023	0.545490	0.000065
1818	1.8079e+02	-7.5928	-18.838778	0.000169	1.691543	0.573110	0.000068
1819	1.8089e+02	-7.5383	-18.772381	0.000166	1.660973	0.562753	0.000067
1820	1.8099e+02	-7.5206	-18.707207	0.000163	1.630403	0.552395	0.000066
1821	1.8109e+02	-7.4661	-18.640402	0.000167	1.671163	0.566205	0.000067
1822	1.8119e+02	-7.4212	-18.579708	0.000152	1.518313	0.514418	0.000061
1823	1.8129e+02	-7.3859	-18.511275	0.000171	1.711923	0.580015	0.000069
1824	1.8139e+02	-7.3634	-18.448544	0.000157	1.569263	0.531681	0.000063
1825	1.8149e+02	-7.3169	-18.389072	0.000149	1.487743	0.504061	0.000060
1826	1.8159e+02	-7.2720	-18.319417	0.000174	1.742493	0.590373	0.000070
1827	1.8169e+02	-7.2207	-18.252205	0.000168	1.681353	0.569658	0.000068
1828	1.8179e+02	-7.1886	-18.188660	0.000159	1.589643	0.538586	0.000064
1829	1.8189e+02	-7.1533	-18.120633	0.000170	1.701733	0.576563	0.000068
1830	1.8199e+02	-7.1276	-18.053829	0.000167	1.671163	0.566205	0.000067
1831	1.8209e+02	-7.0907	-17.984581	0.000173	1.732303	0.586920	0.000070
1832	1.8218e+02	-7.0297	-17.921850	0.000157	1.569263	0.531681	0.000063
1833	1.8228e+02	-7.0089	-17.860749	0.000153	1.528503	0.517871	0.000061
1834	1.8238e+02	-6.9527	-17.792723	0.000170	1.701733	0.576563	0.000068
1835	1.8248e+02	-6.9142	-17.726326	0.000166	1.660973	0.562753	0.000067
1836	1.8258e+02	-6.8934	-17.661558	0.000162	1.620213	0.548943	0.000065
1837	1.8268e+02	-6.8308	-17.589051	0.000181	1.813823	0.614540	0.000073
1838	1.8278e+02	-6.7843	-17.532023	0.000143	1.426602	0.483346	0.000057
1839	1.8288e+02	-6.7634	-17.462368	0.000174	1.742493	0.590373	0.000070
1840	1.8298e+02	-6.7410	-17.399230	0.000158	1.579453	0.535133	0.000063
1841	1.8308e+02	-6.6897	-17.330796	0.000171	1.711923	0.580015	0.000069
1842	1.8318e+02	-6.6415	-17.268473	0.000156	1.559073	0.528228	0.000063
1843	1.8328e+02	-6.5966	-17.200854	0.000169	1.691543	0.573110	0.000068
1844	1.8338e+02	-6.5838	-17.133235	0.000169	1.691543	0.573110	0.000068
1845	1.8348e+02	-6.5372	-17.062765	0.000176	1.762873	0.597278	0.000071
1846	1.8358e+02	-6.4779	-17.002478	0.000151	1.508123	0.510966	0.000061
1847	1.8368e+02	-6.4394	-16.933637	0.000172	1.722113	0.583468	0.000069
1848	1.8378e+02	-6.4121	-16.871721	0.000155	1.548883	0.524776	0.000062
1849	1.8388e+02	-6.3640	-16.804102	0.000169	1.691543	0.573110	0.000068
1850	1.8398e+02	-6.3175	-16.733225	0.000177	1.773063	0.600730	0.000071
1851	1.8407e+02	-6.2806	-16.669272	0.000160	1.599833	0.542038	0.000064
1852	1.8417e+02	-6.2469	-16.604097	0.000163	1.630403	0.552395	0.000066
1853	1.8427e+02	-6.2052	-16.534034	0.000175	1.752683	0.593825	0.000070
1854	1.8437e+02	-6.1619	-16.468045	0.000165	1.650783	0.559300	0.000066
1855	1.8447e+02	-6.1089	-16.395945	0.000180	1.803633	0.611087	0.000072
1856	1.8457e+02	-6.0833	-16.333622	0.000156	1.559073	0.528228	0.000063
1857	1.8467e+02	-6.0351	-16.263151	0.000176	1.762873	0.597278	0.000071
1858	1.8477e+02	-6.0046	-16.197569	0.000164	1.640593	0.555848	0.000066
1859	1.8487e+02	-5.9774	-16.125877	0.000179	1.793443	0.607635	0.000072
1860	1.8497e+02	-5.9244	-16.055814	0.000175	1.752683	0.593825	0.000070
1861	1.8507e+02	-5.8907	-15.986973	0.000172	1.722113	0.583468	0.000069
1862	1.8517e+02	-5.8587	-15.914873	0.000180	1.803633	0.611087	0.000072
1863	1.8527e+02	-5.7849	-15.848477	0.000166	1.660973	0.562753	0.000067
1864	1.8537e+02	-5.7448	-15.782895	0.000164	1.640593	0.555848	0.000066
1865	1.8547e+02	-5.7319	-15.712017	0.000177	1.773063	0.600730	0.000071
1866	1.8557e+02	-5.6886	-15.637473	0.000186	1.864773	0.631802	0.000075
1867	1.8567e+02	-5.6421	-15.571891	0.000164	1.640593	0.555848	0.000066
1868	1.8577e+02	-5.6100	-15.507531	0.000161	1.610023	0.545490	0.000065
1869	1.8587e+02	-5.5442	-15.440319	0.000168	1.681353	0.569658	0.000068
1870	1.8597e+02	-5.5314	-15.375145	0.000163	1.630403	0.552395	0.000066
1871	1.8606e+02	-5.4817	-15.312007	0.000158	1.579453	0.535133	0.000063
1872	1.8616e+02	-5.4480	-15.239092	0.000182	1.824013	0.617992	0.000073
1873	1.8626e+02	-5.3998	-15.172288	0.000167	1.671163	0.566205	0.000067
1874	1.8636e+02	-5.3662	-15.106299	0.000165	1.650783	0.559300	0.000066
1875	1.8646e+02	-5.3212	-15.037458	0.000172	1.722113	0.583468	0.000069
1876	1.8656e+02	-5.2747	-14.970246	0.000168	1.681353	0.569658	0.000068
1877	1.8666e+02	-5.2523	-14.900591	0.000174	1.742493	0.590373	0.000070
1878	1.8676e+02	-5.2105	-14.829306	0.000178	1.783253	0.604183	0.000072
1879	1.8686e+02	-5.1704	-14.764131	0.000163	1.630403	0.552395	0.000066
1880	1.8696e+02	-5.1416	-14.693661	0.000176	1.762873	0.597278	0.000071
1881	1.8706e+02	-5.1063	-14.624820	0.000172	1.722113	0.583468	0.000069
1882	1.8716e+02	-5.0598	-14.559645	0.000163	1.630403	0.552395	0.000066
1883	1.8726e+02	-5.0052	-14.490804	0.000172	1.722113	0.583468	0.000069
1884	1.8736e+02	-4.9747	-14.419112	0.000179	1.793443	0.607635	0.000072
1885	1.8746e+02	-4.9507	-14.346197	0.000182	1.824013	0.617992	0.000073
1886	1.8756e+02	-4.8833	-14.280615	0.000164	1.640593	0.555848	0.000066
1887	1.8766e+02	-4.8512	-14.205664	0.000187	1.874963	0.635255	0.000075
1888	1.8776e+02	-4.8015	-14.136416	0.000173	1.732303	0.586920	0.000070
1889	1.8786e+02	-4.7614	-14.055762	0.000202	2.017623	0.683589	0.000081
1890	1.8796e+02	-4.7229	-13.986921	0.000172	1.722113	0.583468	0.000069
1891	1.8806e+02	-4.6988	-13.912378	0.000186	1.864773	0.631802	0.000075
1892	1.8815e+02	-4.6459	-13.836204	0.000191	1.905533	0.645612	0.000077
1893	1.8825e+02	-4.6090	-13.756365	0.000200	1.997243	0.676684	0.000080
1894	1.8835e+02	-4.5673	-13.685895	0.000176	1.762873	0.597278	0.000071
1895	1.8845e+02	-4.5127	-13.610944	0.000187	1.874963	0.635255	0.000075
1896	1.8855e+02	-4.4437	-13.536400	0.000186	1.864773	0.631802	0.000075
1897	1.8865e+02	-4.4694	-13.459413	-0.000193	-1.925913	-0.652517	0.000077
1898	1.8875e+02	-4.4148	-13.384869	0.000186	1.864773	0.631802	0.000075
1899	1.8885e+02	-4.3523	-13.298920	0.000215	2.150094	0.728471	0.000086
1900	1.8895e+02	-4.3330	-13.231708	0.000168	1.681353	0.569658	0.000068
1901	1.8905e+02	-4.2929	-13.153906	0.000195	1.946293	0.659422	0.000078
1902	1.8915e+02	-4.2657	-13.076918	0.000193	1.925913	0.652517	0.000077
1903	1.8925e+02	-4.2143	-12.994635	0.000206	2.058384	0.697399	0.000083
1904	1.8935e+02	-4.1854	-12.918462	0.000191	1.905533	0.645612	0.000077
1905	1.8945e+02	-4.1373	-12.841881	0.000192	1.915723	0.649065	0.000077
1906	1.8955e+02	-4.0876	-12.766930	0.000187	1.874963	0.635255	0.000075
1907	1.8965e+02	-4.0715	-12.683832	0.000208	2.078764	0.704304	0.000084
1908	1.8975e+02	-4.0362	-12.608067	0.000190	1.895343	0.642160	0.000076
1909	1.8985e+02	-3.9897	-12.530264	0.000195	1.946293	0.659422	0.000078
1910	1.8995e+02	-3.9480	-12.453684	0.000192	1.915723	0.649065	0.000077
1911	1.9004e+02	-3.8887	-12.364476	0.000223	2.231614	0.756091	0.000090
1912	1.9014e+02	-3.8822	-12.283822	0.000202	2.017623	0.683589	0.000081
1913	1.9024e+02	-3.8084	-12.209686	0.000185	1.854583	0.628350	0.000075
1914	1.9034e+02	-3.7876	-12.122922	0.000217	2.170474	0.735376	0.000087
1915	1.9044e+02	-3.7170	-12.044712	0.000196	1.956483	0.662875	0.000079
1916	1.9054e+02	-3.6817	-11.968946	0.000190	1.895343	0.642160	0.000076
1917	1.9064e+02	-3.6432	-11.887070	0.000205	2.048194	0.693947	0.000082
1918	1.9074e+02	-3.5967	-11.806417	0.000202	2.017623	0.683589	0.000081
1919	1.9084e+02	-3.5646	-11.721689	0.000212	2.119524	0.718114	0.000085
1920	1.9094e+02	-3.5357	-11.635740	0.000215	2.150094	0.728471	0.000086
1921	1.9104e+02	-3.4780	-11.554679	0.000203	2.027814	0.687042	0.000081
1922	1.9114e+02	-3.4684	-11.472803	0.000205	2.048194	0.693947	0.000082
1923	1.9124e+02	-3.4218	-11.393779	0.000198	1.976863	0.669779	0.000079
1924	1.9134e+02	-3.3641	-11.304570	0.000223	2.231614	0.756091	0.000090
1925	1.9144e+02	-3.2887	-11.218214	0.000216	2.160284	0.731924	0.000087
1926	1.9154e+02	-3.2967	-11.137560	-0.000202	-2.017623	-0.683589	0.000081
1927	1.9164e+02	-3.2646	-11.058536	0.000198	1.976863	0.669779	0.000079
1928	1.9174e+02	-3.2165	-10.973401	0.000213	2.129714	0.721567	0.000086
1929	1.9184e+02	-3.1700	-10.884600	0.000222	2.221424	0.752639	0.000089
1930	1.9194e+02	-3.1619	-10.805576	0.000198	1.976863	0.669779	0.000079
1931	1.9203e+02	-3.1074	-10.719627	0.000215	2.150094	0.728471	0.000086
1932	1.9213e+02	-3.0529	-10.636529	0.000208	2.078764	0.704304	0.000084
1933	1.9223e+02	-3.0224	-10.546099	0.000226	2.262184	0.766449	0.000091
1934	1.9233e+02	-2.9630	-10.460964	0.000213	2.129714	0.721567	0.000086
1935	1.9243e+02	-2.9470	-10.380718	0.000201	2.007433	0.680137	0.000081
1936	1.9253e+02	-2.8828	-10.289473	0.000228	2.282564	0.773354	0.000092
1937	1.9263e+02	-2.8539	-10.198635	0.000227	2.272374	0.769901	0.000091
1938	1.9273e+02	-2.8202	-10.115130	0.000209	2.088954	0.707757	0.000084
1939	1.9283e+02	-2.7705	-10.029996	0.000213	2.129714	0.721567	0.000086
1940	1.9293e+02	-2.7144	-9.939566	0.000226	2.262184	0.766449	0.000091
1941	1.9303e+02	-2.7128	-9.851987	0.000219	2.190854	0.742281	0.000088
1942	1.9313e+02	-2.6358	-9.764816	0.000218	2.180664	0.738829	0.000088
1943	1.9323e+02	-2.6181	-9.677644	0.000218	2.180664	0.738829	0.000088
1944	1.9333e+02	-2.5844	-9.585992	0.000229	2.292754	0.776806	0.000092
1945	1.9343e+02	-2.5235	-9.500043	0.000215	2.150094	0.728471	0.000086
1946	1.9353e+02	-2.4946	-9.413686	0.000216	2.160284	0.731924	0.000087
1947	1.9363e+02	-2.4689	-9.316739	0.000243	2.425224	0.821688	0.000097
1948	1.9373e+02	-2.4144	-9.232419	0.000211	2.109334	0.714662	0.000085
1949	1.9383e+02	-2.3823	-9.136286	0.000240	2.404844	0.814783	0.000097
1950	1.9393e+02	-2.3454	-9.049929	0.000216	2.160284	0.731924	0.000087
1951	1.9403e+02	-2.2908	-8.951353	0.000247	2.465984	0.835498	0.000099
1952	1.9412e+02	-2.2475	-8.864589	0.000217	2.170474	0.735376	0.000087
1953	1.9422e+02	-2.2251	-8.767234	0.000244	2.435414	0.825141	0.000098
1954	1.9432e+02	-2.1657	-8.672323	0.000237	2.374274	0.804426	0.000095
1955	1.9442e+02	-2.1368	-8.576190	0.000240	2.404844	0.814783	0.000097
1956	1.9452e+02	-2.0855	-8.481687	0.000236	2.364084	0.800973	0.000095
1957	1.9462e+02	-2.0630	-8.384739	0.000243	2.425224	0.821688	0.000097
1958	1.9472e+02	-2.0149	-8.293902	0.000227	2.272374	0.769901	0.000091
1959	1.9482e+02	-1.9860	-8.193695	0.000251	2.506744	0.849308	0.000101
1960	1.9492e+02	-1.9331	-8.099599	0.000235	2.353894	0.797521	0.000095
1961	1.9502e+02	-1.9138	-8.008355	0.000228	2.282564	0.773354	0.000092
1962	1.9512e+02	-1.8497	-7.906926	0.000254	2.537314	0.859665	0.000102
1963	1.9522e+02	-1.8144	-7.809164	0.000245	2.445604	0.828593	0.000098
1964	1.9532e+02	-1.7759	-7.708550	0.000252	2.516934	0.852760	0.000101
1965	1.9542e+02	-1.7326	-7.610788	0.000245	2.445604	0.828593	0.000098
1966	1.9552e+02	-1.7085	-7.519544	0.000228	2.282564	0.773354	0.000092
1967	1.9562e+02	-1.6572	-7.416486	0.000258	2.578074	0.873475	0.000104
1968	1.9572e+02	-1.6171	-7.315465	0.000253	2.527124	0.856213	0.000102
1969	1.9582e+02	-1.6058	-7.220147	0.000238	2.384464	0.807878	0.000096
1970	1.9592e+02	-1.5465	-7.121162	0.000248	2.476174	0.838951	0.000099
1971	1.9601e+02	-1.4887	-7.028696	0.000231	2.313134	0.783711	0.000093
1972	1.9611e+02	-1.4647	-6.925231	0.000259	2.588264	0.876928	0.000104
1973	1.9621e+02	-1.4310	-6.833986	0.000228	2.282564	0.773354	0.000092
1974	1.9631e+02	-1.3796	-6.734594	0.000249	2.486364	0.842403	0.000100
1975	1.9641e+02	-1.3411	-6.637240	0.000244	2.435414	0.825141	0.000098
1976	1.9651e+02	-1.2978	-6.538255	0.000248	2.476174	0.838951	0.000099
1977	1.9661e+02	-1.2625	-6.445789	0.000231	2.313134	0.783711	0.000093
1978	1.9671e+02	-1.2208	-6.345582	0.000251	2.506744	0.849308	0.000101
1979	1.9681e+02	-1.1887	-6.249857	0.000239	2.394654	0.811331	0.000096
1980	1.9691e+02	-1.1390	-6.150465	0.000249	2.486364	0.842403	0.000100
1981	1.9701e+02	-1.1021	-6.054332	0.000240	2.404844	0.814783	0.000097
1982	1.9711e+02	-1.0572	-5.955348	0.000248	2.476174	0.838951	0.000099
1983	1.9721e+02	-1.0299	-5.858808	0.000242	2.415034	0.818236	0.000097
1984	1.9731e+02	-0.9657	-5.756565	0.000256	2.557694	0.866570	0.000103
1985	1.9741e+02	-0.9433	-5.658803	0.000245	2.445604	0.828593	0.000098
1986	1.9751e+02	-0.9128	-5.553708	0.000263	2.629025	0.890738	0.000106
1987	1.9761e+02	-0.8647	-5.454317	0.000249	2.486364	0.842403	0.000100
1988	1.9771e+02	-0.8246	-5.357777	0.000242	2.415034	0.818236	0.000097
1989	1.9781e+02	-0.7877	-5.253090	0.000262	2.618835	0.887285	0.000105
1990	1.9791e+02	-0.7347	-5.156142	0.000243	2.425224	0.821688	0.000097
1991	1.9800e+02	-0.6962	-5.049826	0.000266	2.659595	0.901095	0.000107
1992	1.9810e+02	-0.6625	-4.951656	0.000246	2.455794	0.832046	0.000099
1993	1.9820e+02	-0.5871	-4.851042	0.000252	2.516934	0.852760	0.000101
1994	1.9830e+02	-0.6096	-4.752873	-0.000246	-2.455794	-0.832046	0.000099
1995	1.9840e+02	-0.5406	-4.645742	0.000268	2.679975	0.908000	0.000108
1996	1.9850e+02	-0.5166	-4.547980	0.000245	2.445604	0.828593	0.000098
1997	1.9860e+02	-0.4604	-4.444107	0.000260	2.598454	0.880380	0.000104
1998	1.9870e+02	-0.4203	-4.341050	0.000258	2.578074	0.873475	0.000104
1999	1.9880e+02	-0.3978	-4.234733	0.000266	2.659595	0.901095	0.000107
2000	1.9890e+02	-0.3577	-4.135749	0.000248	2.476174	0.838951	0.000099
2001	1.9900e+02	-0.3208	-4.031877	0.000260	2.598454	0.880380	0.000104
2002	1.9910e+02	-0.2775	-3.928819	0.000258	2.578074	0.873475	0.000104
2003	1.9920e+02	-0.2294	-3.823317	0.000264	2.639215	0.894190	0.000106
2004	1.9930e+02	-0.1957	-3.719852	0.000259	2.588264	0.876928	0.000104
2005	1.9940e+02	-0.1524	-3.617202	0.000257	2.567884	0.870023	0.000103
2006	1.9950e+02	-0.1219	-3.516588	0.000252	2.516934	0.852760	0.000101
2007	1.9960e+02	-0.0674	-3.412309	0.000261	2.608645	0.883833	0.000105
2008	1.9970e+02	-0.0209	-3.310066	0.000256	2.557694	0.866570	0.000103
2009	1.9980e+02	0.0064	-3.207008	0.000256	2.557694	0.866570	0.000104

Center data before PMax,+/-Pr and +/-Vc Calc.

PMax (uC/cm2):	3.48e+01
Pr (uC/cm2):	1.21e+00
-Pr (uC/cm2):	-3.21e+00
PLoss (uC/cm2):	-9.38e-01
Vc:	9.45e-01
-Vc:	-4.65e-01
C (Max-Eff) (nF):	1.74e-01
K (Eff):	5.89e+02
Vert. (+/-Pr) Shift (uC/cm2):	-9.98e-01
Horiz. Shift (+/-Vc):	2.40e-01
Offset (uC/cm2):	2.25e+00

A (Loop Area - uC/cm2·Volts):	-8.90e-03



Hysteresis Version: 5.48.1 - Radiant Technologies, Inc., 1999 - 9/12/24

