»»»»»»»»»»»»»»»»»»»»»»»»»»»»»»»»»»»» Hysteresis ««««««««««««««««««««««««««««««««««««
»»»  Executed Version:	5.48.1
»»»  Vision Version:	5.48.4 (R)
»»»  Vision Compiled:	9/18/24
»»»  Driver Version:	5.47.0
»»»  Windows Version:	Windows 8 or 8.1
»»»  Processor Information:	x86 (AMD or Intel) - 32 Processors
»»»  Tester Name:	PMF21124-494 (100V)
»»»  Tester S/N:	PMF21124-494
»»»  Internal Amp Type:	100V RevK 270k
»»»  Internal Amp S/N:	iAB2-596/K     
»»»  Execution Count:	1
»»»»»»»»»»»»»»»»»»»»»»»»»»»»»»»»»»»»»»»»»»««««««««««««««««««««««««««««««««««««««««««

Stored:	6/11/2025 - 17:35:3
Configured:	06/11/25 01:55:56 PM
Executed:	06/11/25 05:34:32 PM

»»»»»»»»»»»»»»»»»»»»»»»»»»»»»»»»»»» Sample Info ««««««««««««««««««««««««««««««««««««
Sample Name:	
Lot Name:	
Wafer Name:	
Die Row/Column:	0/0
Capacitor Number:	0
Sample Area (cm2):	1.00e-04
Sample Thickness (microns):	3.00e-01

Amplifier:	Internal

»»»»»»»»»»»»»»»»»»»»»»»»»»»»»»»»»»» Tester Info «««««««««««««««««««««««««««««««««««
Tester Name:	PMF21124-494 (100V)
Tester Serial Number:	PMF21124-494
Return Signal Amp. Level:	1.79 [Index: 2]

»»»»»»»»»»»»»»»»»»»»»»»»»»»»»»»» Hysteresis Info ««««««««««««««««««««««««««««««««««
Task Name:	Hyst-1287
Volts:	20.00
Field:	666.67 (kV/cm)
DCBias:	0.00
DCField:	0.00 (kV/cm)
Hysteresis Period (ms):	1.00e+00
Preset:	Enabled
Preset Delay (ms):	1.00e+03
Profile:	Standard Bipolar

»»»»»»»»»»»»»»»»»»»»»»»»»»»»»»»»»»»»»» Data «««««««««««««««««««««««««««««««««««««««
Points:	2001

Valid Data

Point	Time (ms)	Drive Voltage	Measured Polarization (uC/cm2)	Capacitance (uF)	Normalized Capacitance (uF/cm2)	Dielectric Constant	Instantaneous Current (mA)
   1	0.0000e+00	0.0257	-1.008768	-0.000006	-0.062423	-0.021150	-0.000513
   2	5.0000e-04	0.0674	-1.011334	-0.000006	-0.062423	-0.021150	-0.000513
   3	1.0000e-03	0.1059	-1.007058	0.000010	0.104039	0.035249	0.000855
   4	1.5000e-03	0.1652	-0.999788	0.000018	0.176866	0.059924	0.001454
   5	2.0000e-03	0.2086	-0.990808	0.000022	0.218481	0.074023	0.001796
   6	2.5000e-03	0.2246	-0.976696	0.000034	0.343328	0.116323	0.002822
   7	3.0000e-03	0.2535	-0.961729	0.000036	0.364135	0.123372	0.002993
   8	3.5000e-03	0.3305	-0.947618	0.000034	0.343328	0.116323	0.002822
   9	4.0000e-03	0.3786	-0.927519	0.000049	0.488982	0.165672	0.004020
  10	4.5000e-03	0.3914	-0.901862	0.000062	0.624232	0.211496	0.005132
  11	5.0000e-03	0.4219	-0.873211	0.000070	0.697059	0.236170	0.005730
  12	5.5000e-03	0.4893	-0.849691	0.000057	0.572213	0.193871	0.004704
  13	6.0000e-03	0.5374	-0.814199	0.000086	0.863521	0.292569	0.007099
  14	6.5000e-03	0.5904	-0.779561	0.000084	0.842713	0.285519	0.006928
  15	7.0000e-03	0.5888	-0.741075	-0.000094	-0.936348	-0.317243	0.007697
  16	7.5000e-03	0.6240	-0.703871	0.000091	0.905137	0.306669	0.007441
  17	8.0000e-03	0.6802	-0.663674	0.000098	0.977964	0.331343	0.008039
  18	8.5000e-03	0.7315	-0.621767	0.000102	1.019579	0.345443	0.008381
  19	9.0000e-03	0.7363	-0.569597	0.000127	1.269272	0.430041	0.010434
  20	9.5000e-03	0.8133	-0.514006	0.000135	1.352503	0.458240	0.011118
  21	1.0000e-02	0.8615	-0.466539	0.000115	1.154829	0.391267	0.009493
  22	1.0500e-02	0.8791	-0.410093	0.000137	1.373311	0.465290	0.011289
  23	1.1000e-02	0.9481	-0.353218	0.000138	1.383715	0.468815	0.011375
  24	1.1500e-02	0.9609	-0.293779	0.000145	1.446138	0.489965	0.011888
  25	1.2000e-02	1.0042	-0.238615	0.000134	1.342099	0.454715	0.011033
  26	1.2500e-02	1.0267	-0.177464	0.000149	1.487753	0.504064	0.012230
  27	1.3000e-02	1.0845	-0.112465	0.000158	1.581388	0.535789	0.013000
  28	1.3500e-02	1.1246	-0.051743	0.000148	1.477349	0.500540	0.012145
  29	1.4000e-02	1.1278	0.021809	0.000179	1.789466	0.606287	0.014710
  30	1.4500e-02	1.1791	0.084242	0.000152	1.518965	0.514639	0.012487
  31	1.5000e-02	1.2385	0.153090	0.000168	1.675023	0.567513	0.013770
  32	1.5500e-02	1.2497	0.224076	0.000173	1.727042	0.585138	0.014197
  33	1.6000e-02	1.3058	0.290785	0.000162	1.623004	0.549889	0.013342
  34	1.6500e-02	1.3684	0.362199	0.000174	1.737446	0.588663	0.014283
  35	1.7000e-02	1.4021	0.435750	0.000179	1.789466	0.606287	0.014710
  36	1.7500e-02	1.4438	0.510585	0.000182	1.820677	0.616862	0.014967
  37	1.8000e-02	1.4951	0.588840	0.000190	1.903908	0.645062	0.015651
  38	1.8500e-02	1.5449	0.668378	0.000194	1.935120	0.655636	0.015908
  39	1.9000e-02	1.5994	0.739792	0.000174	1.737446	0.588663	0.014283
  40	1.9500e-02	1.6347	0.823606	0.000204	2.039158	0.690886	0.016763
  41	2.0000e-02	1.6331	0.903145	-0.000194	-1.935120	-0.655636	0.015908
  42	2.0500e-02	1.6973	0.980972	0.000189	1.893504	0.641537	0.015566
  43	2.1000e-02	1.7181	1.060083	0.000192	1.924716	0.652111	0.015822
  44	2.1500e-02	1.7486	1.138338	0.000190	1.903908	0.645062	0.015651
  45	2.2000e-02	1.7743	1.214883	0.000186	1.862293	0.630962	0.015309
  46	2.2500e-02	1.8385	1.297415	0.000201	2.007947	0.680311	0.016506
  47	2.3000e-02	1.8834	1.379092	0.000199	1.987139	0.673261	0.016335
  48	2.3500e-02	1.9090	1.466327	0.000212	2.122389	0.719085	0.017447
  49	2.4000e-02	1.9588	1.546293	0.000195	1.945524	0.659161	0.015993
  50	2.4500e-02	2.0245	1.625404	0.000192	1.924716	0.652111	0.015822
  51	2.5000e-02	2.0358	1.705370	0.000195	1.945524	0.659161	0.015993
  52	2.5500e-02	2.0550	1.790039	0.000206	2.059966	0.697935	0.016934
  53	2.6000e-02	2.1449	1.868722	0.000191	1.914312	0.648586	0.015737
  54	2.6500e-02	2.2042	1.959807	0.000222	2.216024	0.750809	0.018217
  55	2.7000e-02	2.2122	2.038490	0.000191	1.914312	0.648586	0.015737
  56	2.7500e-02	2.2347	2.115890	0.000188	1.883100	0.638012	0.015480
  57	2.8000e-02	2.2780	2.197994	0.000200	1.997543	0.676786	0.016421
  58	2.8500e-02	2.3229	2.286940	0.000216	2.164005	0.733185	0.017789
  59	2.9000e-02	2.3454	2.367334	0.000196	1.955927	0.662686	0.016079
  60	2.9500e-02	2.3903	2.448582	0.000198	1.976735	0.669736	0.016250
  61	3.0000e-02	2.4689	2.530259	0.000199	1.987139	0.673261	0.016335
  62	3.0500e-02	2.4705	2.610652	0.000196	1.955927	0.662686	0.016079
  63	3.1000e-02	2.5154	2.690618	0.000195	1.945524	0.659161	0.015993
  64	3.1500e-02	2.5620	2.779137	0.000215	2.153601	0.729660	0.017704
  65	3.2000e-02	2.6037	2.859103	0.000195	1.945524	0.659161	0.015993
  66	3.2500e-02	2.6486	2.940779	0.000199	1.987139	0.673261	0.016335
  67	3.3000e-02	2.7112	3.021173	0.000196	1.955927	0.662686	0.016079
  68	3.3500e-02	2.7497	3.106698	0.000208	2.080774	0.704985	0.017105
  69	3.4000e-02	2.7673	3.185381	0.000191	1.914312	0.648586	0.015737
  70	3.4500e-02	2.8074	3.263636	0.000190	1.903908	0.645062	0.015651
  71	3.5000e-02	2.8251	3.350444	0.000211	2.111985	0.715560	0.017362
  72	3.5500e-02	2.8828	3.428272	0.000189	1.893504	0.641537	0.015566
  73	3.6000e-02	2.9438	3.510804	0.000201	2.007947	0.680311	0.016506
  74	3.6500e-02	2.9582	3.587348	0.000186	1.862293	0.630962	0.015309
  75	3.7000e-02	3.0160	3.670735	0.000203	2.028755	0.687361	0.016677
  76	3.7500e-02	3.0176	3.749418	0.000191	1.914312	0.648586	0.015737
  77	3.8000e-02	3.0865	3.831522	0.000200	1.997543	0.676786	0.016421
  78	3.8500e-02	3.1507	3.911488	0.000195	1.945524	0.659161	0.015993
  79	3.9000e-02	3.1668	3.992310	0.000197	1.966331	0.666211	0.016164
  80	3.9500e-02	3.2085	4.070565	0.000190	1.903908	0.645062	0.015651
  81	4.0000e-02	3.2438	4.148393	0.000189	1.893504	0.641537	0.015566
  82	4.0500e-02	3.2758	4.231352	0.000202	2.018351	0.683836	0.016592
  83	4.1000e-02	3.3208	4.305759	0.000181	1.810273	0.613337	0.014881
  84	4.1500e-02	3.3657	4.380166	0.000181	1.810273	0.613337	0.014881
  85	4.2000e-02	3.3913	4.466974	0.000211	2.111985	0.715560	0.017362
  86	4.2500e-02	3.4571	4.546512	0.000194	1.935120	0.655636	0.015908
  87	4.3000e-02	3.4732	4.620919	0.000181	1.810273	0.613337	0.014881
  88	4.3500e-02	3.5454	4.699602	0.000191	1.914312	0.648586	0.015737
  89	4.4000e-02	3.5678	4.774864	0.000183	1.831081	0.620387	0.015052
  90	4.4500e-02	3.6047	4.850553	0.000184	1.841485	0.623912	0.015138
  91	4.5000e-02	3.6352	4.929664	0.000192	1.924716	0.652111	0.015822
  92	4.5500e-02	3.6897	5.009630	0.000195	1.945524	0.659161	0.015993
  93	4.6000e-02	3.7314	5.085320	0.000184	1.841485	0.623912	0.015138
  94	4.6500e-02	3.7828	5.163575	0.000190	1.903908	0.645062	0.015651
  95	4.7000e-02	3.7908	5.240975	0.000188	1.883100	0.638012	0.015480
  96	4.7500e-02	3.8373	5.314955	0.000180	1.799869	0.609812	0.014796
  97	4.8000e-02	3.8710	5.397914	0.000202	2.018351	0.683836	0.016592
  98	4.8500e-02	3.9127	5.464623	0.000162	1.623004	0.549889	0.013342
  99	4.9000e-02	3.9641	5.548010	0.000203	2.028755	0.687361	0.016677
 100	4.9500e-02	4.0298	5.619851	0.000175	1.747850	0.592188	0.014368
 101	5.0000e-02	4.0395	5.697679	0.000189	1.893504	0.641537	0.015566
 102	5.0500e-02	4.0892	5.771231	0.000179	1.789466	0.606287	0.014710
 103	5.1000e-02	4.1165	5.847776	0.000186	1.862293	0.630962	0.015309
 104	5.1500e-02	4.1694	5.925176	0.000188	1.883100	0.638012	0.015480
 105	5.2000e-02	4.2047	5.997872	0.000177	1.768658	0.599237	0.014539
 106	5.2500e-02	4.2512	6.071424	0.000179	1.789466	0.606287	0.014710
 107	5.3000e-02	4.2929	6.146686	0.000183	1.831081	0.620387	0.015052
 108	5.3500e-02	4.3154	6.216816	0.000171	1.706235	0.578088	0.014026
 109	5.4000e-02	4.3667	6.295499	0.000191	1.914312	0.648586	0.015737
 110	5.4500e-02	4.3844	6.371189	0.000184	1.841485	0.623912	0.015138
 111	5.5000e-02	4.4421	6.447306	0.000185	1.851889	0.627437	0.015223
 112	5.5500e-02	4.4485	6.522141	0.000182	1.820677	0.616862	0.014967
 113	5.6000e-02	4.5175	6.592271	0.000171	1.706235	0.578088	0.014026
 114	5.6500e-02	4.5721	6.668389	0.000185	1.851889	0.627437	0.015223
 115	5.7000e-02	4.6058	6.742368	0.000180	1.799869	0.609812	0.014796
 116	5.7500e-02	4.6378	6.809932	0.000164	1.643811	0.556938	0.013513
 117	5.8000e-02	4.6844	6.882629	0.000177	1.768658	0.599237	0.014539
 118	5.8500e-02	4.7389	6.959601	0.000187	1.872696	0.634487	0.015395
 119	5.9000e-02	4.7485	7.029732	0.000171	1.706235	0.578088	0.014026
 120	5.9500e-02	4.8127	7.099007	0.000169	1.685427	0.571038	0.013855
 121	6.0000e-02	4.8576	7.172131	0.000178	1.779062	0.602762	0.014625
 122	6.0500e-02	4.8737	7.246110	0.000180	1.799869	0.609812	0.014796
 123	6.1000e-02	4.9138	7.315386	0.000169	1.685427	0.571038	0.013855
 124	6.1500e-02	4.9507	7.388937	0.000179	1.789466	0.606287	0.014710
 125	6.2000e-02	4.9827	7.455647	0.000162	1.623004	0.549889	0.013342
 126	6.2500e-02	5.0245	7.533047	0.000188	1.883100	0.638012	0.015480
 127	6.3000e-02	5.0742	7.604460	0.000174	1.737446	0.588663	0.014283
 128	6.3500e-02	5.1368	7.668604	0.000156	1.560580	0.528739	0.012829
 129	6.4000e-02	5.1544	7.747287	0.000191	1.914312	0.648586	0.015737
 130	6.4500e-02	5.1993	7.816135	0.000168	1.675023	0.567513	0.013770
 131	6.5000e-02	5.2202	7.892252	0.000185	1.851889	0.627437	0.015223
 132	6.5500e-02	5.2571	7.958534	0.000161	1.612600	0.546364	0.013256
 133	6.6000e-02	5.3196	8.029947	0.000174	1.737446	0.588663	0.014283
 134	6.6500e-02	5.3790	8.096229	0.000161	1.612600	0.546364	0.013256
 135	6.7000e-02	5.4047	8.170208	0.000180	1.799869	0.609812	0.014796
 136	6.7500e-02	5.4464	8.238201	0.000165	1.654215	0.560463	0.013598
 137	6.8000e-02	5.4833	8.309614	0.000174	1.737446	0.588663	0.014283
 138	6.8500e-02	5.5490	8.377607	0.000165	1.654215	0.560463	0.013598
 139	6.9000e-02	5.5699	8.445172	0.000164	1.643811	0.556938	0.013513
 140	6.9500e-02	5.5908	8.516585	0.000174	1.737446	0.588663	0.014283
 141	7.0000e-02	5.6613	8.586716	0.000171	1.706235	0.578088	0.014026
 142	7.0500e-02	5.6822	8.658557	0.000175	1.747850	0.592188	0.014368
 143	7.1000e-02	5.7239	8.725694	0.000163	1.633407	0.553413	0.013427
 144	7.1500e-02	5.7303	8.798818	0.000178	1.779062	0.602762	0.014625
 145	7.2000e-02	5.8041	8.865527	0.000162	1.623004	0.549889	0.013342
 146	7.2500e-02	5.8458	8.936085	0.000172	1.716638	0.581613	0.014112
 147	7.3000e-02	5.8779	9.001940	0.000160	1.602196	0.542839	0.013171
 148	7.3500e-02	5.8988	9.071215	0.000169	1.685427	0.571038	0.013855
 149	7.4000e-02	5.9677	9.144766	0.000179	1.789466	0.606287	0.014710
 150	7.4500e-02	6.0014	9.212759	0.000165	1.654215	0.560463	0.013598
 151	7.5000e-02	6.0319	9.279896	0.000163	1.633407	0.553413	0.013427
 152	7.5500e-02	6.0768	9.344468	0.000157	1.570984	0.532264	0.012914
 153	7.6000e-02	6.1153	9.413315	0.000168	1.675023	0.567513	0.013770
 154	7.6500e-02	6.1651	9.482590	0.000169	1.685427	0.571038	0.013855
 155	7.7000e-02	6.2148	9.547162	0.000157	1.570984	0.532264	0.012914
 156	7.7500e-02	6.2613	9.616010	0.000168	1.675023	0.567513	0.013770
 157	7.8000e-02	6.2918	9.684430	0.000166	1.664619	0.563988	0.013684
 158	7.8500e-02	6.3143	9.753277	0.000168	1.675023	0.567513	0.013770
 159	7.9000e-02	6.3512	9.821270	0.000165	1.654215	0.560463	0.013598
 160	7.9500e-02	6.4346	9.886269	0.000158	1.581388	0.535789	0.013000
 161	8.0000e-02	6.4458	9.953406	0.000163	1.633407	0.553413	0.013427
 162	8.0500e-02	6.4747	10.019260	0.000160	1.602196	0.542839	0.013171
 163	8.1000e-02	6.5004	10.094522	0.000183	1.831081	0.620387	0.015052
 164	8.1500e-02	6.5774	10.158238	0.000155	1.550177	0.525214	0.012743
 165	8.2000e-02	6.6014	10.224520	0.000161	1.612600	0.546364	0.013256
 166	8.2500e-02	6.6560	10.283105	0.000143	1.425330	0.482915	0.011717
 167	8.3000e-02	6.6528	10.351097	-0.000165	-1.654215	-0.560463	0.013598
 168	8.3500e-02	6.7105	10.420373	0.000169	1.685427	0.571038	0.013855
 169	8.4000e-02	6.7650	10.487510	0.000163	1.633407	0.553413	0.013427
 170	8.4500e-02	6.8084	10.552081	0.000157	1.570984	0.532264	0.012914
 171	8.5000e-02	6.8324	10.613232	0.000149	1.487753	0.504064	0.012230
 172	8.5500e-02	6.8645	10.680369	0.000163	1.633407	0.553413	0.013427
 173	8.6000e-02	6.9158	10.746223	0.000160	1.602196	0.542839	0.013171
 174	8.6500e-02	6.9367	10.811650	0.000159	1.591792	0.539314	0.013085
 175	8.7000e-02	7.0009	10.873655	0.000151	1.508561	0.511114	0.012401
 176	8.7500e-02	7.0426	10.938655	0.000158	1.581388	0.535789	0.013000
 177	8.8000e-02	7.0779	11.006219	0.000164	1.643811	0.556938	0.013513
 178	8.8500e-02	7.1340	11.074639	0.000166	1.664619	0.563988	0.013684
 179	8.9000e-02	7.1677	11.133224	0.000143	1.425330	0.482915	0.011717
 180	8.9500e-02	7.2223	11.201644	0.000166	1.664619	0.563988	0.013684
 181	9.0000e-02	7.2463	11.265788	0.000156	1.560580	0.528739	0.012829
 182	9.0500e-02	7.3105	11.327794	0.000151	1.508561	0.511114	0.012401
 183	9.1000e-02	7.3169	11.391510	0.000155	1.550177	0.525214	0.012743
 184	9.1500e-02	7.3827	11.454798	0.000154	1.539773	0.521689	0.012658
 185	9.2000e-02	7.3827	11.519370	-0.000157	-1.570984	-0.532264	0.012914
 186	9.2500e-02	7.4260	11.587790	0.000166	1.664619	0.563988	0.013684
 187	9.3000e-02	7.4918	11.651506	0.000155	1.550177	0.525214	0.012743
 188	9.3500e-02	7.5078	11.714367	0.000153	1.529369	0.518164	0.012572
 189	9.4000e-02	7.5287	11.776372	0.000151	1.508561	0.511114	0.012401
 190	9.4500e-02	7.6025	11.838806	0.000152	1.518965	0.514639	0.012487
 191	9.5000e-02	7.6554	11.899956	0.000149	1.487753	0.504064	0.012230
 192	9.5500e-02	7.6650	11.965810	0.000160	1.602196	0.542839	0.013171
 193	9.6000e-02	7.7180	12.026106	0.000147	1.466946	0.497015	0.012059
 194	9.6500e-02	7.7709	12.093243	0.000163	1.633407	0.553413	0.013427
 195	9.7000e-02	7.7902	12.150972	0.000140	1.404522	0.475865	0.011546
 196	9.7500e-02	7.8511	12.213405	0.000152	1.518965	0.514639	0.012487
 197	9.8000e-02	7.8768	12.279687	0.000161	1.612600	0.546364	0.013256
 198	9.8500e-02	7.9185	12.338272	0.000143	1.425330	0.482915	0.011717
 199	9.9000e-02	7.9618	12.400705	0.000152	1.518965	0.514639	0.012487
 200	9.9500e-02	8.0083	12.466132	0.000159	1.591792	0.539314	0.013085
 201	1.0000e-01	8.0661	12.526855	0.000148	1.477349	0.500540	0.012145
 202	1.0050e-01	8.0709	12.590999	0.000156	1.560580	0.528739	0.012829
 203	1.0100e-01	8.1190	12.654715	0.000155	1.550177	0.525214	0.012743
 204	1.0150e-01	8.1720	12.712872	0.000141	1.414926	0.479390	0.011631
 205	1.0200e-01	8.2313	12.782575	0.000170	1.695831	0.574563	0.013941
 206	1.0250e-01	8.2442	12.846291	0.000155	1.550177	0.525214	0.012743
 207	1.0300e-01	8.2666	12.911718	0.000159	1.591792	0.539314	0.013085
 208	1.0350e-01	8.3196	12.966026	0.000132	1.321291	0.447666	0.010862
 209	1.0400e-01	8.3725	13.028459	0.000152	1.518965	0.514639	0.012487
 210	1.0450e-01	8.3917	13.091320	0.000153	1.529369	0.518164	0.012572
 211	1.0500e-01	8.4527	13.149477	0.000141	1.414926	0.479390	0.011631
 212	1.0550e-01	8.5249	13.205068	0.000135	1.352503	0.458240	0.011118
 213	1.0600e-01	8.5089	13.275627	-0.000172	-1.716638	-0.581613	0.014112
 214	1.0650e-01	8.5778	13.337205	0.000150	1.498157	0.507589	0.012316
 215	1.0700e-01	8.5955	13.388520	0.000125	1.248464	0.422991	0.010263
 216	1.0750e-01	8.6147	13.452236	0.000155	1.550177	0.525214	0.012743
 217	1.0800e-01	8.6805	13.517663	0.000159	1.591792	0.539314	0.013085
 218	1.0850e-01	8.7094	13.576247	0.000143	1.425330	0.482915	0.011717
 219	1.0900e-01	8.7559	13.641246	0.000158	1.581388	0.535789	0.013000
 220	1.0950e-01	8.7880	13.704962	0.000155	1.550177	0.525214	0.012743
 221	1.1000e-01	8.8201	13.761837	0.000138	1.383715	0.468815	0.011375
 222	1.1050e-01	8.8778	13.822987	0.000149	1.487753	0.504064	0.012230
 223	1.1100e-01	8.9340	13.882427	0.000145	1.446138	0.489965	0.011888
 224	1.1150e-01	8.9789	13.941867	0.000145	1.446138	0.489965	0.011888
 225	1.1200e-01	9.0046	14.003017	0.000149	1.487753	0.504064	0.012230
 226	1.1250e-01	9.0206	14.071010	0.000165	1.654215	0.560463	0.013598
 227	1.1300e-01	9.0784	14.127456	0.000137	1.373311	0.465290	0.011289
 228	1.1350e-01	9.1249	14.185186	0.000140	1.404522	0.475865	0.011546
 229	1.1400e-01	9.1441	14.246336	0.000149	1.487753	0.504064	0.012230
 230	1.1450e-01	9.2019	14.306631	0.000147	1.466946	0.497015	0.012059
 231	1.1500e-01	9.2131	14.366071	0.000145	1.446138	0.489965	0.011888
 232	1.1550e-01	9.2805	14.428932	0.000153	1.529369	0.518164	0.012572
 233	1.1600e-01	9.3495	14.485379	0.000137	1.373311	0.465290	0.011289
 234	1.1650e-01	9.3944	14.548239	0.000153	1.529369	0.518164	0.012572
 235	1.1700e-01	9.3799	14.606824	-0.000143	-1.425330	-0.482915	0.011717
 236	1.1750e-01	9.4313	14.661560	0.000133	1.331695	0.451191	0.010947
 237	1.1800e-01	9.4698	14.722711	0.000149	1.487753	0.504064	0.012230
 238	1.1850e-01	9.5452	14.786854	0.000156	1.560580	0.528739	0.012829
 239	1.1900e-01	9.5676	14.847150	0.000147	1.466946	0.497015	0.012059
 240	1.1950e-01	9.6045	14.903596	0.000137	1.373311	0.465290	0.011289
 241	1.2000e-01	9.6446	14.965602	0.000151	1.508561	0.511114	0.012401
 242	1.2050e-01	9.7072	15.019910	0.000132	1.321291	0.447666	0.010862
 243	1.2100e-01	9.7008	15.084054	-0.000156	-1.560580	-0.528739	0.012829
 244	1.2150e-01	9.7650	15.141356	0.000139	1.394118	0.472340	0.011460
 245	1.2200e-01	9.7970	15.202079	0.000148	1.477349	0.500540	0.012145
 246	1.2250e-01	9.8564	15.261946	0.000146	1.456542	0.493490	0.011974
 247	1.2300e-01	9.8724	15.324807	0.000153	1.529369	0.518164	0.012572
 248	1.2350e-01	9.9190	15.376550	0.000126	1.258868	0.426516	0.010349
 249	1.2400e-01	9.9655	15.441121	0.000157	1.570984	0.532264	0.012914
 250	1.2450e-01	9.9896	15.499706	0.000143	1.425330	0.482915	0.011717
 251	1.2500e-01	10.0393	15.557435	0.000140	1.404522	0.475865	0.011546
 252	1.2550e-01	10.1019	15.613454	0.000136	1.362907	0.461765	0.011204
 253	1.2600e-01	10.1099	15.668618	0.000134	1.342099	0.454715	0.011033
 254	1.2650e-01	10.1580	15.728913	0.000147	1.466946	0.497015	0.012059
 255	1.2700e-01	10.2013	15.789208	0.000147	1.466946	0.497015	0.012059
 256	1.2750e-01	10.2462	15.845655	0.000137	1.373311	0.465290	0.011289
 257	1.2800e-01	10.3056	15.905094	0.000145	1.446138	0.489965	0.011888
 258	1.2850e-01	10.3345	15.958975	0.000131	1.310888	0.444141	0.010776
 259	1.2900e-01	10.3473	16.024402	0.000159	1.591792	0.539314	0.013085
 260	1.2950e-01	10.4195	16.080421	0.000136	1.362907	0.461765	0.011204
 261	1.3000e-01	10.4339	16.139005	0.000143	1.425330	0.482915	0.011717
 262	1.3050e-01	10.4805	16.192031	0.000129	1.290080	0.437091	0.010605
 263	1.3100e-01	10.5029	16.254464	0.000152	1.518965	0.514639	0.012487
 264	1.3150e-01	10.5911	16.314332	0.000146	1.456542	0.493490	0.011974
 265	1.3200e-01	10.6264	16.364792	0.000123	1.227657	0.415941	0.010092
 266	1.3250e-01	10.6569	16.426797	0.000151	1.508561	0.511114	0.012401
 267	1.3300e-01	10.6810	16.487520	0.000148	1.477349	0.500540	0.012145
 268	1.3350e-01	10.7115	16.540118	0.000128	1.279676	0.433566	0.010520
 269	1.3400e-01	10.7484	16.601696	0.000150	1.498157	0.507589	0.012316
 270	1.3450e-01	10.7869	16.655577	0.000131	1.310888	0.444141	0.010776
 271	1.3500e-01	10.8238	16.706464	0.000124	1.238060	0.419466	0.010177
 272	1.3550e-01	10.8815	16.770180	0.000155	1.550177	0.525214	0.012743
 273	1.3600e-01	10.9152	16.827910	0.000140	1.404522	0.475865	0.011546
 274	1.3650e-01	10.9697	16.883501	0.000135	1.352503	0.458240	0.011118
 275	1.3700e-01	11.0291	16.941658	0.000141	1.414926	0.479390	0.011631
 276	1.3750e-01	11.0243	16.994684	-0.000129	-1.290080	-0.437091	0.010605
 277	1.3800e-01	11.1093	17.058827	0.000156	1.560580	0.528739	0.012829
 278	1.3850e-01	11.1061	17.110570	-0.000126	-1.258868	-0.426516	0.010349
 279	1.3900e-01	11.1542	17.168300	0.000140	1.404522	0.475865	0.011546
 280	1.3950e-01	11.2056	17.223891	0.000135	1.352503	0.458240	0.011118
 281	1.4000e-01	11.2521	17.277772	0.000131	1.310888	0.444141	0.010776
 282	1.4050e-01	11.2810	17.340633	0.000153	1.529369	0.518164	0.012572
 283	1.4100e-01	11.3082	17.392375	0.000126	1.258868	0.426516	0.010349
 284	1.4150e-01	11.3676	17.449249	0.000138	1.383715	0.468815	0.011375
 285	1.4200e-01	11.3949	17.510400	0.000149	1.487753	0.504064	0.012230
 286	1.4250e-01	11.4542	17.562142	0.000126	1.258868	0.426516	0.010349
 287	1.4300e-01	11.4767	17.617734	0.000135	1.352503	0.458240	0.011118
 288	1.4350e-01	11.5296	17.675463	0.000140	1.404522	0.475865	0.011546
 289	1.4400e-01	11.5441	17.726351	0.000124	1.238060	0.419466	0.010177
 290	1.4450e-01	11.5954	17.784935	0.000143	1.425330	0.482915	0.011717
 291	1.4500e-01	11.6435	17.843947	0.000144	1.435734	0.486440	0.011802
 292	1.4550e-01	11.6933	17.899966	0.000136	1.362907	0.461765	0.011204
 293	1.4600e-01	11.6965	17.954275	0.000132	1.321291	0.447666	0.010862
 294	1.4650e-01	11.7703	18.004307	0.000122	1.217253	0.412416	0.010006
 295	1.4700e-01	11.8264	18.065457	0.000149	1.487753	0.504064	0.012230
 296	1.4750e-01	11.8200	18.119766	-0.000132	-1.321291	-0.447666	0.010862
 297	1.4800e-01	11.9018	18.174074	0.000132	1.321291	0.447666	0.010862
 298	1.4850e-01	11.9371	18.227955	0.000131	1.310888	0.444141	0.010776
 299	1.4900e-01	11.9451	18.290816	0.000153	1.529369	0.518164	0.012572
 300	1.4950e-01	11.9948	18.341276	0.000123	1.227657	0.415941	0.010092
 301	1.5000e-01	12.0542	18.398577	0.000139	1.394118	0.472340	0.011460
 302	1.5050e-01	12.0927	18.454596	0.000136	1.362907	0.461765	0.011204
 303	1.5100e-01	12.1521	18.505911	0.000125	1.248464	0.422991	0.010263
 304	1.5150e-01	12.1456	18.565351	-0.000145	-1.446138	-0.489965	0.011888
 305	1.5200e-01	12.1825	18.615811	0.000123	1.227657	0.415941	0.010092
 306	1.5250e-01	12.2435	18.672685	0.000138	1.383715	0.468815	0.011375
 307	1.5300e-01	12.2980	18.729987	0.000139	1.394118	0.472340	0.011460
 308	1.5350e-01	12.3366	18.778736	0.000119	1.186041	0.401842	0.009750
 309	1.5400e-01	12.3638	18.837321	0.000143	1.425330	0.482915	0.011717
 310	1.5450e-01	12.4039	18.893340	0.000136	1.362907	0.461765	0.011204
 311	1.5500e-01	12.4537	18.945510	0.000127	1.269272	0.430041	0.010434
 312	1.5550e-01	12.4713	19.003240	0.000140	1.404522	0.475865	0.011546
 313	1.5600e-01	12.5066	19.060114	0.000138	1.383715	0.468815	0.011375
 314	1.5650e-01	12.5515	19.115705	0.000135	1.352503	0.458240	0.011118
 315	1.5700e-01	12.6077	19.170013	0.000132	1.321291	0.447666	0.010862
 316	1.5750e-01	12.6638	19.217907	0.000117	1.165233	0.394792	0.009579
 317	1.5800e-01	12.7055	19.274354	0.000137	1.373311	0.465290	0.011289
 318	1.5850e-01	12.7344	19.332083	0.000140	1.404522	0.475865	0.011546
 319	1.5900e-01	12.7922	19.382543	0.000123	1.227657	0.415941	0.010092
 320	1.5950e-01	12.8146	19.436852	0.000132	1.321291	0.447666	0.010862
 321	1.6000e-01	12.8274	19.490732	0.000131	1.310888	0.444141	0.010776
 322	1.6050e-01	12.8804	19.551883	0.000149	1.487753	0.504064	0.012230
 323	1.6100e-01	12.9317	19.599777	0.000117	1.165233	0.394792	0.009579
 324	1.6150e-01	12.9093	19.655796	-0.000136	-1.362907	-0.461765	0.011204
 325	1.6200e-01	13.0055	19.710532	0.000133	1.331695	0.451191	0.010947
 326	1.6250e-01	13.0440	19.760136	0.000121	1.206849	0.408891	0.009921
 327	1.6300e-01	13.1034	19.820004	0.000146	1.456542	0.493490	0.011974
 328	1.6350e-01	13.1082	19.868326	0.000118	1.175637	0.398317	0.009664
 329	1.6400e-01	13.1691	19.921779	0.000130	1.300484	0.440616	0.010691
 330	1.6450e-01	13.2060	19.976515	0.000133	1.331695	0.451191	0.010947
 331	1.6500e-01	13.2413	20.024409	0.000117	1.165233	0.394792	0.009579
 332	1.6550e-01	13.2814	20.082566	0.000141	1.414926	0.479390	0.011631
 333	1.6600e-01	13.3135	20.135591	0.000129	1.290080	0.437091	0.010605
 334	1.6650e-01	13.3584	20.184341	0.000119	1.186041	0.401842	0.009750
 335	1.6700e-01	13.4050	20.238649	0.000132	1.321291	0.447666	0.010862
 336	1.6750e-01	13.4403	20.298089	0.000145	1.446138	0.489965	0.011888
 337	1.6800e-01	13.4691	20.344272	0.000112	1.123618	0.380692	0.009237
 338	1.6850e-01	13.5189	20.402429	0.000141	1.414926	0.479390	0.011631
 339	1.6900e-01	13.5606	20.453317	0.000124	1.238060	0.419466	0.010177
 340	1.6950e-01	13.6039	20.507625	0.000132	1.321291	0.447666	0.010862
 341	1.7000e-01	13.6376	20.559368	0.000126	1.258868	0.426516	0.010349
 342	1.7050e-01	13.6809	20.614959	0.000135	1.352503	0.458240	0.011118
 343	1.7100e-01	13.7050	20.666274	0.000125	1.248464	0.422991	0.010263
 344	1.7150e-01	13.7515	20.719300	0.000129	1.290080	0.437091	0.010605
 345	1.7200e-01	13.8140	20.772325	0.000129	1.290080	0.437091	0.010605
 346	1.7250e-01	13.8381	20.823213	0.000124	1.238060	0.419466	0.010177
 347	1.7300e-01	13.8943	20.877094	0.000131	1.310888	0.444141	0.010776
 348	1.7350e-01	13.9520	20.925843	0.000119	1.186041	0.401842	0.009750
 349	1.7400e-01	13.9472	20.982717	-0.000138	-1.383715	-0.468815	0.011375
 350	1.7450e-01	13.9969	21.033177	0.000123	1.227657	0.415941	0.010092
 351	1.7500e-01	14.0418	21.082354	0.000120	1.196445	0.405367	0.009835
 352	1.7550e-01	14.0852	21.135379	0.000129	1.290080	0.437091	0.010605
 353	1.7600e-01	14.1092	21.187977	0.000128	1.279676	0.433566	0.010520
 354	1.7650e-01	14.1702	21.241003	0.000129	1.290080	0.437091	0.010605
 355	1.7700e-01	14.1991	21.287186	0.000112	1.123618	0.380692	0.009237
 356	1.7750e-01	14.2247	21.345343	0.000141	1.414926	0.479390	0.011631
 357	1.7800e-01	14.2584	21.393665	0.000118	1.175637	0.398317	0.009664
 358	1.7850e-01	14.3065	21.443697	0.000122	1.217253	0.412416	0.010006
 359	1.7900e-01	14.3515	21.496295	0.000128	1.279676	0.433566	0.010520
 360	1.7950e-01	14.3852	21.550603	0.000132	1.321291	0.447666	0.010862
 361	1.8000e-01	14.4397	21.594221	0.000106	1.061195	0.359542	0.008724
 362	1.8050e-01	14.4878	21.651523	0.000139	1.394118	0.472340	0.011460
 363	1.8100e-01	14.5151	21.706259	0.000133	1.331695	0.451191	0.010947
 364	1.8150e-01	14.5648	21.750304	0.000107	1.071599	0.363067	0.008809
 365	1.8200e-01	14.6017	21.805896	0.000135	1.352503	0.458240	0.011118
 366	1.8250e-01	14.6338	21.856355	0.000123	1.227657	0.415941	0.010092
 367	1.8300e-01	14.7108	21.907243	0.000124	1.238060	0.419466	0.010177
 368	1.8350e-01	14.7124	21.957703	0.000123	1.227657	0.415941	0.010092
 369	1.8400e-01	14.7429	22.006880	0.000120	1.196445	0.405367	0.009835
 370	1.8450e-01	14.7782	22.061616	0.000133	1.331695	0.451191	0.010947
 371	1.8500e-01	14.8568	22.109937	0.000118	1.175637	0.398317	0.009664
 372	1.8550e-01	14.8793	22.159542	0.000121	1.206849	0.408891	0.009921
 373	1.8600e-01	14.9274	22.215133	0.000135	1.352503	0.458240	0.011118
 374	1.8650e-01	14.9547	22.260889	0.000111	1.113214	0.377167	0.009151
 375	1.8700e-01	14.9819	22.312204	0.000125	1.248464	0.422991	0.010263
 376	1.8750e-01	15.0333	22.362664	0.000123	1.227657	0.415941	0.010092
 377	1.8800e-01	15.0846	22.418255	0.000135	1.352503	0.458240	0.011118
 378	1.8850e-01	15.1087	22.462300	0.000107	1.071599	0.363067	0.008809
 379	1.8900e-01	15.1776	22.517464	0.000134	1.342099	0.454715	0.011033
 380	1.8950e-01	15.1568	22.562365	-0.000109	-1.092406	-0.370117	0.008980
 381	1.9000e-01	15.2546	22.615390	0.000129	1.290080	0.437091	0.010605
 382	1.9050e-01	15.2739	22.666278	0.000124	1.238060	0.419466	0.010177
 383	1.9100e-01	15.3108	22.718448	0.000127	1.269272	0.430041	0.010434
 384	1.9150e-01	15.3349	22.761210	0.000104	1.040387	0.352493	0.008553
 385	1.9200e-01	15.4038	22.825782	0.000157	1.570984	0.532264	0.012914
 386	1.9250e-01	15.4343	22.874104	0.000118	1.175637	0.398317	0.009664
 387	1.9300e-01	15.4504	22.919859	0.000111	1.113214	0.377167	0.009151
 388	1.9350e-01	15.5129	22.966043	0.000112	1.123618	0.380692	0.009237
 389	1.9400e-01	15.5290	23.019496	0.000130	1.300484	0.440616	0.010691
 390	1.9450e-01	15.5819	23.066963	0.000115	1.154829	0.391267	0.009493
 391	1.9500e-01	15.6332	23.118705	0.000126	1.258868	0.426516	0.010349
 392	1.9550e-01	15.6782	23.165744	0.000114	1.144426	0.387742	0.009408
 393	1.9600e-01	15.7343	23.215349	0.000121	1.206849	0.408891	0.009921
 394	1.9650e-01	15.7536	23.267519	0.000127	1.269272	0.430041	0.010434
 395	1.9700e-01	15.8065	23.314985	0.000115	1.154829	0.391267	0.009493
 396	1.9750e-01	15.8434	23.364162	0.000120	1.196445	0.405367	0.009835
 397	1.9800e-01	15.8851	23.415050	0.000124	1.238060	0.419466	0.010177
 398	1.9850e-01	15.9060	23.461661	0.000113	1.134022	0.384217	0.009322
 399	1.9900e-01	15.9717	23.505278	0.000106	1.061195	0.359542	0.008724
 400	1.9950e-01	15.9878	23.559587	0.000132	1.321291	0.447666	0.010862
 401	2.0000e-01	16.0407	23.612612	0.000129	1.290080	0.437091	0.010605
 402	2.0050e-01	16.0792	23.656658	0.000107	1.071599	0.363067	0.008809
 403	2.0100e-01	16.1113	23.705407	0.000119	1.186041	0.401842	0.009750
 404	2.0150e-01	16.1482	23.755012	0.000121	1.206849	0.408891	0.009921
 405	2.0200e-01	16.1947	23.810603	0.000135	1.352503	0.458240	0.011118
 406	2.0250e-01	16.2348	23.853793	0.000105	1.050791	0.356018	0.008638
 407	2.0300e-01	16.2910	23.905536	0.000126	1.258868	0.426516	0.010349
 408	2.0350e-01	16.3279	23.952147	0.000113	1.134022	0.384217	0.009322
 409	2.0400e-01	16.3872	24.003462	0.000125	1.248464	0.422991	0.010263
 410	2.0450e-01	16.4017	24.051356	0.000117	1.165233	0.394792	0.009579
 411	2.0500e-01	16.4306	24.099250	0.000117	1.165233	0.394792	0.009579
 412	2.0550e-01	16.4514	24.144578	0.000110	1.102810	0.373642	0.009066
 413	2.0600e-01	16.5284	24.198887	0.000132	1.321291	0.447666	0.010862
 414	2.0650e-01	16.5637	24.242077	0.000105	1.050791	0.356018	0.008638
 415	2.0700e-01	16.5910	24.293819	0.000126	1.258868	0.426516	0.010349
 416	2.0750e-01	16.6407	24.338720	0.000109	1.092406	0.370117	0.008980
 417	2.0800e-01	16.6712	24.385759	0.000114	1.144426	0.387742	0.009408
 418	2.0850e-01	16.7097	24.436646	0.000124	1.238060	0.419466	0.010177
 419	2.0900e-01	16.7578	24.486251	0.000121	1.206849	0.408891	0.009921
 420	2.0950e-01	16.7867	24.534145	0.000117	1.165233	0.394792	0.009579
 421	2.1000e-01	16.8348	24.586743	0.000128	1.279676	0.433566	0.010520
 422	2.1050e-01	16.8717	24.629078	0.000103	1.029983	0.348968	0.008467
 423	2.1100e-01	16.9214	24.678682	0.000121	1.206849	0.408891	0.009921
 424	2.1150e-01	16.9648	24.727432	0.000119	1.186041	0.401842	0.009750
 425	2.1200e-01	16.9904	24.773187	0.000111	1.113214	0.377167	0.009151
 426	2.1250e-01	17.0787	24.822364	0.000120	1.196445	0.405367	0.009835
 427	2.1300e-01	17.0947	24.871969	0.000121	1.206849	0.408891	0.009921
 428	2.1350e-01	17.1011	24.921146	0.000120	1.196445	0.405367	0.009835
 429	2.1400e-01	17.1541	24.969467	0.000118	1.175637	0.398317	0.009664
 430	2.1450e-01	17.1910	25.012658	0.000105	1.050791	0.356018	0.008638
 431	2.1500e-01	17.2503	25.062262	0.000121	1.206849	0.408891	0.009921
 432	2.1550e-01	17.2744	25.114860	0.000128	1.279676	0.433566	0.010520
 433	2.1600e-01	17.3257	25.157195	0.000103	1.029983	0.348968	0.008467
 434	2.1650e-01	17.3546	25.204661	0.000115	1.154829	0.391267	0.009493
 435	2.1700e-01	17.4156	25.255549	0.000124	1.238060	0.419466	0.010177
 436	2.1750e-01	17.4444	25.297456	0.000102	1.019579	0.345443	0.008381
 437	2.1800e-01	17.4781	25.345350	0.000117	1.165233	0.394792	0.009579
 438	2.1850e-01	17.4942	25.393244	0.000117	1.165233	0.394792	0.009579
 439	2.1900e-01	17.5583	25.439855	0.000113	1.134022	0.384217	0.009322
 440	2.1950e-01	17.6016	25.483901	0.000107	1.071599	0.363067	0.008809
 441	2.2000e-01	17.6273	25.533505	0.000121	1.206849	0.408891	0.009921
 442	2.2050e-01	17.7059	25.583537	0.000122	1.217253	0.412416	0.010006
 443	2.2100e-01	17.7091	25.632287	0.000119	1.186041	0.401842	0.009750
 444	2.2150e-01	17.7508	25.676760	0.000108	1.082002	0.366592	0.008895
 445	2.2200e-01	17.7990	25.722088	0.000110	1.102810	0.373642	0.009066
 446	2.2250e-01	17.8310	25.767844	0.000111	1.113214	0.377167	0.009151
 447	2.2300e-01	17.8776	25.812744	0.000109	1.092406	0.370117	0.008980
 448	2.2350e-01	17.9145	25.863632	0.000124	1.238060	0.419466	0.010177
 449	2.2400e-01	17.9466	25.909388	0.000111	1.113214	0.377167	0.009151
 450	2.2450e-01	18.0107	25.954716	0.000110	1.102810	0.373642	0.009066
 451	2.2500e-01	18.0572	25.997051	0.000103	1.029983	0.348968	0.008467
 452	2.2550e-01	18.0556	26.048794	-0.000126	-1.258868	-0.426516	0.010349
 453	2.2600e-01	18.1086	26.093694	0.000109	1.092406	0.370117	0.008980
 454	2.2650e-01	18.1663	26.139023	0.000110	1.102810	0.373642	0.009066
 455	2.2700e-01	18.1920	26.190338	0.000125	1.248464	0.422991	0.010263
 456	2.2750e-01	18.2417	26.235666	0.000110	1.102810	0.373642	0.009066
 457	2.2800e-01	18.2562	26.278856	0.000105	1.050791	0.356018	0.008638
 458	2.2850e-01	18.3203	26.332309	0.000130	1.300484	0.440616	0.010691
 459	2.2900e-01	18.3797	26.373789	0.000101	1.009175	0.341918	0.008296
 460	2.2950e-01	18.3989	26.422538	0.000119	1.186041	0.401842	0.009750
 461	2.3000e-01	18.4535	26.463590	0.000100	0.998771	0.338393	0.008210
 462	2.3050e-01	18.4792	26.512767	0.000120	1.196445	0.405367	0.009835
 463	2.3100e-01	18.5321	26.554247	0.000101	1.009175	0.341918	0.008296
 464	2.3150e-01	18.5722	26.602996	0.000119	1.186041	0.401842	0.009750
 465	2.3200e-01	18.5995	26.658160	0.000134	1.342099	0.454715	0.011033
 466	2.3250e-01	18.6267	26.701777	0.000106	1.061195	0.359542	0.008724
 467	2.3300e-01	18.6765	26.744540	0.000104	1.040387	0.352493	0.008553
 468	2.3350e-01	18.7230	26.789013	0.000108	1.082002	0.366592	0.008895
 469	2.3400e-01	18.7374	26.835196	0.000112	1.123618	0.380692	0.009237
 470	2.3450e-01	18.8273	26.885229	0.000122	1.217253	0.412416	0.010006
 471	2.3500e-01	18.8497	26.929274	0.000107	1.071599	0.363067	0.008809
 472	2.3550e-01	18.9091	26.989569	0.000147	1.466946	0.497015	0.012059
 473	2.3600e-01	18.9412	27.026345	0.000089	0.894733	0.303144	0.007355
 474	2.3650e-01	18.9460	27.068252	0.000102	1.019579	0.345443	0.008381
 475	2.3700e-01	18.9973	27.114008	0.000111	1.113214	0.377167	0.009151
 476	2.3750e-01	19.0134	27.166178	0.000127	1.269272	0.430041	0.010434
 477	2.3800e-01	19.0904	27.205520	0.000096	0.957156	0.324293	0.007868
 478	2.3850e-01	19.1594	27.250421	0.000109	1.092406	0.370117	0.008980
 479	2.3900e-01	19.1369	27.295749	-0.000110	-1.102810	-0.373642	0.009066
 480	2.3950e-01	19.1818	27.340222	0.000108	1.082002	0.366592	0.008895
 481	2.4000e-01	19.2508	27.386833	0.000113	1.134022	0.384217	0.009322
 482	2.4050e-01	19.2797	27.427885	0.000100	0.998771	0.338393	0.008210
 483	2.4100e-01	19.3214	27.480483	0.000128	1.279676	0.433566	0.010520
 484	2.4150e-01	19.3406	27.527949	0.000115	1.154829	0.391267	0.009493
 485	2.4200e-01	19.4160	27.574133	0.000112	1.123618	0.380692	0.009237
 486	2.4250e-01	19.4048	27.616895	-0.000104	-1.040387	-0.352493	0.008553
 487	2.4300e-01	19.4818	27.663507	0.000113	1.134022	0.384217	0.009322
 488	2.4350e-01	19.5283	27.707552	0.000107	1.071599	0.363067	0.008809
 489	2.4400e-01	19.5652	27.750742	0.000105	1.050791	0.356018	0.008638
 490	2.4450e-01	19.6198	27.799491	0.000119	1.186041	0.401842	0.009750
 491	2.4500e-01	19.6519	27.833702	0.000083	0.832310	0.281994	0.006842
 492	2.4550e-01	19.6695	27.888865	0.000134	1.342099	0.454715	0.011033
 493	2.4600e-01	19.7208	27.926924	0.000093	0.925944	0.313718	0.007612
 494	2.4650e-01	19.7706	27.973963	0.000114	1.144426	0.387742	0.009408
 495	2.4700e-01	19.8091	28.016297	0.000103	1.029983	0.348968	0.008467
 496	2.4750e-01	19.8331	28.060343	0.000107	1.071599	0.363067	0.008809
 497	2.4800e-01	19.9037	28.109947	0.000121	1.206849	0.408891	0.009921
 498	2.4850e-01	19.9326	28.152710	0.000104	1.040387	0.352493	0.008553
 499	2.4900e-01	19.9679	28.198038	0.000110	1.102810	0.373642	0.009066
 500	2.4950e-01	20.0192	28.246788	0.000119	1.186041	0.401842	0.009750
 501	2.5000e-01	20.0625	28.289122	0.000103	1.029983	0.348968	0.008467
 502	2.5050e-01	19.9823	28.327181	-0.000093	-0.925944	-0.313718	0.007612
 503	2.5100e-01	19.9358	28.364384	-0.000091	-0.905137	-0.306669	0.007441
 504	2.5150e-01	19.9214	28.389614	-0.000061	-0.613828	-0.207971	0.005046
 505	2.5200e-01	19.8524	28.409713	-0.000049	-0.488982	-0.165672	0.004020
 506	2.5250e-01	19.8444	28.428528	-0.000046	-0.457770	-0.155097	0.003763
 507	2.5300e-01	19.7658	28.440929	-0.000030	-0.301712	-0.102223	0.002480
 508	2.5350e-01	19.7321	28.449482	-0.000021	-0.208077	-0.070499	0.001711
 509	2.5400e-01	19.7096	28.451192	-0.000004	-0.041615	-0.014100	0.000342
 510	2.5450e-01	19.6583	28.460173	-0.000022	-0.218481	-0.074023	0.001796
 511	2.5500e-01	19.6037	28.455469	0.000011	0.114443	0.038774	-0.000941
 512	2.5550e-01	19.5492	28.452475	0.000007	0.072827	0.024674	-0.000599
 513	2.5600e-01	19.5540	28.450765	-0.000004	-0.041615	-0.014100	-0.000342
 514	2.5650e-01	19.5139	28.437081	0.000033	0.332924	0.112798	-0.002737
 515	2.5700e-01	19.4690	28.428528	0.000021	0.208077	0.070499	-0.001711
 516	2.5750e-01	19.4144	28.418265	0.000025	0.249693	0.084598	-0.002053
 517	2.5800e-01	19.3952	28.403298	0.000036	0.364135	0.123372	-0.002993
 518	2.5850e-01	19.3118	28.387904	0.000037	0.374539	0.126897	-0.003079
 519	2.5900e-01	19.2845	28.370371	0.000043	0.426559	0.144522	-0.003507
 520	2.5950e-01	19.2652	28.353694	0.000041	0.405751	0.137472	-0.003335
 521	2.6000e-01	19.2155	28.328036	0.000062	0.624232	0.211496	-0.005132
 522	2.6050e-01	19.1930	28.310076	0.000044	0.436963	0.148047	-0.003592
 523	2.6100e-01	19.1080	28.288695	0.000052	0.520193	0.176246	-0.004276
 524	2.6150e-01	19.0952	28.260472	0.000069	0.686655	0.232645	-0.005645
 525	2.6200e-01	19.0727	28.238235	0.000054	0.541001	0.183296	-0.004447
 526	2.6250e-01	19.0134	28.207874	0.000074	0.738675	0.250270	-0.006072
 527	2.6300e-01	18.9845	28.185637	0.000054	0.541001	0.183296	-0.004447
 528	2.6350e-01	18.9235	28.157841	0.000068	0.676252	0.229120	-0.005559
 529	2.6400e-01	18.9043	28.125342	0.000079	0.790694	0.267894	-0.006500
 530	2.6450e-01	18.8497	28.097546	0.000068	0.676252	0.229120	-0.005559
 531	2.6500e-01	18.7984	28.066757	0.000075	0.749079	0.253795	-0.006158
 532	2.6550e-01	18.7663	28.032547	0.000083	0.832310	0.281994	-0.006842
 533	2.6600e-01	18.7374	27.994916	0.000092	0.915540	0.310194	-0.007526
 534	2.6650e-01	18.6845	27.964127	0.000075	0.749079	0.253795	-0.006158
 535	2.6700e-01	18.6909	27.932055	-0.000078	-0.780290	-0.264369	-0.006414
 536	2.6750e-01	18.6027	27.895280	0.000089	0.894733	0.303144	-0.007355
 537	2.6800e-01	18.5818	27.862780	0.000079	0.790694	0.267894	-0.006500
 538	2.6850e-01	18.5417	27.825577	0.000091	0.905137	0.306669	-0.007441
 539	2.6900e-01	18.5145	27.780248	0.000110	1.102810	0.373642	-0.009066
 540	2.6950e-01	18.4567	27.749459	0.000075	0.749079	0.253795	-0.006158
 541	2.7000e-01	18.4214	27.716960	0.000079	0.790694	0.267894	-0.006500
 542	2.7050e-01	18.3604	27.678474	0.000094	0.936348	0.317243	-0.007697
 543	2.7100e-01	18.3268	27.637849	0.000099	0.988368	0.334868	-0.008125
 544	2.7150e-01	18.2866	27.600218	0.000092	0.915540	0.310194	-0.007526
 545	2.7200e-01	18.2578	27.561732	0.000094	0.936348	0.317243	-0.007697
 546	2.7250e-01	18.2193	27.523246	0.000094	0.936348	0.317243	-0.007697
 547	2.7300e-01	18.1599	27.483476	0.000097	0.967560	0.327818	-0.007954
 548	2.7350e-01	18.1423	27.442424	0.000100	0.998771	0.338393	-0.008210
 549	2.7400e-01	18.0733	27.405649	0.000089	0.894733	0.303144	-0.007355
 550	2.7450e-01	18.0540	27.369728	0.000087	0.873925	0.296094	-0.007184
 551	2.7500e-01	18.0187	27.330814	0.000095	0.946752	0.320768	-0.007783
 552	2.7550e-01	17.9786	27.291045	0.000097	0.967560	0.327818	-0.007954
 553	2.7600e-01	17.9482	27.250848	0.000098	0.977964	0.331343	-0.008039
 554	2.7650e-01	17.8968	27.208086	0.000104	1.040387	0.352493	-0.008553
 555	2.7700e-01	17.8343	27.170455	0.000092	0.915540	0.310194	-0.007526
 556	2.7750e-01	17.7781	27.131968	0.000094	0.936348	0.317243	-0.007697
 557	2.7800e-01	17.7781	27.090916	0.000100	0.998771	0.338393	-0.008210
 558	2.7850e-01	17.7155	27.051575	0.000096	0.957156	0.324293	-0.007868
 559	2.7900e-01	17.7171	27.010523	-0.000100	-0.998771	-0.338393	-0.008210
 560	2.7950e-01	17.6225	26.972037	0.000094	0.936348	0.317243	-0.007697
 561	2.8000e-01	17.5888	26.929274	0.000104	1.040387	0.352493	-0.008553
 562	2.8050e-01	17.5840	26.885656	0.000106	1.061195	0.359542	-0.008724
 563	2.8100e-01	17.5311	26.846742	0.000095	0.946752	0.320768	-0.007783
 564	2.8150e-01	17.5038	26.804407	0.000103	1.029983	0.348968	-0.008467
 565	2.8200e-01	17.4653	26.762500	0.000102	1.019579	0.345443	-0.008381
 566	2.8250e-01	17.4059	26.718882	0.000106	1.061195	0.359542	-0.008724
 567	2.8300e-01	17.3642	26.679969	0.000095	0.946752	0.320768	-0.007783
 568	2.8350e-01	17.3369	26.642337	0.000092	0.915540	0.310194	-0.007526
 569	2.8400e-01	17.2968	26.591450	0.000124	1.238060	0.419466	-0.010177
 570	2.8450e-01	17.2824	26.552536	0.000095	0.946752	0.320768	-0.007783
 571	2.8500e-01	17.2118	26.515760	0.000089	0.894733	0.303144	-0.007355
 572	2.8550e-01	17.1605	26.466583	0.000120	1.196445	0.405367	-0.009835
 573	2.8600e-01	17.1364	26.427242	0.000096	0.957156	0.324293	-0.007868
 574	2.8650e-01	17.0915	26.386618	0.000099	0.988368	0.334868	-0.008125
 575	2.8700e-01	17.0562	26.344283	0.000103	1.029983	0.348968	-0.008467
 576	2.8750e-01	17.0081	26.303658	0.000099	0.988368	0.334868	-0.008125
 577	2.8800e-01	16.9664	26.260040	0.000106	1.061195	0.359542	-0.008724
 578	2.8850e-01	16.9311	26.218988	0.000100	0.998771	0.338393	-0.008210
 579	2.8900e-01	16.8829	26.174943	0.000107	1.071599	0.363067	-0.008809
 580	2.8950e-01	16.8685	26.133891	0.000100	0.998771	0.338393	-0.008210
 581	2.9000e-01	16.8124	26.091556	0.000103	1.029983	0.348968	-0.008467
 582	2.9050e-01	16.7755	26.046655	0.000109	1.092406	0.370117	-0.008980
 583	2.9100e-01	16.7209	26.005176	0.000101	1.009175	0.341918	-0.008296
 584	2.9150e-01	16.7001	25.961130	0.000107	1.071599	0.363067	-0.008809
 585	2.9200e-01	16.6888	25.914947	0.000112	1.123618	0.380692	-0.009237
 586	2.9250e-01	16.6102	25.875178	0.000097	0.967560	0.327818	-0.007954
 587	2.9300e-01	16.5749	25.830705	0.000108	1.082002	0.366592	-0.008895
 588	2.9350e-01	16.5380	25.787087	0.000106	1.061195	0.359542	-0.008724
 589	2.9400e-01	16.4835	25.749456	0.000092	0.915540	0.310194	-0.007526
 590	2.9450e-01	16.4514	25.708832	0.000099	0.988368	0.334868	-0.008125
 591	2.9500e-01	16.4161	25.662220	0.000113	1.134022	0.384217	-0.009322
 592	2.9550e-01	16.3904	25.616464	0.000111	1.113214	0.377167	-0.009151
 593	2.9600e-01	16.3295	25.574557	0.000102	1.019579	0.345443	-0.008381
 594	2.9650e-01	16.2765	25.532650	0.000102	1.019579	0.345443	-0.008381
 595	2.9700e-01	16.2653	25.489887	0.000104	1.040387	0.352493	-0.008553
 596	2.9750e-01	16.2477	25.445414	0.000108	1.082002	0.366592	-0.008895
 597	2.9800e-01	16.1899	25.398803	0.000113	1.134022	0.384217	-0.009322
 598	2.9850e-01	16.1225	25.356041	0.000104	1.040387	0.352493	-0.008553
 599	2.9900e-01	16.0792	25.312851	0.000105	1.050791	0.356018	-0.008638
 600	2.9950e-01	16.0600	25.270516	0.000103	1.029983	0.348968	-0.008467
 601	3.0000e-01	16.0070	25.232457	0.000093	0.925944	0.313718	-0.007612
 602	3.0050e-01	15.9605	25.186273	0.000112	1.123618	0.380692	-0.009237
 603	3.0100e-01	15.9413	25.143511	0.000104	1.040387	0.352493	-0.008553
 604	3.0150e-01	15.8931	25.101176	0.000103	1.029983	0.348968	-0.008467
 605	3.0200e-01	15.8418	25.060124	0.000100	0.998771	0.338393	-0.008210
 606	3.0250e-01	15.8225	25.012658	0.000115	1.154829	0.391267	-0.009493
 607	3.0300e-01	15.7840	24.972033	0.000099	0.988368	0.334868	-0.008125
 608	3.0350e-01	15.7455	24.925850	0.000112	1.123618	0.380692	-0.009237
 609	3.0400e-01	15.6734	24.888219	0.000092	0.915540	0.310194	-0.007526
 610	3.0450e-01	15.6557	24.836048	0.000127	1.269272	0.430041	-0.010434
 611	3.0500e-01	15.6012	24.796707	0.000096	0.957156	0.324293	-0.007868
 612	3.0550e-01	15.5996	24.747958	0.000119	1.186041	0.401842	-0.009750
 613	3.0600e-01	15.5258	24.706050	0.000102	1.019579	0.345443	-0.008381
 614	3.0650e-01	15.4905	24.663288	0.000104	1.040387	0.352493	-0.008553
 615	3.0700e-01	15.4552	24.618815	0.000108	1.082002	0.366592	-0.008895
 616	3.0750e-01	15.4263	24.580328	0.000094	0.936348	0.317243	-0.007697
 617	3.0800e-01	15.3653	24.530724	0.000121	1.206849	0.408891	-0.009921
 618	3.0850e-01	15.3333	24.485823	0.000109	1.092406	0.370117	-0.008980
 619	3.0900e-01	15.2771	24.437502	0.000118	1.175637	0.398317	-0.009664
 620	3.0950e-01	15.2450	24.396450	0.000100	0.998771	0.338393	-0.008210
 621	3.1000e-01	15.2210	24.348556	0.000117	1.165233	0.394792	-0.009579
 622	3.1050e-01	15.1889	24.302372	0.000112	1.123618	0.380692	-0.009237
 623	3.1100e-01	15.1327	24.261748	0.000099	0.988368	0.334868	-0.008125
 624	3.1150e-01	15.1103	24.217275	0.000108	1.082002	0.366592	-0.008895
 625	3.1200e-01	15.0718	24.169381	0.000117	1.165233	0.394792	-0.009579
 626	3.1250e-01	14.9916	24.122769	0.000113	1.134022	0.384217	-0.009322
 627	3.1300e-01	14.9691	24.079579	0.000105	1.050791	0.356018	-0.008638
 628	3.1350e-01	14.9547	24.038100	0.000101	1.009175	0.341918	-0.008296
 629	3.1400e-01	14.8841	23.986357	0.000126	1.258868	0.426516	-0.010349
 630	3.1450e-01	14.8728	23.947443	0.000095	0.946752	0.320768	-0.007783
 631	3.1500e-01	14.8087	23.898694	0.000119	1.186041	0.401842	-0.009750
 632	3.1550e-01	14.7734	23.857642	0.000100	0.998771	0.338393	-0.008210
 633	3.1600e-01	14.7702	23.809320	0.000118	1.175637	0.398317	-0.009664
 634	3.1650e-01	14.6819	23.766985	0.000103	1.029983	0.348968	-0.008467
 635	3.1700e-01	14.6531	23.725505	0.000101	1.009175	0.341918	-0.008296
 636	3.1750e-01	14.6418	23.676756	0.000119	1.186041	0.401842	-0.009750
 637	3.1800e-01	14.6033	23.625441	0.000125	1.248464	0.422991	-0.010263
 638	3.1850e-01	14.5456	23.583534	0.000102	1.019579	0.345443	-0.008381
 639	3.1900e-01	14.4798	23.534357	0.000120	1.196445	0.405367	-0.009835
 640	3.1950e-01	14.4541	23.494588	0.000097	0.967560	0.327818	-0.007954
 641	3.2000e-01	14.4269	23.447549	0.000114	1.144426	0.387742	-0.009408
 642	3.2050e-01	14.4012	23.404359	0.000105	1.050791	0.356018	-0.008638
 643	3.2100e-01	14.3450	23.355610	0.000119	1.186041	0.401842	-0.009750
 644	3.2150e-01	14.2921	23.307288	0.000118	1.175637	0.398317	-0.009664
 645	3.2200e-01	14.2777	23.261960	0.000110	1.102810	0.373642	-0.009066
 646	3.2250e-01	14.2279	23.219625	0.000103	1.029983	0.348968	-0.008467
 647	3.2300e-01	14.1461	23.180283	0.000096	0.957156	0.324293	-0.007868
 648	3.2350e-01	14.1189	23.124692	0.000135	1.352503	0.458240	-0.011118
 649	3.2400e-01	14.0868	23.076370	0.000118	1.175637	0.398317	-0.009664
 650	3.2450e-01	14.0370	23.032753	0.000106	1.061195	0.359542	-0.008724
 651	3.2500e-01	13.9905	22.992983	0.000097	0.967560	0.327818	-0.007954
 652	3.2550e-01	13.9761	22.939103	0.000131	1.310888	0.444141	-0.010776
 653	3.2600e-01	13.9344	22.888643	0.000123	1.227657	0.415941	-0.010092
 654	3.2650e-01	13.8911	22.846736	0.000102	1.019579	0.345443	-0.008381
 655	3.2700e-01	13.8429	22.798842	0.000117	1.165233	0.394792	-0.009579
 656	3.2750e-01	13.8012	22.748809	0.000122	1.217253	0.412416	-0.010006
 657	3.2800e-01	13.7659	22.704336	0.000108	1.082002	0.366592	-0.008895
 658	3.2850e-01	13.7675	22.656870	-0.000115	-1.154829	-0.391267	-0.009493
 659	3.2900e-01	13.6777	22.611114	0.000111	1.113214	0.377167	-0.009151
 660	3.2950e-01	13.6857	22.564075	-0.000114	-1.144426	-0.387742	-0.009408
 661	3.3000e-01	13.6103	22.519602	0.000108	1.082002	0.366592	-0.008895
 662	3.3050e-01	13.5670	22.469570	0.000122	1.217253	0.412416	-0.010006
 663	3.3100e-01	13.5397	22.424242	0.000110	1.102810	0.373642	-0.009066
 664	3.3150e-01	13.4964	22.375492	0.000119	1.186041	0.401842	-0.009750
 665	3.3200e-01	13.4659	22.331875	0.000106	1.061195	0.359542	-0.008724
 666	3.3250e-01	13.3969	22.285264	0.000113	1.134022	0.384217	-0.009322
 667	3.3300e-01	13.3857	22.238225	0.000114	1.144426	0.387742	-0.009408
 668	3.3350e-01	13.3440	22.190331	0.000117	1.165233	0.394792	-0.009579
 669	3.3400e-01	13.2814	22.149706	0.000099	0.988368	0.334868	-0.008125
 670	3.3450e-01	13.2526	22.096681	0.000129	1.290080	0.437091	-0.010605
 671	3.3500e-01	13.2093	22.053918	0.000104	1.040387	0.352493	-0.008553
 672	3.3550e-01	13.1322	22.006880	0.000114	1.144426	0.387742	-0.009408
 673	3.3600e-01	13.1226	21.958558	0.000118	1.175637	0.398317	-0.009664
 674	3.3650e-01	13.0986	21.907670	0.000124	1.238060	0.419466	-0.010177
 675	3.3700e-01	13.0569	21.861059	0.000113	1.134022	0.384217	-0.009322
 676	3.3750e-01	12.9782	21.811027	0.000122	1.217253	0.412416	-0.010006
 677	3.3800e-01	12.9782	21.768692	0.000103	1.029983	0.348968	-0.008467
 678	3.3850e-01	12.9253	21.719515	0.000120	1.196445	0.405367	-0.009835
 679	3.3900e-01	12.9221	21.669911	0.000121	1.206849	0.408891	-0.009921
 680	3.3950e-01	12.8531	21.623300	0.000113	1.134022	0.384217	-0.009322
 681	3.4000e-01	12.8034	21.574978	0.000118	1.175637	0.398317	-0.009664
 682	3.4050e-01	12.7761	21.530077	0.000109	1.092406	0.370117	-0.008980
 683	3.4100e-01	12.7184	21.481328	0.000119	1.186041	0.401842	-0.009750
 684	3.4150e-01	12.6815	21.432579	0.000119	1.186041	0.401842	-0.009750
 685	3.4200e-01	12.6381	21.385540	0.000114	1.144426	0.387742	-0.009408
 686	3.4250e-01	12.6141	21.341495	0.000107	1.071599	0.363067	-0.008809
 687	3.4300e-01	12.6141	21.294028	0.000115	1.154829	0.391267	-0.009493
 688	3.4350e-01	12.5387	21.245279	0.000119	1.186041	0.401842	-0.009750
 689	3.4400e-01	12.5050	21.194819	0.000123	1.227657	0.415941	-0.010092
 690	3.4450e-01	12.4344	21.143504	0.000125	1.248464	0.422991	-0.010263
 691	3.4500e-01	12.4280	21.096038	0.000115	1.154829	0.391267	-0.009493
 692	3.4550e-01	12.3895	21.045150	0.000124	1.238060	0.419466	-0.010177
 693	3.4600e-01	12.3478	21.001960	0.000105	1.050791	0.356018	-0.008638
 694	3.4650e-01	12.3077	20.952356	0.000121	1.206849	0.408891	-0.009921
 695	3.4700e-01	12.2547	20.899758	0.000128	1.279676	0.433566	-0.010520
 696	3.4750e-01	12.2018	20.854429	0.000110	1.102810	0.373642	-0.009066
 697	3.4800e-01	12.1633	20.803970	0.000123	1.227657	0.415941	-0.010092
 698	3.4850e-01	12.1328	20.753510	0.000123	1.227657	0.415941	-0.010092
 699	3.4900e-01	12.0831	20.709037	0.000108	1.082002	0.366592	-0.008895
 700	3.4950e-01	12.0414	20.653018	0.000136	1.362907	0.461765	-0.011204
 701	3.5000e-01	12.0029	20.611966	0.000100	0.998771	0.338393	-0.008210
 702	3.5050e-01	11.9804	20.557230	0.000133	1.331695	0.451191	-0.010947
 703	3.5100e-01	11.9483	20.504204	0.000129	1.290080	0.437091	-0.010605
 704	3.5150e-01	11.8906	20.458448	0.000111	1.113214	0.377167	-0.009151
 705	3.5200e-01	11.8906	20.411410	0.000114	1.144426	0.387742	-0.009408
 706	3.5250e-01	11.7959	20.360950	0.000123	1.227657	0.415941	-0.010092
 707	3.5300e-01	11.7606	20.309207	0.000126	1.258868	0.426516	-0.010349
 708	3.5350e-01	11.7285	20.256609	0.000128	1.279676	0.433566	-0.010520
 709	3.5400e-01	11.6868	20.208288	0.000118	1.175637	0.398317	-0.009664
 710	3.5450e-01	11.6660	20.157828	0.000123	1.227657	0.415941	-0.010092
 711	3.5500e-01	11.6098	20.106940	0.000124	1.238060	0.419466	-0.010177
 712	3.5550e-01	11.5906	20.059902	0.000114	1.144426	0.387742	-0.009408
 713	3.5600e-01	11.5360	20.006448	0.000130	1.300484	0.440616	-0.010691
 714	3.5650e-01	11.4847	19.957699	0.000119	1.186041	0.401842	-0.009750
 715	3.5700e-01	11.4414	19.902536	0.000134	1.342099	0.454715	-0.011033
 716	3.5750e-01	11.4013	19.866187	0.000088	0.884329	0.299619	-0.007270
 717	3.5800e-01	11.3852	19.807603	0.000143	1.425330	0.482915	-0.011717
 718	3.5850e-01	11.3580	19.759709	0.000117	1.165233	0.394792	-0.009579
 719	3.5900e-01	11.2970	19.707538	0.000127	1.269272	0.430041	-0.010434
 720	3.5950e-01	11.2681	19.652375	0.000134	1.342099	0.454715	-0.011033
 721	3.6000e-01	11.1991	19.608329	0.000107	1.071599	0.363067	-0.008809
 722	3.6050e-01	11.1767	19.557442	0.000124	1.238060	0.419466	-0.010177
 723	3.6100e-01	11.1173	19.501851	0.000135	1.352503	0.458240	-0.011118
 724	3.6150e-01	11.0997	19.456095	0.000111	1.113214	0.377167	-0.009151
 725	3.6200e-01	11.0484	19.404352	0.000126	1.258868	0.426516	-0.010349
 726	3.6250e-01	11.0018	19.351327	0.000129	1.290080	0.437091	-0.010605
 727	3.6300e-01	10.9746	19.303860	0.000115	1.154829	0.391267	-0.009493
 728	3.6350e-01	10.9216	19.246558	0.000139	1.394118	0.472340	-0.011460
 729	3.6400e-01	10.8895	19.199947	0.000113	1.134022	0.384217	-0.009322
 730	3.6450e-01	10.8671	19.149487	0.000123	1.227657	0.415941	-0.010092
 731	3.6500e-01	10.8334	19.099028	0.000123	1.227657	0.415941	-0.010092
 732	3.6550e-01	10.7756	19.043864	0.000134	1.342099	0.454715	-0.011033
 733	3.6600e-01	10.7532	18.994259	0.000121	1.206849	0.408891	-0.009921
 734	3.6650e-01	10.6970	18.940806	0.000130	1.300484	0.440616	-0.010691
 735	3.6700e-01	10.6505	18.886926	0.000131	1.310888	0.444141	-0.010776
 736	3.6750e-01	10.6136	18.846301	0.000099	0.988368	0.334868	-0.008125
 737	3.6800e-01	10.5623	18.786434	0.000146	1.456542	0.493490	-0.011974
 738	3.6850e-01	10.5222	18.735119	0.000125	1.248464	0.422991	-0.010263
 739	3.6900e-01	10.4901	18.679527	0.000135	1.352503	0.458240	-0.011118
 740	3.6950e-01	10.4756	18.629923	0.000121	1.206849	0.408891	-0.009921
 741	3.7000e-01	10.4403	18.577752	0.000127	1.269272	0.430041	-0.010434
 742	3.7050e-01	10.3890	18.523872	0.000131	1.310888	0.444141	-0.010776
 743	3.7100e-01	10.3553	18.466570	0.000139	1.394118	0.472340	-0.011460
 744	3.7150e-01	10.3088	18.422097	0.000108	1.082002	0.366592	-0.008895
 745	3.7200e-01	10.2912	18.366506	0.000135	1.352503	0.458240	-0.011118
 746	3.7250e-01	10.2254	18.319039	0.000115	1.154829	0.391267	-0.009493
 747	3.7300e-01	10.1628	18.267724	0.000125	1.248464	0.422991	-0.010263
 748	3.7350e-01	10.1163	18.216837	0.000124	1.238060	0.419466	-0.010177
 749	3.7400e-01	10.1083	18.166377	0.000123	1.227657	0.415941	-0.010092
 750	3.7450e-01	10.0505	18.099240	0.000163	1.633407	0.553413	-0.013427
 751	3.7500e-01	10.0329	18.053911	0.000110	1.102810	0.373642	-0.009066
 752	3.7550e-01	9.9880	18.005590	0.000118	1.175637	0.398317	-0.009664
 753	3.7600e-01	9.9286	17.950854	0.000133	1.331695	0.451191	-0.010947
 754	3.7650e-01	9.9190	17.896973	0.000131	1.310888	0.444141	-0.010776
 755	3.7700e-01	9.8484	17.844375	0.000128	1.279676	0.433566	-0.010520
 756	3.7750e-01	9.8019	17.799047	0.000110	1.102810	0.373642	-0.009066
 757	3.7800e-01	9.7618	17.741745	0.000139	1.394118	0.472340	-0.011460
 758	3.7850e-01	9.7393	17.690858	0.000124	1.238060	0.419466	-0.010177
 759	3.7900e-01	9.7088	17.641681	0.000120	1.196445	0.405367	-0.009835
 760	3.7950e-01	9.6302	17.586089	0.000135	1.352503	0.458240	-0.011118
 761	3.8000e-01	9.6174	17.530926	0.000134	1.342099	0.454715	-0.011033
 762	3.8050e-01	9.5757	17.482176	0.000119	1.186041	0.401842	-0.009750
 763	3.8100e-01	9.5131	17.418033	0.000156	1.560580	0.528739	-0.012829
 764	3.8150e-01	9.4874	17.372704	0.000110	1.102810	0.373642	-0.009066
 765	3.8200e-01	9.4666	17.321389	0.000125	1.248464	0.422991	-0.010263
 766	3.8250e-01	9.3880	17.270074	0.000125	1.248464	0.422991	-0.010263
 767	3.8300e-01	9.3559	17.214483	0.000135	1.352503	0.458240	-0.011118
 768	3.8350e-01	9.3286	17.161885	0.000128	1.279676	0.433566	-0.010520
 769	3.8400e-01	9.2837	17.110142	0.000126	1.258868	0.426516	-0.010349
 770	3.8450e-01	9.2612	17.057117	0.000129	1.290080	0.437091	-0.010605
 771	3.8500e-01	9.2163	17.003236	0.000131	1.310888	0.444141	-0.010776
 772	3.8550e-01	9.1842	16.951921	0.000125	1.248464	0.422991	-0.010263
 773	3.8600e-01	9.1233	16.895902	0.000136	1.362907	0.461765	-0.011204
 774	3.8650e-01	9.1104	16.843732	0.000127	1.269272	0.430041	-0.010434
 775	3.8700e-01	9.0800	16.791989	0.000126	1.258868	0.426516	-0.010349
 776	3.8750e-01	8.9981	16.735543	0.000137	1.373311	0.465290	-0.011289
 777	3.8800e-01	8.9853	16.681234	0.000132	1.321291	0.447666	-0.010862
 778	3.8850e-01	8.9243	16.627781	0.000130	1.300484	0.440616	-0.010691
 779	3.8900e-01	8.8971	16.573900	0.000131	1.310888	0.444141	-0.010776
 780	3.8950e-01	8.8489	16.520447	0.000130	1.300484	0.440616	-0.010691
 781	3.9000e-01	8.8104	16.460152	0.000147	1.466946	0.497015	-0.012059
 782	3.9050e-01	8.7992	16.414396	0.000111	1.113214	0.377167	-0.009151
 783	3.9100e-01	8.7302	16.354101	0.000147	1.466946	0.497015	-0.012059
 784	3.9150e-01	8.6773	16.302786	0.000125	1.248464	0.422991	-0.010263
 785	3.9200e-01	8.6452	16.244201	0.000143	1.425330	0.482915	-0.011717
 786	3.9250e-01	8.6260	16.193742	0.000123	1.227657	0.415941	-0.010092
 787	3.9300e-01	8.5554	16.138578	0.000134	1.342099	0.454715	-0.011033
 788	3.9350e-01	8.5441	16.078710	0.000146	1.456542	0.493490	-0.011974
 789	3.9400e-01	8.4832	16.026540	0.000127	1.269272	0.430041	-0.010434
 790	3.9450e-01	8.4479	15.972659	0.000131	1.310888	0.444141	-0.010776
 791	3.9500e-01	8.4014	15.918778	0.000131	1.310888	0.444141	-0.010776
 792	3.9550e-01	8.3773	15.866181	0.000128	1.279676	0.433566	-0.010520
 793	3.9600e-01	8.3324	15.804175	0.000151	1.508561	0.511114	-0.012401
 794	3.9650e-01	8.2923	15.750722	0.000130	1.300484	0.440616	-0.010691
 795	3.9700e-01	8.2570	15.696413	0.000132	1.321291	0.447666	-0.010862
 796	3.9750e-01	8.2073	15.640394	0.000136	1.362907	0.461765	-0.011204
 797	3.9800e-01	8.1671	15.583520	0.000138	1.383715	0.468815	-0.011375
 798	3.9850e-01	8.1399	15.528357	0.000134	1.342099	0.454715	-0.011033
 799	3.9900e-01	8.0773	15.477042	0.000125	1.248464	0.422991	-0.010263
 800	3.9950e-01	8.0308	15.420167	0.000138	1.383715	0.468815	-0.011375
 801	4.0000e-01	8.0115	15.365859	0.000132	1.321291	0.447666	-0.010862
 802	4.0050e-01	7.9426	15.306419	0.000145	1.446138	0.489965	-0.011888
 803	4.0100e-01	7.9811	15.248690	-0.000140	-1.404522	-0.475865	-0.011546
 804	4.0150e-01	7.9137	15.193954	0.000133	1.331695	0.451191	-0.010947
 805	4.0200e-01	7.8190	15.140500	0.000130	1.300484	0.440616	-0.010691
 806	4.0250e-01	7.8319	15.087475	-0.000129	-1.290080	-0.437091	-0.010605
 807	4.0300e-01	7.7629	15.029318	0.000141	1.414926	0.479390	-0.011631
 808	4.0350e-01	7.7260	14.975009	0.000132	1.321291	0.447666	-0.010862
 809	4.0400e-01	7.7180	14.917280	0.000140	1.404522	0.475865	-0.011546
 810	4.0450e-01	7.6730	14.859123	0.000141	1.414926	0.479390	-0.011631
 811	4.0500e-01	7.6073	14.802249	0.000138	1.383715	0.468815	-0.011375
 812	4.0550e-01	7.5848	14.749651	0.000128	1.279676	0.433566	-0.010520
 813	4.0600e-01	7.5351	14.689783	0.000146	1.456542	0.493490	-0.011974
 814	4.0650e-01	7.4966	14.635047	0.000133	1.331695	0.451191	-0.010947
 815	4.0700e-01	7.4340	14.576463	0.000143	1.425330	0.482915	-0.011717
 816	4.0750e-01	7.4180	14.519589	0.000138	1.383715	0.468815	-0.011375
 817	4.0800e-01	7.3426	14.464853	0.000133	1.331695	0.451191	-0.010947
 818	4.0850e-01	7.3346	14.404130	0.000148	1.477349	0.500540	-0.012145
 819	4.0900e-01	7.2736	14.353670	0.000123	1.227657	0.415941	-0.010092
 820	4.0950e-01	7.2351	14.295513	0.000141	1.414926	0.479390	-0.011631
 821	4.1000e-01	7.2110	14.234790	0.000148	1.477349	0.500540	-0.012145
 822	4.1050e-01	7.1677	14.180482	0.000132	1.321291	0.447666	-0.010862
 823	4.1100e-01	7.1469	14.110351	0.000171	1.706235	0.578088	-0.014026
 824	4.1150e-01	7.0875	14.062457	0.000117	1.165233	0.394792	-0.009579
 825	4.1200e-01	7.0201	14.005155	0.000139	1.394118	0.472340	-0.011460
 826	4.1250e-01	7.0169	13.947426	0.000140	1.404522	0.475865	-0.011546
 827	4.1300e-01	6.9945	13.887986	0.000145	1.446138	0.489965	-0.011888
 828	4.1350e-01	6.9479	13.828119	0.000146	1.456542	0.493490	-0.011974
 829	4.1400e-01	6.8725	13.772955	0.000134	1.342099	0.454715	-0.011033
 830	4.1450e-01	6.8372	13.715225	0.000140	1.404522	0.475865	-0.011546
 831	4.1500e-01	6.8613	13.656641	-0.000143	-1.425330	-0.482915	-0.011717
 832	4.1550e-01	6.7650	13.601477	0.000134	1.342099	0.454715	-0.011033
 833	4.1600e-01	6.7506	13.539471	0.000151	1.508561	0.511114	-0.012401
 834	4.1650e-01	6.6832	13.480032	0.000145	1.446138	0.489965	-0.011888
 835	4.1700e-01	6.6271	13.426151	0.000131	1.310888	0.444141	-0.010776
 836	4.1750e-01	6.6511	13.365000	-0.000149	-1.487753	-0.504064	-0.012230
 837	4.1800e-01	6.5485	13.306416	0.000143	1.425330	0.482915	-0.011717
 838	4.1850e-01	6.5308	13.249114	0.000139	1.394118	0.472340	-0.011460
 839	4.1900e-01	6.4747	13.187108	0.000151	1.508561	0.511114	-0.012401
 840	4.1950e-01	6.4843	13.126385	-0.000148	-1.477349	-0.500540	-0.012145
 841	4.2000e-01	6.4137	13.061814	0.000157	1.570984	0.532264	-0.012914
 842	4.2050e-01	6.3479	13.003229	0.000143	1.425330	0.482915	-0.011717
 843	4.2100e-01	6.3399	12.945072	0.000141	1.414926	0.479390	-0.011631
 844	4.2150e-01	6.3078	12.889053	0.000136	1.362907	0.461765	-0.011204
 845	4.2200e-01	6.2453	12.828758	0.000147	1.466946	0.497015	-0.012059
 846	4.2250e-01	6.2308	12.770174	0.000143	1.425330	0.482915	-0.011717
 847	4.2300e-01	6.1426	12.711589	0.000143	1.425330	0.482915	-0.011717
 848	4.2350e-01	6.1378	12.649583	0.000151	1.508561	0.511114	-0.012401
 849	4.2400e-01	6.1057	12.591426	0.000141	1.414926	0.479390	-0.011631
 850	4.2450e-01	6.0480	12.534552	0.000138	1.383715	0.468815	-0.011375
 851	4.2500e-01	6.0175	12.470408	0.000156	1.560580	0.528739	-0.012829
 852	4.2550e-01	5.9629	12.414389	0.000136	1.362907	0.461765	-0.011204
 853	4.2600e-01	5.9244	12.353239	0.000149	1.487753	0.504064	-0.012230
 854	4.2650e-01	5.8538	12.294654	0.000143	1.425330	0.482915	-0.011717
 855	4.2700e-01	5.8603	12.235642	-0.000144	-1.435734	-0.486440	-0.011802
 856	4.2750e-01	5.8025	12.173209	0.000152	1.518965	0.514639	-0.012487
 857	4.2800e-01	5.7736	12.114196	0.000144	1.435734	0.486440	-0.011802
 858	4.2850e-01	5.7335	12.054756	0.000145	1.446138	0.489965	-0.011888
 859	4.2900e-01	5.6854	11.994889	0.000146	1.456542	0.493490	-0.011974
 860	4.2950e-01	5.6613	11.930318	0.000157	1.570984	0.532264	-0.012914
 861	4.3000e-01	5.6020	11.867457	0.000153	1.529369	0.518164	-0.012572
 862	4.3050e-01	5.5763	11.808872	0.000143	1.425330	0.482915	-0.011717
 863	4.3100e-01	5.5202	11.748577	0.000147	1.466946	0.497015	-0.012059
 864	4.3150e-01	5.4961	11.689565	0.000144	1.435734	0.486440	-0.011802
 865	4.3200e-01	5.4335	11.627131	0.000152	1.518965	0.514639	-0.012487
 866	4.3250e-01	5.3886	11.565981	0.000149	1.487753	0.504064	-0.012230
 867	4.3300e-01	5.3710	11.504403	0.000150	1.498157	0.507589	-0.012316
 868	4.3350e-01	5.3581	11.441969	0.000152	1.518965	0.514639	-0.012487
 869	4.3400e-01	5.2635	11.382957	0.000144	1.435734	0.486440	-0.011802
 870	4.3450e-01	5.2474	11.321379	0.000150	1.498157	0.507589	-0.012316
 871	4.3500e-01	5.1977	11.262367	0.000144	1.435734	0.486440	-0.011802
 872	4.3550e-01	5.1817	11.199934	0.000152	1.518965	0.514639	-0.012487
 873	4.3600e-01	5.1255	11.138783	0.000149	1.487753	0.504064	-0.012230
 874	4.3650e-01	5.1047	11.075922	0.000153	1.529369	0.518164	-0.012572
 875	4.3700e-01	5.0517	11.015199	0.000148	1.477349	0.500540	-0.012145
 876	4.3750e-01	5.0068	10.950628	0.000157	1.570984	0.532264	-0.012914
 877	4.3800e-01	4.9795	10.893754	0.000138	1.383715	0.468815	-0.011375
 878	4.3850e-01	4.9346	10.827044	0.000162	1.623004	0.549889	-0.013342
 879	4.3900e-01	4.8977	10.766749	0.000147	1.466946	0.497015	-0.012059
 880	4.3950e-01	4.8913	10.704316	0.000152	1.518965	0.514639	-0.012487
 881	4.4000e-01	4.8031	10.640172	0.000156	1.560580	0.528739	-0.012829
 882	4.4050e-01	4.7598	10.576884	0.000154	1.539773	0.521689	-0.012658
 883	4.4100e-01	4.7180	10.520437	0.000137	1.373311	0.465290	-0.011289
 884	4.4150e-01	4.7100	10.452017	0.000166	1.664619	0.563988	-0.013684
 885	4.4200e-01	4.6218	10.385307	0.000162	1.623004	0.549889	-0.013342
 886	4.4250e-01	4.6025	10.327578	0.000140	1.404522	0.475865	-0.011546
 887	4.4300e-01	4.5753	10.262151	0.000159	1.591792	0.539314	-0.013085
 888	4.4350e-01	4.5079	10.198863	0.000154	1.539773	0.521689	-0.012658
 889	4.4400e-01	4.4790	10.138568	0.000147	1.466946	0.497015	-0.012059
 890	4.4450e-01	4.4485	10.069292	0.000169	1.685427	0.571038	-0.013855
 891	4.4500e-01	4.4100	10.007714	0.000150	1.498157	0.507589	-0.012316
 892	4.4550e-01	4.3715	9.942288	0.000159	1.591792	0.539314	-0.013085
 893	4.4600e-01	4.3202	9.876433	0.000160	1.602196	0.542839	-0.013171
 894	4.4650e-01	4.2849	9.812717	0.000155	1.550177	0.525214	-0.012743
 895	4.4700e-01	4.2400	9.749856	0.000153	1.529369	0.518164	-0.012572
 896	4.4750e-01	4.2304	9.681009	0.000168	1.675023	0.567513	-0.013770
 897	4.4800e-01	4.1630	9.621141	0.000146	1.456542	0.493490	-0.011974
 898	4.4850e-01	4.1437	9.552293	0.000168	1.675023	0.567513	-0.013770
 899	4.4900e-01	4.1020	9.491143	0.000149	1.487753	0.504064	-0.012230
 900	4.4950e-01	4.0491	9.423151	0.000165	1.654215	0.560463	-0.013598
 901	4.5000e-01	4.0330	9.356441	0.000162	1.623004	0.549889	-0.013342
 902	4.5050e-01	3.9929	9.294863	0.000150	1.498157	0.507589	-0.012316
 903	4.5100e-01	3.9336	9.225160	0.000170	1.695831	0.574563	-0.013941
 904	4.5150e-01	3.9159	9.161872	0.000154	1.539773	0.521689	-0.012658
 905	4.5200e-01	3.8598	9.094307	0.000164	1.643811	0.556938	-0.013513
 906	4.5250e-01	3.8117	9.031446	0.000153	1.529369	0.518164	-0.012572
 907	4.5300e-01	3.7555	8.966447	0.000158	1.581388	0.535789	-0.013000
 908	4.5350e-01	3.7651	8.898882	-0.000164	-1.643811	-0.556938	-0.013513
 909	4.5400e-01	3.7106	8.836449	0.000152	1.518965	0.514639	-0.012487
 910	4.5450e-01	3.6400	8.768029	0.000166	1.664619	0.563988	-0.013684
 911	4.5500e-01	3.6336	8.685925	0.000200	1.997543	0.676786	-0.016421
 912	4.5550e-01	3.5518	8.632899	0.000129	1.290080	0.437091	-0.010605
 913	4.5600e-01	3.5117	8.564907	0.000165	1.654215	0.560463	-0.013598
 914	4.5650e-01	3.5181	8.500763	-0.000156	-1.560580	-0.528739	-0.012829
 915	4.5700e-01	3.4122	8.433626	0.000163	1.633407	0.553413	-0.013427
 916	4.5750e-01	3.4250	8.356653	-0.000187	-1.872696	-0.634487	-0.015395
 917	4.5800e-01	3.3705	8.294220	0.000152	1.518965	0.514639	-0.012487
 918	4.5850e-01	3.3272	8.228793	0.000159	1.591792	0.539314	-0.013085
 919	4.5900e-01	3.2839	8.159518	0.000169	1.685427	0.571038	-0.013855
 920	4.5950e-01	3.2678	8.093236	0.000161	1.612600	0.546364	-0.013256
 921	4.6000e-01	3.2117	8.018829	0.000181	1.810273	0.613337	-0.014881
 922	4.6050e-01	3.1443	7.957679	0.000149	1.487753	0.504064	-0.012230
 923	4.6100e-01	3.1507	7.891397	-0.000161	-1.612600	-0.546364	-0.013256
 924	4.6150e-01	3.0865	7.824260	0.000163	1.633407	0.553413	-0.013427
 925	4.6200e-01	3.0657	7.755412	0.000168	1.675023	0.567513	-0.013770
 926	4.6250e-01	2.9951	7.684854	0.000172	1.716638	0.581613	-0.014112
 927	4.6300e-01	2.9678	7.614296	0.000172	1.716638	0.581613	-0.014112
 928	4.6350e-01	2.9357	7.551007	0.000154	1.539773	0.521689	-0.012658
 929	4.6400e-01	2.8748	7.482159	0.000168	1.675023	0.567513	-0.013770
 930	4.6450e-01	2.8459	7.410318	0.000175	1.747850	0.592188	-0.014368
 931	4.6500e-01	2.8026	7.342326	0.000165	1.654215	0.560463	-0.013598
 932	4.6550e-01	2.7721	7.273051	0.000169	1.685427	0.571038	-0.013855
 933	4.6600e-01	2.7176	7.205486	0.000164	1.643811	0.556938	-0.013513
 934	4.6650e-01	2.7031	7.133645	0.000175	1.747850	0.592188	-0.014368
 935	4.6700e-01	2.6903	7.061376	0.000176	1.758254	0.595713	-0.014454
 936	4.6750e-01	2.6005	7.000653	0.000148	1.477349	0.500540	-0.012145
 937	4.6800e-01	2.5780	6.930523	0.000171	1.706235	0.578088	-0.014026
 938	4.6850e-01	2.5523	6.858254	0.000176	1.758254	0.595713	-0.014454
 939	4.6900e-01	2.4769	6.782137	0.000185	1.851889	0.627437	-0.015223
 940	4.6950e-01	2.4336	6.713289	0.000168	1.675023	0.567513	-0.013770
 941	4.7000e-01	2.4481	6.646580	-0.000162	-1.623004	-0.549889	-0.013342
 942	4.7050e-01	2.3695	6.576021	0.000172	1.716638	0.581613	-0.014112
 943	4.7100e-01	2.3422	6.505036	0.000173	1.727042	0.585138	-0.014197
 944	4.7150e-01	2.3005	6.434905	0.000171	1.706235	0.578088	-0.014026
 945	4.7200e-01	2.2652	6.364775	0.000171	1.706235	0.578088	-0.014026
 946	4.7250e-01	2.2267	6.289940	0.000182	1.820677	0.616862	-0.014967
 947	4.7300e-01	2.1545	6.220237	0.000170	1.695831	0.574563	-0.013941
 948	4.7350e-01	2.1529	6.142409	0.000189	1.893504	0.641537	-0.015566
 949	4.7400e-01	2.0711	6.072279	0.000171	1.706235	0.578088	-0.014026
 950	4.7450e-01	2.0614	5.995734	0.000186	1.862293	0.630962	-0.015309
 951	4.7500e-01	2.0229	5.922610	0.000178	1.779062	0.602762	-0.014625
 952	4.7550e-01	1.9507	5.848203	0.000181	1.810273	0.613337	-0.014881
 953	4.7600e-01	1.9171	5.775079	0.000178	1.779062	0.602762	-0.014625
 954	4.7650e-01	1.8850	5.703238	0.000175	1.747850	0.592188	-0.014368
 955	4.7700e-01	1.8529	5.633108	0.000171	1.706235	0.578088	-0.014026
 956	4.7750e-01	1.8144	5.553142	0.000195	1.945524	0.659161	-0.015993
 957	4.7800e-01	1.7342	5.480446	0.000177	1.768658	0.599237	-0.014539
 958	4.7850e-01	1.7470	5.405183	-0.000183	-1.831081	-0.620387	-0.015052
 959	4.7900e-01	1.6540	5.329921	0.000183	1.831081	0.620387	-0.015052
 960	4.7950e-01	1.6203	5.260219	0.000170	1.695831	0.574563	-0.013941
 961	4.8000e-01	1.6058	5.178970	0.000198	1.976735	0.669736	-0.016250
 962	4.8050e-01	1.5513	5.104135	0.000182	1.820677	0.616862	-0.014967
 963	4.8100e-01	1.5288	5.026735	0.000188	1.883100	0.638012	-0.015480
 964	4.8150e-01	1.5144	4.951901	0.000182	1.820677	0.616862	-0.014967
 965	4.8200e-01	1.4743	4.873645	0.000190	1.903908	0.645062	-0.015651
 966	4.8250e-01	1.4117	4.798811	0.000182	1.820677	0.616862	-0.014967
 967	4.8300e-01	1.3588	4.720555	0.000190	1.903908	0.645062	-0.015651
 968	4.8350e-01	1.3363	4.646576	0.000180	1.799869	0.609812	-0.014796
 969	4.8400e-01	1.3219	4.567466	0.000192	1.924716	0.652111	-0.015822
 970	4.8450e-01	1.2353	4.494342	0.000178	1.779062	0.602762	-0.014625
 971	4.8500e-01	1.2064	4.418224	0.000185	1.851889	0.627437	-0.015223
 972	4.8550e-01	1.1968	4.338686	0.000194	1.935120	0.655636	-0.015908
 973	4.8600e-01	1.1262	4.259575	0.000192	1.924716	0.652111	-0.015822
 974	4.8650e-01	1.0845	4.182603	0.000187	1.872696	0.634487	-0.015395
 975	4.8700e-01	1.0379	4.107768	0.000182	1.820677	0.616862	-0.014967
 976	4.8750e-01	1.0123	4.024809	0.000202	2.018351	0.683836	-0.016592
 977	4.8800e-01	1.0091	3.951685	0.000178	1.779062	0.602762	-0.014625
 978	4.8850e-01	0.9385	3.864877	0.000211	2.111985	0.715560	-0.017362
 979	4.8900e-01	0.8871	3.793036	0.000175	1.747850	0.592188	-0.014368
 980	4.8950e-01	0.8631	3.711360	0.000199	1.987139	0.673261	-0.016335
 981	4.9000e-01	0.8085	3.633532	0.000189	1.893504	0.641537	-0.015566
 982	4.9050e-01	0.7764	3.551856	0.000199	1.987139	0.673261	-0.016335
 983	4.9100e-01	0.7315	3.473600	0.000190	1.903908	0.645062	-0.015651
 984	4.9150e-01	0.7139	3.394489	0.000192	1.924716	0.652111	-0.015822
 985	4.9200e-01	0.6353	3.313668	0.000197	1.966331	0.666211	-0.016164
 986	4.9250e-01	0.6144	3.226433	0.000212	2.122389	0.719085	-0.017447
 987	4.9300e-01	0.5278	3.152881	0.000179	1.789466	0.606287	-0.014710
 988	4.9350e-01	0.5101	3.068211	0.000206	2.059966	0.697935	-0.016934
 989	4.9400e-01	0.4861	2.987390	0.000197	1.966331	0.666211	-0.016164
 990	4.9450e-01	0.4428	2.905714	0.000199	1.987139	0.673261	-0.016335
 991	4.9500e-01	0.4075	2.824037	0.000199	1.987139	0.673261	-0.016335
 992	4.9550e-01	0.3674	2.739795	0.000205	2.049562	0.694410	-0.016848
 993	4.9600e-01	0.3369	2.654270	0.000208	2.080774	0.704985	-0.017105
 994	4.9650e-01	0.3080	2.576870	0.000188	1.883100	0.638012	-0.015480
 995	4.9700e-01	0.2487	2.484930	0.000224	2.236832	0.757859	-0.018388
 996	4.9750e-01	0.2021	2.405392	0.000194	1.935120	0.655636	-0.015908
 997	4.9800e-01	0.1700	2.321578	0.000204	2.039158	0.690886	-0.016763
 998	4.9850e-01	0.1364	2.238618	0.000202	2.018351	0.683836	-0.016592
 999	4.9900e-01	0.1123	2.148817	0.000218	2.184813	0.740235	-0.017960
1000	4.9950e-01	0.0626	2.068423	0.000196	1.955927	0.662686	-0.016079
1001	5.0000e-01	0.0642	1.983326	-0.000207	-2.070370	-0.701460	-0.017019
1002	5.0050e-01	-0.0529	1.895235	0.000214	2.143197	0.726135	-0.017618
1003	5.0100e-01	-0.0497	1.813131	-0.000200	-1.997543	-0.676786	-0.016421
1004	5.0150e-01	-0.1155	1.727606	0.000208	2.080774	0.704985	-0.017105
1005	5.0200e-01	-0.1219	1.641653	0.000209	2.091178	0.708510	-0.017191
1006	5.0250e-01	-0.1925	1.557411	0.000205	2.049562	0.694410	-0.016848
1007	5.0300e-01	-0.2086	1.471031	0.000210	2.101582	0.712035	-0.017276
1008	5.0350e-01	-0.2823	1.389355	0.000199	1.987139	0.673261	-0.016335
1009	5.0400e-01	-0.3000	1.297843	0.000223	2.226428	0.754334	-0.018302
1010	5.0450e-01	-0.3497	1.213601	0.000205	2.049562	0.694410	-0.016848
1011	5.0500e-01	-0.3850	1.130214	0.000203	2.028755	0.687361	-0.016677
1012	5.0550e-01	-0.4139	1.038274	0.000224	2.236832	0.757859	-0.018388
1013	5.0600e-01	-0.4508	0.949328	0.000216	2.164005	0.733185	-0.017789
1014	5.0650e-01	-0.4813	0.857816	0.000223	2.226428	0.754334	-0.018302
1015	5.0700e-01	-0.5759	0.778706	0.000192	1.924716	0.652111	-0.015822
1016	5.0750e-01	-0.5631	0.686339	-0.000225	-2.247236	-0.761384	-0.018473
1017	5.0800e-01	-0.6160	0.596965	0.000217	2.174409	0.736710	-0.017875
1018	5.0850e-01	-0.6882	0.508446	0.000215	2.153601	0.729660	-0.017704
1019	5.0900e-01	-0.6898	0.421639	0.000211	2.111985	0.715560	-0.017362
1020	5.0950e-01	-0.7572	0.336969	0.000206	2.059966	0.697935	-0.016934
1021	5.1000e-01	-0.7941	0.241181	0.000233	2.330467	0.789583	-0.019158
1022	5.1050e-01	-0.8117	0.148386	0.000226	2.257640	0.764909	-0.018559
1023	5.1100e-01	-0.8871	0.061578	0.000211	2.111985	0.715560	-0.017362
1024	5.1150e-01	-0.9160	-0.027796	0.000217	2.174409	0.736710	-0.017875
1025	5.1200e-01	-0.9449	-0.121446	0.000228	2.278447	0.771959	-0.018730
1026	5.1250e-01	-0.9593	-0.215096	0.000228	2.278447	0.771959	-0.018730
1027	5.1300e-01	-1.0363	-0.300621	0.000208	2.080774	0.704985	-0.017105
1028	5.1350e-01	-1.0604	-0.388284	0.000213	2.132793	0.722610	-0.017533
1029	5.1400e-01	-1.1182	-0.481934	0.000228	2.278447	0.771959	-0.018730
1030	5.1450e-01	-1.1518	-0.576866	0.000231	2.309659	0.782534	-0.018987
1031	5.1500e-01	-1.1791	-0.667951	0.000222	2.216024	0.750809	-0.018217
1032	5.1550e-01	-1.2240	-0.752193	0.000205	2.049562	0.694410	-0.016848
1033	5.1600e-01	-1.2978	-0.849264	0.000236	2.361678	0.800158	-0.019414
1034	5.1650e-01	-1.2946	-0.940348	-0.000222	-2.216024	-0.750809	-0.018217
1035	5.1700e-01	-1.3556	-1.028011	0.000213	2.132793	0.722610	-0.017533
1036	5.1750e-01	-1.3780	-1.122516	0.000230	2.299255	0.779009	-0.018901
1037	5.1800e-01	-1.4262	-1.209324	0.000211	2.111985	0.715560	-0.017362
1038	5.1850e-01	-1.4631	-1.303829	0.000230	2.299255	0.779009	-0.018901
1039	5.1900e-01	-1.5096	-1.386789	0.000202	2.018351	0.683836	-0.016592
1040	5.1950e-01	-1.5738	-1.490274	0.000252	2.517736	0.853032	-0.020697
1041	5.2000e-01	-1.5593	-1.576654	-0.000210	-2.101582	-0.712035	-0.017276
1042	5.2050e-01	-1.5978	-1.673725	0.000236	2.361678	0.800158	-0.019414
1043	5.2100e-01	-1.6700	-1.763099	0.000217	2.174409	0.736710	-0.017875
1044	5.2150e-01	-1.7149	-1.859315	0.000234	2.340871	0.793108	-0.019243
1045	5.2200e-01	-1.7566	-1.946123	0.000211	2.111985	0.715560	-0.017362
1046	5.2250e-01	-1.7711	-2.040200	0.000229	2.288851	0.775484	-0.018816
1047	5.2300e-01	-1.8224	-2.133422	0.000227	2.268044	0.768434	-0.018644
1048	5.2350e-01	-1.8385	-2.222796	0.000217	2.174409	0.736710	-0.017875
1049	5.2400e-01	-1.9026	-2.315163	0.000225	2.247236	0.761384	-0.018473
1050	5.2450e-01	-1.9267	-2.411807	0.000235	2.351274	0.796633	-0.019329
1051	5.2500e-01	-1.9941	-2.505456	0.000228	2.278447	0.771959	-0.018730
1052	5.2550e-01	-1.9909	-2.594830	-0.000217	-2.174409	-0.736710	-0.017875
1053	5.2600e-01	-2.0823	-2.688480	0.000228	2.278447	0.771959	-0.018730
1054	5.2650e-01	-2.0919	-2.783841	0.000232	2.320063	0.786059	-0.019072
1055	5.2700e-01	-2.1497	-2.873214	0.000217	2.174409	0.736710	-0.017875
1056	5.2750e-01	-2.2010	-2.962160	0.000216	2.164005	0.733185	-0.017789
1057	5.2800e-01	-2.1978	-3.059231	-0.000236	-2.361678	-0.800158	-0.019414
1058	5.2850e-01	-2.2539	-3.149033	0.000218	2.184813	0.740235	-0.017960
1059	5.2900e-01	-2.2973	-3.243965	0.000231	2.309659	0.782534	-0.018987
1060	5.2950e-01	-2.3245	-3.333767	0.000218	2.184813	0.740235	-0.017960
1061	5.3000e-01	-2.3999	-3.428699	0.000231	2.309659	0.782534	-0.018987
1062	5.3050e-01	-2.4031	-3.518073	0.000217	2.174409	0.736710	-0.017875
1063	5.3100e-01	-2.4721	-3.611295	0.000227	2.268044	0.768434	-0.018644
1064	5.3150e-01	-2.5459	-3.701097	0.000218	2.184813	0.740235	-0.017960
1065	5.3200e-01	-2.5539	-3.790043	0.000216	2.164005	0.733185	-0.017789
1066	5.3250e-01	-2.5588	-3.884120	0.000229	2.288851	0.775484	-0.018816
1067	5.3300e-01	-2.6149	-3.971784	0.000213	2.132793	0.722610	-0.017533
1068	5.3350e-01	-2.6791	-4.063295	0.000223	2.226428	0.754334	-0.018302
1069	5.3400e-01	-2.7047	-4.147965	0.000206	2.059966	0.697935	-0.016934
1070	5.3450e-01	-2.7192	-4.238194	0.000220	2.195216	0.743759	-0.018046
1071	5.3500e-01	-2.7898	-4.331416	0.000227	2.268044	0.768434	-0.018644
1072	5.3550e-01	-2.8283	-4.417369	0.000209	2.091178	0.708510	-0.017191
1073	5.3600e-01	-2.8283	-4.506743	0.000217	2.174409	0.736710	-0.017875
1074	5.3650e-01	-2.8844	-4.591840	0.000207	2.070370	0.701460	-0.017019
1075	5.3700e-01	-2.9470	-4.679076	0.000212	2.122389	0.719085	-0.017447
1076	5.3750e-01	-2.9662	-4.767594	0.000215	2.153601	0.729660	-0.017704
1077	5.3800e-01	-3.0240	-4.855257	0.000213	2.132793	0.722610	-0.017533
1078	5.3850e-01	-3.0785	-4.941638	0.000210	2.101582	0.712035	-0.017276
1079	5.3900e-01	-3.0737	-5.028018	-0.000210	-2.101582	-0.712035	-0.017276
1080	5.3950e-01	-3.1668	-5.113971	0.000209	2.091178	0.708510	-0.017191
1081	5.4000e-01	-3.1860	-5.197785	0.000204	2.039158	0.690886	-0.016763
1082	5.4050e-01	-3.2133	-5.289725	0.000224	2.236832	0.757859	-0.018388
1083	5.4100e-01	-3.2935	-5.372256	0.000201	2.007947	0.680311	-0.016506
1084	5.4150e-01	-3.3031	-5.453505	0.000198	1.976735	0.669736	-0.016250
1085	5.4200e-01	-3.3512	-5.539030	0.000208	2.080774	0.704985	-0.017105
1086	5.4250e-01	-3.3913	-5.608305	0.000169	1.685427	0.571038	-0.013855
1087	5.4300e-01	-3.4138	-5.703666	0.000232	2.320063	0.786059	-0.019072
1088	5.4350e-01	-3.4651	-5.785342	0.000199	1.987139	0.673261	-0.016335
1089	5.4400e-01	-3.4876	-5.872578	0.000212	2.122389	0.719085	-0.017447
1090	5.4450e-01	-3.5373	-5.947840	0.000183	1.831081	0.620387	-0.015052
1091	5.4500e-01	-3.5855	-6.034220	0.000210	2.101582	0.712035	-0.017276
1092	5.4550e-01	-3.6256	-6.118890	0.000206	2.059966	0.697935	-0.016934
1093	5.4600e-01	-3.6625	-6.198001	0.000192	1.924716	0.652111	-0.015822
1094	5.4650e-01	-3.7122	-6.274973	0.000187	1.872696	0.634487	-0.015395
1095	5.4700e-01	-3.7202	-6.359215	0.000205	2.049562	0.694410	-0.016848
1096	5.4750e-01	-3.7908	-6.434478	0.000183	1.831081	0.620387	-0.015052
1097	5.4800e-01	-3.8309	-6.513588	0.000192	1.924716	0.652111	-0.015822
1098	5.4850e-01	-3.8117	-6.596120	-0.000201	-2.007947	-0.680311	-0.016506
1099	5.4900e-01	-3.9063	-6.673520	0.000188	1.883100	0.638012	-0.015480
1100	5.4950e-01	-3.9288	-6.747927	0.000181	1.810273	0.613337	-0.014881
1101	5.5000e-01	-3.9737	-6.827465	0.000194	1.935120	0.655636	-0.015908
1102	5.5050e-01	-4.0154	-6.905293	0.000189	1.893504	0.641537	-0.015566
1103	5.5100e-01	-4.0491	-6.979700	0.000181	1.810273	0.613337	-0.014881
1104	5.5150e-01	-4.1405	-7.056672	0.000187	1.872696	0.634487	-0.015395
1105	5.5200e-01	-4.1469	-7.133645	0.000187	1.872696	0.634487	-0.015395
1106	5.5250e-01	-4.1678	-7.214894	0.000198	1.976735	0.669736	-0.016250
1107	5.5300e-01	-4.2207	-7.285024	0.000171	1.706235	0.578088	-0.014026
1108	5.5350e-01	-4.2496	-7.359859	0.000182	1.820677	0.616862	-0.014967
1109	5.5400e-01	-4.3009	-7.436404	0.000186	1.862293	0.630962	-0.015309
1110	5.5450e-01	-4.3218	-7.511666	0.000183	1.831081	0.620387	-0.015052
1111	5.5500e-01	-4.3988	-7.583507	0.000175	1.747850	0.592188	-0.014368
1112	5.5550e-01	-4.4453	-7.657486	0.000180	1.799869	0.609812	-0.014796
1113	5.5600e-01	-4.4614	-7.732320	0.000182	1.820677	0.616862	-0.014967
1114	5.5650e-01	-4.4967	-7.807155	0.000182	1.820677	0.616862	-0.014967
1115	5.5700e-01	-4.5528	-7.878996	0.000175	1.747850	0.592188	-0.014368
1116	5.5750e-01	-4.5993	-7.955541	0.000186	1.862293	0.630962	-0.015309
1117	5.5800e-01	-4.6074	-8.023533	0.000165	1.654215	0.560463	-0.013598
1118	5.5850e-01	-4.6443	-8.095374	0.000175	1.747850	0.592188	-0.014368
1119	5.5900e-01	-4.6795	-8.173629	0.000190	1.903908	0.645062	-0.015651
1120	5.5950e-01	-4.7437	-8.242050	0.000166	1.664619	0.563988	-0.013684
1121	5.6000e-01	-4.7710	-8.316456	0.000181	1.810273	0.613337	-0.014881
1122	5.6050e-01	-4.7967	-8.388297	0.000175	1.747850	0.592188	-0.014368
1123	5.6100e-01	-4.8785	-8.454152	0.000160	1.602196	0.542839	-0.013171
1124	5.6150e-01	-4.8945	-8.532407	0.000190	1.903908	0.645062	-0.015651
1125	5.6200e-01	-4.9394	-8.602110	0.000170	1.695831	0.574563	-0.013941
1126	5.6250e-01	-4.9587	-8.670530	0.000166	1.664619	0.563988	-0.013684
1127	5.6300e-01	-5.0293	-8.740661	0.000171	1.706235	0.578088	-0.014026
1128	5.6350e-01	-5.0630	-8.807798	0.000163	1.633407	0.553413	-0.013427
1129	5.6400e-01	-5.1335	-8.883487	0.000184	1.841485	0.623912	-0.015138
1130	5.6450e-01	-5.1239	-8.949342	-0.000160	-1.602196	-0.542839	-0.013171
1131	5.6500e-01	-5.2025	-9.020328	0.000173	1.727042	0.585138	-0.014197
1132	5.6550e-01	-5.2057	-9.090458	0.000171	1.706235	0.578088	-0.014026
1133	5.6600e-01	-5.2940	-9.162299	0.000175	1.747850	0.592188	-0.014368
1134	5.6650e-01	-5.2972	-9.232002	0.000170	1.695831	0.574563	-0.013941
1135	5.6700e-01	-5.3293	-9.302133	0.000171	1.706235	0.578088	-0.014026
1136	5.6750e-01	-5.3758	-9.365849	0.000155	1.550177	0.525214	-0.012743
1137	5.6800e-01	-5.4159	-9.435979	0.000171	1.706235	0.578088	-0.014026
1138	5.6850e-01	-5.4720	-9.501406	0.000159	1.591792	0.539314	-0.013085
1139	5.6900e-01	-5.5426	-9.571109	0.000170	1.695831	0.574563	-0.013941
1140	5.6950e-01	-5.5667	-9.637818	0.000162	1.623004	0.549889	-0.013342
1141	5.7000e-01	-5.5619	-9.705811	-0.000165	-1.654215	-0.560463	-0.013598
1142	5.7050e-01	-5.5827	-9.770382	0.000157	1.570984	0.532264	-0.012914
1143	5.7100e-01	-5.6678	-9.841796	0.000174	1.737446	0.588663	-0.014283
1144	5.7150e-01	-5.6934	-9.908505	0.000162	1.623004	0.549889	-0.013342
1145	5.7200e-01	-5.7592	-9.975215	0.000162	1.623004	0.549889	-0.013342
1146	5.7250e-01	-5.7849	-10.042352	0.000163	1.633407	0.553413	-0.013427
1147	5.7300e-01	-5.8330	-10.107779	0.000159	1.591792	0.539314	-0.013085
1148	5.7350e-01	-5.8458	-10.173205	0.000159	1.591792	0.539314	-0.013085
1149	5.7400e-01	-5.8972	-10.239487	0.000161	1.612600	0.546364	-0.013256
1150	5.7450e-01	-5.9276	-10.309190	0.000170	1.695831	0.574563	-0.013941
1151	5.7500e-01	-6.0062	-10.371196	0.000151	1.508561	0.511114	-0.012401
1152	5.7550e-01	-6.0239	-10.439616	0.000166	1.664619	0.563988	-0.013684
1153	5.7600e-01	-6.0800	-10.503332	0.000155	1.550177	0.525214	-0.012743
1154	5.7650e-01	-6.0816	-10.576028	0.000177	1.768658	0.599237	-0.014539
1155	5.7700e-01	-6.1603	-10.636751	0.000148	1.477349	0.500540	-0.012145
1156	5.7750e-01	-6.1988	-10.703888	0.000163	1.633407	0.553413	-0.013427
1157	5.7800e-01	-6.2164	-10.770170	0.000161	1.612600	0.546364	-0.013256
1158	5.7850e-01	-6.2212	-10.837735	0.000164	1.643811	0.556938	-0.013513
1159	5.7900e-01	-6.3078	-10.899741	0.000151	1.508561	0.511114	-0.012401
1160	5.7950e-01	-6.3528	-10.964312	0.000157	1.570984	0.532264	-0.012914
1161	5.8000e-01	-6.3848	-11.030166	0.000160	1.602196	0.542839	-0.013171
1162	5.8050e-01	-6.4506	-11.092172	0.000151	1.508561	0.511114	-0.012401
1163	5.8100e-01	-6.4025	-11.157599	-0.000159	-1.591792	-0.539314	-0.013085
1164	5.8150e-01	-6.5453	-11.218321	0.000148	1.477349	0.500540	-0.012145
1165	5.8200e-01	-6.5405	-11.284603	-0.000161	-1.612600	-0.546364	-0.013256
1166	5.8250e-01	-6.5870	-11.344471	0.000146	1.456542	0.493490	-0.011974
1167	5.8300e-01	-6.6431	-11.406049	0.000150	1.498157	0.507589	-0.012316
1168	5.8350e-01	-6.6848	-11.467627	0.000150	1.498157	0.507589	-0.012316
1169	5.8400e-01	-6.7265	-11.531771	0.000156	1.560580	0.528739	-0.012829
1170	5.8450e-01	-6.7265	-11.593349	0.000150	1.498157	0.507589	-0.012316
1171	5.8500e-01	-6.7795	-11.657065	0.000155	1.550177	0.525214	-0.012743
1172	5.8550e-01	-6.8164	-11.719071	0.000151	1.508561	0.511114	-0.012401
1173	5.8600e-01	-6.8854	-11.776800	0.000140	1.404522	0.475865	-0.011546
1174	5.8650e-01	-6.9271	-11.855911	0.000192	1.924716	0.652111	-0.015822
1175	5.8700e-01	-6.9399	-11.907653	0.000126	1.258868	0.426516	-0.010349
1176	5.8750e-01	-6.9816	-11.963672	0.000136	1.362907	0.461765	-0.011204
1177	5.8800e-01	-7.0249	-12.025678	0.000151	1.508561	0.511114	-0.012401
1178	5.8850e-01	-7.0410	-12.085973	0.000147	1.466946	0.497015	-0.012059
1179	5.8900e-01	-7.1132	-12.154393	0.000166	1.664619	0.563988	-0.013684
1180	5.8950e-01	-7.1485	-12.209129	0.000133	1.331695	0.451191	-0.010947
1181	5.9000e-01	-7.1998	-12.273273	0.000156	1.560580	0.528739	-0.012829
1182	5.9050e-01	-7.2126	-12.332713	0.000145	1.446138	0.489965	-0.011888
1183	5.9100e-01	-7.2880	-12.391725	0.000144	1.435734	0.486440	-0.011802
1184	5.9150e-01	-7.3185	-12.456297	0.000157	1.570984	0.532264	-0.012914
1185	5.9200e-01	-7.3426	-12.514454	0.000141	1.414926	0.479390	-0.011631
1186	5.9250e-01	-7.3939	-12.573038	0.000143	1.425330	0.482915	-0.011717
1187	5.9300e-01	-7.4180	-12.639320	0.000161	1.612600	0.546364	-0.013256
1188	5.9350e-01	-7.4645	-12.689780	0.000123	1.227657	0.415941	-0.010092
1189	5.9400e-01	-7.4950	-12.757772	0.000165	1.654215	0.560463	-0.013598
1190	5.9450e-01	-7.5399	-12.814647	0.000138	1.383715	0.468815	-0.011375
1191	5.9500e-01	-7.5832	-12.876652	0.000151	1.508561	0.511114	-0.012401
1192	5.9550e-01	-7.6249	-12.933954	0.000139	1.394118	0.472340	-0.011460
1193	5.9600e-01	-7.6698	-12.992966	0.000144	1.435734	0.486440	-0.011802
1194	5.9650e-01	-7.7051	-13.051979	0.000144	1.435734	0.486440	-0.011802
1195	5.9700e-01	-7.7581	-13.113557	0.000150	1.498157	0.507589	-0.012316
1196	5.9750e-01	-7.7966	-13.175562	0.000151	1.508561	0.511114	-0.012401
1197	5.9800e-01	-7.8222	-13.232864	0.000139	1.394118	0.472340	-0.011460
1198	5.9850e-01	-7.8591	-13.291449	0.000143	1.425330	0.482915	-0.011717
1199	5.9900e-01	-7.8431	-13.349178	-0.000140	-1.404522	-0.475865	-0.011546
1200	5.9950e-01	-7.9714	-13.408190	0.000144	1.435734	0.486440	-0.011802
1201	6.0000e-01	-7.9827	-13.465920	0.000140	1.404522	0.475865	-0.011546
1202	6.0050e-01	-8.0228	-13.530064	0.000156	1.560580	0.528739	-0.012829
1203	6.0100e-01	-8.0725	-13.579668	0.000121	1.206849	0.408891	-0.009921
1204	6.0150e-01	-8.1254	-13.642529	0.000153	1.529369	0.518164	-0.012572
1205	6.0200e-01	-8.1062	-13.701114	-0.000143	-1.425330	-0.482915	-0.011717
1206	6.0250e-01	-8.1880	-13.767396	0.000161	1.612600	0.546364	-0.013256
1207	6.0300e-01	-8.1832	-13.825125	-0.000140	-1.404522	-0.475865	-0.011546
1208	6.0350e-01	-8.2554	-13.880289	0.000134	1.342099	0.454715	-0.011033
1209	6.0400e-01	-8.2682	-13.934170	0.000131	1.310888	0.444141	-0.010776
1210	6.0450e-01	-8.3372	-13.991899	0.000140	1.404522	0.475865	-0.011546
1211	6.0500e-01	-8.3308	-14.051339	-0.000145	-1.446138	-0.489965	-0.011888
1212	6.0550e-01	-8.4270	-14.108213	0.000138	1.383715	0.468815	-0.011375
1213	6.0600e-01	-8.4848	-14.166370	0.000141	1.414926	0.479390	-0.011631
1214	6.0650e-01	-8.5506	-14.217258	0.000124	1.238060	0.419466	-0.010177
1215	6.0700e-01	-8.5233	-14.278408	-0.000149	-1.487753	-0.504064	-0.012230
1216	6.0750e-01	-8.6003	-14.336993	0.000143	1.425330	0.482915	-0.011717
1217	6.0800e-01	-8.6195	-14.391729	0.000133	1.331695	0.451191	-0.010947
1218	6.0850e-01	-8.6933	-14.449458	0.000140	1.404522	0.475865	-0.011546
1219	6.0900e-01	-8.7030	-14.506332	0.000138	1.383715	0.468815	-0.011375
1220	6.0950e-01	-8.7367	-14.562779	0.000137	1.373311	0.465290	-0.011289
1221	6.1000e-01	-8.7800	-14.617087	0.000132	1.321291	0.447666	-0.010862
1222	6.1050e-01	-8.8040	-14.673961	0.000138	1.383715	0.468815	-0.011375
1223	6.1100e-01	-8.8971	-14.729980	0.000136	1.362907	0.461765	-0.011204
1224	6.1150e-01	-8.9147	-14.788137	0.000141	1.414926	0.479390	-0.011631
1225	6.1200e-01	-8.9372	-14.844584	0.000137	1.373311	0.465290	-0.011289
1226	6.1250e-01	-8.9917	-14.903168	0.000143	1.425330	0.482915	-0.011717
1227	6.1300e-01	-9.0222	-14.956622	0.000130	1.300484	0.440616	-0.010691
1228	6.1350e-01	-9.0832	-15.012641	0.000136	1.362907	0.461765	-0.011204
1229	6.1400e-01	-9.0816	-15.067804	-0.000134	-1.342099	-0.454715	-0.011033
1230	6.1450e-01	-9.1570	-15.125534	0.000140	1.404522	0.475865	-0.011546
1231	6.1500e-01	-9.1842	-15.178987	0.000130	1.300484	0.440616	-0.010691
1232	6.1550e-01	-9.2340	-15.238854	0.000146	1.456542	0.493490	-0.011974
1233	6.1600e-01	-9.2725	-15.293163	0.000132	1.321291	0.447666	-0.010862
1234	6.1650e-01	-9.3174	-15.343622	0.000123	1.227657	0.415941	-0.010092
1235	6.1700e-01	-9.3463	-15.405201	0.000150	1.498157	0.507589	-0.012316
1236	6.1750e-01	-9.3783	-15.462502	0.000139	1.394118	0.472340	-0.011460
1237	6.1800e-01	-9.4168	-15.518949	0.000137	1.373311	0.465290	-0.011289
1238	6.1850e-01	-9.4505	-15.569836	0.000124	1.238060	0.419466	-0.010177
1239	6.1900e-01	-9.4826	-15.626710	0.000138	1.383715	0.468815	-0.011375
1240	6.1950e-01	-9.5083	-15.684012	0.000139	1.394118	0.472340	-0.011460
1241	6.2000e-01	-9.5805	-15.740459	0.000137	1.373311	0.465290	-0.011289
1242	6.2050e-01	-9.6110	-15.789208	0.000119	1.186041	0.401842	-0.009750
1243	6.2100e-01	-9.6767	-15.846510	0.000139	1.394118	0.472340	-0.011460
1244	6.2150e-01	-9.6751	-15.905094	-0.000143	-1.425330	-0.482915	-0.011717
1245	6.2200e-01	-9.7313	-15.956837	0.000126	1.258868	0.426516	-0.010349
1246	6.2250e-01	-9.7730	-16.011146	0.000132	1.321291	0.447666	-0.010862
1247	6.2300e-01	-9.8227	-16.067164	0.000136	1.362907	0.461765	-0.011204
1248	6.2350e-01	-9.8404	-16.122756	0.000135	1.352503	0.458240	-0.011118
1249	6.2400e-01	-9.8901	-16.175354	0.000128	1.279676	0.433566	-0.010520
1250	6.2450e-01	-9.9543	-16.234366	0.000144	1.435734	0.486440	-0.011802
1251	6.2500e-01	-10.0104	-16.284826	0.000123	1.227657	0.415941	-0.010092
1252	6.2550e-01	-10.0265	-16.338279	0.000130	1.300484	0.440616	-0.010691
1253	6.2600e-01	-10.0585	-16.393870	0.000135	1.352503	0.458240	-0.011118
1254	6.2650e-01	-10.0954	-16.446040	0.000127	1.269272	0.430041	-0.010434
1255	6.2700e-01	-10.1500	-16.501204	0.000134	1.342099	0.454715	-0.011033
1256	6.2750e-01	-10.2093	-16.552092	0.000124	1.238060	0.419466	-0.010177
1257	6.2800e-01	-10.2270	-16.604689	0.000128	1.279676	0.433566	-0.010520
1258	6.2850e-01	-10.2510	-16.660708	0.000136	1.362907	0.461765	-0.011204
1259	6.2900e-01	-10.3264	-16.718010	0.000139	1.394118	0.472340	-0.011460
1260	6.2950e-01	-10.3601	-16.766332	0.000118	1.175637	0.398317	-0.009664
1261	6.3000e-01	-10.4099	-16.825344	0.000144	1.435734	0.486440	-0.011802
1262	6.3050e-01	-10.4227	-16.892054	0.000162	1.623004	0.549889	-0.013342
1263	6.3100e-01	-10.4484	-16.933961	0.000102	1.019579	0.345443	-0.008381
1264	6.3150e-01	-10.4740	-16.979289	0.000110	1.102810	0.373642	-0.009066
1265	6.3200e-01	-10.5125	-17.039157	0.000146	1.456542	0.493490	-0.011974
1266	6.3250e-01	-10.5623	-17.093893	0.000133	1.331695	0.451191	-0.010947
1267	6.3300e-01	-10.6200	-17.142642	0.000119	1.186041	0.401842	-0.009750
1268	6.3350e-01	-10.6826	-17.199944	0.000139	1.394118	0.472340	-0.011460
1269	6.3400e-01	-10.7131	-17.249121	0.000120	1.196445	0.405367	-0.009835
1270	6.3450e-01	-10.7339	-17.308561	0.000145	1.446138	0.489965	-0.011888
1271	6.3500e-01	-10.7981	-17.360731	0.000127	1.269272	0.430041	-0.010434
1272	6.3550e-01	-10.8173	-17.416322	0.000135	1.352503	0.458240	-0.011118
1273	6.3600e-01	-10.8799	-17.462078	0.000111	1.113214	0.377167	-0.009151
1274	6.3650e-01	-10.9232	-17.516814	0.000133	1.331695	0.451191	-0.010947
1275	6.3700e-01	-10.9361	-17.568557	0.000126	1.258868	0.426516	-0.010349
1276	6.3750e-01	-11.0066	-17.619444	0.000124	1.238060	0.419466	-0.010177
1277	6.3800e-01	-11.0147	-17.674608	0.000134	1.342099	0.454715	-0.011033
1278	6.3850e-01	-11.0676	-17.728061	0.000130	1.300484	0.440616	-0.010691
1279	6.3900e-01	-11.1029	-17.778093	0.000122	1.217253	0.412416	-0.010006
1280	6.3950e-01	-11.1077	-17.834112	0.000136	1.362907	0.461765	-0.011204
1281	6.4000e-01	-11.2024	-17.882861	0.000119	1.186041	0.401842	-0.009750
1282	6.4050e-01	-11.2312	-17.938025	0.000134	1.342099	0.454715	-0.011033
1283	6.4100e-01	-11.2457	-17.988912	0.000124	1.238060	0.419466	-0.010177
1284	6.4150e-01	-11.2906	-18.036806	0.000117	1.165233	0.394792	-0.009579
1285	6.4200e-01	-11.3499	-18.095391	0.000143	1.425330	0.482915	-0.011717
1286	6.4250e-01	-11.3981	-18.147989	0.000128	1.279676	0.433566	-0.010520
1287	6.4300e-01	-11.4189	-18.196738	0.000119	1.186041	0.401842	-0.009750
1288	6.4350e-01	-11.4655	-18.247198	0.000123	1.227657	0.415941	-0.010092
1289	6.4400e-01	-11.5216	-18.303217	0.000136	1.362907	0.461765	-0.011204
1290	6.4450e-01	-11.5617	-18.357525	0.000132	1.321291	0.447666	-0.010862
1291	6.4500e-01	-11.6034	-18.406275	0.000119	1.186041	0.401842	-0.009750
1292	6.4550e-01	-11.6082	-18.460583	0.000132	1.321291	0.447666	-0.010862
1293	6.4600e-01	-11.6531	-18.508050	0.000115	1.154829	0.391267	-0.009493
1294	6.4650e-01	-11.7205	-18.561503	0.000130	1.300484	0.440616	-0.010691
1295	6.4700e-01	-11.7510	-18.613245	0.000126	1.258868	0.426516	-0.010349
1296	6.4750e-01	-11.7542	-18.665416	0.000127	1.269272	0.430041	-0.010434
1297	6.4800e-01	-11.8039	-18.720152	0.000133	1.331695	0.451191	-0.010947
1298	6.4850e-01	-11.8136	-18.768473	0.000118	1.175637	0.398317	-0.009664
1299	6.4900e-01	-11.8826	-18.822782	0.000132	1.321291	0.447666	-0.010862
1300	6.4950e-01	-11.9515	-18.872814	0.000122	1.217253	0.412416	-0.010006
1301	6.5000e-01	-11.9884	-18.920280	0.000115	1.154829	0.391267	-0.009493
1302	6.5050e-01	-12.0269	-18.974589	0.000132	1.321291	0.447666	-0.010862
1303	6.5100e-01	-12.0638	-19.027187	0.000128	1.279676	0.433566	-0.010520
1304	6.5150e-01	-12.1023	-19.081923	0.000133	1.331695	0.451191	-0.010947
1305	6.5200e-01	-12.1424	-19.132810	0.000124	1.238060	0.419466	-0.010177
1306	6.5250e-01	-12.1585	-19.177711	0.000109	1.092406	0.370117	-0.008980
1307	6.5300e-01	-12.1986	-19.230736	0.000129	1.290080	0.437091	-0.010605
1308	6.5350e-01	-12.2756	-19.281196	0.000123	1.227657	0.415941	-0.010092
1309	6.5400e-01	-12.3093	-19.334222	0.000129	1.290080	0.437091	-0.010605
1310	6.5450e-01	-12.3494	-19.384681	0.000123	1.227657	0.415941	-0.010092
1311	6.5500e-01	-12.3847	-19.433431	0.000119	1.186041	0.401842	-0.009750
1312	6.5550e-01	-12.4216	-19.482180	0.000119	1.186041	0.401842	-0.009750
1313	6.5600e-01	-12.4424	-19.533067	0.000124	1.238060	0.419466	-0.010177
1314	6.5650e-01	-12.4906	-19.579251	0.000112	1.123618	0.380692	-0.009237
1315	6.5700e-01	-12.5563	-19.632704	0.000130	1.300484	0.440616	-0.010691
1316	6.5750e-01	-12.5531	-19.684874	-0.000127	-1.269272	-0.430041	-0.010434
1317	6.5800e-01	-12.6189	-19.734051	0.000120	1.196445	0.405367	-0.009835
1318	6.5850e-01	-12.6590	-19.778952	0.000109	1.092406	0.370117	-0.008980
1319	6.5900e-01	-12.7039	-19.825135	0.000112	1.123618	0.380692	-0.009237
1320	6.5950e-01	-12.7504	-19.882865	0.000140	1.404522	0.475865	-0.011546
1321	6.6000e-01	-12.7841	-19.929476	0.000113	1.134022	0.384217	-0.009322
1322	6.6050e-01	-12.8371	-19.979080	0.000121	1.206849	0.408891	-0.009921
1323	6.6100e-01	-12.8820	-20.025692	0.000113	1.134022	0.384217	-0.009322
1324	6.6150e-01	-12.8563	-20.077434	-0.000126	-1.258868	-0.426516	-0.010349
1325	6.6200e-01	-12.9365	-20.129177	0.000126	1.258868	0.426516	-0.010349
1326	6.6250e-01	-12.9863	-20.178354	0.000120	1.196445	0.405367	-0.009835
1327	6.6300e-01	-13.0232	-20.226248	0.000117	1.165233	0.394792	-0.009579
1328	6.6350e-01	-13.0569	-20.272431	0.000112	1.123618	0.380692	-0.009237
1329	6.6400e-01	-13.0889	-20.323746	0.000125	1.248464	0.422991	-0.010263
1330	6.6450e-01	-13.1339	-20.372068	0.000118	1.175637	0.398317	-0.009664
1331	6.6500e-01	-13.1788	-20.416541	0.000108	1.082002	0.366592	-0.008895
1332	6.6550e-01	-13.2606	-20.470850	0.000132	1.321291	0.447666	-0.010862
1333	6.6600e-01	-13.2734	-20.519171	0.000118	1.175637	0.398317	-0.009664
1334	6.6650e-01	-13.2911	-20.567920	0.000119	1.186041	0.401842	-0.009750
1335	6.6700e-01	-13.3697	-20.616670	0.000119	1.186041	0.401842	-0.009750
1336	6.6750e-01	-13.3825	-20.662426	0.000111	1.113214	0.377167	-0.009151
1337	6.6800e-01	-13.4178	-20.714596	0.000127	1.269272	0.430041	-0.010434
1338	6.6850e-01	-13.4579	-20.763773	0.000120	1.196445	0.405367	-0.009835
1339	6.6900e-01	-13.5221	-20.810384	0.000113	1.134022	0.384217	-0.009322
1340	6.6950e-01	-13.5477	-20.861271	0.000124	1.238060	0.419466	-0.010177
1341	6.7000e-01	-13.5814	-20.906172	0.000109	1.092406	0.370117	-0.008980
1342	6.7050e-01	-13.6199	-20.956632	0.000123	1.227657	0.415941	-0.010092
1343	6.7100e-01	-13.6264	-21.006236	0.000121	1.206849	0.408891	-0.009921
1344	6.7150e-01	-13.6985	-21.050709	0.000108	1.082002	0.366592	-0.008895
1345	6.7200e-01	-13.7403	-21.104163	0.000130	1.300484	0.440616	-0.010691
1346	6.7250e-01	-13.7884	-21.150346	0.000112	1.123618	0.380692	-0.009237
1347	6.7300e-01	-13.8221	-21.201661	0.000125	1.248464	0.422991	-0.010263
1348	6.7350e-01	-13.8622	-21.247845	0.000112	1.123618	0.380692	-0.009237
1349	6.7400e-01	-13.9231	-21.297449	0.000121	1.206849	0.408891	-0.009921
1350	6.7450e-01	-13.9328	-21.325245	0.000068	0.676252	0.229120	-0.005559
1351	6.7500e-01	-13.9632	-21.390671	0.000159	1.591792	0.539314	-0.013085
1352	6.7550e-01	-14.0226	-21.439421	0.000119	1.186041	0.401842	-0.009750
1353	6.7600e-01	-14.0483	-21.486887	0.000115	1.154829	0.391267	-0.009493
1354	6.7650e-01	-14.0852	-21.536919	0.000122	1.217253	0.412416	-0.010006
1355	6.7700e-01	-14.1461	-21.586524	0.000121	1.206849	0.408891	-0.009921
1356	6.7750e-01	-14.1878	-21.635701	0.000120	1.196445	0.405367	-0.009835
1357	6.7800e-01	-14.2103	-21.680601	0.000109	1.092406	0.370117	-0.008980
1358	6.7850e-01	-14.2745	-21.729778	0.000120	1.196445	0.405367	-0.009835
1359	6.7900e-01	-14.3049	-21.776389	0.000113	1.134022	0.384217	-0.009322
1360	6.7950e-01	-14.3450	-21.827277	0.000124	1.238060	0.419466	-0.010177
1361	6.8000e-01	-14.4012	-21.876454	0.000120	1.196445	0.405367	-0.009835
1362	6.8050e-01	-14.4172	-21.923920	0.000115	1.154829	0.391267	-0.009493
1363	6.8100e-01	-14.4718	-21.969248	0.000110	1.102810	0.373642	-0.009066
1364	6.8150e-01	-14.5071	-22.012011	0.000104	1.040387	0.352493	-0.008553
1365	6.8200e-01	-14.5311	-22.064609	0.000128	1.279676	0.433566	-0.010520
1366	6.8250e-01	-14.5584	-22.112931	0.000118	1.175637	0.398317	-0.009664
1367	6.8300e-01	-14.6194	-22.163390	0.000123	1.227657	0.415941	-0.010092
1368	6.8350e-01	-14.6563	-22.210002	0.000113	1.134022	0.384217	-0.009322
1369	6.8400e-01	-14.7092	-22.256613	0.000113	1.134022	0.384217	-0.009322
1370	6.8450e-01	-14.7461	-22.301086	0.000108	1.082002	0.366592	-0.008895
1371	6.8500e-01	-14.7670	-22.346414	0.000110	1.102810	0.373642	-0.009066
1372	6.8550e-01	-14.8087	-22.395163	0.000119	1.186041	0.401842	-0.009750
1373	6.8600e-01	-14.8680	-22.442630	0.000115	1.154829	0.391267	-0.009493
1374	6.8650e-01	-14.8985	-22.490951	0.000118	1.175637	0.398317	-0.009664
1375	6.8700e-01	-14.9242	-22.533286	0.000103	1.029983	0.348968	-0.008467
1376	6.8750e-01	-14.9948	-22.580753	0.000115	1.154829	0.391267	-0.009493
1377	6.8800e-01	-15.0397	-22.632495	0.000126	1.258868	0.426516	-0.010349
1378	6.8850e-01	-15.0862	-22.674830	0.000103	1.029983	0.348968	-0.008467
1379	6.8900e-01	-15.1055	-22.725290	0.000123	1.227657	0.415941	-0.010092
1380	6.8950e-01	-15.1520	-22.769335	0.000107	1.071599	0.363067	-0.008809
1381	6.9000e-01	-15.1857	-22.813381	0.000107	1.071599	0.363067	-0.008809
1382	6.9050e-01	-15.2354	-22.861702	0.000118	1.175637	0.398317	-0.009664
1383	6.9100e-01	-15.2611	-22.911735	0.000122	1.217253	0.412416	-0.010006
1384	6.9150e-01	-15.3060	-22.958773	0.000114	1.144426	0.387742	-0.009408
1385	6.9200e-01	-15.3493	-23.001964	0.000105	1.050791	0.356018	-0.008638
1386	6.9250e-01	-15.3734	-23.049002	0.000114	1.144426	0.387742	-0.009408
1387	6.9300e-01	-15.4006	-23.097752	0.000119	1.186041	0.401842	-0.009750
1388	6.9350e-01	-15.4728	-23.139231	0.000101	1.009175	0.341918	-0.008296
1389	6.9400e-01	-15.5226	-23.186698	0.000115	1.154829	0.391267	-0.009493
1390	6.9450e-01	-15.5562	-23.235875	0.000120	1.196445	0.405367	-0.009835
1391	6.9500e-01	-15.5787	-23.283341	0.000115	1.154829	0.391267	-0.009493
1392	6.9550e-01	-15.6316	-23.326103	0.000104	1.040387	0.352493	-0.008553
1393	6.9600e-01	-15.6782	-23.374425	0.000118	1.175637	0.398317	-0.009664
1394	6.9650e-01	-15.6814	-23.415477	0.000100	0.998771	0.338393	-0.008210
1395	6.9700e-01	-15.7407	-23.465509	0.000122	1.217253	0.412416	-0.010006
1396	6.9750e-01	-15.7969	-23.511265	0.000111	1.113214	0.377167	-0.009151
1397	6.9800e-01	-15.8514	-23.558304	0.000114	1.144426	0.387742	-0.009408
1398	6.9850e-01	-15.8610	-23.601922	0.000106	1.061195	0.359542	-0.008724
1399	6.9900e-01	-15.8787	-23.649816	0.000117	1.165233	0.394792	-0.009579
1400	6.9950e-01	-15.9364	-23.695572	0.000111	1.113214	0.377167	-0.009151
1401	7.0000e-01	-15.9894	-23.745176	0.000121	1.206849	0.408891	-0.009921
1402	7.0050e-01	-16.0054	-23.786228	0.000100	0.998771	0.338393	-0.008210
1403	7.0100e-01	-16.0872	-23.828991	0.000104	1.040387	0.352493	-0.008553
1404	7.0150e-01	-16.1097	-23.876457	0.000115	1.154829	0.391267	-0.009493
1405	7.0200e-01	-16.1113	-23.925206	0.000119	1.186041	0.401842	-0.009750
1406	7.0250e-01	-16.1739	-23.972673	0.000115	1.154829	0.391267	-0.009493
1407	7.0300e-01	-16.2300	-24.015863	0.000105	1.050791	0.356018	-0.008638
1408	7.0350e-01	-16.3086	-24.062474	0.000113	1.134022	0.384217	-0.009322
1409	7.0400e-01	-16.3199	-24.105664	0.000105	1.050791	0.356018	-0.008638
1410	7.0450e-01	-16.3391	-24.151420	0.000111	1.113214	0.377167	-0.009151
1411	7.0500e-01	-16.3648	-24.193328	0.000102	1.019579	0.345443	-0.008381
1412	7.0550e-01	-16.4418	-24.243360	0.000122	1.217253	0.412416	-0.010006
1413	7.0600e-01	-16.4626	-24.289971	0.000113	1.134022	0.384217	-0.009322
1414	7.0650e-01	-16.5236	-24.335727	0.000111	1.113214	0.377167	-0.009151
1415	7.0700e-01	-16.5461	-24.377634	0.000102	1.019579	0.345443	-0.008381
1416	7.0750e-01	-16.5830	-24.426383	0.000119	1.186041	0.401842	-0.009750
1417	7.0800e-01	-16.6455	-24.469146	0.000104	1.040387	0.352493	-0.008553
1418	7.0850e-01	-16.6279	-24.515757	-0.000113	-1.134022	-0.384217	-0.009322
1419	7.0900e-01	-16.6920	-24.559802	0.000107	1.071599	0.363067	-0.008809
1420	7.0950e-01	-16.7305	-24.608124	0.000118	1.175637	0.398317	-0.009664
1421	7.1000e-01	-16.7626	-24.652169	0.000107	1.071599	0.363067	-0.008809
1422	7.1050e-01	-16.8284	-24.697498	0.000110	1.102810	0.373642	-0.009066
1423	7.1100e-01	-16.8653	-24.741543	0.000107	1.071599	0.363067	-0.008809
1424	7.1150e-01	-16.8749	-24.789437	0.000117	1.165233	0.394792	-0.009579
1425	7.1200e-01	-16.9247	-24.836048	0.000113	1.134022	0.384217	-0.009322
1426	7.1250e-01	-16.9888	-24.880949	0.000109	1.092406	0.370117	-0.008980
1427	7.1300e-01	-17.0225	-24.927133	0.000112	1.123618	0.380692	-0.009237
1428	7.1350e-01	-17.0450	-24.969040	0.000102	1.019579	0.345443	-0.008381
1429	7.1400e-01	-17.1252	-25.014796	0.000111	1.113214	0.377167	-0.009151
1430	7.1450e-01	-17.1749	-25.062690	0.000117	1.165233	0.394792	-0.009579
1431	7.1500e-01	-17.1813	-25.105452	0.000104	1.040387	0.352493	-0.008553
1432	7.1550e-01	-17.2230	-25.148215	0.000104	1.040387	0.352493	-0.008553
1433	7.1600e-01	-17.2728	-25.195254	0.000114	1.144426	0.387742	-0.009408
1434	7.1650e-01	-17.3193	-25.239727	0.000108	1.082002	0.366592	-0.008895
1435	7.1700e-01	-17.3225	-25.291897	0.000127	1.269272	0.430041	-0.010434
1436	7.1750e-01	-17.3674	-25.333377	0.000101	1.009175	0.341918	-0.008296
1437	7.1800e-01	-17.4348	-25.377850	0.000108	1.082002	0.366592	-0.008895
1438	7.1850e-01	-17.4669	-25.430447	0.000128	1.279676	0.433566	-0.010520
1439	7.1900e-01	-17.5038	-25.459526	0.000071	0.707463	0.239695	-0.005816
1440	7.1950e-01	-17.5391	-25.515117	0.000135	1.352503	0.458240	-0.011118
1441	7.2000e-01	-17.5792	-25.559590	0.000108	1.082002	0.366592	-0.008895
1442	7.2050e-01	-17.6514	-25.604919	0.000110	1.102810	0.373642	-0.009066
1443	7.2100e-01	-17.6754	-25.654523	0.000121	1.206849	0.408891	-0.009921
1444	7.2150e-01	-17.6995	-25.696003	0.000101	1.009175	0.341918	-0.008296
1445	7.2200e-01	-17.7316	-25.741759	0.000111	1.113214	0.377167	-0.009151
1446	7.2250e-01	-17.7958	-25.785376	0.000106	1.061195	0.359542	-0.008724
1447	7.2300e-01	-17.8102	-25.826856	0.000101	1.009175	0.341918	-0.008296
1448	7.2350e-01	-17.8278	-25.874750	0.000117	1.165233	0.394792	-0.009579
1449	7.2400e-01	-17.8888	-25.921789	0.000114	1.144426	0.387742	-0.009408
1450	7.2450e-01	-17.9273	-25.962413	0.000099	0.988368	0.334868	-0.008125
1451	7.2500e-01	-17.9818	-26.006459	0.000107	1.071599	0.363067	-0.008809
1452	7.2550e-01	-17.9931	-26.053070	0.000113	1.134022	0.384217	-0.009322
1453	7.2600e-01	-18.0829	-26.100536	0.000115	1.154829	0.391267	-0.009493
1454	7.2650e-01	-18.0701	-26.145437	-0.000109	-1.092406	-0.370117	-0.008980
1455	7.2700e-01	-18.1551	-26.192048	0.000113	1.134022	0.384217	-0.009322
1456	7.2750e-01	-18.1856	-26.238232	0.000112	1.123618	0.380692	-0.009237
1457	7.2800e-01	-18.2129	-26.280567	0.000103	1.029983	0.348968	-0.008467
1458	7.2850e-01	-18.2658	-26.322474	0.000102	1.019579	0.345443	-0.008381
1459	7.2900e-01	-18.2979	-26.369513	0.000114	1.144426	0.387742	-0.009408
1460	7.2950e-01	-18.3219	-26.420828	0.000125	1.248464	0.422991	-0.010263
1461	7.3000e-01	-18.3717	-26.462735	0.000102	1.019579	0.345443	-0.008381
1462	7.3050e-01	-18.4294	-26.502076	0.000096	0.957156	0.324293	-0.007868
1463	7.3100e-01	-18.4647	-26.551253	0.000120	1.196445	0.405367	-0.009835
1464	7.3150e-01	-18.5161	-26.593588	0.000103	1.029983	0.348968	-0.008467
1465	7.3200e-01	-18.5562	-26.643193	0.000121	1.206849	0.408891	-0.009921
1466	7.3250e-01	-18.5834	-26.685528	0.000103	1.029983	0.348968	-0.008467
1467	7.3300e-01	-18.6364	-26.730428	0.000109	1.092406	0.370117	-0.008980
1468	7.3350e-01	-18.6572	-26.776184	0.000111	1.113214	0.377167	-0.009151
1469	7.3400e-01	-18.6973	-26.823651	0.000115	1.154829	0.391267	-0.009493
1470	7.3450e-01	-18.7647	-26.869834	0.000112	1.123618	0.380692	-0.009237
1471	7.3500e-01	-18.7759	-26.911314	0.000101	1.009175	0.341918	-0.008296
1472	7.3550e-01	-18.8321	-26.958780	0.000115	1.154829	0.391267	-0.009493
1473	7.3600e-01	-18.8497	-27.003681	0.000109	1.092406	0.370117	-0.008980
1474	7.3650e-01	-18.8882	-27.046016	0.000103	1.029983	0.348968	-0.008467
1475	7.3700e-01	-18.9316	-27.096903	0.000124	1.238060	0.419466	-0.010177
1476	7.3750e-01	-18.9909	-27.138810	0.000102	1.019579	0.345443	-0.008381
1477	7.3800e-01	-19.0647	-27.184566	0.000111	1.113214	0.377167	-0.009151
1478	7.3850e-01	-19.0711	-27.231177	0.000113	1.134022	0.384217	-0.009322
1479	7.3900e-01	-19.0856	-27.267526	0.000088	0.884329	0.299619	-0.007270
1480	7.3950e-01	-19.1337	-27.320979	0.000130	1.300484	0.440616	-0.010691
1481	7.4000e-01	-19.1882	-27.365879	0.000109	1.092406	0.370117	-0.008980
1482	7.4050e-01	-19.2235	-27.411635	0.000111	1.113214	0.377167	-0.009151
1483	7.4100e-01	-19.2508	-27.457391	0.000111	1.113214	0.377167	-0.009151
1484	7.4150e-01	-19.2861	-27.502720	0.000110	1.102810	0.373642	-0.009066
1485	7.4200e-01	-19.2813	-27.551041	-0.000118	-1.175637	-0.398317	-0.009664
1486	7.4250e-01	-19.3647	-27.594659	0.000106	1.061195	0.359542	-0.008724
1487	7.4300e-01	-19.4289	-27.640415	0.000111	1.113214	0.377167	-0.009151
1488	7.4350e-01	-19.4674	-27.686598	0.000112	1.123618	0.380692	-0.009237
1489	7.4400e-01	-19.4994	-27.731927	0.000110	1.102810	0.373642	-0.009066
1490	7.4450e-01	-19.5171	-27.775117	0.000105	1.050791	0.356018	-0.008638
1491	7.4500e-01	-19.6150	-27.817024	0.000102	1.019579	0.345443	-0.008381
1492	7.4550e-01	-19.5957	-27.864918	-0.000117	-1.165233	-0.394792	-0.009579
1493	7.4600e-01	-19.6535	-27.914095	0.000120	1.196445	0.405367	-0.009835
1494	7.4650e-01	-19.6807	-27.954292	0.000098	0.977964	0.331343	-0.008039
1495	7.4700e-01	-19.7529	-27.997482	0.000105	1.050791	0.356018	-0.008638
1496	7.4750e-01	-19.7978	-28.046659	0.000120	1.196445	0.405367	-0.009835
1497	7.4800e-01	-19.8043	-28.090277	0.000106	1.061195	0.359542	-0.008724
1498	7.4850e-01	-19.8732	-28.139881	0.000121	1.206849	0.408891	-0.009921
1499	7.4900e-01	-19.9069	-28.183499	0.000106	1.061195	0.359542	-0.008724
1500	7.4950e-01	-19.9342	-28.236525	0.000129	1.290080	0.437091	-0.010605
1501	7.5000e-01	-20.0032	-28.278432	0.000102	1.019579	0.345443	-0.008381
1502	7.5050e-01	-19.9262	-28.321194	-0.000104	-1.040387	-0.352493	-0.008553
1503	7.5100e-01	-19.8845	-28.352839	-0.000077	-0.769886	-0.260845	-0.006329
1504	7.5150e-01	-19.8460	-28.382345	-0.000072	-0.717867	-0.243220	-0.005901
1505	7.5200e-01	-19.8267	-28.406719	-0.000059	-0.593021	-0.200921	-0.004875
1506	7.5250e-01	-19.7786	-28.418693	-0.000029	-0.291308	-0.098698	-0.002395
1507	7.5300e-01	-19.7224	-28.433660	-0.000036	-0.364135	-0.123372	-0.002993
1508	7.5350e-01	-19.6839	-28.444778	-0.000027	-0.270501	-0.091648	-0.002224
1509	7.5400e-01	-19.6695	-28.451620	-0.000017	-0.166462	-0.056399	-0.001368
1510	7.5450e-01	-19.5925	-28.460173	-0.000021	-0.208077	-0.070499	-0.001711
1511	7.5500e-01	-19.5492	-28.454613	0.000014	0.135250	0.045824	0.001112
1512	7.5550e-01	-19.4994	-28.453758	0.000002	0.020808	0.007050	0.000171
1513	7.5600e-01	-19.4818	-28.452475	0.000003	0.031212	0.010575	0.000257
1514	7.5650e-01	-19.4128	-28.444350	0.000020	0.197674	0.066974	0.001625
1515	7.5700e-01	-19.4016	-28.434943	0.000023	0.228885	0.077548	0.001882
1516	7.5750e-01	-19.3791	-28.420831	0.000034	0.343328	0.116323	0.002822
1517	7.5800e-01	-19.3069	-28.409285	0.000028	0.280904	0.095173	0.002309
1518	7.5850e-01	-19.3037	-28.397312	0.000029	0.291308	0.098698	0.002395
1519	7.5900e-01	-19.2380	-28.377213	0.000049	0.488982	0.165672	0.004020
1520	7.5950e-01	-19.1690	-28.360963	0.000040	0.395347	0.133947	0.003250
1521	7.6000e-01	-19.1497	-28.341293	0.000048	0.478578	0.162147	0.003934
1522	7.6050e-01	-19.1080	-28.316063	0.000061	0.613828	0.207971	0.005046
1523	7.6100e-01	-19.0503	-28.296392	0.000048	0.478578	0.162147	0.003934
1524	7.6150e-01	-19.0198	-28.276294	0.000049	0.488982	0.165672	0.004020
1525	7.6200e-01	-19.0086	-28.251919	0.000059	0.593021	0.200921	0.004875
1526	7.6250e-01	-18.9652	-28.248926	0.000007	0.072827	0.024674	0.000599
1527	7.6300e-01	-18.9364	-28.206591	0.000103	1.029983	0.348968	0.008467
1528	7.6350e-01	-18.8963	-28.173664	0.000080	0.801098	0.271419	0.006585
1529	7.6400e-01	-18.8337	-28.142447	0.000076	0.759482	0.257320	0.006243
1530	7.6450e-01	-18.7791	-28.128335	0.000034	0.343328	0.116323	0.002822
1531	7.6500e-01	-18.7663	-28.093698	0.000084	0.842713	0.285519	0.006928
1532	7.6550e-01	-18.7182	-28.062053	0.000077	0.769886	0.260845	0.006329
1533	7.6600e-01	-18.7005	-28.028271	0.000082	0.821906	0.278469	0.006756
1534	7.6650e-01	-18.6428	-27.995771	0.000079	0.790694	0.267894	0.006500
1535	7.6700e-01	-18.5834	-27.967121	0.000070	0.697059	0.236170	0.005730
1536	7.6750e-01	-18.5578	-27.936332	0.000075	0.749079	0.253795	0.006158
1537	7.6800e-01	-18.5257	-27.900411	0.000087	0.873925	0.296094	0.007184
1538	7.6850e-01	-18.4952	-27.868767	0.000077	0.769886	0.260845	0.006329
1539	7.6900e-01	-18.4342	-27.832419	0.000088	0.884329	0.299619	0.007270
1540	7.6950e-01	-18.3797	-27.799919	0.000079	0.790694	0.267894	0.006500
1541	7.7000e-01	-18.3685	-27.768702	0.000076	0.759482	0.257320	0.006243
1542	7.7050e-01	-18.3300	-27.733637	0.000085	0.853117	0.289044	0.007013
1543	7.7100e-01	-18.2770	-27.699000	0.000084	0.842713	0.285519	0.006928
1544	7.7150e-01	-18.2048	-27.663079	0.000087	0.873925	0.296094	0.007184
1545	7.7200e-01	-18.1711	-27.628441	0.000084	0.842713	0.285519	0.006928
1546	7.7250e-01	-18.1503	-27.592521	0.000087	0.873925	0.296094	0.007184
1547	7.7300e-01	-18.1118	-27.553179	0.000096	0.957156	0.324293	0.007868
1548	7.7350e-01	-18.0797	-27.522818	0.000074	0.738675	0.250270	0.006072
1549	7.7400e-01	-18.0236	-27.486042	0.000089	0.894733	0.303144	0.007355
1550	7.7450e-01	-17.9931	-27.450549	0.000086	0.863521	0.292569	0.007099
1551	7.7500e-01	-17.9433	-27.413773	0.000089	0.894733	0.303144	0.007355
1552	7.7550e-01	-17.9225	-27.375715	0.000093	0.925944	0.313718	0.007612
1553	7.7600e-01	-17.8776	-27.340650	0.000085	0.853117	0.289044	0.007013
1554	7.7650e-01	-17.8327	-27.305584	0.000085	0.853117	0.289044	0.007013
1555	7.7700e-01	-17.8118	-27.265815	0.000097	0.967560	0.327818	0.007954
1556	7.7750e-01	-17.7637	-27.233316	0.000079	0.790694	0.267894	0.006500
1557	7.7800e-01	-17.7171	-27.192691	0.000099	0.988368	0.334868	0.008125
1558	7.7850e-01	-17.6979	-27.156771	0.000087	0.873925	0.296094	0.007184
1559	7.7900e-01	-17.6514	-27.117857	0.000095	0.946752	0.320768	0.007783
1560	7.7950e-01	-17.5615	-27.082792	0.000085	0.853117	0.289044	0.007013
1561	7.8000e-01	-17.5487	-27.044305	0.000094	0.936348	0.317243	0.007697
1562	7.8050e-01	-17.5134	-27.004536	0.000097	0.967560	0.327818	0.007954
1563	7.8100e-01	-17.4476	-26.968616	0.000087	0.873925	0.296094	0.007184
1564	7.8150e-01	-17.4268	-26.931840	0.000089	0.894733	0.303144	0.007355
1565	7.8200e-01	-17.3803	-26.897202	0.000084	0.842713	0.285519	0.006928
1566	7.8250e-01	-17.3530	-26.855295	0.000102	1.019579	0.345443	0.008381
1567	7.8300e-01	-17.2968	-26.818947	0.000088	0.884329	0.299619	0.007270
1568	7.8350e-01	-17.2824	-26.780033	0.000095	0.946752	0.320768	0.007783
1569	7.8400e-01	-17.2375	-26.744540	0.000086	0.863521	0.292569	0.007099
1570	7.8450e-01	-17.1942	-26.697501	0.000114	1.144426	0.387742	0.009408
1571	7.8500e-01	-17.1541	-26.659870	0.000092	0.915540	0.310194	0.007526
1572	7.8550e-01	-17.1236	-26.624805	0.000085	0.853117	0.289044	0.007013
1573	7.8600e-01	-17.0851	-26.586319	0.000094	0.936348	0.317243	0.007697
1574	7.8650e-01	-17.0193	-26.545694	0.000099	0.988368	0.334868	0.008125
1575	7.8700e-01	-16.9824	-26.509774	0.000087	0.873925	0.296094	0.007184
1576	7.8750e-01	-16.9503	-26.471287	0.000094	0.936348	0.317243	0.007697
1577	7.8800e-01	-16.8990	-26.432801	0.000094	0.936348	0.317243	0.007697
1578	7.8850e-01	-16.8974	-26.390466	0.000103	1.029983	0.348968	0.008467
1579	7.8900e-01	-16.8477	-26.353263	0.000091	0.905137	0.306669	0.007441
1580	7.8950e-01	-16.8011	-26.311783	0.000101	1.009175	0.341918	0.008296
1581	7.9000e-01	-16.7787	-26.277573	0.000083	0.832310	0.281994	0.006842
1582	7.9050e-01	-16.7482	-26.236949	0.000099	0.988368	0.334868	0.008125
1583	7.9100e-01	-16.6808	-26.201028	0.000087	0.873925	0.296094	0.007184
1584	7.9150e-01	-16.6648	-26.159121	0.000102	1.019579	0.345443	0.008381
1585	7.9200e-01	-16.5942	-26.117641	0.000101	1.009175	0.341918	0.008296
1586	7.9250e-01	-16.5412	-26.080438	0.000091	0.905137	0.306669	0.007441
1587	7.9300e-01	-16.5204	-26.039813	0.000099	0.988368	0.334868	0.008125
1588	7.9350e-01	-16.4739	-25.997906	0.000102	1.019579	0.345443	0.008381
1589	7.9400e-01	-16.4402	-25.961986	0.000087	0.873925	0.296094	0.007184
1590	7.9450e-01	-16.3712	-25.923072	0.000095	0.946752	0.320768	0.007783
1591	7.9500e-01	-16.3696	-25.882875	0.000098	0.977964	0.331343	0.008039
1592	7.9550e-01	-16.3070	-25.838830	0.000107	1.071599	0.363067	0.008809
1593	7.9600e-01	-16.2589	-25.799916	0.000095	0.946752	0.320768	0.007783
1594	7.9650e-01	-16.2124	-25.766133	0.000082	0.821906	0.278469	0.006756
1595	7.9700e-01	-16.2140	-25.721660	-0.000108	-1.082002	-0.366592	0.008895
1596	7.9750e-01	-16.1306	-25.680608	0.000100	0.998771	0.338393	0.008210
1597	7.9800e-01	-16.1001	-25.642122	0.000094	0.936348	0.317243	0.007697
1598	7.9850e-01	-16.1274	-25.599787	-0.000103	-1.029983	-0.348968	0.008467
1599	7.9900e-01	-16.0231	-25.560018	0.000097	0.967560	0.327818	0.007954
1600	7.9950e-01	-15.9894	-25.521104	0.000095	0.946752	0.320768	0.007783
1601	8.0000e-01	-15.9429	-25.483901	0.000091	0.905137	0.306669	0.007441
1602	8.0050e-01	-15.8835	-25.443276	0.000099	0.988368	0.334868	0.008125
1603	8.0100e-01	-15.8755	-25.400941	0.000103	1.029983	0.348968	0.008467
1604	8.0150e-01	-15.8514	-25.360745	0.000098	0.977964	0.331343	0.008039
1605	8.0200e-01	-15.7905	-25.322258	0.000094	0.936348	0.317243	0.007697
1606	8.0250e-01	-15.7744	-25.275647	0.000113	1.134022	0.384217	0.009322
1607	8.0300e-01	-15.7167	-25.237161	0.000094	0.936348	0.317243	0.007697
1608	8.0350e-01	-15.6718	-25.197819	0.000096	0.957156	0.324293	0.007868
1609	8.0400e-01	-15.6349	-25.161899	0.000087	0.873925	0.296094	0.007184
1610	8.0450e-01	-15.5867	-25.118281	0.000106	1.061195	0.359542	0.008724
1611	8.0500e-01	-15.5595	-25.078512	0.000097	0.967560	0.327818	0.007954
1612	8.0550e-01	-15.5258	-25.034894	0.000106	1.061195	0.359542	0.008724
1613	8.0600e-01	-15.4616	-24.995980	0.000095	0.946752	0.320768	0.007783
1614	8.0650e-01	-15.4263	-24.962198	0.000082	0.821906	0.278469	0.006756
1615	8.0700e-01	-15.3782	-24.919863	0.000103	1.029983	0.348968	0.008467
1616	8.0750e-01	-15.3814	-24.867693	-0.000127	-1.269272	-0.430041	0.010434
1617	8.0800e-01	-15.3365	-24.833055	0.000084	0.842713	0.285519	0.006928
1618	8.0850e-01	-15.2819	-24.792431	0.000099	0.988368	0.334868	0.008125
1619	8.0900e-01	-15.2482	-24.752234	0.000098	0.977964	0.331343	0.008039
1620	8.0950e-01	-15.1969	-24.710754	0.000101	1.009175	0.341918	0.008296
1621	8.1000e-01	-15.1488	-24.670130	0.000099	0.988368	0.334868	0.008125
1622	8.1050e-01	-15.1199	-24.631216	0.000095	0.946752	0.320768	0.007783
1623	8.1100e-01	-15.0605	-24.591447	0.000097	0.967560	0.327818	0.007954
1624	8.1150e-01	-15.0445	-24.544408	0.000114	1.144426	0.387742	0.009408
1625	8.1200e-01	-14.9867	-24.503356	0.000100	0.998771	0.338393	0.008210
1626	8.1250e-01	-14.9723	-24.459310	0.000107	1.071599	0.363067	0.008809
1627	8.1300e-01	-14.9370	-24.415693	0.000106	1.061195	0.359542	0.008724
1628	8.1350e-01	-14.8969	-24.378489	0.000091	0.905137	0.306669	0.007441
1629	8.1400e-01	-14.8327	-24.339575	0.000095	0.946752	0.320768	0.007783
1630	8.1450e-01	-14.7734	-24.297240	0.000103	1.029983	0.348968	0.008467
1631	8.1500e-01	-14.7589	-24.257471	0.000097	0.967560	0.327818	0.007954
1632	8.1550e-01	-14.7092	-24.213854	0.000106	1.061195	0.359542	0.008724
1633	8.1600e-01	-14.6868	-24.167670	0.000112	1.123618	0.380692	0.009237
1634	8.1650e-01	-14.6579	-24.125763	0.000102	1.019579	0.345443	0.008381
1635	8.1700e-01	-14.5921	-24.083000	0.000104	1.040387	0.352493	0.008553
1636	8.1750e-01	-14.5680	-24.047507	0.000086	0.863521	0.292569	0.007099
1637	8.1800e-01	-14.5023	-24.000469	0.000114	1.144426	0.387742	0.009408
1638	8.1850e-01	-14.4573	-23.959844	0.000099	0.988368	0.334868	0.008125
1639	8.1900e-01	-14.4413	-23.915799	0.000107	1.071599	0.363067	0.008809
1640	8.1950e-01	-14.4012	-23.873036	0.000104	1.040387	0.352493	0.008553
1641	8.2000e-01	-14.3354	-23.828136	0.000109	1.092406	0.370117	0.008980
1642	8.2050e-01	-14.3178	-23.790932	0.000091	0.905137	0.306669	0.007441
1643	8.2100e-01	-14.2632	-23.749025	0.000102	1.019579	0.345443	0.008381
1644	8.2150e-01	-14.2504	-23.699848	0.000120	1.196445	0.405367	0.009835
1645	8.2200e-01	-14.1959	-23.659224	0.000099	0.988368	0.334868	0.008125
1646	8.2250e-01	-14.1766	-23.620310	0.000095	0.946752	0.320768	0.007783
1647	8.2300e-01	-14.0980	-23.574981	0.000110	1.102810	0.373642	0.009066
1648	8.2350e-01	-14.0515	-23.533502	0.000101	1.009175	0.341918	0.008296
1649	8.2400e-01	-14.0162	-23.490312	0.000105	1.050791	0.356018	0.008638
1650	8.2450e-01	-14.0098	-23.444556	0.000111	1.113214	0.377167	0.009151
1651	8.2500e-01	-13.9648	-23.406925	0.000092	0.915540	0.310194	0.007526
1652	8.2550e-01	-13.9071	-23.362879	0.000107	1.071599	0.363067	0.008809
1653	8.2600e-01	-13.8702	-23.323538	0.000096	0.957156	0.324293	0.007868
1654	8.2650e-01	-13.8381	-23.274361	0.000120	1.196445	0.405367	0.009835
1655	8.2700e-01	-13.7820	-23.229033	0.000110	1.102810	0.373642	0.009066
1656	8.2750e-01	-13.7627	-23.195678	0.000081	0.811502	0.274944	0.006671
1657	8.2800e-01	-13.7146	-23.150349	0.000110	1.102810	0.373642	0.009066
1658	8.2850e-01	-13.6905	-23.106732	0.000106	1.061195	0.359542	0.008724
1659	8.2900e-01	-13.6376	-23.063542	0.000105	1.050791	0.356018	0.008638
1660	8.2950e-01	-13.6023	-23.020351	0.000105	1.050791	0.356018	0.008638
1661	8.3000e-01	-13.5574	-22.978444	0.000102	1.019579	0.345443	0.008381
1662	8.3050e-01	-13.4964	-22.929695	0.000119	1.186041	0.401842	0.009750
1663	8.3100e-01	-13.4804	-22.882228	0.000115	1.154829	0.391267	0.009493
1664	8.3150e-01	-13.4034	-22.839466	0.000104	1.040387	0.352493	0.008553
1665	8.3200e-01	-13.3857	-22.804401	0.000085	0.853117	0.289044	0.007013
1666	8.3250e-01	-13.3344	-22.756934	0.000115	1.154829	0.391267	0.009493
1667	8.3300e-01	-13.3296	-22.705619	0.000125	1.248464	0.422991	0.010263
1668	8.3350e-01	-13.2943	-22.666278	0.000096	0.957156	0.324293	0.007868
1669	8.3400e-01	-13.2445	-22.622660	0.000106	1.061195	0.359542	0.008724
1670	8.3450e-01	-13.1996	-22.581180	0.000101	1.009175	0.341918	0.008296
1671	8.3500e-01	-13.1451	-22.537135	0.000107	1.071599	0.363067	0.008809
1672	8.3550e-01	-13.1050	-22.494372	0.000104	1.040387	0.352493	0.008553
1673	8.3600e-01	-13.0681	-22.452037	0.000103	1.029983	0.348968	0.008467
1674	8.3650e-01	-13.0328	-22.408420	0.000106	1.061195	0.359542	0.008724
1675	8.3700e-01	-12.9510	-22.365657	0.000104	1.040387	0.352493	0.008553
1676	8.3750e-01	-12.9462	-22.319474	0.000112	1.123618	0.380692	0.009237
1677	8.3800e-01	-12.9221	-22.274573	0.000109	1.092406	0.370117	0.008980
1678	8.3850e-01	-12.8451	-22.229672	0.000109	1.092406	0.370117	0.008980
1679	8.3900e-01	-12.8804	-22.184772	-0.000109	-1.092406	-0.370117	0.008980
1680	8.3950e-01	-12.7809	-22.141154	0.000106	1.061195	0.359542	0.008724
1681	8.4000e-01	-12.7537	-22.100529	0.000099	0.988368	0.334868	0.008125
1682	8.4050e-01	-12.7119	-22.053918	0.000113	1.134022	0.384217	0.009322
1683	8.4100e-01	-12.6783	-22.010301	0.000106	1.061195	0.359542	0.008724
1684	8.4150e-01	-12.6333	-21.965827	0.000108	1.082002	0.366592	0.008895
1685	8.4200e-01	-12.5740	-21.923920	0.000102	1.019579	0.345443	0.008381
1686	8.4250e-01	-12.5307	-21.878592	0.000110	1.102810	0.373642	0.009066
1687	8.4300e-01	-12.5258	-21.837112	0.000101	1.009175	0.341918	0.008296
1688	8.4350e-01	-12.4761	-21.789646	0.000115	1.154829	0.391267	0.009493
1689	8.4400e-01	-12.3991	-21.745173	0.000108	1.082002	0.366592	0.008895
1690	8.4450e-01	-12.3799	-21.701127	0.000107	1.071599	0.363067	0.008809
1691	8.4500e-01	-12.3462	-21.660931	0.000098	0.977964	0.331343	0.008039
1692	8.4550e-01	-12.3093	-21.615602	0.000110	1.102810	0.373642	0.009066
1693	8.4600e-01	-12.2740	-21.571129	0.000108	1.082002	0.366592	0.008895
1694	8.4650e-01	-12.2419	-21.526229	0.000109	1.092406	0.370117	0.008980
1695	8.4700e-01	-12.2307	-21.480045	0.000112	1.123618	0.380692	0.009237
1696	8.4750e-01	-12.1617	-21.433006	0.000114	1.144426	0.387742	0.009408
1697	8.4800e-01	-12.1120	-21.391099	0.000102	1.019579	0.345443	0.008381
1698	8.4850e-01	-12.0686	-21.349619	0.000101	1.009175	0.341918	0.008296
1699	8.4900e-01	-12.0558	-21.301725	0.000117	1.165233	0.394792	0.009579
1700	8.4950e-01	-11.9772	-21.250410	0.000125	1.248464	0.422991	0.010263
1701	8.5000e-01	-11.9387	-21.209786	0.000099	0.988368	0.334868	0.008125
1702	8.5050e-01	-11.8858	-21.184984	0.000060	0.603424	0.204446	0.004960
1703	8.5100e-01	-11.8777	-21.121695	0.000154	1.539773	0.521689	0.012658
1704	8.5150e-01	-11.8392	-21.073801	0.000117	1.165233	0.394792	0.009579
1705	8.5200e-01	-11.7927	-21.031039	0.000104	1.040387	0.352493	0.008553
1706	8.5250e-01	-11.7398	-20.987421	0.000106	1.061195	0.359542	0.008724
1707	8.5300e-01	-11.7221	-20.941237	0.000112	1.123618	0.380692	0.009237
1708	8.5350e-01	-11.6724	-20.892488	0.000119	1.186041	0.401842	0.009750
1709	8.5400e-01	-11.6499	-20.847160	0.000110	1.102810	0.373642	0.009066
1710	8.5450e-01	-11.5906	-20.806963	0.000098	0.977964	0.331343	0.008039
1711	8.5500e-01	-11.6002	-20.756076	-0.000124	-1.238060	-0.419466	0.010177
1712	8.5550e-01	-11.5280	-20.712885	0.000105	1.050791	0.356018	0.008638
1713	8.5600e-01	-11.4879	-20.664991	0.000117	1.165233	0.394792	0.009579
1714	8.5650e-01	-11.4622	-20.618380	0.000113	1.134022	0.384217	0.009322
1715	8.5700e-01	-11.3965	-20.568776	0.000121	1.206849	0.408891	0.009921
1716	8.5750e-01	-11.3403	-20.522592	0.000112	1.123618	0.380692	0.009237
1717	8.5800e-01	-11.3211	-20.481540	0.000100	0.998771	0.338393	0.008210
1718	8.5850e-01	-11.2697	-20.438350	0.000105	1.050791	0.356018	0.008638
1719	8.5900e-01	-11.2601	-20.388745	0.000121	1.206849	0.408891	0.009921
1720	8.5950e-01	-11.2056	-20.342990	0.000111	1.113214	0.377167	0.009151
1721	8.6000e-01	-11.1318	-20.294668	0.000118	1.175637	0.398317	0.009664
1722	8.6050e-01	-11.1286	-20.245063	0.000121	1.206849	0.408891	0.009921
1723	8.6100e-01	-11.0708	-20.204011	0.000100	0.998771	0.338393	0.008210
1724	8.6150e-01	-11.0371	-20.155262	0.000119	1.186041	0.401842	0.009750
1725	8.6200e-01	-10.9922	-20.112072	0.000105	1.050791	0.356018	0.008638
1726	8.6250e-01	-10.9553	-20.065888	0.000112	1.123618	0.380692	0.009237
1727	8.6300e-01	-10.8927	-20.017567	0.000118	1.175637	0.398317	0.009664
1728	8.6350e-01	-10.8831	-19.967962	0.000121	1.206849	0.408891	0.009921
1729	8.6400e-01	-10.8478	-19.927338	0.000099	0.988368	0.334868	0.008125
1730	8.6450e-01	-10.8045	-19.876878	0.000123	1.227657	0.415941	0.010092
1731	8.6500e-01	-10.7500	-19.832405	0.000108	1.082002	0.366592	0.008895
1732	8.6550e-01	-10.7083	-19.780662	0.000126	1.258868	0.426516	0.010349
1733	8.6600e-01	-10.6665	-19.733196	0.000115	1.154829	0.391267	0.009493
1734	8.6650e-01	-10.6553	-19.690006	0.000105	1.050791	0.356018	0.008638
1735	8.6700e-01	-10.5960	-19.638691	0.000125	1.248464	0.422991	0.010263
1736	8.6750e-01	-10.5109	-19.599349	0.000096	0.957156	0.324293	0.007868
1737	8.6800e-01	-10.5045	-19.543758	0.000135	1.352503	0.458240	0.011118
1738	8.6850e-01	-10.4949	-19.497574	0.000112	1.123618	0.380692	0.009237
1739	8.6900e-01	-10.4436	-19.452674	0.000109	1.092406	0.370117	0.008980
1740	8.6950e-01	-10.4018	-19.402642	0.000122	1.217253	0.412416	0.010006
1741	8.7000e-01	-10.3633	-19.359024	0.000106	1.061195	0.359542	0.008724
1742	8.7050e-01	-10.3168	-19.305998	0.000129	1.290080	0.437091	0.010605
1743	8.7100e-01	-10.2863	-19.257677	0.000118	1.175637	0.398317	0.009664
1744	8.7150e-01	-10.2559	-19.211921	0.000111	1.113214	0.377167	0.009151
1745	8.7200e-01	-10.2029	-19.161461	0.000123	1.227657	0.415941	0.010092
1746	8.7250e-01	-10.1339	-19.114422	0.000114	1.144426	0.387742	0.009408
1747	8.7300e-01	-10.1002	-19.067811	0.000113	1.134022	0.384217	0.009322
1748	8.7350e-01	-10.0682	-19.019062	0.000119	1.186041	0.401842	0.009750
1749	8.7400e-01	-10.0232	-18.972878	0.000112	1.123618	0.380692	0.009237
1750	8.7450e-01	-9.9992	-18.916432	0.000137	1.373311	0.465290	0.011289
1751	8.7500e-01	-9.9366	-18.871959	0.000108	1.082002	0.366592	0.008895
1752	8.7550e-01	-9.9318	-18.826630	0.000110	1.102810	0.373642	0.009066
1753	8.7600e-01	-9.8500	-18.770611	0.000136	1.362907	0.461765	0.011204
1754	8.7650e-01	-9.8243	-18.724856	0.000111	1.113214	0.377167	0.009151
1755	8.7700e-01	-9.7906	-18.678244	0.000113	1.134022	0.384217	0.009322
1756	8.7750e-01	-9.7425	-18.629067	0.000120	1.196445	0.405367	0.009835
1757	8.7800e-01	-9.7104	-18.579035	0.000122	1.217253	0.412416	0.010006
1758	8.7850e-01	-9.6751	-18.530714	0.000118	1.175637	0.398317	0.009664
1759	8.7900e-01	-9.6334	-18.486241	0.000108	1.082002	0.366592	0.008895
1760	8.7950e-01	-9.5901	-18.431505	0.000133	1.331695	0.451191	0.010947
1761	8.8000e-01	-9.5612	-18.381472	0.000122	1.217253	0.412416	0.010006
1762	8.8050e-01	-9.5115	-18.337855	0.000106	1.061195	0.359542	0.008724
1763	8.8100e-01	-9.4858	-18.286540	0.000125	1.248464	0.422991	0.010263
1764	8.8150e-01	-9.4249	-18.238646	0.000117	1.165233	0.394792	0.009579
1765	8.8200e-01	-9.3703	-18.191607	0.000114	1.144426	0.387742	0.009408
1766	8.8250e-01	-9.3511	-18.144140	0.000115	1.154829	0.391267	0.009493
1767	8.8300e-01	-9.3110	-18.089404	0.000133	1.331695	0.451191	0.010947
1768	8.8350e-01	-9.2757	-18.043221	0.000112	1.123618	0.380692	0.009237
1769	8.8400e-01	-9.1955	-17.999175	0.000107	1.071599	0.363067	0.008809
1770	8.8450e-01	-9.1778	-17.947005	0.000127	1.269272	0.430041	0.010434
1771	8.8500e-01	-9.1650	-17.894407	0.000128	1.279676	0.433566	0.010520
1772	8.8550e-01	-9.1169	-17.848651	0.000111	1.113214	0.377167	0.009151
1773	8.8600e-01	-9.0671	-17.796481	0.000127	1.269272	0.430041	0.010434
1774	8.8650e-01	-9.0366	-17.750298	0.000112	1.123618	0.380692	0.009237
1775	8.8700e-01	-8.9901	-17.697272	0.000129	1.290080	0.437091	0.010605
1776	8.8750e-01	-8.9628	-17.650661	0.000113	1.134022	0.384217	0.009322
1777	8.8800e-01	-8.8891	-17.599346	0.000125	1.248464	0.422991	0.010263
1778	8.8850e-01	-8.8794	-17.546320	0.000129	1.290080	0.437091	0.010605
1779	8.8900e-01	-8.8313	-17.504841	0.000101	1.009175	0.341918	0.008296
1780	8.8950e-01	-8.8008	-17.445828	0.000144	1.435734	0.486440	0.011802
1781	8.9000e-01	-8.7928	-17.395369	0.000123	1.227657	0.415941	0.010092
1782	8.9050e-01	-8.7190	-17.350040	0.000110	1.102810	0.373642	0.009066
1783	8.9100e-01	-8.6532	-17.300436	0.000121	1.206849	0.408891	0.009921
1784	8.9150e-01	-8.6564	-17.244417	-0.000136	-1.362907	-0.461765	0.011204
1785	8.9200e-01	-8.5730	-17.200371	0.000107	1.071599	0.363067	0.008809
1786	8.9250e-01	-8.5361	-17.146918	0.000130	1.300484	0.440616	0.010691
1787	8.9300e-01	-8.4720	-17.101590	0.000110	1.102810	0.373642	0.009066
1788	8.9350e-01	-8.4848	-17.047709	-0.000131	-1.310888	-0.444141	0.010776
1789	8.9400e-01	-8.4431	-16.994684	0.000129	1.290080	0.437091	0.010605
1790	8.9450e-01	-8.3677	-16.953204	0.000101	1.009175	0.341918	0.008296
1791	8.9500e-01	-8.3420	-16.882646	0.000172	1.716638	0.581613	0.014112
1792	8.9550e-01	-8.2891	-16.843732	0.000095	0.946752	0.320768	0.007783
1793	8.9600e-01	-8.2794	-16.791134	0.000128	1.279676	0.433566	0.010520
1794	8.9650e-01	-8.2201	-16.748372	0.000104	1.040387	0.352493	0.008553
1795	8.9700e-01	-8.1896	-16.697056	0.000125	1.248464	0.422991	0.010263
1796	8.9750e-01	-8.1527	-16.640610	0.000137	1.373311	0.465290	0.011289
1797	8.9800e-01	-8.0885	-16.588440	0.000127	1.269272	0.430041	0.010434
1798	8.9850e-01	-8.0661	-16.542256	0.000112	1.123618	0.380692	0.009237
1799	8.9900e-01	-8.0356	-16.486665	0.000135	1.352503	0.458240	0.011118
1800	8.9950e-01	-7.9971	-16.435350	0.000125	1.248464	0.422991	0.010263
1801	9.0000e-01	-7.9377	-16.384462	0.000124	1.238060	0.419466	0.010177
1802	9.0050e-01	-7.9041	-16.332720	0.000126	1.258868	0.426516	0.010349
1803	9.0100e-01	-7.8896	-16.277128	0.000135	1.352503	0.458240	0.011118
1804	9.0150e-01	-7.8158	-16.224958	0.000127	1.269272	0.430041	0.010434
1805	9.0200e-01	-7.7918	-16.178347	0.000113	1.134022	0.384217	0.009322
1806	9.0250e-01	-7.7629	-16.126177	0.000127	1.269272	0.430041	0.010434
1807	9.0300e-01	-7.7019	-16.077855	0.000118	1.175637	0.398317	0.009664
1808	9.0350e-01	-7.6650	-16.021836	0.000136	1.362907	0.461765	0.011204
1809	9.0400e-01	-7.6378	-15.965390	0.000137	1.373311	0.465290	0.011289
1810	9.0450e-01	-7.5832	-15.913219	0.000127	1.269272	0.430041	0.010434
1811	9.0500e-01	-7.5511	-15.861904	0.000125	1.248464	0.422991	0.010263
1812	9.0550e-01	-7.5046	-15.816576	0.000110	1.102810	0.373642	0.009066
1813	9.0600e-01	-7.4452	-15.759274	0.000139	1.394118	0.472340	0.011460
1814	9.0650e-01	-7.4452	-15.708814	-0.000123	-1.227657	-0.415941	0.010092
1815	9.0700e-01	-7.4019	-15.651513	0.000139	1.394118	0.472340	0.011460
1816	9.0750e-01	-7.3602	-15.602336	0.000120	1.196445	0.405367	0.009835
1817	9.0800e-01	-7.3169	-15.555297	0.000114	1.144426	0.387742	0.009408
1818	9.0850e-01	-7.2511	-15.495429	0.000146	1.456542	0.493490	0.011974
1819	9.0900e-01	-7.2624	-15.444114	-0.000125	-1.248464	-0.422991	0.010263
1820	9.0950e-01	-7.1838	-15.388951	0.000134	1.342099	0.454715	0.011033
1821	9.1000e-01	-7.1212	-15.334642	0.000132	1.321291	0.447666	0.010862
1822	9.1050e-01	-7.1276	-15.283755	-0.000124	-1.238060	-0.419466	0.010177
1823	9.1100e-01	-7.0554	-15.234578	0.000120	1.196445	0.405367	0.009835
1824	9.1150e-01	-7.0137	-15.177276	0.000139	1.394118	0.472340	0.011460
1825	9.1200e-01	-7.0089	-15.123395	0.000131	1.310888	0.444141	0.010776
1826	9.1250e-01	-6.9415	-15.069515	0.000131	1.310888	0.444141	0.010776
1827	9.1300e-01	-6.9191	-15.016917	0.000128	1.279676	0.433566	0.010520
1828	9.1350e-01	-6.8725	-14.963036	0.000131	1.310888	0.444141	0.010776
1829	9.1400e-01	-6.8260	-14.910866	0.000127	1.269272	0.430041	0.010434
1830	9.1450e-01	-6.7827	-14.853992	0.000138	1.383715	0.468815	0.011375
1831	9.1500e-01	-6.7859	-14.803959	-0.000122	-1.217253	-0.412416	0.010006
1832	9.1550e-01	-6.7458	-14.749223	0.000133	1.331695	0.451191	0.010947
1833	9.1600e-01	-6.6720	-14.691066	0.000141	1.414926	0.479390	0.011631
1834	9.1650e-01	-6.6463	-14.638041	0.000129	1.290080	0.437091	0.010605
1835	9.1700e-01	-6.5854	-14.582449	0.000135	1.352503	0.458240	0.011118
1836	9.1750e-01	-6.5469	-14.530707	0.000126	1.258868	0.426516	0.010349
1837	9.1800e-01	-6.5084	-14.474260	0.000137	1.373311	0.465290	0.011289
1838	9.1850e-01	-6.4699	-14.423373	0.000124	1.238060	0.419466	0.010177
1839	9.1900e-01	-6.4089	-14.364361	0.000144	1.435734	0.486440	0.011802
1840	9.1950e-01	-6.4378	-14.299789	-0.000157	-1.570984	-0.532264	0.012914
1841	9.2000e-01	-6.3640	-14.253178	0.000113	1.134022	0.384217	0.009322
1842	9.2050e-01	-6.3078	-14.195021	0.000141	1.414926	0.479390	0.011631
1843	9.2100e-01	-6.2469	-14.140285	0.000133	1.331695	0.451191	0.010947
1844	9.2150e-01	-6.2324	-14.082983	0.000139	1.394118	0.472340	0.011460
1845	9.2200e-01	-6.2004	-14.032096	0.000124	1.238060	0.419466	0.010177
1846	9.2250e-01	-6.1538	-13.978215	0.000131	1.310888	0.444141	0.010776
1847	9.2300e-01	-6.1282	-13.923479	0.000133	1.331695	0.451191	0.010947
1848	9.2350e-01	-6.0816	-13.867888	0.000135	1.352503	0.458240	0.011118
1849	9.2400e-01	-6.0480	-13.814434	0.000130	1.300484	0.440616	0.010691
1850	9.2450e-01	-6.0014	-13.755850	0.000143	1.425330	0.482915	0.011717
1851	9.2500e-01	-5.9501	-13.698548	0.000139	1.394118	0.472340	0.011460
1852	9.2550e-01	-5.9116	-13.646805	0.000126	1.258868	0.426516	0.010349
1853	9.2600e-01	-5.8988	-13.594207	0.000128	1.279676	0.433566	0.010520
1854	9.2650e-01	-5.8137	-13.534768	0.000145	1.446138	0.489965	0.011888
1855	9.2700e-01	-5.7977	-13.480459	0.000132	1.321291	0.447666	0.010862
1856	9.2750e-01	-5.7672	-13.421447	0.000144	1.435734	0.486440	0.011802
1857	9.2800e-01	-5.7207	-13.364573	0.000138	1.383715	0.468815	0.011375
1858	9.2850e-01	-5.6902	-13.313685	0.000124	1.238060	0.419466	0.010177
1859	9.2900e-01	-5.6276	-13.256384	0.000139	1.394118	0.472340	0.011460
1860	9.2950e-01	-5.5908	-13.199509	0.000138	1.383715	0.468815	0.011375
1861	9.3000e-01	-5.5635	-13.145629	0.000131	1.310888	0.444141	0.010776
1862	9.3050e-01	-5.5105	-13.087899	0.000140	1.404522	0.475865	0.011546
1863	9.3100e-01	-5.4769	-13.027176	0.000148	1.477349	0.500540	0.012145
1864	9.3150e-01	-5.4207	-12.972868	0.000132	1.321291	0.447666	0.010862
1865	9.3200e-01	-5.4047	-12.917277	0.000135	1.352503	0.458240	0.011118
1866	9.3250e-01	-5.3437	-12.859120	0.000141	1.414926	0.479390	0.011631
1867	9.3300e-01	-5.3004	-12.799680	0.000145	1.446138	0.489965	0.011888
1868	9.3350e-01	-5.2876	-12.740667	0.000144	1.435734	0.486440	0.011802
1869	9.3400e-01	-5.2555	-12.684221	0.000137	1.373311	0.465290	0.011289
1870	9.3450e-01	-5.1865	-12.626491	0.000140	1.404522	0.475865	0.011546
1871	9.3500e-01	-5.1544	-12.570045	0.000137	1.373311	0.465290	0.011289
1872	9.3550e-01	-5.1239	-12.512316	0.000140	1.404522	0.475865	0.011546
1873	9.3600e-01	-5.0630	-12.450737	0.000150	1.498157	0.507589	0.012316
1874	9.3650e-01	-5.0389	-12.399422	0.000125	1.248464	0.422991	0.010263
1875	9.3700e-01	-4.9924	-12.337417	0.000151	1.508561	0.511114	0.012401
1876	9.3750e-01	-4.9523	-12.276694	0.000148	1.477349	0.500540	0.012145
1877	9.3800e-01	-4.9491	-12.221103	0.000135	1.352503	0.458240	0.011118
1878	9.3850e-01	-4.8705	-12.142420	0.000191	1.914312	0.648586	0.015737
1879	9.3900e-01	-4.8608	-12.100940	0.000101	1.009175	0.341918	0.008296
1880	9.3950e-01	-4.7822	-12.041928	0.000144	1.435734	0.486440	0.011802
1881	9.4000e-01	-4.7549	-11.979494	0.000152	1.518965	0.514639	0.012487
1882	9.4050e-01	-4.6940	-11.927324	0.000127	1.269272	0.430041	0.010434
1883	9.4100e-01	-4.6763	-11.865746	0.000150	1.498157	0.507589	0.012316
1884	9.4150e-01	-4.6314	-11.805451	0.000147	1.466946	0.497015	0.012059
1885	9.4200e-01	-4.6074	-11.750715	0.000133	1.331695	0.451191	0.010947
1886	9.4250e-01	-4.5624	-11.687854	0.000153	1.529369	0.518164	0.012572
1887	9.4300e-01	-4.5352	-11.629269	0.000143	1.425330	0.482915	0.011717
1888	9.4350e-01	-4.4886	-11.568119	0.000149	1.487753	0.504064	0.012230
1889	9.4400e-01	-4.4421	-11.509534	0.000143	1.425330	0.482915	0.011717
1890	9.4450e-01	-4.3763	-11.445390	0.000156	1.560580	0.528739	0.012829
1891	9.4500e-01	-4.3475	-11.384668	0.000148	1.477349	0.500540	0.012145
1892	9.4550e-01	-4.3218	-11.321379	0.000154	1.539773	0.521689	0.012658
1893	9.4600e-01	-4.2817	-11.267926	0.000130	1.300484	0.440616	0.010691
1894	9.4650e-01	-4.2047	-11.204210	0.000155	1.550177	0.525214	0.012743
1895	9.4700e-01	-4.1919	-11.144770	0.000145	1.446138	0.489965	0.011888
1896	9.4750e-01	-4.1838	-11.087468	0.000139	1.394118	0.472340	0.011460
1897	9.4800e-01	-4.1245	-11.019476	0.000165	1.654215	0.560463	0.013598
1898	9.4850e-01	-4.0764	-10.960463	0.000144	1.435734	0.486440	0.011802
1899	9.4900e-01	-4.0298	-10.899741	0.000148	1.477349	0.500540	0.012145
1900	9.4950e-01	-3.9929	-10.840728	0.000144	1.435734	0.486440	0.011802
1901	9.5000e-01	-3.9496	-10.777440	0.000154	1.539773	0.521689	0.012658
1902	9.5050e-01	-3.9095	-10.715862	0.000150	1.498157	0.507589	0.012316
1903	9.5100e-01	-3.8630	-10.651290	0.000157	1.570984	0.532264	0.012914
1904	9.5150e-01	-3.8614	-10.586291	0.000158	1.581388	0.535789	0.013000
1905	9.5200e-01	-3.7876	-10.530272	0.000136	1.362907	0.461765	0.011204
1906	9.5250e-01	-3.7411	-10.469977	0.000147	1.466946	0.497015	0.012059
1907	9.5300e-01	-3.7379	-10.402412	0.000164	1.643811	0.556938	0.013513
1908	9.5350e-01	-3.6769	-10.340407	0.000151	1.508561	0.511114	0.012401
1909	9.5400e-01	-3.6079	-10.275408	0.000158	1.581388	0.535789	0.013000
1910	9.5450e-01	-3.6191	-10.214685	-0.000148	-1.477349	-0.500540	0.012145
1911	9.5500e-01	-3.5630	-10.147548	0.000163	1.633407	0.553413	0.013427
1912	9.5550e-01	-3.5245	-10.083832	0.000155	1.550177	0.525214	0.012743
1913	9.5600e-01	-3.4571	-10.021826	0.000151	1.508561	0.511114	0.012401
1914	9.5650e-01	-3.4282	-9.955544	0.000161	1.612600	0.546364	0.013256
1915	9.5700e-01	-3.4122	-9.896104	0.000145	1.446138	0.489965	0.011888
1916	9.5750e-01	-3.3785	-9.834954	0.000149	1.487753	0.504064	0.012230
1917	9.5800e-01	-3.2887	-9.766106	0.000168	1.675023	0.567513	0.013770
1918	9.5850e-01	-3.2694	-9.704100	0.000151	1.508561	0.511114	0.012401
1919	9.5900e-01	-3.2325	-9.636108	0.000165	1.654215	0.560463	0.013598
1920	9.5950e-01	-3.1668	-9.577096	0.000144	1.435734	0.486440	0.011802
1921	9.6000e-01	-3.1780	-9.508676	-0.000166	-1.664619	-0.563988	0.013684
1922	9.6050e-01	-3.1266	-9.450946	0.000140	1.404522	0.475865	0.011546
1923	9.6100e-01	-3.0753	-9.381243	0.000170	1.695831	0.574563	0.013941
1924	9.6150e-01	-3.0416	-9.319238	0.000151	1.508561	0.511114	0.012401
1925	9.6200e-01	-2.9887	-9.252956	0.000161	1.612600	0.546364	0.013256
1926	9.6250e-01	-2.9662	-9.185819	0.000163	1.633407	0.553413	0.013427
1927	9.6300e-01	-2.8940	-9.115260	0.000172	1.716638	0.581613	0.014112
1928	9.6350e-01	-2.8716	-9.054110	0.000149	1.487753	0.504064	0.012230
1929	9.6400e-01	-2.8363	-8.982697	0.000174	1.737446	0.588663	0.014283
1930	9.6450e-01	-2.7930	-8.910428	0.000176	1.758254	0.595713	0.014454
1931	9.6500e-01	-2.7448	-8.845856	0.000157	1.570984	0.532264	0.012914
1932	9.6550e-01	-2.7112	-8.782996	0.000153	1.529369	0.518164	0.012572
1933	9.6600e-01	-2.6775	-8.714148	0.000168	1.675023	0.567513	0.013770
1934	9.6650e-01	-2.6438	-8.644873	0.000169	1.685427	0.571038	0.013855
1935	9.6700e-01	-2.5876	-8.577735	0.000163	1.633407	0.553413	0.013427
1936	9.6750e-01	-2.5571	-8.516157	0.000150	1.498157	0.507589	0.012316
1937	9.6800e-01	-2.5186	-8.447737	0.000166	1.664619	0.563988	0.013684
1938	9.6850e-01	-2.5090	-8.380600	0.000163	1.633407	0.553413	0.013427
1939	9.6900e-01	-2.4384	-8.310897	0.000170	1.695831	0.574563	0.013941
1940	9.6950e-01	-2.4047	-8.245043	0.000160	1.602196	0.542839	0.013171
1941	9.7000e-01	-2.3213	-8.173629	0.000174	1.737446	0.588663	0.014283
1942	9.7050e-01	-2.2860	-8.101361	0.000176	1.758254	0.595713	0.014454
1943	9.7100e-01	-2.2860	-8.039355	-0.000151	-1.508561	-0.511114	0.012401
1944	9.7150e-01	-2.2074	-7.969652	0.000170	1.695831	0.574563	0.013941
1945	9.7200e-01	-2.1914	-7.901232	0.000166	1.664619	0.563988	0.013684
1946	9.7250e-01	-2.1433	-7.830246	0.000173	1.727042	0.585138	0.014197
1947	9.7300e-01	-2.1128	-7.758833	0.000174	1.737446	0.588663	0.014283
1948	9.7350e-01	-2.0630	-7.685709	0.000178	1.779062	0.602762	0.014625
1949	9.7400e-01	-2.0245	-7.621993	0.000155	1.550177	0.525214	0.012743
1950	9.7450e-01	-2.0229	-7.548014	0.000180	1.799869	0.609812	0.014796
1951	9.7500e-01	-1.9459	-7.474890	0.000178	1.779062	0.602762	0.014625
1952	9.7550e-01	-1.9010	-7.406897	0.000165	1.654215	0.560463	0.013598
1953	9.7600e-01	-1.8914	-7.329497	0.000188	1.883100	0.638012	0.015480
1954	9.7650e-01	-1.8288	-7.263643	0.000160	1.602196	0.542839	0.013171
1955	9.7700e-01	-1.7679	-7.190947	0.000177	1.768658	0.599237	0.014539
1956	9.7750e-01	-1.7454	-7.118678	0.000176	1.758254	0.595713	0.014454
1957	9.7800e-01	-1.6941	-7.048120	0.000172	1.716638	0.581613	0.014112
1958	9.7850e-01	-1.6684	-6.973285	0.000182	1.820677	0.616862	0.014967
1959	9.7900e-01	-1.6106	-6.901872	0.000174	1.737446	0.588663	0.014283
1960	9.7950e-01	-1.6026	-6.828748	0.000178	1.779062	0.602762	0.014625
1961	9.8000e-01	-1.5465	-6.756479	0.000176	1.758254	0.595713	0.014454
1962	9.8050e-01	-1.5064	-6.681217	0.000183	1.831081	0.620387	0.015052
1963	9.8100e-01	-1.4615	-6.608521	0.000177	1.768658	0.599237	0.014539
1964	9.8150e-01	-1.4005	-6.533687	0.000182	1.820677	0.616862	0.014967
1965	9.8200e-01	-1.4069	-6.461418	-0.000176	-1.758254	-0.595713	0.014454
1966	9.8250e-01	-1.3700	-6.380169	0.000198	1.976735	0.669736	0.016250
1967	9.8300e-01	-1.3010	-6.307045	0.000178	1.779062	0.602762	0.014625
1968	9.8350e-01	-1.2834	-6.240763	0.000161	1.612600	0.546364	0.013256
1969	9.8400e-01	-1.1952	-6.162080	0.000191	1.914312	0.648586	0.015737
1970	9.8450e-01	-1.1935	-6.091950	0.000171	1.706235	0.578088	0.014026
1971	9.8500e-01	-1.1470	-6.016688	0.000183	1.831081	0.620387	0.015052
1972	9.8550e-01	-1.1246	-5.933301	0.000203	2.028755	0.687361	0.016677
1973	9.8600e-01	-1.0668	-5.859322	0.000180	1.799869	0.609812	0.014796
1974	9.8650e-01	-1.0283	-5.782349	0.000187	1.872696	0.634487	0.015395
1975	9.8700e-01	-1.0010	-5.702383	0.000195	1.945524	0.659161	0.015993
1976	9.8750e-01	-0.9609	-5.625838	0.000186	1.862293	0.630962	0.015309
1977	9.8800e-01	-0.8855	-5.551004	0.000182	1.820677	0.616862	0.014967
1978	9.8850e-01	-0.8583	-5.468472	0.000201	2.007947	0.680311	0.016506
1979	9.8900e-01	-0.8759	-5.391072	-0.000188	-1.883100	-0.638012	0.015480
1980	9.8950e-01	-0.7925	-5.313672	0.000188	1.883100	0.638012	0.015480
1981	9.9000e-01	-0.7861	-5.236271	0.000188	1.883100	0.638012	0.015480
1982	9.9050e-01	-0.7347	-5.154595	0.000199	1.987139	0.673261	0.016335
1983	9.9100e-01	-0.6978	-5.078050	0.000186	1.862293	0.630962	0.015309
1984	9.9150e-01	-0.6385	-4.994236	0.000204	2.039158	0.690886	0.016763
1985	9.9200e-01	-0.5904	-4.916408	0.000189	1.893504	0.641537	0.015566
1986	9.9250e-01	-0.5438	-4.835159	0.000198	1.976735	0.669736	0.016250
1987	9.9300e-01	-0.5134	-4.756904	0.000190	1.903908	0.645062	0.015651
1988	9.9350e-01	-0.4829	-4.673944	0.000202	2.018351	0.683836	0.016592
1989	9.9400e-01	-0.4556	-4.586709	0.000212	2.122389	0.719085	0.017447
1990	9.9450e-01	-0.3930	-4.508026	0.000191	1.914312	0.648586	0.015737
1991	9.9500e-01	-0.3593	-4.421218	0.000211	2.111985	0.715560	0.017362
1992	9.9550e-01	-0.3192	-4.336976	0.000205	2.049562	0.694410	0.016848
1993	9.9600e-01	-0.2583	-4.259148	0.000189	1.893504	0.641537	0.015566
1994	9.9650e-01	-0.2679	-4.170629	-0.000215	-2.153601	-0.729660	0.017704
1995	9.9700e-01	-0.2053	-4.091946	0.000191	1.914312	0.648586	0.015737
1996	9.9750e-01	-0.1540	-4.004283	0.000213	2.132793	0.722610	0.017533
1997	9.9800e-01	-0.1283	-3.924317	0.000195	1.945524	0.659161	0.015993
1998	9.9850e-01	-0.0738	-3.840930	0.000203	2.028755	0.687361	0.016677
1999	9.9900e-01	-0.0241	-3.759681	0.000198	1.976735	0.669736	0.016250
2000	9.9950e-01	-0.0032	-3.668597	0.000222	2.216024	0.750809	0.018217
2001	1.0000e+00	0.0481	-3.584355	0.000222	2.216024	0.750809	0.016848

Center data before PMax,+/-Pr and +/-Vc Calc.

PMax (uC/cm2):	2.83e+01
Pr (uC/cm2):	1.94e+00
-Pr (uC/cm2):	-3.58e+00
PLoss (uC/cm2):	-2.58e+00
Vc:	1.13e+00
-Vc:	-9.07e-01
C (Max-Eff) (nF):	1.41e-01
K (Eff):	4.78e+02
Vert. (+/-Pr) Shift (uC/cm2):	-8.25e-01
Horiz. Shift (+/-Vc):	1.10e-01
Offset (uC/cm2):	1.01e+00

A (Loop Area - uC/cm2·Volts):	5.02e-02



Hysteresis Version: 5.48.1 - Radiant Technologies, Inc., 1999 - 9/12/24

