»»»»»»»»»»»»»»»»»»»»»»»»»»»»»»»»»»»» Hysteresis ««««««««««««««««««««««««««««««««««««
»»»  Executed Version:	5.48.1
»»»  Vision Version:	5.48.4 (R)
»»»  Vision Compiled:	9/18/24
»»»  Driver Version:	5.47.0
»»»  Windows Version:	Windows 8 or 8.1
»»»  Processor Information:	x86 (AMD or Intel) - 32 Processors
»»»  Tester Name:	PMF21124-494 (100V)
»»»  Tester S/N:	PMF21124-494
»»»  Internal Amp Type:	100V RevK 270k
»»»  Internal Amp S/N:	iAB2-596/K     
»»»  Execution Count:	1
»»»»»»»»»»»»»»»»»»»»»»»»»»»»»»»»»»»»»»»»»»««««««««««««««««««««««««««««««««««««««««««

Stored:	6/11/2025 - 17:35:44
Configured:	06/11/25 01:55:56 PM
Executed:	06/11/25 05:35:13 PM

»»»»»»»»»»»»»»»»»»»»»»»»»»»»»»»»»»» Sample Info ««««««««««««««««««««««««««««««««««««
Sample Name:	
Lot Name:	
Wafer Name:	
Die Row/Column:	0/0
Capacitor Number:	0
Sample Area (cm2):	1.00e-04
Sample Thickness (microns):	3.00e-01

Amplifier:	Internal

»»»»»»»»»»»»»»»»»»»»»»»»»»»»»»»»»»» Tester Info «««««««««««««««««««««««««««««««««««
Tester Name:	PMF21124-494 (100V)
Tester Serial Number:	PMF21124-494
Return Signal Amp. Level:	1.9 [Index: 2]

»»»»»»»»»»»»»»»»»»»»»»»»»»»»»»»» Hysteresis Info ««««««««««««««««««««««««««««««««««
Task Name:	Hyst-1287
Volts:	20.00
Field:	666.67 (kV/cm)
DCBias:	0.00
DCField:	0.00 (kV/cm)
Hysteresis Period (ms):	2.00e+02
Preset:	Enabled
Preset Delay (ms):	1.00e+03
Profile:	Standard Bipolar

»»»»»»»»»»»»»»»»»»»»»»»»»»»»»»»»»»»»»» Data «««««««««««««««««««««««««««««««««««««««
Points:	2009

Valid Data

Point	Time (ms)	Drive Voltage	Measured Polarization (uC/cm2)	Capacitance (uF)	Normalized Capacitance (uF/cm2)	Dielectric Constant	Instantaneous Current (mA)
   1	0.0000e+00	0.0321	-1.930600	0.000138	1.379785	0.467484	0.000056
   2	9.9500e-02	0.0497	-1.874387	0.000138	1.379785	0.467484	0.000056
   3	1.9900e-01	0.1059	-1.786808	0.000215	2.149665	0.728326	0.000088
   4	2.9850e-01	0.1444	-1.710228	0.000188	1.879707	0.636862	0.000077
   5	3.9800e-01	0.1845	-1.625093	0.000209	2.089674	0.708001	0.000086
   6	4.9750e-01	0.2262	-1.539144	0.000211	2.109671	0.714776	0.000086
   7	5.9700e-01	0.2519	-1.460934	0.000192	1.919700	0.650412	0.000079
   8	6.9650e-01	0.2872	-1.372133	0.000218	2.179660	0.738489	0.000089
   9	7.9600e-01	0.3401	-1.282111	0.000221	2.209655	0.748651	0.000090
  10	8.9550e-01	0.3626	-1.205938	0.000187	1.869708	0.633474	0.000077
  11	9.9500e-01	0.4235	-1.120396	0.000210	2.099672	0.711388	0.000086
  12	1.0945e+00	0.4428	-1.032410	0.000216	2.159663	0.731714	0.000088
  13	1.1940e+00	0.4572	-0.948497	0.000206	2.059679	0.697838	0.000084
  14	1.2935e+00	0.5438	-0.862548	0.000211	2.109671	0.714776	0.000086
  15	1.3930e+00	0.5888	-0.781487	0.000199	1.989690	0.674125	0.000081
  16	1.4925e+00	0.6160	-0.696759	0.000208	2.079675	0.704613	0.000085
  17	1.5920e+00	0.6481	-0.610403	0.000212	2.119669	0.718163	0.000087
  18	1.6915e+00	0.6850	-0.522417	0.000216	2.159663	0.731714	0.000088
  19	1.7910e+00	0.7251	-0.439726	0.000203	2.029683	0.687675	0.000083
  20	1.8905e+00	0.7716	-0.356221	0.000205	2.049680	0.694450	0.000084
  21	1.9900e+00	0.8326	-0.277197	0.000194	1.939697	0.657187	0.000079
  22	2.0895e+00	0.8743	-0.184730	0.000227	2.269646	0.768977	0.000093
  23	2.1890e+00	0.9160	-0.103669	0.000199	1.989690	0.674125	0.000081
  24	2.2885e+00	0.9561	-0.019756	0.000206	2.059679	0.697838	0.000084
  25	2.3880e+00	0.9497	0.067415	-0.000214	-2.139666	-0.724939	0.000088
  26	2.4875e+00	1.0139	0.150513	0.000204	2.039682	0.691063	0.000084
  27	2.5870e+00	1.0315	0.231982	0.000200	1.999688	0.677513	0.000082
  28	2.6865e+00	1.0957	0.313857	0.000201	2.009686	0.680900	0.000082
  29	2.7860e+00	1.1438	0.399807	0.000211	2.109671	0.714776	0.000086
  30	2.8855e+00	1.1631	0.487385	0.000215	2.149665	0.728326	0.000088
  31	2.9850e+00	1.2080	0.570483	0.000204	2.039682	0.691063	0.000084
  32	3.0845e+00	1.2465	0.653174	0.000203	2.029683	0.687675	0.000083
  33	3.1840e+00	1.2641	0.738716	0.000210	2.099672	0.711388	0.000086
  34	3.2835e+00	1.2882	0.823036	0.000207	2.069677	0.701226	0.000085
  35	3.3830e+00	1.3460	0.907356	0.000207	2.069677	0.701226	0.000085
  36	3.4825e+00	1.4101	0.991268	0.000206	2.059679	0.697838	0.000084
  37	3.5820e+00	1.4711	1.071107	0.000196	1.959694	0.663962	0.000080
  38	3.6815e+00	1.4951	1.153390	0.000202	2.019685	0.684288	0.000083
  39	3.7810e+00	1.5497	1.234044	0.000198	1.979691	0.670738	0.000081
  40	3.8805e+00	1.5481	1.317142	-0.000204	-2.039682	-0.691063	0.000084
  41	3.9800e+00	1.6203	1.401055	0.000206	2.059679	0.697838	0.000084
  42	4.0795e+00	1.6620	1.477228	0.000187	1.869708	0.633474	0.000077
  43	4.1790e+00	1.6812	1.565214	0.000216	2.159663	0.731714	0.000088
  44	4.2785e+00	1.7117	1.649941	0.000208	2.079675	0.704613	0.000085
  45	4.3780e+00	1.7823	1.730187	0.000197	1.969693	0.667350	0.000081
  46	4.4775e+00	1.8224	1.804731	0.000183	1.829714	0.619924	0.000075
  47	4.5770e+00	1.8417	1.891088	0.000212	2.119669	0.718163	0.000087
  48	4.6765e+00	1.8930	1.969298	0.000192	1.919700	0.650412	0.000079
  49	4.7760e+00	1.9106	2.053210	0.000206	2.059679	0.697838	0.000084
  50	4.8755e+00	1.9588	2.128161	0.000184	1.839713	0.623312	0.000075
  51	4.9750e+00	2.0117	2.211259	0.000204	2.039682	0.691063	0.000084
  52	5.0745e+00	2.0534	2.291506	0.000197	1.969693	0.667350	0.000081
  53	5.1740e+00	2.0887	2.368901	0.000190	1.899704	0.643637	0.000078
  54	5.2735e+00	2.1336	2.450369	0.000200	1.999688	0.677513	0.000082
  55	5.3730e+00	2.1785	2.533060	0.000203	2.029683	0.687675	0.000083
  56	5.4725e+00	2.2026	2.611677	0.000193	1.929699	0.653800	0.000079
  57	5.5720e+00	2.2395	2.693553	0.000201	2.009686	0.680900	0.000082
  58	5.6715e+00	2.2828	2.776651	0.000204	2.039682	0.691063	0.000084
  59	5.7710e+00	2.3518	2.852824	0.000187	1.869708	0.633474	0.000077
  60	5.8705e+00	2.3743	2.937143	0.000207	2.069677	0.701226	0.000085
  61	5.9700e+00	2.3919	3.018205	0.000199	1.989690	0.674125	0.000081
  62	6.0695e+00	2.4416	3.107413	0.000219	2.189658	0.741876	0.000090
  63	6.1690e+00	2.4769	3.183178	0.000186	1.859710	0.630087	0.000076
  64	6.2685e+00	2.5347	3.264240	0.000199	1.989690	0.674125	0.000081
  65	6.3680e+00	2.5539	3.342857	0.000193	1.929699	0.653800	0.000079
  66	6.4675e+00	2.6277	3.426769	0.000206	2.059679	0.697838	0.000084
  67	6.5670e+00	2.6727	3.506201	0.000195	1.949696	0.660575	0.000080
  68	6.6665e+00	2.7031	3.585225	0.000194	1.939697	0.657187	0.000079
  69	6.7660e+00	2.7272	3.665879	0.000198	1.979691	0.670738	0.000081
  70	6.8655e+00	2.7673	3.745718	0.000196	1.959694	0.663962	0.000080
  71	6.9650e+00	2.8202	3.826780	0.000199	1.989690	0.674125	0.000081
  72	7.0645e+00	2.8459	3.908248	0.000200	1.999688	0.677513	0.000082
  73	7.1640e+00	2.8732	3.989717	0.000200	1.999688	0.677513	0.000082
  74	7.2635e+00	2.9005	4.068334	0.000193	1.929699	0.653800	0.000079
  75	7.3630e+00	2.9646	4.149802	0.000200	1.999688	0.677513	0.000082
  76	7.4625e+00	3.0224	4.227605	0.000191	1.909702	0.647025	0.000078
  77	7.5620e+00	3.0304	4.305000	0.000190	1.899704	0.643637	0.000078
  78	7.6615e+00	3.0641	4.390542	0.000210	2.099672	0.711388	0.000086
  79	7.7610e+00	3.1010	4.463863	0.000180	1.799719	0.609761	0.000074
  80	7.8605e+00	3.1812	4.542480	0.000193	1.929699	0.653800	0.000079
  81	7.9600e+00	3.1940	4.618654	0.000187	1.869708	0.633474	0.000077
  82	8.0595e+00	3.2438	4.695234	0.000188	1.879707	0.636862	0.000077
  83	8.1590e+00	3.2662	4.773036	0.000191	1.909702	0.647025	0.000078
  84	8.2585e+00	3.3336	4.849209	0.000187	1.869708	0.633474	0.000077
  85	8.3580e+00	3.3545	4.923753	0.000183	1.829714	0.619924	0.000075
  86	8.4575e+00	3.3833	5.000741	0.000189	1.889705	0.640249	0.000077
  87	8.5570e+00	3.4202	5.079765	0.000194	1.939697	0.657187	0.000079
  88	8.6565e+00	3.4828	5.157160	0.000190	1.899704	0.643637	0.000078
  89	8.7560e+00	3.5357	5.238629	0.000200	1.999688	0.677513	0.000082
  90	8.8555e+00	3.5502	5.308284	0.000171	1.709733	0.579273	0.000070
  91	8.9550e+00	3.5999	5.382828	0.000183	1.829714	0.619924	0.000075
  92	9.0545e+00	3.6288	5.461853	0.000194	1.939697	0.657187	0.000079
  93	9.1540e+00	3.6641	5.538433	0.000188	1.879707	0.636862	0.000077
  94	9.2535e+00	3.7090	5.610940	0.000178	1.779722	0.602986	0.000073
  95	9.3530e+00	3.7491	5.687520	0.000188	1.879707	0.636862	0.000077
  96	9.4525e+00	3.8245	5.760842	0.000180	1.799719	0.609761	0.000074
  97	9.5520e+00	3.8550	5.841496	0.000198	1.979691	0.670738	0.000081
  98	9.6515e+00	3.8838	5.907893	0.000163	1.629746	0.552173	0.000067
  99	9.7510e+00	3.9191	5.985695	0.000191	1.909702	0.647025	0.000078
 100	9.8505e+00	3.9400	6.066756	0.000199	1.989690	0.674125	0.000081
 101	9.9500e+00	4.0090	6.142522	0.000186	1.859710	0.630087	0.000076
 102	1.0050e+01	4.0523	6.218695	0.000187	1.869708	0.633474	0.000077
 103	1.0149e+01	4.0555	6.294868	0.000187	1.869708	0.633474	0.000077
 104	1.0248e+01	4.1100	6.371449	0.000188	1.879707	0.636862	0.000077
 105	1.0348e+01	4.1710	6.447622	0.000187	1.869708	0.633474	0.000077
 106	1.0447e+01	4.1983	6.523387	0.000186	1.859710	0.630087	0.000076
 107	1.0547e+01	4.2175	6.600375	0.000189	1.889705	0.640249	0.000077
 108	1.0646e+01	4.2592	6.681844	0.000200	1.999688	0.677513	0.000082
 109	1.0746e+01	4.3122	6.753536	0.000176	1.759725	0.596211	0.000072
 110	1.0845e+01	4.3491	6.830524	0.000189	1.889705	0.640249	0.000077
 111	1.0945e+01	4.4261	6.904253	0.000181	1.809718	0.613149	0.000074
 112	1.1044e+01	4.4357	6.981240	0.000189	1.889705	0.640249	0.000077
 113	1.1144e+01	4.4662	7.054155	0.000179	1.789721	0.606374	0.000073
 114	1.1243e+01	4.5352	7.133994	0.000196	1.959694	0.663962	0.000080
 115	1.1343e+01	4.5528	7.204057	0.000172	1.719732	0.582661	0.000070
 116	1.1443e+01	4.5913	7.278600	0.000183	1.829714	0.619924	0.000075
 117	1.1542e+01	4.5945	7.356403	0.000191	1.909702	0.647025	0.000078
 118	1.1642e+01	4.6812	7.424836	0.000168	1.679738	0.569111	0.000069
 119	1.1741e+01	4.7293	7.501824	0.000189	1.889705	0.640249	0.000077
 120	1.1841e+01	4.7501	7.577182	0.000185	1.849711	0.626699	0.000076
 121	1.1940e+01	4.8175	7.648467	0.000175	1.749727	0.592824	0.000072
 122	1.2040e+01	4.8640	7.728714	0.000197	1.969693	0.667350	0.000081
 123	1.2139e+01	4.8865	7.801221	0.000178	1.779722	0.602986	0.000073
 124	1.2239e+01	4.9090	7.878616	0.000190	1.899704	0.643637	0.000078
 125	1.2338e+01	4.9619	7.950308	0.000176	1.759725	0.596211	0.000072
 126	1.2438e+01	4.9827	8.026481	0.000187	1.869708	0.633474	0.000077
 127	1.2537e+01	5.0229	8.100210	0.000181	1.809718	0.613149	0.000074
 128	1.2636e+01	5.0646	8.176383	0.000187	1.869708	0.633474	0.000077
 129	1.2736e+01	5.1255	8.248890	0.000178	1.779722	0.602986	0.000073
 130	1.2835e+01	5.1416	8.322619	0.000181	1.809718	0.613149	0.000074
 131	1.2935e+01	5.1913	8.399607	0.000189	1.889705	0.640249	0.000077
 132	1.3034e+01	5.2154	8.474558	0.000184	1.839713	0.623312	0.000075
 133	1.3134e+01	5.2859	8.550324	0.000186	1.859710	0.630087	0.000076
 134	1.3233e+01	5.3132	8.619979	0.000171	1.709733	0.579273	0.000070
 135	1.3333e+01	5.3710	8.699004	0.000194	1.939697	0.657187	0.000079
 136	1.3432e+01	5.3902	8.769067	0.000172	1.719732	0.582661	0.000070
 137	1.3532e+01	5.4464	8.845240	0.000187	1.869708	0.633474	0.000077
 138	1.3632e+01	5.4544	8.917747	0.000178	1.779722	0.602986	0.000073
 139	1.3731e+01	5.5105	8.993920	0.000187	1.869708	0.633474	0.000077
 140	1.3831e+01	5.5908	9.058687	0.000159	1.589752	0.538623	0.000065
 141	1.3930e+01	5.5779	9.136490	-0.000191	-1.909702	-0.647025	0.000078
 142	1.4030e+01	5.6565	9.202479	0.000162	1.619747	0.548785	0.000066
 143	1.4129e+01	5.6694	9.279467	0.000189	1.889705	0.640249	0.000077
 144	1.4229e+01	5.6918	9.349937	0.000173	1.729730	0.586048	0.000071
 145	1.4328e+01	5.7608	9.419593	0.000171	1.709733	0.579273	0.000070
 146	1.4428e+01	5.7913	9.489248	0.000171	1.709733	0.579273	0.000070
 147	1.4527e+01	5.8587	9.556867	0.000166	1.659741	0.562335	0.000068
 148	1.4627e+01	5.8747	9.626116	0.000170	1.699735	0.575886	0.000070
 149	1.4726e+01	5.9116	9.697400	0.000175	1.749727	0.592824	0.000072
 150	1.4825e+01	5.9661	9.765019	0.000166	1.659741	0.562335	0.000068
 151	1.4925e+01	5.9918	9.835897	0.000174	1.739729	0.589436	0.000071
 152	1.5024e+01	6.0656	9.905960	0.000172	1.719732	0.582661	0.000070
 153	1.5124e+01	6.0592	9.973171	-0.000165	-1.649743	-0.558948	0.000068
 154	1.5223e+01	6.1025	10.043234	0.000172	1.719732	0.582661	0.000070
 155	1.5323e+01	6.1554	10.112890	0.000171	1.709733	0.579273	0.000070
 156	1.5422e+01	6.1795	10.182138	0.000170	1.699735	0.575886	0.000070
 157	1.5522e+01	6.2100	10.248942	0.000164	1.639744	0.555560	0.000067
 158	1.5621e+01	6.2918	10.317783	0.000169	1.689736	0.572498	0.000069
 159	1.5721e+01	6.2934	10.389068	0.000175	1.749727	0.592824	0.000072
 160	1.5820e+01	6.3560	10.455465	0.000163	1.629746	0.552173	0.000067
 161	1.5920e+01	6.3688	10.525121	0.000171	1.709733	0.579273	0.000070
 162	1.6020e+01	6.4394	10.593147	0.000167	1.669739	0.565723	0.000068
 163	1.6119e+01	6.4907	10.661988	0.000169	1.689736	0.572498	0.000069
 164	1.6218e+01	6.5276	10.729606	0.000166	1.659741	0.562335	0.000068
 165	1.6318e+01	6.5356	10.796818	0.000165	1.649743	0.558948	0.000068
 166	1.6418e+01	6.6030	10.864030	0.000165	1.649743	0.558948	0.000068
 167	1.6517e+01	6.6207	10.936944	0.000179	1.789721	0.606374	0.000073
 168	1.6616e+01	6.6736	11.007414	0.000173	1.729730	0.586048	0.000071
 169	1.6716e+01	6.7073	11.070145	0.000154	1.539760	0.521685	0.000063
 170	1.6816e+01	6.7570	11.141837	0.000176	1.759725	0.596211	0.000072
 171	1.6915e+01	6.7907	11.211900	0.000172	1.719732	0.582661	0.000070
 172	1.7015e+01	6.8533	11.278297	0.000163	1.629746	0.552173	0.000067
 173	1.7114e+01	6.8661	11.341842	0.000156	1.559757	0.528460	0.000064
 174	1.7213e+01	6.9335	11.410683	0.000169	1.689736	0.572498	0.000069
 175	1.7313e+01	6.9592	11.477895	0.000165	1.649743	0.558948	0.000068
 176	1.7413e+01	6.9720	11.546328	0.000168	1.679738	0.569111	0.000069
 177	1.7512e+01	7.0378	11.611503	0.000160	1.599750	0.542010	0.000066
 178	1.7611e+01	7.0394	11.680344	0.000169	1.689736	0.572498	0.000069
 179	1.7711e+01	7.1276	11.743482	0.000155	1.549758	0.525072	0.000063
 180	1.7811e+01	7.1340	11.813952	0.000173	1.729730	0.586048	0.000071
 181	1.7910e+01	7.1902	11.877090	0.000155	1.549758	0.525072	0.000063
 182	1.8009e+01	7.2142	11.943080	0.000162	1.619747	0.548785	0.000066
 183	1.8109e+01	7.2640	12.013143	0.000172	1.719732	0.582661	0.000070
 184	1.8209e+01	7.3265	12.076281	0.000155	1.549758	0.525072	0.000063
 185	1.8308e+01	7.3346	12.142270	0.000162	1.619747	0.548785	0.000066
 186	1.8407e+01	7.3891	12.202557	0.000148	1.479769	0.501359	0.000061
 187	1.8507e+01	7.3987	12.268139	0.000161	1.609749	0.545398	0.000066
 188	1.8607e+01	7.4629	12.332499	0.000158	1.579754	0.535235	0.000065
 189	1.8706e+01	7.5174	12.397267	0.000159	1.589752	0.538623	0.000065
 190	1.8805e+01	7.5736	12.460812	0.000156	1.559757	0.528460	0.000064
 191	1.8905e+01	7.5688	12.525987	-0.000160	-1.599750	-0.542010	0.000066
 192	1.9005e+01	7.6137	12.586681	0.000149	1.489768	0.504747	0.000061
 193	1.9104e+01	7.6458	12.651856	0.000160	1.599750	0.542010	0.000066
 194	1.9203e+01	7.6987	12.714179	0.000153	1.529761	0.518297	0.000063
 195	1.9303e+01	7.7420	12.778947	0.000159	1.589752	0.538623	0.000065
 196	1.9402e+01	7.7918	12.840863	0.000152	1.519763	0.514910	0.000062
 197	1.9502e+01	7.8511	12.902779	0.000152	1.519763	0.514910	0.000062
 198	1.9602e+01	7.8928	12.966732	0.000157	1.569755	0.531847	0.000064
 199	1.9701e+01	7.9057	13.028240	0.000151	1.509764	0.511522	0.000062
 200	1.9800e+01	7.9057	13.090971	-0.000154	-1.539760	-0.521685	0.000063
 201	1.9900e+01	7.9522	13.156961	0.000162	1.619747	0.548785	0.000066
 202	2.0000e+01	8.0388	13.212359	0.000136	1.359788	0.460709	0.000056
 203	2.0099e+01	8.0966	13.276719	0.000158	1.579754	0.535235	0.000065
 204	2.0198e+01	8.1270	13.335784	0.000145	1.449774	0.491197	0.000059
 205	2.0298e+01	8.1094	13.398515	-0.000154	-1.539760	-0.521685	0.000063
 206	2.0398e+01	8.1976	13.453913	0.000136	1.359788	0.460709	0.000056
 207	2.0497e+01	8.2442	13.517459	0.000156	1.559757	0.528460	0.000064
 208	2.0596e+01	8.2602	13.573672	0.000138	1.379785	0.467484	0.000056
 209	2.0696e+01	8.2939	13.639662	0.000162	1.619747	0.548785	0.000066
 210	2.0796e+01	8.3115	13.697097	0.000141	1.409780	0.477646	0.000058
 211	2.0895e+01	8.3869	13.754532	0.000141	1.409780	0.477646	0.000058
 212	2.0994e+01	8.4190	13.815634	0.000150	1.499766	0.508134	0.000061
 213	2.1094e+01	8.4447	13.872254	0.000139	1.389783	0.470871	0.000057
 214	2.1194e+01	8.5233	13.938651	0.000163	1.629746	0.552173	0.000067
 215	2.1293e+01	8.5409	13.993235	0.000134	1.339791	0.453933	0.000055
 216	2.1392e+01	8.5730	14.055558	0.000153	1.529761	0.518297	0.000063
 217	2.1492e+01	8.6372	14.110142	0.000134	1.339791	0.453933	0.000055
 218	2.1591e+01	8.6709	14.168392	0.000143	1.429777	0.484422	0.000059
 219	2.1691e+01	8.6837	14.228272	0.000147	1.469771	0.497972	0.000060
 220	2.1791e+01	8.7447	14.285300	0.000140	1.399782	0.474259	0.000057
 221	2.1890e+01	8.7944	14.343550	0.000143	1.429777	0.484422	0.000059
 222	2.1989e+01	8.8185	14.401392	0.000142	1.419778	0.481034	0.000058
 223	2.2089e+01	8.9003	14.460864	0.000146	1.459772	0.494584	0.000060
 224	2.2189e+01	8.8858	14.519522	-0.000144	-1.439775	-0.487809	0.000059
 225	2.2288e+01	8.9388	14.580623	0.000150	1.499766	0.508134	0.000061
 226	2.2387e+01	8.9500	14.636429	0.000137	1.369786	0.464096	0.000056
 227	2.2487e+01	9.0270	14.699974	0.000156	1.559757	0.528460	0.000064
 228	2.2587e+01	9.0575	14.759446	0.000146	1.459772	0.494584	0.000060
 229	2.2686e+01	9.1153	14.815252	0.000137	1.369786	0.464096	0.000056
 230	2.2785e+01	9.1249	14.877576	0.000153	1.529761	0.518297	0.000063
 231	2.2885e+01	9.1906	14.937048	0.000146	1.459772	0.494584	0.000060
 232	2.2985e+01	9.1730	14.994890	-0.000142	-1.419778	-0.481034	0.000058
 233	2.3084e+01	9.2372	15.057621	0.000154	1.539760	0.521685	0.000063
 234	2.3183e+01	9.3046	15.113427	0.000137	1.369786	0.464096	0.000056
 235	2.3283e+01	9.3382	15.173306	0.000147	1.469771	0.497972	0.000060
 236	2.3383e+01	9.3751	15.235222	0.000152	1.519763	0.514910	0.000062
 237	2.3482e+01	9.4361	15.292250	0.000140	1.399782	0.474259	0.000057
 238	2.3581e+01	9.5035	15.352944	0.000149	1.489768	0.504747	0.000061
 239	2.3681e+01	9.4682	15.414046	-0.000150	-1.499766	-0.508134	0.000061
 240	2.3780e+01	9.5516	15.469852	0.000137	1.369786	0.464096	0.000056
 241	2.3880e+01	9.5917	15.529324	0.000146	1.459772	0.494584	0.000060
 242	2.3980e+01	9.6511	15.592055	0.000154	1.539760	0.521685	0.000063
 243	2.4079e+01	9.6446	15.649082	-0.000140	-1.399782	-0.474259	0.000057
 244	2.4178e+01	9.6848	15.703666	0.000134	1.339791	0.453933	0.000055
 245	2.4278e+01	9.6960	15.765990	0.000153	1.529761	0.518297	0.000063
 246	2.4378e+01	9.7842	15.824240	0.000143	1.429777	0.484422	0.000059
 247	2.4477e+01	9.8420	15.885748	0.000151	1.509764	0.511522	0.000062
 248	2.4576e+01	9.8644	15.937074	0.000126	1.259803	0.426833	0.000052
 249	2.4676e+01	9.9013	15.993287	0.000138	1.379785	0.467484	0.000056
 250	2.4776e+01	9.9222	16.051944	0.000144	1.439775	0.487809	0.000059
 251	2.4875e+01	9.9960	16.111416	0.000146	1.459772	0.494584	0.000060
 252	2.4974e+01	9.9912	16.163963	-0.000129	-1.289799	-0.436996	0.000053
 253	2.5074e+01	10.0746	16.222621	0.000144	1.439775	0.487809	0.000059
 254	2.5174e+01	10.1035	16.278834	0.000138	1.379785	0.467484	0.000056
 255	2.5273e+01	10.1516	16.337899	0.000145	1.449774	0.491197	0.000059
 256	2.5372e+01	10.1740	16.393297	0.000136	1.359788	0.460709	0.000056
 257	2.5472e+01	10.2222	16.451547	0.000143	1.429777	0.484422	0.000059
 258	2.5572e+01	10.2318	16.504909	0.000131	1.309796	0.443771	0.000054
 259	2.5671e+01	10.2944	16.566418	0.000151	1.509764	0.511522	0.000062
 260	2.5770e+01	10.3232	16.621816	0.000136	1.359788	0.460709	0.000056
 261	2.5870e+01	10.3698	16.678437	0.000139	1.389783	0.470871	0.000057
 262	2.5970e+01	10.4163	16.732206	0.000132	1.319794	0.447158	0.000054
 263	2.6069e+01	10.4516	16.792900	0.000149	1.489768	0.504747	0.000061
 264	2.6169e+01	10.4917	16.852780	0.000147	1.469771	0.497972	0.000060
 265	2.6268e+01	10.5125	16.904512	0.000127	1.269802	0.430221	0.000052
 266	2.6367e+01	10.5591	16.961540	0.000140	1.399782	0.474259	0.000057
 267	2.6467e+01	10.6313	17.021827	0.000148	1.479769	0.501359	0.000061
 268	2.6567e+01	10.6473	17.079670	0.000142	1.419778	0.481034	0.000058
 269	2.6666e+01	10.7131	17.135475	0.000137	1.369786	0.464096	0.000056
 270	2.6765e+01	10.7612	17.192911	0.000141	1.409780	0.477646	0.000058
 271	2.6865e+01	10.7756	17.252790	0.000147	1.469771	0.497972	0.000060
 272	2.6965e+01	10.8238	17.305745	0.000130	1.299797	0.440383	0.000053
 273	2.7064e+01	10.8494	17.370105	0.000158	1.579754	0.535235	0.000065
 274	2.7163e+01	10.8799	17.428762	0.000144	1.439775	0.487809	0.000059
 275	2.7263e+01	10.9104	17.484161	0.000136	1.359788	0.460709	0.000056
 276	2.7363e+01	10.9906	17.542411	0.000143	1.429777	0.484422	0.000059
 277	2.7462e+01	11.0018	17.598217	0.000137	1.369786	0.464096	0.000056
 278	2.7561e+01	11.0740	17.658503	0.000148	1.479769	0.501359	0.000061
 279	2.7661e+01	11.1093	17.716346	0.000142	1.419778	0.481034	0.000058
 280	2.7761e+01	11.1430	17.774189	0.000142	1.419778	0.481034	0.000058
 281	2.7860e+01	11.1671	17.830402	0.000138	1.379785	0.467484	0.000056
 282	2.7959e+01	11.2264	17.890689	0.000148	1.479769	0.501359	0.000061
 283	2.8059e+01	11.2810	17.946087	0.000136	1.359788	0.460709	0.000056
 284	2.8159e+01	11.3002	18.005559	0.000146	1.459772	0.494584	0.000060
 285	2.8258e+01	11.3195	18.061772	0.000138	1.379785	0.467484	0.000056
 286	2.8358e+01	11.3917	18.120430	0.000144	1.439775	0.487809	0.000059
 287	2.8457e+01	11.4093	18.177865	0.000141	1.409780	0.477646	0.000058
 288	2.8556e+01	11.4414	18.234078	0.000138	1.379785	0.467484	0.000056
 289	2.8656e+01	11.4735	18.297216	0.000155	1.549758	0.525072	0.000063
 290	2.8756e+01	11.5232	18.355874	0.000144	1.439775	0.487809	0.000059
 291	2.8855e+01	11.5601	18.416160	0.000148	1.479769	0.501359	0.000061
 292	2.8954e+01	11.6018	18.470744	0.000134	1.339791	0.453933	0.000055
 293	2.9054e+01	11.6499	18.530624	0.000147	1.469771	0.497972	0.000060
 294	2.9154e+01	11.7173	18.591725	0.000150	1.499766	0.508134	0.000061
 295	2.9253e+01	11.7558	18.650382	0.000144	1.439775	0.487809	0.000059
 296	2.9352e+01	11.7606	18.703337	0.000130	1.299797	0.440383	0.000053
 297	2.9452e+01	11.8248	18.769326	0.000162	1.619747	0.548785	0.000066
 298	2.9552e+01	11.8729	18.823910	0.000134	1.339791	0.453933	0.000055
 299	2.9651e+01	11.9082	18.884197	0.000148	1.479769	0.501359	0.000061
 300	2.9750e+01	11.9146	18.940003	0.000137	1.369786	0.464096	0.000056
 301	2.9850e+01	11.9628	19.001512	0.000151	1.509764	0.511522	0.000062
 302	2.9950e+01	12.0205	19.060576	0.000145	1.449774	0.491197	0.000059
 303	3.0049e+01	12.0751	19.120863	0.000148	1.479769	0.501359	0.000061
 304	3.0148e+01	12.1071	19.177076	0.000138	1.379785	0.467484	0.000056
 305	3.0248e+01	12.1232	19.236956	0.000147	1.469771	0.497972	0.000060
 306	3.0348e+01	12.1681	19.297242	0.000148	1.479769	0.501359	0.000061
 307	3.0447e+01	12.2098	19.355492	0.000143	1.429777	0.484422	0.000059
 308	3.0547e+01	12.2307	19.409669	0.000133	1.329793	0.450546	0.000054
 309	3.0646e+01	12.3141	19.467919	0.000143	1.429777	0.484422	0.000059
 310	3.0745e+01	12.3061	19.524540	-0.000139	-1.389783	-0.470871	0.000057
 311	3.0845e+01	12.3847	19.578309	0.000132	1.319794	0.447158	0.000054
 312	3.0945e+01	12.3847	19.634929	-0.000139	-1.389783	-0.470871	0.000057
 313	3.1044e+01	12.4312	19.694809	0.000147	1.469771	0.497972	0.000060
 314	3.1143e+01	12.4809	19.751429	0.000139	1.389783	0.470871	0.000057
 315	3.1243e+01	12.5002	19.805199	0.000132	1.319794	0.447158	0.000054
 316	3.1343e+01	12.5772	19.861412	0.000138	1.379785	0.467484	0.000056
 317	3.1442e+01	12.5932	19.918847	0.000141	1.409780	0.477646	0.000058
 318	3.1541e+01	12.6686	19.970172	0.000126	1.259803	0.426833	0.000052
 319	3.1641e+01	12.6991	20.024349	0.000133	1.329793	0.450546	0.000054
 320	3.1741e+01	12.7007	20.083413	0.000145	1.449774	0.491197	0.000059
 321	3.1840e+01	12.7681	20.136775	0.000131	1.309796	0.443771	0.000054
 322	3.1939e+01	12.8114	20.196655	0.000147	1.469771	0.497972	0.000060
 323	3.2039e+01	12.8643	20.247573	0.000125	1.249805	0.423445	0.000051
 324	3.2139e+01	12.8756	20.304193	0.000139	1.389783	0.470871	0.000057
 325	3.2238e+01	12.9189	20.355111	0.000125	1.249805	0.423445	0.000051
 326	3.2337e+01	12.9654	20.412954	0.000142	1.419778	0.481034	0.000058
 327	3.2437e+01	12.9911	20.461835	0.000120	1.199813	0.406508	0.000049
 328	3.2536e+01	13.0536	20.520492	0.000144	1.439775	0.487809	0.000059
 329	3.2636e+01	13.0954	20.573854	0.000131	1.309796	0.443771	0.000054
 330	3.2736e+01	13.1194	20.632919	0.000145	1.449774	0.491197	0.000059
 331	3.2835e+01	13.1419	20.685058	0.000128	1.279800	0.433608	0.000052
 332	3.2934e+01	13.1996	20.742086	0.000140	1.399782	0.474259	0.000057
 333	3.3034e+01	13.2397	20.799522	0.000141	1.409780	0.477646	0.000058
 334	3.3133e+01	13.2830	20.854513	0.000135	1.349789	0.457321	0.000055
 335	3.3233e+01	13.3167	20.913170	0.000144	1.439775	0.487809	0.000059
 336	3.3333e+01	13.3729	20.966125	0.000130	1.299797	0.440383	0.000053
 337	3.3432e+01	13.3905	21.026411	0.000148	1.479769	0.501359	0.000061
 338	3.3532e+01	13.4387	21.078144	0.000127	1.269802	0.430221	0.000052
 339	3.3631e+01	13.4788	21.134357	0.000138	1.379785	0.467484	0.000056
 340	3.3730e+01	13.4820	21.188534	0.000133	1.329793	0.450546	0.000054
 341	3.3830e+01	13.5526	21.245562	0.000140	1.399782	0.474259	0.000057
 342	3.3929e+01	13.6103	21.297294	0.000127	1.269802	0.430221	0.000052
 343	3.4029e+01	13.6264	21.354730	0.000141	1.409780	0.477646	0.000058
 344	3.4129e+01	13.6729	21.410128	0.000136	1.359788	0.460709	0.000056
 345	3.4228e+01	13.7403	21.461861	0.000127	1.269802	0.430221	0.000052
 346	3.4328e+01	13.7627	21.514001	0.000128	1.279800	0.433608	0.000052
 347	3.4427e+01	13.8157	21.571028	0.000140	1.399782	0.474259	0.000057
 348	3.4526e+01	13.8590	21.629686	0.000144	1.439775	0.487809	0.000059
 349	3.4626e+01	13.8558	21.681011	-0.000126	-1.259803	-0.426833	0.000052
 350	3.4725e+01	13.9151	21.732743	0.000127	1.269802	0.430221	0.000052
 351	3.4825e+01	13.9552	21.786513	0.000132	1.319794	0.447158	0.000054
 352	3.4925e+01	14.0033	21.840689	0.000133	1.329793	0.450546	0.000054
 353	3.5024e+01	14.0611	21.892829	0.000128	1.279800	0.433608	0.000052
 354	3.5123e+01	14.0739	21.941303	0.000119	1.189814	0.403120	0.000049
 355	3.5223e+01	14.1333	21.995072	0.000132	1.319794	0.447158	0.000054
 356	3.5322e+01	14.1541	22.053322	0.000143	1.429777	0.484422	0.000059
 357	3.5422e+01	14.1926	22.102611	0.000121	1.209811	0.409895	0.000050
 358	3.5522e+01	14.2135	22.154343	0.000127	1.269802	0.430221	0.000052
 359	3.5621e+01	14.2520	22.206483	0.000128	1.279800	0.433608	0.000052
 360	3.5721e+01	14.3065	22.258215	0.000127	1.269802	0.430221	0.000052
 361	3.5820e+01	14.3290	22.310355	0.000128	1.279800	0.433608	0.000052
 362	3.5919e+01	14.3964	22.358422	0.000118	1.179816	0.399732	0.000048
 363	3.6019e+01	14.4221	22.410969	0.000129	1.289799	0.436996	0.000053
 364	3.6118e+01	14.4782	22.461072	0.000123	1.229808	0.416670	0.000050
 365	3.6218e+01	14.5343	22.517285	0.000138	1.379785	0.467484	0.000056
 366	3.6318e+01	14.5504	22.568203	0.000125	1.249805	0.423445	0.000051
 367	3.6417e+01	14.5953	22.621972	0.000132	1.319794	0.447158	0.000054
 368	3.6517e+01	14.6418	22.670039	0.000118	1.179816	0.399732	0.000048
 369	3.6616e+01	14.6819	22.723808	0.000132	1.319794	0.447158	0.000054
 370	3.6715e+01	14.7092	22.775948	0.000128	1.279800	0.433608	0.000052
 371	3.6815e+01	14.7589	22.818311	0.000104	1.039838	0.352307	0.000043
 372	3.6914e+01	14.7958	22.872488	0.000133	1.329793	0.450546	0.000054
 373	3.7014e+01	14.8424	22.925850	0.000131	1.309796	0.443771	0.000054
 374	3.7114e+01	14.8809	22.971065	0.000111	1.109827	0.376020	0.000045
 375	3.7213e+01	14.9370	23.019946	0.000120	1.199813	0.406508	0.000049
 376	3.7313e+01	14.9579	23.065161	0.000111	1.109827	0.376020	0.000045
 377	3.7412e+01	15.0028	23.117301	0.000128	1.279800	0.433608	0.000052
 378	3.7511e+01	15.0236	23.169033	0.000127	1.269802	0.430221	0.000052
 379	3.7611e+01	15.0878	23.215470	0.000114	1.139822	0.386182	0.000047
 380	3.7711e+01	15.1343	23.261907	0.000114	1.139822	0.386182	0.000047
 381	3.7810e+01	15.1375	23.314047	0.000128	1.279800	0.433608	0.000052
 382	3.7910e+01	15.1873	23.364558	0.000124	1.239807	0.420058	0.000051
 383	3.8009e+01	15.2290	23.410995	0.000114	1.139822	0.386182	0.000047
 384	3.8108e+01	15.2739	23.459469	0.000119	1.189814	0.403120	0.000049
 385	3.8208e+01	15.2996	23.506720	0.000116	1.159819	0.392957	0.000047
 386	3.8307e+01	15.3268	23.551528	0.000110	1.099828	0.372632	0.000045
 387	3.8407e+01	15.3942	23.600409	0.000120	1.199813	0.406508	0.000049
 388	3.8507e+01	15.4423	23.652956	0.000129	1.289799	0.436996	0.000053
 389	3.8606e+01	15.4873	23.698579	0.000112	1.119825	0.379407	0.000046
 390	3.8706e+01	15.5258	23.742572	0.000108	1.079832	0.365857	0.000044
 391	3.8805e+01	15.5466	23.795934	0.000131	1.309796	0.443771	0.000054
 392	3.8904e+01	15.5915	23.845222	0.000121	1.209811	0.409895	0.000050
 393	3.9004e+01	15.6429	23.894510	0.000121	1.209811	0.409895	0.000050
 394	3.9103e+01	15.6766	23.946650	0.000128	1.279800	0.433608	0.000052
 395	3.9203e+01	15.7167	23.993087	0.000114	1.139822	0.386182	0.000047
 396	3.9303e+01	15.7391	24.045227	0.000128	1.279800	0.433608	0.000052
 397	3.9402e+01	15.7969	24.097774	0.000129	1.289799	0.436996	0.000053
 398	3.9502e+01	15.8306	24.142175	0.000109	1.089830	0.369244	0.000045
 399	3.9601e+01	15.8883	24.194315	0.000128	1.279800	0.433608	0.000052
 400	3.9700e+01	15.9284	24.241974	0.000117	1.169817	0.396345	0.000048
 401	3.9800e+01	15.9445	24.293299	0.000126	1.259803	0.426833	0.000052
 402	3.9900e+01	15.9782	24.341773	0.000119	1.189814	0.403120	0.000049
 403	3.9999e+01	16.0295	24.394320	0.000129	1.289799	0.436996	0.000053
 404	4.0099e+01	16.0937	24.442386	0.000118	1.179816	0.399732	0.000048
 405	4.0198e+01	16.0905	24.491675	-0.000121	-1.209811	-0.409895	0.000050
 406	4.0297e+01	16.1466	24.539334	0.000117	1.169817	0.396345	0.000048
 407	4.0397e+01	16.1675	24.589029	0.000122	1.219810	0.413283	0.000050
 408	4.0496e+01	16.2477	24.642391	0.000131	1.309796	0.443771	0.000054
 409	4.0596e+01	16.2830	24.692494	0.000123	1.229808	0.416670	0.000050
 410	4.0696e+01	16.3054	24.736895	0.000109	1.089830	0.369244	0.000045
 411	4.0795e+01	16.3519	24.789849	0.000130	1.299797	0.440383	0.000053
 412	4.0895e+01	16.4209	24.840767	0.000125	1.249805	0.423445	0.000051
 413	4.0994e+01	16.4386	24.889648	0.000120	1.199813	0.406508	0.000049
 414	4.1093e+01	16.4674	24.937307	0.000117	1.169817	0.396345	0.000048
 415	4.1193e+01	16.4899	24.982930	0.000112	1.119825	0.379407	0.000046
 416	4.1292e+01	16.5461	25.033440	0.000124	1.239807	0.420058	0.000051
 417	4.1392e+01	16.5910	25.078655	0.000111	1.109827	0.376020	0.000045
 418	4.1492e+01	16.6070	25.128351	0.000122	1.219810	0.413283	0.000050
 419	4.1591e+01	16.6712	25.177232	0.000120	1.199813	0.406508	0.000049
 420	4.1691e+01	16.7257	25.221632	0.000109	1.089830	0.369244	0.000045
 421	4.1790e+01	16.7289	25.269699	0.000118	1.179816	0.399732	0.000048
 422	4.1889e+01	16.7642	25.318580	0.000120	1.199813	0.406508	0.000049
 423	4.1989e+01	16.8268	25.370312	0.000127	1.269802	0.430221	0.000052
 424	4.2089e+01	16.8733	25.417972	0.000117	1.169817	0.396345	0.000048
 425	4.2188e+01	16.9086	25.466445	0.000119	1.189814	0.403120	0.000049
 426	4.2288e+01	16.9455	25.515326	0.000120	1.199813	0.406508	0.000049
 427	4.2387e+01	17.0001	25.558505	0.000106	1.059835	0.359082	0.000043
 428	4.2486e+01	17.0193	25.607793	0.000121	1.209811	0.409895	0.000050
 429	4.2586e+01	17.0610	25.655045	0.000116	1.159819	0.392957	0.000047
 430	4.2685e+01	17.0771	25.703926	0.000120	1.199813	0.406508	0.000049
 431	4.2785e+01	17.1476	25.751992	0.000118	1.179816	0.399732	0.000048
 432	4.2885e+01	17.1813	25.802910	0.000125	1.249805	0.423445	0.000051
 433	4.2984e+01	17.2583	25.848940	0.000113	1.129824	0.382795	0.000046
 434	4.3084e+01	17.2776	25.900265	0.000126	1.259803	0.426833	0.000052
 435	4.3183e+01	17.2808	25.947110	0.000115	1.149821	0.389570	0.000047
 436	4.3282e+01	17.3418	26.000064	0.000130	1.299797	0.440383	0.000053
 437	4.3382e+01	17.3706	26.046908	0.000115	1.149821	0.389570	0.000047
 438	4.3481e+01	17.4220	26.097419	0.000124	1.239807	0.420058	0.000051
 439	4.3581e+01	17.4524	26.149966	0.000129	1.289799	0.436996	0.000053
 440	4.3681e+01	17.5054	26.196811	0.000115	1.149821	0.389570	0.000047
 441	4.3780e+01	17.5278	26.250580	0.000132	1.319794	0.447158	0.000054
 442	4.3880e+01	17.5760	26.297424	0.000115	1.149821	0.389570	0.000047
 443	4.3979e+01	17.6129	26.349564	0.000128	1.279800	0.433608	0.000052
 444	4.4078e+01	17.6530	26.398038	0.000119	1.189814	0.403120	0.000049
 445	4.4178e+01	17.6947	26.450585	0.000129	1.289799	0.436996	0.000053
 446	4.4278e+01	17.7573	26.499059	0.000119	1.189814	0.403120	0.000049
 447	4.4377e+01	17.7925	26.549162	0.000123	1.229808	0.416670	0.000050
 448	4.4477e+01	17.8182	26.596821	0.000117	1.169817	0.396345	0.000048
 449	4.4576e+01	17.8343	26.644887	0.000118	1.179816	0.399732	0.000048
 450	4.4675e+01	17.9081	26.692954	0.000118	1.179816	0.399732	0.000048
 451	4.4775e+01	17.9466	26.744279	0.000126	1.259803	0.426833	0.000052
 452	4.4874e+01	17.9851	26.794789	0.000124	1.239807	0.420058	0.000051
 453	4.4974e+01	18.0540	26.845300	0.000124	1.239807	0.420058	0.000051
 454	4.5074e+01	18.0669	26.895810	0.000124	1.239807	0.420058	0.000051
 455	4.5173e+01	18.1182	26.946321	0.000124	1.239807	0.420058	0.000051
 456	4.5273e+01	18.1310	26.996017	0.000122	1.219810	0.413283	0.000050
 457	4.5372e+01	18.1872	27.047342	0.000126	1.259803	0.426833	0.000052
 458	4.5471e+01	18.2241	27.100704	0.000131	1.309796	0.443771	0.000054
 459	4.5571e+01	18.2562	27.155695	0.000135	1.349789	0.457321	0.000055
 460	4.5670e+01	18.3155	27.206205	0.000124	1.239807	0.420058	0.000051
 461	4.5770e+01	18.3364	27.257938	0.000127	1.269802	0.430221	0.000052
 462	4.5870e+01	18.4054	27.309670	0.000127	1.269802	0.430221	0.000052
 463	4.5969e+01	18.4246	27.363847	0.000133	1.329793	0.450546	0.000054
 464	4.6069e+01	18.4663	27.415579	0.000127	1.269802	0.430221	0.000052
 465	4.6168e+01	18.4984	27.461202	0.000112	1.119825	0.379407	0.000046
 466	4.6267e+01	18.5241	27.517008	0.000137	1.369786	0.464096	0.000056
 467	4.6367e+01	18.5898	27.569148	0.000128	1.279800	0.433608	0.000052
 468	4.6467e+01	18.6251	27.617214	0.000118	1.179816	0.399732	0.000048
 469	4.6566e+01	18.6604	27.671391	0.000133	1.329793	0.450546	0.000054
 470	4.6666e+01	18.6829	27.727196	0.000137	1.369786	0.464096	0.000056
 471	4.6765e+01	18.7599	27.776078	0.000120	1.199813	0.406508	0.000049
 472	4.6864e+01	18.7743	27.826181	0.000123	1.229808	0.416670	0.000050
 473	4.6964e+01	18.8096	27.881172	0.000135	1.349789	0.457321	0.000055
 474	4.7063e+01	18.8594	27.934126	0.000130	1.299797	0.440383	0.000053
 475	4.7163e+01	18.9219	27.978527	0.000109	1.089830	0.369244	0.000045
 476	4.7263e+01	18.9412	28.033518	0.000135	1.349789	0.457321	0.000055
 477	4.7362e+01	18.9925	28.081177	0.000117	1.169817	0.396345	0.000048
 478	4.7462e+01	19.0134	28.133724	0.000129	1.289799	0.436996	0.000053
 479	4.7561e+01	19.0791	28.185457	0.000127	1.269802	0.430221	0.000052
 480	4.7660e+01	19.1000	28.231487	0.000113	1.129824	0.382795	0.000046
 481	4.7760e+01	19.1433	28.279146	0.000117	1.169817	0.396345	0.000048
 482	4.7859e+01	19.1674	28.333322	0.000133	1.329793	0.450546	0.000054
 483	4.7959e+01	19.2380	28.379759	0.000114	1.139822	0.386182	0.000047
 484	4.8059e+01	19.2315	28.424567	-0.000110	-1.099828	-0.372632	0.000045
 485	4.8158e+01	19.3053	28.479558	0.000135	1.349789	0.457321	0.000055
 486	4.8258e+01	19.3326	28.529254	0.000122	1.219810	0.413283	0.000050
 487	4.8357e+01	19.3727	28.579357	0.000123	1.229808	0.416670	0.000050
 488	4.8456e+01	19.4176	28.627831	0.000119	1.189814	0.403120	0.000049
 489	4.8556e+01	19.4754	28.677527	0.000122	1.219810	0.413283	0.000050
 490	4.8656e+01	19.5123	28.726815	0.000121	1.209811	0.409895	0.000050
 491	4.8755e+01	19.5315	28.775696	0.000120	1.199813	0.406508	0.000049
 492	4.8855e+01	19.5652	28.823355	0.000117	1.169817	0.396345	0.000048
 493	4.8954e+01	19.6085	28.874273	0.000125	1.249805	0.423445	0.000051
 494	4.9053e+01	19.6502	28.923562	0.000121	1.209811	0.409895	0.000050
 495	4.9153e+01	19.7000	28.969591	0.000113	1.129824	0.382795	0.000046
 496	4.9252e+01	19.7449	29.022953	0.000131	1.309796	0.443771	0.000054
 497	4.9352e+01	19.7641	29.071427	0.000119	1.189814	0.403120	0.000049
 498	4.9452e+01	19.8171	29.121937	0.000124	1.239807	0.420058	0.000051
 499	4.9551e+01	19.8604	29.171633	0.000122	1.219810	0.413283	0.000050
 500	4.9651e+01	19.9069	29.221329	0.000122	1.219810	0.413283	0.000050
 501	4.9750e+01	19.9342	29.277135	0.000137	1.369786	0.464096	0.000056
 502	4.9849e+01	19.9807	29.323572	0.000114	1.139822	0.386182	0.000047
 503	4.9949e+01	20.0016	29.376119	0.000129	1.289799	0.436996	0.000053
 504	5.0048e+01	20.0016	29.345976	0.000074	0.739885	0.250680	-0.000030
 505	5.0148e+01	19.9567	29.316647	0.000072	0.719888	0.243905	-0.000029
 506	5.0248e+01	19.8861	29.284874	0.000078	0.779878	0.264230	-0.000032
 507	5.0347e+01	19.8604	29.253509	0.000077	0.769880	0.260842	-0.000032
 508	5.0447e+01	19.8107	29.224995	0.000070	0.699891	0.237129	-0.000029
 509	5.0546e+01	19.7850	29.187927	0.000091	0.909858	0.308268	-0.000037
 510	5.0645e+01	19.7385	29.153710	0.000084	0.839869	0.284555	-0.000034
 511	5.0745e+01	19.6936	29.120308	0.000082	0.819872	0.277780	-0.000034
 512	5.0844e+01	19.6615	29.083240	0.000091	0.909858	0.308268	-0.000037
 513	5.0944e+01	19.6294	29.053096	0.000074	0.739885	0.250680	-0.000030
 514	5.1044e+01	19.5636	29.016436	0.000090	0.899860	0.304881	-0.000037
 515	5.1143e+01	19.5347	28.981404	0.000086	0.859866	0.291330	-0.000035
 516	5.1242e+01	19.4898	28.948817	0.000080	0.799875	0.271005	-0.000033
 517	5.1342e+01	19.4850	28.911341	0.000092	0.919856	0.311656	-0.000038
 518	5.1441e+01	19.4064	28.870607	0.000100	0.999844	0.338756	-0.000041
 519	5.1541e+01	19.3567	28.835576	0.000086	0.859866	0.291330	-0.000035
 520	5.1641e+01	19.3438	28.798915	0.000090	0.899860	0.304881	-0.000037
 521	5.1740e+01	19.2941	28.763883	0.000086	0.859866	0.291330	-0.000035
 522	5.1840e+01	19.2572	28.728444	0.000087	0.869864	0.294718	-0.000036
 523	5.1939e+01	19.2283	28.684859	0.000107	1.069833	0.362469	-0.000044
 524	5.2038e+01	19.1866	28.647791	0.000091	0.909858	0.308268	-0.000037
 525	5.2138e+01	19.1642	28.609500	0.000094	0.939853	0.318431	-0.000038
 526	5.2237e+01	19.1096	28.573654	0.000088	0.879863	0.298106	-0.000036
 527	5.2337e+01	19.0503	28.530883	0.000105	1.049836	0.355694	-0.000043
 528	5.2437e+01	19.0118	28.488927	0.000103	1.029839	0.348919	-0.000042
 529	5.2536e+01	19.0150	28.450637	-0.000094	-0.939853	-0.318431	-0.000038
 530	5.2636e+01	18.9508	28.413976	0.000090	0.899860	0.304881	-0.000037
 531	5.2735e+01	18.9011	28.374464	0.000097	0.969849	0.328594	-0.000040
 532	5.2834e+01	18.8545	28.330878	0.000107	1.069833	0.362469	-0.000044
 533	5.2934e+01	18.8353	28.290144	0.000100	0.999844	0.338756	-0.000041
 534	5.3033e+01	18.7294	28.252668	0.000092	0.919856	0.311656	-0.000038
 535	5.3133e+01	18.7503	28.214378	-0.000094	-0.939853	-0.318431	-0.000038
 536	5.3233e+01	18.6909	28.172422	0.000103	1.029839	0.348919	-0.000042
 537	5.3332e+01	18.6717	28.129651	0.000105	1.049836	0.355694	-0.000043
 538	5.3431e+01	18.6203	28.086880	0.000105	1.049836	0.355694	-0.000043
 539	5.3531e+01	18.5610	28.043294	0.000107	1.069833	0.362469	-0.000044
 540	5.3630e+01	18.5497	28.005004	0.000094	0.939853	0.318431	-0.000038
 541	5.3730e+01	18.4952	27.960604	0.000109	1.089830	0.369244	-0.000045
 542	5.3830e+01	18.4647	27.917018	0.000107	1.069833	0.362469	-0.000044
 543	5.3929e+01	18.4326	27.873432	0.000107	1.069833	0.362469	-0.000044
 544	5.4029e+01	18.4006	27.829032	0.000109	1.089830	0.369244	-0.000045
 545	5.4128e+01	18.3508	27.788705	0.000099	0.989846	0.335369	-0.000041
 546	5.4227e+01	18.2995	27.742675	0.000113	1.129824	0.382795	-0.000046
 547	5.4327e+01	18.2674	27.697460	0.000111	1.109827	0.376020	-0.000045
 548	5.4426e+01	18.2385	27.660800	0.000090	0.899860	0.304881	-0.000037
 549	5.4526e+01	18.1840	27.613955	0.000115	1.149821	0.389570	-0.000047
 550	5.4626e+01	18.1471	27.566296	0.000117	1.169817	0.396345	-0.000048
 551	5.4725e+01	18.1070	27.527191	0.000096	0.959850	0.325206	-0.000039
 552	5.4825e+01	18.0669	27.479940	0.000116	1.159819	0.392957	-0.000047
 553	5.4924e+01	18.0284	27.438798	0.000101	1.009842	0.342144	-0.000041
 554	5.5023e+01	17.9883	27.392361	0.000114	1.139822	0.386182	-0.000047
 555	5.5123e+01	17.9385	27.345924	0.000114	1.139822	0.386182	-0.000047
 556	5.5222e+01	17.8840	27.300301	0.000112	1.119825	0.379407	-0.000046
 557	5.5322e+01	17.8310	27.256308	0.000108	1.079832	0.365857	-0.000044
 558	5.5422e+01	17.8327	27.210279	-0.000113	-1.129824	-0.382795	-0.000046
 559	5.5521e+01	17.7508	27.170359	0.000098	0.979847	0.331981	-0.000040
 560	5.5620e+01	17.7524	27.127181	-0.000106	-1.059835	-0.359082	-0.000043
 561	5.5720e+01	17.7107	27.084410	0.000105	1.049836	0.355694	-0.000043
 562	5.5819e+01	17.6722	27.044490	0.000098	0.979847	0.331981	-0.000040
 563	5.5919e+01	17.6161	26.996831	0.000117	1.169817	0.396345	-0.000048
 564	5.6019e+01	17.5936	26.954875	0.000103	1.029839	0.348919	-0.000042
 565	5.6118e+01	17.5391	26.911697	0.000106	1.059835	0.359082	-0.000043
 566	5.6218e+01	17.4958	26.867704	0.000108	1.079832	0.365857	-0.000044
 567	5.6317e+01	17.4685	26.822489	0.000111	1.109827	0.376020	-0.000045
 568	5.6416e+01	17.4075	26.780125	0.000104	1.039838	0.352307	-0.000043
 569	5.6516e+01	17.3979	26.736539	0.000107	1.069833	0.362469	-0.000044
 570	5.6615e+01	17.3273	26.695398	0.000101	1.009842	0.342144	-0.000041
 571	5.6715e+01	17.3161	26.647331	0.000118	1.179816	0.399732	-0.000048
 572	5.6815e+01	17.2712	26.628186	0.000047	0.469927	0.159215	-0.000019
 573	5.6914e+01	17.2391	26.609856	0.000045	0.449930	0.152440	-0.000018
 574	5.7014e+01	17.2038	26.575232	0.000085	0.849867	0.287943	-0.000035
 575	5.7113e+01	17.1541	26.539386	0.000088	0.879863	0.298106	-0.000036
 576	5.7212e+01	17.1204	26.495800	0.000107	1.069833	0.362469	-0.000044
 577	5.7312e+01	17.0562	26.455473	0.000099	0.989846	0.335369	-0.000041
 578	5.7411e+01	17.0353	26.410258	0.000111	1.109827	0.376020	-0.000045
 579	5.7511e+01	16.9904	26.365450	0.000110	1.099828	0.372632	-0.000045
 580	5.7611e+01	16.9680	26.322272	0.000106	1.059835	0.359082	-0.000043
 581	5.7710e+01	16.9102	26.277057	0.000111	1.109827	0.376020	-0.000045
 582	5.7809e+01	16.8701	26.231842	0.000111	1.109827	0.376020	-0.000045
 583	5.7909e+01	16.7979	26.185405	0.000114	1.139822	0.386182	-0.000047
 584	5.8008e+01	16.7851	26.138561	0.000115	1.149821	0.389570	-0.000047
 585	5.8108e+01	16.7434	26.094975	0.000107	1.069833	0.362469	-0.000044
 586	5.8208e+01	16.7113	26.048945	0.000113	1.129824	0.382795	-0.000046
 587	5.8307e+01	16.6728	25.999657	0.000121	1.209811	0.409895	-0.000050
 588	5.8407e+01	16.6279	25.956886	0.000105	1.049836	0.355694	-0.000043
 589	5.8506e+01	16.6022	25.912078	0.000110	1.099828	0.372632	-0.000045
 590	5.8605e+01	16.5284	25.866456	0.000112	1.119825	0.379407	-0.000046
 591	5.8705e+01	16.4995	25.824092	0.000104	1.039838	0.352307	-0.000043
 592	5.8804e+01	16.4851	25.777248	0.000115	1.149821	0.389570	-0.000047
 593	5.8904e+01	16.4257	25.736513	0.000100	0.999844	0.338756	-0.000041
 594	5.9004e+01	16.3680	25.691298	0.000111	1.109827	0.376020	-0.000045
 595	5.9103e+01	16.3519	25.640788	0.000124	1.239807	0.420058	-0.000051
 596	5.9203e+01	16.3295	25.598424	0.000104	1.039838	0.352307	-0.000043
 597	5.9302e+01	16.2765	25.558097	0.000099	0.989846	0.335369	-0.000041
 598	5.9401e+01	16.2172	25.513697	0.000109	1.089830	0.369244	-0.000045
 599	5.9501e+01	16.1803	25.467667	0.000113	1.129824	0.382795	-0.000046
 600	5.9600e+01	16.1402	25.431414	0.000089	0.889861	0.301493	-0.000036
 601	5.9700e+01	16.1322	25.390680	0.000100	0.999844	0.338756	-0.000041
 602	5.9800e+01	16.0503	25.338132	0.000129	1.289799	0.436996	-0.000053
 603	5.9899e+01	16.0439	25.231409	0.000262	2.619591	0.887542	-0.000107
 604	5.9998e+01	15.9990	25.168271	0.000155	1.549758	0.525072	-0.000063
 605	6.0098e+01	15.9830	25.128351	0.000098	0.979847	0.331981	-0.000040
 606	6.0197e+01	15.9236	25.081914	0.000114	1.139822	0.386182	-0.000047
 607	6.0297e+01	15.8675	25.040772	0.000101	1.009842	0.342144	-0.000041
 608	6.0397e+01	15.8354	24.995150	0.000112	1.119825	0.379407	-0.000046
 609	6.0496e+01	15.8049	24.947898	0.000116	1.159819	0.392957	-0.000047
 610	6.0596e+01	15.7664	24.906757	0.000101	1.009842	0.342144	-0.000041
 611	6.0695e+01	15.7006	24.859912	0.000115	1.149821	0.389570	-0.000047
 612	6.0794e+01	15.6894	24.811438	0.000119	1.189814	0.403120	-0.000049
 613	6.0894e+01	15.6429	24.773148	0.000094	0.939853	0.318431	-0.000038
 614	6.0993e+01	15.5899	24.728341	0.000110	1.099828	0.372632	-0.000045
 615	6.1093e+01	15.5723	24.683126	0.000111	1.109827	0.376020	-0.000045
 616	6.1193e+01	15.5210	24.635467	0.000117	1.169817	0.396345	-0.000048
 617	6.1292e+01	15.4664	24.592696	0.000105	1.049836	0.355694	-0.000043
 618	6.1392e+01	15.4359	24.547888	0.000110	1.099828	0.372632	-0.000045
 619	6.1491e+01	15.4103	24.499821	0.000118	1.179816	0.399732	-0.000048
 620	6.1590e+01	15.3686	24.454199	0.000112	1.119825	0.379407	-0.000046
 621	6.1690e+01	15.3140	24.407762	0.000114	1.139822	0.386182	-0.000047
 622	6.1789e+01	15.2932	24.366213	0.000102	1.019841	0.345531	-0.000042
 623	6.1889e+01	15.2145	24.321813	0.000109	1.089830	0.369244	-0.000045
 624	6.1989e+01	15.1985	24.279449	0.000104	1.039838	0.352307	-0.000043
 625	6.2088e+01	15.1424	24.240752	0.000095	0.949852	0.321818	-0.000039
 626	6.2188e+01	15.1071	24.193500	0.000116	1.159819	0.392957	-0.000047
 627	6.2287e+01	15.0718	24.153988	0.000097	0.969849	0.328594	-0.000040
 628	6.2386e+01	15.0220	24.109587	0.000109	1.089830	0.369244	-0.000045
 629	6.2486e+01	14.9948	24.067224	0.000104	1.039838	0.352307	-0.000043
 630	6.2586e+01	14.9514	24.022416	0.000110	1.099828	0.372632	-0.000045
 631	6.2685e+01	14.8969	23.978423	0.000108	1.079832	0.365857	-0.000044
 632	6.2785e+01	14.8728	23.934023	0.000109	1.089830	0.369244	-0.000045
 633	6.2884e+01	14.8456	23.887586	0.000114	1.139822	0.386182	-0.000047
 634	6.2983e+01	14.7910	23.846851	0.000100	0.999844	0.338756	-0.000041
 635	6.3083e+01	14.7782	23.800007	0.000115	1.149821	0.389570	-0.000047
 636	6.3182e+01	14.7253	23.760902	0.000096	0.959850	0.325206	-0.000039
 637	6.3282e+01	14.6691	23.716909	0.000108	1.079832	0.365857	-0.000044
 638	6.3382e+01	14.6418	23.676582	0.000099	0.989846	0.335369	-0.000041
 639	6.3481e+01	14.6001	23.630552	0.000113	1.129824	0.382795	-0.000046
 640	6.3581e+01	14.5488	23.588596	0.000103	1.029839	0.348919	-0.000042
 641	6.3680e+01	14.4878	23.544196	0.000109	1.089830	0.369244	-0.000045
 642	6.3779e+01	14.4638	23.503462	0.000100	0.999844	0.338756	-0.000041
 643	6.3879e+01	14.4269	23.457024	0.000114	1.139822	0.386182	-0.000047
 644	6.3978e+01	14.3819	23.407329	0.000122	1.219810	0.413283	-0.000050
 645	6.4078e+01	14.3354	23.362521	0.000110	1.099828	0.372632	-0.000045
 646	6.4177e+01	14.3065	23.318121	0.000109	1.089830	0.369244	-0.000045
 647	6.4277e+01	14.2729	23.270462	0.000117	1.169817	0.396345	-0.000048
 648	6.4376e+01	14.2344	23.222803	0.000117	1.169817	0.396345	-0.000048
 649	6.4476e+01	14.2071	23.180439	0.000104	1.039838	0.352307	-0.000043
 650	6.4576e+01	14.1766	23.129521	0.000125	1.249805	0.423445	-0.000051
 651	6.4675e+01	14.1205	23.086750	0.000105	1.049836	0.355694	-0.000043
 652	6.4775e+01	14.0964	23.040720	0.000113	1.129824	0.382795	-0.000046
 653	6.4874e+01	14.0354	22.995913	0.000110	1.099828	0.372632	-0.000045
 654	6.4974e+01	13.9985	22.949883	0.000113	1.129824	0.382795	-0.000046
 655	6.5073e+01	13.9729	22.899373	0.000124	1.239807	0.420058	-0.000051
 656	6.5172e+01	13.9103	22.852121	0.000116	1.159819	0.392957	-0.000047
 657	6.5272e+01	13.8670	22.803647	0.000119	1.189814	0.403120	-0.000049
 658	6.5371e+01	13.8317	22.756803	0.000115	1.149821	0.389570	-0.000047
 659	6.5471e+01	13.7932	22.710366	0.000114	1.139822	0.386182	-0.000047
 660	6.5570e+01	13.7515	22.660670	0.000122	1.219810	0.413283	-0.000050
 661	6.5670e+01	13.7146	22.611789	0.000120	1.199813	0.406508	-0.000049
 662	6.5769e+01	13.6681	22.570647	0.000101	1.009842	0.342144	-0.000041
 663	6.5869e+01	13.6761	22.522581	-0.000118	-1.179816	-0.399732	-0.000048
 664	6.5969e+01	13.6135	22.474514	0.000118	1.179816	0.399732	-0.000048
 665	6.6068e+01	13.5750	22.427263	0.000116	1.159819	0.392957	-0.000047
 666	6.6168e+01	13.5205	22.382862	0.000109	1.089830	0.369244	-0.000045
 667	6.6267e+01	13.4723	22.335610	0.000116	1.159819	0.392957	-0.000047
 668	6.6367e+01	13.4322	22.285100	0.000124	1.239807	0.420058	-0.000051
 669	6.6466e+01	13.4114	22.246402	0.000095	0.949852	0.321818	-0.000039
 670	6.6566e+01	13.3408	22.197521	0.000120	1.199813	0.406508	-0.000049
 671	6.6665e+01	13.3151	22.151492	0.000113	1.129824	0.382795	-0.000046
 672	6.6764e+01	13.2750	22.106277	0.000111	1.109827	0.376020	-0.000045
 673	6.6864e+01	13.2590	22.058210	0.000118	1.179816	0.399732	-0.000048
 674	6.6963e+01	13.1756	22.010958	0.000116	1.159819	0.392957	-0.000047
 675	6.7063e+01	13.1740	21.962892	0.000118	1.179816	0.399732	-0.000048
 676	6.7162e+01	13.1274	21.916455	0.000114	1.139822	0.386182	-0.000047
 677	6.7262e+01	13.1114	21.870833	0.000112	1.119825	0.379407	-0.000046
 678	6.7362e+01	13.0713	21.819100	0.000127	1.269802	0.430221	-0.000052
 679	6.7461e+01	13.0055	21.770219	0.000120	1.199813	0.406508	-0.000049
 680	6.7561e+01	12.9815	21.729077	0.000101	1.009842	0.342144	-0.000041
 681	6.7660e+01	12.9333	21.683862	0.000111	1.109827	0.376020	-0.000045
 682	6.7760e+01	12.8740	21.635796	0.000118	1.179816	0.399732	-0.000048
 683	6.7859e+01	12.8339	21.586508	0.000121	1.209811	0.409895	-0.000050
 684	6.7959e+01	12.8194	21.539256	0.000116	1.159819	0.392957	-0.000047
 685	6.8058e+01	12.7633	21.489967	0.000121	1.209811	0.409895	-0.000050
 686	6.8157e+01	12.7328	21.441901	0.000118	1.179816	0.399732	-0.000048
 687	6.8257e+01	12.6686	21.389761	0.000128	1.279800	0.433608	-0.000052
 688	6.8356e+01	12.6430	21.342102	0.000117	1.169817	0.396345	-0.000048
 689	6.8456e+01	12.5692	21.289962	0.000128	1.279800	0.433608	-0.000052
 690	6.8555e+01	12.5916	21.244340	-0.000112	-1.119825	-0.379407	-0.000046
 691	6.8655e+01	12.5050	21.189756	0.000134	1.339791	0.453933	-0.000055
 692	6.8754e+01	12.5018	21.142504	0.000116	1.159819	0.392957	-0.000047
 693	6.8854e+01	12.4488	21.089142	0.000131	1.309796	0.443771	-0.000054
 694	6.8954e+01	12.4264	21.042705	0.000114	1.139822	0.386182	-0.000047
 695	6.9053e+01	12.3702	20.985677	0.000140	1.399782	0.474259	-0.000057
 696	6.9153e+01	12.3333	20.936389	0.000121	1.209811	0.409895	-0.000050
 697	6.9252e+01	12.2948	20.888322	0.000118	1.179816	0.399732	-0.000048
 698	6.9352e+01	12.2403	20.837405	0.000125	1.249805	0.423445	-0.000051
 699	6.9451e+01	12.2307	20.788116	0.000121	1.209811	0.409895	-0.000050
 700	6.9550e+01	12.1858	20.734754	0.000131	1.309796	0.443771	-0.000054
 701	6.9650e+01	12.1200	20.687095	0.000117	1.169817	0.396345	-0.000048
 702	6.9749e+01	12.1104	20.632104	0.000135	1.349789	0.457321	-0.000055
 703	6.9849e+01	12.0398	20.583223	0.000120	1.199813	0.406508	-0.000049
 704	6.9948e+01	11.9997	20.532712	0.000124	1.239807	0.420058	-0.000051
 705	7.0048e+01	11.9740	20.478128	0.000134	1.339791	0.453933	-0.000055
 706	7.0147e+01	11.9098	20.425989	0.000128	1.279800	0.433608	-0.000052
 707	7.0247e+01	11.8922	20.375071	0.000125	1.249805	0.423445	-0.000051
 708	7.0347e+01	11.8280	20.319265	0.000137	1.369786	0.464096	-0.000056
 709	7.0446e+01	11.8216	20.264681	0.000134	1.339791	0.453933	-0.000055
 710	7.0546e+01	11.7687	20.211319	0.000131	1.309796	0.443771	-0.000054
 711	7.0645e+01	11.7446	20.160809	0.000124	1.239807	0.420058	-0.000051
 712	7.0745e+01	11.6804	20.103373	0.000141	1.409780	0.477646	-0.000058
 713	7.0844e+01	11.6467	20.051641	0.000127	1.269802	0.430221	-0.000052
 714	7.0944e+01	11.6066	19.996650	0.000135	1.349789	0.457321	-0.000055
 715	7.1043e+01	11.5745	19.944917	0.000127	1.269802	0.430221	-0.000052
 716	7.1142e+01	11.5296	19.888704	0.000138	1.379785	0.467484	-0.000056
 717	7.1242e+01	11.5088	19.835749	0.000130	1.299797	0.440383	-0.000053
 718	7.1341e+01	11.4398	19.779129	0.000139	1.389783	0.470871	-0.000057
 719	7.1441e+01	11.4029	19.726581	0.000129	1.289799	0.436996	-0.000053
 720	7.1540e+01	11.3692	19.676071	0.000124	1.239807	0.420058	-0.000051
 721	7.1640e+01	11.3371	19.617821	0.000143	1.429777	0.484422	-0.000059
 722	7.1740e+01	11.2874	19.560386	0.000141	1.409780	0.477646	-0.000058
 723	7.1839e+01	11.2617	19.506209	0.000133	1.329793	0.450546	-0.000054
 724	7.1939e+01	11.2120	19.452033	0.000133	1.329793	0.450546	-0.000054
 725	7.2038e+01	11.1574	19.395819	0.000138	1.379785	0.467484	-0.000056
 726	7.2138e+01	11.1318	19.344087	0.000127	1.269802	0.430221	-0.000052
 727	7.2237e+01	11.0885	19.288688	0.000136	1.359788	0.460709	-0.000056
 728	7.2337e+01	11.0612	19.237363	0.000126	1.259803	0.426833	-0.000052
 729	7.2436e+01	10.9954	19.179928	0.000141	1.409780	0.477646	-0.000058
 730	7.2535e+01	10.9794	19.129417	0.000124	1.239807	0.420058	-0.000051
 731	7.2635e+01	10.9200	19.073611	0.000137	1.369786	0.464096	-0.000056
 732	7.2734e+01	10.9104	19.025545	0.000118	1.179816	0.399732	-0.000048
 733	7.2834e+01	10.8671	18.970554	0.000135	1.349789	0.457321	-0.000055
 734	7.2933e+01	10.8125	18.915970	0.000134	1.339791	0.453933	-0.000055
 735	7.3033e+01	10.7596	18.860164	0.000137	1.369786	0.464096	-0.000056
 736	7.3132e+01	10.7323	18.812097	0.000118	1.179816	0.399732	-0.000048
 737	7.3232e+01	10.7099	18.756699	0.000136	1.359788	0.460709	-0.000056
 738	7.3332e+01	10.6489	18.702115	0.000134	1.339791	0.453933	-0.000055
 739	7.3431e+01	10.5863	18.649160	0.000130	1.299797	0.440383	-0.000053
 740	7.3531e+01	10.5719	18.594169	0.000135	1.349789	0.457321	-0.000055
 741	7.3630e+01	10.5494	18.538363	0.000137	1.369786	0.464096	-0.000056
 742	7.3730e+01	10.4628	18.487853	0.000124	1.239807	0.420058	-0.000051
 743	7.3829e+01	10.4660	18.431639	-0.000138	-1.379785	-0.467484	-0.000056
 744	7.3928e+01	10.4211	18.377870	0.000132	1.319794	0.447158	-0.000054
 745	7.4028e+01	10.3633	18.322064	0.000137	1.369786	0.464096	-0.000056
 746	7.4127e+01	10.3248	18.271554	0.000124	1.239807	0.420058	-0.000051
 747	7.4227e+01	10.2960	18.216970	0.000134	1.339791	0.453933	-0.000055
 748	7.4326e+01	10.2302	18.161979	0.000135	1.349789	0.457321	-0.000055
 749	7.4426e+01	10.2093	18.102914	0.000145	1.449774	0.491197	-0.000059
 750	7.4525e+01	10.1580	18.053626	0.000121	1.209811	0.409895	-0.000050
 751	7.4625e+01	10.1211	17.994968	0.000144	1.439775	0.487809	-0.000059
 752	7.4725e+01	10.1035	17.933867	0.000150	1.499766	0.508134	-0.000061
 753	7.4824e+01	10.0377	17.881320	0.000129	1.289799	0.436996	-0.000053
 754	7.4924e+01	10.0120	17.823477	0.000142	1.419778	0.481034	-0.000058
 755	7.5023e+01	9.9880	17.767671	0.000137	1.369786	0.464096	-0.000056
 756	7.5123e+01	9.9430	17.711458	0.000138	1.379785	0.467484	-0.000056
 757	7.5222e+01	9.8757	17.657689	0.000132	1.319794	0.447158	-0.000054
 758	7.5322e+01	9.8372	17.601068	0.000139	1.389783	0.470871	-0.000057
 759	7.5421e+01	9.7842	17.548113	0.000130	1.299797	0.440383	-0.000053
 760	7.5520e+01	9.7650	17.488234	0.000147	1.469771	0.497972	-0.000060
 761	7.5620e+01	9.7184	17.432836	0.000136	1.359788	0.460709	-0.000056
 762	7.5719e+01	9.7184	17.380696	0.000128	1.279800	0.433608	-0.000052
 763	7.5819e+01	9.6350	17.325297	0.000136	1.359788	0.460709	-0.000056
 764	7.5918e+01	9.6174	17.268269	0.000140	1.399782	0.474259	-0.000057
 765	7.6018e+01	9.5869	17.210426	0.000142	1.419778	0.481034	-0.000058
 766	7.6118e+01	9.5275	17.154621	0.000137	1.369786	0.464096	-0.000056
 767	7.6217e+01	9.5003	17.097185	0.000141	1.409780	0.477646	-0.000058
 768	7.6317e+01	9.4553	17.041787	0.000136	1.359788	0.460709	-0.000056
 769	7.6416e+01	9.4345	16.986795	0.000135	1.349789	0.457321	-0.000055
 770	7.6516e+01	9.3816	16.931804	0.000135	1.349789	0.457321	-0.000055
 771	7.6615e+01	9.3222	16.872332	0.000146	1.459772	0.494584	-0.000060
 772	7.6715e+01	9.2885	16.817748	0.000134	1.339791	0.453933	-0.000055
 773	7.6814e+01	9.2628	16.764386	0.000131	1.309796	0.443771	-0.000054
 774	7.6913e+01	9.2083	16.711839	0.000129	1.289799	0.436996	-0.000053
 775	7.7013e+01	9.1521	16.655219	0.000139	1.389783	0.470871	-0.000057
 776	7.7112e+01	9.1377	16.597376	0.000142	1.419778	0.481034	-0.000058
 777	7.7212e+01	9.1249	16.546865	0.000124	1.239807	0.420058	-0.000051
 778	7.7311e+01	9.0719	16.488615	0.000143	1.429777	0.484422	-0.000059
 779	7.7411e+01	9.0094	16.432402	0.000138	1.379785	0.467484	-0.000056
 780	7.7510e+01	8.9612	16.377004	0.000136	1.359788	0.460709	-0.000056
 781	7.7610e+01	8.9276	16.322827	0.000133	1.329793	0.450546	-0.000054
 782	7.7710e+01	8.9019	16.269058	0.000132	1.319794	0.447158	-0.000054
 783	7.7809e+01	8.8570	16.207549	0.000151	1.509764	0.511522	-0.000062
 784	7.7909e+01	8.8201	16.153780	0.000132	1.319794	0.447158	-0.000054
 785	7.8008e+01	8.7575	16.101233	0.000129	1.289799	0.436996	-0.000053
 786	7.8108e+01	8.7527	16.045427	0.000137	1.369786	0.464096	-0.000056
 787	7.8207e+01	8.6741	15.985955	0.000146	1.459772	0.494584	-0.000060
 788	7.8306e+01	8.6484	15.931371	0.000134	1.339791	0.453933	-0.000055
 789	7.8406e+01	8.6035	15.876380	0.000135	1.349789	0.457321	-0.000055
 790	7.8505e+01	8.5714	15.823425	0.000130	1.299797	0.440383	-0.000053
 791	7.8605e+01	8.5441	15.768026	0.000136	1.359788	0.460709	-0.000056
 792	7.8704e+01	8.5072	15.715072	0.000130	1.299797	0.440383	-0.000053
 793	7.8804e+01	8.4415	15.660488	0.000134	1.339791	0.453933	-0.000055
 794	7.8903e+01	8.4222	15.607126	0.000131	1.309796	0.443771	-0.000054
 795	7.9003e+01	8.3661	15.549284	0.000142	1.419778	0.481034	-0.000058
 796	7.9103e+01	8.3548	15.498366	0.000125	1.249805	0.423445	-0.000051
 797	7.9202e+01	8.3051	15.440930	0.000141	1.409780	0.477646	-0.000058
 798	7.9302e+01	8.2730	15.387161	0.000132	1.319794	0.447158	-0.000054
 799	7.9401e+01	8.2153	15.333392	0.000132	1.319794	0.447158	-0.000054
 800	7.9501e+01	8.1880	15.275142	0.000143	1.429777	0.484422	-0.000059
 801	7.9600e+01	8.1238	15.220965	0.000133	1.329793	0.450546	-0.000054
 802	7.9700e+01	8.0966	15.165160	0.000137	1.369786	0.464096	-0.000056
 803	7.9799e+01	8.0677	15.113427	0.000127	1.269802	0.430221	-0.000052
 804	7.9898e+01	8.0292	15.057621	0.000137	1.369786	0.464096	-0.000056
 805	7.9998e+01	7.9778	15.003037	0.000134	1.339791	0.453933	-0.000055
 806	8.0097e+01	7.9474	14.948453	0.000134	1.339791	0.453933	-0.000055
 807	8.0197e+01	7.9089	14.895906	0.000129	1.289799	0.436996	-0.000053
 808	8.0296e+01	7.8575	14.840508	0.000136	1.359788	0.460709	-0.000056
 809	8.0396e+01	7.8271	14.783480	0.000140	1.399782	0.474259	-0.000057
 810	8.0496e+01	7.7853	14.728488	0.000135	1.349789	0.457321	-0.000055
 811	8.0595e+01	7.7420	14.671460	0.000140	1.399782	0.474259	-0.000057
 812	8.0695e+01	7.6891	14.614432	0.000140	1.399782	0.474259	-0.000057
 813	8.0794e+01	7.6763	14.554960	0.000146	1.459772	0.494584	-0.000060
 814	8.0894e+01	7.6474	14.497118	0.000142	1.419778	0.481034	-0.000058
 815	8.0993e+01	7.5912	14.436424	0.000149	1.489768	0.504747	-0.000061
 816	8.1093e+01	7.5752	14.380618	0.000137	1.369786	0.464096	-0.000056
 817	8.1192e+01	7.5206	14.326849	0.000132	1.319794	0.447158	-0.000054
 818	8.1291e+01	7.4741	14.266969	0.000147	1.469771	0.497972	-0.000060
 819	8.1391e+01	7.4180	14.206682	0.000148	1.479769	0.501359	-0.000061
 820	8.1490e+01	7.3891	14.143952	0.000154	1.539760	0.521685	-0.000063
 821	8.1590e+01	7.3362	14.089775	0.000133	1.329793	0.450546	-0.000054
 822	8.1689e+01	7.3009	14.029081	0.000149	1.489768	0.504747	-0.000061
 823	8.1789e+01	7.2592	13.971646	0.000141	1.409780	0.477646	-0.000058
 824	8.1888e+01	7.2223	13.909322	0.000153	1.529761	0.518297	-0.000063
 825	8.1988e+01	7.1838	13.848628	0.000149	1.489768	0.504747	-0.000061
 826	8.2088e+01	7.1549	13.789156	0.000146	1.459772	0.494584	-0.000060
 827	8.2187e+01	7.0682	13.728055	0.000150	1.499766	0.508134	-0.000061
 828	8.2287e+01	7.0634	13.670212	0.000142	1.419778	0.481034	-0.000058
 829	8.2386e+01	7.0330	13.611148	0.000145	1.449774	0.491197	-0.000059
 830	8.2486e+01	7.0025	13.553305	0.000142	1.419778	0.481034	-0.000058
 831	8.2585e+01	6.9431	13.490574	0.000154	1.539760	0.521685	-0.000063
 832	8.2684e+01	6.9062	13.435583	0.000135	1.349789	0.457321	-0.000055
 833	8.2784e+01	6.8453	13.370816	0.000159	1.589752	0.538623	-0.000065
 834	8.2883e+01	6.8052	13.315010	0.000137	1.369786	0.464096	-0.000056
 835	8.2983e+01	6.7683	13.260833	0.000133	1.329793	0.450546	-0.000054
 836	8.3082e+01	6.7843	13.198917	-0.000152	-1.519763	-0.514910	-0.000062
 837	8.3182e+01	6.6913	13.137001	0.000152	1.519763	0.514910	-0.000062
 838	8.3281e+01	6.6736	13.084454	0.000129	1.289799	0.436996	-0.000053
 839	8.3381e+01	6.6143	13.024574	0.000147	1.469771	0.497972	-0.000060
 840	8.3481e+01	6.5982	12.962658	0.000152	1.519763	0.514910	-0.000062
 841	8.3580e+01	6.5196	12.902779	0.000147	1.469771	0.497972	-0.000060
 842	8.3680e+01	6.5356	12.840863	-0.000152	-1.519763	-0.514910	-0.000062
 843	8.3779e+01	6.4827	12.784650	0.000138	1.379785	0.467484	-0.000056
 844	8.3879e+01	6.4362	12.723548	0.000150	1.499766	0.508134	-0.000061
 845	8.3978e+01	6.3881	12.661632	0.000152	1.519763	0.514910	-0.000062
 846	8.4078e+01	6.3431	12.606641	0.000135	1.349789	0.457321	-0.000055
 847	8.4177e+01	6.3207	12.544725	0.000152	1.519763	0.514910	-0.000062
 848	8.4276e+01	6.2838	12.482401	0.000153	1.529761	0.518297	-0.000063
 849	8.4376e+01	6.2276	12.422522	0.000147	1.469771	0.497972	-0.000060
 850	8.4475e+01	6.1955	12.361013	0.000151	1.509764	0.511522	-0.000062
 851	8.4575e+01	6.1699	12.300727	0.000148	1.479769	0.501359	-0.000061
 852	8.4674e+01	6.1153	12.234737	0.000162	1.619747	0.548785	-0.000066
 853	8.4774e+01	6.0688	12.172821	0.000152	1.519763	0.514910	-0.000062
 854	8.4874e+01	6.0319	12.111720	0.000150	1.499766	0.508134	-0.000061
 855	8.4973e+01	5.9950	12.046545	0.000160	1.599750	0.542010	-0.000066
 856	8.5073e+01	5.9308	11.983814	0.000154	1.539760	0.521685	-0.000063
 857	8.5172e+01	5.9004	11.921491	0.000153	1.529761	0.518297	-0.000063
 858	8.5272e+01	5.8699	11.854687	0.000164	1.639744	0.555560	-0.000067
 859	8.5371e+01	5.8266	11.790734	0.000157	1.569755	0.531847	-0.000064
 860	8.5471e+01	5.7961	11.728818	0.000152	1.519763	0.514910	-0.000062
 861	8.5570e+01	5.7512	11.667309	0.000151	1.509764	0.511522	-0.000062
 862	8.5669e+01	5.7014	11.596431	0.000174	1.739729	0.589436	-0.000071
 863	8.5769e+01	5.6517	11.536145	0.000148	1.479769	0.501359	-0.000061
 864	8.5868e+01	5.6453	11.466489	0.000171	1.709733	0.579273	-0.000070
 865	8.5968e+01	5.5924	11.402536	0.000157	1.569755	0.531847	-0.000064
 866	8.6067e+01	5.5779	11.340213	0.000153	1.529761	0.518297	-0.000063
 867	8.6167e+01	5.5330	11.277075	0.000155	1.549758	0.525072	-0.000063
 868	8.6266e+01	5.4576	11.207827	0.000170	1.699735	0.575886	-0.000070
 869	8.6366e+01	5.4239	11.148355	0.000146	1.459772	0.494584	-0.000060
 870	8.6466e+01	5.4031	11.077477	0.000174	1.739729	0.589436	-0.000071
 871	8.6565e+01	5.3549	11.015154	0.000153	1.529761	0.518297	-0.000063
 872	8.6665e+01	5.3277	10.944683	0.000173	1.729730	0.586048	-0.000071
 873	8.6764e+01	5.2956	10.881953	0.000154	1.539760	0.521685	-0.000063
 874	8.6864e+01	5.2330	10.812297	0.000171	1.709733	0.579273	-0.000070
 875	8.6963e+01	5.2057	10.746308	0.000162	1.619747	0.548785	-0.000066
 876	8.7063e+01	5.1560	10.675430	0.000174	1.739729	0.589436	-0.000071
 877	8.7162e+01	5.0902	10.607811	0.000166	1.659741	0.562335	-0.000068
 878	8.7261e+01	5.0870	10.542229	0.000161	1.609749	0.545398	-0.000066
 879	8.7361e+01	5.0277	10.468907	0.000180	1.799719	0.609761	-0.000074
 880	8.7460e+01	5.0020	10.402510	0.000163	1.629746	0.552173	-0.000067
 881	8.7560e+01	4.9683	10.332447	0.000172	1.719732	0.582661	-0.000070
 882	8.7659e+01	4.9282	10.266051	0.000163	1.629746	0.552173	-0.000067
 883	8.7759e+01	4.8801	10.197210	0.000169	1.689736	0.572498	-0.000069
 884	8.7859e+01	4.8207	10.130406	0.000164	1.639744	0.555560	-0.000067
 885	8.7958e+01	4.7983	10.059528	0.000174	1.739729	0.589436	-0.000071
 886	8.8058e+01	4.7501	9.988243	0.000175	1.749727	0.592824	-0.000072
 887	8.8157e+01	4.7164	9.918587	0.000171	1.709733	0.579273	-0.000070
 888	8.8257e+01	4.6731	9.847303	0.000175	1.749727	0.592824	-0.000072
 889	8.8356e+01	4.6298	9.777647	0.000171	1.709733	0.579273	-0.000070
 890	8.8456e+01	4.5817	9.707991	0.000171	1.709733	0.579273	-0.000070
 891	8.8555e+01	4.5737	9.636299	0.000176	1.759725	0.596211	-0.000072
 892	8.8654e+01	4.5239	9.569495	0.000164	1.639744	0.555560	-0.000067
 893	8.8754e+01	4.4999	9.491285	0.000192	1.919700	0.650412	-0.000079
 894	8.8853e+01	4.4277	9.425296	0.000162	1.619747	0.548785	-0.000066
 895	8.8953e+01	4.3940	9.356047	0.000170	1.699735	0.575886	-0.000070
 896	8.9052e+01	4.3619	9.289651	0.000163	1.629746	0.552173	-0.000067
 897	8.9152e+01	4.3427	9.215107	0.000183	1.829714	0.619924	-0.000075
 898	8.9251e+01	4.3058	9.150339	0.000159	1.589752	0.538623	-0.000065
 899	8.9351e+01	4.2464	9.079869	0.000173	1.729730	0.586048	-0.000071
 900	8.9451e+01	4.1951	9.007770	0.000177	1.769724	0.599599	-0.000072
 901	8.9550e+01	4.1678	8.938521	0.000170	1.699735	0.575886	-0.000070
 902	8.9650e+01	4.1373	8.866422	0.000177	1.769724	0.599599	-0.000072
 903	8.9749e+01	4.0731	8.794729	0.000176	1.759725	0.596211	-0.000072
 904	8.9849e+01	4.0475	8.728333	0.000163	1.629746	0.552173	-0.000067
 905	8.9948e+01	3.9977	8.655418	0.000179	1.789721	0.606374	-0.000073
 906	9.0047e+01	3.9528	8.586985	0.000168	1.679738	0.569111	-0.000069
 907	9.0147e+01	3.9256	8.516514	0.000173	1.729730	0.586048	-0.000071
 908	9.0246e+01	3.8887	8.437490	0.000194	1.939697	0.657187	-0.000079
 909	9.0346e+01	3.8325	8.376796	0.000149	1.489768	0.504747	-0.000061
 910	9.0445e+01	3.7667	8.304289	0.000178	1.779722	0.602986	-0.000073
 911	9.0545e+01	3.7411	8.233411	0.000174	1.739729	0.589436	-0.000071
 912	9.0644e+01	3.7523	8.158460	-0.000184	-1.839713	-0.623312	-0.000075
 913	9.0744e+01	3.7074	8.088397	0.000172	1.719732	0.582661	-0.000070
 914	9.0844e+01	3.6320	8.016705	0.000176	1.759725	0.596211	-0.000072
 915	9.0943e+01	3.6256	7.947050	0.000171	1.709733	0.579273	-0.000070
 916	9.1043e+01	3.5614	7.872098	0.000184	1.839713	0.623312	-0.000075
 917	9.1142e+01	3.5518	7.801221	0.000174	1.739729	0.589436	-0.000071
 918	9.1242e+01	3.4635	7.727085	0.000182	1.819716	0.616536	-0.000075
 919	9.1341e+01	3.4266	7.650911	0.000187	1.869708	0.633474	-0.000077
 920	9.1441e+01	3.3978	7.576368	0.000183	1.829714	0.619924	-0.000075
 921	9.1540e+01	3.3561	7.503861	0.000178	1.779722	0.602986	-0.000073
 922	9.1639e+01	3.3432	7.429317	0.000183	1.829714	0.619924	-0.000075
 923	9.1739e+01	3.2742	7.354366	0.000184	1.839713	0.623312	-0.000075
 924	9.1838e+01	3.2502	7.278193	0.000187	1.869708	0.633474	-0.000077
 925	9.1938e+01	3.2229	7.210574	0.000166	1.659741	0.562335	-0.000068
 926	9.2037e+01	3.1812	7.134808	0.000186	1.859710	0.630087	-0.000076
 927	9.2137e+01	3.1619	7.057006	0.000191	1.909702	0.647025	-0.000078
 928	9.2237e+01	3.0689	6.983277	0.000181	1.809718	0.613149	-0.000074
 929	9.2336e+01	3.0192	6.906697	0.000188	1.879707	0.636862	-0.000077
 930	9.2436e+01	2.9999	6.829302	0.000190	1.899704	0.643637	-0.000078
 931	9.2535e+01	2.9694	6.758017	0.000175	1.749727	0.592824	-0.000072
 932	9.2635e+01	2.9197	6.681844	0.000187	1.869708	0.633474	-0.000077
 933	9.2734e+01	2.8780	6.605263	0.000188	1.879707	0.636862	-0.000077
 934	9.2834e+01	2.8427	6.527461	0.000191	1.909702	0.647025	-0.000078
 935	9.2933e+01	2.7978	6.453732	0.000181	1.809718	0.613149	-0.000074
 936	9.3032e+01	2.7689	6.384076	0.000171	1.709733	0.579273	-0.000070
 937	9.3132e+01	2.7160	6.305459	0.000193	1.929699	0.653800	-0.000079
 938	9.3231e+01	2.6839	6.234581	0.000174	1.739729	0.589436	-0.000071
 939	9.3331e+01	2.6486	6.154335	0.000197	1.969693	0.667350	-0.000081
 940	9.3430e+01	2.6133	6.083457	0.000174	1.739729	0.589436	-0.000071
 941	9.3530e+01	2.5475	6.007284	0.000187	1.869708	0.633474	-0.000077
 942	9.3629e+01	2.5363	5.929889	0.000190	1.899704	0.643637	-0.000078
 943	9.3729e+01	2.4930	5.853716	0.000187	1.869708	0.633474	-0.000077
 944	9.3829e+01	2.4416	5.781617	0.000177	1.769724	0.599599	-0.000072
 945	9.3928e+01	2.4192	5.702999	0.000193	1.929699	0.653800	-0.000079
 946	9.4028e+01	2.3502	5.631307	0.000176	1.759725	0.596211	-0.000072
 947	9.4127e+01	2.3422	5.549839	0.000200	1.999688	0.677513	-0.000082
 948	9.4227e+01	2.3181	5.477739	0.000177	1.769724	0.599599	-0.000072
 949	9.4326e+01	2.2459	5.401973	0.000186	1.859710	0.630087	-0.000076
 950	9.4425e+01	2.2026	5.324986	0.000189	1.889705	0.640249	-0.000077
 951	9.4525e+01	2.1320	5.245146	0.000196	1.959694	0.663962	-0.000080
 952	9.4624e+01	2.1352	5.169381	-0.000186	-1.859710	-0.630087	-0.000076
 953	9.4724e+01	2.0695	5.092393	0.000189	1.889705	0.640249	-0.000077
 954	9.4823e+01	2.0438	5.012961	0.000195	1.949696	0.660575	-0.000080
 955	9.4923e+01	1.9909	4.935566	0.000190	1.899704	0.643637	-0.000078
 956	9.5022e+01	1.9909	4.858578	0.000189	1.889705	0.640249	-0.000077
 957	9.5122e+01	1.9138	4.785257	0.000180	1.799719	0.609761	-0.000074
 958	9.5222e+01	1.8737	4.707862	0.000190	1.899704	0.643637	-0.000078
 959	9.5321e+01	1.8609	4.628430	0.000195	1.949696	0.660575	-0.000080
 960	9.5421e+01	1.8096	4.550220	0.000192	1.919700	0.650412	-0.000079
 961	9.5520e+01	1.8096	4.482194	0.000167	1.669739	0.565723	-0.000068
 962	9.5620e+01	1.7181	4.399911	0.000202	2.019685	0.684288	-0.000083
 963	9.5719e+01	1.6620	4.324145	0.000186	1.859710	0.630087	-0.000076
 964	9.5819e+01	1.6427	4.245120	0.000194	1.939697	0.657187	-0.000079
 965	9.5918e+01	1.6139	4.172206	0.000179	1.789721	0.606374	-0.000073
 966	9.6017e+01	1.5850	4.091960	0.000197	1.969693	0.667350	-0.000081
 967	9.6117e+01	1.5272	4.014157	0.000191	1.909702	0.647025	-0.000078
 968	9.6216e+01	1.4711	3.937984	0.000187	1.869708	0.633474	-0.000077
 969	9.6316e+01	1.4390	3.857738	0.000197	1.969693	0.667350	-0.000081
 970	9.6415e+01	1.4101	3.784416	0.000180	1.799719	0.609761	-0.000074
 971	9.6515e+01	1.3620	3.702133	0.000202	2.019685	0.684288	-0.000083
 972	9.6615e+01	1.3074	3.624330	0.000191	1.909702	0.647025	-0.000078
 973	9.6714e+01	1.2738	3.545713	0.000193	1.929699	0.653800	-0.000079
 974	9.6814e+01	1.2770	3.467096	-0.000193	-1.929699	-0.653800	-0.000079
 975	9.6913e+01	1.1855	3.393774	0.000180	1.799719	0.609761	-0.000074
 976	9.7013e+01	1.1631	3.312306	0.000200	1.999688	0.677513	-0.000082
 977	9.7112e+01	1.1358	3.229208	0.000204	2.039682	0.691063	-0.000084
 978	9.7212e+01	1.0989	3.152628	0.000188	1.879707	0.636862	-0.000077
 979	9.7311e+01	1.0780	3.074825	0.000191	1.909702	0.647025	-0.000078
 980	9.7410e+01	0.9882	2.994171	0.000198	1.979691	0.670738	-0.000081
 981	9.7510e+01	0.9690	2.904963	0.000219	2.189658	0.741876	-0.000090
 982	9.7609e+01	0.9128	2.822273	0.000203	2.029683	0.687675	-0.000083
 983	9.7709e+01	0.8952	2.741619	0.000198	1.979691	0.670738	-0.000081
 984	9.7808e+01	0.8182	2.661373	0.000197	1.969693	0.667350	-0.000081
 985	9.7908e+01	0.8214	2.575831	-0.000210	-2.099672	-0.711388	-0.000086
 986	9.8007e+01	0.7764	2.491511	0.000207	2.069677	0.701226	-0.000085
 987	9.8107e+01	0.7540	2.410450	0.000199	1.989690	0.674125	-0.000081
 988	9.8207e+01	0.6850	2.331425	0.000194	1.939697	0.657187	-0.000079
 989	9.8306e+01	0.6481	2.245476	0.000211	2.109671	0.714776	-0.000086
 990	9.8406e+01	0.5984	2.161971	0.000205	2.049680	0.694450	-0.000084
 991	9.8505e+01	0.5535	2.079280	0.000203	2.029683	0.687675	-0.000083
 992	9.8605e+01	0.5101	1.996997	0.000202	2.019685	0.684288	-0.000083
 993	9.8704e+01	0.5150	1.910233	-0.000213	-2.129668	-0.721551	-0.000087
 994	9.8803e+01	0.4700	1.823876	0.000212	2.119669	0.718163	-0.000087
 995	9.8903e+01	0.3995	1.742408	0.000200	1.999688	0.677513	-0.000082
 996	9.9002e+01	0.3786	1.657681	0.000208	2.079675	0.704613	-0.000085
 997	9.9102e+01	0.3321	1.569287	0.000217	2.169661	0.735101	-0.000089
 998	9.9201e+01	0.2952	1.489041	0.000197	1.969693	0.667350	-0.000081
 999	9.9301e+01	0.2422	1.402684	0.000212	2.119669	0.718163	-0.000087
1000	9.9400e+01	0.2134	1.315920	0.000213	2.129668	0.721551	-0.000087
1001	9.9500e+01	0.1893	1.236488	0.000195	1.949696	0.660575	-0.000080
1002	9.9600e+01	0.1460	1.152576	0.000206	2.059679	0.697838	-0.000084
1003	9.9699e+01	0.0898	1.071515	0.000199	1.989690	0.674125	-0.000081
1004	9.9799e+01	0.0642	0.983529	0.000216	2.159663	0.731714	-0.000088
1005	9.9898e+01	0.0433	0.922020	0.000151	1.509764	0.511522	-0.000062
1006	9.9998e+01	-0.0128	0.837700	0.000207	2.069677	0.701226	-0.000085
1007	1.0010e+02	-0.0626	0.752973	0.000208	2.079675	0.704613	-0.000085
1008	1.0020e+02	-0.0898	0.663765	0.000219	2.189658	0.741876	-0.000090
1009	1.0030e+02	-0.1251	0.577815	0.000211	2.109671	0.714776	-0.000086
1010	1.0040e+02	-0.1909	0.496347	0.000200	1.999688	0.677513	-0.000082
1011	1.0050e+02	-0.2134	0.408768	0.000215	2.149665	0.728326	-0.000088
1012	1.0059e+02	-0.2599	0.326485	0.000202	2.019685	0.684288	-0.000083
1013	1.0069e+02	-0.3096	0.239721	0.000213	2.129668	0.721551	-0.000087
1014	1.0079e+02	-0.3096	0.156216	0.000205	2.049680	0.694450	-0.000084
1015	1.0089e+02	-0.3930	0.067008	0.000219	2.189658	0.741876	-0.000090
1016	1.0099e+02	-0.4011	-0.022200	0.000219	2.189658	0.741876	-0.000090
1017	1.0109e+02	-0.4572	-0.097559	0.000185	1.849711	0.626699	-0.000076
1018	1.0119e+02	-0.5037	-0.187989	0.000222	2.219654	0.752039	-0.000091
1019	1.0129e+02	-0.5599	-0.272716	0.000208	2.079675	0.704613	-0.000085
1020	1.0139e+02	-0.6096	-0.359887	0.000214	2.139666	0.724939	-0.000088
1021	1.0149e+02	-0.6401	-0.449503	0.000220	2.199657	0.745264	-0.000090
1022	1.0159e+02	-0.6706	-0.536266	0.000213	2.129668	0.721551	-0.000087
1023	1.0169e+02	-0.7267	-0.618550	0.000202	2.019685	0.684288	-0.000083
1024	1.0179e+02	-0.7363	-0.709387	0.000223	2.229652	0.755427	-0.000091
1025	1.0189e+02	-0.7636	-0.793300	0.000206	2.059679	0.697838	-0.000084
1026	1.0199e+02	-0.8214	-0.891877	0.000242	2.419622	0.819790	-0.000099
1027	1.0209e+02	-0.8535	-0.969272	0.000190	1.899704	0.643637	-0.000078
1028	1.0219e+02	-0.8807	-1.056850	0.000215	2.149665	0.728326	-0.000088
1029	1.0229e+02	-0.9289	-1.154205	0.000239	2.389627	0.809628	-0.000098
1030	1.0239e+02	-0.9786	-1.232822	0.000193	1.929699	0.653800	-0.000079
1031	1.0248e+02	-0.9978	-1.322845	0.000221	2.209655	0.748651	-0.000090
1032	1.0258e+02	-1.0331	-1.409609	0.000213	2.129668	0.721551	-0.000087
1033	1.0268e+02	-1.1053	-1.498817	0.000219	2.189658	0.741876	-0.000090
1034	1.0278e+02	-1.1246	-1.585174	0.000212	2.119669	0.718163	-0.000087
1035	1.0288e+02	-1.1647	-1.675604	0.000222	2.219654	0.752039	-0.000091
1036	1.0298e+02	-1.2192	-1.757479	0.000201	2.009686	0.680900	-0.000082
1037	1.0308e+02	-1.2722	-1.845873	0.000217	2.169661	0.735101	-0.000089
1038	1.0318e+02	-1.2673	-1.930600	-0.000208	-2.079675	-0.704613	-0.000085
1039	1.0328e+02	-1.3476	-2.019808	0.000219	2.189658	0.741876	-0.000090
1040	1.0338e+02	-1.3812	-2.107387	0.000215	2.149665	0.728326	-0.000088
1041	1.0348e+02	-1.4310	-2.197409	0.000221	2.209655	0.748651	-0.000090
1042	1.0358e+02	-1.4887	-2.280507	0.000204	2.039682	0.691063	-0.000084
1043	1.0368e+02	-1.5224	-2.366864	0.000212	2.119669	0.718163	-0.000087
1044	1.0378e+02	-1.5272	-2.456479	0.000220	2.199657	0.745264	-0.000090
1045	1.0388e+02	-1.5577	-2.547317	0.000223	2.229652	0.755427	-0.000091
1046	1.0398e+02	-1.6010	-2.635710	0.000217	2.169661	0.735101	-0.000089
1047	1.0408e+02	-1.6492	-2.722881	0.000214	2.139666	0.724939	-0.000088
1048	1.0418e+02	-1.6877	-2.810460	0.000215	2.149665	0.728326	-0.000088
1049	1.0428e+02	-1.7310	-2.897224	0.000213	2.129668	0.721551	-0.000087
1050	1.0438e+02	-1.7743	-2.980729	0.000205	2.049680	0.694450	-0.000084
1051	1.0447e+02	-1.7903	-3.070344	0.000220	2.199657	0.745264	-0.000090
1052	1.0457e+02	-1.8385	-3.156701	0.000212	2.119669	0.718163	-0.000087
1053	1.0467e+02	-1.8962	-3.243465	0.000213	2.129668	0.721551	-0.000087
1054	1.0477e+02	-1.9491	-3.334302	0.000223	2.229652	0.755427	-0.000091
1055	1.0487e+02	-1.9780	-3.420252	0.000211	2.109671	0.714776	-0.000086
1056	1.0497e+02	-2.0294	-3.507016	0.000213	2.129668	0.721551	-0.000087
1057	1.0507e+02	-2.0550	-3.591743	0.000208	2.079675	0.704613	-0.000085
1058	1.0517e+02	-2.0775	-3.680136	0.000217	2.169661	0.735101	-0.000089
1059	1.0527e+02	-2.1368	-3.766493	0.000212	2.119669	0.718163	-0.000087
1060	1.0537e+02	-2.1834	-3.848776	0.000202	2.019685	0.684288	-0.000083
1061	1.0547e+02	-2.2154	-3.935540	0.000213	2.129668	0.721551	-0.000087
1062	1.0557e+02	-2.2796	-4.021082	0.000210	2.099672	0.711388	-0.000086
1063	1.0567e+02	-2.2973	-4.098070	0.000189	1.889705	0.640249	-0.000077
1064	1.0577e+02	-2.3293	-4.182797	0.000208	2.079675	0.704613	-0.000085
1065	1.0587e+02	-2.3566	-4.267524	0.000208	2.079675	0.704613	-0.000085
1066	1.0597e+02	-2.3983	-4.353474	0.000211	2.109671	0.714776	-0.000086
1067	1.0607e+02	-2.4817	-4.427203	0.000181	1.809718	0.613149	-0.000074
1068	1.0617e+02	-2.4689	-4.509078	-0.000201	-2.009686	-0.680900	-0.000082
1069	1.0627e+02	-2.5283	-4.592584	0.000205	2.049680	0.694450	-0.000084
1070	1.0637e+02	-2.5716	-4.680162	0.000215	2.149665	0.728326	-0.000088
1071	1.0647e+02	-2.6309	-4.758372	0.000192	1.919700	0.650412	-0.000079
1072	1.0656e+02	-2.6422	-4.838618	0.000197	1.969693	0.667350	-0.000081
1073	1.0666e+02	-2.6678	-4.920494	0.000201	2.009686	0.680900	-0.000082
1074	1.0676e+02	-2.7031	-5.002778	0.000202	2.019685	0.684288	-0.000083
1075	1.0686e+02	-2.8058	-5.078543	0.000186	1.859710	0.630087	-0.000076
1076	1.0696e+02	-2.8026	-5.159197	-0.000198	-1.979691	-0.670738	-0.000081
1077	1.0706e+02	-2.8363	-5.239444	0.000197	1.969693	0.667350	-0.000081
1078	1.0716e+02	-2.9277	-5.318875	0.000195	1.949696	0.660575	-0.000080
1079	1.0726e+02	-2.9101	-5.394234	-0.000185	-1.849711	-0.626699	-0.000076
1080	1.0736e+02	-2.9726	-5.476110	0.000201	2.009686	0.680900	-0.000082
1081	1.0746e+02	-3.0160	-5.553505	0.000190	1.899704	0.643637	-0.000078
1082	1.0756e+02	-3.0224	-5.630900	0.000190	1.899704	0.643637	-0.000078
1083	1.0766e+02	-3.0849	-5.713998	0.000204	2.039682	0.691063	-0.000084
1084	1.0776e+02	-3.1395	-5.795059	0.000199	1.989690	0.674125	-0.000081
1085	1.0786e+02	-3.1684	-5.868380	0.000180	1.799719	0.609761	-0.000074
1086	1.0796e+02	-3.2245	-5.946998	0.000193	1.929699	0.653800	-0.000079
1087	1.0806e+02	-3.2470	-6.027651	0.000198	1.979691	0.670738	-0.000081
1088	1.0816e+02	-3.3159	-6.107083	0.000195	1.949696	0.660575	-0.000080
1089	1.0826e+02	-3.3464	-6.186922	0.000196	1.959694	0.663962	-0.000080
1090	1.0836e+02	-3.3641	-6.261873	0.000184	1.839713	0.623312	-0.000075
1091	1.0845e+02	-3.3913	-6.342935	0.000199	1.989690	0.674125	-0.000081
1092	1.0855e+02	-3.4331	-6.413405	0.000173	1.729730	0.586048	-0.000071
1093	1.0865e+02	-3.4459	-6.492429	0.000194	1.939697	0.657187	-0.000079
1094	1.0875e+02	-3.5117	-6.570639	0.000192	1.919700	0.650412	-0.000079
1095	1.0885e+02	-3.5566	-6.645183	0.000183	1.829714	0.619924	-0.000075
1096	1.0895e+02	-3.6240	-6.725837	0.000198	1.979691	0.670738	-0.000081
1097	1.0905e+02	-3.6480	-6.800380	0.000183	1.829714	0.619924	-0.000075
1098	1.0915e+02	-3.6929	-6.876146	0.000186	1.859710	0.630087	-0.000076
1099	1.0925e+02	-3.7363	-6.949875	0.000181	1.809718	0.613149	-0.000074
1100	1.0935e+02	-3.7667	-7.021975	0.000177	1.769724	0.599599	-0.000072
1101	1.0945e+02	-3.8149	-7.096926	0.000184	1.839713	0.623312	-0.000075
1102	1.0955e+02	-3.8197	-7.169025	0.000177	1.769724	0.599599	-0.000072
1103	1.0965e+02	-3.8919	-7.247235	0.000192	1.919700	0.650412	-0.000079
1104	1.0975e+02	-3.9159	-7.326259	0.000194	1.939697	0.657187	-0.000079
1105	1.0985e+02	-3.9721	-7.391434	0.000160	1.599750	0.542010	-0.000066
1106	1.0995e+02	-4.0138	-7.473717	0.000202	2.019685	0.684288	-0.000083
1107	1.1005e+02	-4.0250	-7.542151	0.000168	1.679738	0.569111	-0.000069
1108	1.1015e+02	-4.0908	-7.613029	0.000174	1.739729	0.589436	-0.000071
1109	1.1025e+02	-4.1389	-7.682684	0.000171	1.709733	0.579273	-0.000070
1110	1.1035e+02	-4.1534	-7.758043	0.000185	1.849711	0.626699	-0.000076
1111	1.1044e+02	-4.2143	-7.824032	0.000162	1.619747	0.548785	-0.000066
1112	1.1054e+02	-4.2624	-7.898983	0.000184	1.839713	0.623312	-0.000075
1113	1.1064e+02	-4.2849	-7.966602	0.000166	1.659741	0.562335	-0.000068
1114	1.1074e+02	-4.3058	-8.041146	0.000183	1.829714	0.619924	-0.000075
1115	1.1084e+02	-4.3972	-8.105506	0.000158	1.579754	0.535235	-0.000065
1116	1.1094e+02	-4.4068	-8.178827	0.000180	1.799719	0.609761	-0.000074
1117	1.1104e+02	-4.4485	-8.246446	0.000166	1.659741	0.562335	-0.000068
1118	1.1114e+02	-4.4598	-8.316917	0.000173	1.729730	0.586048	-0.000071
1119	1.1124e+02	-4.5320	-8.389424	0.000178	1.779722	0.602986	-0.000073
1120	1.1134e+02	-4.5560	-8.453376	0.000157	1.569755	0.531847	-0.000064
1121	1.1144e+02	-4.5849	-8.524254	0.000174	1.739729	0.589436	-0.000071
1122	1.1154e+02	-4.6426	-8.593502	0.000170	1.699735	0.575886	-0.000070
1123	1.1164e+02	-4.6763	-8.665194	0.000176	1.759725	0.596211	-0.000072
1124	1.1174e+02	-4.6924	-8.730369	0.000160	1.599750	0.542010	-0.000066
1125	1.1184e+02	-4.7582	-8.797988	0.000166	1.659741	0.562335	-0.000068
1126	1.1194e+02	-4.7742	-8.861534	0.000156	1.559757	0.528460	-0.000064
1127	1.1204e+02	-4.8368	-8.931596	0.000172	1.719732	0.582661	-0.000070
1128	1.1214e+02	-4.8672	-8.993920	0.000153	1.529761	0.518297	-0.000063
1129	1.1224e+02	-4.9154	-9.059095	0.000160	1.599750	0.542010	-0.000066
1130	1.1234e+02	-4.9827	-9.125084	0.000162	1.619747	0.548785	-0.000066
1131	1.1244e+02	-4.9988	-9.190259	0.000160	1.599750	0.542010	-0.000066
1132	1.1253e+02	-5.0164	-9.256656	0.000163	1.629746	0.552173	-0.000067
1133	1.1263e+02	-5.0485	-9.320609	0.000157	1.569755	0.531847	-0.000064
1134	1.1273e+02	-5.1175	-9.387820	0.000165	1.649743	0.558948	-0.000068
1135	1.1283e+02	-5.1897	-9.455846	0.000167	1.669739	0.565723	-0.000068
1136	1.1293e+02	-5.1720	-9.518577	-0.000154	-1.539760	-0.521685	-0.000063
1137	1.1303e+02	-5.2346	-9.586603	0.000167	1.669739	0.565723	-0.000068
1138	1.1313e+02	-5.2827	-9.646483	0.000147	1.469771	0.497972	-0.000060
1139	1.1323e+02	-5.3196	-9.713287	0.000164	1.639744	0.555560	-0.000067
1140	1.1333e+02	-5.3549	-9.767871	0.000134	1.339791	0.453933	-0.000055
1141	1.1343e+02	-5.3998	-9.838748	0.000174	1.739729	0.589436	-0.000071
1142	1.1353e+02	-5.4576	-9.899035	0.000148	1.479769	0.501359	-0.000061
1143	1.1363e+02	-5.4929	-9.961766	0.000154	1.539760	0.521685	-0.000063
1144	1.1373e+02	-5.5330	-10.024904	0.000155	1.549758	0.525072	-0.000063
1145	1.1383e+02	-5.5635	-10.091708	0.000164	1.639744	0.555560	-0.000067
1146	1.1393e+02	-5.5924	-10.149958	0.000143	1.429777	0.484422	-0.000059
1147	1.1403e+02	-5.6325	-10.220021	0.000172	1.719732	0.582661	-0.000070
1148	1.1413e+02	-5.6517	-10.280715	0.000149	1.489768	0.504747	-0.000061
1149	1.1423e+02	-5.7640	-10.349963	0.000170	1.699735	0.575886	-0.000070
1150	1.1433e+02	-5.7560	-10.414731	-0.000159	-1.589752	-0.538623	-0.000065
1151	1.1442e+02	-5.7849	-10.472166	0.000141	1.409780	0.477646	-0.000058
1152	1.1452e+02	-5.8378	-10.535711	0.000156	1.559757	0.528460	-0.000064
1153	1.1462e+02	-5.8843	-10.605367	0.000171	1.709733	0.579273	-0.000070
1154	1.1472e+02	-5.9405	-10.667283	0.000152	1.519763	0.514910	-0.000062
1155	1.1482e+02	-5.9373	-10.730421	-0.000155	-1.549758	-0.525072	-0.000063
1156	1.1492e+02	-5.9934	-10.796411	0.000162	1.619747	0.548785	-0.000066
1157	1.1502e+02	-6.0287	-10.857919	0.000151	1.509764	0.511522	-0.000062
1158	1.1512e+02	-6.0672	-10.924724	0.000164	1.639744	0.555560	-0.000067
1159	1.1522e+02	-6.1314	-10.983788	0.000145	1.449774	0.491197	-0.000059
1160	1.1532e+02	-6.1683	-11.046112	0.000153	1.529761	0.518297	-0.000063
1161	1.1542e+02	-6.1955	-11.116989	0.000174	1.739729	0.589436	-0.000071
1162	1.1552e+02	-6.2533	-11.176461	0.000146	1.459772	0.494584	-0.000060
1163	1.1562e+02	-6.3014	-11.241636	0.000160	1.599750	0.542010	-0.000066
1164	1.1572e+02	-6.3030	-11.300701	0.000145	1.449774	0.491197	-0.000059
1165	1.1582e+02	-6.3528	-11.359358	0.000144	1.439775	0.487809	-0.000059
1166	1.1592e+02	-6.4089	-11.426977	0.000166	1.659741	0.562335	-0.000068
1167	1.1602e+02	-6.4474	-11.481968	0.000135	1.349789	0.457321	-0.000055
1168	1.1612e+02	-6.4442	-11.541033	-0.000145	-1.449774	-0.491197	-0.000059
1169	1.1622e+02	-6.5292	-11.603764	0.000154	1.539760	0.521685	-0.000063
1170	1.1632e+02	-6.5340	-11.657940	0.000133	1.329793	0.450546	-0.000054
1171	1.1642e+02	-6.5934	-11.727188	0.000170	1.699735	0.575886	-0.000070
1172	1.1651e+02	-6.6431	-11.788697	0.000151	1.509764	0.511522	-0.000062
1173	1.1661e+02	-6.6736	-11.846947	0.000143	1.429777	0.484422	-0.000059
1174	1.1671e+02	-6.7217	-11.905604	0.000144	1.439775	0.487809	-0.000059
1175	1.1681e+02	-6.7458	-11.965891	0.000148	1.479769	0.501359	-0.000061
1176	1.1691e+02	-6.7763	-12.026993	0.000150	1.499766	0.508134	-0.000061
1177	1.1701e+02	-6.8212	-12.081984	0.000135	1.349789	0.457321	-0.000055
1178	1.1711e+02	-6.8308	-12.149603	0.000166	1.659741	0.562335	-0.000068
1179	1.1721e+02	-6.9255	-12.207038	0.000141	1.409780	0.477646	-0.000058
1180	1.1731e+02	-6.9447	-12.269769	0.000154	1.539760	0.521685	-0.000063
1181	1.1741e+02	-6.9720	-12.329241	0.000146	1.459772	0.494584	-0.000060
1182	1.1751e+02	-6.9961	-12.388713	0.000146	1.459772	0.494584	-0.000060
1183	1.1761e+02	-7.0955	-12.449814	0.000150	1.499766	0.508134	-0.000061
1184	1.1771e+02	-7.1228	-12.508064	0.000143	1.429777	0.484422	-0.000059
1185	1.1781e+02	-7.1629	-12.569980	0.000152	1.519763	0.514910	-0.000062
1186	1.1791e+02	-7.1982	-12.626193	0.000138	1.379785	0.467484	-0.000056
1187	1.1801e+02	-7.2431	-12.689739	0.000156	1.559757	0.528460	-0.000064
1188	1.1811e+02	-7.2720	-12.750026	0.000148	1.479769	0.501359	-0.000061
1189	1.1821e+02	-7.3041	-12.808276	0.000143	1.429777	0.484422	-0.000059
1190	1.1831e+02	-7.3313	-12.867748	0.000146	1.459772	0.494584	-0.000060
1191	1.1841e+02	-7.3859	-12.927627	0.000147	1.469771	0.497972	-0.000060
1192	1.1850e+02	-7.4452	-12.992394	0.000159	1.589752	0.538623	-0.000065
1193	1.1860e+02	-7.4597	-13.051866	0.000146	1.459772	0.494584	-0.000060
1194	1.1870e+02	-7.5158	-13.110931	0.000145	1.449774	0.491197	-0.000059
1195	1.1880e+02	-7.5591	-13.174476	0.000156	1.559757	0.528460	-0.000064
1196	1.1890e+02	-7.6041	-13.234763	0.000148	1.479769	0.501359	-0.000061
1197	1.1900e+02	-7.6410	-13.295457	0.000149	1.489768	0.504747	-0.000061
1198	1.1910e+02	-7.6570	-13.360632	0.000160	1.599750	0.542010	-0.000066
1199	1.1920e+02	-7.6955	-13.419289	0.000144	1.439775	0.487809	-0.000059
1200	1.1930e+02	-7.7613	-13.476725	0.000141	1.409780	0.477646	-0.000058
1201	1.1940e+02	-7.7998	-13.536604	0.000147	1.469771	0.497972	-0.000060
1202	1.1950e+02	-7.8142	-13.595669	0.000145	1.449774	0.491197	-0.000059
1203	1.1960e+02	-7.8672	-13.656770	0.000150	1.499766	0.508134	-0.000061
1204	1.1970e+02	-7.8752	-13.716649	0.000147	1.469771	0.497972	-0.000060
1205	1.1980e+02	-7.9602	-13.778565	0.000152	1.519763	0.514910	-0.000062
1206	1.1990e+02	-8.0051	-13.838852	0.000148	1.479769	0.501359	-0.000061
1207	1.2000e+02	-8.0228	-13.900768	0.000152	1.519763	0.514910	-0.000062
1208	1.2010e+02	-8.0853	-13.957389	0.000139	1.389783	0.470871	-0.000057
1209	1.2020e+02	-8.0982	-14.022564	0.000160	1.599750	0.542010	-0.000066
1210	1.2030e+02	-8.1495	-14.083665	0.000150	1.499766	0.508134	-0.000061
1211	1.2039e+02	-8.1671	-14.140693	0.000140	1.399782	0.474259	-0.000057
1212	1.2049e+02	-8.2249	-14.204646	0.000157	1.569755	0.531847	-0.000064
1213	1.2059e+02	-8.2602	-14.264932	0.000148	1.479769	0.501359	-0.000061
1214	1.2069e+02	-8.3147	-14.326441	0.000151	1.509764	0.511522	-0.000062
1215	1.2079e+02	-8.3532	-14.390394	0.000157	1.569755	0.531847	-0.000064
1216	1.2089e+02	-8.3966	-14.452310	0.000152	1.519763	0.514910	-0.000062
1217	1.2099e+02	-8.4318	-14.511782	0.000146	1.459772	0.494584	-0.000060
1218	1.2109e+02	-8.4639	-14.568810	0.000140	1.399782	0.474259	-0.000057
1219	1.2119e+02	-8.4495	-14.629097	-0.000148	-1.479769	-0.501359	-0.000061
1220	1.2129e+02	-8.5730	-14.693050	0.000157	1.569755	0.531847	-0.000064
1221	1.2139e+02	-8.5762	-14.753744	0.000149	1.489768	0.504747	-0.000061
1222	1.2149e+02	-8.6067	-14.813216	0.000146	1.459772	0.494584	-0.000060
1223	1.2159e+02	-8.6677	-14.878798	0.000161	1.609749	0.545398	-0.000066
1224	1.2169e+02	-8.7126	-14.939492	0.000149	1.489768	0.504747	-0.000061
1225	1.2179e+02	-8.7687	-14.997334	0.000142	1.419778	0.481034	-0.000058
1226	1.2189e+02	-8.7912	-15.058436	0.000150	1.499766	0.508134	-0.000061
1227	1.2199e+02	-8.8121	-15.117093	0.000144	1.439775	0.487809	-0.000059
1228	1.2209e+02	-8.8826	-15.182268	0.000160	1.599750	0.542010	-0.000066
1229	1.2219e+02	-8.9099	-15.241333	0.000145	1.449774	0.491197	-0.000059
1230	1.2229e+02	-8.9693	-15.294694	0.000131	1.309796	0.443771	-0.000054
1231	1.2239e+02	-8.9981	-15.351315	0.000139	1.389783	0.470871	-0.000057
1232	1.2248e+02	-9.0094	-15.412824	0.000151	1.509764	0.511522	-0.000062
1233	1.2258e+02	-9.0848	-15.475555	0.000154	1.539760	0.521685	-0.000063
1234	1.2268e+02	-9.0816	-15.524028	-0.000119	-1.189814	-0.403120	-0.000049
1235	1.2278e+02	-9.1698	-15.590832	0.000164	1.639744	0.555560	-0.000067
1236	1.2288e+02	-9.1890	-15.647046	0.000138	1.379785	0.467484	-0.000056
1237	1.2298e+02	-9.2308	-15.707332	0.000148	1.479769	0.501359	-0.000061
1238	1.2308e+02	-9.2340	-15.764768	0.000141	1.409780	0.477646	-0.000058
1239	1.2318e+02	-9.2757	-15.822203	0.000141	1.409780	0.477646	-0.000058
1240	1.2328e+02	-9.3302	-15.878824	0.000139	1.389783	0.470871	-0.000057
1241	1.2338e+02	-9.3735	-15.939518	0.000149	1.489768	0.504747	-0.000061
1242	1.2348e+02	-9.3944	-15.990843	0.000126	1.259803	0.426833	-0.000052
1243	1.2358e+02	-9.4698	-16.047463	0.000139	1.389783	0.470871	-0.000057
1244	1.2368e+02	-9.4938	-16.099196	0.000127	1.269802	0.430221	-0.000052
1245	1.2378e+02	-9.5307	-16.165185	0.000162	1.619747	0.548785	-0.000066
1246	1.2388e+02	-9.5468	-16.217733	0.000129	1.289799	0.436996	-0.000053
1247	1.2398e+02	-9.6078	-16.275983	0.000143	1.429777	0.484422	-0.000059
1248	1.2408e+02	-9.6286	-16.327715	0.000127	1.269802	0.430221	-0.000052
1249	1.2418e+02	-9.6928	-16.390853	0.000155	1.549758	0.525072	-0.000063
1250	1.2428e+02	-9.7313	-16.444215	0.000131	1.309796	0.443771	-0.000054
1251	1.2438e+02	-9.7650	-16.503687	0.000146	1.459772	0.494584	-0.000060
1252	1.2447e+02	-9.8227	-16.559086	0.000136	1.359788	0.460709	-0.000056
1253	1.2457e+02	-9.8580	-16.619780	0.000149	1.489768	0.504747	-0.000061
1254	1.2467e+02	-9.8981	-16.673142	0.000131	1.309796	0.443771	-0.000054
1255	1.2477e+02	-9.9174	-16.733428	0.000148	1.479769	0.501359	-0.000061
1256	1.2487e+02	-9.9863	-16.792900	0.000146	1.459772	0.494584	-0.000060
1257	1.2497e+02	-10.0136	-16.850743	0.000142	1.419778	0.481034	-0.000058
1258	1.2507e+02	-10.0601	-16.909808	0.000145	1.449774	0.491197	-0.000059
1259	1.2517e+02	-10.0842	-16.965614	0.000137	1.369786	0.464096	-0.000056
1260	1.2527e+02	-10.1484	-17.023864	0.000143	1.429777	0.484422	-0.000059
1261	1.2537e+02	-10.1756	-17.076818	0.000130	1.299797	0.440383	-0.000053
1262	1.2547e+02	-10.2318	-17.137919	0.000150	1.499766	0.508134	-0.000061
1263	1.2557e+02	-10.2847	-17.189652	0.000127	1.269802	0.430221	-0.000052
1264	1.2567e+02	-10.2944	-17.251568	0.000152	1.519763	0.514910	-0.000062
1265	1.2577e+02	-10.3264	-17.307374	0.000137	1.369786	0.464096	-0.000056
1266	1.2587e+02	-10.3970	-17.360736	0.000131	1.309796	0.443771	-0.000054
1267	1.2597e+02	-10.4163	-17.412468	0.000127	1.269802	0.430221	-0.000052
1268	1.2607e+02	-10.4420	-17.473570	0.000150	1.499766	0.508134	-0.000061
1269	1.2617e+02	-10.4756	-17.531005	0.000141	1.409780	0.477646	-0.000058
1270	1.2627e+02	-10.5334	-17.584774	0.000132	1.319794	0.447158	-0.000054
1271	1.2636e+02	-10.5559	-17.643024	0.000143	1.429777	0.484422	-0.000059
1272	1.2646e+02	-10.6168	-17.699645	0.000139	1.389783	0.470871	-0.000057
1273	1.2656e+02	-10.6361	-17.749341	0.000122	1.219810	0.413283	-0.000050
1274	1.2666e+02	-10.7018	-17.804739	0.000136	1.359788	0.460709	-0.000056
1275	1.2676e+02	-10.7275	-17.856472	0.000127	1.269802	0.430221	-0.000052
1276	1.2686e+02	-10.7820	-17.913907	0.000141	1.409780	0.477646	-0.000058
1277	1.2696e+02	-10.8574	-17.967269	0.000131	1.309796	0.443771	-0.000054
1278	1.2706e+02	-10.8526	-18.021038	-0.000132	-1.319794	-0.447158	-0.000054
1279	1.2716e+02	-10.8976	-18.072771	0.000127	1.269802	0.430221	-0.000052
1280	1.2726e+02	-10.9216	-18.123688	0.000125	1.249805	0.423445	-0.000051
1281	1.2736e+02	-10.9730	-18.180716	0.000140	1.399782	0.474259	-0.000057
1282	1.2746e+02	-11.0291	-18.231227	0.000124	1.239807	0.420058	-0.000051
1283	1.2756e+02	-11.0660	-18.288255	0.000140	1.399782	0.474259	-0.000057
1284	1.2766e+02	-11.1045	-18.339173	0.000125	1.249805	0.423445	-0.000051
1285	1.2776e+02	-11.1238	-18.394164	0.000135	1.349789	0.457321	-0.000055
1286	1.2786e+02	-11.1494	-18.447118	0.000130	1.299797	0.440383	-0.000053
1287	1.2796e+02	-11.2104	-18.498851	0.000127	1.269802	0.430221	-0.000052
1288	1.2806e+02	-11.2601	-18.550991	0.000128	1.279800	0.433608	-0.000052
1289	1.2816e+02	-11.3018	-18.610055	0.000145	1.449774	0.491197	-0.000059
1290	1.2826e+02	-11.3355	-18.657307	0.000116	1.159819	0.392957	-0.000047
1291	1.2835e+02	-11.3820	-18.708632	0.000126	1.259803	0.426833	-0.000052
1292	1.2845e+02	-11.4237	-18.759143	0.000124	1.239807	0.420058	-0.000051
1293	1.2855e+02	-11.4494	-18.816171	0.000140	1.399782	0.474259	-0.000057
1294	1.2865e+02	-11.4799	-18.865867	0.000122	1.219810	0.413283	-0.000050
1295	1.2875e+02	-11.5473	-18.916784	0.000125	1.249805	0.423445	-0.000051
1296	1.2885e+02	-11.5777	-18.961185	0.000109	1.089830	0.369244	-0.000045
1297	1.2895e+02	-11.5986	-19.014547	0.000131	1.309796	0.443771	-0.000054
1298	1.2905e+02	-11.6676	-19.069131	0.000134	1.339791	0.453933	-0.000055
1299	1.2915e+02	-11.6916	-19.116382	0.000116	1.159819	0.392957	-0.000047
1300	1.2925e+02	-11.7093	-19.165263	0.000120	1.199813	0.406508	-0.000049
1301	1.2935e+02	-11.7719	-19.219440	0.000133	1.329793	0.450546	-0.000054
1302	1.2945e+02	-11.7991	-19.270765	0.000126	1.259803	0.426833	-0.000052
1303	1.2955e+02	-11.8553	-19.319239	0.000119	1.189814	0.403120	-0.000049
1304	1.2965e+02	-11.8906	-19.367713	0.000119	1.189814	0.403120	-0.000049
1305	1.2975e+02	-11.9435	-19.421482	0.000132	1.319794	0.447158	-0.000054
1306	1.2985e+02	-11.9836	-19.463031	0.000102	1.019841	0.345531	-0.000042
1307	1.2995e+02	-12.0077	-19.516393	0.000131	1.309796	0.443771	-0.000054
1308	1.3005e+02	-12.0606	-19.568125	0.000127	1.269802	0.430221	-0.000052
1309	1.3015e+02	-12.0751	-19.612525	0.000109	1.089830	0.369244	-0.000045
1310	1.3025e+02	-12.1312	-19.662629	0.000123	1.229808	0.416670	-0.000050
1311	1.3034e+02	-12.1874	-19.715176	0.000129	1.289799	0.436996	-0.000053
1312	1.3044e+02	-12.1729	-19.764057	-0.000120	-1.199813	-0.406508	-0.000049
1313	1.3054e+02	-12.2467	-19.812123	0.000118	1.179816	0.399732	-0.000048
1314	1.3064e+02	-12.3013	-19.865485	0.000131	1.309796	0.443771	-0.000054
1315	1.3074e+02	-12.3430	-19.916810	0.000126	1.259803	0.426833	-0.000052
1316	1.3084e+02	-12.3654	-19.967728	0.000125	1.249805	0.423445	-0.000051
1317	1.3094e+02	-12.4280	-20.023534	0.000137	1.369786	0.464096	-0.000056
1318	1.3104e+02	-12.4424	-20.067934	0.000109	1.089830	0.369244	-0.000045
1319	1.3114e+02	-12.5098	-20.118852	0.000125	1.249805	0.423445	-0.000051
1320	1.3124e+02	-12.5451	-20.173844	0.000135	1.349789	0.457321	-0.000055
1321	1.3134e+02	-12.5611	-20.223132	0.000121	1.209811	0.409895	-0.000050
1322	1.3144e+02	-12.6077	-20.274050	0.000125	1.249805	0.423445	-0.000051
1323	1.3154e+02	-12.6686	-20.325375	0.000126	1.259803	0.426833	-0.000052
1324	1.3164e+02	-12.7103	-20.377107	0.000127	1.269802	0.430221	-0.000052
1325	1.3174e+02	-12.7232	-20.425989	0.000120	1.199813	0.406508	-0.000049
1326	1.3184e+02	-12.7617	-20.480165	0.000133	1.329793	0.450546	-0.000054
1327	1.3194e+02	-12.8082	-20.529454	0.000121	1.209811	0.409895	-0.000050
1328	1.3204e+02	-12.8162	-20.582408	0.000130	1.299797	0.440383	-0.000053
1329	1.3214e+02	-12.8740	-20.632919	0.000124	1.239807	0.420058	-0.000051
1330	1.3224e+02	-12.9381	-20.679356	0.000114	1.139822	0.386182	-0.000047
1331	1.3234e+02	-12.9750	-20.731088	0.000127	1.269802	0.430221	-0.000052
1332	1.3243e+02	-13.0087	-20.782413	0.000126	1.259803	0.426833	-0.000052
1333	1.3253e+02	-13.0440	-20.832924	0.000124	1.239807	0.420058	-0.000051
1334	1.3263e+02	-13.0633	-20.881398	0.000119	1.189814	0.403120	-0.000049
1335	1.3273e+02	-13.1178	-20.931093	0.000122	1.219810	0.413283	-0.000050
1336	1.3283e+02	-13.1708	-20.979567	0.000119	1.189814	0.403120	-0.000049
1337	1.3293e+02	-13.2221	-21.033336	0.000132	1.319794	0.447158	-0.000054
1338	1.3303e+02	-13.2381	-21.080995	0.000117	1.169817	0.396345	-0.000048
1339	1.3313e+02	-13.2879	-21.130284	0.000121	1.209811	0.409895	-0.000050
1340	1.3323e+02	-13.3135	-21.173055	0.000105	1.049836	0.355694	-0.000043
1341	1.3333e+02	-13.3761	-21.224380	0.000126	1.259803	0.426833	-0.000052
1342	1.3343e+02	-13.4002	-21.276927	0.000129	1.289799	0.436996	-0.000053
1343	1.3353e+02	-13.4371	-21.323772	0.000115	1.149821	0.389570	-0.000047
1344	1.3363e+02	-13.4595	-21.371023	0.000116	1.159819	0.392957	-0.000047
1345	1.3373e+02	-13.5542	-21.423570	0.000129	1.289799	0.436996	-0.000053
1346	1.3383e+02	-13.5397	-21.473266	-0.000122	-1.219810	-0.413283	-0.000050
1347	1.3393e+02	-13.6071	-21.521333	0.000118	1.179816	0.399732	-0.000048
1348	1.3403e+02	-13.6600	-21.571028	0.000122	1.219810	0.413283	-0.000050
1349	1.3413e+02	-13.7001	-21.622761	0.000127	1.269802	0.430221	-0.000052
1350	1.3423e+02	-13.7210	-21.666754	0.000108	1.079832	0.365857	-0.000044
1351	1.3432e+02	-13.7515	-21.717672	0.000125	1.249805	0.423445	-0.000051
1352	1.3442e+02	-13.7820	-21.766960	0.000121	1.209811	0.409895	-0.000050
1353	1.3452e+02	-13.8493	-21.815434	0.000119	1.189814	0.403120	-0.000049
1354	1.3462e+02	-13.8959	-21.862278	0.000115	1.149821	0.389570	-0.000047
1355	1.3472e+02	-13.9151	-21.915640	0.000131	1.309796	0.443771	-0.000054
1356	1.3482e+02	-13.9392	-21.966965	0.000126	1.259803	0.426833	-0.000052
1357	1.3492e+02	-14.0226	-22.013402	0.000114	1.139822	0.386182	-0.000047
1358	1.3502e+02	-14.0338	-22.068801	0.000136	1.359788	0.460709	-0.000056
1359	1.3512e+02	-14.0579	-22.117682	0.000120	1.199813	0.406508	-0.000049
1360	1.3522e+02	-14.1108	-22.168193	0.000124	1.239807	0.420058	-0.000051
1361	1.3532e+02	-14.1638	-22.220740	0.000129	1.289799	0.436996	-0.000053
1362	1.3542e+02	-14.2167	-22.270843	0.000123	1.229808	0.416670	-0.000050
1363	1.3552e+02	-14.2392	-22.321353	0.000124	1.239807	0.420058	-0.000051
1364	1.3562e+02	-14.2969	-22.371049	0.000122	1.219810	0.413283	-0.000050
1365	1.3572e+02	-14.3130	-22.424818	0.000132	1.319794	0.447158	-0.000054
1366	1.3582e+02	-14.3659	-22.470848	0.000113	1.129824	0.382795	-0.000046
1367	1.3592e+02	-14.3996	-22.523395	0.000129	1.289799	0.436996	-0.000053
1368	1.3602e+02	-14.4445	-22.569425	0.000113	1.129824	0.382795	-0.000046
1369	1.3612e+02	-14.5007	-22.621972	0.000129	1.289799	0.436996	-0.000053
1370	1.3622e+02	-14.5263	-22.671261	0.000121	1.209811	0.409895	-0.000050
1371	1.3631e+02	-14.5552	-22.718920	0.000117	1.169817	0.396345	-0.000048
1372	1.3641e+02	-14.5841	-22.772689	0.000132	1.319794	0.447158	-0.000054
1373	1.3651e+02	-14.6402	-22.818719	0.000113	1.129824	0.382795	-0.000046
1374	1.3661e+02	-14.6868	-22.876561	0.000142	1.419778	0.481034	-0.000058
1375	1.3671e+02	-14.6964	-22.927072	0.000124	1.239807	0.420058	-0.000051
1376	1.3681e+02	-14.7317	-22.976768	0.000122	1.219810	0.413283	-0.000050
1377	1.3691e+02	-14.8023	-23.020761	0.000108	1.079832	0.365857	-0.000044
1378	1.3701e+02	-14.8247	-23.081047	0.000148	1.479769	0.501359	-0.000061
1379	1.3711e+02	-14.8889	-23.128299	0.000116	1.159819	0.392957	-0.000047
1380	1.3721e+02	-14.9258	-23.184105	0.000137	1.369786	0.464096	-0.000056
1381	1.3731e+02	-14.9900	-23.237874	0.000132	1.319794	0.447158	-0.000054
1382	1.3741e+02	-15.0172	-23.291236	0.000131	1.309796	0.443771	-0.000054
1383	1.3751e+02	-15.0589	-23.340525	0.000121	1.209811	0.409895	-0.000050
1384	1.3761e+02	-15.0525	-23.393072	-0.000129	-1.289799	-0.436996	-0.000053
1385	1.3771e+02	-15.1407	-23.446026	0.000130	1.299797	0.440383	-0.000053
1386	1.3781e+02	-15.1728	-23.498166	0.000128	1.279800	0.433608	-0.000052
1387	1.3791e+02	-15.2113	-23.547862	0.000122	1.219810	0.413283	-0.000050
1388	1.3801e+02	-15.1985	-23.594299	-0.000114	-1.139822	-0.386182	-0.000047
1389	1.3811e+02	-15.2530	-23.655808	0.000151	1.509764	0.511522	-0.000062
1390	1.3821e+02	-15.2996	-23.703874	0.000118	1.179816	0.399732	-0.000048
1391	1.3831e+02	-15.3573	-23.755199	0.000126	1.259803	0.426833	-0.000052
1392	1.3840e+02	-15.3878	-23.807339	0.000128	1.279800	0.433608	-0.000052
1393	1.3850e+02	-15.4584	-23.863552	0.000138	1.379785	0.467484	-0.000056
1394	1.3860e+02	-15.4568	-23.914470	-0.000125	-1.249805	-0.423445	-0.000051
1395	1.3870e+02	-15.4921	-23.968239	0.000132	1.319794	0.447158	-0.000054
1396	1.3880e+02	-15.5514	-24.021601	0.000131	1.309796	0.443771	-0.000054
1397	1.3890e+02	-15.6140	-24.070482	0.000120	1.199813	0.406508	-0.000049
1398	1.3900e+02	-15.6188	-24.114883	0.000109	1.089830	0.369244	-0.000045
1399	1.3910e+02	-15.6493	-24.169874	0.000135	1.349789	0.457321	-0.000055
1400	1.3920e+02	-15.7343	-24.216311	0.000114	1.139822	0.386182	-0.000047
1401	1.3930e+02	-15.7808	-24.263563	0.000116	1.159819	0.392957	-0.000047
1402	1.3940e+02	-15.7921	-24.314073	0.000124	1.239807	0.420058	-0.000051
1403	1.3950e+02	-15.8386	-24.362547	0.000119	1.189814	0.403120	-0.000049
1404	1.3960e+02	-15.8835	-24.413057	0.000124	1.239807	0.420058	-0.000051
1405	1.3970e+02	-15.8931	-24.466419	0.000131	1.309796	0.443771	-0.000054
1406	1.3980e+02	-15.9509	-24.513671	0.000116	1.159819	0.392957	-0.000047
1407	1.3990e+02	-15.9894	-24.566626	0.000130	1.299797	0.440383	-0.000053
1408	1.4000e+02	-16.0327	-24.614285	0.000117	1.169817	0.396345	-0.000048
1409	1.4010e+02	-16.0423	-24.666017	0.000127	1.269802	0.430221	-0.000052
1410	1.4020e+02	-16.1338	-24.712862	0.000115	1.149821	0.389570	-0.000047
1411	1.4029e+02	-16.1466	-24.763372	0.000124	1.239807	0.420058	-0.000051
1412	1.4039e+02	-16.1947	-24.811031	0.000117	1.169817	0.396345	-0.000048
1413	1.4049e+02	-16.2268	-24.861949	0.000125	1.249805	0.423445	-0.000051
1414	1.4059e+02	-16.2605	-24.909201	0.000116	1.159819	0.392957	-0.000047
1415	1.4069e+02	-16.3086	-24.954823	0.000112	1.119825	0.379407	-0.000046
1416	1.4079e+02	-16.3584	-25.006963	0.000128	1.279800	0.433608	-0.000052
1417	1.4089e+02	-16.3985	-25.058695	0.000127	1.269802	0.430221	-0.000052
1418	1.4099e+02	-16.4514	-25.107984	0.000121	1.209811	0.409895	-0.000050
1419	1.4109e+02	-16.4578	-25.157272	0.000121	1.209811	0.409895	-0.000050
1420	1.4119e+02	-16.4979	-25.205339	0.000118	1.179816	0.399732	-0.000048
1421	1.4129e+02	-16.5380	-25.256257	0.000125	1.249805	0.423445	-0.000051
1422	1.4139e+02	-16.5942	-25.309211	0.000130	1.299797	0.440383	-0.000053
1423	1.4149e+02	-16.6391	-25.351167	0.000103	1.029839	0.348919	-0.000042
1424	1.4159e+02	-16.6567	-25.414305	0.000155	1.549758	0.525072	-0.000063
1425	1.4169e+02	-16.7338	-25.458706	0.000109	1.089830	0.369244	-0.000045
1426	1.4179e+02	-16.7546	-25.507994	0.000121	1.209811	0.409895	-0.000050
1427	1.4189e+02	-16.7514	-25.558097	-0.000123	-1.229808	-0.416670	-0.000050
1428	1.4199e+02	-16.8348	-25.605349	0.000116	1.159819	0.392957	-0.000047
1429	1.4209e+02	-16.8621	-25.653416	0.000118	1.179816	0.399732	-0.000048
1430	1.4219e+02	-16.8958	-25.710851	0.000141	1.409780	0.477646	-0.000058
1431	1.4228e+02	-16.9503	-25.757695	0.000115	1.149821	0.389570	-0.000047
1432	1.4238e+02	-16.9808	-25.809835	0.000128	1.279800	0.433608	-0.000052
1433	1.4248e+02	-17.0434	-25.857494	0.000117	1.169817	0.396345	-0.000048
1434	1.4258e+02	-17.0947	-25.908412	0.000125	1.249805	0.423445	-0.000051
1435	1.4268e+02	-17.1043	-25.959737	0.000126	1.259803	0.426833	-0.000052
1436	1.4278e+02	-17.1605	-26.007804	0.000118	1.179816	0.399732	-0.000048
1437	1.4288e+02	-17.1749	-26.058314	0.000124	1.239807	0.420058	-0.000051
1438	1.4298e+02	-17.2359	-26.102714	0.000109	1.089830	0.369244	-0.000045
1439	1.4308e+02	-17.2776	-26.157706	0.000135	1.349789	0.457321	-0.000055
1440	1.4318e+02	-17.2856	-26.206179	0.000119	1.189814	0.403120	-0.000049
1441	1.4328e+02	-17.3418	-26.250987	0.000110	1.099828	0.372632	-0.000045
1442	1.4338e+02	-17.3562	-26.301905	0.000125	1.249805	0.423445	-0.000051
1443	1.4348e+02	-17.4139	-26.349157	0.000116	1.159819	0.392957	-0.000047
1444	1.4358e+02	-17.4893	-26.396408	0.000116	1.159819	0.392957	-0.000047
1445	1.4368e+02	-17.4845	-26.442438	-0.000113	-1.129824	-0.382795	-0.000046
1446	1.4378e+02	-17.5583	-26.490097	0.000117	1.169817	0.396345	-0.000048
1447	1.4388e+02	-17.5936	-26.538978	0.000120	1.199813	0.406508	-0.000049
1448	1.4398e+02	-17.6273	-26.585415	0.000114	1.139822	0.386182	-0.000047
1449	1.4408e+02	-17.6594	-26.633482	0.000118	1.179816	0.399732	-0.000048
1450	1.4418e+02	-17.7220	-26.675031	0.000102	1.019841	0.345531	-0.000042
1451	1.4428e+02	-17.7540	-26.725948	0.000125	1.249805	0.423445	-0.000051
1452	1.4437e+02	-17.7958	-26.769941	0.000108	1.079832	0.365857	-0.000044
1453	1.4447e+02	-17.8567	-26.824933	0.000135	1.349789	0.457321	-0.000055
1454	1.4457e+02	-17.8503	-26.870148	-0.000111	-1.109827	-0.376020	-0.000045
1455	1.4467e+02	-17.9241	-26.916992	0.000115	1.149821	0.389570	-0.000047
1456	1.4477e+02	-17.9626	-26.965873	0.000120	1.199813	0.406508	-0.000049
1457	1.4487e+02	-18.0075	-27.018013	0.000128	1.279800	0.433608	-0.000052
1458	1.4497e+02	-17.9754	-27.062413	-0.000109	-1.089830	-0.369244	-0.000045
1459	1.4507e+02	-18.0781	-27.103555	0.000101	1.009842	0.342144	-0.000041
1460	1.4517e+02	-18.0845	-27.156510	0.000130	1.299797	0.440383	-0.000053
1461	1.4527e+02	-18.1423	-27.199281	0.000105	1.049836	0.355694	-0.000043
1462	1.4537e+02	-18.2000	-27.244496	0.000111	1.109827	0.376020	-0.000045
1463	1.4547e+02	-18.2498	-27.287674	0.000106	1.059835	0.359082	-0.000043
1464	1.4557e+02	-18.2722	-27.337777	0.000123	1.229808	0.416670	-0.000050
1465	1.4567e+02	-18.3155	-27.379733	0.000103	1.029839	0.348919	-0.000042
1466	1.4577e+02	-18.3364	-27.431873	0.000128	1.279800	0.433608	-0.000052
1467	1.4587e+02	-18.3861	-27.472607	0.000100	0.999844	0.338756	-0.000041
1468	1.4597e+02	-18.4134	-27.523118	0.000124	1.239807	0.420058	-0.000051
1469	1.4607e+02	-18.4727	-27.568333	0.000111	1.109827	0.376020	-0.000045
1470	1.4617e+02	-18.5016	-27.613141	0.000110	1.099828	0.372632	-0.000045
1471	1.4626e+02	-18.5626	-27.660800	0.000117	1.169817	0.396345	-0.000048
1472	1.4636e+02	-18.6075	-27.705200	0.000109	1.089830	0.369244	-0.000045
1473	1.4646e+02	-18.6171	-27.750822	0.000112	1.119825	0.379407	-0.000046
1474	1.4656e+02	-18.6588	-27.798889	0.000118	1.179816	0.399732	-0.000048
1475	1.4666e+02	-18.6813	-27.842067	0.000106	1.059835	0.359082	-0.000043
1476	1.4676e+02	-18.7406	-27.888097	0.000113	1.129824	0.382795	-0.000046
1477	1.4686e+02	-18.7984	-27.932090	0.000108	1.079832	0.365857	-0.000044
1478	1.4696e+02	-18.8209	-27.977712	0.000112	1.119825	0.379407	-0.000046
1479	1.4706e+02	-18.8642	-28.025371	0.000117	1.169817	0.396345	-0.000048
1480	1.4716e+02	-18.9059	-28.068142	0.000105	1.049836	0.355694	-0.000043
1481	1.4726e+02	-18.9652	-28.120282	0.000128	1.279800	0.433608	-0.000052
1482	1.4736e+02	-18.9701	-28.160609	0.000099	0.989846	0.335369	-0.000041
1483	1.4746e+02	-19.0166	-28.212341	0.000127	1.269802	0.430221	-0.000052
1484	1.4756e+02	-19.0920	-28.262037	0.000122	1.219810	0.413283	-0.000050
1485	1.4766e+02	-19.0952	-28.309696	0.000117	1.169817	0.396345	-0.000048
1486	1.4776e+02	-19.1465	-28.354911	0.000111	1.109827	0.376020	-0.000045
1487	1.4786e+02	-19.1818	-28.404607	0.000122	1.219810	0.413283	-0.000050
1488	1.4796e+02	-19.2299	-28.459598	0.000135	1.349789	0.457321	-0.000055
1489	1.4806e+02	-19.2412	-28.506850	0.000116	1.159819	0.392957	-0.000047
1490	1.4816e+02	-19.3166	-28.552880	0.000113	1.129824	0.382795	-0.000046
1491	1.4825e+02	-19.3535	-28.600539	0.000117	1.169817	0.396345	-0.000048
1492	1.4835e+02	-19.3454	-28.645754	-0.000111	-1.109827	-0.376020	-0.000045
1493	1.4845e+02	-19.4208	-28.694635	0.000120	1.199813	0.406508	-0.000049
1494	1.4855e+02	-19.4706	-28.741887	0.000116	1.159819	0.392957	-0.000047
1495	1.4865e+02	-19.5043	-28.791583	0.000122	1.219810	0.413283	-0.000050
1496	1.4875e+02	-19.5267	-28.843315	0.000127	1.269802	0.430221	-0.000052
1497	1.4885e+02	-19.5829	-28.890567	0.000116	1.159819	0.392957	-0.000047
1498	1.4895e+02	-19.6005	-28.941485	0.000125	1.249805	0.423445	-0.000051
1499	1.4905e+02	-19.6310	-28.992810	0.000126	1.259803	0.426833	-0.000052
1500	1.4915e+02	-19.6871	-29.038025	0.000111	1.109827	0.376020	-0.000045
1501	1.4925e+02	-19.7337	-29.090979	0.000130	1.299797	0.440383	-0.000053
1502	1.4935e+02	-19.7786	-29.136194	0.000111	1.109827	0.376020	-0.000045
1503	1.4945e+02	-19.8171	-29.185890	0.000122	1.219810	0.413283	-0.000050
1504	1.4955e+02	-19.8797	-29.236808	0.000125	1.249805	0.423445	-0.000051
1505	1.4965e+02	-19.8973	-29.279986	0.000106	1.059835	0.359082	-0.000043
1506	1.4975e+02	-19.9117	-29.328053	0.000118	1.179816	0.399732	-0.000048
1507	1.4985e+02	-19.9936	-29.376119	0.000118	1.179816	0.399732	-0.000048
1508	1.4995e+02	-19.9390	-29.350457	0.000063	0.629902	0.213416	0.000026
1509	1.5005e+02	-19.9149	-29.325201	0.000062	0.619903	0.210029	0.000025
1510	1.5015e+02	-19.8508	-29.293836	0.000077	0.769880	0.260842	0.000032
1511	1.5025e+02	-19.8283	-29.268581	0.000062	0.619903	0.210029	0.000025
1512	1.5034e+02	-19.7930	-29.237215	0.000077	0.769880	0.260842	0.000032
1513	1.5044e+02	-19.7273	-29.209516	0.000068	0.679894	0.230354	0.000028
1514	1.5054e+02	-19.7369	-29.174892	-0.000085	-0.849867	-0.287943	0.000035
1515	1.5064e+02	-19.6567	-29.143934	0.000076	0.759881	0.257455	0.000031
1516	1.5074e+02	-19.6117	-29.112161	0.000078	0.779878	0.264230	0.000032
1517	1.5084e+02	-19.5748	-29.077944	0.000084	0.839869	0.284555	0.000034
1518	1.5094e+02	-19.5620	-29.050245	0.000068	0.679894	0.230354	0.000028
1519	1.5104e+02	-19.4962	-29.013992	0.000089	0.889861	0.301493	0.000036
1520	1.5114e+02	-19.4658	-28.982626	0.000077	0.769880	0.260842	0.000032
1521	1.5124e+02	-19.4128	-28.952076	0.000075	0.749883	0.254067	0.000031
1522	1.5134e+02	-19.3711	-28.919895	0.000079	0.789877	0.267617	0.000032
1523	1.5144e+02	-19.3358	-28.888123	0.000078	0.779878	0.264230	0.000032
1524	1.5154e+02	-19.2733	-28.857979	0.000074	0.739885	0.250680	0.000030
1525	1.5164e+02	-19.2348	-28.822948	0.000086	0.859866	0.291330	0.000035
1526	1.5174e+02	-19.2107	-28.797693	0.000062	0.619903	0.210029	0.000025
1527	1.5184e+02	-19.2027	-28.765105	0.000080	0.799875	0.271005	0.000033
1528	1.5194e+02	-19.1305	-28.727630	0.000092	0.919856	0.311656	0.000038
1529	1.5204e+02	-19.1128	-28.694228	0.000082	0.819872	0.277780	0.000034
1530	1.5214e+02	-19.0743	-28.660011	0.000084	0.839869	0.284555	0.000034
1531	1.5224e+02	-19.0438	-28.635570	0.000060	0.599906	0.203254	0.000025
1532	1.5233e+02	-18.9652	-28.598095	0.000092	0.919856	0.311656	0.000038
1533	1.5243e+02	-18.9508	-28.560619	0.000092	0.919856	0.311656	0.000038
1534	1.5253e+02	-18.8850	-28.529661	0.000076	0.759881	0.257455	0.000031
1535	1.5263e+02	-18.8481	-28.497074	0.000080	0.799875	0.271005	0.000033
1536	1.5273e+02	-18.8273	-28.463672	0.000082	0.819872	0.277780	0.000034
1537	1.5283e+02	-18.8032	-28.424160	0.000097	0.969849	0.328594	0.000040
1538	1.5293e+02	-18.7727	-28.391980	0.000079	0.789877	0.267617	0.000032
1539	1.5303e+02	-18.7134	-28.361429	0.000075	0.749883	0.254067	0.000031
1540	1.5313e+02	-18.6685	-28.328841	0.000080	0.799875	0.271005	0.000033
1541	1.5323e+02	-18.6203	-28.292588	0.000089	0.889861	0.301493	0.000036
1542	1.5333e+02	-18.6075	-28.260408	0.000079	0.789877	0.267617	0.000032
1543	1.5343e+02	-18.5481	-28.227006	0.000082	0.819872	0.277780	0.000034
1544	1.5353e+02	-18.4792	-28.190752	0.000089	0.889861	0.301493	0.000036
1545	1.5363e+02	-18.4872	-28.156943	-0.000083	-0.829871	-0.281168	0.000034
1546	1.5373e+02	-18.4198	-28.124355	0.000080	0.799875	0.271005	0.000033
1547	1.5383e+02	-18.3749	-28.092990	0.000077	0.769880	0.260842	0.000032
1548	1.5393e+02	-18.3428	-28.058773	0.000084	0.839869	0.284555	0.000034
1549	1.5403e+02	-18.3091	-28.025779	0.000081	0.809874	0.274393	0.000033
1550	1.5413e+02	-18.2642	-27.991154	0.000085	0.849867	0.287943	0.000035
1551	1.5422e+02	-18.2305	-27.957345	0.000083	0.829871	0.281168	0.000034
1552	1.5432e+02	-18.1824	-27.925165	0.000079	0.789877	0.267617	0.000032
1553	1.5442e+02	-18.1744	-27.887282	0.000093	0.929855	0.315043	0.000038
1554	1.5452e+02	-18.1022	-27.850214	0.000091	0.909858	0.308268	0.000037
1555	1.5462e+02	-18.0605	-27.817627	0.000080	0.799875	0.271005	0.000033
1556	1.5472e+02	-18.0508	-27.787483	0.000074	0.739885	0.250680	0.000030
1557	1.5482e+02	-17.9931	-27.756118	0.000077	0.769880	0.260842	0.000032
1558	1.5492e+02	-17.9466	-27.720272	0.000088	0.879863	0.298106	0.000036
1559	1.5502e+02	-17.9353	-27.687277	0.000081	0.809874	0.274393	0.000033
1560	1.5512e+02	-17.8904	-27.651838	0.000087	0.869864	0.294718	0.000036
1561	1.5522e+02	-17.8583	-27.615992	0.000088	0.879863	0.298106	0.000036
1562	1.5532e+02	-17.7701	-27.585441	0.000075	0.749883	0.254067	0.000031
1563	1.5542e+02	-17.7797	-27.548373	-0.000091	-0.909858	-0.308268	0.000037
1564	1.5552e+02	-17.7220	-27.513749	0.000085	0.849867	0.287943	0.000035
1565	1.5562e+02	-17.6546	-27.481162	0.000080	0.799875	0.271005	0.000033
1566	1.5572e+02	-17.6385	-27.440835	0.000099	0.989846	0.335369	0.000041
1567	1.5582e+02	-17.5920	-27.400100	0.000100	0.999844	0.338756	0.000041
1568	1.5592e+02	-17.5615	-27.359773	0.000099	0.989846	0.335369	0.000041
1569	1.5602e+02	-17.5198	-27.326779	0.000081	0.809874	0.274393	0.000033
1570	1.5612e+02	-17.4717	-27.288489	0.000094	0.939853	0.318431	0.000038
1571	1.5622e+02	-17.4172	-27.251828	0.000090	0.899860	0.304881	0.000037
1572	1.5631e+02	-17.3947	-27.218426	0.000082	0.819872	0.277780	0.000034
1573	1.5641e+02	-17.3690	-27.178913	0.000097	0.969849	0.328594	0.000040
1574	1.5651e+02	-17.3305	-27.140216	0.000095	0.949852	0.321818	0.000039
1575	1.5661e+02	-17.2856	-27.101926	0.000094	0.939853	0.318431	0.000038
1576	1.5671e+02	-17.2118	-27.063228	0.000095	0.949852	0.321818	0.000039
1577	1.5681e+02	-17.1845	-27.029419	0.000083	0.829871	0.281168	0.000034
1578	1.5691e+02	-17.1589	-26.992351	0.000091	0.909858	0.308268	0.000037
1579	1.5701e+02	-17.1059	-26.949987	0.000104	1.039838	0.352307	0.000043
1580	1.5711e+02	-17.0899	-26.909660	0.000099	0.989846	0.335369	0.000041
1581	1.5721e+02	-17.0402	-26.875443	0.000084	0.839869	0.284555	0.000034
1582	1.5731e+02	-16.9808	-26.838782	0.000090	0.899860	0.304881	0.000037
1583	1.5741e+02	-16.9680	-26.801714	0.000091	0.909858	0.308268	0.000037
1584	1.5751e+02	-16.8990	-26.761795	0.000098	0.979847	0.331981	0.000040
1585	1.5761e+02	-16.8733	-26.719431	0.000104	1.039838	0.352307	0.000043
1586	1.5771e+02	-16.7899	-26.682770	0.000090	0.899860	0.304881	0.000037
1587	1.5781e+02	-16.7658	-26.647331	0.000087	0.869864	0.294718	0.000036
1588	1.5791e+02	-16.7418	-26.611893	0.000087	0.869864	0.294718	0.000036
1589	1.5801e+02	-16.7145	-26.572788	0.000096	0.959850	0.325206	0.000039
1590	1.5811e+02	-16.6584	-26.536127	0.000090	0.899860	0.304881	0.000037
1591	1.5821e+02	-16.6150	-26.499873	0.000089	0.889861	0.301493	0.000036
1592	1.5830e+02	-16.5846	-26.461991	0.000093	0.929855	0.315043	0.000038
1593	1.5840e+02	-16.5428	-26.423700	0.000094	0.939853	0.318431	0.000038
1594	1.5850e+02	-16.5172	-26.386225	0.000092	0.919856	0.311656	0.000038
1595	1.5860e+02	-16.4755	-26.344676	0.000102	1.019841	0.345531	0.000042
1596	1.5870e+02	-16.4338	-26.310459	0.000084	0.839869	0.284555	0.000034
1597	1.5880e+02	-16.3840	-26.265244	0.000111	1.109827	0.376020	0.000045
1598	1.5890e+02	-16.3359	-26.230213	0.000086	0.859866	0.291330	0.000035
1599	1.5900e+02	-16.3150	-26.186220	0.000108	1.079832	0.365857	0.000044
1600	1.5910e+02	-16.2814	-26.154040	0.000079	0.789877	0.267617	0.000032
1601	1.5920e+02	-16.2493	-26.116157	0.000093	0.929855	0.315043	0.000038
1602	1.5930e+02	-16.1883	-26.074608	0.000102	1.019841	0.345531	0.000042
1603	1.5940e+02	-16.1546	-26.033466	0.000101	1.009842	0.342144	0.000041
1604	1.5950e+02	-16.1209	-25.996398	0.000091	0.909858	0.308268	0.000037
1605	1.5960e+02	-16.0824	-25.954442	0.000103	1.029839	0.348919	0.000042
1606	1.5970e+02	-16.0391	-25.913300	0.000101	1.009842	0.342144	0.000041
1607	1.5980e+02	-16.0215	-25.875825	0.000092	0.919856	0.311656	0.000038
1608	1.5990e+02	-15.9717	-25.835090	0.000100	0.999844	0.338756	0.000041
1609	1.6000e+02	-15.9124	-25.799244	0.000088	0.879863	0.298106	0.000036
1610	1.6010e+02	-15.8979	-25.754029	0.000111	1.109827	0.376020	0.000045
1611	1.6019e+02	-15.8225	-25.714924	0.000096	0.959850	0.325206	0.000039
1612	1.6029e+02	-15.8161	-25.672561	0.000104	1.039838	0.352307	0.000043
1613	1.6039e+02	-15.7600	-25.631012	0.000102	1.019841	0.345531	0.000042
1614	1.6049e+02	-15.7327	-25.590277	0.000100	0.999844	0.338756	0.000041
1615	1.6059e+02	-15.6830	-25.544248	0.000113	1.129824	0.382795	0.000046
1616	1.6069e+02	-15.6332	-25.503106	0.000101	1.009842	0.342144	0.000041
1617	1.6079e+02	-15.6236	-25.458298	0.000110	1.099828	0.372632	0.000045
1618	1.6089e+02	-15.5434	-25.421638	0.000090	0.899860	0.304881	0.000037
1619	1.6099e+02	-15.5226	-25.375608	0.000113	1.129824	0.382795	0.000046
1620	1.6109e+02	-15.4744	-25.335688	0.000098	0.979847	0.331981	0.000040
1621	1.6119e+02	-15.4391	-25.294139	0.000102	1.019841	0.345531	0.000042
1622	1.6129e+02	-15.4167	-25.254220	0.000098	0.979847	0.331981	0.000040
1623	1.6139e+02	-15.3766	-25.213078	0.000101	1.009842	0.342144	0.000041
1624	1.6149e+02	-15.2964	-25.165012	0.000118	1.179816	0.399732	0.000048
1625	1.6159e+02	-15.2932	-25.123463	0.000102	1.019841	0.345531	0.000042
1626	1.6169e+02	-15.2643	-25.079877	0.000107	1.069833	0.362469	0.000044
1627	1.6179e+02	-15.2001	-25.039143	0.000100	0.999844	0.338756	0.000041
1628	1.6189e+02	-15.1825	-24.992299	0.000115	1.149821	0.389570	0.000047
1629	1.6199e+02	-15.1022	-24.950342	0.000103	1.029839	0.348919	0.000042
1630	1.6209e+02	-15.0605	-24.902276	0.000118	1.179816	0.399732	0.000048
1631	1.6219e+02	-15.0429	-24.859912	0.000104	1.039838	0.352307	0.000043
1632	1.6228e+02	-14.9867	-24.816734	0.000106	1.059835	0.359082	0.000043
1633	1.6238e+02	-14.9659	-24.769075	0.000117	1.169817	0.396345	0.000048
1634	1.6248e+02	-14.9194	-24.723452	0.000112	1.119825	0.379407	0.000046
1635	1.6258e+02	-14.8664	-24.678237	0.000111	1.109827	0.376020	0.000045
1636	1.6268e+02	-14.8488	-24.638318	0.000098	0.979847	0.331981	0.000040
1637	1.6278e+02	-14.7878	-24.591881	0.000114	1.139822	0.386182	0.000047
1638	1.6288e+02	-14.7333	-24.546666	0.000111	1.109827	0.376020	0.000045
1639	1.6298e+02	-14.7381	-24.499821	-0.000115	-1.149821	-0.389570	0.000047
1640	1.6308e+02	-14.6659	-24.454199	0.000112	1.119825	0.379407	0.000046
1641	1.6318e+02	-14.6402	-24.410206	0.000108	1.079832	0.365857	0.000044
1642	1.6328e+02	-14.5937	-24.363362	0.000115	1.149821	0.389570	0.000047
1643	1.6338e+02	-14.5536	-24.314073	0.000121	1.209811	0.409895	0.000050
1644	1.6348e+02	-14.5279	-24.272524	0.000102	1.019841	0.345531	0.000042
1645	1.6358e+02	-14.4702	-24.225273	0.000116	1.159819	0.392957	0.000047
1646	1.6368e+02	-14.4253	-24.178836	0.000114	1.139822	0.386182	0.000047
1647	1.6378e+02	-14.4365	-24.129140	-0.000122	-1.219810	-0.413283	0.000050
1648	1.6388e+02	-14.3996	-24.090442	0.000095	0.949852	0.321818	0.000039
1649	1.6398e+02	-14.3290	-24.041968	0.000119	1.189814	0.403120	0.000049
1650	1.6408e+02	-14.2793	-24.000419	0.000102	1.019841	0.345531	0.000042
1651	1.6418e+02	-14.2568	-23.959685	0.000100	0.999844	0.338756	0.000041
1652	1.6427e+02	-14.1959	-23.907953	0.000127	1.269802	0.430221	0.000052
1653	1.6437e+02	-14.1541	-23.870477	0.000092	0.919856	0.311656	0.000038
1654	1.6447e+02	-14.1365	-23.817930	0.000129	1.289799	0.436996	0.000053
1655	1.6457e+02	-14.0659	-23.774752	0.000106	1.059835	0.359082	0.000043
1656	1.6467e+02	-14.0322	-23.729129	0.000112	1.119825	0.379407	0.000046
1657	1.6477e+02	-14.0098	-23.688395	0.000100	0.999844	0.338756	0.000041
1658	1.6487e+02	-13.9841	-23.637885	0.000124	1.239807	0.420058	0.000051
1659	1.6497e+02	-13.9279	-23.604075	0.000083	0.829871	0.281168	0.000034
1660	1.6507e+02	-13.8670	-23.550306	0.000132	1.319794	0.447158	0.000054
1661	1.6517e+02	-13.8542	-23.507535	0.000105	1.049836	0.355694	0.000043
1662	1.6527e+02	-13.8044	-23.465171	0.000104	1.039838	0.352307	0.000043
1663	1.6537e+02	-13.7627	-23.421993	0.000106	1.059835	0.359082	0.000043
1664	1.6547e+02	-13.7290	-23.375149	0.000115	1.149821	0.389570	0.000047
1665	1.6557e+02	-13.6761	-23.332378	0.000105	1.049836	0.355694	0.000043
1666	1.6567e+02	-13.6247	-23.285126	0.000116	1.159819	0.392957	0.000047
1667	1.6577e+02	-13.6215	-23.242762	0.000104	1.039838	0.352307	0.000043
1668	1.6587e+02	-13.5269	-23.195103	0.000117	1.169817	0.396345	0.000048
1669	1.6597e+02	-13.5445	-23.150296	-0.000110	-1.099828	-0.372632	0.000045
1670	1.6607e+02	-13.5092	-23.105488	0.000110	1.099828	0.372632	0.000045
1671	1.6616e+02	-13.4852	-23.060273	0.000111	1.109827	0.376020	0.000045
1672	1.6626e+02	-13.4130	-23.009355	0.000125	1.249805	0.423445	0.000051
1673	1.6636e+02	-13.3665	-22.961696	0.000117	1.169817	0.396345	0.000048
1674	1.6646e+02	-13.3167	-22.916074	0.000112	1.119825	0.379407	0.000046
1675	1.6656e+02	-13.2895	-22.869637	0.000114	1.139822	0.386182	0.000047
1676	1.6666e+02	-13.2189	-22.821977	0.000117	1.169817	0.396345	0.000048
1677	1.6676e+02	-13.1884	-22.777984	0.000108	1.079832	0.365857	0.000044
1678	1.6686e+02	-13.1451	-22.728289	0.000122	1.219810	0.413283	0.000050
1679	1.6696e+02	-13.1387	-22.684296	0.000108	1.079832	0.365857	0.000044
1680	1.6706e+02	-13.1066	-22.635415	0.000120	1.199813	0.406508	0.000049
1681	1.6716e+02	-13.0520	-22.587755	0.000117	1.169817	0.396345	0.000048
1682	1.6726e+02	-13.0119	-22.541318	0.000114	1.139822	0.386182	0.000047
1683	1.6736e+02	-12.9654	-22.494474	0.000115	1.149821	0.389570	0.000047
1684	1.6746e+02	-12.9413	-22.451296	0.000106	1.059835	0.359082	0.000043
1685	1.6756e+02	-12.8836	-22.402415	0.000120	1.199813	0.406508	0.000049
1686	1.6766e+02	-12.8579	-22.357607	0.000110	1.099828	0.372632	0.000045
1687	1.6776e+02	-12.7986	-22.309948	0.000117	1.169817	0.396345	0.000048
1688	1.6786e+02	-12.7681	-22.263918	0.000113	1.129824	0.382795	0.000046
1689	1.6796e+02	-12.7344	-22.216259	0.000117	1.169817	0.396345	0.000048
1690	1.6806e+02	-12.6783	-22.173081	0.000106	1.059835	0.359082	0.000043
1691	1.6816e+02	-12.6237	-22.125829	0.000116	1.159819	0.392957	0.000047
1692	1.6825e+02	-12.6478	-22.084280	-0.000102	-1.019841	-0.345531	0.000042
1693	1.6835e+02	-12.5900	-22.034992	0.000121	1.209811	0.409895	0.000050
1694	1.6845e+02	-12.5210	-21.991406	0.000107	1.069833	0.362469	0.000044
1695	1.6855e+02	-12.5146	-21.947006	0.000109	1.089830	0.369244	0.000045
1696	1.6865e+02	-12.4168	-21.897310	0.000122	1.219810	0.413283	0.000050
1697	1.6875e+02	-12.4248	-21.855761	-0.000102	-1.019841	-0.345531	0.000042
1698	1.6885e+02	-12.3574	-21.805658	0.000123	1.229808	0.416670	0.000050
1699	1.6895e+02	-12.3398	-21.763294	0.000104	1.039838	0.352307	0.000043
1700	1.6905e+02	-12.2820	-21.713191	0.000123	1.229808	0.416670	0.000050
1701	1.6915e+02	-12.2579	-21.665125	0.000118	1.179816	0.399732	0.000048
1702	1.6925e+02	-12.2162	-21.623168	0.000103	1.029839	0.348919	0.000042
1703	1.6935e+02	-12.1617	-21.583656	0.000097	0.969849	0.328594	0.000040
1704	1.6945e+02	-12.1232	-21.532331	0.000126	1.259803	0.426833	0.000052
1705	1.6955e+02	-12.1168	-21.489560	0.000105	1.049836	0.355694	0.000043
1706	1.6965e+02	-12.0670	-21.441086	0.000119	1.189814	0.403120	0.000049
1707	1.6975e+02	-12.0334	-21.395871	0.000111	1.109827	0.376020	0.000045
1708	1.6985e+02	-11.9804	-21.347805	0.000118	1.179816	0.399732	0.000048
1709	1.6995e+02	-11.9323	-21.304219	0.000107	1.069833	0.362469	0.000044
1710	1.7005e+02	-11.9082	-21.256560	0.000117	1.169817	0.396345	0.000048
1711	1.7015e+02	-11.8457	-21.214196	0.000104	1.039838	0.352307	0.000043
1712	1.7024e+02	-11.8120	-21.166945	0.000116	1.159819	0.392957	0.000047
1713	1.7034e+02	-11.7494	-21.121322	0.000112	1.119825	0.379407	0.000046
1714	1.7044e+02	-11.7510	-21.079773	-0.000102	-1.019841	-0.345531	0.000042
1715	1.7054e+02	-11.7125	-21.034558	0.000111	1.109827	0.376020	0.000045
1716	1.7064e+02	-11.6403	-20.990973	0.000107	1.069833	0.362469	0.000044
1717	1.7074e+02	-11.6403	-20.946572	-0.000109	-1.089830	-0.369244	0.000045
1718	1.7084e+02	-11.5745	-20.899321	0.000116	1.159819	0.392957	0.000047
1719	1.7094e+02	-11.5489	-20.860216	0.000096	0.959850	0.325206	0.000039
1720	1.7104e+02	-11.5007	-20.811335	0.000120	1.199813	0.406508	0.000049
1721	1.7114e+02	-11.4350	-20.764490	0.000115	1.149821	0.389570	0.000047
1722	1.7124e+02	-11.4494	-20.717646	-0.000115	-1.149821	-0.389570	0.000047
1723	1.7134e+02	-11.3756	-20.676097	0.000102	1.019841	0.345531	0.000042
1724	1.7144e+02	-11.3483	-20.634548	0.000102	1.019841	0.345531	0.000042
1725	1.7154e+02	-11.2986	-20.590962	0.000107	1.069833	0.362469	0.000044
1726	1.7164e+02	-11.2745	-20.545747	0.000111	1.109827	0.376020	0.000045
1727	1.7174e+02	-11.2328	-20.500532	0.000111	1.109827	0.376020	0.000045
1728	1.7184e+02	-11.1606	-20.458169	0.000104	1.039838	0.352307	0.000043
1729	1.7194e+02	-11.1302	-20.412546	0.000112	1.119825	0.379407	0.000046
1730	1.7204e+02	-11.0933	-20.366109	0.000114	1.139822	0.386182	0.000047
1731	1.7213e+02	-11.0387	-20.318857	0.000116	1.159819	0.392957	0.000047
1732	1.7223e+02	-11.0275	-20.269976	0.000120	1.199813	0.406508	0.000049
1733	1.7233e+02	-10.9922	-20.220281	0.000122	1.219810	0.413283	0.000050
1734	1.7243e+02	-10.9280	-20.176288	0.000108	1.079832	0.365857	0.000044
1735	1.7253e+02	-10.8927	-20.128221	0.000118	1.179816	0.399732	0.000048
1736	1.7263e+02	-10.8943	-20.079747	-0.000119	-1.189814	-0.403120	0.000049
1737	1.7273e+02	-10.8206	-20.036162	0.000107	1.069833	0.362469	0.000044
1738	1.7283e+02	-10.7692	-19.982393	0.000132	1.319794	0.447158	0.000054
1739	1.7293e+02	-10.7612	-19.935548	0.000115	1.149821	0.389570	0.000047
1740	1.7303e+02	-10.6858	-19.888704	0.000115	1.149821	0.389570	0.000047
1741	1.7313e+02	-10.6617	-19.841859	0.000115	1.149821	0.389570	0.000047
1742	1.7323e+02	-10.6120	-19.797052	0.000110	1.099828	0.372632	0.000045
1743	1.7333e+02	-10.5976	-19.747356	0.000122	1.219810	0.413283	0.000050
1744	1.7343e+02	-10.5334	-19.695623	0.000127	1.269802	0.430221	0.000052
1745	1.7353e+02	-10.4837	-19.650408	0.000111	1.109827	0.376020	0.000045
1746	1.7363e+02	-10.4291	-19.605193	0.000111	1.109827	0.376020	0.000045
1747	1.7373e+02	-10.4243	-19.553461	0.000127	1.269802	0.430221	0.000052
1748	1.7383e+02	-10.3810	-19.501728	0.000127	1.269802	0.430221	0.000052
1749	1.7393e+02	-10.3633	-19.452440	0.000121	1.209811	0.409895	0.000050
1750	1.7403e+02	-10.2944	-19.402337	0.000123	1.229808	0.416670	0.000050
1751	1.7413e+02	-10.2671	-19.353863	0.000119	1.189814	0.403120	0.000049
1752	1.7422e+02	-10.2334	-19.307833	0.000113	1.129824	0.382795	0.000046
1753	1.7432e+02	-10.1564	-19.259360	0.000119	1.189814	0.403120	0.000049
1754	1.7442e+02	-10.1179	-19.211293	0.000118	1.179816	0.399732	0.000048
1755	1.7452e+02	-10.0986	-19.162412	0.000120	1.199813	0.406508	0.000049
1756	1.7462e+02	-10.0553	-19.115160	0.000116	1.159819	0.392957	0.000047
1757	1.7472e+02	-10.0441	-19.068723	0.000114	1.139822	0.386182	0.000047
1758	1.7482e+02	-9.9719	-19.019842	0.000120	1.199813	0.406508	0.000049
1759	1.7492e+02	-9.9414	-18.972183	0.000117	1.169817	0.396345	0.000048
1760	1.7502e+02	-9.8676	-18.921265	0.000125	1.249805	0.423445	0.000051
1761	1.7512e+02	-9.8500	-18.874421	0.000115	1.149821	0.389570	0.000047
1762	1.7522e+02	-9.8003	-18.824725	0.000122	1.219810	0.413283	0.000050
1763	1.7532e+02	-9.7842	-18.778695	0.000113	1.129824	0.382795	0.000046
1764	1.7542e+02	-9.7505	-18.730222	0.000119	1.189814	0.403120	0.000049
1765	1.7552e+02	-9.6799	-18.676452	0.000132	1.319794	0.447158	0.000054
1766	1.7562e+02	-9.6190	-18.629608	0.000115	1.149821	0.389570	0.000047
1767	1.7572e+02	-9.6302	-18.581949	-0.000117	-1.169817	-0.396345	0.000048
1768	1.7582e+02	-9.5965	-18.538363	0.000107	1.069833	0.362469	0.000044
1769	1.7592e+02	-9.5548	-18.482150	0.000138	1.379785	0.467484	0.000056
1770	1.7602e+02	-9.5195	-18.437342	0.000110	1.099828	0.372632	0.000045
1771	1.7612e+02	-9.4634	-18.386017	0.000126	1.259803	0.426833	0.000052
1772	1.7621e+02	-9.4505	-18.334692	0.000126	1.259803	0.426833	0.000052
1773	1.7631e+02	-9.3928	-18.283774	0.000125	1.249805	0.423445	0.000051
1774	1.7641e+02	-9.3463	-18.232856	0.000125	1.249805	0.423445	0.000051
1775	1.7651e+02	-9.2933	-18.181531	0.000126	1.259803	0.426833	0.000052
1776	1.7661e+02	-9.2580	-18.132243	0.000121	1.209811	0.409895	0.000050
1777	1.7671e+02	-9.2227	-18.078066	0.000133	1.329793	0.450546	0.000054
1778	1.7681e+02	-9.1906	-18.029592	0.000119	1.189814	0.403120	0.000049
1779	1.7691e+02	-9.1538	-17.973786	0.000137	1.369786	0.464096	0.000056
1780	1.7701e+02	-9.0880	-17.918388	0.000136	1.359788	0.460709	0.000056
1781	1.7711e+02	-9.0479	-17.871951	0.000114	1.139822	0.386182	0.000047
1782	1.7721e+02	-9.0094	-17.814923	0.000140	1.399782	0.474259	0.000057
1783	1.7731e+02	-8.9853	-17.764820	0.000123	1.229808	0.416670	0.000050
1784	1.7741e+02	-8.9372	-17.713087	0.000127	1.269802	0.430221	0.000052
1785	1.7751e+02	-8.8794	-17.658096	0.000135	1.349789	0.457321	0.000055
1786	1.7761e+02	-8.8730	-17.603919	0.000133	1.329793	0.450546	0.000054
1787	1.7771e+02	-8.8554	-17.552187	0.000127	1.269802	0.430221	0.000052
1788	1.7781e+02	-8.7832	-17.503713	0.000119	1.189814	0.403120	0.000049
1789	1.7791e+02	-8.7334	-17.447500	0.000138	1.379785	0.467484	0.000056
1790	1.7801e+02	-8.7062	-17.399433	0.000118	1.179816	0.399732	0.000048
1791	1.7810e+02	-8.6452	-17.342813	0.000139	1.389783	0.470871	0.000057
1792	1.7820e+02	-8.6051	-17.291080	0.000127	1.269802	0.430221	0.000052
1793	1.7830e+02	-8.5634	-17.234052	0.000140	1.399782	0.474259	0.000057
1794	1.7840e+02	-8.5746	-17.179468	-0.000134	-1.339791	-0.453933	0.000055
1795	1.7850e+02	-8.5153	-17.125699	0.000132	1.319794	0.447158	0.000054
1796	1.7860e+02	-8.4495	-17.072745	0.000130	1.299797	0.440383	0.000053
1797	1.7870e+02	-8.4062	-17.012865	0.000147	1.469771	0.497972	0.000060
1798	1.7880e+02	-8.3837	-16.957874	0.000135	1.349789	0.457321	0.000055
1799	1.7890e+02	-8.3436	-16.905327	0.000129	1.289799	0.436996	0.000053
1800	1.7900e+02	-8.3067	-16.847484	0.000142	1.419778	0.481034	0.000058
1801	1.7910e+02	-8.2634	-16.785976	0.000151	1.509764	0.511522	0.000062
1802	1.7920e+02	-8.2249	-16.735872	0.000123	1.229808	0.416670	0.000050
1803	1.7930e+02	-8.1864	-16.677215	0.000144	1.439775	0.487809	0.000059
1804	1.7940e+02	-8.1447	-16.624261	0.000130	1.299797	0.440383	0.000053
1805	1.7950e+02	-8.1190	-16.565603	0.000144	1.439775	0.487809	0.000059
1806	1.7960e+02	-8.0934	-16.506131	0.000146	1.459772	0.494584	0.000060
1807	1.7970e+02	-7.9987	-16.454806	0.000126	1.259803	0.426833	0.000052
1808	1.7980e+02	-7.9939	-16.397778	0.000140	1.399782	0.474259	0.000057
1809	1.7990e+02	-7.9746	-16.336677	0.000150	1.499766	0.508134	0.000061
1810	1.8000e+02	-7.8992	-16.277205	0.000146	1.459772	0.494584	0.000060
1811	1.8009e+02	-7.8575	-16.221399	0.000137	1.369786	0.464096	0.000056
1812	1.8019e+02	-7.8335	-16.160705	0.000149	1.489768	0.504747	0.000061
1813	1.8029e+02	-7.7902	-16.107343	0.000131	1.309796	0.443771	0.000054
1814	1.8039e+02	-7.7693	-16.048278	0.000145	1.449774	0.491197	0.000059
1815	1.8049e+02	-7.7549	-15.989214	0.000145	1.449774	0.491197	0.000059
1816	1.8059e+02	-7.6843	-15.937074	0.000128	1.279800	0.433608	0.000052
1817	1.8069e+02	-7.6297	-15.879231	0.000142	1.419778	0.481034	0.000058
1818	1.8079e+02	-7.5688	-15.823425	0.000137	1.369786	0.464096	0.000056
1819	1.8089e+02	-7.5704	-15.766804	-0.000139	-1.389783	-0.470871	0.000057
1820	1.8099e+02	-7.5110	-15.709777	0.000140	1.399782	0.474259	0.000057
1821	1.8109e+02	-7.4709	-15.659673	0.000123	1.229808	0.416670	0.000050
1822	1.8119e+02	-7.4372	-15.596943	0.000154	1.539760	0.521685	0.000063
1823	1.8129e+02	-7.3843	-15.541137	0.000137	1.369786	0.464096	0.000056
1824	1.8139e+02	-7.3714	-15.489404	0.000127	1.269802	0.430221	0.000052
1825	1.8149e+02	-7.3169	-15.432784	0.000139	1.389783	0.470871	0.000057
1826	1.8159e+02	-7.2688	-15.376163	0.000139	1.389783	0.470871	0.000057
1827	1.8169e+02	-7.2335	-15.318728	0.000141	1.409780	0.477646	0.000058
1828	1.8179e+02	-7.1838	-15.257219	0.000151	1.509764	0.511522	0.000062
1829	1.8189e+02	-7.1212	-15.205486	0.000127	1.269802	0.430221	0.000052
1830	1.8199e+02	-7.1084	-15.149681	0.000137	1.369786	0.464096	0.000056
1831	1.8209e+02	-7.0666	-15.090208	0.000146	1.459772	0.494584	0.000060
1832	1.8218e+02	-7.0201	-15.036847	0.000131	1.309796	0.443771	0.000054
1833	1.8228e+02	-6.9768	-14.979411	0.000141	1.409780	0.477646	0.000058
1834	1.8238e+02	-6.9640	-14.915051	0.000158	1.579754	0.535235	0.000065
1835	1.8248e+02	-6.9287	-14.860467	0.000134	1.339791	0.453933	0.000055
1836	1.8258e+02	-6.8276	-14.804661	0.000137	1.369786	0.464096	0.000056
1837	1.8268e+02	-6.8068	-14.743153	0.000151	1.509764	0.511522	0.000062
1838	1.8278e+02	-6.7987	-14.685310	0.000142	1.419778	0.481034	0.000058
1839	1.8288e+02	-6.7602	-14.629504	0.000137	1.369786	0.464096	0.000056
1840	1.8298e+02	-6.7057	-14.568403	0.000150	1.499766	0.508134	0.000061
1841	1.8308e+02	-6.6913	-14.505672	0.000154	1.539760	0.521685	0.000063
1842	1.8318e+02	-6.6207	-14.449051	0.000139	1.389783	0.470871	0.000057
1843	1.8328e+02	-6.5934	-14.384284	0.000159	1.589752	0.538623	0.000065
1844	1.8338e+02	-6.5340	-14.324404	0.000147	1.469771	0.497972	0.000060
1845	1.8348e+02	-6.5100	-14.268191	0.000138	1.379785	0.467484	0.000056
1846	1.8358e+02	-6.4570	-14.207497	0.000149	1.489768	0.504747	0.000061
1847	1.8368e+02	-6.3961	-14.150877	0.000139	1.389783	0.470871	0.000057
1848	1.8378e+02	-6.3929	-14.097107	0.000132	1.319794	0.447158	0.000054
1849	1.8388e+02	-6.3624	-14.038450	0.000144	1.439775	0.487809	0.000059
1850	1.8398e+02	-6.3383	-13.979385	0.000145	1.449774	0.491197	0.000059
1851	1.8407e+02	-6.2854	-13.915840	0.000156	1.559757	0.528460	0.000064
1852	1.8417e+02	-6.2164	-13.852702	0.000155	1.549758	0.525072	0.000063
1853	1.8427e+02	-6.1683	-13.795674	0.000140	1.399782	0.474259	0.000057
1854	1.8437e+02	-6.1731	-13.737831	-0.000142	-1.419778	-0.481034	0.000058
1855	1.8447e+02	-6.0833	-13.676730	0.000150	1.499766	0.508134	0.000061
1856	1.8457e+02	-6.0656	-13.618073	0.000144	1.439775	0.487809	0.000059
1857	1.8467e+02	-6.0319	-13.557786	0.000148	1.479769	0.501359	0.000061
1858	1.8477e+02	-5.9886	-13.495462	0.000153	1.529761	0.518297	0.000063
1859	1.8487e+02	-5.9694	-13.436398	0.000145	1.449774	0.491197	0.000059
1860	1.8497e+02	-5.9244	-13.380999	0.000136	1.359788	0.460709	0.000056
1861	1.8507e+02	-5.8715	-13.321120	0.000147	1.469771	0.497972	0.000060
1862	1.8517e+02	-5.8346	-13.258389	0.000154	1.539760	0.521685	0.000063
1863	1.8527e+02	-5.8057	-13.203805	0.000134	1.339791	0.453933	0.000055
1864	1.8537e+02	-5.7720	-13.140667	0.000155	1.549758	0.525072	0.000063
1865	1.8547e+02	-5.7191	-13.088935	0.000127	1.269802	0.430221	0.000052
1866	1.8557e+02	-5.6838	-13.020501	0.000168	1.679738	0.569111	0.000069
1867	1.8567e+02	-5.6212	-12.963066	0.000141	1.409780	0.477646	0.000058
1868	1.8577e+02	-5.6148	-12.905223	0.000142	1.419778	0.481034	0.000058
1869	1.8587e+02	-5.5266	-12.844936	0.000148	1.479769	0.501359	0.000061
1870	1.8597e+02	-5.5282	-12.781798	-0.000155	-1.549758	-0.525072	0.000063
1871	1.8606e+02	-5.4849	-12.722326	0.000146	1.459772	0.494584	0.000060
1872	1.8616e+02	-5.4801	-12.662447	0.000147	1.469771	0.497972	0.000060
1873	1.8626e+02	-5.4047	-12.604604	0.000142	1.419778	0.481034	0.000058
1874	1.8636e+02	-5.3678	-12.540651	0.000157	1.569755	0.531847	0.000064
1875	1.8646e+02	-5.3244	-12.484438	0.000138	1.379785	0.467484	0.000056
1876	1.8656e+02	-5.2892	-12.422522	0.000152	1.519763	0.514910	0.000062
1877	1.8666e+02	-5.2314	-12.361828	0.000149	1.489768	0.504747	0.000061
1878	1.8676e+02	-5.2154	-12.301541	0.000148	1.479769	0.501359	0.000061
1879	1.8686e+02	-5.1656	-12.240033	0.000151	1.509764	0.511522	0.000062
1880	1.8696e+02	-5.1207	-12.176080	0.000157	1.569755	0.531847	0.000064
1881	1.8706e+02	-5.0614	-12.122718	0.000131	1.309796	0.443771	0.000054
1882	1.8716e+02	-5.0277	-12.059987	0.000154	1.539760	0.521685	0.000063
1883	1.8726e+02	-5.0084	-12.003774	0.000138	1.379785	0.467484	0.000056
1884	1.8736e+02	-4.9507	-11.943487	0.000148	1.479769	0.501359	0.000061
1885	1.8746e+02	-4.9491	-11.881164	0.000153	1.529761	0.518297	0.000063
1886	1.8756e+02	-4.8833	-11.825358	0.000137	1.369786	0.464096	0.000056
1887	1.8766e+02	-4.8319	-11.762627	0.000154	1.539760	0.521685	0.000063
1888	1.8776e+02	-4.7758	-11.701526	0.000150	1.499766	0.508134	0.000061
1889	1.8786e+02	-4.7453	-11.638388	0.000155	1.549758	0.525072	0.000063
1890	1.8796e+02	-4.7357	-11.580545	0.000142	1.419778	0.481034	0.000058
1891	1.8806e+02	-4.6747	-11.520258	0.000148	1.479769	0.501359	0.000061
1892	1.8815e+02	-4.6378	-11.462823	0.000141	1.409780	0.477646	0.000058
1893	1.8825e+02	-4.6122	-11.395612	0.000165	1.649743	0.558948	0.000068
1894	1.8835e+02	-4.5448	-11.335732	0.000147	1.469771	0.497972	0.000060
1895	1.8845e+02	-4.5031	-11.277890	0.000142	1.419778	0.481034	0.000058
1896	1.8855e+02	-4.4694	-11.217196	0.000149	1.489768	0.504747	0.000061
1897	1.8865e+02	-4.4838	-11.158538	-0.000144	-1.439775	-0.487809	0.000059
1898	1.8875e+02	-4.3796	-11.091327	0.000165	1.649743	0.558948	0.000068
1899	1.8885e+02	-4.3603	-11.030225	0.000150	1.499766	0.508134	0.000061
1900	1.8895e+02	-4.3330	-10.966272	0.000157	1.569755	0.531847	0.000064
1901	1.8905e+02	-4.2448	-10.901505	0.000159	1.589752	0.538623	0.000065
1902	1.8915e+02	-4.2689	-10.838367	-0.000155	-1.549758	-0.525072	0.000063
1903	1.8925e+02	-4.2015	-10.772377	0.000162	1.619747	0.548785	0.000066
1904	1.8935e+02	-4.1485	-10.711276	0.000150	1.499766	0.508134	0.000061
1905	1.8945e+02	-4.1405	-10.641620	0.000171	1.709733	0.579273	0.000070
1906	1.8955e+02	-4.0796	-10.580926	0.000149	1.489768	0.504747	0.000061
1907	1.8965e+02	-4.0619	-10.517788	0.000155	1.549758	0.525072	0.000063
1908	1.8975e+02	-4.0106	-10.451799	0.000162	1.619747	0.548785	0.000066
1909	1.8985e+02	-3.9496	-10.384587	0.000165	1.649743	0.558948	0.000068
1910	1.8995e+02	-3.9191	-10.318598	0.000162	1.619747	0.548785	0.000066
1911	1.9004e+02	-3.9143	-10.252201	0.000163	1.629746	0.552173	0.000067
1912	1.9014e+02	-3.8534	-10.183767	0.000168	1.679738	0.569111	0.000069
1913	1.9024e+02	-3.8068	-10.116556	0.000165	1.649743	0.558948	0.000068
1914	1.9034e+02	-3.7427	-10.052603	0.000157	1.569755	0.531847	0.000064
1915	1.9044e+02	-3.7234	-9.987836	0.000159	1.589752	0.538623	0.000065
1916	1.9054e+02	-3.6272	-9.917365	0.000173	1.729730	0.586048	0.000071
1917	1.9064e+02	-3.6641	-9.855857	-0.000151	-1.509764	-0.511522	0.000062
1918	1.9074e+02	-3.6095	-9.781313	0.000183	1.829714	0.619924	0.000075
1919	1.9084e+02	-3.5726	-9.717768	0.000156	1.559757	0.528460	0.000064
1920	1.9094e+02	-3.5020	-9.646075	0.000176	1.759725	0.596211	0.000072
1921	1.9104e+02	-3.5036	-9.581308	-0.000159	-1.589752	-0.538623	0.000065
1922	1.9114e+02	-3.4331	-9.513282	0.000167	1.669739	0.565723	0.000068
1923	1.9124e+02	-3.4347	-9.452180	-0.000150	-1.499766	-0.508134	0.000061
1924	1.9134e+02	-3.3512	-9.379673	0.000178	1.779722	0.602986	0.000073
1925	1.9144e+02	-3.3240	-9.312869	0.000164	1.639744	0.555560	0.000067
1926	1.9154e+02	-3.2983	-9.248102	0.000159	1.589752	0.538623	0.000065
1927	1.9164e+02	-3.2646	-9.183741	0.000158	1.579754	0.535235	0.000065
1928	1.9174e+02	-3.2053	-9.109198	0.000183	1.829714	0.619924	0.000075
1929	1.9184e+02	-3.1716	-9.048911	0.000148	1.479769	0.501359	0.000061
1930	1.9194e+02	-3.1234	-8.976404	0.000178	1.779722	0.602986	0.000073
1931	1.9203e+02	-3.0817	-8.908378	0.000167	1.669739	0.565723	0.000068
1932	1.9213e+02	-3.0448	-8.838722	0.000171	1.709733	0.579273	0.000070
1933	1.9223e+02	-3.0336	-8.767437	0.000175	1.749727	0.592824	0.000072
1934	1.9233e+02	-2.9742	-8.699819	0.000166	1.659741	0.562335	0.000068
1935	1.9243e+02	-2.9085	-8.632607	0.000165	1.649743	0.558948	0.000068
1936	1.9253e+02	-2.8988	-8.561322	0.000175	1.749727	0.592824	0.000072
1937	1.9263e+02	-2.8796	-8.483520	0.000191	1.909702	0.647025	0.000078
1938	1.9273e+02	-2.8411	-8.418752	0.000159	1.589752	0.538623	0.000065
1939	1.9283e+02	-2.7432	-8.351948	0.000164	1.639744	0.555560	0.000067
1940	1.9293e+02	-2.7208	-8.276590	0.000185	1.849711	0.626699	0.000076
1941	1.9303e+02	-2.6807	-8.203268	0.000180	1.799719	0.609761	0.000074
1942	1.9313e+02	-2.6470	-8.129946	0.000180	1.799719	0.609761	0.000074
1943	1.9323e+02	-2.6325	-8.055810	0.000182	1.819716	0.616536	0.000075
1944	1.9333e+02	-2.5684	-7.986154	0.000171	1.709733	0.579273	0.000070
1945	1.9343e+02	-2.5283	-7.912018	0.000182	1.819716	0.616536	0.000075
1946	1.9353e+02	-2.5122	-7.838696	0.000180	1.799719	0.609761	0.000074
1947	1.9363e+02	-2.4625	-7.759672	0.000194	1.939697	0.657187	0.000079
1948	1.9373e+02	-2.3887	-7.685943	0.000181	1.809718	0.613149	0.000074
1949	1.9383e+02	-2.3983	-7.611399	-0.000183	-1.829714	-0.619924	0.000075
1950	1.9393e+02	-2.3293	-7.535634	0.000186	1.859710	0.630087	0.000076
1951	1.9403e+02	-2.3053	-7.457424	0.000192	1.919700	0.650412	0.000079
1952	1.9412e+02	-2.2507	-7.382473	0.000184	1.839713	0.623312	0.000075
1953	1.9422e+02	-2.1898	-7.309151	0.000180	1.799719	0.609761	0.000074
1954	1.9432e+02	-2.1753	-7.229719	0.000195	1.949696	0.660575	0.000080
1955	1.9442e+02	-2.1400	-7.155176	0.000183	1.829714	0.619924	0.000075
1956	1.9452e+02	-2.0871	-7.079003	0.000187	1.869708	0.633474	0.000077
1957	1.9462e+02	-2.0663	-7.000385	0.000193	1.929699	0.653800	0.000079
1958	1.9472e+02	-1.9812	-6.924620	0.000186	1.859710	0.630087	0.000076
1959	1.9482e+02	-1.9427	-6.846003	0.000193	1.929699	0.653800	0.000079
1960	1.9492e+02	-1.9267	-6.768608	0.000190	1.899704	0.643637	0.000078
1961	1.9502e+02	-1.8786	-6.689176	0.000195	1.949696	0.660575	0.000080
1962	1.9512e+02	-1.8497	-6.608522	0.000198	1.979691	0.670738	0.000081
1963	1.9522e+02	-1.8192	-6.532756	0.000186	1.859710	0.630087	0.000076
1964	1.9532e+02	-1.7679	-6.447214	0.000210	2.099672	0.711388	0.000086
1965	1.9542e+02	-1.7213	-6.366560	0.000198	1.979691	0.670738	0.000081
1966	1.9552e+02	-1.6844	-6.285499	0.000199	1.989690	0.674125	0.000081
1967	1.9562e+02	-1.6636	-6.201179	0.000207	2.069677	0.701226	0.000085
1968	1.9572e+02	-1.6379	-6.118489	0.000203	2.029683	0.687675	0.000083
1969	1.9582e+02	-1.5850	-6.035391	0.000204	2.039682	0.691063	0.000084
1970	1.9592e+02	-1.5096	-5.961255	0.000182	1.819716	0.616536	0.000075
1971	1.9601e+02	-1.5160	-5.874491	-0.000213	-2.129668	-0.721551	0.000087
1972	1.9611e+02	-1.4374	-5.793022	0.000200	1.999688	0.677513	0.000082
1973	1.9621e+02	-1.4149	-5.708295	0.000208	2.079675	0.704613	0.000085
1974	1.9631e+02	-1.3572	-5.630085	0.000192	1.919700	0.650412	0.000079
1975	1.9641e+02	-1.3091	-5.544543	0.000210	2.099672	0.711388	0.000086
1976	1.9651e+02	-1.2754	-5.456964	0.000215	2.149665	0.728326	0.000088
1977	1.9661e+02	-1.2593	-5.371015	0.000211	2.109671	0.714776	0.000086
1978	1.9671e+02	-1.1807	-5.283844	0.000214	2.139666	0.724939	0.000088
1979	1.9681e+02	-1.1807	-5.205227	-0.000193	-1.929699	-0.653800	0.000079
1980	1.9691e+02	-1.1133	-5.118463	0.000213	2.129668	0.721551	0.000087
1981	1.9701e+02	-1.1198	-5.024367	-0.000231	-2.309640	-0.782527	0.000095
1982	1.9711e+02	-1.0620	-4.943713	0.000198	1.979691	0.670738	0.000081
1983	1.9721e+02	-1.0347	-4.860615	0.000204	2.039682	0.691063	0.000084
1984	1.9731e+02	-0.9561	-4.779554	0.000199	1.989690	0.674125	0.000081
1985	1.9741e+02	-0.9321	-4.692383	0.000214	2.139666	0.724939	0.000088
1986	1.9751e+02	-0.9080	-4.608877	0.000205	2.049680	0.694450	0.000084
1987	1.9761e+02	-0.8599	-4.518040	0.000223	2.229652	0.755427	0.000091
1988	1.9771e+02	-0.8326	-4.437386	0.000198	1.979691	0.670738	0.000081
1989	1.9781e+02	-0.7732	-4.344512	0.000228	2.279644	0.772364	0.000093
1990	1.9791e+02	-0.6930	-4.262636	0.000201	2.009686	0.680900	0.000082
1991	1.9800e+02	-0.7187	-4.174650	-0.000216	-2.159663	-0.731714	0.000088
1992	1.9810e+02	-0.6257	-4.093182	0.000200	1.999688	0.677513	0.000082
1993	1.9820e+02	-0.6128	-4.003566	0.000220	2.199657	0.745264	0.000090
1994	1.9830e+02	-0.5871	-3.920468	0.000204	2.039682	0.691063	0.000084
1995	1.9840e+02	-0.5182	-3.835334	0.000209	2.089674	0.708001	0.000086
1996	1.9850e+02	-0.4941	-3.754273	0.000199	1.989690	0.674125	0.000081
1997	1.9860e+02	-0.4508	-3.672804	0.000200	1.999688	0.677513	0.000082
1998	1.9870e+02	-0.4075	-3.594594	0.000192	1.919700	0.650412	0.000079
1999	1.9880e+02	-0.3962	-3.530234	0.000158	1.579754	0.535235	0.000065
2000	1.9890e+02	-0.3257	-3.475243	0.000135	1.349789	0.457321	0.000055
2001	1.9900e+02	-0.2904	-3.398255	0.000189	1.889705	0.640249	0.000077
2002	1.9910e+02	-0.2631	-3.326156	0.000177	1.769724	0.599599	0.000072
2003	1.9920e+02	-0.2198	-3.217802	0.000266	2.659585	0.901092	0.000109
2004	1.9930e+02	-0.1668	-3.065049	0.000375	3.749415	1.270336	0.000154
2005	1.9940e+02	-0.1348	-2.968102	0.000238	2.379629	0.806240	0.000097
2006	1.9950e+02	-0.0898	-2.873191	0.000233	2.329636	0.789302	0.000095
2007	1.9960e+02	-0.0385	-2.775021	0.000241	2.409624	0.816403	0.000099
2008	1.9970e+02	0.0016	-2.692738	0.000202	2.019685	0.684288	0.000083
2009	1.9980e+02	0.0160	-2.597012	0.000202	2.019685	0.684288	0.000096

Center data before PMax,+/-Pr and +/-Vc Calc.

PMax (uC/cm2):	2.94e+01
Pr (uC/cm2):	8.57e-01
-Pr (uC/cm2):	-2.60e+00
PLoss (uC/cm2):	-6.66e-01
Vc:	9.55e-01
-Vc:	-3.99e-01
C (Max-Eff) (nF):	1.47e-01
K (Eff):	4.98e+02
Vert. (+/-Pr) Shift (uC/cm2):	-8.70e-01
Horiz. Shift (+/-Vc):	2.78e-01
Offset (uC/cm2):	1.94e+00

A (Loop Area - uC/cm2·Volts):	6.25e-03



Hysteresis Version: 5.48.1 - Radiant Technologies, Inc., 1999 - 9/12/24

