»»»»»»»»»»»»»»»»»»»»»»»»»»»»»»»»»»»» Hysteresis ««««««««««««««««««««««««««««««««««««
»»»  Executed Version:	5.48.1
»»»  Vision Version:	5.48.4 (R)
»»»  Vision Compiled:	9/18/24
»»»  Driver Version:	5.47.0
»»»  Windows Version:	Windows 8 or 8.1
»»»  Processor Information:	x86 (AMD or Intel) - 32 Processors
»»»  Tester Name:	PMF21124-494 (100V)
»»»  Tester S/N:	PMF21124-494
»»»  Internal Amp Type:	100V RevK 270k
»»»  Internal Amp S/N:	iAB2-596/K     
»»»  Execution Count:	1
»»»»»»»»»»»»»»»»»»»»»»»»»»»»»»»»»»»»»»»»»»««««««««««««««««««««««««««««««««««««««««««

Stored:	6/12/2025 - 10:22:31
Configured:	06/12/25 10:06:17 AM
Executed:	06/12/25 10:22:01 AM

»»»»»»»»»»»»»»»»»»»»»»»»»»»»»»»»»»» Sample Info ««««««««««««««««««««««««««««««««««««
Sample Name:	
Lot Name:	
Wafer Name:	
Die Row/Column:	0/0
Capacitor Number:	0
Sample Area (cm2):	1.00e-04
Sample Thickness (microns):	3.00e-01

Amplifier:	Internal

»»»»»»»»»»»»»»»»»»»»»»»»»»»»»»»»»»» Tester Info «««««««««««««««««««««««««««««««««««
Tester Name:	PMF21124-494 (100V)
Tester Serial Number:	PMF21124-494
Return Signal Amp. Level:	1.9 [Index: 2]

»»»»»»»»»»»»»»»»»»»»»»»»»»»»»»»» Hysteresis Info ««««««««««««««««««««««««««««««««««
Task Name:	Hyst-1390
Volts:	20.00
Field:	666.67 (kV/cm)
DCBias:	0.00
DCField:	0.00 (kV/cm)
Hysteresis Period (ms):	2.00e+02
Preset:	Enabled
Preset Delay (ms):	1.00e+03
Profile:	Standard Bipolar

»»»»»»»»»»»»»»»»»»»»»»»»»»»»»»»»»»»»»» Data «««««««««««««««««««««««««««««««««««««««
Points:	2009

Valid Data

Point	Time (ms)	Drive Voltage	Measured Polarization (uC/cm2)	Capacitance (uF)	Normalized Capacitance (uF/cm2)	Dielectric Constant	Instantaneous Current (mA)
   1	0.0000e+00	0.0241	-1.752999	0.000157	1.573694	0.533182	0.000065
   2	9.9500e-02	0.0449	-1.688639	0.000157	1.573694	0.533182	0.000065
   3	1.9900e-01	0.0898	-1.593728	0.000232	2.320700	0.786275	0.000095
   4	2.9850e-01	0.1235	-1.500854	0.000227	2.270900	0.769402	0.000093
   5	3.9800e-01	0.1957	-1.405943	0.000232	2.320700	0.786275	0.000095
   6	4.9750e-01	0.2005	-1.312661	0.000228	2.280860	0.772776	0.000094
   7	5.9700e-01	0.2631	-1.219787	0.000227	2.270900	0.769402	0.000093
   8	6.9650e-01	0.2968	-1.120803	0.000242	2.420301	0.820020	0.000099
   9	7.9600e-01	0.3369	-1.025485	0.000233	2.330660	0.789649	0.000096
  10	8.9550e-01	0.3722	-0.930981	0.000231	2.310740	0.782900	0.000095
  11	9.9500e-01	0.3770	-0.838515	0.000226	2.260940	0.766027	0.000093
  12	1.0945e+00	0.4508	-0.740345	0.000240	2.400381	0.813271	0.000099
  13	1.1940e+00	0.5262	-0.647878	0.000226	2.260940	0.766027	0.000093
  14	1.2935e+00	0.5631	-0.544413	0.000253	2.529862	0.857141	0.000104
  15	1.3930e+00	0.5310	-0.450317	-0.000230	-2.300780	-0.779525	0.000095
  16	1.4925e+00	0.6016	-0.355406	0.000232	2.320700	0.786275	0.000095
  17	1.5920e+00	0.6449	-0.253163	0.000250	2.499982	0.847017	0.000103
  18	1.6915e+00	0.7107	-0.156216	0.000237	2.370501	0.803147	0.000097
  19	1.7910e+00	0.7091	-0.061305	-0.000232	-2.320700	-0.786275	0.000095
  20	1.8905e+00	0.7636	0.037272	0.000241	2.410341	0.816646	0.000099
  21	1.9900e+00	0.8342	0.131368	0.000230	2.300780	0.779525	0.000095
  22	2.0895e+00	0.8599	0.235648	0.000255	2.549782	0.863890	0.000105
  23	2.1890e+00	0.8502	0.331373	-0.000234	-2.340621	-0.793024	0.000096
  24	2.2885e+00	0.9240	0.430357	0.000242	2.420301	0.820020	0.000099
  25	2.3880e+00	0.9513	0.528934	0.000241	2.410341	0.816646	0.000099
  26	2.4875e+00	1.0235	0.623438	0.000231	2.310740	0.782900	0.000095
  27	2.5870e+00	1.0540	0.720385	0.000237	2.370501	0.803147	0.000097
  28	2.6865e+00	1.1069	0.817333	0.000237	2.370501	0.803147	0.000097
  29	2.7860e+00	1.1165	0.915095	0.000239	2.390421	0.809897	0.000098
  30	2.8855e+00	1.1534	1.017745	0.000251	2.509942	0.850391	0.000103
  31	2.9850e+00	1.2192	1.116322	0.000241	2.410341	0.816646	0.000099
  32	3.0845e+00	1.2288	1.206752	0.000221	2.211139	0.749154	0.000091
  33	3.1840e+00	1.2994	1.311439	0.000256	2.559742	0.867264	0.000105
  34	3.2835e+00	1.3251	1.403499	0.000225	2.250980	0.762653	0.000093
  35	3.3830e+00	1.3620	1.504112	0.000246	2.460142	0.833519	0.000101
  36	3.4825e+00	1.4021	1.603504	0.000243	2.430261	0.823395	0.000100
  37	3.5820e+00	1.4454	1.701674	0.000240	2.400381	0.813271	0.000099
  38	3.6815e+00	1.5080	1.794955	0.000228	2.280860	0.772776	0.000094
  39	3.7810e+00	1.5128	1.895161	0.000245	2.450181	0.830144	0.000101
  40	3.8805e+00	1.5738	1.988443	0.000228	2.280860	0.772776	0.000094
  41	3.9800e+00	1.5850	2.087834	0.000243	2.430261	0.823395	0.000100
  42	4.0795e+00	1.6572	2.180301	0.000226	2.260940	0.766027	0.000093
  43	4.1790e+00	1.6780	2.279693	0.000243	2.430261	0.823395	0.000100
  44	4.2785e+00	1.7165	2.381121	0.000248	2.480062	0.840268	0.000102
  45	4.3780e+00	1.7631	2.481734	0.000246	2.460142	0.833519	0.000101
  46	4.4775e+00	1.7711	2.577053	0.000233	2.330660	0.789649	0.000096
  47	4.5770e+00	1.8256	2.676037	0.000242	2.420301	0.820020	0.000099
  48	4.6765e+00	1.8657	2.772170	0.000235	2.350581	0.796398	0.000097
  49	4.7760e+00	1.9299	2.873598	0.000248	2.480062	0.840268	0.000102
  50	4.8755e+00	1.9475	2.964843	0.000223	2.231060	0.755903	0.000092
  51	4.9750e+00	1.9989	3.062605	0.000239	2.390421	0.809897	0.000098
  52	5.0745e+00	2.0197	3.158330	0.000234	2.340621	0.793024	0.000096
  53	5.1740e+00	2.0855	3.260981	0.000251	2.509942	0.850391	0.000103
  54	5.2735e+00	2.1064	3.356706	0.000234	2.340621	0.793024	0.000096
  55	5.3730e+00	2.1545	3.453246	0.000236	2.360541	0.799773	0.000097
  56	5.4725e+00	2.1737	3.557119	0.000254	2.539822	0.860515	0.000104
  57	5.5720e+00	2.2331	3.652844	0.000234	2.340621	0.793024	0.000096
  58	5.6715e+00	2.2748	3.757531	0.000256	2.559742	0.867264	0.000105
  59	5.7710e+00	2.3277	3.850813	0.000228	2.280860	0.772776	0.000094
  60	5.8705e+00	2.3582	3.949390	0.000241	2.410341	0.816646	0.000099
  61	5.9700e+00	2.3855	4.048374	0.000242	2.420301	0.820020	0.000099
  62	6.0695e+00	2.4272	4.148988	0.000246	2.460142	0.833519	0.000101
  63	6.1690e+00	2.4817	4.239418	0.000221	2.211139	0.749154	0.000091
  64	6.2685e+00	2.5219	4.336365	0.000237	2.370501	0.803147	0.000097
  65	6.3680e+00	2.5539	4.431683	0.000233	2.330660	0.789649	0.000096
  66	6.4675e+00	2.6005	4.533112	0.000248	2.480062	0.840268	0.000102
  67	6.5670e+00	2.6213	4.621098	0.000215	2.151379	0.728907	0.000088
  68	6.6665e+00	2.6983	4.719674	0.000241	2.410341	0.816646	0.000099
  69	6.7660e+00	2.6999	4.810105	0.000221	2.211139	0.749154	0.000091
  70	6.8655e+00	2.7208	4.910311	0.000245	2.450181	0.830144	0.000101
  71	6.9650e+00	2.7609	5.004000	0.000229	2.290820	0.776151	0.000094
  72	7.0645e+00	2.8379	5.096874	0.000227	2.270900	0.769402	0.000093
  73	7.1640e+00	2.8876	5.187711	0.000222	2.221099	0.752529	0.000091
  74	7.2635e+00	2.8988	5.278956	0.000223	2.231060	0.755903	0.000092
  75	7.3630e+00	2.9422	5.372237	0.000228	2.280860	0.772776	0.000094
  76	7.4625e+00	3.0031	5.463482	0.000223	2.231060	0.755903	0.000092
  77	7.5620e+00	3.0031	5.552283	-0.000217	-2.171299	-0.735656	0.000089
  78	7.6615e+00	3.0705	5.643935	0.000224	2.241020	0.759278	0.000092
  79	7.7610e+00	3.1427	5.735179	0.000223	2.231060	0.755903	0.000092
  80	7.8605e+00	3.1539	5.829276	0.000230	2.300780	0.779525	0.000095
  81	7.9600e+00	3.2004	5.914818	0.000209	2.091618	0.708659	0.000086
  82	8.0595e+00	3.2165	6.007692	0.000227	2.270900	0.769402	0.000093
  83	8.1590e+00	3.2678	6.099751	0.000225	2.250980	0.762653	0.000093
  84	8.2585e+00	3.3240	6.190996	0.000223	2.231060	0.755903	0.000092
  85	8.3580e+00	3.3641	6.272872	0.000200	2.001978	0.678288	0.000082
  86	8.4575e+00	3.4106	6.362487	0.000219	2.191219	0.742405	0.000090
  87	8.5570e+00	3.4347	6.450880	0.000216	2.161339	0.732281	0.000089
  88	8.6565e+00	3.4700	6.542532	0.000224	2.241020	0.759278	0.000092
  89	8.7560e+00	3.4988	6.634184	0.000224	2.241020	0.759278	0.000092
  90	8.8555e+00	3.5614	6.717282	0.000203	2.031858	0.688412	0.000084
  91	8.9550e+00	3.5566	6.807712	-0.000221	-2.211139	-0.749154	0.000091
  92	9.0545e+00	3.6512	6.896513	0.000217	2.171299	0.735656	0.000089
  93	9.1540e+00	3.6817	6.984906	0.000216	2.161339	0.732281	0.000089
  94	9.2535e+00	3.7090	7.069634	0.000207	2.071698	0.701910	0.000085
  95	9.3530e+00	3.7699	7.158842	0.000218	2.181259	0.739031	0.000090
  96	9.4525e+00	3.7876	7.244791	0.000210	2.101578	0.712034	0.000086
  97	9.5520e+00	3.8373	7.335221	0.000221	2.211139	0.749154	0.000091
  98	9.6515e+00	3.8758	7.415060	0.000195	1.952177	0.661416	0.000080
  99	9.7510e+00	3.9191	7.502639	0.000214	2.141419	0.725532	0.000088
 100	9.8505e+00	3.9721	7.589810	0.000213	2.131459	0.722158	0.000088
 101	9.9500e+00	3.9705	7.678611	-0.000217	-2.171299	-0.735656	0.000089
 102	1.0050e+01	4.0314	7.763338	0.000207	2.071698	0.701910	0.000085
 103	1.0149e+01	4.0876	7.846436	0.000203	2.031858	0.688412	0.000084
 104	1.0248e+01	4.1357	7.933200	0.000212	2.121499	0.718783	0.000087
 105	1.0348e+01	4.1357	8.018334	-0.000208	-2.081658	-0.705285	0.000086
 106	1.0447e+01	4.2047	8.105913	0.000214	2.141419	0.725532	0.000088
 107	1.0547e+01	4.2352	8.191862	0.000210	2.101578	0.712034	0.000086
 108	1.0646e+01	4.2689	8.278219	0.000211	2.111539	0.715409	0.000087
 109	1.0746e+01	4.3186	8.358873	0.000197	1.972097	0.668165	0.000081
 110	1.0845e+01	4.3555	8.445229	0.000211	2.111539	0.715409	0.000087
 111	1.0945e+01	4.3956	8.531993	0.000212	2.121499	0.718783	0.000087
 112	1.1044e+01	4.4213	8.613055	0.000198	1.982057	0.671539	0.000081
 113	1.1144e+01	4.4566	8.692894	0.000195	1.952177	0.661416	0.000080
 114	1.1243e+01	4.5223	8.780880	0.000215	2.151379	0.728907	0.000088
 115	1.1343e+01	4.5560	8.864385	0.000204	2.041818	0.691787	0.000084
 116	1.1443e+01	4.5961	8.945446	0.000198	1.982057	0.671539	0.000081
 117	1.1542e+01	4.6330	9.027322	0.000200	2.001978	0.678288	0.000082
 118	1.1642e+01	4.6523	9.111235	0.000205	2.051778	0.695161	0.000084
 119	1.1741e+01	4.7197	9.194332	0.000203	2.031858	0.688412	0.000084
 120	1.1841e+01	4.7566	9.280282	0.000210	2.101578	0.712034	0.000086
 121	1.1940e+01	4.7870	9.360936	0.000197	1.972097	0.668165	0.000081
 122	1.2040e+01	4.8480	9.445255	0.000206	2.061738	0.698536	0.000085
 123	1.2139e+01	4.8560	9.525909	0.000197	1.972097	0.668165	0.000081
 124	1.2239e+01	4.9041	9.608600	0.000202	2.021898	0.685037	0.000083
 125	1.2338e+01	4.9539	9.686810	0.000191	1.912337	0.647917	0.000079
 126	1.2438e+01	4.9763	9.770722	0.000205	2.051778	0.695161	0.000084
 127	1.2537e+01	5.0293	9.851783	0.000198	1.982057	0.671539	0.000081
 128	1.2636e+01	5.0758	9.931622	0.000195	1.952177	0.661416	0.000080
 129	1.2736e+01	5.1207	10.006981	0.000184	1.842616	0.624295	0.000076
 130	1.2835e+01	5.1223	10.088857	0.000200	2.001978	0.678288	0.000082
 131	1.2935e+01	5.1977	10.167066	0.000191	1.912337	0.647917	0.000079
 132	1.3034e+01	5.2282	10.250164	0.000203	2.031858	0.688412	0.000084
 133	1.3134e+01	5.2539	10.332447	0.000201	2.011938	0.681663	0.000083
 134	1.3233e+01	5.3100	10.406584	0.000181	1.812736	0.614172	0.000075
 135	1.3333e+01	5.3758	10.490089	0.000204	2.041818	0.691787	0.000084
 136	1.3432e+01	5.4127	10.565447	0.000184	1.842616	0.624295	0.000076
 137	1.3532e+01	5.4271	10.643250	0.000190	1.902377	0.644543	0.000078
 138	1.3632e+01	5.4720	10.722682	0.000194	1.942217	0.658041	0.000080
 139	1.3731e+01	5.4977	10.796003	0.000179	1.792816	0.607422	0.000074
 140	1.3831e+01	5.5442	10.871362	0.000184	1.842616	0.624295	0.000076
 141	1.3930e+01	5.5875	10.952423	0.000198	1.982057	0.671539	0.000081
 142	1.4030e+01	5.6004	11.024522	0.000176	1.762935	0.597299	0.000072
 143	1.4129e+01	5.6694	11.104769	0.000196	1.962137	0.664790	0.000081
 144	1.4229e+01	5.7047	11.176869	0.000176	1.762935	0.597299	0.000072
 145	1.4328e+01	5.7480	11.254671	0.000190	1.902377	0.644543	0.000078
 146	1.4428e+01	5.7897	11.333288	0.000192	1.922297	0.651292	0.000079
 147	1.4527e+01	5.8394	11.406202	0.000178	1.782856	0.604048	0.000073
 148	1.4627e+01	5.8442	11.483598	0.000189	1.892417	0.641168	0.000078
 149	1.4726e+01	5.8795	11.566695	0.000203	2.031858	0.688412	0.000084
 150	1.4825e+01	5.9533	11.643276	0.000187	1.872496	0.634419	0.000077
 151	1.4925e+01	5.9694	11.720264	0.000188	1.882457	0.637794	0.000077
 152	1.5024e+01	6.0030	11.795215	0.000183	1.832656	0.620921	0.000075
 153	1.5124e+01	6.0528	11.875868	0.000197	1.972097	0.668165	0.000081
 154	1.5223e+01	6.1073	11.950412	0.000182	1.822696	0.617546	0.000075
 155	1.5323e+01	6.1410	12.031473	0.000198	1.982057	0.671539	0.000081
 156	1.5422e+01	6.1955	12.105610	0.000181	1.812736	0.614172	0.000075
 157	1.5522e+01	6.2308	12.178117	0.000177	1.772896	0.600673	0.000073
 158	1.5621e+01	6.2854	12.264473	0.000211	2.111539	0.715409	0.000087
 159	1.5721e+01	6.2806	12.340239	-0.000185	-1.852576	-0.627670	0.000076
 160	1.5820e+01	6.3688	12.422929	0.000202	2.021898	0.685037	0.000083
 161	1.5920e+01	6.3560	12.497880	-0.000183	-1.832656	-0.620921	0.000075
 162	1.6020e+01	6.4410	12.580571	0.000202	2.021898	0.685037	0.000083
 163	1.6119e+01	6.4843	12.655115	0.000182	1.822696	0.617546	0.000075
 164	1.6218e+01	6.4891	12.726807	0.000175	1.752975	0.593924	0.000072
 165	1.6318e+01	6.5260	12.802980	0.000186	1.862536	0.631044	0.000077
 166	1.6418e+01	6.5870	12.882005	0.000193	1.932257	0.654666	0.000079
 167	1.6517e+01	6.6143	12.961436	0.000194	1.942217	0.658041	0.000080
 168	1.6616e+01	6.6736	13.042905	0.000199	1.992017	0.674914	0.000082
 169	1.6716e+01	6.7009	13.115004	0.000176	1.762935	0.597299	0.000072
 170	1.6816e+01	6.7570	13.194029	0.000193	1.932257	0.654666	0.000079
 171	1.6915e+01	6.7923	13.274275	0.000196	1.962137	0.664790	0.000081
 172	1.7015e+01	6.8228	13.350041	0.000185	1.852576	0.627670	0.000076
 173	1.7114e+01	6.8982	13.422548	0.000177	1.772896	0.600673	0.000073
 174	1.7213e+01	6.8902	13.506868	-0.000206	-2.061738	-0.698536	0.000085
 175	1.7313e+01	6.9495	13.583041	0.000186	1.862536	0.631044	0.000077
 176	1.7413e+01	6.9816	13.660436	0.000189	1.892417	0.641168	0.000078
 177	1.7512e+01	7.0121	13.737831	0.000189	1.892417	0.641168	0.000078
 178	1.7611e+01	7.0362	13.813190	0.000184	1.842616	0.624295	0.000076
 179	1.7711e+01	7.0987	13.893843	0.000197	1.972097	0.668165	0.000081
 180	1.7811e+01	7.1356	13.968794	0.000183	1.832656	0.620921	0.000075
 181	1.7910e+01	7.1998	14.044153	0.000184	1.842616	0.624295	0.000076
 182	1.8009e+01	7.2207	14.119511	0.000184	1.842616	0.624295	0.000076
 183	1.8109e+01	7.2672	14.201387	0.000200	2.001978	0.678288	0.000082
 184	1.8209e+01	7.3025	14.278375	0.000188	1.882457	0.637794	0.000077
 185	1.8308e+01	7.3474	14.357399	0.000193	1.932257	0.654666	0.000079
 186	1.8407e+01	7.3618	14.430721	0.000179	1.792816	0.607422	0.000074
 187	1.8507e+01	7.4164	14.512597	0.000200	2.001978	0.678288	0.000082
 188	1.8607e+01	7.4629	14.581438	0.000168	1.683255	0.570302	0.000069
 189	1.8706e+01	7.4725	14.664943	0.000204	2.041818	0.691787	0.000084
 190	1.8805e+01	7.5287	14.740709	0.000185	1.852576	0.627670	0.000076
 191	1.8905e+01	7.5960	14.817696	0.000188	1.882457	0.637794	0.000077
 192	1.9005e+01	7.6153	14.892240	0.000182	1.822696	0.617546	0.000075
 193	1.9104e+01	7.6602	14.971264	0.000193	1.932257	0.654666	0.000079
 194	1.9203e+01	7.6955	15.050696	0.000194	1.942217	0.658041	0.000080
 195	1.9303e+01	7.7420	15.121981	0.000174	1.743015	0.590550	0.000072
 196	1.9402e+01	7.7549	15.197747	0.000185	1.852576	0.627670	0.000076
 197	1.9502e+01	7.8174	15.272698	0.000183	1.832656	0.620921	0.000075
 198	1.9602e+01	7.8591	15.354574	0.000200	2.001978	0.678288	0.000082
 199	1.9701e+01	7.8944	15.431154	0.000187	1.872496	0.634419	0.000077
 200	1.9800e+01	7.9377	15.500810	0.000170	1.703175	0.577051	0.000070
 201	1.9900e+01	7.9875	15.580242	0.000194	1.942217	0.658041	0.000080
 202	2.0000e+01	8.0180	15.656415	0.000186	1.862536	0.631044	0.000077
 203	2.0099e+01	8.0549	15.731366	0.000183	1.832656	0.620921	0.000075
 204	2.0198e+01	8.0773	15.798577	0.000164	1.643414	0.556804	0.000068
 205	2.0298e+01	8.1559	15.880453	0.000200	2.001978	0.678288	0.000082
 206	2.0398e+01	8.1511	15.954589	-0.000181	-1.812736	-0.614172	0.000075
 207	2.0497e+01	8.1960	16.032799	0.000191	1.912337	0.647917	0.000079
 208	2.0596e+01	8.2730	16.103677	0.000173	1.733055	0.587175	0.000071
 209	2.0696e+01	8.2891	16.178628	0.000183	1.832656	0.620921	0.000075
 210	2.0796e+01	8.3340	16.259689	0.000198	1.982057	0.671539	0.000081
 211	2.0895e+01	8.3693	16.334640	0.000183	1.832656	0.620921	0.000075
 212	2.0994e+01	8.4335	16.411220	0.000187	1.872496	0.634419	0.000077
 213	2.1094e+01	8.4415	16.483727	0.000177	1.772896	0.600673	0.000073
 214	2.1194e+01	8.4912	16.566825	0.000203	2.031858	0.688412	0.000084
 215	2.1293e+01	8.5506	16.641369	0.000182	1.822696	0.617546	0.000075
 216	2.1392e+01	8.5794	16.715505	0.000181	1.812736	0.614172	0.000075
 217	2.1492e+01	8.5987	16.788420	0.000178	1.782856	0.604048	0.000073
 218	2.1591e+01	8.6789	16.867444	0.000193	1.932257	0.654666	0.000079
 219	2.1691e+01	8.6821	16.939951	0.000177	1.772896	0.600673	0.000073
 220	2.1791e+01	8.7350	17.021827	0.000200	2.001978	0.678288	0.000082
 221	2.1890e+01	8.7447	17.094334	0.000177	1.772896	0.600673	0.000073
 222	2.1989e+01	8.7848	17.169285	0.000183	1.832656	0.620921	0.000075
 223	2.2089e+01	8.8361	17.245458	0.000186	1.862536	0.631044	0.000077
 224	2.2189e+01	8.8907	17.325297	0.000195	1.952177	0.661416	0.000080
 225	2.2288e+01	8.9628	17.403099	0.000190	1.902377	0.644543	0.000078
 226	2.2387e+01	8.9901	17.476421	0.000179	1.792816	0.607422	0.000074
 227	2.2487e+01	8.9965	17.558297	0.000200	2.001978	0.678288	0.000082
 228	2.2587e+01	9.0751	17.632433	0.000181	1.812736	0.614172	0.000075
 229	2.2686e+01	9.0880	17.705348	0.000178	1.782856	0.604048	0.000073
 230	2.2785e+01	9.1297	17.776633	0.000174	1.743015	0.590550	0.000072
 231	2.2885e+01	9.1521	17.852398	0.000185	1.852576	0.627670	0.000076
 232	2.2985e+01	9.2147	17.930608	0.000191	1.912337	0.647917	0.000079
 233	2.3084e+01	9.2115	18.000671	-0.000171	-1.713135	-0.580426	0.000070
 234	2.3183e+01	9.3158	18.080918	0.000196	1.962137	0.664790	0.000081
 235	2.3283e+01	9.3431	18.154647	0.000180	1.802776	0.610797	0.000074
 236	2.3383e+01	9.3703	18.229598	0.000183	1.832656	0.620921	0.000075
 237	2.3482e+01	9.4313	18.303327	0.000180	1.802776	0.610797	0.000074
 238	2.3581e+01	9.4906	18.375426	0.000176	1.762935	0.597299	0.000072
 239	2.3681e+01	9.5051	18.449970	0.000182	1.822696	0.617546	0.000075
 240	2.3780e+01	9.5420	18.519625	0.000170	1.703175	0.577051	0.000070
 241	2.3880e+01	9.5725	18.591725	0.000176	1.762935	0.597299	0.000072
 242	2.3980e+01	9.6061	18.663417	0.000175	1.752975	0.593924	0.000072
 243	2.4079e+01	9.6511	18.735517	0.000176	1.762935	0.597299	0.000072
 244	2.4178e+01	9.6896	18.801099	0.000160	1.603574	0.543306	0.000066
 245	2.4278e+01	9.7441	18.877272	0.000186	1.862536	0.631044	0.000077
 246	2.4378e+01	9.7505	18.943262	0.000161	1.613534	0.546680	0.000066
 247	2.4477e+01	9.8275	19.016176	0.000178	1.782856	0.604048	0.000073
 248	2.4576e+01	9.8259	19.085424	-0.000169	-1.693215	-0.573677	0.000070
 249	2.4676e+01	9.8757	19.156709	0.000174	1.743015	0.590550	0.000072
 250	2.4776e+01	9.9366	19.228809	0.000176	1.762935	0.597299	0.000072
 251	2.4875e+01	9.9687	19.301316	0.000177	1.772896	0.600673	0.000073
 252	2.4974e+01	10.0104	19.363639	0.000152	1.523893	0.516309	0.000063
 253	2.5074e+01	10.0489	19.435331	0.000175	1.752975	0.593924	0.000072
 254	2.5174e+01	10.0762	19.504987	0.000170	1.703175	0.577051	0.000070
 255	2.5273e+01	10.1275	19.575457	0.000172	1.723095	0.583800	0.000071
 256	2.5372e+01	10.1708	19.643484	0.000166	1.663335	0.563553	0.000068
 257	2.5472e+01	10.2238	19.712324	0.000168	1.683255	0.570302	0.000069
 258	2.5572e+01	10.2575	19.779536	0.000164	1.643414	0.556804	0.000068
 259	2.5671e+01	10.2799	19.851228	0.000175	1.752975	0.593924	0.000072
 260	2.5770e+01	10.3232	19.922106	0.000173	1.733055	0.587175	0.000071
 261	2.5870e+01	10.3489	19.987688	0.000160	1.603574	0.543306	0.000066
 262	2.5970e+01	10.3986	20.057751	0.000171	1.713135	0.580426	0.000070
 263	2.6069e+01	10.4580	20.129851	0.000176	1.762935	0.597299	0.000072
 264	2.6169e+01	10.5109	20.194211	0.000157	1.573694	0.533182	0.000065
 265	2.6268e+01	10.5206	20.259385	0.000159	1.593614	0.539931	0.000066
 266	2.6367e+01	10.5559	20.328226	0.000168	1.683255	0.570302	0.000069
 267	2.6467e+01	10.6152	20.396253	0.000166	1.663335	0.563553	0.000068
 268	2.6567e+01	10.6681	20.465501	0.000169	1.693215	0.573677	0.000070
 269	2.6666e+01	10.6874	20.534342	0.000168	1.683255	0.570302	0.000069
 270	2.6765e+01	10.7291	20.597887	0.000155	1.553774	0.526433	0.000064
 271	2.6865e+01	10.7885	20.665913	0.000166	1.663335	0.563553	0.000068
 272	2.6965e+01	10.7853	20.733125	-0.000164	-1.643414	-0.556804	0.000068
 273	2.7064e+01	10.8767	20.801966	0.000168	1.683255	0.570302	0.000069
 274	2.7163e+01	10.8623	20.867548	-0.000160	-1.603574	-0.543306	0.000066
 275	2.7263e+01	10.9505	20.937203	0.000170	1.703175	0.577051	0.000070
 276	2.7363e+01	10.9601	21.003193	0.000161	1.613534	0.546680	0.000066
 277	2.7462e+01	11.0243	21.067553	0.000157	1.573694	0.533182	0.000065
 278	2.7561e+01	11.0708	21.136801	0.000169	1.693215	0.573677	0.000070
 279	2.7661e+01	11.0788	21.200347	0.000155	1.553774	0.526433	0.000064
 280	2.7761e+01	11.1189	21.267558	0.000164	1.643414	0.556804	0.000068
 281	2.7860e+01	11.1542	21.332326	0.000158	1.583654	0.536556	0.000065
 282	2.7959e+01	11.2040	21.400759	0.000167	1.673295	0.566928	0.000069
 283	2.8059e+01	11.2296	21.461861	0.000149	1.494013	0.506185	0.000061
 284	2.8159e+01	11.2842	21.530702	0.000168	1.683255	0.570302	0.000069
 285	2.8258e+01	11.3259	21.601579	0.000173	1.733055	0.587175	0.000071
 286	2.8358e+01	11.3435	21.667976	0.000162	1.623494	0.550055	0.000067
 287	2.8457e+01	11.4029	21.733151	0.000159	1.593614	0.539931	0.000066
 288	2.8556e+01	11.4253	21.793438	0.000147	1.474093	0.499436	0.000061
 289	2.8656e+01	11.4815	21.865537	0.000176	1.762935	0.597299	0.000072
 290	2.8756e+01	11.5264	21.929490	0.000156	1.563734	0.529807	0.000064
 291	2.8855e+01	11.5697	21.996701	0.000164	1.643414	0.556804	0.000068
 292	2.8954e+01	11.5842	22.056581	0.000146	1.464133	0.496062	0.000060
 293	2.9054e+01	11.6676	22.127051	0.000172	1.723095	0.583800	0.000071
 294	2.9154e+01	11.6772	22.190189	0.000154	1.543814	0.523058	0.000063
 295	2.9253e+01	11.7350	22.254142	0.000156	1.563734	0.529807	0.000064
 296	2.9352e+01	11.7943	22.313207	0.000144	1.444213	0.489312	0.000059
 297	2.9452e+01	11.8200	22.384084	0.000173	1.733055	0.587175	0.000071
 298	2.9552e+01	11.8296	22.446408	0.000152	1.523893	0.516309	0.000063
 299	2.9651e+01	11.8809	22.507102	0.000148	1.484053	0.502811	0.000061
 300	2.9750e+01	11.9275	22.570647	0.000155	1.553774	0.526433	0.000064
 301	2.9850e+01	11.9580	22.632156	0.000150	1.503973	0.509560	0.000062
 302	2.9950e+01	11.9852	22.698145	0.000161	1.613534	0.546680	0.000066
 303	3.0049e+01	12.0462	22.762913	0.000158	1.583654	0.536556	0.000065
 304	3.0148e+01	12.0831	22.823199	0.000147	1.474093	0.499436	0.000061
 305	3.0248e+01	12.1328	22.884708	0.000150	1.503973	0.509560	0.000062
 306	3.0348e+01	12.1697	22.945810	0.000149	1.494013	0.506185	0.000061
 307	3.0447e+01	12.2162	23.009355	0.000155	1.553774	0.526433	0.000064
 308	3.0547e+01	12.2243	23.072900	0.000155	1.553774	0.526433	0.000064
 309	3.0646e+01	12.2836	23.131965	0.000144	1.444213	0.489312	0.000059
 310	3.0745e+01	12.3269	23.189808	0.000141	1.414332	0.479189	0.000058
 311	3.0845e+01	12.3494	23.251317	0.000150	1.503973	0.509560	0.000062
 312	3.0945e+01	12.4280	23.315677	0.000157	1.573694	0.533182	0.000065
 313	3.1044e+01	12.4569	23.375149	0.000145	1.454173	0.492687	0.000060
 314	3.1143e+01	12.4729	23.441953	0.000163	1.633454	0.553429	0.000067
 315	3.1243e+01	12.5499	23.501425	0.000145	1.454173	0.492687	0.000060
 316	3.1343e+01	12.5499	23.565785	-0.000157	-1.573694	-0.533182	0.000065
 317	3.1442e+01	12.5980	23.629330	0.000155	1.553774	0.526433	0.000064
 318	3.1541e+01	12.6750	23.690432	0.000149	1.494013	0.506185	0.000061
 319	3.1641e+01	12.6446	23.751941	-0.000150	-1.503973	-0.509560	0.000062
 320	3.1741e+01	12.7424	23.818745	0.000163	1.633454	0.553429	0.000067
 321	3.1840e+01	12.7761	23.879439	0.000148	1.484053	0.502811	0.000061
 322	3.1939e+01	12.8162	23.942984	0.000155	1.553774	0.526433	0.000064
 323	3.2039e+01	12.8323	23.999605	0.000138	1.384452	0.469065	0.000057
 324	3.2139e+01	12.8964	24.066816	0.000164	1.643414	0.556804	0.000068
 325	3.2238e+01	12.9365	24.133620	0.000163	1.633454	0.553429	0.000067
 326	3.2337e+01	12.9590	24.193092	0.000145	1.454173	0.492687	0.000060
 327	3.2437e+01	12.9975	24.254194	0.000149	1.494013	0.506185	0.000061
 328	3.2536e+01	13.0360	24.319369	0.000159	1.593614	0.539931	0.000066
 329	3.2636e+01	13.0873	24.384543	0.000159	1.593614	0.539931	0.000066
 330	3.2736e+01	13.1210	24.448089	0.000155	1.553774	0.526433	0.000064
 331	3.2835e+01	13.1627	24.513671	0.000160	1.603574	0.543306	0.000066
 332	3.2934e+01	13.1964	24.580068	0.000162	1.623494	0.550055	0.000067
 333	3.3034e+01	13.2221	24.645243	0.000159	1.593614	0.539931	0.000066
 334	3.3133e+01	13.2526	24.707973	0.000153	1.533853	0.519684	0.000063
 335	3.3233e+01	13.3071	24.770297	0.000152	1.523893	0.516309	0.000063
 336	3.3333e+01	13.3986	24.832213	0.000151	1.513933	0.512934	0.000062
 337	3.3432e+01	13.3729	24.901054	-0.000168	-1.683255	-0.570302	0.000069
 338	3.3532e+01	13.4194	24.966636	0.000160	1.603574	0.543306	0.000066
 339	3.3631e+01	13.4756	25.031403	0.000158	1.583654	0.536556	0.000065
 340	3.3730e+01	13.4900	25.092912	0.000150	1.503973	0.509560	0.000062
 341	3.3830e+01	13.5510	25.155643	0.000153	1.533853	0.519684	0.000063
 342	3.3929e+01	13.6167	25.221632	0.000161	1.613534	0.546680	0.000066
 343	3.4029e+01	13.6247	25.288437	0.000163	1.633454	0.553429	0.000067
 344	3.4129e+01	13.6488	25.351575	0.000154	1.543814	0.523058	0.000063
 345	3.4228e+01	13.7130	25.413083	0.000150	1.503973	0.509560	0.000062
 346	3.4328e+01	13.7403	25.479073	0.000161	1.613534	0.546680	0.000066
 347	3.4427e+01	13.8140	25.539360	0.000147	1.474093	0.499436	0.000061
 348	3.4526e+01	13.8429	25.612681	0.000179	1.792816	0.607422	0.000074
 349	3.4626e+01	13.8911	25.670117	0.000140	1.404372	0.475814	0.000058
 350	3.4725e+01	13.8846	25.735699	-0.000160	-1.603574	-0.543306	0.000066
 351	3.4825e+01	13.9665	25.802910	0.000164	1.643414	0.556804	0.000068
 352	3.4925e+01	13.9969	25.868900	0.000161	1.613534	0.546680	0.000066
 353	3.5024e+01	14.0242	25.930001	0.000149	1.494013	0.506185	0.000061
 354	3.5123e+01	14.0916	25.993954	0.000156	1.563734	0.529807	0.000064
 355	3.5223e+01	14.0980	26.061573	0.000165	1.653375	0.560178	0.000068
 356	3.5322e+01	14.1894	26.120230	0.000143	1.434253	0.485938	0.000059
 357	3.5422e+01	14.1814	26.187442	-0.000164	-1.643414	-0.556804	0.000068
 358	3.5522e+01	14.2392	26.250172	0.000153	1.533853	0.519684	0.000063
 359	3.5621e+01	14.2472	26.314940	0.000158	1.583654	0.536556	0.000065
 360	3.5721e+01	14.2953	26.380115	0.000159	1.593614	0.539931	0.000066
 361	3.5820e+01	14.3338	26.444475	0.000157	1.573694	0.533182	0.000065
 362	3.5919e+01	14.3980	26.508428	0.000156	1.563734	0.529807	0.000064
 363	3.6019e+01	14.4237	26.574824	0.000162	1.623494	0.550055	0.000067
 364	3.6118e+01	14.4509	26.639185	0.000157	1.573694	0.533182	0.000065
 365	3.6218e+01	14.5135	26.703545	0.000157	1.573694	0.533182	0.000065
 366	3.6318e+01	14.5360	26.762609	0.000144	1.444213	0.489312	0.000059
 367	3.6417e+01	14.6001	26.829821	0.000164	1.643414	0.556804	0.000068
 368	3.6517e+01	14.6338	26.896218	0.000162	1.623494	0.550055	0.000067
 369	3.6616e+01	14.6916	26.954875	0.000143	1.434253	0.485938	0.000059
 370	3.6715e+01	14.7236	27.020050	0.000159	1.593614	0.539931	0.000066
 371	3.6815e+01	14.7429	27.082781	0.000153	1.533853	0.519684	0.000063
 372	3.6914e+01	14.7830	27.145511	0.000153	1.533853	0.519684	0.000063
 373	3.7014e+01	14.8520	27.210686	0.000159	1.593614	0.539931	0.000066
 374	3.7114e+01	14.8648	27.277490	0.000163	1.633454	0.553429	0.000067
 375	3.7213e+01	14.9113	27.332889	0.000135	1.354572	0.458941	0.000056
 376	3.7313e+01	14.9434	27.398064	0.000159	1.593614	0.539931	0.000066
 377	3.7412e+01	14.9980	27.464053	0.000161	1.613534	0.546680	0.000066
 378	3.7511e+01	15.0317	27.527191	0.000154	1.543814	0.523058	0.000063
 379	3.7611e+01	15.0782	27.590737	0.000155	1.553774	0.526433	0.000064
 380	3.7711e+01	15.1039	27.662022	0.000174	1.743015	0.590550	0.000072
 381	3.7810e+01	15.1520	27.724345	0.000152	1.523893	0.516309	0.000063
 382	3.7910e+01	15.1825	27.787891	0.000155	1.553774	0.526433	0.000064
 383	3.8009e+01	15.2386	27.853473	0.000160	1.603574	0.543306	0.000066
 384	3.8108e+01	15.2643	27.914981	0.000150	1.503973	0.509560	0.000062
 385	3.8208e+01	15.3044	27.979749	0.000158	1.583654	0.536556	0.000065
 386	3.8307e+01	15.3349	28.044109	0.000157	1.573694	0.533182	0.000065
 387	3.8407e+01	15.3958	28.110098	0.000161	1.613534	0.546680	0.000066
 388	3.8507e+01	15.4103	28.171200	0.000149	1.494013	0.506185	0.000061
 389	3.8606e+01	15.4439	28.236782	0.000160	1.603574	0.543306	0.000066
 390	3.8706e+01	15.5258	28.302771	0.000161	1.613534	0.546680	0.000066
 391	3.8805e+01	15.5450	28.371612	0.000168	1.683255	0.570302	0.000069
 392	3.8904e+01	15.6028	28.435565	0.000156	1.563734	0.529807	0.000064
 393	3.9004e+01	15.6365	28.504813	0.000169	1.693215	0.573677	0.000070
 394	3.9103e+01	15.6637	28.565507	0.000148	1.484053	0.502811	0.000061
 395	3.9203e+01	15.7151	28.635978	0.000172	1.723095	0.583800	0.000071
 396	3.9303e+01	15.7504	28.701560	0.000160	1.603574	0.543306	0.000066
 397	3.9402e+01	15.7808	28.763476	0.000151	1.513933	0.512934	0.000062
 398	3.9502e+01	15.8322	28.823355	0.000146	1.464133	0.496062	0.000060
 399	3.9601e+01	15.8835	28.890159	0.000163	1.633454	0.553429	0.000067
 400	3.9700e+01	15.9172	28.950446	0.000147	1.474093	0.499436	0.000061
 401	3.9800e+01	15.9445	29.016436	0.000161	1.613534	0.546680	0.000066
 402	3.9900e+01	16.0086	29.077537	0.000149	1.494013	0.506185	0.000061
 403	3.9999e+01	16.0279	29.141490	0.000156	1.563734	0.529807	0.000064
 404	4.0099e+01	16.0792	29.203406	0.000151	1.513933	0.512934	0.000062
 405	4.0198e+01	16.1354	29.265729	0.000152	1.523893	0.516309	0.000063
 406	4.0297e+01	16.1498	29.328460	0.000153	1.533853	0.519684	0.000063
 407	4.0397e+01	16.1691	29.391191	0.000153	1.533853	0.519684	0.000063
 408	4.0496e+01	16.2220	29.449033	0.000141	1.414332	0.479189	0.000058
 409	4.0596e+01	16.2589	29.512579	0.000155	1.553774	0.526433	0.000064
 410	4.0696e+01	16.2942	29.575310	0.000153	1.533853	0.519684	0.000063
 411	4.0795e+01	16.3247	29.633967	0.000143	1.434253	0.485938	0.000059
 412	4.0895e+01	16.3921	29.689366	0.000135	1.354572	0.458941	0.000056
 413	4.0994e+01	16.4225	29.752911	0.000155	1.553774	0.526433	0.000064
 414	4.1093e+01	16.4867	29.817271	0.000157	1.573694	0.533182	0.000065
 415	4.1193e+01	16.4963	29.870226	0.000129	1.294811	0.438694	0.000053
 416	4.1292e+01	16.5557	29.932549	0.000152	1.523893	0.516309	0.000063
 417	4.1392e+01	16.5685	29.991614	0.000144	1.444213	0.489312	0.000059
 418	4.1492e+01	16.6150	30.055974	0.000157	1.573694	0.533182	0.000065
 419	4.1591e+01	16.6680	30.113409	0.000140	1.404372	0.475814	0.000058
 420	4.1691e+01	16.7049	30.167586	0.000132	1.324692	0.448818	0.000054
 421	4.1790e+01	16.7402	30.229502	0.000151	1.513933	0.512934	0.000062
 422	4.1889e+01	16.7963	30.291010	0.000150	1.503973	0.509560	0.000062
 423	4.1989e+01	16.8188	30.348853	0.000141	1.414332	0.479189	0.000058
 424	4.2089e+01	16.8813	30.405066	0.000137	1.374492	0.465691	0.000056
 425	4.2188e+01	16.8878	30.465760	0.000148	1.484053	0.502811	0.000061
 426	4.2288e+01	16.9391	30.522788	0.000139	1.394412	0.472440	0.000057
 427	4.2387e+01	16.9936	30.582668	0.000146	1.464133	0.496062	0.000060
 428	4.2486e+01	17.0177	30.641325	0.000143	1.434253	0.485938	0.000059
 429	4.2586e+01	17.0738	30.701204	0.000146	1.464133	0.496062	0.000060
 430	4.2685e+01	17.1107	30.757825	0.000138	1.384452	0.469065	0.000057
 431	4.2785e+01	17.1412	30.817297	0.000145	1.454173	0.492687	0.000060
 432	4.2885e+01	17.1637	30.873510	0.000137	1.374492	0.465691	0.000056
 433	4.2984e+01	17.1958	30.926465	0.000129	1.294811	0.438694	0.000053
 434	4.3084e+01	17.2696	30.989196	0.000153	1.533853	0.519684	0.000063
 435	4.3183e+01	17.3113	31.045409	0.000137	1.374492	0.465691	0.000056
 436	4.3282e+01	17.3642	31.100807	0.000135	1.354572	0.458941	0.000056
 437	4.3382e+01	17.3787	31.157835	0.000139	1.394412	0.472440	0.000057
 438	4.3481e+01	17.4204	31.218122	0.000147	1.474093	0.499436	0.000061
 439	4.3581e+01	17.4557	31.277187	0.000144	1.444213	0.489312	0.000059
 440	4.3681e+01	17.5070	31.332585	0.000135	1.354572	0.458941	0.000056
 441	4.3780e+01	17.5583	31.392872	0.000147	1.474093	0.499436	0.000061
 442	4.3880e+01	17.5696	31.443790	0.000125	1.245011	0.421821	0.000051
 443	4.3979e+01	17.6193	31.503262	0.000145	1.454173	0.492687	0.000060
 444	4.4078e+01	17.6642	31.558661	0.000135	1.354572	0.458941	0.000056
 445	4.4178e+01	17.6963	31.615281	0.000138	1.384452	0.469065	0.000057
 446	4.4278e+01	17.7573	31.671902	0.000138	1.384452	0.469065	0.000057
 447	4.4377e+01	17.7893	31.729337	0.000140	1.404372	0.475814	0.000058
 448	4.4477e+01	17.8359	31.783514	0.000132	1.324692	0.448818	0.000054
 449	4.4576e+01	17.8712	31.839727	0.000137	1.374492	0.465691	0.000056
 450	4.4675e+01	17.9097	31.894718	0.000134	1.344612	0.455567	0.000055
 451	4.4775e+01	17.9145	31.953375	0.000143	1.434253	0.485938	0.000059
 452	4.4874e+01	17.9851	32.008774	0.000135	1.354572	0.458941	0.000056
 453	4.4974e+01	18.0155	32.065802	0.000139	1.394412	0.472440	0.000057
 454	4.5074e+01	18.0765	32.124052	0.000142	1.424292	0.482563	0.000059
 455	4.5173e+01	18.1134	32.181080	0.000139	1.394412	0.472440	0.000057
 456	4.5273e+01	18.1551	32.234034	0.000129	1.294811	0.438694	0.000053
 457	4.5372e+01	18.1615	32.291877	0.000141	1.414332	0.479189	0.000058
 458	4.5471e+01	18.2498	32.346461	0.000133	1.334652	0.452192	0.000055
 459	4.5571e+01	18.2417	32.404711	-0.000142	-1.424292	-0.482563	0.000059
 460	4.5670e+01	18.3059	32.458480	0.000131	1.314732	0.445443	0.000054
 461	4.5770e+01	18.3203	32.513064	0.000133	1.334652	0.452192	0.000055
 462	4.5870e+01	18.3845	32.568870	0.000136	1.364532	0.462316	0.000056
 463	4.5969e+01	18.4150	32.625898	0.000139	1.394412	0.472440	0.000057
 464	4.6069e+01	18.4759	32.676001	0.000123	1.225091	0.415072	0.000050
 465	4.6168e+01	18.4888	32.731400	0.000135	1.354572	0.458941	0.000056
 466	4.6267e+01	18.5337	32.786391	0.000134	1.344612	0.455567	0.000055
 467	4.6367e+01	18.5786	32.840160	0.000131	1.314732	0.445443	0.000054
 468	4.6467e+01	18.5834	32.894744	0.000133	1.334652	0.452192	0.000055
 469	4.6566e+01	18.6524	32.946477	0.000126	1.264931	0.428570	0.000052
 470	4.6666e+01	18.7134	32.997394	0.000125	1.245011	0.421821	0.000051
 471	4.6765e+01	18.7439	33.057274	0.000146	1.464133	0.496062	0.000060
 472	4.6864e+01	18.7535	33.107377	0.000123	1.225091	0.415072	0.000050
 473	4.6964e+01	18.8305	33.157887	0.000124	1.235051	0.418447	0.000051
 474	4.7063e+01	18.8738	33.210435	0.000128	1.284851	0.435319	0.000053
 475	4.7163e+01	18.9171	33.262982	0.000128	1.284851	0.435319	0.000053
 476	4.7263e+01	18.9380	33.315122	0.000127	1.274891	0.431945	0.000052
 477	4.7362e+01	18.9749	33.364817	0.000122	1.215131	0.411697	0.000050
 478	4.7462e+01	19.0086	33.418994	0.000132	1.324692	0.448818	0.000054
 479	4.7561e+01	19.0567	33.470726	0.000126	1.264931	0.428570	0.000052
 480	4.7660e+01	19.1160	33.520830	0.000123	1.225091	0.415072	0.000050
 481	4.7760e+01	19.1032	33.572969	-0.000127	-1.274891	-0.431945	0.000052
 482	4.7859e+01	19.1545	33.629997	0.000139	1.394412	0.472440	0.000057
 483	4.7959e+01	19.2155	33.683767	0.000131	1.314732	0.445443	0.000054
 484	4.8059e+01	19.2652	33.735092	0.000125	1.254971	0.425196	0.000052
 485	4.8158e+01	19.3053	33.788046	0.000129	1.294811	0.438694	0.000053
 486	4.8258e+01	19.3406	33.843445	0.000135	1.354572	0.458941	0.000056
 487	4.8357e+01	19.3487	33.894363	0.000125	1.245011	0.421821	0.000051
 488	4.8456e+01	19.4433	33.946503	0.000127	1.274891	0.431945	0.000052
 489	4.8556e+01	19.4353	34.004753	-0.000142	-1.424292	-0.482563	0.000059
 490	4.8656e+01	19.4722	34.056078	0.000125	1.254971	0.425196	0.000052
 491	4.8755e+01	19.5155	34.109847	0.000131	1.314732	0.445443	0.000054
 492	4.8855e+01	19.5508	34.164023	0.000132	1.324692	0.448818	0.000054
 493	4.8954e+01	19.6326	34.219829	0.000136	1.364532	0.462316	0.000056
 494	4.9053e+01	19.6663	34.269933	0.000123	1.225091	0.415072	0.000050
 495	4.9153e+01	19.6743	34.331034	0.000149	1.494013	0.506185	0.000061
 496	4.9252e+01	19.6936	34.389691	0.000143	1.434253	0.485938	0.000059
 497	4.9352e+01	19.7850	34.446719	0.000139	1.394412	0.472440	0.000057
 498	4.9452e+01	19.8107	34.500896	0.000132	1.324692	0.448818	0.000054
 499	4.9551e+01	19.8476	34.557109	0.000137	1.374492	0.465691	0.000056
 500	4.9651e+01	19.8716	34.610064	0.000129	1.294811	0.438694	0.000053
 501	4.9750e+01	19.8989	34.666684	0.000138	1.384452	0.469065	0.000057
 502	4.9849e+01	19.9823	34.718824	0.000127	1.274891	0.431945	0.000052
 503	4.9949e+01	20.0192	34.778703	0.000146	1.464133	0.496062	0.000060
 504	5.0048e+01	19.9486	34.731859	0.000115	1.145410	0.388075	-0.000047
 505	5.0148e+01	19.9695	34.696013	-0.000088	-0.876488	-0.296962	-0.000036
 506	5.0248e+01	19.9005	34.650390	0.000112	1.115530	0.377952	-0.000046
 507	5.0347e+01	19.8604	34.608434	0.000103	1.025889	0.347581	-0.000042
 508	5.0447e+01	19.8139	34.558738	0.000122	1.215131	0.411697	-0.000050
 509	5.0546e+01	19.7738	34.515967	0.000105	1.045809	0.354330	-0.000043
 510	5.0645e+01	19.7465	34.466679	0.000121	1.205171	0.408323	-0.000050
 511	5.0745e+01	19.6823	34.423501	0.000106	1.055769	0.357704	-0.000043
 512	5.0844e+01	19.6358	34.375027	0.000119	1.185250	0.401574	-0.000049
 513	5.0944e+01	19.6246	34.330219	0.000110	1.095610	0.371203	-0.000045
 514	5.1044e+01	19.5797	34.282560	0.000117	1.165330	0.394825	-0.000048
 515	5.1143e+01	19.5572	34.238567	0.000108	1.075689	0.364453	-0.000044
 516	5.1242e+01	19.5043	34.189279	0.000121	1.205171	0.408323	-0.000050
 517	5.1342e+01	19.4385	34.150581	0.000095	0.946208	0.320584	-0.000039
 518	5.1441e+01	19.4241	34.101293	0.000121	1.205171	0.408323	-0.000050
 519	5.1541e+01	19.3567	34.055670	0.000112	1.115530	0.377952	-0.000046
 520	5.1641e+01	19.3294	34.007197	0.000119	1.185250	0.401574	-0.000049
 521	5.1740e+01	19.3085	33.963204	0.000108	1.075689	0.364453	-0.000044
 522	5.1840e+01	19.2749	33.915137	0.000118	1.175290	0.398199	-0.000048
 523	5.1939e+01	19.2315	33.867071	0.000118	1.175290	0.398199	-0.000048
 524	5.2038e+01	19.1610	33.819819	0.000116	1.155370	0.391450	-0.000047
 525	5.2138e+01	19.1513	33.773789	0.000113	1.125490	0.381326	-0.000046
 526	5.2237e+01	19.1032	33.730204	0.000107	1.065729	0.361079	-0.000044
 527	5.2337e+01	19.0519	33.682545	0.000117	1.165330	0.394825	-0.000048
 528	5.2437e+01	19.0102	33.632034	0.000124	1.235051	0.418447	-0.000051
 529	5.2536e+01	18.9765	33.583968	0.000118	1.175290	0.398199	-0.000048
 530	5.2636e+01	18.9203	33.538345	0.000112	1.115530	0.377952	-0.000046
 531	5.2735e+01	18.9059	33.489872	0.000119	1.185250	0.401574	-0.000049
 532	5.2834e+01	18.8465	33.442620	0.000116	1.155370	0.391450	-0.000047
 533	5.2934e+01	18.7984	33.394146	0.000119	1.185250	0.401574	-0.000049
 534	5.3033e+01	18.7615	33.343636	0.000124	1.235051	0.418447	-0.000051
 535	5.3133e+01	18.7423	33.298421	0.000111	1.105570	0.374577	-0.000045
 536	5.3233e+01	18.6893	33.251983	0.000114	1.135450	0.384701	-0.000047
 537	5.3332e+01	18.6444	33.201066	0.000125	1.245011	0.421821	-0.000051
 538	5.3431e+01	18.6187	33.156665	0.000109	1.085650	0.367828	-0.000045
 539	5.3531e+01	18.5754	33.103711	0.000129	1.294811	0.438694	-0.000053
 540	5.3630e+01	18.5481	33.054015	0.000122	1.215131	0.411697	-0.000050
 541	5.3730e+01	18.4727	33.006763	0.000116	1.155370	0.391450	-0.000047
 542	5.3830e+01	18.4118	32.959919	0.000115	1.145410	0.388075	-0.000047
 543	5.3929e+01	18.4086	32.911852	0.000118	1.175290	0.398199	-0.000048
 544	5.4029e+01	18.3797	32.859713	0.000127	1.274891	0.431945	-0.000052
 545	5.4128e+01	18.3476	32.811239	0.000119	1.185250	0.401574	-0.000049
 546	5.4227e+01	18.2963	32.763172	0.000118	1.175290	0.398199	-0.000048
 547	5.4327e+01	18.2433	32.719994	0.000106	1.055769	0.357704	-0.000043
 548	5.4426e+01	18.2096	32.671113	0.000120	1.195210	0.404948	-0.000049
 549	5.4526e+01	18.1583	32.622639	0.000119	1.185250	0.401574	-0.000049
 550	5.4626e+01	18.1487	32.574980	0.000117	1.165330	0.394825	-0.000048
 551	5.4725e+01	18.0829	32.528543	0.000114	1.135450	0.384701	-0.000047
 552	5.4825e+01	18.0621	32.480477	0.000118	1.175290	0.398199	-0.000048
 553	5.4924e+01	18.0236	32.429559	0.000125	1.245011	0.421821	-0.000051
 554	5.5023e+01	17.9722	32.381492	0.000118	1.175290	0.398199	-0.000048
 555	5.5123e+01	17.9417	32.335463	0.000113	1.125490	0.381326	-0.000046
 556	5.5222e+01	17.8840	32.286174	0.000121	1.205171	0.408323	-0.000050
 557	5.5322e+01	17.8760	32.239330	0.000115	1.145410	0.388075	-0.000047
 558	5.5422e+01	17.8214	32.191263	0.000118	1.175290	0.398199	-0.000048
 559	5.5521e+01	17.7749	32.146456	0.000110	1.095610	0.371203	-0.000045
 560	5.5620e+01	17.7380	32.098797	0.000117	1.165330	0.394825	-0.000048
 561	5.5720e+01	17.6915	32.053582	0.000111	1.105570	0.374577	-0.000045
 562	5.5819e+01	17.6530	32.005108	0.000119	1.185250	0.401574	-0.000049
 563	5.5919e+01	17.6321	31.955819	0.000121	1.205171	0.408323	-0.000050
 564	5.6019e+01	17.5872	31.911419	0.000109	1.085650	0.367828	-0.000045
 565	5.6118e+01	17.5278	31.862945	0.000119	1.185250	0.401574	-0.000049
 566	5.6218e+01	17.4942	31.814472	0.000119	1.185250	0.401574	-0.000049
 567	5.6317e+01	17.4781	31.764776	0.000122	1.215131	0.411697	-0.000050
 568	5.6416e+01	17.4236	31.711821	0.000129	1.294811	0.438694	-0.000053
 569	5.6516e+01	17.4059	31.662533	0.000121	1.205171	0.408323	-0.000050
 570	5.6615e+01	17.3450	31.616096	0.000114	1.135450	0.384701	-0.000047
 571	5.6715e+01	17.3145	31.565585	0.000124	1.235051	0.418447	-0.000051
 572	5.6815e+01	17.2680	31.512631	0.000129	1.294811	0.438694	-0.000053
 573	5.6914e+01	17.2295	31.465786	0.000115	1.145410	0.388075	-0.000047
 574	5.7014e+01	17.1605	31.415683	0.000123	1.225091	0.415072	-0.000050
 575	5.7113e+01	17.1637	31.363543	-0.000127	-1.274891	-0.431945	-0.000052
 576	5.7212e+01	17.0787	31.313848	0.000122	1.215131	0.411697	-0.000050
 577	5.7312e+01	17.0578	31.260893	0.000129	1.294811	0.438694	-0.000053
 578	5.7411e+01	17.0033	31.210383	0.000124	1.235051	0.418447	-0.000051
 579	5.7511e+01	16.9696	31.156613	0.000131	1.314732	0.445443	-0.000054
 580	5.7611e+01	16.9343	31.102844	0.000131	1.314732	0.445443	-0.000054
 581	5.7710e+01	16.9054	31.049890	0.000129	1.294811	0.438694	-0.000053
 582	5.7809e+01	16.8525	30.995306	0.000133	1.334652	0.452192	-0.000055
 583	5.7909e+01	16.8124	30.945203	0.000123	1.225091	0.415072	-0.000050
 584	5.8008e+01	16.7931	30.893063	0.000127	1.274891	0.431945	-0.000052
 585	5.8108e+01	16.7402	30.837664	0.000135	1.354572	0.458941	-0.000056
 586	5.8208e+01	16.7049	30.786746	0.000125	1.245011	0.421821	-0.000051
 587	5.8307e+01	16.6728	30.732977	0.000131	1.314732	0.445443	-0.000054
 588	5.8407e+01	16.6134	30.682059	0.000125	1.245011	0.421821	-0.000051
 589	5.8506e+01	16.5878	30.622995	0.000144	1.444213	0.489312	-0.000059
 590	5.8605e+01	16.5477	30.568818	0.000132	1.324692	0.448818	-0.000054
 591	5.8705e+01	16.4835	30.510161	0.000143	1.434253	0.485938	-0.000059
 592	5.8804e+01	16.4658	30.460058	0.000123	1.225091	0.415072	-0.000050
 593	5.8904e+01	16.4049	30.409140	0.000125	1.245011	0.421821	-0.000051
 594	5.9004e+01	16.3648	30.350482	0.000143	1.434253	0.485938	-0.000059
 595	5.9103e+01	16.3375	30.294269	0.000137	1.374492	0.465691	-0.000056
 596	5.9203e+01	16.2814	30.236834	0.000140	1.404372	0.475814	-0.000058
 597	5.9302e+01	16.2413	30.190804	0.000113	1.125490	0.381326	-0.000046
 598	5.9401e+01	16.2236	30.132962	0.000141	1.414332	0.479189	-0.000058
 599	5.9501e+01	16.1851	30.077563	0.000135	1.354572	0.458941	-0.000056
 600	5.9600e+01	16.1306	30.022979	0.000133	1.334652	0.452192	-0.000055
 601	5.9700e+01	16.0937	29.970839	0.000127	1.274891	0.431945	-0.000052
 602	5.9800e+01	16.0439	29.911367	0.000145	1.454173	0.492687	-0.000060
 603	5.9899e+01	16.0455	29.858820	-0.000128	-1.284851	-0.435319	-0.000053
 604	5.9998e+01	15.9653	29.798533	0.000147	1.474093	0.499436	-0.000061
 605	6.0098e+01	15.9589	29.745579	0.000129	1.294811	0.438694	-0.000053
 606	6.0197e+01	15.8947	29.688958	0.000138	1.384452	0.469065	-0.000057
 607	6.0297e+01	15.8386	29.633560	0.000135	1.354572	0.458941	-0.000056
 608	6.0397e+01	15.8225	29.575310	0.000142	1.424292	0.482563	-0.000059
 609	6.0496e+01	15.7712	29.526836	0.000119	1.185250	0.401574	-0.000049
 610	6.0596e+01	15.7520	29.467364	0.000145	1.454173	0.492687	-0.000060
 611	6.0695e+01	15.6862	29.410336	0.000139	1.394412	0.472440	-0.000057
 612	6.0794e+01	15.6557	29.354530	0.000136	1.364532	0.462316	-0.000056
 613	6.0894e+01	15.6108	29.293021	0.000150	1.503973	0.509560	-0.000062
 614	6.0993e+01	15.6044	29.241289	0.000126	1.264931	0.428570	-0.000052
 615	6.1093e+01	15.5562	29.183853	0.000140	1.404372	0.475814	-0.000058
 616	6.1193e+01	15.4969	29.124789	0.000144	1.444213	0.489312	-0.000059
 617	6.1292e+01	15.4841	29.066539	0.000142	1.424292	0.482563	-0.000059
 618	6.1392e+01	15.4472	29.010326	0.000137	1.374492	0.465691	-0.000056
 619	6.1491e+01	15.4135	28.955334	0.000134	1.344612	0.455567	-0.000055
 620	6.1590e+01	15.3429	28.895862	0.000145	1.454173	0.492687	-0.000060
 621	6.1690e+01	15.2899	28.838020	0.000141	1.414332	0.479189	-0.000058
 622	6.1789e+01	15.2803	28.785065	0.000129	1.294811	0.438694	-0.000053
 623	6.1889e+01	15.2210	28.727630	0.000140	1.404372	0.475814	-0.000058
 624	6.1989e+01	15.1953	28.669787	0.000141	1.414332	0.479189	-0.000058
 625	6.2088e+01	15.1760	28.614796	0.000134	1.344612	0.455567	-0.000055
 626	6.2188e+01	15.0894	28.554917	0.000146	1.464133	0.496062	-0.000060
 627	6.2287e+01	15.0654	28.496667	0.000142	1.424292	0.482563	-0.000059
 628	6.2386e+01	15.0445	28.435973	0.000148	1.484053	0.502811	-0.000061
 629	6.2486e+01	14.9948	28.385055	0.000125	1.245011	0.421821	-0.000051
 630	6.2586e+01	14.9498	28.323546	0.000150	1.503973	0.509560	-0.000062
 631	6.2685e+01	14.9258	28.264889	0.000143	1.434253	0.485938	-0.000059
 632	6.2785e+01	14.8616	28.205824	0.000144	1.444213	0.489312	-0.000059
 633	6.2884e+01	14.8408	28.143093	0.000153	1.533853	0.519684	-0.000063
 634	6.2983e+01	14.7942	28.085251	0.000141	1.414332	0.479189	-0.000058
 635	6.3083e+01	14.7605	28.023335	0.000151	1.513933	0.512934	-0.000062
 636	6.3182e+01	14.7204	27.967936	0.000135	1.354572	0.458941	-0.000056
 637	6.3282e+01	14.6948	27.902761	0.000159	1.593614	0.539931	-0.000066
 638	6.3382e+01	14.6290	27.844104	0.000143	1.434253	0.485938	-0.000059
 639	6.3481e+01	14.5969	27.781373	0.000153	1.533853	0.519684	-0.000063
 640	6.3581e+01	14.5536	27.728418	0.000129	1.294811	0.438694	-0.000053
 641	6.3680e+01	14.5007	27.667724	0.000148	1.484053	0.502811	-0.000061
 642	6.3779e+01	14.4734	27.602550	0.000159	1.593614	0.539931	-0.000066
 643	6.3879e+01	14.4285	27.537375	0.000159	1.593614	0.539931	-0.000066
 644	6.3978e+01	14.4012	27.476681	0.000148	1.484053	0.502811	-0.000061
 645	6.4078e+01	14.3739	27.416394	0.000147	1.474093	0.499436	-0.000061
 646	6.4177e+01	14.3210	27.350812	0.000160	1.603574	0.543306	-0.000066
 647	6.4277e+01	14.3001	27.292155	0.000143	1.434253	0.485938	-0.000059
 648	6.4376e+01	14.2376	27.227387	0.000158	1.583654	0.536556	-0.000065
 649	6.4476e+01	14.2007	27.170767	0.000138	1.384452	0.469065	-0.000057
 650	6.4576e+01	14.1525	27.108036	0.000153	1.533853	0.519684	-0.000063
 651	6.4675e+01	14.0964	27.047749	0.000147	1.474093	0.499436	-0.000061
 652	6.4775e+01	14.0595	26.989906	0.000141	1.414332	0.479189	-0.000058
 653	6.4874e+01	14.0483	26.930842	0.000144	1.444213	0.489312	-0.000059
 654	6.4974e+01	13.9713	26.866074	0.000158	1.583654	0.536556	-0.000065
 655	6.5073e+01	13.9183	26.807010	0.000144	1.444213	0.489312	-0.000059
 656	6.5172e+01	13.8878	26.743464	0.000155	1.553774	0.526433	-0.000064
 657	6.5272e+01	13.8782	26.685214	0.000142	1.424292	0.482563	-0.000059
 658	6.5371e+01	13.8445	26.628594	0.000138	1.384452	0.469065	-0.000057
 659	6.5471e+01	13.7948	26.569936	0.000143	1.434253	0.485938	-0.000059
 660	6.5570e+01	13.7579	26.505169	0.000158	1.583654	0.536556	-0.000065
 661	6.5670e+01	13.7290	26.450992	0.000132	1.324692	0.448818	-0.000054
 662	6.5769e+01	13.6905	26.390706	0.000147	1.474093	0.499436	-0.000061
 663	6.5869e+01	13.6456	26.331234	0.000145	1.454173	0.492687	-0.000060
 664	6.5969e+01	13.5975	26.276242	0.000134	1.344612	0.455567	-0.000055
 665	6.6068e+01	13.5750	26.212697	0.000155	1.553774	0.526433	-0.000064
 666	6.6168e+01	13.5526	26.154854	0.000141	1.414332	0.479189	-0.000058
 667	6.6267e+01	13.5108	26.097419	0.000140	1.404372	0.475814	-0.000058
 668	6.6367e+01	13.4322	26.038354	0.000144	1.444213	0.489312	-0.000059
 669	6.6466e+01	13.3841	25.978882	0.000145	1.454173	0.492687	-0.000060
 670	6.6566e+01	13.3601	25.916966	0.000151	1.513933	0.512934	-0.000062
 671	6.6665e+01	13.3087	25.861160	0.000136	1.364532	0.462316	-0.000056
 672	6.6764e+01	13.2991	25.802503	0.000143	1.434253	0.485938	-0.000059
 673	6.6864e+01	13.2365	25.740179	0.000152	1.523893	0.516309	-0.000063
 674	6.6963e+01	13.2044	25.685188	0.000134	1.344612	0.455567	-0.000055
 675	6.7063e+01	13.1595	25.626531	0.000143	1.434253	0.485938	-0.000059
 676	6.7162e+01	13.1210	25.566244	0.000147	1.474093	0.499436	-0.000061
 677	6.7262e+01	13.0777	25.507180	0.000144	1.444213	0.489312	-0.000059
 678	6.7362e+01	13.0569	25.445671	0.000150	1.503973	0.509560	-0.000062
 679	6.7461e+01	13.0039	25.386199	0.000145	1.454173	0.492687	-0.000060
 680	6.7561e+01	12.9574	25.330800	0.000135	1.354572	0.458941	-0.000056
 681	6.7660e+01	12.9205	25.274180	0.000138	1.384452	0.469065	-0.000057
 682	6.7760e+01	12.8708	25.215522	0.000143	1.434253	0.485938	-0.000059
 683	6.7859e+01	12.8387	25.154421	0.000149	1.494013	0.506185	-0.000061
 684	6.7959e+01	12.7889	25.099430	0.000134	1.344612	0.455567	-0.000055
 685	6.8058e+01	12.7633	25.038328	0.000149	1.494013	0.506185	-0.000061
 686	6.8157e+01	12.7151	24.983744	0.000133	1.334652	0.452192	-0.000055
 687	6.8257e+01	12.7055	24.924680	0.000144	1.444213	0.489312	-0.000059
 688	6.8356e+01	12.6173	24.865615	0.000144	1.444213	0.489312	-0.000059
 689	6.8456e+01	12.6285	24.806958	-0.000143	-1.434253	-0.485938	-0.000059
 690	6.8555e+01	12.5531	24.748708	0.000142	1.424292	0.482563	-0.000059
 691	6.8655e+01	12.5162	24.690865	0.000141	1.414332	0.479189	-0.000058
 692	6.8754e+01	12.4729	24.626912	0.000156	1.563734	0.529807	-0.000064
 693	6.8854e+01	12.4569	24.572736	0.000132	1.324692	0.448818	-0.000054
 694	6.8954e+01	12.3959	24.514893	0.000141	1.414332	0.479189	-0.000058
 695	6.9053e+01	12.3558	24.456236	0.000143	1.434253	0.485938	-0.000059
 696	6.9153e+01	12.3077	24.390654	0.000160	1.603574	0.543306	-0.000066
 697	6.9252e+01	12.2836	24.335662	0.000134	1.344612	0.455567	-0.000055
 698	6.9352e+01	12.2419	24.276598	0.000144	1.444213	0.489312	-0.000059
 699	6.9451e+01	12.2226	24.215904	0.000148	1.484053	0.502811	-0.000061
 700	6.9550e+01	12.1248	24.155617	0.000147	1.474093	0.499436	-0.000061
 701	6.9650e+01	12.1216	24.097774	0.000141	1.414332	0.479189	-0.000058
 702	6.9749e+01	12.0831	24.037080	0.000148	1.484053	0.502811	-0.000061
 703	6.9849e+01	12.0558	23.980460	0.000138	1.384452	0.469065	-0.000057
 704	6.9948e+01	11.9868	23.915692	0.000158	1.583654	0.536556	-0.000065
 705	7.0048e+01	11.9596	23.857442	0.000142	1.424292	0.482563	-0.000059
 706	7.0147e+01	11.9243	23.796748	0.000148	1.484053	0.502811	-0.000061
 707	7.0247e+01	11.8906	23.738498	0.000142	1.424292	0.482563	-0.000059
 708	7.0347e+01	11.8457	23.678212	0.000147	1.474093	0.499436	-0.000061
 709	7.0446e+01	11.8023	23.617517	0.000148	1.484053	0.502811	-0.000061
 710	7.0546e+01	11.7574	23.553972	0.000155	1.553774	0.526433	-0.000064
 711	7.0645e+01	11.7494	23.499388	0.000133	1.334652	0.452192	-0.000055
 712	7.0745e+01	11.7093	23.436250	0.000154	1.543814	0.523058	-0.000063
 713	7.0844e+01	11.6612	23.378815	0.000140	1.404372	0.475814	-0.000058
 714	7.0944e+01	11.6114	23.314862	0.000156	1.563734	0.529807	-0.000064
 715	7.1043e+01	11.5633	23.263129	0.000126	1.264931	0.428570	-0.000052
 716	7.1142e+01	11.5248	23.199991	0.000154	1.543814	0.523058	-0.000063
 717	7.1242e+01	11.4719	23.144185	0.000136	1.364532	0.462316	-0.000056
 718	7.1341e+01	11.4334	23.085121	0.000144	1.444213	0.489312	-0.000059
 719	7.1441e+01	11.4414	23.031352	-0.000131	-1.314732	-0.445443	-0.000054
 720	7.1540e+01	11.3516	22.966177	0.000159	1.593614	0.539931	-0.000066
 721	7.1640e+01	11.3066	22.906297	0.000146	1.464133	0.496062	-0.000060
 722	7.1740e+01	11.2745	22.844381	0.000151	1.513933	0.512934	-0.000062
 723	7.1839e+01	11.2312	22.783687	0.000148	1.484053	0.502811	-0.000061
 724	7.1939e+01	11.1943	22.729511	0.000132	1.324692	0.448818	-0.000054
 725	7.2038e+01	11.1574	22.666780	0.000153	1.533853	0.519684	-0.000063
 726	7.2138e+01	11.1398	22.611789	0.000134	1.344612	0.455567	-0.000055
 727	7.2237e+01	11.0740	22.555983	0.000136	1.364532	0.462316	-0.000056
 728	7.2337e+01	11.0484	22.500584	0.000135	1.354572	0.458941	-0.000056
 729	7.2436e+01	11.0532	22.437039	-0.000155	-1.553774	-0.526433	-0.000064
 730	7.2535e+01	10.9938	22.382455	0.000133	1.334652	0.452192	-0.000055
 731	7.2635e+01	10.9088	22.319317	0.000154	1.543814	0.523058	-0.000063
 732	7.2734e+01	10.8976	22.258215	0.000149	1.494013	0.506185	-0.000061
 733	7.2834e+01	10.8462	22.197521	0.000148	1.484053	0.502811	-0.000061
 734	7.2933e+01	10.8077	22.140901	0.000138	1.384452	0.469065	-0.000057
 735	7.3033e+01	10.7997	22.076948	0.000156	1.563734	0.529807	-0.000064
 736	7.3132e+01	10.7435	22.018291	0.000143	1.434253	0.485938	-0.000059
 737	7.3232e+01	10.6714	21.955560	0.000153	1.533853	0.519684	-0.000063
 738	7.3332e+01	10.6730	21.902198	-0.000130	-1.304771	-0.442069	-0.000054
 739	7.3431e+01	10.6152	21.836208	0.000161	1.613534	0.546680	-0.000066
 740	7.3531e+01	10.5494	21.775922	0.000147	1.474093	0.499436	-0.000061
 741	7.3630e+01	10.5125	21.712784	0.000154	1.543814	0.523058	-0.000063
 742	7.3730e+01	10.4821	21.649238	0.000155	1.553774	0.526433	-0.000064
 743	7.3829e+01	10.4403	21.588137	0.000149	1.494013	0.506185	-0.000061
 744	7.3928e+01	10.3986	21.527850	0.000147	1.474093	0.499436	-0.000061
 745	7.4028e+01	10.3585	21.462268	0.000160	1.603574	0.543306	-0.000066
 746	7.4127e+01	10.3248	21.402796	0.000145	1.454173	0.492687	-0.000060
 747	7.4227e+01	10.3216	21.333955	0.000168	1.683255	0.570302	-0.000069
 748	7.4326e+01	10.2366	21.271632	0.000152	1.523893	0.516309	-0.000063
 749	7.4426e+01	10.1901	21.206050	0.000160	1.603574	0.543306	-0.000066
 750	7.4525e+01	10.1708	21.138838	0.000164	1.643414	0.556804	-0.000068
 751	7.4625e+01	10.1339	21.079773	0.000144	1.444213	0.489312	-0.000059
 752	7.4725e+01	10.1019	21.010525	0.000169	1.693215	0.573677	-0.000070
 753	7.4824e+01	10.0569	20.947387	0.000154	1.543814	0.523058	-0.000063
 754	7.4924e+01	9.9751	20.878139	0.000169	1.693215	0.573677	-0.000070
 755	7.5023e+01	9.9511	20.820296	0.000141	1.414332	0.479189	-0.000058
 756	7.5123e+01	9.9302	20.753085	0.000164	1.643414	0.556804	-0.000068
 757	7.5222e+01	9.8724	20.687910	0.000159	1.593614	0.539931	-0.000066
 758	7.5322e+01	9.8708	20.619476	0.000167	1.673295	0.566928	-0.000069
 759	7.5421e+01	9.8083	20.555931	0.000155	1.553774	0.526433	-0.000064
 760	7.5520e+01	9.7858	20.487905	0.000166	1.663335	0.563553	-0.000068
 761	7.5620e+01	9.7233	20.421508	0.000162	1.623494	0.550055	-0.000067
 762	7.5719e+01	9.6912	20.359184	0.000152	1.523893	0.516309	-0.000063
 763	7.5819e+01	9.6527	20.295232	0.000156	1.563734	0.529807	-0.000064
 764	7.5918e+01	9.6094	20.225983	0.000169	1.693215	0.573677	-0.000070
 765	7.6018e+01	9.5725	20.158365	0.000165	1.653375	0.560178	-0.000068
 766	7.6118e+01	9.5035	20.093190	0.000159	1.593614	0.539931	-0.000066
 767	7.6217e+01	9.5131	20.023534	-0.000170	-1.703175	-0.577051	-0.000070
 768	7.6317e+01	9.4521	19.962025	0.000150	1.503973	0.509560	-0.000062
 769	7.6416e+01	9.4136	19.891555	0.000172	1.723095	0.583800	-0.000071
 770	7.6516e+01	9.3671	19.823529	0.000166	1.663335	0.563553	-0.000068
 771	7.6615e+01	9.3334	19.758761	0.000158	1.583654	0.536556	-0.000065
 772	7.6715e+01	9.2693	19.686662	0.000176	1.762935	0.597299	-0.000072
 773	7.6814e+01	9.2677	19.617414	0.000169	1.693215	0.573677	-0.000070
 774	7.6913e+01	9.2340	19.553868	0.000155	1.553774	0.526433	-0.000064
 775	7.7013e+01	9.1634	19.480954	0.000178	1.782856	0.604048	-0.000073
 776	7.7112e+01	9.1136	19.415779	0.000159	1.593614	0.539931	-0.000066
 777	7.7212e+01	9.1153	19.348568	-0.000164	-1.643414	-0.556804	-0.000068
 778	7.7311e+01	9.0719	19.282578	0.000161	1.613534	0.546680	-0.000066
 779	7.7411e+01	9.0094	19.214552	0.000166	1.663335	0.563553	-0.000068
 780	7.7510e+01	8.9821	19.145304	0.000169	1.693215	0.573677	-0.000070
 781	7.7610e+01	8.9179	19.073611	0.000175	1.752975	0.593924	-0.000072
 782	7.7710e+01	8.9227	19.008844	-0.000158	-1.583654	-0.536556	-0.000065
 783	7.7809e+01	8.8602	18.931041	0.000190	1.902377	0.644543	-0.000078
 784	7.7909e+01	8.8121	18.864645	0.000162	1.623494	0.550055	-0.000067
 785	7.8008e+01	8.7800	18.795396	0.000169	1.693215	0.573677	-0.000070
 786	7.8108e+01	8.7431	18.726963	0.000167	1.673295	0.566928	-0.000069
 787	7.8207e+01	8.6837	18.659751	0.000164	1.643414	0.556804	-0.000068
 788	7.8306e+01	8.6228	18.586837	0.000178	1.782856	0.604048	-0.000073
 789	7.8406e+01	8.6035	18.518403	0.000167	1.673295	0.566928	-0.000069
 790	7.8505e+01	8.5666	18.458931	0.000145	1.454173	0.492687	-0.000060
 791	7.8605e+01	8.5249	18.385610	0.000179	1.792816	0.607422	-0.000074
 792	7.8704e+01	8.4912	18.313510	0.000176	1.762935	0.597299	-0.000072
 793	7.8804e+01	8.4415	18.243855	0.000170	1.703175	0.577051	-0.000070
 794	7.8903e+01	8.3998	18.175421	0.000167	1.673295	0.566928	-0.000069
 795	7.9003e+01	8.3709	18.104543	0.000173	1.733055	0.587175	-0.000071
 796	7.9103e+01	8.3212	18.036925	0.000165	1.653375	0.560178	-0.000068
 797	7.9202e+01	8.3099	17.960344	0.000187	1.872496	0.634419	-0.000077
 798	7.9302e+01	8.2586	17.888244	0.000176	1.762935	0.597299	-0.000072
 799	7.9401e+01	8.2105	17.816552	0.000175	1.752975	0.593924	-0.000072
 800	7.9501e+01	8.1479	17.745267	0.000174	1.743015	0.590550	-0.000072
 801	7.9600e+01	8.1335	17.675204	0.000171	1.713135	0.580426	-0.000070
 802	7.9700e+01	8.1078	17.595365	0.000195	1.952177	0.661416	-0.000080
 803	7.9799e+01	8.0725	17.526524	0.000168	1.683255	0.570302	-0.000069
 804	7.9898e+01	8.0003	17.455239	0.000174	1.743015	0.590550	-0.000072
 805	7.9998e+01	7.9666	17.384362	0.000173	1.733055	0.587175	-0.000071
 806	8.0097e+01	7.9329	17.305337	0.000193	1.932257	0.654666	-0.000079
 807	8.0197e+01	7.9153	17.240977	0.000157	1.573694	0.533182	-0.000065
 808	8.0296e+01	7.8463	17.167656	0.000179	1.792816	0.607422	-0.000074
 809	8.0396e+01	7.8206	17.087409	0.000196	1.962137	0.664790	-0.000081
 810	8.0496e+01	7.7886	17.013680	0.000180	1.802776	0.610797	-0.000074
 811	8.0595e+01	7.7565	16.939544	0.000181	1.812736	0.614172	-0.000075
 812	8.0695e+01	7.6907	16.865407	0.000181	1.812736	0.614172	-0.000075
 813	8.0794e+01	7.6410	16.785568	0.000195	1.952177	0.661416	-0.000080
 814	8.0894e+01	7.6265	16.713876	0.000175	1.752975	0.593924	-0.000072
 815	8.0993e+01	7.5736	16.637296	0.000187	1.872496	0.634419	-0.000077
 816	8.1093e+01	7.5527	16.566418	0.000173	1.733055	0.587175	-0.000071
 817	8.1192e+01	7.4918	16.494318	0.000176	1.762935	0.597299	-0.000072
 818	8.1291e+01	7.4244	16.418145	0.000186	1.862536	0.631044	-0.000077
 819	8.1391e+01	7.4003	16.342787	0.000184	1.842616	0.624295	-0.000076
 820	8.1490e+01	7.3891	16.269058	0.000180	1.802776	0.610797	-0.000074
 821	8.1590e+01	7.3041	16.197773	0.000174	1.743015	0.590550	-0.000072
 822	8.1689e+01	7.3009	16.122415	0.000184	1.842616	0.624295	-0.000076
 823	8.1789e+01	7.2527	16.050722	0.000175	1.752975	0.593924	-0.000072
 824	8.1888e+01	7.1886	15.974142	0.000187	1.872496	0.634419	-0.000077
 825	8.1988e+01	7.1613	15.901228	0.000178	1.782856	0.604048	-0.000073
 826	8.2088e+01	7.1356	15.829943	0.000174	1.743015	0.590550	-0.000072
 827	8.2187e+01	7.1148	15.752955	0.000188	1.882457	0.637794	-0.000077
 828	8.2287e+01	7.0522	15.685743	0.000164	1.643414	0.556804	-0.000068
 829	8.2386e+01	7.0217	15.608756	0.000188	1.882457	0.637794	-0.000077
 830	8.2486e+01	6.9945	15.535027	0.000180	1.802776	0.610797	-0.000074
 831	8.2585e+01	6.9126	15.463742	0.000174	1.743015	0.590550	-0.000072
 832	8.2684e+01	6.8854	15.394493	0.000169	1.693215	0.573677	-0.000070
 833	8.2784e+01	6.8565	15.317913	0.000187	1.872496	0.634419	-0.000077
 834	8.2883e+01	6.8148	15.251109	0.000163	1.633454	0.553429	-0.000067
 835	8.2983e+01	6.7731	15.175343	0.000185	1.852576	0.627670	-0.000076
 836	8.3082e+01	6.7570	15.102021	0.000179	1.792816	0.607422	-0.000074
 837	8.3182e+01	6.6897	15.028292	0.000180	1.802776	0.610797	-0.000074
 838	8.3281e+01	6.6528	14.957822	0.000172	1.723095	0.583800	-0.000071
 839	8.3381e+01	6.6367	14.883686	0.000181	1.812736	0.614172	-0.000075
 840	8.3481e+01	6.5966	14.813623	0.000171	1.713135	0.580426	-0.000070
 841	8.3580e+01	6.5533	14.739894	0.000180	1.802776	0.610797	-0.000074
 842	8.3680e+01	6.5100	14.669016	0.000173	1.733055	0.587175	-0.000071
 843	8.3779e+01	6.4763	14.597731	0.000174	1.743015	0.590550	-0.000072
 844	8.3879e+01	6.4282	14.523595	0.000181	1.812736	0.614172	-0.000075
 845	8.3978e+01	6.3865	14.447829	0.000185	1.852576	0.627670	-0.000076
 846	8.4078e+01	6.3399	14.382247	0.000160	1.603574	0.543306	-0.000066
 847	8.4177e+01	6.3175	14.306481	0.000185	1.852576	0.627670	-0.000076
 848	8.4276e+01	6.2693	14.229901	0.000187	1.872496	0.634419	-0.000077
 849	8.4376e+01	6.2453	14.156172	0.000180	1.802776	0.610797	-0.000074
 850	8.4475e+01	6.1779	14.085702	0.000172	1.723095	0.583800	-0.000071
 851	8.4575e+01	6.1554	14.012787	0.000178	1.782856	0.604048	-0.000073
 852	8.4674e+01	6.1314	13.939058	0.000180	1.802776	0.610797	-0.000074
 853	8.4774e+01	6.0544	13.866551	0.000177	1.772896	0.600673	-0.000073
 854	8.4874e+01	6.0127	13.789971	0.000187	1.872496	0.634419	-0.000077
 855	8.4973e+01	5.9758	13.717871	0.000176	1.762935	0.597299	-0.000072
 856	8.5073e+01	5.9485	13.647401	0.000172	1.723095	0.583800	-0.000071
 857	8.5172e+01	5.9068	13.573265	0.000181	1.812736	0.614172	-0.000075
 858	8.5272e+01	5.8731	13.496277	0.000188	1.882457	0.637794	-0.000077
 859	8.5371e+01	5.8250	13.420919	0.000184	1.842616	0.624295	-0.000076
 860	8.5471e+01	5.7592	13.350041	0.000173	1.733055	0.587175	-0.000071
 861	8.5570e+01	5.7624	13.277534	-0.000177	-1.772896	-0.600673	-0.000073
 862	8.5669e+01	5.7111	13.201361	0.000186	1.862536	0.631044	-0.000077
 863	8.5769e+01	5.6806	13.128854	0.000177	1.772896	0.600673	-0.000073
 864	8.5868e+01	5.6485	13.052274	0.000187	1.872496	0.634419	-0.000077
 865	8.5968e+01	5.6004	12.978952	0.000179	1.792816	0.607422	-0.000074
 866	8.6067e+01	5.5522	12.905223	0.000180	1.802776	0.610797	-0.000074
 867	8.6167e+01	5.5105	12.827421	0.000190	1.902377	0.644543	-0.000078
 868	8.6266e+01	5.4961	12.756543	0.000173	1.733055	0.587175	-0.000071
 869	8.6366e+01	5.4464	12.679963	0.000187	1.872496	0.634419	-0.000077
 870	8.6466e+01	5.3870	12.604197	0.000185	1.852576	0.627670	-0.000076
 871	8.6565e+01	5.3533	12.528839	0.000184	1.842616	0.624295	-0.000076
 872	8.6665e+01	5.2924	12.452258	0.000187	1.872496	0.634419	-0.000077
 873	8.6764e+01	5.2779	12.385861	0.000162	1.623494	0.550055	-0.000067
 874	8.6864e+01	5.2282	12.299912	0.000210	2.101578	0.712034	-0.000086
 875	8.6963e+01	5.1801	12.225776	0.000181	1.812736	0.614172	-0.000075
 876	8.7063e+01	5.1704	12.150825	0.000183	1.832656	0.620921	-0.000075
 877	8.7162e+01	5.1159	12.076281	0.000182	1.822696	0.617546	-0.000075
 878	8.7261e+01	5.0822	12.001330	0.000183	1.832656	0.620921	-0.000075
 879	8.7361e+01	5.0309	11.921491	0.000195	1.952177	0.661416	-0.000080
 880	8.7460e+01	5.0100	11.846540	0.000183	1.832656	0.620921	-0.000075
 881	8.7560e+01	4.9587	11.769145	0.000189	1.892417	0.641168	-0.000078
 882	8.7659e+01	4.8785	11.700304	0.000168	1.683255	0.570302	-0.000069
 883	8.7759e+01	4.9041	11.623723	-0.000187	-1.872496	-0.634419	-0.000077
 884	8.7859e+01	4.8223	11.545106	0.000192	1.922297	0.651292	-0.000079
 885	8.7958e+01	4.7806	11.471785	0.000179	1.792816	0.607422	-0.000074
 886	8.8058e+01	4.7389	11.398870	0.000178	1.782856	0.604048	-0.000073
 887	8.8157e+01	4.7116	11.319846	0.000193	1.932257	0.654666	-0.000079
 888	8.8257e+01	4.6892	11.243673	0.000186	1.862536	0.631044	-0.000077
 889	8.8356e+01	4.6202	11.169129	0.000182	1.822696	0.617546	-0.000075
 890	8.8456e+01	4.6025	11.090919	0.000191	1.912337	0.647917	-0.000079
 891	8.8555e+01	4.5239	11.014746	0.000186	1.862536	0.631044	-0.000077
 892	8.8654e+01	4.5191	10.938573	0.000186	1.862536	0.631044	-0.000077
 893	8.8754e+01	4.4710	10.863215	0.000184	1.842616	0.624295	-0.000076
 894	8.8853e+01	4.4341	10.789078	0.000181	1.812736	0.614172	-0.000075
 895	8.8953e+01	4.3908	10.720238	0.000168	1.683255	0.570302	-0.000069
 896	8.9052e+01	4.3330	10.647323	0.000178	1.782856	0.604048	-0.000073
 897	8.9152e+01	4.3298	10.568299	0.000193	1.932257	0.654666	-0.000079
 898	8.9251e+01	4.2769	10.490089	0.000191	1.912337	0.647917	-0.000079
 899	8.9351e+01	4.2079	10.411472	0.000192	1.922297	0.651292	-0.000079
 900	8.9451e+01	4.1903	10.339780	0.000175	1.752975	0.593924	-0.000072
 901	8.9550e+01	4.1694	10.261977	0.000190	1.902377	0.644543	-0.000078
 902	8.9650e+01	4.0908	10.178472	0.000204	2.041818	0.691787	-0.000084
 903	8.9749e+01	4.0411	10.103114	0.000184	1.842616	0.624295	-0.000076
 904	8.9849e+01	4.0218	10.027348	0.000185	1.852576	0.627670	-0.000076
 905	8.9948e+01	4.0154	9.943843	0.000204	2.041818	0.691787	-0.000084
 906	9.0047e+01	3.9496	9.867670	0.000186	1.862536	0.631044	-0.000077
 907	9.0147e+01	3.9288	9.788645	0.000193	1.932257	0.654666	-0.000079
 908	9.0246e+01	3.8582	9.704733	0.000205	2.051778	0.695161	-0.000084
 909	9.0346e+01	3.8646	9.628560	-0.000186	-1.862536	-0.631044	-0.000077
 910	9.0445e+01	3.8068	9.547906	0.000197	1.972097	0.668165	-0.000081
 911	9.0545e+01	3.7667	9.464401	0.000204	2.041818	0.691787	-0.000084
 912	9.0644e+01	3.7186	9.382525	0.000200	2.001978	0.678288	-0.000082
 913	9.0744e+01	3.6609	9.308796	0.000180	1.802776	0.610797	-0.000074
 914	9.0844e+01	3.6224	9.221217	0.000214	2.141419	0.725532	-0.000088
 915	9.0943e+01	3.6031	9.140156	0.000198	1.982057	0.671539	-0.000081
 916	9.1043e+01	3.5405	9.057058	0.000203	2.031858	0.688412	-0.000084
 917	9.1142e+01	3.4908	8.971109	0.000210	2.101578	0.712034	-0.000086
 918	9.1242e+01	3.4523	8.887196	0.000205	2.051778	0.695161	-0.000084
 919	9.1341e+01	3.4507	8.808579	0.000192	1.922297	0.651292	-0.000079
 920	9.1441e+01	3.3817	8.723037	0.000209	2.091618	0.708659	-0.000086
 921	9.1540e+01	3.3625	8.639939	0.000203	2.031858	0.688412	-0.000084
 922	9.1639e+01	3.2919	8.555619	0.000206	2.061738	0.698536	-0.000085
 923	9.1739e+01	3.2694	8.469670	0.000210	2.101578	0.712034	-0.000086
 924	9.1838e+01	3.2438	8.385757	0.000205	2.051778	0.695161	-0.000084
 925	9.1938e+01	3.1908	8.306326	0.000194	1.942217	0.658041	-0.000080
 926	9.2037e+01	3.1716	8.215488	0.000222	2.221099	0.752529	-0.000091
 927	9.2137e+01	3.1186	8.126688	0.000217	2.171299	0.735656	-0.000089
 928	9.2237e+01	3.0609	8.042775	0.000205	2.051778	0.695161	-0.000084
 929	9.2336e+01	3.0047	7.958048	0.000207	2.071698	0.701910	-0.000085
 930	9.2436e+01	2.9903	7.871691	0.000211	2.111539	0.715409	-0.000087
 931	9.2535e+01	2.9470	7.785335	0.000211	2.111539	0.715409	-0.000087
 932	9.2635e+01	2.9357	7.703459	0.000200	2.001978	0.678288	-0.000082
 933	9.2734e+01	2.8459	7.611399	0.000225	2.250980	0.762653	-0.000093
 934	9.2834e+01	2.8732	7.525857	-0.000209	-2.091618	-0.708659	-0.000086
 935	9.2933e+01	2.8026	7.439093	0.000212	2.121499	0.718783	-0.000087
 936	9.3032e+01	2.7288	7.352329	0.000212	2.121499	0.718783	-0.000087
 937	9.3132e+01	2.7079	7.264751	0.000214	2.141419	0.725532	-0.000088
 938	9.3231e+01	2.7063	7.174728	0.000220	2.201179	0.745780	-0.000090
 939	9.3331e+01	2.6502	7.087964	0.000212	2.121499	0.718783	-0.000087
 940	9.3430e+01	2.6069	6.999571	0.000216	2.161339	0.732281	-0.000089
 941	9.3530e+01	2.5876	6.911177	0.000216	2.161339	0.732281	-0.000089
 942	9.3629e+01	2.4785	6.823599	0.000214	2.141419	0.725532	-0.000088
 943	9.3729e+01	2.4609	6.727873	0.000234	2.340621	0.793024	-0.000096
 944	9.3829e+01	2.4128	6.647219	0.000197	1.972097	0.668165	-0.000081
 945	9.3928e+01	2.3999	6.555567	0.000224	2.241020	0.759278	-0.000092
 946	9.4028e+01	2.3534	6.462693	0.000227	2.270900	0.769402	-0.000093
 947	9.4127e+01	2.3245	6.371856	0.000222	2.221099	0.752529	-0.000091
 948	9.4227e+01	2.2924	6.285907	0.000210	2.101578	0.712034	-0.000086
 949	9.4326e+01	2.2780	6.191403	0.000231	2.310740	0.782900	-0.000095
 950	9.4425e+01	2.1914	6.105454	0.000210	2.101578	0.712034	-0.000086
 951	9.4525e+01	2.1609	6.012987	0.000226	2.260940	0.766027	-0.000093
 952	9.4624e+01	2.1128	5.918891	0.000230	2.300780	0.779525	-0.000095
 953	9.4724e+01	2.1112	5.827646	0.000223	2.231060	0.755903	-0.000092
 954	9.4823e+01	2.0278	5.734365	0.000228	2.280860	0.772776	-0.000094
 955	9.4923e+01	1.9989	5.647193	0.000213	2.131459	0.722158	-0.000088
 956	9.5022e+01	1.9443	5.555949	0.000223	2.231060	0.755903	-0.000092
 957	9.5122e+01	1.9122	5.462260	0.000229	2.290820	0.776151	-0.000094
 958	9.5222e+01	1.8737	5.370608	0.000224	2.241020	0.759278	-0.000092
 959	9.5321e+01	1.8385	5.284251	0.000211	2.111539	0.715409	-0.000087
 960	9.5421e+01	1.7999	5.186896	0.000238	2.380461	0.806522	-0.000098
 961	9.5520e+01	1.7631	5.099725	0.000213	2.131459	0.722158	-0.000088
 962	9.5620e+01	1.7213	4.999519	0.000245	2.450181	0.830144	-0.000101
 963	9.5719e+01	1.6652	4.910718	0.000217	2.171299	0.735656	-0.000089
 964	9.5819e+01	1.6171	4.812549	0.000240	2.400381	0.813271	-0.000099
 965	9.5918e+01	1.5754	4.720082	0.000226	2.260940	0.766027	-0.000093
 966	9.6017e+01	1.5689	4.621912	0.000240	2.400381	0.813271	-0.000099
 967	9.6117e+01	1.5304	4.533926	0.000215	2.151379	0.728907	-0.000088
 968	9.6216e+01	1.4791	4.432905	0.000247	2.470102	0.836893	-0.000102
 969	9.6316e+01	1.4454	4.335550	0.000238	2.380461	0.806522	-0.000098
 970	9.6415e+01	1.3716	4.244306	0.000223	2.231060	0.755903	-0.000092
 971	9.6515e+01	1.3732	4.147766	-0.000236	-2.360541	-0.799773	-0.000097
 972	9.6615e+01	1.3107	4.048374	0.000243	2.430261	0.823395	-0.000100
 973	9.6714e+01	1.2850	3.952241	0.000235	2.350581	0.796398	-0.000097
 974	9.6814e+01	1.2385	3.852035	0.000245	2.450181	0.830144	-0.000101
 975	9.6913e+01	1.2192	3.755495	0.000236	2.360541	0.799773	-0.000097
 976	9.7013e+01	1.1518	3.661806	0.000229	2.290820	0.776151	-0.000094
 977	9.7112e+01	1.1278	3.559156	0.000251	2.509942	0.850391	-0.000103
 978	9.7212e+01	1.0716	3.459764	0.000243	2.430261	0.823395	-0.000100
 979	9.7311e+01	1.0508	3.360780	0.000242	2.420301	0.820020	-0.000099
 980	9.7410e+01	1.0059	3.261388	0.000243	2.430261	0.823395	-0.000100
 981	9.7510e+01	0.9513	3.157108	0.000255	2.549782	0.863890	-0.000105
 982	9.7609e+01	0.9401	3.060161	0.000237	2.370501	0.803147	-0.000097
 983	9.7709e+01	0.8823	2.966879	0.000228	2.280860	0.772776	-0.000094
 984	9.7808e+01	0.8615	2.865044	0.000249	2.490022	0.843642	-0.000102
 985	9.7908e+01	0.7925	2.760764	0.000255	2.549782	0.863890	-0.000105
 986	9.8007e+01	0.7444	2.666668	0.000230	2.300780	0.779525	-0.000095
 987	9.8107e+01	0.7315	2.565647	0.000247	2.470102	0.836893	-0.000102
 988	9.8207e+01	0.6770	2.473588	0.000225	2.250980	0.762653	-0.000093
 989	9.8306e+01	0.6353	2.364827	0.000266	2.659343	0.901010	-0.000109
 990	9.8406e+01	0.6096	2.272360	0.000226	2.260940	0.766027	-0.000093
 991	9.8505e+01	0.5567	2.168895	0.000253	2.529862	0.857141	-0.000104
 992	9.8605e+01	0.5406	2.077243	0.000224	2.241020	0.759278	-0.000092
 993	9.8704e+01	0.4861	1.975000	0.000250	2.499982	0.847017	-0.000103
 994	9.8803e+01	0.4572	1.875609	0.000243	2.430261	0.823395	-0.000100
 995	9.8903e+01	0.3882	1.772958	0.000251	2.509942	0.850391	-0.000103
 996	9.9002e+01	0.3642	1.677640	0.000233	2.330660	0.789649	-0.000096
 997	9.9102e+01	0.3690	1.582322	-0.000233	-2.330660	-0.789649	-0.000096
 998	9.9201e+01	0.2743	1.484560	0.000239	2.390421	0.809897	-0.000098
 999	9.9301e+01	0.2262	1.384761	0.000244	2.440221	0.826769	-0.000100
1000	9.9400e+01	0.2005	1.293516	0.000223	2.231060	0.755903	-0.000092
1001	9.9500e+01	0.1765	1.189237	0.000255	2.549782	0.863890	-0.000105
1002	9.9600e+01	0.0866	1.087808	0.000248	2.480062	0.840268	-0.000102
1003	9.9699e+01	0.1059	0.996971	-0.000222	-2.221099	-0.752529	-0.000091
1004	9.9799e+01	0.0578	0.893913	0.000252	2.519902	0.853766	-0.000104
1005	9.9898e+01	0.0064	0.816518	0.000189	1.892417	0.641168	-0.000078
1006	9.9998e+01	-0.0112	0.723237	0.000228	2.280860	0.772776	-0.000094
1007	1.0010e+02	-0.0754	0.623845	0.000243	2.430261	0.823395	-0.000100
1008	1.0020e+02	-0.1091	0.525676	0.000240	2.400381	0.813271	-0.000099
1009	1.0030e+02	-0.1925	0.424247	0.000248	2.480062	0.840268	-0.000102
1010	1.0040e+02	-0.1797	0.324856	-0.000243	-2.430261	-0.823395	-0.000100
1011	1.0050e+02	-0.2214	0.230760	0.000230	2.300780	0.779525	-0.000095
1012	1.0059e+02	-0.2679	0.126073	0.000256	2.559742	0.867264	-0.000105
1013	1.0069e+02	-0.3160	0.025866	0.000245	2.450181	0.830144	-0.000101
1014	1.0079e+02	-0.3241	-0.066193	0.000225	2.250980	0.762653	-0.000093
1015	1.0089e+02	-0.3786	-0.164770	0.000241	2.410341	0.816646	-0.000099
1016	1.0099e+02	-0.4556	-0.264162	0.000243	2.430261	0.823395	-0.000100
1017	1.0109e+02	-0.4700	-0.363146	0.000242	2.420301	0.820020	-0.000099
1018	1.0119e+02	-0.5310	-0.462130	0.000242	2.420301	0.820020	-0.000099
1019	1.0129e+02	-0.5615	-0.555412	0.000228	2.280860	0.772776	-0.000094
1020	1.0139e+02	-0.6080	-0.657655	0.000250	2.499982	0.847017	-0.000103
1021	1.0149e+02	-0.5952	-0.753787	-0.000235	-2.350581	-0.796398	-0.000097
1022	1.0159e+02	-0.6609	-0.851957	0.000240	2.400381	0.813271	-0.000099
1023	1.0169e+02	-0.7155	-0.946053	0.000230	2.300780	0.779525	-0.000095
1024	1.0179e+02	-0.7412	-1.048703	0.000251	2.509942	0.850391	-0.000103
1025	1.0189e+02	-0.7829	-1.144429	0.000234	2.340621	0.793024	-0.000096
1026	1.0199e+02	-0.8310	-1.242191	0.000239	2.390421	0.809897	-0.000098
1027	1.0209e+02	-0.8454	-1.339953	0.000239	2.390421	0.809897	-0.000098
1028	1.0219e+02	-0.9080	-1.436494	0.000236	2.360541	0.799773	-0.000097
1029	1.0229e+02	-0.9545	-1.539959	0.000253	2.529862	0.857141	-0.000104
1030	1.0239e+02	-0.9866	-1.635684	0.000234	2.340621	0.793024	-0.000096
1031	1.0248e+02	-0.9786	-1.735483	-0.000244	-2.440221	-0.826769	-0.000100
1032	1.0258e+02	-1.0363	-1.822654	0.000213	2.131459	0.722158	-0.000088
1033	1.0268e+02	-1.1230	-1.925305	0.000251	2.509942	0.850391	-0.000103
1034	1.0278e+02	-1.1839	-2.020623	0.000233	2.330660	0.789649	-0.000096
1035	1.0288e+02	-1.1952	-2.117978	0.000238	2.380461	0.806522	-0.000098
1036	1.0298e+02	-1.2208	-2.208408	0.000221	2.211139	0.749154	-0.000091
1037	1.0308e+02	-1.2722	-2.313909	0.000258	2.579663	0.874013	-0.000106
1038	1.0318e+02	-1.3155	-2.409228	0.000233	2.330660	0.789649	-0.000096
1039	1.0328e+02	-1.3107	-2.502916	-0.000229	-2.290820	-0.776151	-0.000094
1040	1.0338e+02	-1.3796	-2.602715	0.000244	2.440221	0.826769	-0.000100
1041	1.0348e+02	-1.4438	-2.698441	0.000234	2.340621	0.793024	-0.000096
1042	1.0358e+02	-1.4839	-2.794574	0.000235	2.350581	0.796398	-0.000097
1043	1.0368e+02	-1.5192	-2.888670	0.000230	2.300780	0.779525	-0.000095
1044	1.0378e+02	-1.5336	-2.983988	0.000233	2.330660	0.789649	-0.000096
1045	1.0388e+02	-1.6058	-3.081750	0.000239	2.390421	0.809897	-0.000098
1046	1.0398e+02	-1.6315	-3.168514	0.000212	2.121499	0.718783	-0.000087
1047	1.0408e+02	-1.6363	-3.269942	0.000248	2.480062	0.840268	-0.000102
1048	1.0418e+02	-1.7101	-3.360372	0.000221	2.211139	0.749154	-0.000091
1049	1.0428e+02	-1.7470	-3.456098	0.000234	2.340621	0.793024	-0.000096
1050	1.0438e+02	-1.8144	-3.545306	0.000218	2.181259	0.739031	-0.000090
1051	1.0447e+02	-1.8304	-3.643883	0.000241	2.410341	0.816646	-0.000099
1052	1.0457e+02	-1.8577	-3.732276	0.000216	2.161339	0.732281	-0.000089
1053	1.0467e+02	-1.9122	-3.830038	0.000239	2.390421	0.809897	-0.000098
1054	1.0477e+02	-1.9203	-3.918432	0.000216	2.161339	0.732281	-0.000089
1055	1.0487e+02	-1.9828	-4.008047	0.000219	2.191219	0.742405	-0.000090
1056	1.0497e+02	-2.0342	-4.104587	0.000236	2.360541	0.799773	-0.000097
1057	1.0507e+02	-2.0518	-4.193795	0.000218	2.181259	0.739031	-0.000090
1058	1.0517e+02	-2.0823	-4.287077	0.000228	2.280860	0.772776	-0.000094
1059	1.0527e+02	-2.1224	-4.375877	0.000217	2.171299	0.735656	-0.000089
1060	1.0537e+02	-2.1609	-4.469566	0.000229	2.290820	0.776151	-0.000094
1061	1.0547e+02	-2.2026	-4.548183	0.000192	1.922297	0.651292	-0.000079
1062	1.0557e+02	-2.2828	-4.645945	0.000239	2.390421	0.809897	-0.000098
1063	1.0567e+02	-2.3021	-4.727821	0.000200	2.001978	0.678288	-0.000082
1064	1.0577e+02	-2.3518	-4.817844	0.000220	2.201179	0.745780	-0.000090
1065	1.0587e+02	-2.3855	-4.902979	0.000208	2.081658	0.705285	-0.000086
1066	1.0597e+02	-2.4352	-4.993001	0.000220	2.201179	0.745780	-0.000090
1067	1.0607e+02	-2.4689	-5.079765	0.000212	2.121499	0.718783	-0.000087
1068	1.0617e+02	-2.5042	-5.172639	0.000227	2.270900	0.769402	-0.000093
1069	1.0627e+02	-2.5411	-5.256145	0.000204	2.041818	0.691787	-0.000084
1070	1.0637e+02	-2.6005	-5.348204	0.000225	2.250980	0.762653	-0.000093
1071	1.0647e+02	-2.6165	-5.430895	0.000202	2.021898	0.685037	-0.000083
1072	1.0656e+02	-2.6374	-5.523769	0.000227	2.270900	0.769402	-0.000093
1073	1.0666e+02	-2.6967	-5.613791	0.000220	2.201179	0.745780	-0.000090
1074	1.0676e+02	-2.7336	-5.699333	0.000209	2.091618	0.708659	-0.000086
1075	1.0686e+02	-2.7673	-5.785690	0.000211	2.111539	0.715409	-0.000087
1076	1.0696e+02	-2.8283	-5.874898	0.000218	2.181259	0.739031	-0.000090
1077	1.0706e+02	-2.8459	-5.962477	0.000214	2.141419	0.725532	-0.000088
1078	1.0716e+02	-2.8972	-6.052907	0.000221	2.211139	0.749154	-0.000091
1079	1.0726e+02	-2.9325	-6.143744	0.000222	2.221099	0.752529	-0.000091
1080	1.0736e+02	-3.0047	-6.226435	0.000202	2.021898	0.685037	-0.000083
1081	1.0746e+02	-2.9999	-6.320531	-0.000230	-2.300780	-0.779525	-0.000095
1082	1.0756e+02	-3.0545	-6.406073	0.000209	2.091618	0.708659	-0.000086
1083	1.0766e+02	-3.1122	-6.497317	0.000223	2.231060	0.755903	-0.000092
1084	1.0776e+02	-3.1716	-6.581230	0.000205	2.051778	0.695161	-0.000084
1085	1.0786e+02	-3.1956	-6.670031	0.000217	2.171299	0.735656	-0.000089
1086	1.0796e+02	-3.2101	-6.751092	0.000198	1.982057	0.671539	-0.000081
1087	1.0806e+02	-3.2486	-6.845188	0.000230	2.300780	0.779525	-0.000095
1088	1.0816e+02	-3.2983	-6.927878	0.000202	2.021898	0.685037	-0.000083
1089	1.0826e+02	-3.3448	-7.014235	0.000211	2.111539	0.715409	-0.000087
1090	1.0836e+02	-3.3705	-7.100592	0.000211	2.111539	0.715409	-0.000087
1091	1.0845e+02	-3.4122	-7.192651	0.000225	2.250980	0.762653	-0.000093
1092	1.0855e+02	-3.4860	-7.276971	0.000206	2.061738	0.698536	-0.000085
1093	1.0865e+02	-3.5181	-7.363328	0.000211	2.111539	0.715409	-0.000087
1094	1.0875e+02	-3.5309	-7.446018	0.000202	2.021898	0.685037	-0.000083
1095	1.0885e+02	-3.5518	-7.532782	0.000212	2.121499	0.718783	-0.000087
1096	1.0895e+02	-3.6272	-7.619546	0.000212	2.121499	0.718783	-0.000087
1097	1.0905e+02	-3.6769	-7.707532	0.000215	2.151379	0.728907	-0.000088
1098	1.0915e+02	-3.6865	-7.787779	0.000196	1.962137	0.664790	-0.000081
1099	1.0925e+02	-3.7314	-7.877394	0.000219	2.191219	0.742405	-0.000090
1100	1.0935e+02	-3.7924	-7.954789	0.000189	1.892417	0.641168	-0.000078
1101	1.0945e+02	-3.7860	-8.046034	-0.000223	-2.231060	-0.755903	-0.000092
1102	1.0955e+02	-3.8421	-8.131576	0.000209	2.091618	0.708659	-0.000086
1103	1.0965e+02	-3.8855	-8.218747	0.000213	2.131459	0.722158	-0.000088
1104	1.0975e+02	-3.9512	-8.301845	0.000203	2.031858	0.688412	-0.000084
1105	1.0985e+02	-3.9897	-8.389831	0.000215	2.151379	0.728907	-0.000088
1106	1.0995e+02	-4.0058	-8.474965	0.000208	2.081658	0.705285	-0.000086
1107	1.1005e+02	-4.0507	-8.558063	0.000203	2.031858	0.688412	-0.000084
1108	1.1015e+02	-4.1068	-8.640347	0.000201	2.011938	0.681663	-0.000083
1109	1.1025e+02	-4.1293	-8.726296	0.000210	2.101578	0.712034	-0.000086
1110	1.1035e+02	-4.1710	-8.808579	0.000201	2.011938	0.681663	-0.000083
1111	1.1044e+02	-4.2111	-8.886789	0.000191	1.912337	0.647917	-0.000079
1112	1.1054e+02	-4.2336	-8.975589	0.000217	2.171299	0.735656	-0.000089
1113	1.1064e+02	-4.3202	-9.054614	0.000193	1.932257	0.654666	-0.000079
1114	1.1074e+02	-4.3314	-9.146266	0.000224	2.241020	0.759278	-0.000092
1115	1.1084e+02	-4.3731	-9.223254	0.000188	1.882457	0.637794	-0.000077
1116	1.1094e+02	-4.4181	-9.307166	0.000205	2.051778	0.695161	-0.000084
1117	1.1104e+02	-4.4614	-9.387413	0.000196	1.962137	0.664790	-0.000081
1118	1.1114e+02	-4.5095	-9.474991	0.000214	2.141419	0.725532	-0.000088
1119	1.1124e+02	-4.5512	-9.556053	0.000198	1.982057	0.671539	-0.000081
1120	1.1134e+02	-4.5753	-9.637521	0.000199	1.992017	0.674914	-0.000082
1121	1.1144e+02	-4.5801	-9.722248	0.000207	2.071698	0.701910	-0.000085
1122	1.1154e+02	-4.6731	-9.805754	0.000204	2.041818	0.691787	-0.000084
1123	1.1164e+02	-4.6924	-9.883556	0.000190	1.902377	0.644543	-0.000078
1124	1.1174e+02	-4.7421	-9.966654	0.000203	2.031858	0.688412	-0.000084
1125	1.1184e+02	-4.7646	-10.045271	0.000192	1.922297	0.651292	-0.000079
1126	1.1194e+02	-4.8127	-10.129998	0.000207	2.071698	0.701910	-0.000085
1127	1.1204e+02	-4.8576	-10.207801	0.000190	1.902377	0.644543	-0.000078
1128	1.1214e+02	-4.8849	-10.288454	0.000197	1.972097	0.668165	-0.000081
1129	1.1224e+02	-4.9218	-10.368294	0.000195	1.952177	0.661416	-0.000080
1130	1.1234e+02	-4.9683	-10.449355	0.000198	1.982057	0.671539	-0.000081
1131	1.1244e+02	-5.0084	-10.534489	0.000208	2.081658	0.705285	-0.000086
1132	1.1253e+02	-5.0453	-10.616773	0.000201	2.011938	0.681663	-0.000083
1133	1.1263e+02	-5.1015	-10.692131	0.000184	1.842616	0.624295	-0.000076
1134	1.1273e+02	-5.1416	-10.778080	0.000210	2.101578	0.712034	-0.000086
1135	1.1283e+02	-5.1704	-10.857919	0.000195	1.952177	0.661416	-0.000080
1136	1.1293e+02	-5.2009	-10.937759	0.000195	1.952177	0.661416	-0.000080
1137	1.1303e+02	-5.2539	-11.018005	0.000196	1.962137	0.664790	-0.000081
1138	1.1313e+02	-5.2827	-11.102325	0.000206	2.061738	0.698536	-0.000085
1139	1.1323e+02	-5.3662	-11.186645	0.000206	2.061738	0.698536	-0.000085
1140	1.1333e+02	-5.3870	-11.262411	0.000185	1.852576	0.627670	-0.000076
1141	1.1343e+02	-5.3742	-11.342250	-0.000195	-1.952177	-0.661416	-0.000080
1142	1.1353e+02	-5.4319	-11.419237	0.000188	1.882457	0.637794	-0.000077
1143	1.1363e+02	-5.4752	-11.503150	0.000205	2.051778	0.695161	-0.000084
1144	1.1373e+02	-5.5154	-11.588285	0.000208	2.081658	0.705285	-0.000086
1145	1.1383e+02	-5.5699	-11.666494	0.000191	1.912337	0.647917	-0.000079
1146	1.1393e+02	-5.5699	-11.753258	0.000212	2.121499	0.718783	-0.000087
1147	1.1403e+02	-5.6357	-11.830246	0.000188	1.882457	0.637794	-0.000077
1148	1.1413e+02	-5.6645	-11.918639	0.000216	2.161339	0.732281	-0.000089
1149	1.1423e+02	-5.7159	-11.997664	0.000193	1.932257	0.654666	-0.000079
1150	1.1433e+02	-5.7367	-12.075466	0.000190	1.902377	0.644543	-0.000078
1151	1.1442e+02	-5.8202	-12.158157	0.000202	2.021898	0.685037	-0.000083
1152	1.1452e+02	-5.8378	-12.229849	0.000175	1.752975	0.593924	-0.000072
1153	1.1462e+02	-5.8426	-12.312132	0.000201	2.011938	0.681663	-0.000083
1154	1.1472e+02	-5.9581	-12.395230	0.000203	2.031858	0.688412	-0.000084
1155	1.1482e+02	-5.9244	-12.472218	-0.000188	-1.882457	-0.637794	-0.000077
1156	1.1492e+02	-6.0030	-12.547576	0.000184	1.842616	0.624295	-0.000076
1157	1.1502e+02	-6.0512	-12.626193	0.000192	1.922297	0.651292	-0.000079
1158	1.1512e+02	-6.0640	-12.712143	0.000210	2.101578	0.712034	-0.000086
1159	1.1522e+02	-6.1298	-12.783428	0.000174	1.743015	0.590550	-0.000072
1160	1.1532e+02	-6.1683	-12.858379	0.000183	1.832656	0.620921	-0.000075
1161	1.1542e+02	-6.1907	-12.936181	0.000190	1.902377	0.644543	-0.000078
1162	1.1552e+02	-6.2709	-13.013984	0.000190	1.902377	0.644543	-0.000078
1163	1.1562e+02	-6.2709	-13.088120	0.000181	1.812736	0.614172	-0.000075
1164	1.1572e+02	-6.3576	-13.160219	0.000176	1.762935	0.597299	-0.000072
1165	1.1582e+02	-6.3431	-13.235171	-0.000183	-1.832656	-0.620921	-0.000075
1166	1.1592e+02	-6.4266	-13.311344	0.000186	1.862536	0.631044	-0.000077
1167	1.1602e+02	-6.4330	-13.379777	0.000167	1.673295	0.566928	-0.000069
1168	1.1612e+02	-6.4699	-13.452284	0.000177	1.772896	0.600673	-0.000073
1169	1.1622e+02	-6.4955	-13.530087	0.000190	1.902377	0.644543	-0.000078
1170	1.1632e+02	-6.5485	-13.600557	0.000172	1.723095	0.583800	-0.000071
1171	1.1642e+02	-6.6094	-13.673471	0.000178	1.782856	0.604048	-0.000073
1172	1.1651e+02	-6.6094	-13.749644	0.000186	1.862536	0.631044	-0.000077
1173	1.1661e+02	-6.6880	-13.820114	0.000172	1.723095	0.583800	-0.000071
1174	1.1671e+02	-6.6880	-13.893843	0.000180	1.802776	0.610797	-0.000074
1175	1.1681e+02	-6.7715	-13.967572	0.000180	1.802776	0.610797	-0.000074
1176	1.1691e+02	-6.7939	-14.039265	0.000175	1.752975	0.593924	-0.000072
1177	1.1701e+02	-6.8372	-14.111772	0.000177	1.772896	0.600673	-0.000073
1178	1.1711e+02	-6.8998	-14.187537	0.000185	1.852576	0.627670	-0.000076
1179	1.1721e+02	-6.9223	-14.255971	0.000167	1.673295	0.566928	-0.000069
1180	1.1731e+02	-6.9736	-14.334588	0.000192	1.922297	0.651292	-0.000079
1181	1.1741e+02	-7.0025	-14.400985	0.000162	1.623494	0.550055	-0.000067
1182	1.1751e+02	-6.9993	-14.471862	-0.000173	-1.733055	-0.587175	-0.000071
1183	1.1761e+02	-7.0458	-14.546406	0.000182	1.822696	0.617546	-0.000075
1184	1.1771e+02	-7.1212	-14.622987	0.000187	1.872496	0.634419	-0.000077
1185	1.1781e+02	-7.1822	-14.692642	0.000170	1.703175	0.577051	-0.000070
1186	1.1791e+02	-7.2078	-14.761483	0.000168	1.683255	0.570302	-0.000069
1187	1.1801e+02	-7.2415	-14.834397	0.000178	1.782856	0.604048	-0.000073
1188	1.1811e+02	-7.3105	-14.903646	0.000169	1.693215	0.573677	-0.000070
1189	1.1821e+02	-7.3442	-14.973709	0.000171	1.713135	0.580426	-0.000070
1190	1.1831e+02	-7.3474	-15.040920	0.000164	1.643414	0.556804	-0.000068
1191	1.1841e+02	-7.3987	-15.113834	0.000178	1.782856	0.604048	-0.000073
1192	1.1850e+02	-7.4565	-15.183490	0.000170	1.703175	0.577051	-0.000070
1193	1.1860e+02	-7.4902	-15.255182	0.000175	1.752975	0.593924	-0.000072
1194	1.1870e+02	-7.5126	-15.328911	0.000180	1.802776	0.610797	-0.000074
1195	1.1880e+02	-7.5784	-15.391642	0.000153	1.533853	0.519684	-0.000063
1196	1.1890e+02	-7.6089	-15.462927	0.000174	1.743015	0.590550	-0.000072
1197	1.1900e+02	-7.6811	-15.531768	0.000168	1.683255	0.570302	-0.000069
1198	1.1910e+02	-7.6843	-15.601016	0.000169	1.693215	0.573677	-0.000070
1199	1.1920e+02	-7.7324	-15.669857	0.000168	1.683255	0.570302	-0.000069
1200	1.1930e+02	-7.7500	-15.742364	0.000177	1.772896	0.600673	-0.000073
1201	1.1940e+02	-7.8287	-15.812019	0.000170	1.703175	0.577051	-0.000070
1202	1.1950e+02	-7.8543	-15.883712	0.000175	1.752975	0.593924	-0.000072
1203	1.1960e+02	-7.8399	-15.946035	-0.000152	-1.523893	-0.516309	-0.000063
1204	1.1970e+02	-7.9297	-16.017727	0.000175	1.752975	0.593924	-0.000072
1205	1.1980e+02	-7.9554	-16.082902	0.000159	1.593614	0.539931	-0.000066
1206	1.1990e+02	-7.9650	-16.152558	0.000170	1.703175	0.577051	-0.000070
1207	1.2000e+02	-8.0468	-16.222621	0.000171	1.713135	0.580426	-0.000070
1208	1.2010e+02	-8.0581	-16.293498	0.000173	1.733055	0.587175	-0.000071
1209	1.2020e+02	-8.1367	-16.359488	0.000161	1.613534	0.546680	-0.000066
1210	1.2030e+02	-8.1174	-16.428736	-0.000169	-1.693215	-0.573677	-0.000070
1211	1.2039e+02	-8.2024	-16.497577	0.000168	1.683255	0.570302	-0.000069
1212	1.2049e+02	-8.2313	-16.568862	0.000174	1.743015	0.590550	-0.000072
1213	1.2059e+02	-8.2682	-16.627927	0.000144	1.444213	0.489312	-0.000059
1214	1.2069e+02	-8.3212	-16.702878	0.000183	1.832656	0.620921	-0.000075
1215	1.2079e+02	-8.3484	-16.768052	0.000159	1.593614	0.539931	-0.000066
1216	1.2089e+02	-8.3950	-16.835671	0.000165	1.653375	0.560178	-0.000068
1217	1.2099e+02	-8.4222	-16.901253	0.000160	1.603574	0.543306	-0.000066
1218	1.2109e+02	-8.4623	-16.968058	0.000163	1.633454	0.553429	-0.000067
1219	1.2119e+02	-8.5233	-17.031603	0.000155	1.553774	0.526433	-0.000064
1220	1.2129e+02	-8.5666	-17.098815	0.000164	1.643414	0.556804	-0.000068
1221	1.2139e+02	-8.5859	-17.161545	0.000153	1.533853	0.519684	-0.000063
1222	1.2149e+02	-8.6677	-17.227128	0.000160	1.603574	0.543306	-0.000066
1223	1.2159e+02	-8.6548	-17.297598	-0.000172	-1.723095	-0.583800	-0.000071
1224	1.2169e+02	-8.7302	-17.360329	0.000153	1.533853	0.519684	-0.000063
1225	1.2179e+02	-8.7238	-17.425911	-0.000160	-1.603574	-0.543306	-0.000066
1226	1.2189e+02	-8.7896	-17.489863	0.000156	1.563734	0.529807	-0.000064
1227	1.2199e+02	-8.8377	-17.558297	0.000167	1.673295	0.566928	-0.000069
1228	1.2209e+02	-8.8650	-17.625101	0.000163	1.633454	0.553429	-0.000067
1229	1.2219e+02	-8.9436	-17.682129	0.000139	1.394412	0.472440	-0.000057
1230	1.2229e+02	-8.9612	-17.742009	0.000146	1.464133	0.496062	-0.000060
1231	1.2239e+02	-8.9949	-17.802703	0.000148	1.484053	0.502811	-0.000061
1232	1.2248e+02	-9.0158	-17.868285	0.000160	1.603574	0.543306	-0.000066
1233	1.2258e+02	-9.0623	-17.932645	0.000157	1.573694	0.533182	-0.000065
1234	1.2268e+02	-9.1201	-17.995783	0.000154	1.543814	0.523058	-0.000063
1235	1.2278e+02	-9.1249	-18.065031	0.000169	1.693215	0.573677	-0.000070
1236	1.2288e+02	-9.1778	-18.126133	0.000149	1.494013	0.506185	-0.000061
1237	1.2298e+02	-9.2516	-18.194973	0.000168	1.683255	0.570302	-0.000069
1238	1.2308e+02	-9.2725	-18.260148	0.000159	1.593614	0.539931	-0.000066
1239	1.2318e+02	-9.3029	-18.323286	0.000154	1.543814	0.523058	-0.000063
1240	1.2328e+02	-9.3094	-18.388868	0.000160	1.603574	0.543306	-0.000066
1241	1.2338e+02	-9.3896	-18.449563	0.000148	1.484053	0.502811	-0.000061
1242	1.2348e+02	-9.4249	-18.513108	0.000155	1.553774	0.526433	-0.000064
1243	1.2358e+02	-9.4505	-18.578283	0.000159	1.593614	0.539931	-0.000066
1244	1.2368e+02	-9.4826	-18.646309	0.000166	1.663335	0.563553	-0.000068
1245	1.2378e+02	-9.5644	-18.708632	0.000152	1.523893	0.516309	-0.000063
1246	1.2388e+02	-9.6029	-18.776251	0.000165	1.653375	0.560178	-0.000068
1247	1.2398e+02	-9.6029	-18.843055	0.000163	1.633454	0.553429	-0.000067
1248	1.2408e+02	-9.6799	-18.908230	0.000159	1.593614	0.539931	-0.000066
1249	1.2418e+02	-9.7136	-18.977478	0.000169	1.693215	0.573677	-0.000070
1250	1.2428e+02	-9.7473	-19.035728	0.000142	1.424292	0.482563	-0.000059
1251	1.2438e+02	-9.7762	-19.107013	0.000174	1.743015	0.590550	-0.000072
1252	1.2447e+02	-9.8243	-19.170966	0.000156	1.563734	0.529807	-0.000064
1253	1.2457e+02	-9.8660	-19.237363	0.000162	1.623494	0.550055	-0.000067
1254	1.2467e+02	-9.8789	-19.300501	0.000154	1.543814	0.523058	-0.000063
1255	1.2477e+02	-9.9254	-19.368935	0.000167	1.673295	0.566928	-0.000069
1256	1.2487e+02	-10.0088	-19.436554	0.000165	1.653375	0.560178	-0.000068
1257	1.2497e+02	-10.0281	-19.502950	0.000162	1.623494	0.550055	-0.000067
1258	1.2507e+02	-10.0762	-19.570977	0.000166	1.663335	0.563553	-0.000068
1259	1.2517e+02	-10.1371	-19.635337	0.000157	1.573694	0.533182	-0.000065
1260	1.2527e+02	-10.1404	-19.702141	0.000163	1.633454	0.553429	-0.000067
1261	1.2537e+02	-10.1917	-19.766908	0.000158	1.583654	0.536556	-0.000065
1262	1.2547e+02	-10.1853	-19.834527	-0.000165	-1.653375	-0.560178	-0.000068
1263	1.2557e+02	-10.2398	-19.902146	0.000165	1.653375	0.560178	-0.000068
1264	1.2567e+02	-10.3088	-19.970580	0.000167	1.673295	0.566928	-0.000069
1265	1.2577e+02	-10.3264	-20.033310	0.000153	1.533853	0.519684	-0.000063
1266	1.2587e+02	-10.4259	-20.102966	0.000170	1.703175	0.577051	-0.000070
1267	1.2597e+02	-10.4243	-20.167733	-0.000158	-1.583654	-0.536556	-0.000065
1268	1.2607e+02	-10.4692	-20.236574	0.000168	1.683255	0.570302	-0.000069
1269	1.2617e+02	-10.5125	-20.297676	0.000149	1.494013	0.506185	-0.000061
1270	1.2627e+02	-10.5286	-20.367739	0.000171	1.713135	0.580426	-0.000070
1271	1.2636e+02	-10.5751	-20.430877	0.000154	1.543814	0.523058	-0.000063
1272	1.2646e+02	-10.6264	-20.498088	0.000164	1.643414	0.556804	-0.000068
1273	1.2656e+02	-10.6874	-20.567744	0.000170	1.703175	0.577051	-0.000070
1274	1.2666e+02	-10.6874	-20.628438	0.000148	1.484053	0.502811	-0.000061
1275	1.2676e+02	-10.7564	-20.693613	0.000159	1.593614	0.539931	-0.000066
1276	1.2686e+02	-10.8029	-20.761231	0.000165	1.653375	0.560178	-0.000068
1277	1.2696e+02	-10.8318	-20.827221	0.000161	1.613534	0.546680	-0.000066
1278	1.2706e+02	-10.8703	-20.891174	0.000156	1.563734	0.529807	-0.000064
1279	1.2716e+02	-10.8879	-20.957163	0.000161	1.613534	0.546680	-0.000066
1280	1.2726e+02	-10.9601	-21.025597	0.000167	1.673295	0.566928	-0.000069
1281	1.2736e+02	-10.9569	-21.089957	-0.000157	-1.573694	-0.533182	-0.000065
1282	1.2746e+02	-11.0098	-21.160020	0.000171	1.713135	0.580426	-0.000070
1283	1.2756e+02	-11.0580	-21.226417	0.000162	1.623494	0.550055	-0.000067
1284	1.2766e+02	-11.1093	-21.291591	0.000159	1.593614	0.539931	-0.000066
1285	1.2776e+02	-11.1623	-21.357581	0.000161	1.613534	0.546680	-0.000066
1286	1.2786e+02	-11.1655	-21.424385	0.000163	1.633454	0.553429	-0.000067
1287	1.2796e+02	-11.2569	-21.484672	0.000147	1.474093	0.499436	-0.000061
1288	1.2806e+02	-11.2521	-21.555957	-0.000174	-1.743015	-0.590550	-0.000072
1289	1.2816e+02	-11.3098	-21.620317	0.000157	1.573694	0.533182	-0.000065
1290	1.2826e+02	-11.3516	-21.683862	0.000155	1.553774	0.526433	-0.000064
1291	1.2835e+02	-11.3836	-21.749852	0.000161	1.613534	0.546680	-0.000066
1292	1.2845e+02	-11.4270	-21.813397	0.000155	1.553774	0.526433	-0.000064
1293	1.2855e+02	-11.4590	-21.879387	0.000161	1.613534	0.546680	-0.000066
1294	1.2865e+02	-11.5232	-21.942118	0.000153	1.533853	0.519684	-0.000063
1295	1.2875e+02	-11.5585	-22.010958	0.000168	1.683255	0.570302	-0.000069
1296	1.2885e+02	-11.5922	-22.076948	0.000161	1.613534	0.546680	-0.000066
1297	1.2895e+02	-11.6612	-22.145789	0.000168	1.683255	0.570302	-0.000069
1298	1.2905e+02	-11.6868	-22.206890	0.000149	1.494013	0.506185	-0.000061
1299	1.2915e+02	-11.6997	-22.272065	0.000159	1.593614	0.539931	-0.000066
1300	1.2925e+02	-11.7189	-22.336425	0.000157	1.573694	0.533182	-0.000065
1301	1.2935e+02	-11.7815	-22.398749	0.000152	1.523893	0.516309	-0.000063
1302	1.2945e+02	-11.8392	-22.474107	0.000184	1.842616	0.624295	-0.000076
1303	1.2955e+02	-11.9066	-22.538874	0.000158	1.583654	0.536556	-0.000065
1304	1.2965e+02	-11.8906	-22.602420	-0.000155	-1.553774	-0.526433	-0.000064
1305	1.2975e+02	-11.9563	-22.670446	0.000166	1.663335	0.563553	-0.000068
1306	1.2985e+02	-11.9948	-22.740509	0.000171	1.713135	0.580426	-0.000070
1307	1.2995e+02	-11.9981	-22.804462	0.000156	1.563734	0.529807	-0.000064
1308	1.3005e+02	-12.0702	-22.870451	0.000161	1.613534	0.546680	-0.000066
1309	1.3015e+02	-12.1152	-22.933997	0.000155	1.553774	0.526433	-0.000064
1310	1.3025e+02	-12.1553	-23.001208	0.000164	1.643414	0.556804	-0.000068
1311	1.3034e+02	-12.2002	-23.068827	0.000165	1.653375	0.560178	-0.000068
1312	1.3044e+02	-12.2194	-23.145815	0.000188	1.882457	0.637794	-0.000077
1313	1.3054e+02	-12.2323	-23.207731	0.000151	1.513933	0.512934	-0.000062
1314	1.3064e+02	-12.3013	-23.272498	0.000158	1.583654	0.536556	-0.000065
1315	1.3074e+02	-12.3446	-23.348264	0.000185	1.852576	0.627670	-0.000076
1316	1.3084e+02	-12.3799	-23.412624	0.000157	1.573694	0.533182	-0.000065
1317	1.3094e+02	-12.4007	-23.475355	0.000153	1.533853	0.519684	-0.000063
1318	1.3104e+02	-12.4681	-23.542159	0.000163	1.633454	0.553429	-0.000067
1319	1.3114e+02	-12.4825	-23.611000	0.000168	1.683255	0.570302	-0.000069
1320	1.3124e+02	-12.5371	-23.674953	0.000156	1.563734	0.529807	-0.000064
1321	1.3134e+02	-12.5595	-23.740535	0.000160	1.603574	0.543306	-0.000066
1322	1.3144e+02	-12.6061	-23.800414	0.000146	1.464133	0.496062	-0.000060
1323	1.3154e+02	-12.6590	-23.863960	0.000155	1.553774	0.526433	-0.000064
1324	1.3164e+02	-12.7087	-23.934023	0.000171	1.713135	0.580426	-0.000070
1325	1.3174e+02	-12.7520	-23.999197	0.000159	1.593614	0.539931	-0.000066
1326	1.3184e+02	-12.7825	-24.066002	0.000163	1.633454	0.553429	-0.000067
1327	1.3194e+02	-12.8162	-24.126696	0.000148	1.484053	0.502811	-0.000061
1328	1.3204e+02	-12.8772	-24.191463	0.000158	1.583654	0.536556	-0.000065
1329	1.3214e+02	-12.8884	-24.250528	0.000144	1.444213	0.489312	-0.000059
1330	1.3224e+02	-12.9221	-24.318147	0.000165	1.653375	0.560178	-0.000068
1331	1.3234e+02	-12.9927	-24.377619	0.000145	1.454173	0.492687	-0.000060
1332	1.3243e+02	-13.0055	-24.437905	0.000147	1.474093	0.499436	-0.000061
1333	1.3253e+02	-13.0408	-24.503080	0.000159	1.593614	0.539931	-0.000066
1334	1.3263e+02	-13.1018	-24.564996	0.000151	1.513933	0.512934	-0.000062
1335	1.3273e+02	-13.1355	-24.626912	0.000151	1.513933	0.512934	-0.000062
1336	1.3283e+02	-13.1980	-24.690865	0.000156	1.563734	0.529807	-0.000064
1337	1.3293e+02	-13.1836	-24.747078	-0.000137	-1.374492	-0.465691	-0.000056
1338	1.3303e+02	-13.2686	-24.812661	0.000160	1.603574	0.543306	-0.000066
1339	1.3313e+02	-13.3071	-24.880687	0.000166	1.663335	0.563553	-0.000068
1340	1.3323e+02	-13.2959	-24.936493	-0.000136	-1.364532	-0.462316	-0.000056
1341	1.3333e+02	-13.4002	-24.995557	0.000144	1.444213	0.489312	-0.000059
1342	1.3343e+02	-13.4018	-25.054622	0.000144	1.444213	0.489312	-0.000059
1343	1.3353e+02	-13.4242	-25.120611	0.000161	1.613534	0.546680	-0.000066
1344	1.3363e+02	-13.4772	-25.178861	0.000142	1.424292	0.482563	-0.000059
1345	1.3373e+02	-13.5317	-25.237111	0.000142	1.424292	0.482563	-0.000059
1346	1.3383e+02	-13.5702	-25.301879	0.000158	1.583654	0.536556	-0.000065
1347	1.3393e+02	-13.6488	-25.358907	0.000139	1.394412	0.472440	-0.000057
1348	1.3403e+02	-13.6504	-25.419194	0.000147	1.474093	0.499436	-0.000061
1349	1.3413e+02	-13.6873	-25.485998	0.000163	1.633454	0.553429	-0.000067
1350	1.3423e+02	-13.7306	-25.546284	0.000147	1.474093	0.499436	-0.000061
1351	1.3432e+02	-13.7836	-25.605756	0.000145	1.454173	0.492687	-0.000060
1352	1.3442e+02	-13.7916	-25.663599	0.000141	1.414332	0.479189	-0.000058
1353	1.3452e+02	-13.8798	-25.721034	0.000140	1.404372	0.475814	-0.000058
1354	1.3462e+02	-13.8894	-25.782136	0.000149	1.494013	0.506185	-0.000061
1355	1.3472e+02	-13.9215	-25.842422	0.000147	1.474093	0.499436	-0.000061
1356	1.3482e+02	-13.9681	-25.897821	0.000135	1.354572	0.458941	-0.000056
1357	1.3492e+02	-14.0130	-25.959737	0.000151	1.513933	0.512934	-0.000062
1358	1.3502e+02	-14.0242	-26.019209	0.000145	1.454173	0.492687	-0.000060
1359	1.3512e+02	-14.0900	-26.084791	0.000160	1.603574	0.543306	-0.000066
1360	1.3522e+02	-14.1301	-26.139783	0.000134	1.344612	0.455567	-0.000055
1361	1.3532e+02	-14.1878	-26.195588	0.000136	1.364532	0.462316	-0.000056
1362	1.3542e+02	-14.2151	-26.257097	0.000150	1.503973	0.509560	-0.000062
1363	1.3552e+02	-14.2408	-26.309237	0.000127	1.274891	0.431945	-0.000052
1364	1.3562e+02	-14.3049	-26.374819	0.000160	1.603574	0.543306	-0.000066
1365	1.3572e+02	-14.3322	-26.433069	0.000142	1.424292	0.482563	-0.000059
1366	1.3582e+02	-14.3659	-26.493763	0.000148	1.484053	0.502811	-0.000061
1367	1.3592e+02	-14.4028	-26.551199	0.000140	1.404372	0.475814	-0.000058
1368	1.3602e+02	-14.4654	-26.610671	0.000145	1.454173	0.492687	-0.000060
1369	1.3612e+02	-14.4782	-26.670550	0.000146	1.464133	0.496062	-0.000060
1370	1.3622e+02	-14.5424	-26.725948	0.000135	1.354572	0.458941	-0.000056
1371	1.3631e+02	-14.5841	-26.784606	0.000143	1.434253	0.485938	-0.000059
1372	1.3641e+02	-14.6370	-26.843263	0.000143	1.434253	0.485938	-0.000059
1373	1.3651e+02	-14.6370	-26.900698	0.000140	1.404372	0.475814	-0.000058
1374	1.3661e+02	-14.6851	-26.961392	0.000148	1.484053	0.502811	-0.000061
1375	1.3671e+02	-14.7317	-27.011496	0.000123	1.225091	0.415072	-0.000050
1376	1.3681e+02	-14.7782	-27.075856	0.000157	1.573694	0.533182	-0.000065
1377	1.3691e+02	-14.8279	-27.133698	0.000141	1.414332	0.479189	-0.000058
1378	1.3701e+02	-14.8632	-27.193985	0.000147	1.474093	0.499436	-0.000061
1379	1.3711e+02	-14.8937	-27.251420	0.000140	1.404372	0.475814	-0.000058
1380	1.3721e+02	-14.9675	-27.308448	0.000139	1.394412	0.472440	-0.000057
1381	1.3731e+02	-14.9643	-27.364662	-0.000137	-1.374492	-0.465691	-0.000056
1382	1.3741e+02	-14.9980	-27.421282	0.000138	1.384452	0.469065	-0.000057
1383	1.3751e+02	-15.0573	-27.481162	0.000146	1.464133	0.496062	-0.000060
1384	1.3761e+02	-15.0862	-27.537782	0.000138	1.384452	0.469065	-0.000057
1385	1.3771e+02	-15.1407	-27.589922	0.000127	1.274891	0.431945	-0.000052
1386	1.3781e+02	-15.1696	-27.648579	0.000143	1.434253	0.485938	-0.000059
1387	1.3791e+02	-15.2065	-27.704385	0.000136	1.364532	0.462316	-0.000056
1388	1.3801e+02	-15.2579	-27.761413	0.000139	1.394412	0.472440	-0.000057
1389	1.3811e+02	-15.2755	-27.818034	0.000138	1.384452	0.469065	-0.000057
1390	1.3821e+02	-15.3349	-27.875062	0.000139	1.394412	0.472440	-0.000057
1391	1.3831e+02	-15.3477	-27.933312	0.000142	1.424292	0.482563	-0.000059
1392	1.3840e+02	-15.4263	-27.983415	0.000123	1.225091	0.415072	-0.000050
1393	1.3850e+02	-15.4536	-28.042480	0.000144	1.444213	0.489312	-0.000059
1394	1.3860e+02	-15.4792	-28.096249	0.000131	1.314732	0.445443	-0.000054
1395	1.3870e+02	-15.5210	-28.151647	0.000135	1.354572	0.458941	-0.000056
1396	1.3880e+02	-15.5819	-28.205417	0.000131	1.314732	0.445443	-0.000054
1397	1.3890e+02	-15.6012	-28.255927	0.000124	1.235051	0.418447	-0.000051
1398	1.3900e+02	-15.6413	-28.312140	0.000137	1.374492	0.465691	-0.000056
1399	1.3910e+02	-15.6750	-28.365502	0.000130	1.304771	0.442069	-0.000054
1400	1.3920e+02	-15.7215	-28.420901	0.000135	1.354572	0.458941	-0.000056
1401	1.3930e+02	-15.7873	-28.475485	0.000133	1.334652	0.452192	-0.000055
1402	1.3940e+02	-15.8354	-28.532513	0.000139	1.394412	0.472440	-0.000057
1403	1.3950e+02	-15.8258	-28.584245	-0.000126	-1.264931	-0.428570	-0.000052
1404	1.3960e+02	-15.8787	-28.641273	0.000139	1.394412	0.472440	-0.000057
1405	1.3970e+02	-15.9429	-28.701967	0.000148	1.484053	0.502811	-0.000061
1406	1.3980e+02	-15.9717	-28.751663	0.000122	1.215131	0.411697	-0.000050
1407	1.3990e+02	-15.9878	-28.809098	0.000140	1.404372	0.475814	-0.000058
1408	1.4000e+02	-16.0375	-28.860423	0.000125	1.254971	0.425196	-0.000052
1409	1.4010e+02	-16.0808	-28.923154	0.000153	1.533853	0.519684	-0.000063
1410	1.4020e+02	-16.1370	-28.976109	0.000129	1.294811	0.438694	-0.000053
1411	1.4029e+02	-16.1659	-29.032322	0.000137	1.374492	0.465691	-0.000056
1412	1.4039e+02	-16.1963	-29.085277	0.000129	1.294811	0.438694	-0.000053
1413	1.4049e+02	-16.2396	-29.146378	0.000149	1.494013	0.506185	-0.000061
1414	1.4059e+02	-16.2878	-29.206665	0.000147	1.474093	0.499436	-0.000061
1415	1.4069e+02	-16.3295	-29.259619	0.000129	1.294811	0.438694	-0.000053
1416	1.4079e+02	-16.3568	-29.319091	0.000145	1.454173	0.492687	-0.000060
1417	1.4089e+02	-16.3776	-29.374490	0.000135	1.354572	0.458941	-0.000056
1418	1.4099e+02	-16.4546	-29.431110	0.000138	1.384452	0.469065	-0.000057
1419	1.4109e+02	-16.4739	-29.486916	0.000136	1.364532	0.462316	-0.000056
1420	1.4119e+02	-16.5348	-29.549647	0.000153	1.533853	0.519684	-0.000063
1421	1.4129e+02	-16.5653	-29.606675	0.000139	1.394412	0.472440	-0.000057
1422	1.4139e+02	-16.5894	-29.667369	0.000148	1.484053	0.502811	-0.000061
1423	1.4149e+02	-16.6150	-29.717880	0.000124	1.235051	0.418447	-0.000051
1424	1.4159e+02	-16.6969	-29.781018	0.000154	1.543814	0.523058	-0.000063
1425	1.4169e+02	-16.7225	-29.840897	0.000146	1.464133	0.496062	-0.000060
1426	1.4179e+02	-16.7883	-29.897110	0.000137	1.374492	0.465691	-0.000056
1427	1.4189e+02	-16.8284	-29.951694	0.000133	1.334652	0.452192	-0.000055
1428	1.4199e+02	-16.8364	-30.009944	0.000142	1.424292	0.482563	-0.000059
1429	1.4209e+02	-16.8797	-30.074712	0.000158	1.583654	0.536556	-0.000065
1430	1.4219e+02	-16.9038	-30.129703	0.000134	1.344612	0.455567	-0.000055
1431	1.4228e+02	-16.9616	-30.188768	0.000144	1.444213	0.489312	-0.000059
1432	1.4238e+02	-16.9744	-30.246610	0.000141	1.414332	0.479189	-0.000058
1433	1.4248e+02	-17.0321	-30.300787	0.000132	1.324692	0.448818	-0.000054
1434	1.4258e+02	-17.0738	-30.361481	0.000148	1.484053	0.502811	-0.000061
1435	1.4268e+02	-17.0851	-30.426248	0.000158	1.583654	0.536556	-0.000065
1436	1.4278e+02	-17.1621	-30.480017	0.000131	1.314732	0.445443	-0.000054
1437	1.4288e+02	-17.2086	-30.545192	0.000159	1.593614	0.539931	-0.000066
1438	1.4298e+02	-17.2455	-30.598147	0.000129	1.294811	0.438694	-0.000053
1439	1.4308e+02	-17.2888	-30.658433	0.000147	1.474093	0.499436	-0.000061
1440	1.4318e+02	-17.3209	-30.716683	0.000142	1.424292	0.482563	-0.000059
1441	1.4328e+02	-17.3289	-30.779007	0.000152	1.523893	0.516309	-0.000063
1442	1.4338e+02	-17.4107	-30.833183	0.000132	1.324692	0.448818	-0.000054
1443	1.4348e+02	-17.4396	-30.894692	0.000150	1.503973	0.509560	-0.000062
1444	1.4358e+02	-17.4813	-30.951313	0.000138	1.384452	0.469065	-0.000057
1445	1.4368e+02	-17.5166	-31.015266	0.000156	1.563734	0.529807	-0.000064
1446	1.4378e+02	-17.5631	-31.073923	0.000143	1.434253	0.485938	-0.000059
1447	1.4388e+02	-17.6097	-31.127692	0.000131	1.314732	0.445443	-0.000054
1448	1.4398e+02	-17.6450	-31.187979	0.000147	1.474093	0.499436	-0.000061
1449	1.4408e+02	-17.6770	-31.249488	0.000150	1.503973	0.509560	-0.000062
1450	1.4418e+02	-17.7348	-31.306515	0.000139	1.394412	0.472440	-0.000057
1451	1.4428e+02	-17.7556	-31.371690	0.000159	1.593614	0.539931	-0.000066
1452	1.4437e+02	-17.7942	-31.426682	0.000134	1.344612	0.455567	-0.000055
1453	1.4447e+02	-17.8631	-31.484932	0.000142	1.424292	0.482563	-0.000059
1454	1.4457e+02	-17.8968	-31.543181	0.000142	1.424292	0.482563	-0.000059
1455	1.4467e+02	-17.8904	-31.604690	-0.000150	-1.503973	-0.509560	-0.000062
1456	1.4477e+02	-17.9482	-31.667828	0.000154	1.543814	0.523058	-0.000063
1457	1.4487e+02	-17.9931	-31.726486	0.000143	1.434253	0.485938	-0.000059
1458	1.4497e+02	-18.0621	-31.783106	0.000138	1.384452	0.469065	-0.000057
1459	1.4507e+02	-18.0909	-31.839727	0.000138	1.384452	0.469065	-0.000057
1460	1.4517e+02	-18.1230	-31.896755	0.000139	1.394412	0.472440	-0.000057
1461	1.4527e+02	-18.1583	-31.960708	0.000156	1.563734	0.529807	-0.000064
1462	1.4537e+02	-18.1840	-32.021809	0.000149	1.494013	0.506185	-0.000061
1463	1.4547e+02	-18.2417	-32.077615	0.000136	1.364532	0.462316	-0.000056
1464	1.4557e+02	-18.2883	-32.143197	0.000160	1.603574	0.543306	-0.000066
1465	1.4567e+02	-18.3155	-32.199818	0.000138	1.384452	0.469065	-0.000057
1466	1.4577e+02	-18.3508	-32.258068	0.000142	1.424292	0.482563	-0.000059
1467	1.4587e+02	-18.4150	-32.315910	0.000141	1.414332	0.479189	-0.000058
1468	1.4597e+02	-18.4246	-32.379456	0.000155	1.553774	0.526433	-0.000064
1469	1.4607e+02	-18.4711	-32.438520	0.000144	1.444213	0.489312	-0.000059
1470	1.4617e+02	-18.5128	-32.502066	0.000155	1.553774	0.526433	-0.000064
1471	1.4626e+02	-18.5674	-32.563575	0.000150	1.503973	0.509560	-0.000062
1472	1.4636e+02	-18.6043	-32.626713	0.000154	1.543814	0.523058	-0.000063
1473	1.4646e+02	-18.6267	-32.688221	0.000150	1.503973	0.509560	-0.000062
1474	1.4656e+02	-18.6925	-32.745249	0.000139	1.394412	0.472440	-0.000057
1475	1.4666e+02	-18.7118	-32.807165	0.000151	1.513933	0.512934	-0.000062
1476	1.4676e+02	-18.7310	-32.871526	0.000157	1.573694	0.533182	-0.000065
1477	1.4686e+02	-18.7984	-32.930183	0.000143	1.434253	0.485938	-0.000059
1478	1.4696e+02	-18.8513	-32.999838	0.000170	1.703175	0.577051	-0.000070
1479	1.4706e+02	-18.8578	-33.057681	0.000141	1.414332	0.479189	-0.000058
1480	1.4716e+02	-18.9107	-33.123671	0.000161	1.613534	0.546680	-0.000066
1481	1.4726e+02	-18.9684	-33.183550	0.000146	1.464133	0.496062	-0.000060
1482	1.4736e+02	-18.9636	-33.252391	-0.000168	-1.683255	-0.570302	-0.000069
1483	1.4746e+02	-19.0551	-33.314714	0.000152	1.523893	0.516309	-0.000063
1484	1.4756e+02	-19.0695	-33.380704	0.000161	1.613534	0.546680	-0.000066
1485	1.4766e+02	-19.1160	-33.440176	0.000145	1.454173	0.492687	-0.000060
1486	1.4776e+02	-19.1513	-33.503314	0.000154	1.543814	0.523058	-0.000063
1487	1.4786e+02	-19.1674	-33.567267	0.000156	1.563734	0.529807	-0.000064
1488	1.4796e+02	-19.2492	-33.625924	0.000143	1.434253	0.485938	-0.000059
1489	1.4806e+02	-19.2620	-33.684581	0.000143	1.434253	0.485938	-0.000059
1490	1.4816e+02	-19.2957	-33.746905	0.000152	1.523893	0.516309	-0.000063
1491	1.4825e+02	-19.3246	-33.810043	0.000154	1.543814	0.523058	-0.000063
1492	1.4835e+02	-19.3855	-33.872366	0.000152	1.523893	0.516309	-0.000063
1493	1.4845e+02	-19.4192	-33.933875	0.000150	1.503973	0.509560	-0.000062
1494	1.4855e+02	-19.4722	-33.994569	0.000148	1.484053	0.502811	-0.000061
1495	1.4865e+02	-19.5091	-34.053634	0.000144	1.444213	0.489312	-0.000059
1496	1.4875e+02	-19.5219	-34.114328	0.000148	1.484053	0.502811	-0.000061
1497	1.4885e+02	-19.5909	-34.175022	0.000148	1.484053	0.502811	-0.000061
1498	1.4895e+02	-19.6390	-34.233679	0.000143	1.434253	0.485938	-0.000059
1499	1.4905e+02	-19.6711	-34.298447	0.000158	1.583654	0.536556	-0.000065
1500	1.4915e+02	-19.6984	-34.355474	0.000139	1.394412	0.472440	-0.000057
1501	1.4925e+02	-19.7641	-34.419020	0.000155	1.553774	0.526433	-0.000064
1502	1.4935e+02	-19.7850	-34.474826	0.000136	1.364532	0.462316	-0.000056
1503	1.4945e+02	-19.8139	-34.538371	0.000155	1.553774	0.526433	-0.000064
1504	1.4955e+02	-19.8395	-34.595399	0.000139	1.394412	0.472440	-0.000057
1505	1.4965e+02	-19.9390	-34.656908	0.000150	1.503973	0.509560	-0.000062
1506	1.4975e+02	-19.9486	-34.715973	0.000144	1.444213	0.489312	-0.000059
1507	1.4985e+02	-19.9727	-34.778703	0.000153	1.533853	0.519684	-0.000063
1508	1.4995e+02	-19.9518	-34.745301	0.000082	0.816727	0.276715	0.000034
1509	1.5005e+02	-19.9117	-34.711899	0.000082	0.816727	0.276715	0.000034
1510	1.5015e+02	-19.8476	-34.672794	0.000096	0.956168	0.323959	0.000039
1511	1.5025e+02	-19.8123	-34.636541	0.000089	0.886448	0.300337	0.000036
1512	1.5034e+02	-19.7866	-34.603139	0.000082	0.816727	0.276715	0.000034
1513	1.5044e+02	-19.7369	-34.562404	0.000100	0.996009	0.337457	0.000041
1514	1.5054e+02	-19.7144	-34.528595	0.000083	0.826687	0.280089	0.000034
1515	1.5064e+02	-19.6615	-34.484602	0.000108	1.075689	0.364453	0.000044
1516	1.5074e+02	-19.6358	-34.447534	0.000091	0.906368	0.307086	0.000037
1517	1.5084e+02	-19.5893	-34.412910	0.000085	0.846607	0.286838	0.000035
1518	1.5094e+02	-19.5524	-34.372176	0.000100	0.996009	0.337457	0.000041
1519	1.5104e+02	-19.5059	-34.328997	0.000106	1.055769	0.357704	0.000043
1520	1.5114e+02	-19.4786	-34.288263	0.000100	0.996009	0.337457	0.000041
1521	1.5124e+02	-19.4626	-34.248751	0.000097	0.966128	0.327333	0.000040
1522	1.5134e+02	-19.4064	-34.201092	0.000117	1.165330	0.394825	0.000048
1523	1.5144e+02	-19.3551	-34.164431	0.000090	0.896408	0.303711	0.000037
1524	1.5154e+02	-19.3118	-34.126548	0.000093	0.926288	0.313835	0.000038
1525	1.5164e+02	-19.3005	-34.085814	0.000100	0.996009	0.337457	0.000041
1526	1.5174e+02	-19.2492	-34.042635	0.000106	1.055769	0.357704	0.000043
1527	1.5184e+02	-19.1898	-33.997420	0.000111	1.105570	0.374577	0.000045
1528	1.5194e+02	-19.1754	-33.953835	0.000107	1.065729	0.361079	0.000044
1529	1.5204e+02	-19.1032	-33.910656	0.000106	1.055769	0.357704	0.000043
1530	1.5214e+02	-19.0551	-33.866256	0.000109	1.085650	0.367828	0.000045
1531	1.5224e+02	-19.0438	-33.819004	0.000116	1.155370	0.391450	0.000047
1532	1.5233e+02	-18.9861	-33.775011	0.000108	1.075689	0.364453	0.000044
1533	1.5243e+02	-18.9829	-33.737536	0.000092	0.916328	0.310460	0.000038
1534	1.5253e+02	-18.9476	-33.689062	0.000119	1.185250	0.401574	0.000049
1535	1.5263e+02	-18.8818	-33.645476	0.000107	1.065729	0.361079	0.000044
1536	1.5273e+02	-18.8433	-33.597003	0.000119	1.185250	0.401574	0.000049
1537	1.5283e+02	-18.8016	-33.552195	0.000110	1.095610	0.371203	0.000045
1538	1.5293e+02	-18.7503	-33.506165	0.000113	1.125490	0.381326	0.000046
1539	1.5303e+02	-18.7134	-33.463802	0.000104	1.035849	0.350955	0.000043
1540	1.5313e+02	-18.6588	-33.418587	0.000111	1.105570	0.374577	0.000045
1541	1.5323e+02	-18.6267	-33.370520	0.000118	1.175290	0.398199	0.000048
1542	1.5333e+02	-18.5915	-33.327342	0.000106	1.055769	0.357704	0.000043
1543	1.5343e+02	-18.5642	-33.277239	0.000123	1.225091	0.415072	0.000050
1544	1.5353e+02	-18.5417	-33.234875	0.000104	1.035849	0.350955	0.000043
1545	1.5363e+02	-18.4856	-33.186401	0.000119	1.185250	0.401574	0.000049
1546	1.5373e+02	-18.4278	-33.140779	0.000112	1.115530	0.377952	0.000046
1547	1.5383e+02	-18.3989	-33.091898	0.000120	1.195210	0.404948	0.000049
1548	1.5393e+02	-18.3396	-33.049534	0.000104	1.035849	0.350955	0.000043
1549	1.5403e+02	-18.2947	-32.998209	0.000125	1.254971	0.425196	0.000052
1550	1.5413e+02	-18.3059	-32.952587	-0.000112	-1.115530	-0.377952	0.000046
1551	1.5422e+02	-18.2289	-32.900040	0.000128	1.284851	0.435319	0.000053
1552	1.5432e+02	-18.1936	-32.852788	0.000116	1.155370	0.391450	0.000047
1553	1.5442e+02	-18.1471	-32.806758	0.000113	1.125490	0.381326	0.000046
1554	1.5452e+02	-18.1246	-32.755840	0.000125	1.245011	0.421821	0.000051
1555	1.5462e+02	-18.0717	-32.703700	0.000127	1.274891	0.431945	0.000052
1556	1.5472e+02	-18.0364	-32.658078	0.000112	1.115530	0.377952	0.000046
1557	1.5482e+02	-17.9979	-32.611234	0.000115	1.145410	0.388075	0.000047
1558	1.5492e+02	-17.9546	-32.559908	0.000125	1.254971	0.425196	0.000052
1559	1.5502e+02	-17.9177	-32.513471	0.000114	1.135450	0.384701	0.000047
1560	1.5512e+02	-17.9000	-32.458480	0.000134	1.344612	0.455567	0.000055
1561	1.5522e+02	-17.8423	-32.412858	0.000112	1.115530	0.377952	0.000046
1562	1.5532e+02	-17.8134	-32.359903	0.000129	1.294811	0.438694	0.000053
1563	1.5542e+02	-17.7653	-32.313059	0.000115	1.145410	0.388075	0.000047
1564	1.5552e+02	-17.7252	-32.259290	0.000131	1.314732	0.445443	0.000054
1565	1.5562e+02	-17.6835	-32.208779	0.000124	1.235051	0.418447	0.000051
1566	1.5572e+02	-17.6530	-32.152159	0.000138	1.384452	0.469065	0.000057
1567	1.5582e+02	-17.6177	-32.100426	0.000126	1.264931	0.428570	0.000052
1568	1.5592e+02	-17.5712	-32.045028	0.000135	1.354572	0.458941	0.000056
1569	1.5602e+02	-17.5246	-31.994517	0.000124	1.235051	0.418447	0.000051
1570	1.5612e+02	-17.4877	-31.946858	0.000117	1.165330	0.394825	0.000048
1571	1.5622e+02	-17.4188	-31.895125	0.000126	1.264931	0.428570	0.000052
1572	1.5631e+02	-17.4059	-31.845430	0.000122	1.215131	0.411697	0.000050
1573	1.5641e+02	-17.3530	-31.792475	0.000129	1.294811	0.438694	0.000053
1574	1.5651e+02	-17.3273	-31.744001	0.000119	1.185250	0.401574	0.000049
1575	1.5661e+02	-17.2728	-31.689417	0.000133	1.334652	0.452192	0.000055
1576	1.5671e+02	-17.2311	-31.637685	0.000126	1.264931	0.428570	0.000052
1577	1.5681e+02	-17.1845	-31.586767	0.000125	1.245011	0.421821	0.000051
1578	1.5691e+02	-17.1541	-31.538701	0.000118	1.175290	0.398199	0.000048
1579	1.5701e+02	-17.1364	-31.485339	0.000130	1.304771	0.442069	0.000054
1580	1.5711e+02	-17.1156	-31.436865	0.000119	1.185250	0.401574	0.000049
1581	1.5721e+02	-17.0418	-31.384725	0.000127	1.274891	0.431945	0.000052
1582	1.5731e+02	-16.9920	-31.338696	0.000113	1.125490	0.381326	0.000046
1583	1.5741e+02	-16.9744	-31.288185	0.000124	1.235051	0.418447	0.000051
1584	1.5751e+02	-16.9166	-31.241748	0.000114	1.135450	0.384701	0.000047
1585	1.5761e+02	-16.8493	-31.188793	0.000129	1.294811	0.438694	0.000053
1586	1.5771e+02	-16.8412	-31.144800	0.000108	1.075689	0.364453	0.000044
1587	1.5781e+02	-16.8075	-31.093068	0.000126	1.264931	0.428570	0.000052
1588	1.5791e+02	-16.7851	-31.042557	0.000124	1.235051	0.418447	0.000051
1589	1.5801e+02	-16.7177	-30.993269	0.000121	1.205171	0.408323	0.000050
1590	1.5811e+02	-16.6519	-30.946017	0.000116	1.155370	0.391450	0.000047
1591	1.5821e+02	-16.6423	-30.893877	0.000127	1.274891	0.431945	0.000052
1592	1.5830e+02	-16.6022	-30.844996	0.000120	1.195210	0.404948	0.000049
1593	1.5840e+02	-16.5781	-30.795708	0.000121	1.205171	0.408323	0.000050
1594	1.5850e+02	-16.5509	-30.746827	0.000120	1.195210	0.404948	0.000049
1595	1.5860e+02	-16.4642	-30.694280	0.000128	1.284851	0.435319	0.000053
1596	1.5870e+02	-16.4530	-30.655989	0.000094	0.936248	0.317209	0.000038
1597	1.5880e+02	-16.4402	-30.598554	0.000140	1.404372	0.475814	0.000058
1598	1.5890e+02	-16.3712	-30.549673	0.000120	1.195210	0.404948	0.000049
1599	1.5900e+02	-16.3199	-30.499163	0.000124	1.235051	0.418447	0.000051
1600	1.5910e+02	-16.3054	-30.455984	0.000106	1.055769	0.357704	0.000043
1601	1.5920e+02	-16.2156	-30.401400	0.000133	1.334652	0.452192	0.000055
1602	1.5930e+02	-16.1931	-30.353741	0.000117	1.165330	0.394825	0.000048
1603	1.5940e+02	-16.1883	-30.299565	0.000132	1.324692	0.448818	0.000054
1604	1.5950e+02	-16.1354	-30.251906	0.000117	1.165330	0.394825	0.000048
1605	1.5960e+02	-16.1065	-30.207098	0.000110	1.095610	0.371203	0.000045
1606	1.5970e+02	-16.0487	-30.152921	0.000132	1.324692	0.448818	0.000054
1607	1.5980e+02	-16.0151	-30.108114	0.000110	1.095610	0.371203	0.000045
1608	1.5990e+02	-15.9461	-30.058011	0.000123	1.225091	0.415072	0.000050
1609	1.6000e+02	-15.9445	-30.010351	0.000117	1.165330	0.394825	0.000048
1610	1.6010e+02	-15.8675	-29.956990	0.000130	1.304771	0.442069	0.000054
1611	1.6019e+02	-15.8530	-29.908923	0.000118	1.175290	0.398199	0.000048
1612	1.6029e+02	-15.8033	-29.856783	0.000127	1.274891	0.431945	0.000052
1613	1.6039e+02	-15.7423	-29.811976	0.000110	1.095610	0.371203	0.000045
1614	1.6049e+02	-15.7279	-29.758206	0.000131	1.314732	0.445443	0.000054
1615	1.6059e+02	-15.6910	-29.710547	0.000117	1.165330	0.394825	0.000048
1616	1.6069e+02	-15.6573	-29.661259	0.000121	1.205171	0.408323	0.000050
1617	1.6079e+02	-15.6140	-29.607897	0.000130	1.304771	0.442069	0.000054
1618	1.6089e+02	-15.5627	-29.562275	0.000112	1.115530	0.377952	0.000046
1619	1.6099e+02	-15.5466	-29.512579	0.000122	1.215131	0.411697	0.000050
1620	1.6109e+02	-15.4873	-29.458402	0.000132	1.324692	0.448818	0.000054
1621	1.6119e+02	-15.4520	-29.414002	0.000109	1.085650	0.367828	0.000045
1622	1.6129e+02	-15.4391	-29.365121	0.000120	1.195210	0.404948	0.000049
1623	1.6139e+02	-15.3557	-29.316647	0.000119	1.185250	0.401574	0.000049
1624	1.6149e+02	-15.3044	-29.260434	0.000137	1.374492	0.465691	0.000056
1625	1.6159e+02	-15.2835	-29.211960	0.000119	1.185250	0.401574	0.000049
1626	1.6169e+02	-15.2354	-29.159820	0.000127	1.274891	0.431945	0.000052
1627	1.6179e+02	-15.2194	-29.114198	0.000112	1.115530	0.377952	0.000046
1628	1.6189e+02	-15.1440	-29.060429	0.000131	1.314732	0.445443	0.000054
1629	1.6199e+02	-15.1135	-29.011140	0.000121	1.205171	0.408323	0.000050
1630	1.6209e+02	-15.0589	-28.960630	0.000124	1.235051	0.418447	0.000051
1631	1.6219e+02	-15.0589	-28.905231	-0.000135	-1.354572	-0.458941	0.000056
1632	1.6228e+02	-14.9964	-28.860016	0.000111	1.105570	0.374577	0.000045
1633	1.6238e+02	-14.9386	-28.806654	0.000130	1.304771	0.442069	0.000054
1634	1.6248e+02	-14.9498	-28.757773	-0.000120	-1.195210	-0.404948	0.000049
1635	1.6258e+02	-14.8761	-28.704411	0.000130	1.304771	0.442069	0.000054
1636	1.6268e+02	-14.8728	-28.659604	0.000110	1.095610	0.371203	0.000045
1637	1.6278e+02	-14.8055	-28.607871	0.000126	1.264931	0.428570	0.000052
1638	1.6288e+02	-14.7654	-28.559397	0.000119	1.185250	0.401574	0.000049
1639	1.6298e+02	-14.7140	-28.510516	0.000120	1.195210	0.404948	0.000049
1640	1.6308e+02	-14.6948	-28.462042	0.000119	1.185250	0.401574	0.000049
1641	1.6318e+02	-14.6563	-28.409903	0.000127	1.274891	0.431945	0.000052
1642	1.6328e+02	-14.6178	-28.364280	0.000112	1.115530	0.377952	0.000046
1643	1.6338e+02	-14.5584	-28.307660	0.000138	1.384452	0.469065	0.000057
1644	1.6348e+02	-14.5488	-28.261223	0.000114	1.135450	0.384701	0.000047
1645	1.6358e+02	-14.5055	-28.212341	0.000120	1.195210	0.404948	0.000049
1646	1.6368e+02	-14.4285	-28.163053	0.000121	1.205171	0.408323	0.000050
1647	1.6378e+02	-14.4349	-28.115394	-0.000117	-1.165330	-0.394825	0.000048
1648	1.6388e+02	-14.3579	-28.066920	0.000119	1.185250	0.401574	0.000049
1649	1.6398e+02	-14.3418	-28.017224	0.000122	1.215131	0.411697	0.000050
1650	1.6408e+02	-14.2857	-27.978119	0.000096	0.956168	0.323959	0.000039
1651	1.6418e+02	-14.2504	-27.925572	0.000128	1.284851	0.435319	0.000053
1652	1.6427e+02	-14.2071	-27.875469	0.000123	1.225091	0.415072	0.000050
1653	1.6437e+02	-14.1766	-27.826995	0.000119	1.185250	0.401574	0.000049
1654	1.6447e+02	-14.1445	-27.776485	0.000124	1.235051	0.418447	0.000051
1655	1.6457e+02	-14.0659	-27.723530	0.000129	1.294811	0.438694	0.000053
1656	1.6467e+02	-14.0354	-27.670576	0.000129	1.294811	0.438694	0.000053
1657	1.6477e+02	-14.0226	-27.620473	0.000123	1.225091	0.415072	0.000050
1658	1.6487e+02	-13.9857	-27.569148	0.000125	1.254971	0.425196	0.000052
1659	1.6497e+02	-13.9312	-27.523118	0.000113	1.125490	0.381326	0.000046
1660	1.6507e+02	-13.8798	-27.464868	0.000142	1.424292	0.482563	0.000059
1661	1.6517e+02	-13.8590	-27.414357	0.000124	1.235051	0.418447	0.000051
1662	1.6527e+02	-13.8189	-27.366698	0.000117	1.165330	0.394825	0.000048
1663	1.6537e+02	-13.7354	-27.312522	0.000132	1.324692	0.448818	0.000054
1664	1.6547e+02	-13.7691	-27.259567	-0.000129	-1.294811	-0.438694	0.000053
1665	1.6557e+02	-13.6953	-27.206613	0.000129	1.294811	0.438694	0.000053
1666	1.6567e+02	-13.6360	-27.156102	0.000124	1.235051	0.418447	0.000051
1667	1.6577e+02	-13.6151	-27.097852	0.000142	1.424292	0.482563	0.000059
1668	1.6587e+02	-13.5590	-27.047342	0.000124	1.235051	0.418447	0.000051
1669	1.6597e+02	-13.5092	-26.989906	0.000140	1.404372	0.475814	0.000058
1670	1.6607e+02	-13.4980	-26.936137	0.000131	1.314732	0.445443	0.000054
1671	1.6616e+02	-13.4643	-26.883590	0.000128	1.284851	0.435319	0.000053
1672	1.6626e+02	-13.4242	-26.827784	0.000136	1.364532	0.462316	0.000056
1673	1.6636e+02	-13.3873	-26.772793	0.000134	1.344612	0.455567	0.000055
1674	1.6646e+02	-13.3568	-26.716172	0.000138	1.384452	0.469065	0.000057
1675	1.6656e+02	-13.3087	-26.664032	0.000127	1.274891	0.431945	0.000052
1676	1.6666e+02	-13.2750	-26.609449	0.000133	1.334652	0.452192	0.000055
1677	1.6676e+02	-13.2349	-26.556087	0.000130	1.304771	0.442069	0.000054
1678	1.6686e+02	-13.1724	-26.499873	0.000137	1.374492	0.465691	0.000056
1679	1.6696e+02	-13.1162	-26.440401	0.000145	1.454173	0.492687	0.000060
1680	1.6706e+02	-13.0889	-26.382966	0.000140	1.404372	0.475814	0.000058
1681	1.6716e+02	-13.0697	-26.328789	0.000132	1.324692	0.448818	0.000054
1682	1.6726e+02	-13.0328	-26.276650	0.000127	1.274891	0.431945	0.000052
1683	1.6736e+02	-12.9542	-26.214326	0.000152	1.523893	0.516309	0.000063
1684	1.6746e+02	-12.9510	-26.161779	0.000128	1.284851	0.435319	0.000053
1685	1.6756e+02	-12.9028	-26.103529	0.000142	1.424292	0.482563	0.000059
1686	1.6766e+02	-12.8724	-26.050982	0.000128	1.284851	0.435319	0.000053
1687	1.6776e+02	-12.8419	-25.996805	0.000132	1.324692	0.448818	0.000054
1688	1.6786e+02	-12.7889	-25.941407	0.000135	1.354572	0.458941	0.000056
1689	1.6796e+02	-12.7328	-25.882749	0.000143	1.434253	0.485938	0.000059
1690	1.6806e+02	-12.6638	-25.828165	0.000133	1.334652	0.452192	0.000055
1691	1.6816e+02	-12.6478	-25.768693	0.000145	1.454173	0.492687	0.000060
1692	1.6825e+02	-12.6141	-25.709221	0.000145	1.454173	0.492687	0.000060
1693	1.6835e+02	-12.5595	-25.654638	0.000133	1.334652	0.452192	0.000055
1694	1.6845e+02	-12.5515	-25.595980	0.000143	1.434253	0.485938	0.000059
1695	1.6855e+02	-12.4857	-25.535694	0.000147	1.474093	0.499436	0.000061
1696	1.6865e+02	-12.4424	-25.483554	0.000127	1.274891	0.431945	0.000052
1697	1.6875e+02	-12.4119	-25.422452	0.000149	1.494013	0.506185	0.000061
1698	1.6885e+02	-12.3751	-25.366646	0.000136	1.364532	0.462316	0.000056
1699	1.6895e+02	-12.3173	-25.305138	0.000150	1.503973	0.509560	0.000062
1700	1.6905e+02	-12.3269	-25.250554	-0.000133	-1.334652	-0.452192	0.000055
1701	1.6915e+02	-12.2547	-25.186194	0.000157	1.573694	0.533182	0.000065
1702	1.6925e+02	-12.2291	-25.132424	0.000131	1.314732	0.445443	0.000054
1703	1.6935e+02	-12.1761	-25.071730	0.000148	1.484053	0.502811	0.000061
1704	1.6945e+02	-12.1248	-25.011444	0.000147	1.474093	0.499436	0.000061
1705	1.6955e+02	-12.0863	-24.954416	0.000139	1.394412	0.472440	0.000057
1706	1.6965e+02	-12.0719	-24.898202	0.000137	1.374492	0.465691	0.000056
1707	1.6975e+02	-11.9997	-24.836694	0.000150	1.503973	0.509560	0.000062
1708	1.6985e+02	-11.9515	-24.778444	0.000142	1.424292	0.482563	0.000059
1709	1.6995e+02	-11.9307	-24.718972	0.000145	1.454173	0.492687	0.000060
1710	1.7005e+02	-11.8617	-24.665610	0.000130	1.304771	0.442069	0.000054
1711	1.7015e+02	-11.8376	-24.605730	0.000146	1.464133	0.496062	0.000060
1712	1.7024e+02	-11.8344	-24.545851	0.000146	1.464133	0.496062	0.000060
1713	1.7034e+02	-11.7703	-24.483935	0.000151	1.513933	0.512934	0.000062
1714	1.7044e+02	-11.7269	-24.425278	0.000143	1.434253	0.485938	0.000059
1715	1.7054e+02	-11.7318	-24.367028	-0.000142	-1.424292	-0.482563	0.000059
1716	1.7064e+02	-11.6612	-24.308370	0.000143	1.434253	0.485938	0.000059
1717	1.7074e+02	-11.6259	-24.244825	0.000155	1.553774	0.526433	0.000064
1718	1.7084e+02	-11.5697	-24.187390	0.000140	1.404372	0.475814	0.000058
1719	1.7094e+02	-11.5216	-24.126696	0.000148	1.484053	0.502811	0.000061
1720	1.7104e+02	-11.5023	-24.066409	0.000147	1.474093	0.499436	0.000061
1721	1.7114e+02	-11.4863	-23.999605	0.000163	1.633454	0.553429	0.000067
1722	1.7124e+02	-11.4318	-23.935652	0.000156	1.563734	0.529807	0.000064
1723	1.7134e+02	-11.3708	-23.882290	0.000130	1.304771	0.442069	0.000054
1724	1.7144e+02	-11.3580	-23.817930	0.000157	1.573694	0.533182	0.000065
1725	1.7154e+02	-11.3243	-23.757236	0.000148	1.484053	0.502811	0.000061
1726	1.7164e+02	-11.2649	-23.692876	0.000157	1.573694	0.533182	0.000065
1727	1.7174e+02	-11.2136	-23.631367	0.000150	1.503973	0.509560	0.000062
1728	1.7184e+02	-11.1623	-23.573524	0.000141	1.414332	0.479189	0.000058
1729	1.7194e+02	-11.1606	-23.510794	0.000153	1.533853	0.519684	0.000063
1730	1.7204e+02	-11.1093	-23.446434	0.000157	1.573694	0.533182	0.000065
1731	1.7213e+02	-11.0227	-23.382073	0.000157	1.573694	0.533182	0.000065
1732	1.7223e+02	-11.0548	-23.316491	-0.000160	-1.603574	-0.543306	0.000066
1733	1.7233e+02	-10.9746	-23.251317	0.000159	1.593614	0.539931	0.000066
1734	1.7243e+02	-10.9377	-23.188586	0.000153	1.533853	0.519684	0.000063
1735	1.7253e+02	-10.9008	-23.120560	0.000166	1.663335	0.563553	0.000068
1736	1.7263e+02	-10.8574	-23.061088	0.000145	1.454173	0.492687	0.000060
1737	1.7273e+02	-10.8222	-22.998357	0.000153	1.533853	0.519684	0.000063
1738	1.7283e+02	-10.7564	-22.935219	0.000154	1.543814	0.523058	0.000063
1739	1.7293e+02	-10.7387	-22.873710	0.000150	1.503973	0.509560	0.000062
1740	1.7303e+02	-10.7002	-22.814238	0.000145	1.454173	0.492687	0.000060
1741	1.7313e+02	-10.6585	-22.749878	0.000157	1.573694	0.533182	0.000065
1742	1.7323e+02	-10.6361	-22.682666	0.000164	1.643414	0.556804	0.000068
1743	1.7333e+02	-10.5895	-22.622787	0.000146	1.464133	0.496062	0.000060
1744	1.7343e+02	-10.5671	-22.558019	0.000158	1.583654	0.536556	0.000065
1745	1.7353e+02	-10.5093	-22.494881	0.000154	1.543814	0.523058	0.000063
1746	1.7363e+02	-10.4403	-22.434187	0.000148	1.484053	0.502811	0.000061
1747	1.7373e+02	-10.4452	-22.373493	-0.000148	-1.484053	-0.502811	0.000061
1748	1.7383e+02	-10.3874	-22.311170	0.000152	1.523893	0.516309	0.000063
1749	1.7393e+02	-10.3794	-22.246810	0.000157	1.573694	0.533182	0.000065
1750	1.7403e+02	-10.3281	-22.188152	0.000143	1.434253	0.485938	0.000059
1751	1.7413e+02	-10.2719	-22.130310	0.000141	1.414332	0.479189	0.000058
1752	1.7422e+02	-10.2174	-22.066357	0.000156	1.563734	0.529807	0.000064
1753	1.7432e+02	-10.1580	-22.003219	0.000154	1.543814	0.523058	0.000063
1754	1.7442e+02	-10.1484	-21.943747	0.000145	1.454173	0.492687	0.000060
1755	1.7452e+02	-10.1179	-21.882646	0.000149	1.494013	0.506185	0.000061
1756	1.7462e+02	-10.0810	-21.822766	0.000146	1.464133	0.496062	0.000060
1757	1.7472e+02	-10.0056	-21.760443	0.000152	1.523893	0.516309	0.000063
1758	1.7482e+02	-9.9751	-21.696490	0.000156	1.563734	0.529807	0.000064
1759	1.7492e+02	-9.9158	-21.640277	0.000137	1.374492	0.465691	0.000056
1760	1.7502e+02	-9.9174	-21.578768	-0.000150	-1.503973	-0.509560	0.000062
1761	1.7512e+02	-9.8420	-21.515630	0.000154	1.543814	0.523058	0.000063
1762	1.7522e+02	-9.8532	-21.450455	-0.000159	-1.593614	-0.539931	0.000066
1763	1.7532e+02	-9.7874	-21.392205	0.000142	1.424292	0.482563	0.000059
1764	1.7542e+02	-9.7682	-21.329474	0.000153	1.533853	0.519684	0.000063
1765	1.7552e+02	-9.6992	-21.267966	0.000150	1.503973	0.509560	0.000062
1766	1.7562e+02	-9.6671	-21.208086	0.000146	1.464133	0.496062	0.000060
1767	1.7572e+02	-9.6446	-21.146985	0.000149	1.494013	0.506185	0.000061
1768	1.7582e+02	-9.6045	-21.088735	0.000142	1.424292	0.482563	0.000059
1769	1.7592e+02	-9.5291	-21.026004	0.000153	1.533853	0.519684	0.000063
1770	1.7602e+02	-9.4890	-20.961644	0.000157	1.573694	0.533182	0.000065
1771	1.7612e+02	-9.5067	-20.900135	-0.000150	-1.503973	-0.509560	0.000062
1772	1.7621e+02	-9.4361	-20.841885	0.000142	1.424292	0.482563	0.000059
1773	1.7631e+02	-9.3735	-20.780377	0.000150	1.503973	0.509560	0.000062
1774	1.7641e+02	-9.3671	-20.719275	0.000149	1.494013	0.506185	0.000061
1775	1.7651e+02	-9.3334	-20.660211	0.000144	1.444213	0.489312	0.000059
1776	1.7661e+02	-9.2564	-20.595850	0.000157	1.573694	0.533182	0.000065
1777	1.7671e+02	-9.2275	-20.537600	0.000142	1.424292	0.482563	0.000059
1778	1.7681e+02	-9.1923	-20.471204	0.000162	1.623494	0.550055	0.000067
1779	1.7691e+02	-9.1650	-20.412546	0.000143	1.434253	0.485938	0.000059
1780	1.7701e+02	-9.0832	-20.347779	0.000158	1.583654	0.536556	0.000065
1781	1.7711e+02	-9.0944	-20.290344	-0.000140	-1.404372	-0.475814	0.000058
1782	1.7721e+02	-9.0431	-20.225983	0.000157	1.573694	0.533182	0.000065
1783	1.7731e+02	-9.0062	-20.162031	0.000156	1.563734	0.529807	0.000064
1784	1.7741e+02	-8.9195	-20.105817	0.000137	1.374492	0.465691	0.000056
1785	1.7751e+02	-8.9115	-20.041865	0.000156	1.563734	0.529807	0.000064
1786	1.7761e+02	-8.8762	-19.979948	0.000151	1.513933	0.512934	0.000062
1787	1.7771e+02	-8.8233	-19.918032	0.000151	1.513933	0.512934	0.000062
1788	1.7781e+02	-8.7784	-19.852043	0.000161	1.613534	0.546680	0.000066
1789	1.7791e+02	-8.7463	-19.792164	0.000146	1.464133	0.496062	0.000060
1790	1.7801e+02	-8.7238	-19.731470	0.000148	1.484053	0.502811	0.000061
1791	1.7810e+02	-8.6645	-19.668739	0.000153	1.533853	0.519684	0.000063
1792	1.7820e+02	-8.6388	-19.607637	0.000149	1.494013	0.506185	0.000061
1793	1.7830e+02	-8.5907	-19.543277	0.000157	1.573694	0.533182	0.000065
1794	1.7840e+02	-8.5474	-19.478917	0.000157	1.573694	0.533182	0.000065
1795	1.7850e+02	-8.4976	-19.415779	0.000154	1.543814	0.523058	0.000063
1796	1.7860e+02	-8.4736	-19.353048	0.000153	1.533853	0.519684	0.000063
1797	1.7870e+02	-8.4447	-19.287873	0.000159	1.593614	0.539931	0.000066
1798	1.7880e+02	-8.3805	-19.229623	0.000142	1.424292	0.482563	0.000059
1799	1.7890e+02	-8.3516	-19.163634	0.000161	1.613534	0.546680	0.000066
1800	1.7900e+02	-8.3131	-19.104569	0.000144	1.444213	0.489312	0.000059
1801	1.7910e+02	-8.2698	-19.037765	0.000163	1.633454	0.553429	0.000067
1802	1.7920e+02	-8.2377	-18.978293	0.000145	1.454173	0.492687	0.000060
1803	1.7930e+02	-8.1736	-18.914340	0.000156	1.563734	0.529807	0.000064
1804	1.7940e+02	-8.1896	-18.857312	-0.000139	-1.394412	-0.472440	0.000057
1805	1.7950e+02	-8.1078	-18.794174	0.000154	1.543814	0.523058	0.000063
1806	1.7960e+02	-8.0741	-18.728185	0.000161	1.613534	0.546680	0.000066
1807	1.7970e+02	-8.0308	-18.667083	0.000149	1.494013	0.506185	0.000061
1808	1.7980e+02	-7.9843	-18.608019	0.000144	1.444213	0.489312	0.000059
1809	1.7990e+02	-7.9570	-18.539585	0.000167	1.673295	0.566928	0.000069
1810	1.8000e+02	-7.9105	-18.478891	0.000148	1.484053	0.502811	0.000061
1811	1.8009e+02	-7.8688	-18.412902	0.000161	1.613534	0.546680	0.000066
1812	1.8019e+02	-7.8463	-18.354244	0.000143	1.434253	0.485938	0.000059
1813	1.8029e+02	-7.7886	-18.293958	0.000147	1.474093	0.499436	0.000061
1814	1.8039e+02	-7.7661	-18.227561	0.000162	1.623494	0.550055	0.000067
1815	1.8049e+02	-7.7148	-18.170533	0.000139	1.394412	0.472440	0.000057
1816	1.8059e+02	-7.6586	-18.108617	0.000151	1.513933	0.512934	0.000062
1817	1.8069e+02	-7.6506	-18.048330	0.000147	1.474093	0.499436	0.000061
1818	1.8079e+02	-7.5768	-17.991302	0.000139	1.394412	0.472440	0.000057
1819	1.8089e+02	-7.5656	-17.926942	0.000157	1.573694	0.533182	0.000065
1820	1.8099e+02	-7.5206	-17.863804	0.000154	1.543814	0.523058	0.000063
1821	1.8109e+02	-7.5062	-17.803517	0.000147	1.474093	0.499436	0.000061
1822	1.8119e+02	-7.4388	-17.734676	0.000168	1.683255	0.570302	0.000069
1823	1.8129e+02	-7.4067	-17.669909	0.000158	1.583654	0.536556	0.000065
1824	1.8139e+02	-7.3329	-17.608807	0.000149	1.494013	0.506185	0.000061
1825	1.8149e+02	-7.3169	-17.545669	0.000154	1.543814	0.523058	0.000063
1826	1.8159e+02	-7.2832	-17.480087	0.000160	1.603574	0.543306	0.000066
1827	1.8169e+02	-7.2271	-17.418986	0.000149	1.494013	0.506185	0.000061
1828	1.8179e+02	-7.1998	-17.350552	0.000167	1.673295	0.566928	0.000069
1829	1.8189e+02	-7.1501	-17.286192	0.000157	1.573694	0.533182	0.000065
1830	1.8199e+02	-7.1019	-17.220610	0.000160	1.603574	0.543306	0.000066
1831	1.8209e+02	-7.0618	-17.151769	0.000168	1.683255	0.570302	0.000069
1832	1.8218e+02	-7.0265	-17.084150	0.000165	1.653375	0.560178	0.000068
1833	1.8228e+02	-7.0105	-17.021012	0.000154	1.543814	0.523058	0.000063
1834	1.8238e+02	-6.9463	-16.957467	0.000155	1.553774	0.526433	0.000064
1835	1.8248e+02	-6.9303	-16.880479	0.000188	1.882457	0.637794	0.000077
1836	1.8258e+02	-6.8982	-16.818563	0.000151	1.513933	0.512934	0.000062
1837	1.8268e+02	-6.8308	-16.748500	0.000171	1.713135	0.580426	0.000070
1838	1.8278e+02	-6.8148	-16.686584	0.000151	1.513933	0.512934	0.000062
1839	1.8288e+02	-6.7458	-16.615706	0.000173	1.733055	0.587175	0.000071
1840	1.8298e+02	-6.7137	-16.548495	0.000164	1.643414	0.556804	0.000068
1841	1.8308e+02	-6.6977	-16.476395	0.000176	1.762935	0.597299	0.000072
1842	1.8318e+02	-6.6463	-16.413257	0.000154	1.543814	0.523058	0.000063
1843	1.8328e+02	-6.5950	-16.336269	0.000188	1.882457	0.637794	0.000077
1844	1.8338e+02	-6.5854	-16.270280	0.000161	1.613534	0.546680	0.000066
1845	1.8348e+02	-6.5260	-16.198995	0.000174	1.743015	0.590550	0.000072
1846	1.8358e+02	-6.4651	-16.128117	0.000173	1.733055	0.587175	0.000071
1847	1.8368e+02	-6.4394	-16.058869	0.000169	1.693215	0.573677	0.000070
1848	1.8378e+02	-6.3993	-15.996546	0.000152	1.523893	0.516309	0.000063
1849	1.8388e+02	-6.3768	-15.926890	0.000170	1.703175	0.577051	0.000070
1850	1.8398e+02	-6.3479	-15.859679	0.000164	1.643414	0.556804	0.000068
1851	1.8407e+02	-6.3014	-15.789208	0.000172	1.723095	0.583800	0.000071
1852	1.8417e+02	-6.2533	-15.721182	0.000166	1.663335	0.563553	0.000068
1853	1.8427e+02	-6.2212	-15.644602	0.000187	1.872496	0.634419	0.000077
1854	1.8437e+02	-6.1538	-15.573724	0.000173	1.733055	0.587175	0.000071
1855	1.8447e+02	-6.1153	-15.504069	0.000170	1.703175	0.577051	0.000070
1856	1.8457e+02	-6.0640	-15.433598	0.000172	1.723095	0.583800	0.000071
1857	1.8467e+02	-6.0560	-15.356203	0.000189	1.892417	0.641168	0.000078
1858	1.8477e+02	-6.0207	-15.286955	0.000169	1.693215	0.573677	0.000070
1859	1.8487e+02	-5.9645	-15.220151	0.000163	1.633454	0.553429	0.000067
1860	1.8497e+02	-5.9212	-15.144792	0.000184	1.842616	0.624295	0.000076
1861	1.8507e+02	-5.8795	-15.070249	0.000182	1.822696	0.617546	0.000075
1862	1.8517e+02	-5.8474	-14.996112	0.000181	1.812736	0.614172	0.000075
1863	1.8527e+02	-5.8105	-14.929308	0.000163	1.633454	0.553429	0.000067
1864	1.8537e+02	-5.7720	-14.857616	0.000175	1.752975	0.593924	0.000072
1865	1.8547e+02	-5.7432	-14.781443	0.000186	1.862536	0.631044	0.000077
1866	1.8557e+02	-5.6629	-14.707306	0.000181	1.812736	0.614172	0.000075
1867	1.8567e+02	-5.6405	-14.638873	0.000167	1.673295	0.566928	0.000069
1868	1.8577e+02	-5.5715	-14.556997	0.000200	2.001978	0.678288	0.000082
1869	1.8587e+02	-5.5330	-14.489786	0.000164	1.643414	0.556804	0.000068
1870	1.8597e+02	-5.5378	-14.411168	-0.000192	-1.922297	-0.651292	0.000079
1871	1.8606e+02	-5.4833	-14.340291	0.000173	1.733055	0.587175	0.000071
1872	1.8616e+02	-5.4432	-14.265340	0.000183	1.832656	0.620921	0.000075
1873	1.8626e+02	-5.4223	-14.196499	0.000168	1.683255	0.570302	0.000069
1874	1.8636e+02	-5.3694	-14.117067	0.000194	1.942217	0.658041	0.000080
1875	1.8646e+02	-5.3325	-14.041301	0.000185	1.852576	0.627670	0.000076
1876	1.8656e+02	-5.2651	-13.967165	0.000181	1.812736	0.614172	0.000075
1877	1.8666e+02	-5.2699	-13.891807	-0.000184	-1.842616	-0.624295	0.000076
1878	1.8676e+02	-5.2073	-13.823780	0.000166	1.663335	0.563553	0.000068
1879	1.8686e+02	-5.1817	-13.747607	0.000186	1.862536	0.631044	0.000077
1880	1.8696e+02	-5.1303	-13.670212	0.000189	1.892417	0.641168	0.000078
1881	1.8706e+02	-5.0694	-13.597298	0.000178	1.782856	0.604048	0.000073
1882	1.8716e+02	-5.0437	-13.520718	0.000187	1.872496	0.634419	0.000077
1883	1.8726e+02	-5.0180	-13.450247	0.000172	1.723095	0.583800	0.000071
1884	1.8736e+02	-4.9507	-13.367964	0.000201	2.011938	0.681663	0.000083
1885	1.8746e+02	-4.9715	-13.289754	-0.000191	-1.912337	-0.647917	0.000079
1886	1.8756e+02	-4.9266	-13.218877	0.000173	1.733055	0.587175	0.000071
1887	1.8766e+02	-4.8287	-13.137001	0.000200	2.001978	0.678288	0.000082
1888	1.8776e+02	-4.8159	-13.058791	0.000191	1.912337	0.647917	0.000079
1889	1.8786e+02	-4.7566	-12.981803	0.000188	1.882457	0.637794	0.000077
1890	1.8796e+02	-4.7501	-12.904816	0.000188	1.882457	0.637794	0.000077
1891	1.8806e+02	-4.6972	-12.825791	0.000193	1.932257	0.654666	0.000079
1892	1.8815e+02	-4.6603	-12.745952	0.000195	1.952177	0.661416	0.000080
1893	1.8825e+02	-4.6009	-12.660818	0.000208	2.081658	0.705285	0.000086
1894	1.8835e+02	-4.5480	-12.587903	0.000178	1.782856	0.604048	0.000073
1895	1.8845e+02	-4.5079	-12.510915	0.000188	1.882457	0.637794	0.000077
1896	1.8855e+02	-4.4726	-12.433113	0.000190	1.902377	0.644543	0.000078
1897	1.8865e+02	-4.4485	-12.352052	0.000198	1.982057	0.671539	0.000081
1898	1.8875e+02	-4.3908	-12.266917	0.000208	2.081658	0.705285	0.000086
1899	1.8885e+02	-4.3651	-12.186263	0.000197	1.972097	0.668165	0.000081
1900	1.8895e+02	-4.3042	-12.106017	0.000196	1.962137	0.664790	0.000081
1901	1.8905e+02	-4.2849	-12.026993	0.000193	1.932257	0.654666	0.000079
1902	1.8915e+02	-4.2721	-11.942265	0.000207	2.071698	0.701910	0.000085
1903	1.8925e+02	-4.2127	-11.855909	0.000211	2.111539	0.715409	0.000087
1904	1.8935e+02	-4.2031	-11.780143	0.000185	1.852576	0.627670	0.000076
1905	1.8945e+02	-4.1550	-11.699082	0.000198	1.982057	0.671539	0.000081
1906	1.8955e+02	-4.1068	-11.618835	0.000196	1.962137	0.664790	0.000081
1907	1.8965e+02	-4.0571	-11.539811	0.000193	1.932257	0.654666	0.000079
1908	1.8975e+02	-4.0379	-11.457120	0.000202	2.021898	0.685037	0.000083
1909	1.8985e+02	-3.9560	-11.369134	0.000215	2.151379	0.728907	0.000088
1910	1.8995e+02	-3.9512	-11.294183	0.000183	1.832656	0.620921	0.000075
1911	1.9004e+02	-3.9111	-11.210678	0.000204	2.041818	0.691787	0.000084
1912	1.9014e+02	-3.8389	-11.130432	0.000196	1.962137	0.664790	0.000081
1913	1.9024e+02	-3.8341	-11.052629	0.000190	1.902377	0.644543	0.000078
1914	1.9034e+02	-3.7619	-10.966272	0.000211	2.111539	0.715409	0.000087
1915	1.9044e+02	-3.7330	-10.890507	0.000185	1.852576	0.627670	0.000076
1916	1.9054e+02	-3.6945	-10.809446	0.000198	1.982057	0.671539	0.000081
1917	1.9064e+02	-3.6448	-10.725533	0.000205	2.051778	0.695161	0.000084
1918	1.9074e+02	-3.6224	-10.643250	0.000201	2.011938	0.681663	0.000083
1919	1.9084e+02	-3.5871	-10.566262	0.000188	1.882457	0.637794	0.000077
1920	1.9094e+02	-3.5518	-10.483572	0.000202	2.021898	0.685037	0.000083
1921	1.9104e+02	-3.5036	-10.406176	0.000189	1.892417	0.641168	0.000078
1922	1.9114e+02	-3.4716	-10.319820	0.000211	2.111539	0.715409	0.000087
1923	1.9124e+02	-3.4074	-10.247720	0.000176	1.762935	0.597299	0.000072
1924	1.9134e+02	-3.3528	-10.162178	0.000209	2.091618	0.708659	0.000086
1925	1.9144e+02	-3.3288	-10.083969	0.000191	1.912337	0.647917	0.000079
1926	1.9154e+02	-3.2855	-9.999241	0.000207	2.071698	0.701910	0.000085
1927	1.9164e+02	-3.2357	-9.921846	0.000189	1.892417	0.641168	0.000078
1928	1.9174e+02	-3.2357	-9.838341	-0.000204	-2.041818	-0.691787	0.000084
1929	1.9184e+02	-3.1539	-9.756058	0.000201	2.011938	0.681663	0.000083
1930	1.9194e+02	-3.1058	-9.680292	0.000185	1.852576	0.627670	0.000076
1931	1.9203e+02	-3.0962	-9.595972	0.000206	2.061738	0.698536	0.000085
1932	1.9213e+02	-3.0753	-9.509616	0.000211	2.111539	0.715409	0.000087
1933	1.9223e+02	-3.0240	-9.431813	0.000190	1.902377	0.644543	0.000078
1934	1.9233e+02	-2.9775	-9.345049	0.000212	2.121499	0.718783	0.000087
1935	1.9243e+02	-2.9277	-9.267654	0.000189	1.892417	0.641168	0.000078
1936	1.9253e+02	-2.8940	-9.178853	0.000217	2.171299	0.735656	0.000089
1937	1.9263e+02	-2.8443	-9.093311	0.000209	2.091618	0.708659	0.000086
1938	1.9273e+02	-2.8090	-9.015509	0.000190	1.902377	0.644543	0.000078
1939	1.9283e+02	-2.7721	-8.931189	0.000206	2.061738	0.698536	0.000085
1940	1.9293e+02	-2.7272	-8.846055	0.000208	2.081658	0.705285	0.000086
1941	1.9303e+02	-2.6967	-8.760920	0.000208	2.081658	0.705285	0.000086
1942	1.9313e+02	-2.6727	-8.682710	0.000191	1.912337	0.647917	0.000079
1943	1.9323e+02	-2.6213	-8.598390	0.000206	2.061738	0.698536	0.000085
1944	1.9333e+02	-2.5668	-8.513663	0.000207	2.071698	0.701910	0.000085
1945	1.9343e+02	-2.5539	-8.428528	0.000208	2.081658	0.705285	0.000086
1946	1.9353e+02	-2.4978	-8.343394	0.000208	2.081658	0.705285	0.000086
1947	1.9363e+02	-2.4561	-8.257445	0.000210	2.101578	0.712034	0.000086
1948	1.9373e+02	-2.4240	-8.178420	0.000193	1.932257	0.654666	0.000079
1949	1.9383e+02	-2.3743	-8.090841	0.000214	2.141419	0.725532	0.000088
1950	1.9393e+02	-2.3133	-8.007744	0.000203	2.031858	0.688412	0.000084
1951	1.9403e+02	-2.2957	-7.913240	0.000231	2.310740	0.782900	0.000095
1952	1.9412e+02	-2.2892	-7.834623	0.000192	1.922297	0.651292	0.000079
1953	1.9422e+02	-2.2507	-7.749488	0.000208	2.081658	0.705285	0.000086
1954	1.9432e+02	-2.1802	-7.663539	0.000210	2.101578	0.712034	0.000086
1955	1.9442e+02	-2.1625	-7.572294	0.000223	2.231060	0.755903	0.000092
1956	1.9452e+02	-2.0999	-7.486345	0.000210	2.101578	0.712034	0.000086
1957	1.9462e+02	-2.0566	-7.400803	0.000209	2.091618	0.708659	0.000086
1958	1.9472e+02	-2.0374	-7.317298	0.000204	2.041818	0.691787	0.000084
1959	1.9482e+02	-1.9700	-7.225239	0.000225	2.250980	0.762653	0.000093
1960	1.9492e+02	-1.9475	-7.141733	0.000204	2.041818	0.691787	0.000084
1961	1.9502e+02	-1.9042	-7.054562	0.000213	2.131459	0.722158	0.000088
1962	1.9512e+02	-1.8497	-6.966983	0.000214	2.141419	0.725532	0.000088
1963	1.9522e+02	-1.8320	-6.872887	0.000230	2.300780	0.779525	0.000095
1964	1.9532e+02	-1.7855	-6.782457	0.000221	2.211139	0.749154	0.000091
1965	1.9542e+02	-1.7294	-6.690398	0.000225	2.250980	0.762653	0.000093
1966	1.9552e+02	-1.6748	-6.607300	0.000203	2.031858	0.688412	0.000084
1967	1.9562e+02	-1.6652	-6.518499	0.000217	2.171299	0.735656	0.000089
1968	1.9572e+02	-1.6283	-6.429699	0.000217	2.171299	0.735656	0.000089
1969	1.9582e+02	-1.5786	-6.338861	0.000222	2.221099	0.752529	0.000091
1970	1.9592e+02	-1.5497	-6.250468	0.000216	2.161339	0.732281	0.000089
1971	1.9601e+02	-1.4823	-6.158816	0.000224	2.241020	0.759278	0.000092
1972	1.9611e+02	-1.4967	-6.073274	-0.000209	-2.091618	-0.708659	0.000086
1973	1.9621e+02	-1.4278	-5.982436	0.000222	2.221099	0.752529	0.000091
1974	1.9631e+02	-1.3925	-5.893228	0.000218	2.181259	0.739031	0.000090
1975	1.9641e+02	-1.3395	-5.810130	0.000203	2.031858	0.688412	0.000084
1976	1.9651e+02	-1.2994	-5.713998	0.000235	2.350581	0.796398	0.000097
1977	1.9661e+02	-1.2818	-5.624790	0.000218	2.181259	0.739031	0.000090
1978	1.9671e+02	-1.2160	-5.529879	0.000232	2.320700	0.786275	0.000095
1979	1.9681e+02	-1.1935	-5.446781	0.000203	2.031858	0.688412	0.000084
1980	1.9691e+02	-1.1550	-5.348204	0.000241	2.410341	0.816646	0.000099
1981	1.9701e+02	-1.1021	-5.262662	0.000209	2.091618	0.708659	0.000086
1982	1.9711e+02	-1.0508	-5.166529	0.000235	2.350581	0.796398	0.000097
1983	1.9721e+02	-1.0171	-5.087097	0.000194	1.942217	0.658041	0.000080
1984	1.9731e+02	-0.9882	-4.990150	0.000237	2.370501	0.803147	0.000097
1985	1.9741e+02	-0.9353	-4.900535	0.000219	2.191219	0.742405	0.000090
1986	1.9751e+02	-0.9144	-4.811327	0.000218	2.181259	0.739031	0.000090
1987	1.9761e+02	-0.8567	-4.714786	0.000236	2.360541	0.799773	0.000097
1988	1.9771e+02	-0.8021	-4.624764	0.000220	2.201179	0.745780	0.000090
1989	1.9781e+02	-0.7556	-4.531482	0.000228	2.280860	0.772776	0.000094
1990	1.9791e+02	-0.7347	-4.435349	0.000235	2.350581	0.796398	0.000097
1991	1.9800e+02	-0.7123	-4.338809	0.000236	2.360541	0.799773	0.000097
1992	1.9810e+02	-0.6674	-4.248786	0.000220	2.201179	0.745780	0.000090
1993	1.9820e+02	-0.6273	-4.154283	0.000231	2.310740	0.782900	0.000095
1994	1.9830e+02	-0.5888	-4.057743	0.000236	2.360541	0.799773	0.000097
1995	1.9840e+02	-0.5406	-3.964869	0.000227	2.270900	0.769402	0.000093
1996	1.9850e+02	-0.5005	-3.871995	0.000227	2.270900	0.769402	0.000093
1997	1.9860e+02	-0.4893	-3.775454	0.000236	2.360541	0.799773	0.000097
1998	1.9870e+02	-0.4123	-3.672804	0.000251	2.509942	0.850391	0.000103
1999	1.9880e+02	-0.4027	-3.577893	0.000232	2.320700	0.786275	0.000095
2000	1.9890e+02	-0.3369	-3.485427	0.000226	2.260940	0.766027	0.000093
2001	1.9900e+02	-0.3225	-3.382369	0.000252	2.519902	0.853766	0.000104
2002	1.9910e+02	-0.2471	-3.284607	0.000239	2.390421	0.809897	0.000098
2003	1.9920e+02	-0.2021	-3.184400	0.000245	2.450181	0.830144	0.000101
2004	1.9930e+02	-0.1684	-3.089490	0.000232	2.320700	0.786275	0.000095
2005	1.9940e+02	-0.1332	-2.988876	0.000246	2.460142	0.833519	0.000101
2006	1.9950e+02	-0.1251	-2.888670	0.000245	2.450181	0.830144	0.000101
2007	1.9960e+02	-0.0914	-2.788056	0.000246	2.460142	0.833519	0.000101
2008	1.9970e+02	-0.0529	-2.687850	0.000245	2.450181	0.830144	0.000101
2009	1.9980e+02	0.0257	-2.587644	0.000245	2.450181	0.830144	0.000101

Center data before PMax,+/-Pr and +/-Vc Calc.

PMax (uC/cm2):	3.48e+01
Pr (uC/cm2):	7.83e-01
-Pr (uC/cm2):	-2.59e+00
PLoss (uC/cm2):	-8.35e-01
Vc:	7.43e-01
-Vc:	-3.18e-01
C (Max-Eff) (nF):	1.74e-01
K (Eff):	5.89e+02
Vert. (+/-Pr) Shift (uC/cm2):	-9.03e-01
Horiz. Shift (+/-Vc):	2.12e-01
Offset (uC/cm2):	1.75e+00

A (Loop Area - uC/cm2·Volts):	1.22e-02



Hysteresis Version: 5.48.1 - Radiant Technologies, Inc., 1999 - 9/12/24

