»»»»»»»»»»»»»»»»»»»»»»»»»»»»»»»»»»»» Hysteresis ««««««««««««««««««««««««««««««««««««
»»»  Executed Version:	5.48.1
»»»  Vision Version:	5.48.4 (R)
»»»  Vision Compiled:	9/18/24
»»»  Driver Version:	5.47.0
»»»  Windows Version:	Windows 8 or 8.1
»»»  Processor Information:	x86 (AMD or Intel) - 32 Processors
»»»  Tester Name:	PMF21124-494 (100V)
»»»  Tester S/N:	PMF21124-494
»»»  Internal Amp Type:	100V RevK 270k
»»»  Internal Amp S/N:	iAB2-596/K     
»»»  Execution Count:	1
»»»»»»»»»»»»»»»»»»»»»»»»»»»»»»»»»»»»»»»»»»««««««««««««««««««««««««««««««««««««««««««

Stored:	6/12/2025 - 10:15:36
Configured:	06/12/25 10:06:17 AM
Executed:	06/12/25 10:15:03 AM

»»»»»»»»»»»»»»»»»»»»»»»»»»»»»»»»»»» Sample Info ««««««««««««««««««««««««««««««««««««
Sample Name:	
Lot Name:	
Wafer Name:	
Die Row/Column:	0/0
Capacitor Number:	0
Sample Area (cm2):	1.00e-04
Sample Thickness (microns):	3.00e-01

Amplifier:	Internal

»»»»»»»»»»»»»»»»»»»»»»»»»»»»»»»»»»» Tester Info «««««««««««««««««««««««««««««««««««
Tester Name:	PMF21124-494 (100V)
Tester Serial Number:	PMF21124-494
Return Signal Amp. Level:	1.9 [Index: 2]

»»»»»»»»»»»»»»»»»»»»»»»»»»»»»»»» Hysteresis Info ««««««««««««««««««««««««««««««««««
Task Name:	Hyst-1390
Volts:	20.00
Field:	666.67 (kV/cm)
DCBias:	0.00
DCField:	0.00 (kV/cm)
Hysteresis Period (ms):	2.00e+02
Preset:	Enabled
Preset Delay (ms):	1.00e+03
Profile:	Standard Bipolar

»»»»»»»»»»»»»»»»»»»»»»»»»»»»»»»»»»»»»» Data «««««««««««««««««««««««««««««««««««««««
Points:	2009

Valid Data

Point	Time (ms)	Drive Voltage	Measured Polarization (uC/cm2)	Capacitance (uF)	Normalized Capacitance (uF/cm2)	Dielectric Constant	Instantaneous Current (mA)
   1	0.0000e+00	-0.0032	-1.324271	0.000134	1.338139	0.453374	0.000054
   2	9.9500e-02	0.0353	-1.270501	0.000134	1.338139	0.453374	0.000054
   3	1.9900e-01	0.0866	-1.192699	0.000194	1.936246	0.656018	0.000078
   4	2.9850e-01	0.1203	-1.118155	0.000186	1.855147	0.628541	0.000075
   5	3.9800e-01	0.1444	-1.039946	0.000195	1.946383	0.659453	0.000079
   6	4.9750e-01	0.1909	-0.957255	0.000206	2.057895	0.697234	0.000083
   7	5.9700e-01	0.2454	-0.881082	0.000190	1.895696	0.642279	0.000077
   8	6.9650e-01	0.2679	-0.800428	0.000201	2.007208	0.680060	0.000081
   9	7.9600e-01	0.3064	-0.720996	0.000198	1.976796	0.669757	0.000080
  10	8.9550e-01	0.3433	-0.641565	0.000198	1.976796	0.669757	0.000080
  11	9.9500e-01	0.4139	-0.560911	0.000201	2.007208	0.680060	0.000081
  12	1.0945e+00	0.4540	-0.481072	0.000199	1.986933	0.673191	0.000080
  13	1.1940e+00	0.4620	-0.400825	0.000200	1.997071	0.676626	0.000081
  14	1.2935e+00	0.5230	-0.321801	0.000197	1.966658	0.666322	0.000079
  15	1.3930e+00	0.5503	-0.244406	0.000193	1.926109	0.652583	0.000078
  16	1.4925e+00	0.5920	-0.160493	0.000209	2.088307	0.707538	0.000084
  17	1.5920e+00	0.6353	-0.077802	0.000206	2.057895	0.697234	0.000083
  18	1.6915e+00	0.6609	0.004481	0.000205	2.047758	0.693799	0.000083
  19	1.7910e+00	0.7139	0.078210	0.000183	1.834872	0.621671	0.000074
  20	1.8905e+00	0.7797	0.158864	0.000201	2.007208	0.680060	0.000081
  21	1.9900e+00	0.7989	0.241147	0.000205	2.047758	0.693799	0.000083
  22	2.0895e+00	0.8390	0.325874	0.000211	2.108582	0.714407	0.000085
  23	2.1890e+00	0.8775	0.406121	0.000200	1.997071	0.676626	0.000081
  24	2.2885e+00	0.9208	0.486367	0.000200	1.997071	0.676626	0.000081
  25	2.3880e+00	0.9802	0.565391	0.000197	1.966658	0.666322	0.000079
  26	2.4875e+00	0.9802	0.648082	-0.000206	-2.057895	-0.697234	0.000083
  27	2.5870e+00	1.0492	0.727921	0.000199	1.986933	0.673191	0.000080
  28	2.6865e+00	1.0716	0.811426	0.000208	2.078170	0.704103	0.000084
  29	2.7860e+00	1.1101	0.890858	0.000198	1.976796	0.669757	0.000080
  30	2.8855e+00	1.1470	0.970290	0.000198	1.976796	0.669757	0.000080
  31	2.9850e+00	1.1887	1.057054	0.000216	2.159269	0.731580	0.000087
  32	3.0845e+00	1.2256	1.140559	0.000208	2.078170	0.704103	0.000084
  33	3.1840e+00	1.2754	1.219176	0.000196	1.956521	0.662887	0.000079
  34	3.2835e+00	1.3203	1.294942	0.000189	1.885559	0.638845	0.000076
  35	3.3830e+00	1.3668	1.380891	0.000214	2.138994	0.724711	0.000086
  36	3.4825e+00	1.4037	1.458286	0.000193	1.926109	0.652583	0.000078
  37	3.5820e+00	1.4310	1.538125	0.000199	1.986933	0.673191	0.000080
  38	3.6815e+00	1.4855	1.617557	0.000198	1.976796	0.669757	0.000080
  39	3.7810e+00	1.5256	1.704321	0.000216	2.159269	0.731580	0.000087
  40	3.8805e+00	1.5545	1.784568	0.000200	1.997071	0.676626	0.000081
  41	3.9800e+00	1.5946	1.863592	0.000197	1.966658	0.666322	0.000079
  42	4.0795e+00	1.6155	1.943839	0.000200	1.997071	0.676626	0.000081
  43	4.1790e+00	1.6620	2.029381	0.000213	2.128857	0.721276	0.000086
  44	4.2785e+00	1.7005	2.105554	0.000190	1.895696	0.642279	0.000077
  45	4.3780e+00	1.7502	2.193540	0.000219	2.189681	0.741884	0.000088
  46	4.4775e+00	1.7871	2.273786	0.000200	1.997071	0.676626	0.000081
  47	4.5770e+00	1.8304	2.360143	0.000215	2.149132	0.728146	0.000087
  48	4.6765e+00	1.8689	2.439575	0.000198	1.976796	0.669757	0.000080
  49	4.7760e+00	1.9315	2.519006	0.000198	1.976796	0.669757	0.000080
  50	4.8755e+00	1.9235	2.597216	-0.000195	-1.946383	-0.659453	0.000079
  51	4.9750e+00	1.9892	2.682758	0.000213	2.128857	0.721276	0.000086
  52	5.0745e+00	2.0486	2.765449	0.000206	2.057895	0.697234	0.000083
  53	5.1740e+00	2.0871	2.844066	0.000196	1.956521	0.662887	0.000079
  54	5.2735e+00	2.1128	2.922683	0.000196	1.956521	0.662887	0.000079
  55	5.3730e+00	2.1224	3.006595	0.000209	2.088307	0.707538	0.000084
  56	5.4725e+00	2.2138	3.084398	0.000194	1.936246	0.656018	0.000078
  57	5.5720e+00	2.2154	3.167496	0.000207	2.068032	0.700668	0.000084
  58	5.6715e+00	2.2812	3.253852	0.000215	2.149132	0.728146	0.000087
  59	5.7710e+00	2.3261	3.329618	0.000189	1.885559	0.638845	0.000076
  60	5.8705e+00	2.3486	3.413531	0.000209	2.088307	0.707538	0.000084
  61	5.9700e+00	2.3951	3.490518	0.000192	1.915971	0.649149	0.000077
  62	6.0695e+00	2.4288	3.573616	0.000207	2.068032	0.700668	0.000084
  63	6.1690e+00	2.4641	3.653048	0.000198	1.976796	0.669757	0.000080
  64	6.2685e+00	2.5411	3.733702	0.000201	2.007208	0.680060	0.000081
  65	6.3680e+00	2.5427	3.815578	0.000204	2.037620	0.690364	0.000082
  66	6.4675e+00	2.5876	3.892973	0.000193	1.926109	0.652583	0.000078
  67	6.5670e+00	2.6566	3.968331	0.000188	1.875422	0.635410	0.000076
  68	6.6665e+00	2.6550	4.048985	-0.000201	-2.007208	-0.680060	0.000081
  69	6.7660e+00	2.7063	4.130046	0.000202	2.017345	0.683495	0.000081
  70	6.8655e+00	2.7577	4.209071	0.000197	1.966658	0.666322	0.000079
  71	6.9650e+00	2.7930	4.287688	0.000196	1.956521	0.662887	0.000079
  72	7.0645e+00	2.8443	4.367119	0.000198	1.976796	0.669757	0.000080
  73	7.1640e+00	2.8620	4.440441	0.000182	1.824735	0.618237	0.000074
  74	7.2635e+00	2.8988	4.523946	0.000208	2.078170	0.704103	0.000084
  75	7.3630e+00	2.9614	4.604193	0.000200	1.997071	0.676626	0.000081
  76	7.4625e+00	3.0144	4.676700	0.000180	1.804460	0.611367	0.000073
  77	7.5620e+00	3.0352	4.754502	0.000194	1.936246	0.656018	0.000078
  78	7.6615e+00	3.0641	4.835971	0.000203	2.027483	0.686930	0.000082
  79	7.7610e+00	3.1106	4.913773	0.000194	1.936246	0.656018	0.000078
  80	7.8605e+00	3.1459	4.981799	0.000169	1.692948	0.573586	0.000068
  81	7.9600e+00	3.1860	5.061231	0.000198	1.976796	0.669757	0.000080
  82	8.0595e+00	3.2373	5.138626	0.000193	1.926109	0.652583	0.000078
  83	8.1590e+00	3.2694	5.218465	0.000199	1.986933	0.673191	0.000080
  84	8.2585e+00	3.3095	5.285677	0.000167	1.672673	0.566717	0.000068
  85	8.3580e+00	3.3368	5.360628	0.000187	1.865284	0.631975	0.000075
  86	8.4575e+00	3.3865	5.437208	0.000191	1.905834	0.645714	0.000077
  87	8.5570e+00	3.4395	5.510123	0.000181	1.814597	0.614802	0.000073
  88	8.6565e+00	3.4700	5.586703	0.000191	1.905834	0.645714	0.000077
  89	8.7560e+00	3.5052	5.661247	0.000186	1.855147	0.628541	0.000075
  90	8.8555e+00	3.5550	5.731717	0.000175	1.753773	0.594194	0.000071
  91	8.9550e+00	3.5806	5.810741	0.000197	1.966658	0.666322	0.000079
  92	9.0545e+00	3.6191	5.880397	0.000173	1.733498	0.587325	0.000070
  93	9.1540e+00	3.6544	5.956570	0.000190	1.895696	0.642279	0.000077
  94	9.2535e+00	3.7154	6.023374	0.000166	1.662536	0.563282	0.000067
  95	9.3530e+00	3.7443	6.101991	0.000196	1.956521	0.662887	0.000079
  96	9.4525e+00	3.8004	6.171647	0.000173	1.733498	0.587325	0.000070
  97	9.5520e+00	3.8020	6.244154	0.000180	1.804460	0.611367	0.000073
  98	9.6515e+00	3.8822	6.310551	0.000165	1.652398	0.559848	0.000067
  99	9.7510e+00	3.9127	6.389983	0.000198	1.976796	0.669757	0.000080
 100	9.8505e+00	3.9320	6.459638	0.000173	1.733498	0.587325	0.000070
 101	9.9500e+00	3.9929	6.532960	0.000182	1.824735	0.618237	0.000074
 102	1.0050e+01	4.0090	6.600579	0.000168	1.682811	0.570152	0.000068
 103	1.0149e+01	4.0603	6.673900	0.000182	1.824735	0.618237	0.000074
 104	1.0248e+01	4.0844	6.746407	0.000180	1.804460	0.611367	0.000073
 105	1.0348e+01	4.1437	6.817692	0.000177	1.774047	0.601064	0.000072
 106	1.0447e+01	4.1774	6.892643	0.000187	1.865284	0.631975	0.000075
 107	1.0547e+01	4.2239	6.961484	0.000171	1.713223	0.580456	0.000069
 108	1.0646e+01	4.2657	7.033176	0.000178	1.784185	0.604498	0.000072
 109	1.0746e+01	4.3058	7.105276	0.000179	1.794322	0.607933	0.000072
 110	1.0845e+01	4.3266	7.180227	0.000187	1.865284	0.631975	0.000075
 111	1.0945e+01	4.3876	7.247031	0.000166	1.662536	0.563282	0.000067
 112	1.1044e+01	4.4181	7.318316	0.000177	1.774047	0.601064	0.000072
 113	1.1144e+01	4.4646	7.387157	0.000171	1.713223	0.580456	0.000069
 114	1.1243e+01	4.4870	7.458035	0.000176	1.763910	0.597629	0.000071
 115	1.1343e+01	4.5464	7.528505	0.000175	1.753773	0.594194	0.000071
 116	1.1443e+01	4.5801	7.594902	0.000165	1.652398	0.559848	0.000067
 117	1.1542e+01	4.6090	7.664965	0.000174	1.743635	0.590760	0.000070
 118	1.1642e+01	4.6908	7.735028	0.000174	1.743635	0.590760	0.000070
 119	1.1741e+01	4.6908	7.803869	-0.000171	-1.713223	-0.580456	0.000069
 120	1.1841e+01	4.7341	7.877598	0.000183	1.834872	0.621671	0.000074
 121	1.1940e+01	4.7934	7.940736	0.000157	1.571299	0.532371	0.000063
 122	1.2040e+01	4.8143	8.015687	0.000187	1.865284	0.631975	0.000075
 123	1.2139e+01	4.8576	8.079640	0.000159	1.591574	0.539240	0.000064
 124	1.2239e+01	4.8913	8.150517	0.000176	1.763910	0.597629	0.000071
 125	1.2338e+01	4.9491	8.216099	0.000163	1.632124	0.552978	0.000066
 126	1.2438e+01	4.9827	8.288606	0.000180	1.804460	0.611367	0.000073
 127	1.2537e+01	5.0196	8.350930	0.000155	1.551024	0.525501	0.000063
 128	1.2636e+01	5.0710	8.422215	0.000177	1.774047	0.601064	0.000072
 129	1.2736e+01	5.0934	8.486167	0.000159	1.591574	0.539240	0.000064
 130	1.2835e+01	5.1223	8.555008	0.000171	1.713223	0.580456	0.000069
 131	1.2935e+01	5.1688	8.616517	0.000153	1.530750	0.518632	0.000062
 132	1.3034e+01	5.2122	8.685765	0.000172	1.723360	0.583890	0.000070
 133	1.3134e+01	5.2635	8.753791	0.000169	1.692948	0.573586	0.000068
 134	1.3233e+01	5.2859	8.816522	0.000156	1.561162	0.528936	0.000063
 135	1.3333e+01	5.3437	8.885363	0.000171	1.713223	0.580456	0.000069
 136	1.3432e+01	5.3694	8.955019	0.000173	1.733498	0.587325	0.000070
 137	1.3532e+01	5.4063	9.020601	0.000163	1.632124	0.552978	0.000066
 138	1.3632e+01	5.4656	9.082517	0.000154	1.540887	0.522067	0.000062
 139	1.3731e+01	5.5041	9.152172	0.000173	1.733498	0.587325	0.000070
 140	1.3831e+01	5.5522	9.215718	0.000158	1.581437	0.535805	0.000064
 141	1.3930e+01	5.5988	9.283337	0.000168	1.682811	0.570152	0.000068
 142	1.4030e+01	5.6325	9.345253	0.000154	1.540887	0.522067	0.000062
 143	1.4129e+01	5.6501	9.410835	0.000163	1.632124	0.552978	0.000066
 144	1.4229e+01	5.6790	9.475195	0.000160	1.601711	0.542675	0.000065
 145	1.4328e+01	5.7496	9.538741	0.000158	1.581437	0.535805	0.000064
 146	1.4428e+01	5.7752	9.602693	0.000159	1.591574	0.539240	0.000064
 147	1.4527e+01	5.8105	9.669090	0.000165	1.652398	0.559848	0.000067
 148	1.4627e+01	5.8603	9.731821	0.000156	1.561162	0.528936	0.000063
 149	1.4726e+01	5.9052	9.798218	0.000165	1.652398	0.559848	0.000067
 150	1.4825e+01	5.9485	9.864615	0.000165	1.652398	0.559848	0.000067
 151	1.4925e+01	5.9597	9.926938	0.000155	1.551024	0.525501	0.000063
 152	1.5024e+01	6.0271	9.994557	0.000168	1.682811	0.570152	0.000068
 153	1.5124e+01	6.0592	10.063805	0.000172	1.723360	0.583890	0.000070
 154	1.5223e+01	6.0961	10.127758	0.000159	1.591574	0.539240	0.000064
 155	1.5323e+01	6.1410	10.196599	0.000171	1.713223	0.580456	0.000069
 156	1.5422e+01	6.1619	10.252812	0.000140	1.398963	0.473982	0.000056
 157	1.5522e+01	6.2052	10.317172	0.000160	1.601711	0.542675	0.000065
 158	1.5621e+01	6.2501	10.386420	0.000172	1.723360	0.583890	0.000070
 159	1.5721e+01	6.3078	10.451595	0.000162	1.621986	0.549544	0.000066
 160	1.5820e+01	6.3447	10.517177	0.000163	1.632124	0.552978	0.000066
 161	1.5920e+01	6.3848	10.582352	0.000162	1.621986	0.549544	0.000066
 162	1.6020e+01	6.4009	10.644268	0.000154	1.540887	0.522067	0.000062
 163	1.6119e+01	6.4394	10.709850	0.000163	1.632124	0.552978	0.000066
 164	1.6218e+01	6.5389	10.772988	0.000157	1.571299	0.532371	0.000063
 165	1.6318e+01	6.5196	10.839793	-0.000166	-1.662536	-0.563282	0.000067
 166	1.6418e+01	6.5854	10.904560	0.000161	1.611849	0.546109	0.000065
 167	1.6517e+01	6.6351	10.970957	0.000165	1.652398	0.559848	0.000067
 168	1.6616e+01	6.6592	11.035724	0.000161	1.611849	0.546109	0.000065
 169	1.6716e+01	6.6929	11.103343	0.000168	1.682811	0.570152	0.000068
 170	1.6816e+01	6.7265	11.170555	0.000167	1.672673	0.566717	0.000068
 171	1.6915e+01	6.7747	11.237359	0.000166	1.662536	0.563282	0.000067
 172	1.7015e+01	6.8196	11.305385	0.000169	1.692948	0.573586	0.000068
 173	1.7114e+01	6.8453	11.367301	0.000154	1.540887	0.522067	0.000062
 174	1.7213e+01	6.9110	11.429217	0.000154	1.540887	0.522067	0.000062
 175	1.7313e+01	6.9271	11.500502	0.000177	1.774047	0.601064	0.000072
 176	1.7413e+01	6.9640	11.565270	0.000161	1.611849	0.546109	0.000065
 177	1.7512e+01	7.0121	11.629630	0.000160	1.601711	0.542675	0.000065
 178	1.7611e+01	7.0458	11.697249	0.000168	1.682811	0.570152	0.000068
 179	1.7711e+01	7.0827	11.764053	0.000166	1.662536	0.563282	0.000067
 180	1.7811e+01	7.1212	11.827598	0.000158	1.581437	0.535805	0.000064
 181	1.7910e+01	7.1918	11.896847	0.000172	1.723360	0.583890	0.000070
 182	1.8009e+01	7.2126	11.956319	0.000148	1.480062	0.501459	0.000060
 183	1.8109e+01	7.2479	12.029233	0.000181	1.814597	0.614802	0.000073
 184	1.8209e+01	7.2977	12.093593	0.000160	1.601711	0.542675	0.000065
 185	1.8308e+01	7.3249	12.161212	0.000168	1.682811	0.570152	0.000068
 186	1.8407e+01	7.3714	12.224350	0.000157	1.571299	0.532371	0.000063
 187	1.8507e+01	7.4228	12.289525	0.000162	1.621986	0.549544	0.000066
 188	1.8607e+01	7.4485	12.355922	0.000165	1.652398	0.559848	0.000067
 189	1.8706e+01	7.4870	12.425170	0.000172	1.723360	0.583890	0.000070
 190	1.8805e+01	7.5399	12.488715	0.000158	1.581437	0.535805	0.000064
 191	1.8905e+01	7.5656	12.553483	0.000161	1.611849	0.546109	0.000065
 192	1.9005e+01	7.6169	12.617028	0.000158	1.581437	0.535805	0.000064
 193	1.9104e+01	7.6506	12.682610	0.000163	1.632124	0.552978	0.000066
 194	1.9203e+01	7.6875	12.746156	0.000158	1.581437	0.535805	0.000064
 195	1.9303e+01	7.7244	12.811738	0.000163	1.632124	0.552978	0.000066
 196	1.9402e+01	7.7549	12.881394	0.000173	1.733498	0.587325	0.000070
 197	1.9502e+01	7.8030	12.945754	0.000160	1.601711	0.542675	0.000065
 198	1.9602e+01	7.8431	13.009706	0.000159	1.591574	0.539240	0.000064
 199	1.9701e+01	7.8848	13.078547	0.000171	1.713223	0.580456	0.000069
 200	1.9800e+01	7.9297	13.142093	0.000158	1.581437	0.535805	0.000064
 201	1.9900e+01	7.9746	13.208082	0.000164	1.642261	0.556413	0.000066
 202	2.0000e+01	8.0147	13.267554	0.000148	1.480062	0.501459	0.000060
 203	2.0099e+01	8.0404	13.337210	0.000173	1.733498	0.587325	0.000070
 204	2.0198e+01	8.0950	13.397904	0.000151	1.510475	0.511763	0.000061
 205	2.0298e+01	8.1190	13.461042	0.000157	1.571299	0.532371	0.000063
 206	2.0398e+01	8.1736	13.527846	0.000166	1.662536	0.563282	0.000067
 207	2.0497e+01	8.2024	13.590984	0.000157	1.571299	0.532371	0.000063
 208	2.0596e+01	8.2345	13.657381	0.000165	1.652398	0.559848	0.000067
 209	2.0696e+01	8.2875	13.721741	0.000160	1.601711	0.542675	0.000065
 210	2.0796e+01	8.3244	13.787731	0.000164	1.642261	0.556413	0.000066
 211	2.0895e+01	8.3484	13.853720	0.000164	1.642261	0.556413	0.000066
 212	2.0994e+01	8.4222	13.927042	0.000182	1.824735	0.618237	0.000074
 213	2.1094e+01	8.4575	13.985292	0.000145	1.449650	0.491155	0.000059
 214	2.1194e+01	8.4720	14.053725	0.000170	1.703086	0.577021	0.000069
 215	2.1293e+01	8.5105	14.122974	0.000172	1.723360	0.583890	0.000070
 216	2.1392e+01	8.5602	14.184890	0.000154	1.540887	0.522067	0.000062
 217	2.1492e+01	8.6179	14.248435	0.000158	1.581437	0.535805	0.000064
 218	2.1591e+01	8.6596	14.317276	0.000171	1.713223	0.580456	0.000069
 219	2.1691e+01	8.6869	14.377563	0.000150	1.500337	0.508328	0.000061
 220	2.1791e+01	8.7190	14.443145	0.000163	1.632124	0.552978	0.000066
 221	2.1890e+01	8.7575	14.508727	0.000163	1.632124	0.552978	0.000066
 222	2.1989e+01	8.8361	14.574716	0.000164	1.642261	0.556413	0.000066
 223	2.2089e+01	8.8409	14.636225	0.000153	1.530750	0.518632	0.000062
 224	2.2189e+01	8.8826	14.704251	0.000169	1.692948	0.573586	0.000068
 225	2.2288e+01	8.9324	14.771056	0.000166	1.662536	0.563282	0.000067
 226	2.2387e+01	8.9805	14.834194	0.000157	1.571299	0.532371	0.000063
 227	2.2487e+01	9.0190	14.898554	0.000160	1.601711	0.542675	0.000065
 228	2.2587e+01	9.0543	14.967395	0.000171	1.713223	0.580456	0.000069
 229	2.2686e+01	9.0767	15.030940	0.000158	1.581437	0.535805	0.000064
 230	2.2785e+01	9.1008	15.094893	0.000159	1.591574	0.539240	0.000064
 231	2.2885e+01	9.1602	15.159253	0.000160	1.601711	0.542675	0.000065
 232	2.2985e+01	9.2067	15.223613	0.000160	1.601711	0.542675	0.000065
 233	2.3084e+01	9.2324	15.288381	0.000161	1.611849	0.546109	0.000065
 234	2.3183e+01	9.2933	15.354777	0.000165	1.652398	0.559848	0.000067
 235	2.3283e+01	9.3206	15.418323	0.000158	1.581437	0.535805	0.000064
 236	2.3383e+01	9.3607	15.476980	0.000146	1.459788	0.494589	0.000059
 237	2.3482e+01	9.4152	15.542970	0.000164	1.642261	0.556413	0.000066
 238	2.3581e+01	9.4682	15.604478	0.000153	1.530750	0.518632	0.000062
 239	2.3681e+01	9.4730	15.668024	0.000158	1.581437	0.535805	0.000064
 240	2.3780e+01	9.5163	15.731977	0.000159	1.591574	0.539240	0.000064
 241	2.3880e+01	9.5564	15.795522	0.000158	1.581437	0.535805	0.000064
 242	2.3980e+01	9.5901	15.857438	0.000154	1.540887	0.522067	0.000062
 243	2.4079e+01	9.6543	15.927501	0.000174	1.743635	0.590760	0.000070
 244	2.4178e+01	9.6719	15.984936	0.000143	1.429375	0.484285	0.000058
 245	2.4278e+01	9.6992	16.045223	0.000150	1.500337	0.508328	0.000061
 246	2.4378e+01	9.7553	16.107954	0.000156	1.561162	0.528936	0.000063
 247	2.4477e+01	9.8372	16.172721	0.000161	1.611849	0.546109	0.000065
 248	2.4576e+01	9.8323	16.230971	-0.000145	-1.449650	-0.491155	0.000059
 249	2.4676e+01	9.9013	16.288814	0.000144	1.439513	0.487720	0.000058
 250	2.4776e+01	9.9446	16.348286	0.000148	1.480062	0.501459	0.000060
 251	2.4875e+01	9.9671	16.416720	0.000170	1.703086	0.577021	0.000069
 252	2.4974e+01	9.9992	16.472525	0.000139	1.388826	0.470547	0.000056
 253	2.5074e+01	10.0473	16.531183	0.000146	1.459788	0.494589	0.000059
 254	2.5174e+01	10.0601	16.591877	0.000151	1.510475	0.511763	0.000061
 255	2.5273e+01	10.1147	16.652571	0.000151	1.510475	0.511763	0.000061
 256	2.5372e+01	10.1516	16.707969	0.000138	1.378688	0.467112	0.000056
 257	2.5472e+01	10.2061	16.774774	0.000166	1.662536	0.563282	0.000067
 258	2.5572e+01	10.2334	16.826913	0.000130	1.297589	0.439635	0.000052
 259	2.5671e+01	10.2847	16.890866	0.000159	1.591574	0.539240	0.000064
 260	2.5770e+01	10.3377	16.946672	0.000139	1.388826	0.470547	0.000056
 261	2.5870e+01	10.3601	17.004107	0.000143	1.429375	0.484285	0.000058
 262	2.5970e+01	10.3970	17.066838	0.000156	1.561162	0.528936	0.000063
 263	2.6069e+01	10.4227	17.121829	0.000137	1.368551	0.463678	0.000055
 264	2.6169e+01	10.4772	17.182524	0.000151	1.510475	0.511763	0.000061
 265	2.6268e+01	10.5270	17.239959	0.000143	1.429375	0.484285	0.000058
 266	2.6367e+01	10.5575	17.299838	0.000149	1.490200	0.504893	0.000060
 267	2.6467e+01	10.5863	17.355644	0.000139	1.388826	0.470547	0.000056
 268	2.6567e+01	10.6313	17.415931	0.000150	1.500337	0.508328	0.000061
 269	2.6666e+01	10.6746	17.472551	0.000141	1.409101	0.477416	0.000057
 270	2.6765e+01	10.7115	17.531209	0.000146	1.459788	0.494589	0.000059
 271	2.6865e+01	10.7532	17.587829	0.000141	1.409101	0.477416	0.000057
 272	2.6965e+01	10.7965	17.645265	0.000143	1.429375	0.484285	0.000058
 273	2.7064e+01	10.8494	17.705551	0.000150	1.500337	0.508328	0.000061
 274	2.7163e+01	10.8751	17.762987	0.000143	1.429375	0.484285	0.000058
 275	2.7263e+01	10.9168	17.816756	0.000134	1.338139	0.453374	0.000054
 276	2.7363e+01	10.9713	17.878672	0.000154	1.540887	0.522067	0.000062
 277	2.7462e+01	10.9858	17.934478	0.000139	1.388826	0.470547	0.000056
 278	2.7561e+01	11.0451	17.991913	0.000143	1.429375	0.484285	0.000058
 279	2.7661e+01	11.0820	18.047719	0.000139	1.388826	0.470547	0.000056
 280	2.7761e+01	11.1221	18.104747	0.000142	1.419238	0.480851	0.000057
 281	2.7860e+01	11.1526	18.158924	0.000135	1.348276	0.456808	0.000054
 282	2.7959e+01	11.1879	18.217581	0.000146	1.459788	0.494589	0.000059
 283	2.8059e+01	11.2328	18.272572	0.000137	1.368551	0.463678	0.000055
 284	2.8159e+01	11.2810	18.330007	0.000143	1.429375	0.484285	0.000058
 285	2.8258e+01	11.3018	18.389887	0.000149	1.490200	0.504893	0.000060
 286	2.8358e+01	11.3259	18.448137	0.000145	1.449650	0.491155	0.000059
 287	2.8457e+01	11.3917	18.507609	0.000148	1.480062	0.501459	0.000060
 288	2.8556e+01	11.4462	18.558119	0.000126	1.257039	0.425896	0.000051
 289	2.8656e+01	11.4751	18.618406	0.000150	1.500337	0.508328	0.000061
 290	2.8756e+01	11.5264	18.670139	0.000129	1.287452	0.436200	0.000052
 291	2.8855e+01	11.5697	18.728796	0.000146	1.459788	0.494589	0.000059
 292	2.8954e+01	11.5938	18.783787	0.000137	1.368551	0.463678	0.000055
 293	2.9054e+01	11.6259	18.840000	0.000140	1.398963	0.473982	0.000056
 294	2.9154e+01	11.6692	18.893362	0.000133	1.328001	0.449939	0.000054
 295	2.9253e+01	11.7109	18.947539	0.000135	1.348276	0.456808	0.000054
 296	2.9352e+01	11.7558	18.997642	0.000125	1.246902	0.422462	0.000050
 297	2.9452e+01	11.7975	19.052226	0.000136	1.358413	0.460243	0.000055
 298	2.9552e+01	11.8521	19.105180	0.000132	1.317864	0.446504	0.000053
 299	2.9651e+01	11.8681	19.160172	0.000137	1.368551	0.463678	0.000055
 300	2.9750e+01	11.9355	19.214755	0.000136	1.358413	0.460243	0.000055
 301	2.9850e+01	11.9387	19.274228	0.000148	1.480062	0.501459	0.000060
 302	2.9950e+01	11.9965	19.322701	0.000121	1.206352	0.408723	0.000049
 303	3.0049e+01	12.0334	19.379729	0.000142	1.419238	0.480851	0.000057
 304	3.0148e+01	12.0558	19.431869	0.000130	1.297589	0.439635	0.000052
 305	3.0248e+01	12.1152	19.490934	0.000147	1.469925	0.498024	0.000059
 306	3.0348e+01	12.1537	19.543888	0.000132	1.317864	0.446504	0.000053
 307	3.0447e+01	12.1922	19.594399	0.000126	1.257039	0.425896	0.000051
 308	3.0547e+01	12.2018	19.648983	0.000136	1.358413	0.460243	0.000055
 309	3.0646e+01	12.2820	19.701937	0.000132	1.317864	0.446504	0.000053
 310	3.0745e+01	12.2980	19.754892	0.000132	1.317864	0.446504	0.000053
 311	3.0845e+01	12.3478	19.810698	0.000139	1.388826	0.470547	0.000056
 312	3.0945e+01	12.3911	19.863245	0.000131	1.307726	0.443070	0.000053
 313	3.1044e+01	12.4264	19.914977	0.000129	1.287452	0.436200	0.000052
 314	3.1143e+01	12.5002	19.966710	0.000129	1.287452	0.436200	0.000052
 315	3.1243e+01	12.5114	20.016813	0.000125	1.246902	0.422462	0.000050
 316	3.1343e+01	12.5740	20.078322	0.000153	1.530750	0.518632	0.000062
 317	3.1442e+01	12.5900	20.124351	0.000115	1.145528	0.388115	0.000046
 318	3.1541e+01	12.6317	20.177713	0.000133	1.328001	0.449939	0.000054
 319	3.1641e+01	12.6799	20.232705	0.000137	1.368551	0.463678	0.000055
 320	3.1741e+01	12.7039	20.290955	0.000145	1.449650	0.491155	0.000059
 321	3.1840e+01	12.7232	20.344724	0.000134	1.338139	0.453374	0.000054
 322	3.1939e+01	12.7889	20.395234	0.000126	1.257039	0.425896	0.000051
 323	3.2039e+01	12.8050	20.450633	0.000138	1.378688	0.467112	0.000056
 324	3.2139e+01	12.8772	20.505217	0.000136	1.358413	0.460243	0.000055
 325	3.2238e+01	12.9012	20.556542	0.000128	1.277314	0.432766	0.000052
 326	3.2337e+01	12.9253	20.608682	0.000130	1.297589	0.439635	0.000052
 327	3.2437e+01	12.9895	20.660414	0.000129	1.287452	0.436200	0.000052
 328	3.2536e+01	13.0087	20.715813	0.000138	1.378688	0.467112	0.000056
 329	3.2636e+01	13.0729	20.765916	0.000125	1.246902	0.422462	0.000050
 330	3.2736e+01	13.0921	20.821315	0.000138	1.378688	0.467112	0.000056
 331	3.2835e+01	13.1371	20.880379	0.000147	1.469925	0.498024	0.000059
 332	3.2934e+01	13.1980	20.930075	0.000124	1.236765	0.419027	0.000050
 333	3.3034e+01	13.2173	20.986696	0.000141	1.409101	0.477416	0.000057
 334	3.3133e+01	13.2798	21.044131	0.000143	1.429375	0.484285	0.000058
 335	3.3233e+01	13.3055	21.100752	0.000141	1.409101	0.477416	0.000057
 336	3.3333e+01	13.3248	21.155335	0.000136	1.358413	0.460243	0.000055
 337	3.3432e+01	13.3825	21.212363	0.000142	1.419238	0.480851	0.000057
 338	3.3532e+01	13.4194	21.264503	0.000130	1.297589	0.439635	0.000052
 339	3.3631e+01	13.4756	21.318272	0.000134	1.338139	0.453374	0.000054
 340	3.3730e+01	13.5076	21.371634	0.000133	1.328001	0.449939	0.000054
 341	3.3830e+01	13.5510	21.429477	0.000144	1.439513	0.487720	0.000058
 342	3.3929e+01	13.5814	21.485283	0.000139	1.388826	0.470547	0.000056
 343	3.4029e+01	13.6360	21.543533	0.000145	1.449650	0.491155	0.000059
 344	3.4129e+01	13.6536	21.594858	0.000128	1.277314	0.432766	0.000052
 345	3.4228e+01	13.6969	21.652701	0.000144	1.439513	0.487720	0.000058
 346	3.4328e+01	13.7515	21.706063	0.000133	1.328001	0.449939	0.000054
 347	3.4427e+01	13.7916	21.763090	0.000142	1.419238	0.480851	0.000057
 348	3.4526e+01	13.8301	21.819304	0.000140	1.398963	0.473982	0.000056
 349	3.4626e+01	13.8574	21.873073	0.000134	1.338139	0.453374	0.000054
 350	3.4725e+01	13.8782	21.931730	0.000146	1.459788	0.494589	0.000059
 351	3.4825e+01	13.9392	21.991610	0.000149	1.490200	0.504893	0.000060
 352	3.4925e+01	13.9873	22.043750	0.000130	1.297589	0.439635	0.000052
 353	3.5024e+01	14.0130	22.097926	0.000135	1.348276	0.456808	0.000054
 354	3.5123e+01	14.0787	22.151695	0.000134	1.338139	0.453374	0.000054
 355	3.5223e+01	14.1108	22.210760	0.000147	1.469925	0.498024	0.000059
 356	3.5322e+01	14.1333	22.267788	0.000142	1.419238	0.480851	0.000057
 357	3.5422e+01	14.1718	22.321557	0.000134	1.338139	0.453374	0.000054
 358	3.5522e+01	14.2344	22.374512	0.000132	1.317864	0.446504	0.000053
 359	3.5621e+01	14.2392	22.428281	0.000134	1.338139	0.453374	0.000054
 360	3.5721e+01	14.3146	22.486938	0.000146	1.459788	0.494589	0.000059
 361	3.5820e+01	14.3755	22.544781	0.000144	1.439513	0.487720	0.000058
 362	3.5919e+01	14.3643	22.598550	-0.000134	-1.338139	-0.453374	0.000054
 363	3.6019e+01	14.4349	22.651097	0.000131	1.307726	0.443070	0.000053
 364	3.6118e+01	14.4525	22.708125	0.000142	1.419238	0.480851	0.000057
 365	3.6218e+01	14.4991	22.764338	0.000140	1.398963	0.473982	0.000056
 366	3.6318e+01	14.5488	22.824625	0.000150	1.500337	0.508328	0.000061
 367	3.6417e+01	14.5985	22.872692	0.000120	1.196215	0.405289	0.000048
 368	3.6517e+01	14.6033	22.935015	0.000155	1.551024	0.525501	0.000063
 369	3.6616e+01	14.6563	22.984711	0.000124	1.236765	0.419027	0.000050
 370	3.6715e+01	14.6900	23.040517	0.000139	1.388826	0.470547	0.000056
 371	3.6815e+01	14.7557	23.095508	0.000137	1.368551	0.463678	0.000055
 372	3.6914e+01	14.7798	23.151721	0.000140	1.398963	0.473982	0.000056
 373	3.7014e+01	14.8295	23.208749	0.000142	1.419238	0.480851	0.000057
 374	3.7114e+01	14.8648	23.263740	0.000137	1.368551	0.463678	0.000055
 375	3.7213e+01	14.9033	23.317917	0.000135	1.348276	0.456808	0.000054
 376	3.7313e+01	14.9274	23.374538	0.000141	1.409101	0.477416	0.000057
 377	3.7412e+01	14.9771	23.425863	0.000128	1.277314	0.432766	0.000052
 378	3.7511e+01	14.9900	23.488186	0.000155	1.551024	0.525501	0.000063
 379	3.7611e+01	15.0750	23.540733	0.000131	1.307726	0.443070	0.000053
 380	3.7711e+01	15.1167	23.596539	0.000139	1.388826	0.470547	0.000056
 381	3.7810e+01	15.1552	23.655604	0.000147	1.469925	0.498024	0.000059
 382	3.7910e+01	15.1744	23.715891	0.000150	1.500337	0.508328	0.000061
 383	3.8009e+01	15.2258	23.770067	0.000135	1.348276	0.456808	0.000054
 384	3.8108e+01	15.2579	23.821800	0.000129	1.287452	0.436200	0.000052
 385	3.8208e+01	15.2980	23.883308	0.000153	1.530750	0.518632	0.000062
 386	3.8307e+01	15.3557	23.935856	0.000131	1.307726	0.443070	0.000053
 387	3.8407e+01	15.3734	23.990847	0.000137	1.368551	0.463678	0.000055
 388	3.8507e+01	15.4183	24.044209	0.000133	1.328001	0.449939	0.000054
 389	3.8606e+01	15.4744	24.099607	0.000138	1.378688	0.467112	0.000056
 390	3.8706e+01	15.4841	24.158672	0.000147	1.469925	0.498024	0.000059
 391	3.8805e+01	15.5370	24.217329	0.000146	1.459788	0.494589	0.000059
 392	3.8904e+01	15.5675	24.273543	0.000140	1.398963	0.473982	0.000056
 393	3.9004e+01	15.6140	24.324053	0.000126	1.257039	0.425896	0.000051
 394	3.9103e+01	15.6541	24.380674	0.000141	1.409101	0.477416	0.000057
 395	3.9203e+01	15.7151	24.440146	0.000148	1.480062	0.501459	0.000060
 396	3.9303e+01	15.7391	24.493508	0.000133	1.328001	0.449939	0.000054
 397	3.9402e+01	15.7632	24.550128	0.000141	1.409101	0.477416	0.000057
 398	3.9502e+01	15.8306	24.607156	0.000142	1.419238	0.480851	0.000057
 399	3.9601e+01	15.8643	24.665406	0.000145	1.449650	0.491155	0.000059
 400	3.9700e+01	15.8883	24.721619	0.000140	1.398963	0.473982	0.000056
 401	3.9800e+01	15.9316	24.771723	0.000125	1.246902	0.422462	0.000050
 402	3.9900e+01	15.9669	24.825492	0.000134	1.338139	0.453374	0.000054
 403	3.9999e+01	16.0183	24.883742	0.000145	1.449650	0.491155	0.000059
 404	4.0099e+01	16.0664	24.935067	0.000128	1.277314	0.432766	0.000052
 405	4.0198e+01	16.1001	24.988021	0.000132	1.317864	0.446504	0.000053
 406	4.0297e+01	16.1241	25.044642	0.000141	1.409101	0.477416	0.000057
 407	4.0397e+01	16.1819	25.096782	0.000130	1.297589	0.439635	0.000052
 408	4.0496e+01	16.2076	25.155847	0.000147	1.469925	0.498024	0.000059
 409	4.0596e+01	16.2749	25.211653	0.000139	1.388826	0.470547	0.000056
 410	4.0696e+01	16.3118	25.262978	0.000128	1.277314	0.432766	0.000052
 411	4.0795e+01	16.3231	25.315525	0.000131	1.307726	0.443070	0.000053
 412	4.0895e+01	16.3808	25.370516	0.000137	1.368551	0.463678	0.000055
 413	4.0994e+01	16.4306	25.428359	0.000144	1.439513	0.487720	0.000058
 414	4.1093e+01	16.4466	25.479277	0.000127	1.267177	0.429331	0.000051
 415	4.1193e+01	16.4867	25.530602	0.000128	1.277314	0.432766	0.000052
 416	4.1292e+01	16.5541	25.583149	0.000131	1.307726	0.443070	0.000053
 417	4.1392e+01	16.5589	25.634474	0.000128	1.277314	0.432766	0.000052
 418	4.1492e+01	16.5958	25.688651	0.000135	1.348276	0.456808	0.000054
 419	4.1591e+01	16.6584	25.740791	0.000130	1.297589	0.439635	0.000052
 420	4.1691e+01	16.6856	25.789672	0.000122	1.216490	0.412158	0.000049
 421	4.1790e+01	16.7289	25.842626	0.000132	1.317864	0.446504	0.000053
 422	4.1889e+01	16.7771	25.895581	0.000132	1.317864	0.446504	0.000053
 423	4.1989e+01	16.8059	25.944869	0.000123	1.226627	0.415593	0.000050
 424	4.2089e+01	16.8541	25.990899	0.000115	1.145528	0.388115	0.000046
 425	4.2188e+01	16.9022	26.044668	0.000134	1.338139	0.453374	0.000054
 426	4.2288e+01	16.9327	26.101289	0.000141	1.409101	0.477416	0.000057
 427	4.2387e+01	16.9471	26.151392	0.000125	1.246902	0.422462	0.000050
 428	4.2486e+01	17.0225	26.200273	0.000122	1.216490	0.412158	0.000049
 429	4.2586e+01	17.0498	26.253227	0.000132	1.317864	0.446504	0.000053
 430	4.2685e+01	17.0931	26.300479	0.000118	1.175940	0.398419	0.000047
 431	4.2785e+01	17.1364	26.351397	0.000127	1.267177	0.429331	0.000051
 432	4.2885e+01	17.1813	26.399871	0.000121	1.206352	0.408723	0.000049
 433	4.2984e+01	17.2070	26.447937	0.000120	1.196215	0.405289	0.000048
 434	4.3084e+01	17.2471	26.501706	0.000134	1.338139	0.453374	0.000054
 435	4.3183e+01	17.3097	26.550588	0.000122	1.216490	0.412158	0.000049
 436	4.3282e+01	17.3562	26.601098	0.000126	1.257039	0.425896	0.000051
 437	4.3382e+01	17.3899	26.646313	0.000113	1.125253	0.381246	0.000045
 438	4.3481e+01	17.4043	26.699675	0.000133	1.328001	0.449939	0.000054
 439	4.3581e+01	17.4316	26.749778	0.000125	1.246902	0.422462	0.000050
 440	4.3681e+01	17.4733	26.800696	0.000127	1.267177	0.429331	0.000051
 441	4.3780e+01	17.5278	26.851206	0.000126	1.257039	0.425896	0.000051
 442	4.3880e+01	17.5712	26.898458	0.000118	1.175940	0.398419	0.000047
 443	4.3979e+01	17.6032	26.951005	0.000131	1.307726	0.443070	0.000053
 444	4.4078e+01	17.6498	26.999886	0.000122	1.216490	0.412158	0.000049
 445	4.4178e+01	17.7043	27.050804	0.000127	1.267177	0.429331	0.000051
 446	4.4278e+01	17.7364	27.093575	0.000106	1.064428	0.360638	0.000043
 447	4.4377e+01	17.7637	27.144493	0.000127	1.267177	0.429331	0.000051
 448	4.4477e+01	17.8150	27.195411	0.000127	1.267177	0.429331	0.000051
 449	4.4576e+01	17.8744	27.244699	0.000123	1.226627	0.415593	0.000050
 450	4.4675e+01	17.8936	27.288285	0.000108	1.084703	0.367507	0.000044
 451	4.4775e+01	17.9193	27.335944	0.000119	1.186077	0.401854	0.000048
 452	4.4874e+01	17.9834	27.385640	0.000124	1.236765	0.419027	0.000050
 453	4.4974e+01	17.9915	27.439816	0.000135	1.348276	0.456808	0.000054
 454	4.5074e+01	18.0348	27.489105	0.000123	1.226627	0.415593	0.000050
 455	4.5173e+01	18.0957	27.535949	0.000117	1.165803	0.394985	0.000047
 456	4.5273e+01	18.1278	27.580349	0.000110	1.104978	0.374377	0.000045
 457	4.5372e+01	18.1647	27.633711	0.000133	1.328001	0.449939	0.000054
 458	4.5471e+01	18.2241	27.680556	0.000117	1.165803	0.394985	0.000047
 459	4.5571e+01	18.2594	27.728215	0.000119	1.186077	0.401854	0.000048
 460	4.5670e+01	18.2915	27.774245	0.000115	1.145528	0.388115	0.000046
 461	4.5770e+01	18.3139	27.824755	0.000126	1.257039	0.425896	0.000051
 462	4.5870e+01	18.3653	27.869563	0.000112	1.115116	0.377811	0.000045
 463	4.5969e+01	18.4134	27.916407	0.000117	1.165803	0.394985	0.000047
 464	4.6069e+01	18.4663	27.963659	0.000118	1.175940	0.398419	0.000047
 465	4.6168e+01	18.4936	28.009281	0.000114	1.135390	0.384681	0.000046
 466	4.6267e+01	18.5353	28.055718	0.000116	1.155665	0.391550	0.000047
 467	4.6367e+01	18.5530	28.103377	0.000119	1.186077	0.401854	0.000048
 468	4.6467e+01	18.6155	28.150629	0.000118	1.175940	0.398419	0.000047
 469	4.6566e+01	18.6572	28.197881	0.000118	1.175940	0.398419	0.000047
 470	4.6666e+01	18.6829	28.246762	0.000122	1.216490	0.412158	0.000049
 471	4.6765e+01	18.7342	28.292792	0.000115	1.145528	0.388115	0.000046
 472	4.6864e+01	18.7615	28.340043	0.000118	1.175940	0.398419	0.000047
 473	4.6964e+01	18.8000	28.382000	0.000104	1.044154	0.353769	0.000042
 474	4.7063e+01	18.8594	28.427215	0.000113	1.125253	0.381246	0.000045
 475	4.7163e+01	18.8722	28.475688	0.000121	1.206352	0.408723	0.000049
 476	4.7263e+01	18.9332	28.522125	0.000116	1.155665	0.391550	0.000047
 477	4.7362e+01	18.9684	28.566118	0.000109	1.094841	0.370942	0.000044
 478	4.7462e+01	19.0198	28.612556	0.000116	1.155665	0.391550	0.000047
 479	4.7561e+01	19.0599	28.655734	0.000107	1.074566	0.364073	0.000043
 480	4.7660e+01	19.0904	28.702986	0.000118	1.175940	0.398419	0.000047
 481	4.7760e+01	19.1385	28.749423	0.000116	1.155665	0.391550	0.000047
 482	4.7859e+01	19.1577	28.797082	0.000119	1.186077	0.401854	0.000048
 483	4.7959e+01	19.2075	28.838631	0.000103	1.034016	0.350334	0.000042
 484	4.8059e+01	19.2492	28.886697	0.000120	1.196215	0.405289	0.000048
 485	4.8158e+01	19.2749	28.938022	0.000128	1.277314	0.432766	0.000052
 486	4.8258e+01	19.3278	28.978756	0.000101	1.013741	0.343465	0.000041
 487	4.8357e+01	19.3503	29.024379	0.000114	1.135390	0.384681	0.000046
 488	4.8456e+01	19.4064	29.073667	0.000123	1.226627	0.415593	0.000050
 489	4.8556e+01	19.4545	29.121326	0.000119	1.186077	0.401854	0.000048
 490	4.8656e+01	19.5011	29.162875	0.000103	1.034016	0.350334	0.000042
 491	4.8755e+01	19.5267	29.215015	0.000130	1.297589	0.439635	0.000052
 492	4.8855e+01	19.5668	29.261045	0.000115	1.145528	0.388115	0.000046
 493	4.8954e+01	19.5989	29.303816	0.000106	1.064428	0.360638	0.000043
 494	4.9053e+01	19.6422	29.349031	0.000113	1.125253	0.381246	0.000045
 495	4.9153e+01	19.6743	29.398319	0.000123	1.226627	0.415593	0.000050
 496	4.9252e+01	19.7385	29.445164	0.000117	1.165803	0.394985	0.000047
 497	4.9352e+01	19.7706	29.489971	0.000112	1.115116	0.377811	0.000045
 498	4.9452e+01	19.8251	29.540074	0.000125	1.246902	0.422462	0.000050
 499	4.9551e+01	19.8379	29.587326	0.000118	1.175940	0.398419	0.000047
 500	4.9651e+01	19.8813	29.637837	0.000126	1.257039	0.425896	0.000051
 501	4.9750e+01	19.9182	29.685088	0.000118	1.175940	0.398419	0.000047
 502	4.9849e+01	19.9647	29.726637	0.000103	1.034016	0.350334	0.000042
 503	4.9949e+01	19.9887	29.779999	0.000133	1.328001	0.449939	0.000054
 504	5.0048e+01	19.9679	29.743338	0.000091	0.912367	0.309118	-0.000037
 505	5.0148e+01	19.9133	29.710751	0.000081	0.810993	0.274772	-0.000033
 506	5.0248e+01	19.8684	29.667573	0.000107	1.074566	0.364073	-0.000043
 507	5.0347e+01	19.8444	29.628468	0.000097	0.973192	0.329726	-0.000039
 508	5.0447e+01	19.7930	29.588548	0.000099	0.993467	0.336596	-0.000040
 509	5.0546e+01	19.7401	29.550665	0.000094	0.942779	0.319422	-0.000038
 510	5.0645e+01	19.7224	29.511153	0.000098	0.983329	0.333161	-0.000040
 511	5.0745e+01	19.6839	29.470826	0.000100	1.003604	0.340030	-0.000041
 512	5.0844e+01	19.6390	29.428463	0.000105	1.054291	0.357203	-0.000043
 513	5.0944e+01	19.6037	29.388543	0.000099	0.993467	0.336596	-0.000040
 514	5.1044e+01	19.5620	29.352290	0.000090	0.902230	0.305684	-0.000036
 515	5.1143e+01	19.5396	29.312777	0.000098	0.983329	0.333161	-0.000040
 516	5.1242e+01	19.4914	29.269192	0.000108	1.084703	0.367507	-0.000044
 517	5.1342e+01	19.4481	29.230087	0.000097	0.973192	0.329726	-0.000039
 518	5.1441e+01	19.4048	29.186501	0.000108	1.084703	0.367507	-0.000044
 519	5.1541e+01	19.3823	29.146989	0.000098	0.983329	0.333161	-0.000040
 520	5.1641e+01	19.3326	29.109921	0.000092	0.922505	0.312553	-0.000037
 521	5.1740e+01	19.2813	29.070816	0.000097	0.973192	0.329726	-0.000039
 522	5.1840e+01	19.2283	29.029267	0.000103	1.034016	0.350334	-0.000042
 523	5.1939e+01	19.1882	28.988533	0.000101	1.013741	0.343465	-0.000041
 524	5.2038e+01	19.1561	28.942503	0.000115	1.145528	0.388115	-0.000046
 525	5.2138e+01	19.1273	28.901769	0.000101	1.013741	0.343465	-0.000041
 526	5.2237e+01	19.0840	28.860627	0.000102	1.023879	0.346900	-0.000041
 527	5.2337e+01	19.0406	28.819893	0.000101	1.013741	0.343465	-0.000041
 528	5.2437e+01	19.0310	28.777122	0.000106	1.064428	0.360638	-0.000043
 529	5.2536e+01	18.9717	28.738832	0.000095	0.952917	0.322857	-0.000038
 530	5.2636e+01	18.9267	28.699319	0.000098	0.983329	0.333161	-0.000040
 531	5.2735e+01	18.8642	28.655326	0.000109	1.094841	0.370942	-0.000044
 532	5.2834e+01	18.8465	28.612556	0.000106	1.064428	0.360638	-0.000043
 533	5.2934e+01	18.8177	28.570192	0.000105	1.054291	0.357203	-0.000043
 534	5.3033e+01	18.7487	28.531494	0.000096	0.963054	0.326292	-0.000039
 535	5.3133e+01	18.7214	28.488316	0.000107	1.074566	0.364073	-0.000043
 536	5.3233e+01	18.6845	28.446360	0.000104	1.044154	0.353769	-0.000042
 537	5.3332e+01	18.6235	28.406440	0.000099	0.993467	0.336596	-0.000040
 538	5.3431e+01	18.6107	28.362040	0.000110	1.104978	0.374377	-0.000045
 539	5.3531e+01	18.5690	28.320084	0.000104	1.044154	0.353769	-0.000042
 540	5.3630e+01	18.5241	28.279349	0.000101	1.013741	0.343465	-0.000041
 541	5.3730e+01	18.4776	28.235356	0.000109	1.094841	0.370942	-0.000044
 542	5.3830e+01	18.4374	28.194215	0.000102	1.023879	0.346900	-0.000041
 543	5.3929e+01	18.4326	28.152666	0.000103	1.034016	0.350334	-0.000042
 544	5.4029e+01	18.3444	28.108265	0.000110	1.104978	0.374377	-0.000045
 545	5.4128e+01	18.3268	28.065902	0.000105	1.054291	0.357203	-0.000043
 546	5.4227e+01	18.2834	28.028834	0.000092	0.922505	0.312553	-0.000037
 547	5.4327e+01	18.2465	27.986877	0.000104	1.044154	0.353769	-0.000042
 548	5.4426e+01	18.2145	27.946550	0.000100	1.003604	0.340030	-0.000041
 549	5.4526e+01	18.1744	27.906224	0.000100	1.003604	0.340030	-0.000041
 550	5.4626e+01	18.1134	27.863453	0.000106	1.064428	0.360638	-0.000043
 551	5.4725e+01	18.0781	27.823126	0.000100	1.003604	0.340030	-0.000041
 552	5.4825e+01	18.0476	27.783206	0.000099	0.993467	0.336596	-0.000040
 553	5.4924e+01	17.9963	27.741657	0.000103	1.034016	0.350334	-0.000042
 554	5.5023e+01	17.9578	27.695627	0.000115	1.145528	0.388115	-0.000046
 555	5.5123e+01	17.9193	27.650820	0.000112	1.115116	0.377811	-0.000045
 556	5.5222e+01	17.8872	27.608863	0.000104	1.044154	0.353769	-0.000042
 557	5.5322e+01	17.8679	27.576683	0.000080	0.800856	0.271337	-0.000032
 558	5.5422e+01	17.8070	27.526580	0.000125	1.246902	0.422462	-0.000050
 559	5.5521e+01	17.7476	27.487883	0.000096	0.963054	0.326292	-0.000039
 560	5.5620e+01	17.7364	27.444297	0.000108	1.084703	0.367507	-0.000044
 561	5.5720e+01	17.7011	27.406007	0.000095	0.952917	0.322857	-0.000038
 562	5.5819e+01	17.6305	27.362829	0.000107	1.074566	0.364073	-0.000043
 563	5.5919e+01	17.6097	27.322502	0.000100	1.003604	0.340030	-0.000041
 564	5.6019e+01	17.5840	27.278101	0.000110	1.104978	0.374377	-0.000045
 565	5.6118e+01	17.5327	27.239404	0.000096	0.963054	0.326292	-0.000039
 566	5.6218e+01	17.5006	27.197040	0.000105	1.054291	0.357203	-0.000043
 567	5.6317e+01	17.4460	27.155899	0.000102	1.023879	0.346900	-0.000041
 568	5.6416e+01	17.4284	27.111906	0.000109	1.094841	0.370942	-0.000044
 569	5.6516e+01	17.3770	27.066283	0.000114	1.135390	0.384681	-0.000046
 570	5.6615e+01	17.3273	27.022698	0.000108	1.084703	0.367507	-0.000044
 571	5.6715e+01	17.2792	26.979927	0.000106	1.064428	0.360638	-0.000043
 572	5.6815e+01	17.2487	26.936341	0.000108	1.084703	0.367507	-0.000044
 573	5.6914e+01	17.2086	26.891126	0.000113	1.125253	0.381246	-0.000045
 574	5.7014e+01	17.1653	26.852021	0.000097	0.973192	0.329726	-0.000039
 575	5.7113e+01	17.1252	26.804769	0.000118	1.175940	0.398419	-0.000047
 576	5.7212e+01	17.0995	26.766072	0.000096	0.963054	0.326292	-0.000039
 577	5.7312e+01	17.0690	26.721671	0.000110	1.104978	0.374377	-0.000045
 578	5.7411e+01	16.9872	26.679715	0.000104	1.044154	0.353769	-0.000042
 579	5.7511e+01	16.9872	26.637351	0.000105	1.054291	0.357203	-0.000043
 580	5.7611e+01	16.9632	26.589285	0.000120	1.196215	0.405289	-0.000048
 581	5.7710e+01	16.9118	26.544070	0.000113	1.125253	0.381246	-0.000045
 582	5.7809e+01	16.8525	26.496004	0.000120	1.196215	0.405289	-0.000048
 583	5.7909e+01	16.7995	26.450789	0.000113	1.125253	0.381246	-0.000045
 584	5.8008e+01	16.7739	26.407610	0.000107	1.074566	0.364073	-0.000043
 585	5.8108e+01	16.7354	26.359951	0.000119	1.186077	0.401854	-0.000048
 586	5.8208e+01	16.6904	26.314736	0.000113	1.125253	0.381246	-0.000045
 587	5.8307e+01	16.6471	26.269928	0.000112	1.115116	0.377811	-0.000045
 588	5.8407e+01	16.6263	26.226343	0.000108	1.084703	0.367507	-0.000044
 589	5.8506e+01	16.5814	26.175832	0.000126	1.257039	0.425896	-0.000051
 590	5.8605e+01	16.5332	26.126951	0.000122	1.216490	0.412158	-0.000049
 591	5.8705e+01	16.4979	26.079292	0.000119	1.186077	0.401854	-0.000048
 592	5.8804e+01	16.4354	26.034892	0.000110	1.104978	0.374377	-0.000045
 593	5.8904e+01	16.4209	25.986418	0.000121	1.206352	0.408723	-0.000049
 594	5.9004e+01	16.3953	25.935500	0.000127	1.267177	0.429331	-0.000051
 595	5.9103e+01	16.3439	25.891507	0.000109	1.094841	0.370942	-0.000044
 596	5.9203e+01	16.2942	25.845478	0.000115	1.145528	0.388115	-0.000046
 597	5.9302e+01	16.2477	25.796596	0.000122	1.216490	0.412158	-0.000049
 598	5.9401e+01	16.2316	25.747715	0.000122	1.216490	0.412158	-0.000049
 599	5.9501e+01	16.1659	25.696798	0.000127	1.267177	0.429331	-0.000051
 600	5.9600e+01	16.1562	25.651582	0.000113	1.125253	0.381246	-0.000045
 601	5.9700e+01	16.0921	25.604331	0.000118	1.175940	0.398419	-0.000047
 602	5.9800e+01	16.0728	25.558301	0.000115	1.145528	0.388115	-0.000046
 603	5.9899e+01	16.0231	25.506569	0.000129	1.287452	0.436200	-0.000052
 604	5.9998e+01	15.9733	25.457687	0.000122	1.216490	0.412158	-0.000049
 605	6.0098e+01	15.9268	25.410436	0.000118	1.175940	0.398419	-0.000047
 606	6.0197e+01	15.9156	25.363999	0.000116	1.155665	0.391550	-0.000047
 607	6.0297e+01	15.8659	25.311044	0.000132	1.317864	0.446504	-0.000053
 608	6.0397e+01	15.8065	25.263792	0.000118	1.175940	0.398419	-0.000047
 609	6.0496e+01	15.7792	25.218577	0.000113	1.125253	0.381246	-0.000045
 610	6.0596e+01	15.7439	25.170104	0.000121	1.206352	0.408723	-0.000049
 611	6.0695e+01	15.6894	25.122445	0.000119	1.186077	0.401854	-0.000048
 612	6.0794e+01	15.6621	25.070305	0.000130	1.297589	0.439635	-0.000052
 613	6.0894e+01	15.5947	25.018980	0.000128	1.277314	0.432766	-0.000052
 614	6.0993e+01	15.5611	24.976209	0.000106	1.064428	0.360638	-0.000043
 615	6.1093e+01	15.5498	24.922847	0.000133	1.328001	0.449939	-0.000054
 616	6.1193e+01	15.4889	24.872744	0.000125	1.246902	0.422462	-0.000050
 617	6.1292e+01	15.4488	24.821826	0.000127	1.267177	0.429331	-0.000051
 618	6.1392e+01	15.4151	24.770501	0.000128	1.277314	0.432766	-0.000052
 619	6.1491e+01	15.3702	24.723249	0.000118	1.175940	0.398419	-0.000047
 620	6.1590e+01	15.3284	24.677219	0.000115	1.145528	0.388115	-0.000046
 621	6.1690e+01	15.2771	24.623043	0.000135	1.348276	0.456808	-0.000054
 622	6.1789e+01	15.2466	24.568459	0.000136	1.358413	0.460243	-0.000055
 623	6.1889e+01	15.2418	24.521207	0.000118	1.175940	0.398419	-0.000047
 624	6.1989e+01	15.1841	24.475992	0.000113	1.125253	0.381246	-0.000045
 625	6.2088e+01	15.1407	24.423037	0.000132	1.317864	0.446504	-0.000053
 626	6.2188e+01	15.0990	24.372120	0.000127	1.267177	0.429331	-0.000051
 627	6.2287e+01	15.0782	24.321609	0.000126	1.257039	0.425896	-0.000051
 628	6.2386e+01	15.0188	24.271506	0.000125	1.246902	0.422462	-0.000050
 629	6.2486e+01	14.9819	24.216107	0.000138	1.378688	0.467112	-0.000056
 630	6.2586e+01	14.9498	24.167226	0.000122	1.216490	0.412158	-0.000049
 631	6.2685e+01	14.9129	24.114679	0.000131	1.307726	0.443070	-0.000053
 632	6.2785e+01	14.8648	24.063354	0.000128	1.277314	0.432766	-0.000052
 633	6.2884e+01	14.8167	24.008363	0.000137	1.368551	0.463678	-0.000055
 634	6.2983e+01	14.7686	23.957445	0.000127	1.267177	0.429331	-0.000051
 635	6.3083e+01	14.7365	23.906934	0.000126	1.257039	0.425896	-0.000051
 636	6.3182e+01	14.7124	23.853165	0.000134	1.338139	0.453374	-0.000054
 637	6.3282e+01	14.6675	23.800211	0.000132	1.317864	0.446504	-0.000053
 638	6.3382e+01	14.6290	23.750107	0.000125	1.246902	0.422462	-0.000050
 639	6.3481e+01	14.5825	23.700819	0.000123	1.226627	0.415593	-0.000050
 640	6.3581e+01	14.5536	23.646235	0.000136	1.358413	0.460243	-0.000055
 641	6.3680e+01	14.5023	23.591244	0.000137	1.368551	0.463678	-0.000055
 642	6.3779e+01	14.4734	23.541955	0.000123	1.226627	0.415593	-0.000050
 643	6.3879e+01	14.4188	23.485742	0.000140	1.398963	0.473982	-0.000056
 644	6.3978e+01	14.3771	23.431566	0.000135	1.348276	0.456808	-0.000054
 645	6.4078e+01	14.3579	23.379833	0.000129	1.287452	0.436200	-0.000052
 646	6.4177e+01	14.3130	23.327693	0.000130	1.297589	0.439635	-0.000052
 647	6.4277e+01	14.2680	23.273109	0.000136	1.358413	0.460243	-0.000055
 648	6.4376e+01	14.2311	23.219340	0.000134	1.338139	0.453374	-0.000054
 649	6.4476e+01	14.1814	23.168015	0.000128	1.277314	0.432766	-0.000052
 650	6.4576e+01	14.1365	23.107728	0.000150	1.500337	0.508328	-0.000061
 651	6.4675e+01	14.0852	23.058032	0.000124	1.236765	0.419027	-0.000050
 652	6.4775e+01	14.0836	23.005893	0.000130	1.297589	0.439635	-0.000052
 653	6.4874e+01	14.0242	22.952938	0.000132	1.317864	0.446504	-0.000053
 654	6.4974e+01	14.0001	22.902020	0.000127	1.267177	0.429331	-0.000051
 655	6.5073e+01	13.9504	22.850288	0.000129	1.287452	0.436200	-0.000052
 656	6.5172e+01	13.8782	22.796926	0.000133	1.328001	0.449939	-0.000054
 657	6.5272e+01	13.8782	22.745601	0.000128	1.277314	0.432766	-0.000052
 658	6.5371e+01	13.8301	22.685721	0.000149	1.490200	0.504893	-0.000060
 659	6.5471e+01	13.7836	22.636433	0.000123	1.226627	0.415593	-0.000050
 660	6.5570e+01	13.7531	22.587959	0.000121	1.206352	0.408723	-0.000049
 661	6.5670e+01	13.7322	22.533375	0.000136	1.358413	0.460243	-0.000055
 662	6.5769e+01	13.6665	22.477977	0.000138	1.378688	0.467112	-0.000056
 663	6.5869e+01	13.6296	22.426652	0.000128	1.277314	0.432766	-0.000052
 664	6.5969e+01	13.5911	22.375734	0.000127	1.267177	0.429331	-0.000051
 665	6.6068e+01	13.5397	22.321964	0.000134	1.338139	0.453374	-0.000054
 666	6.6168e+01	13.5012	22.267788	0.000135	1.348276	0.456808	-0.000054
 667	6.6267e+01	13.4547	22.221351	0.000116	1.155665	0.391550	-0.000047
 668	6.6367e+01	13.4322	22.167174	0.000135	1.348276	0.456808	-0.000054
 669	6.6466e+01	13.3793	22.117479	0.000124	1.236765	0.419027	-0.000050
 670	6.6566e+01	13.3408	22.062895	0.000136	1.358413	0.460243	-0.000055
 671	6.6665e+01	13.3087	22.014421	0.000121	1.206352	0.408723	-0.000049
 672	6.6764e+01	13.2718	21.963503	0.000127	1.267177	0.429331	-0.000051
 673	6.6864e+01	13.2205	21.912585	0.000127	1.267177	0.429331	-0.000051
 674	6.6963e+01	13.1804	21.860445	0.000130	1.297589	0.439635	-0.000052
 675	6.7063e+01	13.1563	21.813601	0.000117	1.165803	0.394985	-0.000047
 676	6.7162e+01	13.1130	21.757795	0.000139	1.388826	0.470547	-0.000056
 677	6.7262e+01	13.0633	21.704841	0.000132	1.317864	0.446504	-0.000053
 678	6.7362e+01	13.0151	21.655145	0.000124	1.236765	0.419027	-0.000050
 679	6.7461e+01	12.9815	21.602598	0.000131	1.307726	0.443070	-0.000053
 680	6.7561e+01	12.9462	21.552087	0.000126	1.257039	0.425896	-0.000051
 681	6.7660e+01	12.9205	21.503613	0.000121	1.206352	0.408723	-0.000049
 682	6.7760e+01	12.8611	21.459213	0.000110	1.104978	0.374377	-0.000045
 683	6.7859e+01	12.8242	21.404629	0.000136	1.358413	0.460243	-0.000055
 684	6.7959e+01	12.7938	21.353304	0.000128	1.277314	0.432766	-0.000052
 685	6.8058e+01	12.7488	21.304423	0.000122	1.216490	0.412158	-0.000049
 686	6.8157e+01	12.6863	21.253505	0.000127	1.267177	0.429331	-0.000051
 687	6.8257e+01	12.6622	21.201365	0.000130	1.297589	0.439635	-0.000052
 688	6.8356e+01	12.6221	21.152077	0.000123	1.226627	0.415593	-0.000050
 689	6.8456e+01	12.5964	21.098307	0.000134	1.338139	0.453374	-0.000054
 690	6.8555e+01	12.5531	21.051463	0.000117	1.165803	0.394985	-0.000047
 691	6.8655e+01	12.5098	20.998916	0.000131	1.307726	0.443070	-0.000053
 692	6.8754e+01	12.4761	20.945554	0.000133	1.328001	0.449939	-0.000054
 693	6.8854e+01	12.4312	20.892192	0.000133	1.328001	0.449939	-0.000054
 694	6.8954e+01	12.3863	20.843718	0.000121	1.206352	0.408723	-0.000049
 695	6.9053e+01	12.3847	20.789949	0.000134	1.338139	0.453374	-0.000054
 696	6.9153e+01	12.3189	20.739439	0.000126	1.257039	0.425896	-0.000051
 697	6.9252e+01	12.2740	20.690965	0.000121	1.206352	0.408723	-0.000049
 698	6.9352e+01	12.2226	20.634752	0.000140	1.398963	0.473982	-0.000056
 699	6.9451e+01	12.2034	20.584648	0.000125	1.246902	0.422462	-0.000050
 700	6.9550e+01	12.1489	20.532509	0.000130	1.297589	0.439635	-0.000052
 701	6.9650e+01	12.1039	20.480776	0.000129	1.287452	0.436200	-0.000052
 702	6.9749e+01	12.0751	20.425785	0.000137	1.368551	0.463678	-0.000055
 703	6.9849e+01	12.0269	20.380570	0.000113	1.125253	0.381246	-0.000045
 704	6.9948e+01	11.9820	20.328023	0.000131	1.307726	0.443070	-0.000053
 705	7.0048e+01	11.9740	20.272624	0.000138	1.378688	0.467112	-0.000056
 706	7.0147e+01	11.9275	20.218448	0.000135	1.348276	0.456808	-0.000054
 707	7.0247e+01	11.8761	20.170788	0.000119	1.186077	0.401854	-0.000048
 708	7.0347e+01	11.8248	20.116612	0.000135	1.348276	0.456808	-0.000054
 709	7.0446e+01	11.7815	20.067731	0.000122	1.216490	0.412158	-0.000049
 710	7.0546e+01	11.7719	20.015998	0.000129	1.287452	0.436200	-0.000052
 711	7.0645e+01	11.7061	19.965895	0.000125	1.246902	0.422462	-0.000050
 712	7.0745e+01	11.6884	19.914977	0.000127	1.267177	0.429331	-0.000051
 713	7.0844e+01	11.6515	19.861615	0.000133	1.328001	0.449939	-0.000054
 714	7.0944e+01	11.6034	19.811512	0.000125	1.246902	0.422462	-0.000050
 715	7.1043e+01	11.5697	19.766297	0.000113	1.125253	0.381246	-0.000045
 716	7.1142e+01	11.5216	19.715379	0.000127	1.267177	0.429331	-0.000051
 717	7.1242e+01	11.4735	19.663647	0.000129	1.287452	0.436200	-0.000052
 718	7.1341e+01	11.4542	19.614359	0.000123	1.226627	0.415593	-0.000050
 719	7.1441e+01	11.3965	19.560997	0.000133	1.328001	0.449939	-0.000054
 720	7.1540e+01	11.3820	19.509672	0.000128	1.277314	0.432766	-0.000052
 721	7.1640e+01	11.3002	19.459976	0.000124	1.236765	0.419027	-0.000050
 722	7.1740e+01	11.2874	19.404984	0.000137	1.368551	0.463678	-0.000055
 723	7.1839e+01	11.2280	19.352845	0.000130	1.297589	0.439635	-0.000052
 724	7.1939e+01	11.2120	19.300705	0.000130	1.297589	0.439635	-0.000052
 725	7.2038e+01	11.1606	19.251824	0.000122	1.216490	0.412158	-0.000049
 726	7.2138e+01	11.1061	19.202943	0.000122	1.216490	0.412158	-0.000049
 727	7.2237e+01	11.0772	19.147951	0.000137	1.368551	0.463678	-0.000055
 728	7.2337e+01	11.0243	19.103144	0.000112	1.115116	0.377811	-0.000045
 729	7.2436e+01	10.9762	19.048967	0.000135	1.348276	0.456808	-0.000054
 730	7.2535e+01	10.9409	18.998457	0.000126	1.257039	0.425896	-0.000051
 731	7.2635e+01	10.9120	18.945502	0.000132	1.317864	0.446504	-0.000053
 732	7.2734e+01	10.8847	18.892955	0.000131	1.307726	0.443070	-0.000053
 733	7.2834e+01	10.8382	18.844481	0.000121	1.206352	0.408723	-0.000049
 734	7.2933e+01	10.8093	18.792341	0.000130	1.297589	0.439635	-0.000052
 735	7.3033e+01	10.7628	18.741831	0.000126	1.257039	0.425896	-0.000051
 736	7.3132e+01	10.7387	18.690506	0.000128	1.277314	0.432766	-0.000052
 737	7.3232e+01	10.6649	18.634700	0.000139	1.388826	0.470547	-0.000056
 738	7.3332e+01	10.6489	18.580523	0.000135	1.348276	0.456808	-0.000054
 739	7.3431e+01	10.6072	18.526754	0.000134	1.338139	0.453374	-0.000054
 740	7.3531e+01	10.5526	18.477873	0.000122	1.216490	0.412158	-0.000049
 741	7.3630e+01	10.5222	18.424918	0.000132	1.317864	0.446504	-0.000053
 742	7.3730e+01	10.4708	18.369112	0.000139	1.388826	0.470547	-0.000056
 743	7.3829e+01	10.4371	18.314121	0.000137	1.368551	0.463678	-0.000055
 744	7.3928e+01	10.4002	18.267277	0.000117	1.165803	0.394985	-0.000047
 745	7.4028e+01	10.3457	18.209434	0.000144	1.439513	0.487720	-0.000058
 746	7.4127e+01	10.3329	18.159331	0.000125	1.246902	0.422462	-0.000050
 747	7.4227e+01	10.2815	18.103525	0.000139	1.388826	0.470547	-0.000056
 748	7.4326e+01	10.2318	18.050163	0.000133	1.328001	0.449939	-0.000054
 749	7.4426e+01	10.1997	17.995987	0.000135	1.348276	0.456808	-0.000054
 750	7.4525e+01	10.1740	17.937737	0.000145	1.449650	0.491155	-0.000059
 751	7.4625e+01	10.1051	17.884782	0.000132	1.317864	0.446504	-0.000053
 752	7.4725e+01	10.0858	17.830606	0.000135	1.348276	0.456808	-0.000054
 753	7.4824e+01	10.0297	17.774800	0.000139	1.388826	0.470547	-0.000056
 754	7.4924e+01	9.9928	17.714513	0.000150	1.500337	0.508328	-0.000061
 755	7.5023e+01	9.9703	17.659929	0.000136	1.358413	0.460243	-0.000055
 756	7.5123e+01	9.9126	17.602494	0.000143	1.429375	0.484285	-0.000058
 757	7.5222e+01	9.8901	17.546688	0.000139	1.388826	0.470547	-0.000056
 758	7.5322e+01	9.8388	17.489252	0.000143	1.429375	0.484285	-0.000058
 759	7.5421e+01	9.7826	17.437520	0.000129	1.287452	0.436200	-0.000052
 760	7.5520e+01	9.7634	17.374789	0.000156	1.561162	0.528936	-0.000063
 761	7.5620e+01	9.7120	17.320613	0.000135	1.348276	0.456808	-0.000054
 762	7.5719e+01	9.6735	17.262770	0.000144	1.439513	0.487720	-0.000058
 763	7.5819e+01	9.6495	17.208593	0.000135	1.348276	0.456808	-0.000054
 764	7.5918e+01	9.6158	17.149936	0.000146	1.459788	0.494589	-0.000059
 765	7.6018e+01	9.5725	17.087613	0.000155	1.551024	0.525501	-0.000063
 766	7.6118e+01	9.5259	17.033843	0.000134	1.338139	0.453374	-0.000054
 767	7.6217e+01	9.4666	16.975186	0.000146	1.459788	0.494589	-0.000059
 768	7.6317e+01	9.4457	16.916121	0.000147	1.469925	0.498024	-0.000059
 769	7.6416e+01	9.4072	16.856649	0.000148	1.480062	0.501459	-0.000060
 770	7.6516e+01	9.3848	16.797992	0.000146	1.459788	0.494589	-0.000059
 771	7.6615e+01	9.3334	16.740149	0.000144	1.439513	0.487720	-0.000058
 772	7.6715e+01	9.2821	16.681085	0.000147	1.469925	0.498024	-0.000059
 773	7.6814e+01	9.2596	16.622427	0.000146	1.459788	0.494589	-0.000059
 774	7.6913e+01	9.2099	16.564585	0.000144	1.439513	0.487720	-0.000058
 775	7.7013e+01	9.1634	16.507964	0.000141	1.409101	0.477416	-0.000057
 776	7.7112e+01	9.1265	16.448492	0.000148	1.480062	0.501459	-0.000060
 777	7.7212e+01	9.0816	16.386984	0.000153	1.530750	0.518632	-0.000062
 778	7.7311e+01	9.0382	16.333214	0.000134	1.338139	0.453374	-0.000054
 779	7.7411e+01	8.9869	16.274150	0.000147	1.469925	0.498024	-0.000059
 780	7.7510e+01	8.9580	16.212234	0.000154	1.540887	0.522067	-0.000062
 781	7.7610e+01	8.9227	16.155613	0.000141	1.409101	0.477416	-0.000057
 782	7.7710e+01	8.8907	16.095326	0.000150	1.500337	0.508328	-0.000061
 783	7.7809e+01	8.8265	16.032188	0.000157	1.571299	0.532371	-0.000063
 784	7.7909e+01	8.8169	15.972716	0.000148	1.480062	0.501459	-0.000060
 785	7.8008e+01	8.7800	15.910393	0.000155	1.551024	0.525501	-0.000063
 786	7.8108e+01	8.7367	15.852143	0.000145	1.449650	0.491155	-0.000059
 787	7.8207e+01	8.6693	15.795929	0.000140	1.398963	0.473982	-0.000056
 788	7.8306e+01	8.6356	15.733199	0.000156	1.561162	0.528936	-0.000063
 789	7.8406e+01	8.5859	15.674541	0.000146	1.459788	0.494589	-0.000059
 790	7.8505e+01	8.5634	15.611811	0.000156	1.561162	0.528936	-0.000063
 791	7.8605e+01	8.5425	15.550709	0.000152	1.520612	0.515197	-0.000061
 792	7.8704e+01	8.4960	15.494496	0.000140	1.398963	0.473982	-0.000056
 793	7.8804e+01	8.4479	15.435839	0.000146	1.459788	0.494589	-0.000059
 794	7.8903e+01	8.3950	15.377589	0.000145	1.449650	0.491155	-0.000059
 795	7.9003e+01	8.3645	15.312821	0.000161	1.611849	0.546109	-0.000065
 796	7.9103e+01	8.3436	15.249683	0.000157	1.571299	0.532371	-0.000063
 797	7.9202e+01	8.2939	15.186138	0.000158	1.581437	0.535805	-0.000064
 798	7.9302e+01	8.2474	15.118111	0.000169	1.692948	0.573586	-0.000068
 799	7.9401e+01	8.2105	15.059861	0.000145	1.449650	0.491155	-0.000059
 800	7.9501e+01	8.1623	14.994687	0.000162	1.621986	0.549544	-0.000066
 801	7.9600e+01	8.1607	14.933993	0.000151	1.510475	0.511763	-0.000061
 802	7.9700e+01	8.0741	14.870040	0.000159	1.591574	0.539240	-0.000064
 803	7.9799e+01	8.0308	14.810160	0.000149	1.490200	0.504893	-0.000060
 804	7.9898e+01	8.0244	14.745800	0.000160	1.601711	0.542675	-0.000065
 805	7.9998e+01	8.0003	14.683884	0.000154	1.540887	0.522067	-0.000062
 806	8.0097e+01	7.9377	14.619117	0.000161	1.611849	0.546109	-0.000065
 807	8.0197e+01	7.8976	14.561274	0.000144	1.439513	0.487720	-0.000058
 808	8.0296e+01	7.8559	14.495285	0.000164	1.642261	0.556413	-0.000066
 809	8.0396e+01	7.8110	14.431739	0.000158	1.581437	0.535805	-0.000064
 810	8.0496e+01	7.7709	14.368194	0.000158	1.581437	0.535805	-0.000064
 811	8.0595e+01	7.7388	14.300575	0.000168	1.682811	0.570152	-0.000068
 812	8.0695e+01	7.6843	14.238252	0.000155	1.551024	0.525501	-0.000063
 813	8.0794e+01	7.6426	14.169818	0.000170	1.703086	0.577021	-0.000069
 814	8.0894e+01	7.6121	14.108309	0.000153	1.530750	0.518632	-0.000062
 815	8.0993e+01	7.5832	14.048023	0.000150	1.500337	0.508328	-0.000061
 816	8.1093e+01	7.5255	13.986514	0.000153	1.530750	0.518632	-0.000062
 817	8.1192e+01	7.4998	13.918488	0.000169	1.692948	0.573586	-0.000068
 818	8.1291e+01	7.4485	13.851276	0.000167	1.672673	0.566717	-0.000068
 819	8.1391e+01	7.4083	13.790175	0.000152	1.520612	0.515197	-0.000061
 820	8.1490e+01	7.3602	13.721334	0.000171	1.713223	0.580456	-0.000069
 821	8.1590e+01	7.3281	13.664306	0.000142	1.419238	0.480851	-0.000057
 822	8.1689e+01	7.2864	13.602797	0.000153	1.530750	0.518632	-0.000062
 823	8.1789e+01	7.2351	13.539659	0.000157	1.571299	0.532371	-0.000063
 824	8.1888e+01	7.2367	13.472448	-0.000167	-1.672673	-0.566717	-0.000068
 825	8.1988e+01	7.1597	13.408902	0.000158	1.581437	0.535805	-0.000064
 826	8.2088e+01	7.1404	13.346171	0.000156	1.561162	0.528936	-0.000063
 827	8.2187e+01	7.0843	13.278145	0.000169	1.692948	0.573586	-0.000068
 828	8.2287e+01	7.0458	13.212970	0.000162	1.621986	0.549544	-0.000066
 829	8.2386e+01	7.0314	13.153498	0.000148	1.480062	0.501459	-0.000060
 830	8.2486e+01	6.9511	13.086694	0.000166	1.662536	0.563282	-0.000067
 831	8.2585e+01	6.9175	13.023963	0.000156	1.561162	0.528936	-0.000063
 832	8.2684e+01	6.9078	12.955937	0.000169	1.692948	0.573586	-0.000068
 833	8.2784e+01	6.8597	12.897687	0.000145	1.449650	0.491155	-0.000059
 834	8.2883e+01	6.8116	12.836178	0.000153	1.530750	0.518632	-0.000062
 835	8.2983e+01	6.7763	12.771004	0.000162	1.621986	0.549544	-0.000066
 836	8.3082e+01	6.7570	12.707866	0.000157	1.571299	0.532371	-0.000063
 837	8.3182e+01	6.6720	12.645542	0.000155	1.551024	0.525501	-0.000063
 838	8.3281e+01	6.6544	12.583219	0.000155	1.551024	0.525501	-0.000063
 839	8.3381e+01	6.5902	12.520895	0.000155	1.551024	0.525501	-0.000063
 840	8.3481e+01	6.5758	12.454906	0.000164	1.642261	0.556413	-0.000066
 841	8.3580e+01	6.5356	12.392175	0.000156	1.561162	0.528936	-0.000063
 842	8.3680e+01	6.4859	12.332703	0.000148	1.480062	0.501459	-0.000060
 843	8.3779e+01	6.4618	12.275675	0.000142	1.419238	0.480851	-0.000057
 844	8.3879e+01	6.4089	12.210093	0.000163	1.632124	0.552978	-0.000066
 845	8.3978e+01	6.3784	12.146140	0.000159	1.591574	0.539240	-0.000064
 846	8.4078e+01	6.3271	12.086261	0.000149	1.490200	0.504893	-0.000060
 847	8.4177e+01	6.2870	12.021901	0.000160	1.601711	0.542675	-0.000065
 848	8.4276e+01	6.2886	11.963243	-0.000146	-1.459788	-0.494589	-0.000059
 849	8.4376e+01	6.2020	11.896032	0.000167	1.672673	0.566717	-0.000068
 850	8.4475e+01	6.1603	11.830857	0.000162	1.621986	0.549544	-0.000066
 851	8.4575e+01	6.1346	11.775866	0.000137	1.368551	0.463678	-0.000055
 852	8.4674e+01	6.1121	11.711098	0.000161	1.611849	0.546109	-0.000065
 853	8.4774e+01	6.0656	11.645516	0.000163	1.632124	0.552978	-0.000066
 854	8.4874e+01	6.0191	11.582785	0.000156	1.561162	0.528936	-0.000063
 855	8.4973e+01	5.9629	11.519240	0.000158	1.581437	0.535805	-0.000064
 856	8.5073e+01	5.9180	11.454473	0.000161	1.611849	0.546109	-0.000065
 857	8.5172e+01	5.8956	11.391334	0.000157	1.571299	0.532371	-0.000063
 858	8.5272e+01	5.8426	11.325345	0.000164	1.642261	0.556413	-0.000066
 859	8.5371e+01	5.8169	11.263022	0.000155	1.551024	0.525501	-0.000063
 860	8.5471e+01	5.7929	11.200698	0.000155	1.551024	0.525501	-0.000063
 861	8.5570e+01	5.7576	11.137967	0.000156	1.561162	0.528936	-0.000063
 862	8.5669e+01	5.6982	11.073200	0.000161	1.611849	0.546109	-0.000065
 863	8.5769e+01	5.6565	11.009654	0.000158	1.581437	0.535805	-0.000064
 864	8.5868e+01	5.6180	10.945702	0.000159	1.591574	0.539240	-0.000064
 865	8.5968e+01	5.5827	10.880934	0.000161	1.611849	0.546109	-0.000065
 866	8.6067e+01	5.5378	10.820240	0.000151	1.510475	0.511763	-0.000061
 867	8.6167e+01	5.4977	10.755473	0.000161	1.611849	0.546109	-0.000065
 868	8.6266e+01	5.4608	10.689483	0.000164	1.642261	0.556413	-0.000066
 869	8.6366e+01	5.4319	10.629604	0.000149	1.490200	0.504893	-0.000060
 870	8.6466e+01	5.3886	10.566873	0.000156	1.561162	0.528936	-0.000063
 871	8.6565e+01	5.3437	10.501698	0.000162	1.621986	0.549544	-0.000066
 872	8.6665e+01	5.2795	10.437338	0.000160	1.601711	0.542675	-0.000065
 873	8.6764e+01	5.2795	10.371349	0.000164	1.642261	0.556413	-0.000066
 874	8.6864e+01	5.1945	10.310655	0.000151	1.510475	0.511763	-0.000061
 875	8.6963e+01	5.1897	10.239370	0.000177	1.774047	0.601064	-0.000072
 876	8.7063e+01	5.1496	10.178268	0.000152	1.520612	0.515197	-0.000061
 877	8.7162e+01	5.0966	10.111057	0.000167	1.672673	0.566717	-0.000068
 878	8.7261e+01	5.0678	10.051585	0.000148	1.480062	0.501459	-0.000060
 879	8.7361e+01	5.0261	9.982337	0.000172	1.723360	0.583890	-0.000070
 880	8.7460e+01	4.9924	9.920828	0.000153	1.530750	0.518632	-0.000062
 881	8.7560e+01	4.9571	9.856468	0.000160	1.601711	0.542675	-0.000065
 882	8.7659e+01	4.9041	9.796181	0.000150	1.500337	0.508328	-0.000061
 883	8.7759e+01	4.8737	9.731414	0.000161	1.611849	0.546109	-0.000065
 884	8.7859e+01	4.8143	9.669090	0.000155	1.551024	0.525501	-0.000063
 885	8.7958e+01	4.7790	9.601879	0.000167	1.672673	0.566717	-0.000068
 886	8.8058e+01	4.7373	9.538741	0.000157	1.571299	0.532371	-0.000063
 887	8.8157e+01	4.6972	9.473566	0.000162	1.621986	0.549544	-0.000066
 888	8.8257e+01	4.6619	9.411242	0.000155	1.551024	0.525501	-0.000063
 889	8.8356e+01	4.6266	9.344031	0.000167	1.672673	0.566717	-0.000068
 890	8.8456e+01	4.5913	9.279263	0.000161	1.611849	0.546109	-0.000065
 891	8.8555e+01	4.5255	9.217755	0.000153	1.530750	0.518632	-0.000062
 892	8.8654e+01	4.5111	9.152580	0.000162	1.621986	0.549544	-0.000066
 893	8.8754e+01	4.4646	9.086998	0.000163	1.632124	0.552978	-0.000066
 894	8.8853e+01	4.4213	9.020193	0.000166	1.662536	0.563282	-0.000067
 895	8.8953e+01	4.3812	8.959907	0.000150	1.500337	0.508328	-0.000061
 896	8.9052e+01	4.3411	8.892288	0.000168	1.682811	0.570152	-0.000068
 897	8.9152e+01	4.3026	8.827928	0.000160	1.601711	0.542675	-0.000065
 898	8.9251e+01	4.2721	8.763160	0.000161	1.611849	0.546109	-0.000065
 899	8.9351e+01	4.2143	8.700430	0.000156	1.561162	0.528936	-0.000063
 900	8.9451e+01	4.1774	8.635662	0.000161	1.611849	0.546109	-0.000065
 901	8.9550e+01	4.1678	8.566821	0.000171	1.713223	0.580456	-0.000069
 902	8.9650e+01	4.1052	8.501239	0.000163	1.632124	0.552978	-0.000066
 903	8.9749e+01	4.0619	8.433620	0.000168	1.682811	0.570152	-0.000068
 904	8.9849e+01	4.0346	8.366816	0.000166	1.662536	0.563282	-0.000067
 905	8.9948e+01	3.9544	8.297975	0.000171	1.713223	0.580456	-0.000069
 906	9.0047e+01	3.9368	8.233208	0.000161	1.611849	0.546109	-0.000065
 907	9.0147e+01	3.8951	8.166403	0.000166	1.662536	0.563282	-0.000067
 908	9.0246e+01	3.8582	8.094711	0.000178	1.784185	0.604498	-0.000072
 909	9.0346e+01	3.8261	8.034017	0.000151	1.510475	0.511763	-0.000061
 910	9.0445e+01	3.7860	7.961103	0.000181	1.814597	0.614802	-0.000073
 911	9.0545e+01	3.7411	7.895928	0.000162	1.621986	0.549544	-0.000066
 912	9.0644e+01	3.7090	7.827494	0.000170	1.703086	0.577021	-0.000069
 913	9.0744e+01	3.6657	7.762320	0.000162	1.621986	0.549544	-0.000066
 914	9.0844e+01	3.6143	7.692664	0.000173	1.733498	0.587325	-0.000070
 915	9.0943e+01	3.5742	7.626675	0.000164	1.642261	0.556413	-0.000066
 916	9.1043e+01	3.5598	7.551724	0.000187	1.865284	0.631975	-0.000075
 917	9.1142e+01	3.4956	7.488585	0.000157	1.571299	0.532371	-0.000063
 918	9.1242e+01	3.4619	7.414042	0.000186	1.855147	0.628541	-0.000075
 919	9.1341e+01	3.4106	7.342349	0.000178	1.784185	0.604498	-0.000072
 920	9.1441e+01	3.3833	7.272694	0.000173	1.733498	0.587325	-0.000070
 921	9.1540e+01	3.3208	7.199372	0.000182	1.824735	0.618237	-0.000074
 922	9.1639e+01	3.3031	7.130124	0.000172	1.723360	0.583890	-0.000070
 923	9.1739e+01	3.2566	7.058432	0.000178	1.784185	0.604498	-0.000072
 924	9.1838e+01	3.2069	6.991220	0.000167	1.672673	0.566717	-0.000068
 925	9.1938e+01	3.2020	6.916677	0.000186	1.855147	0.628541	-0.000075
 926	9.2037e+01	3.1635	6.843355	0.000182	1.824735	0.618237	-0.000074
 927	9.2137e+01	3.0898	6.771663	0.000178	1.784185	0.604498	-0.000072
 928	9.2237e+01	3.0577	6.697934	0.000183	1.834872	0.621671	-0.000074
 929	9.2336e+01	3.0448	6.623390	0.000186	1.855147	0.628541	-0.000075
 930	9.2436e+01	2.9726	6.551698	0.000178	1.784185	0.604498	-0.000072
 931	9.2535e+01	2.9646	6.479598	0.000179	1.794322	0.607933	-0.000072
 932	9.2635e+01	2.9037	6.406276	0.000182	1.824735	0.618237	-0.000074
 933	9.2734e+01	2.8539	6.334584	0.000178	1.784185	0.604498	-0.000072
 934	9.2834e+01	2.8234	6.257189	0.000193	1.926109	0.652583	-0.000078
 935	9.2933e+01	2.7849	6.185904	0.000177	1.774047	0.601064	-0.000072
 936	9.3032e+01	2.7529	6.117470	0.000170	1.703086	0.577021	-0.000069
 937	9.3132e+01	2.7176	6.036817	0.000201	2.007208	0.680060	-0.000081
 938	9.3231e+01	2.6743	5.965532	0.000177	1.774047	0.601064	-0.000072
 939	9.3331e+01	2.6245	5.886507	0.000197	1.966658	0.666322	-0.000079
 940	9.3430e+01	2.5796	5.813593	0.000181	1.814597	0.614802	-0.000073
 941	9.3530e+01	2.5523	5.738235	0.000188	1.875422	0.635410	-0.000076
 942	9.3629e+01	2.5058	5.663691	0.000186	1.855147	0.628541	-0.000075
 943	9.3729e+01	2.4593	5.588332	0.000188	1.875422	0.635410	-0.000076
 944	9.3829e+01	2.4320	5.512974	0.000188	1.875422	0.635410	-0.000076
 945	9.3928e+01	2.3935	5.434764	0.000195	1.946383	0.659453	-0.000079
 946	9.4028e+01	2.3582	5.358999	0.000189	1.885559	0.638845	-0.000076
 947	9.4127e+01	2.3021	5.285677	0.000182	1.824735	0.618237	-0.000074
 948	9.4227e+01	2.2748	5.209504	0.000190	1.895696	0.642279	-0.000077
 949	9.4326e+01	2.2283	5.129665	0.000199	1.986933	0.673191	-0.000080
 950	9.4425e+01	2.1930	5.057158	0.000180	1.804460	0.611367	-0.000073
 951	9.4525e+01	2.1449	4.977726	0.000198	1.976796	0.669757	-0.000080
 952	9.4624e+01	2.1144	4.899516	0.000195	1.946383	0.659453	-0.000079
 953	9.4724e+01	2.0679	4.823343	0.000190	1.895696	0.642279	-0.000077
 954	9.4823e+01	2.0310	4.745541	0.000194	1.936246	0.656018	-0.000078
 955	9.4923e+01	2.0037	4.668960	0.000191	1.905834	0.645714	-0.000077
 956	9.5022e+01	1.9427	4.590343	0.000196	1.956521	0.662887	-0.000079
 957	9.5122e+01	1.9122	4.519873	0.000175	1.753773	0.594194	-0.000071
 958	9.5222e+01	1.8866	4.431480	0.000220	2.199819	0.745319	-0.000089
 959	9.5321e+01	1.8352	4.361824	0.000173	1.733498	0.587325	-0.000070
 960	9.5421e+01	1.7663	4.280356	0.000203	2.027483	0.686930	-0.000082
 961	9.5520e+01	1.7647	4.202553	0.000194	1.936246	0.656018	-0.000078
 962	9.5620e+01	1.7278	4.124751	0.000194	1.936246	0.656018	-0.000078
 963	9.5719e+01	1.6652	4.046134	0.000196	1.956521	0.662887	-0.000079
 964	9.5819e+01	1.6540	3.964665	0.000203	2.027483	0.686930	-0.000082
 965	9.5918e+01	1.5914	3.882382	0.000205	2.047758	0.693799	-0.000083
 966	9.6017e+01	1.5545	3.802543	0.000199	1.986933	0.673191	-0.000080
 967	9.6117e+01	1.5096	3.722296	0.000200	1.997071	0.676626	-0.000081
 968	9.6216e+01	1.4823	3.640420	0.000204	2.037620	0.690364	-0.000082
 969	9.6316e+01	1.4230	3.558545	0.000204	2.037620	0.690364	-0.000082
 970	9.6415e+01	1.3780	3.477891	0.000201	2.007208	0.680060	-0.000081
 971	9.6515e+01	1.3604	3.401718	0.000190	1.895696	0.642279	-0.000077
 972	9.6615e+01	1.3139	3.316176	0.000213	2.128857	0.721276	-0.000086
 973	9.6714e+01	1.2722	3.237559	0.000196	1.956521	0.662887	-0.000079
 974	9.6814e+01	1.2288	3.151609	0.000214	2.138994	0.724711	-0.000086
 975	9.6913e+01	1.1984	3.075436	0.000190	1.895696	0.642279	-0.000077
 976	9.7013e+01	1.1390	2.987858	0.000218	2.179544	0.738449	-0.000088
 977	9.7112e+01	1.1085	2.904760	0.000207	2.068032	0.700668	-0.000084
 978	9.7212e+01	1.0604	2.822884	0.000204	2.037620	0.690364	-0.000082
 979	9.7311e+01	1.0444	2.741823	0.000202	2.017345	0.683495	-0.000081
 980	9.7410e+01	0.9818	2.657910	0.000209	2.088307	0.707538	-0.000084
 981	9.7510e+01	0.9625	2.575220	0.000206	2.057895	0.697234	-0.000083
 982	9.7609e+01	0.9048	2.492936	0.000205	2.047758	0.693799	-0.000083
 983	9.7709e+01	0.8791	2.404950	0.000219	2.189681	0.741884	-0.000088
 984	9.7808e+01	0.8278	2.324297	0.000201	2.007208	0.680060	-0.000081
 985	9.7908e+01	0.8053	2.238347	0.000214	2.138994	0.724711	-0.000086
 986	9.8007e+01	0.7476	2.158508	0.000199	1.986933	0.673191	-0.000080
 987	9.8107e+01	0.7235	2.072559	0.000214	2.138994	0.724711	-0.000086
 988	9.8207e+01	0.6690	1.994349	0.000195	1.946383	0.659453	-0.000079
 989	9.8306e+01	0.6064	1.910844	0.000208	2.078170	0.704103	-0.000084
 990	9.8406e+01	0.5711	1.825709	0.000212	2.118720	0.717842	-0.000086
 991	9.8505e+01	0.5535	1.741389	0.000210	2.098445	0.710972	-0.000085
 992	9.8605e+01	0.5198	1.664809	0.000191	1.905834	0.645714	-0.000077
 993	9.8704e+01	0.4668	1.577230	0.000218	2.179544	0.738449	-0.000088
 994	9.8803e+01	0.4251	1.493318	0.000209	2.088307	0.707538	-0.000084
 995	9.8903e+01	0.3978	1.406961	0.000215	2.149132	0.728146	-0.000087
 996	9.9002e+01	0.3529	1.322234	0.000211	2.108582	0.714407	-0.000085
 997	9.9102e+01	0.3160	1.239543	0.000206	2.057895	0.697234	-0.000083
 998	9.9201e+01	0.2775	1.156446	0.000207	2.068032	0.700668	-0.000084
 999	9.9301e+01	0.2454	1.076199	0.000200	1.997071	0.676626	-0.000081
1000	9.9400e+01	0.2037	0.987398	0.000221	2.209956	0.748753	-0.000089
1001	9.9500e+01	0.1524	0.903486	0.000209	2.088307	0.707538	-0.000084
1002	9.9600e+01	0.1460	0.827313	0.000190	1.895696	0.642279	-0.000077
1003	9.9699e+01	0.0706	0.738105	0.000222	2.220094	0.752188	-0.000090
1004	9.9799e+01	0.0257	0.659080	0.000197	1.966658	0.666322	-0.000079
1005	9.9898e+01	0.0016	0.600830	0.000145	1.449650	0.491155	-0.000059
1006	9.9998e+01	-0.0529	0.509993	0.000226	2.260643	0.765927	-0.000091
1007	1.0010e+02	-0.0770	0.431376	0.000196	1.956521	0.662887	-0.000079
1008	1.0020e+02	-0.1123	0.346241	0.000212	2.118720	0.717842	-0.000086
1009	1.0030e+02	-0.1588	0.267217	0.000197	1.966658	0.666322	-0.000079
1010	1.0040e+02	-0.1925	0.185748	0.000203	2.027483	0.686930	-0.000082
1011	1.0050e+02	-0.2454	0.102243	0.000208	2.078170	0.704103	-0.000084
1012	1.0059e+02	-0.2631	0.014257	0.000219	2.189681	0.741884	-0.000088
1013	1.0069e+02	-0.3208	-0.061916	0.000190	1.895696	0.642279	-0.000077
1014	1.0079e+02	-0.3401	-0.147458	0.000213	2.128857	0.721276	-0.000086
1015	1.0089e+02	-0.4075	-0.227297	0.000199	1.986933	0.673191	-0.000080
1016	1.0099e+02	-0.4476	-0.310395	0.000207	2.068032	0.700668	-0.000084
1017	1.0109e+02	-0.4732	-0.391456	0.000202	2.017345	0.683495	-0.000081
1018	1.0119e+02	-0.5053	-0.476591	0.000212	2.118720	0.717842	-0.000086
1019	1.0129e+02	-0.5406	-0.555615	0.000197	1.966658	0.666322	-0.000079
1020	1.0139e+02	-0.5936	-0.637084	0.000203	2.027483	0.686930	-0.000082
1021	1.0149e+02	-0.6385	-0.720589	0.000208	2.078170	0.704103	-0.000084
1022	1.0159e+02	-0.6754	-0.809390	0.000221	2.209956	0.748753	-0.000089
1023	1.0169e+02	-0.6882	-0.884748	0.000188	1.875422	0.635410	-0.000076
1024	1.0179e+02	-0.7620	-0.965402	0.000201	2.007208	0.680060	-0.000081
1025	1.0189e+02	-0.7877	-1.042390	0.000192	1.915971	0.649149	-0.000077
1026	1.0199e+02	-0.8390	-1.129561	0.000217	2.169407	0.735015	-0.000088
1027	1.0209e+02	-0.8615	-1.207363	0.000194	1.936246	0.656018	-0.000078
1028	1.0219e+02	-0.9176	-1.290461	0.000207	2.068032	0.700668	-0.000084
1029	1.0229e+02	-0.9561	-1.376410	0.000214	2.138994	0.724711	-0.000086
1030	1.0239e+02	-0.9818	-1.455842	0.000198	1.976796	0.669757	-0.000080
1031	1.0248e+02	-1.0315	-1.537718	0.000204	2.037620	0.690364	-0.000082
1032	1.0258e+02	-1.0556	-1.614706	0.000192	1.915971	0.649149	-0.000077
1033	1.0268e+02	-1.1117	-1.699433	0.000211	2.108582	0.714407	-0.000085
1034	1.0278e+02	-1.1695	-1.778050	0.000196	1.956521	0.662887	-0.000079
1035	1.0288e+02	-1.1984	-1.861148	0.000207	2.068032	0.700668	-0.000084
1036	1.0298e+02	-1.2625	-1.938543	0.000193	1.926109	0.652583	-0.000078
1037	1.0308e+02	-1.2786	-2.019197	0.000201	2.007208	0.680060	-0.000081
1038	1.0318e+02	-1.3107	-2.101480	0.000205	2.047758	0.693799	-0.000083
1039	1.0328e+02	-1.3331	-2.182541	0.000202	2.017345	0.683495	-0.000081
1040	1.0338e+02	-1.3812	-2.260344	0.000194	1.936246	0.656018	-0.000078
1041	1.0348e+02	-1.4214	-2.339368	0.000197	1.966658	0.666322	-0.000079
1042	1.0358e+02	-1.4807	-2.417985	0.000196	1.956521	0.662887	-0.000079
1043	1.0368e+02	-1.5080	-2.499454	0.000203	2.027483	0.686930	-0.000082
1044	1.0378e+02	-1.5513	-2.577256	0.000194	1.936246	0.656018	-0.000078
1045	1.0388e+02	-1.5962	-2.658725	0.000203	2.027483	0.686930	-0.000082
1046	1.0398e+02	-1.6187	-2.737749	0.000197	1.966658	0.666322	-0.000079
1047	1.0408e+02	-1.6700	-2.819625	0.000204	2.037620	0.690364	-0.000082
1048	1.0418e+02	-1.7037	-2.892539	0.000181	1.814597	0.614802	-0.000073
1049	1.0428e+02	-1.7390	-2.969527	0.000192	1.915971	0.649149	-0.000077
1050	1.0438e+02	-1.7887	-3.042034	0.000180	1.804460	0.611367	-0.000073
1051	1.0447e+02	-1.8144	-3.125132	0.000207	2.068032	0.700668	-0.000084
1052	1.0457e+02	-1.8689	-3.196824	0.000178	1.784185	0.604498	-0.000072
1053	1.0467e+02	-1.8946	-3.274219	0.000193	1.926109	0.652583	-0.000078
1054	1.0477e+02	-1.9411	-3.352429	0.000195	1.946383	0.659453	-0.000079
1055	1.0487e+02	-1.9844	-3.424936	0.000180	1.804460	0.611367	-0.000073
1056	1.0497e+02	-2.0181	-3.507219	0.000205	2.047758	0.693799	-0.000083
1057	1.0507e+02	-2.0566	-3.586244	0.000197	1.966658	0.666322	-0.000079
1058	1.0517e+02	-2.1176	-3.660788	0.000186	1.855147	0.628541	-0.000075
1059	1.0527e+02	-2.1529	-3.730443	0.000173	1.733498	0.587325	-0.000070
1060	1.0537e+02	-2.1898	-3.808246	0.000194	1.936246	0.656018	-0.000078
1061	1.0547e+02	-2.2235	-3.888899	0.000201	2.007208	0.680060	-0.000081
1062	1.0557e+02	-2.2812	-3.963036	0.000185	1.845009	0.625106	-0.000075
1063	1.0567e+02	-2.3293	-4.035135	0.000179	1.794322	0.607933	-0.000072
1064	1.0577e+02	-2.3775	-4.108864	0.000183	1.834872	0.621671	-0.000074
1065	1.0587e+02	-2.3807	-4.184630	0.000189	1.885559	0.638845	-0.000076
1066	1.0597e+02	-2.4481	-4.262432	0.000194	1.936246	0.656018	-0.000078
1067	1.0607e+02	-2.4609	-4.331273	0.000171	1.713223	0.580456	-0.000069
1068	1.0617e+02	-2.5090	-4.403780	0.000180	1.804460	0.611367	-0.000073
1069	1.0627e+02	-2.5299	-4.478731	0.000187	1.865284	0.631975	-0.000075
1070	1.0637e+02	-2.5876	-4.551646	0.000181	1.814597	0.614802	-0.000073
1071	1.0647e+02	-2.6133	-4.624560	0.000181	1.814597	0.614802	-0.000073
1072	1.0656e+02	-2.6678	-4.702362	0.000194	1.936246	0.656018	-0.000078
1073	1.0666e+02	-2.7063	-4.774055	0.000178	1.784185	0.604498	-0.000072
1074	1.0676e+02	-2.7352	-4.846154	0.000179	1.794322	0.607933	-0.000072
1075	1.0686e+02	-2.7737	-4.923957	0.000194	1.936246	0.656018	-0.000078
1076	1.0696e+02	-2.8283	-4.993612	0.000173	1.733498	0.587325	-0.000070
1077	1.0706e+02	-2.8812	-5.070193	0.000191	1.905834	0.645714	-0.000077
1078	1.0716e+02	-2.8940	-5.141070	0.000176	1.763910	0.597629	-0.000071
1079	1.0726e+02	-2.9229	-5.216021	0.000187	1.865284	0.631975	-0.000075
1080	1.0736e+02	-3.0127	-5.284455	0.000170	1.703086	0.577021	-0.000069
1081	1.0746e+02	-3.0127	-5.358184	0.000183	1.834872	0.621671	-0.000074
1082	1.0756e+02	-3.0721	-5.432728	0.000186	1.855147	0.628541	-0.000075
1083	1.0766e+02	-3.0930	-5.505235	0.000180	1.804460	0.611367	-0.000073
1084	1.0776e+02	-3.1539	-5.578964	0.000183	1.834872	0.621671	-0.000074
1085	1.0786e+02	-3.1684	-5.654729	0.000189	1.885559	0.638845	-0.000076
1086	1.0796e+02	-3.2020	-5.718682	0.000159	1.591574	0.539240	-0.000064
1087	1.0806e+02	-3.2406	-5.796485	0.000194	1.936246	0.656018	-0.000078
1088	1.0816e+02	-3.3031	-5.866547	0.000174	1.743635	0.590760	-0.000070
1089	1.0826e+02	-3.3512	-5.948016	0.000203	2.027483	0.686930	-0.000082
1090	1.0836e+02	-3.3801	-6.015635	0.000168	1.682811	0.570152	-0.000068
1091	1.0845e+02	-3.4090	-6.092215	0.000191	1.905834	0.645714	-0.000077
1092	1.0855e+02	-3.4748	-6.163093	0.000176	1.763910	0.597629	-0.000071
1093	1.0865e+02	-3.4908	-6.232748	0.000173	1.733498	0.587325	-0.000070
1094	1.0875e+02	-3.5486	-6.306070	0.000182	1.824735	0.618237	-0.000074
1095	1.0885e+02	-3.5855	-6.378170	0.000179	1.794322	0.607933	-0.000072
1096	1.0895e+02	-3.6272	-6.455157	0.000192	1.915971	0.649149	-0.000077
1097	1.0905e+02	-3.6641	-6.524406	0.000172	1.723360	0.583890	-0.000070
1098	1.0915e+02	-3.7026	-6.594469	0.000174	1.743635	0.590760	-0.000070
1099	1.0925e+02	-3.7539	-6.667790	0.000182	1.824735	0.618237	-0.000074
1100	1.0935e+02	-3.7699	-6.741927	0.000185	1.845009	0.625106	-0.000075
1101	1.0945e+02	-3.8245	-6.816878	0.000187	1.865284	0.631975	-0.000075
1102	1.0955e+02	-3.8582	-6.887755	0.000176	1.763910	0.597629	-0.000071
1103	1.0965e+02	-3.9223	-6.959447	0.000178	1.784185	0.604498	-0.000072
1104	1.0975e+02	-3.9528	-7.032769	0.000182	1.824735	0.618237	-0.000074
1105	1.0985e+02	-3.9801	-7.098351	0.000163	1.632124	0.552978	-0.000066
1106	1.0995e+02	-4.0250	-7.172488	0.000185	1.845009	0.625106	-0.000075
1107	1.1005e+02	-4.0619	-7.246624	0.000185	1.845009	0.625106	-0.000075
1108	1.1015e+02	-4.1020	-7.323612	0.000192	1.915971	0.649149	-0.000077
1109	1.1025e+02	-4.1309	-7.387972	0.000160	1.601711	0.542675	-0.000065
1110	1.1035e+02	-4.1822	-7.460071	0.000179	1.794322	0.607933	-0.000072
1111	1.1044e+02	-4.2159	-7.526061	0.000164	1.642261	0.556413	-0.000066
1112	1.1054e+02	-4.2641	-7.593273	0.000167	1.672673	0.566717	-0.000068
1113	1.1064e+02	-4.3009	-7.672704	0.000198	1.976796	0.669757	-0.000080
1114	1.1074e+02	-4.3427	-7.746433	0.000183	1.834872	0.621671	-0.000074
1115	1.1084e+02	-4.3892	-7.807535	0.000152	1.520612	0.515197	-0.000061
1116	1.1094e+02	-4.4309	-7.880042	0.000180	1.804460	0.611367	-0.000073
1117	1.1104e+02	-4.4742	-7.953363	0.000182	1.824735	0.618237	-0.000074
1118	1.1114e+02	-4.5207	-8.026278	0.000181	1.814597	0.614802	-0.000073
1119	1.1124e+02	-4.5368	-8.089008	0.000156	1.561162	0.528936	-0.000063
1120	1.1134e+02	-4.5849	-8.161108	0.000179	1.794322	0.607933	-0.000072
1121	1.1144e+02	-4.6106	-8.231986	0.000176	1.763910	0.597629	-0.000071
1122	1.1154e+02	-4.6539	-8.309381	0.000193	1.926109	0.652583	-0.000078
1123	1.1164e+02	-4.6908	-8.371704	0.000155	1.551024	0.525501	-0.000063
1124	1.1174e+02	-4.7437	-8.437694	0.000164	1.642261	0.556413	-0.000066
1125	1.1184e+02	-4.7999	-8.509386	0.000178	1.784185	0.604498	-0.000072
1126	1.1194e+02	-4.8143	-8.578634	0.000172	1.723360	0.583890	-0.000070
1127	1.1204e+02	-4.8544	-8.645846	0.000167	1.672673	0.566717	-0.000068
1128	1.1214e+02	-4.8977	-8.720389	0.000186	1.855147	0.628541	-0.000075
1129	1.1224e+02	-4.9394	-8.784342	0.000159	1.591574	0.539240	-0.000064
1130	1.1234e+02	-4.9763	-8.852368	0.000169	1.692948	0.573586	-0.000068
1131	1.1244e+02	-5.0132	-8.925690	0.000182	1.824735	0.618237	-0.000074
1132	1.1253e+02	-5.0614	-8.999012	0.000182	1.824735	0.618237	-0.000074
1133	1.1263e+02	-5.0774	-9.064186	0.000162	1.621986	0.549544	-0.000066
1134	1.1273e+02	-5.1416	-9.133435	0.000172	1.723360	0.583890	-0.000070
1135	1.1283e+02	-5.1656	-9.210422	0.000192	1.915971	0.649149	-0.000077
1136	1.1293e+02	-5.2041	-9.282115	0.000178	1.784185	0.604498	-0.000072
1137	1.1303e+02	-5.2490	-9.346068	0.000159	1.591574	0.539240	-0.000064
1138	1.1313e+02	-5.2908	-9.414908	0.000171	1.713223	0.580456	-0.000069
1139	1.1323e+02	-5.3437	-9.484157	0.000172	1.723360	0.583890	-0.000070
1140	1.1333e+02	-5.3902	-9.552590	0.000170	1.703086	0.577021	-0.000069
1141	1.1343e+02	-5.4448	-9.622653	0.000174	1.743635	0.590760	-0.000070
1142	1.1353e+02	-5.4464	-9.689050	0.000165	1.652398	0.559848	-0.000067
1143	1.1363e+02	-5.5089	-9.758298	0.000172	1.723360	0.583890	-0.000070
1144	1.1373e+02	-5.5346	-9.825102	0.000166	1.662536	0.563282	-0.000067
1145	1.1383e+02	-5.5667	-9.898017	0.000181	1.814597	0.614802	-0.000073
1146	1.1393e+02	-5.6228	-9.961969	0.000159	1.591574	0.539240	-0.000064
1147	1.1403e+02	-5.6549	-10.033662	0.000178	1.784185	0.604498	-0.000072
1148	1.1413e+02	-5.7063	-10.103317	0.000173	1.733498	0.587325	-0.000070
1149	1.1423e+02	-5.7271	-10.169307	0.000164	1.642261	0.556413	-0.000066
1150	1.1433e+02	-5.7640	-10.241814	0.000180	1.804460	0.611367	-0.000073
1151	1.1442e+02	-5.8218	-10.307803	0.000164	1.642261	0.556413	-0.000066
1152	1.1452e+02	-5.8619	-10.372571	0.000161	1.611849	0.546109	-0.000065
1153	1.1462e+02	-5.9036	-10.447522	0.000187	1.865284	0.631975	-0.000075
1154	1.1472e+02	-5.9084	-10.512697	0.000162	1.621986	0.549544	-0.000066
1155	1.1482e+02	-5.9806	-10.578686	0.000164	1.642261	0.556413	-0.000066
1156	1.1492e+02	-5.9998	-10.649156	0.000175	1.753773	0.594194	-0.000071
1157	1.1502e+02	-6.0447	-10.712294	0.000157	1.571299	0.532371	-0.000063
1158	1.1512e+02	-6.0720	-10.780728	0.000170	1.703086	0.577021	-0.000069
1159	1.1522e+02	-6.1378	-10.840607	0.000149	1.490200	0.504893	-0.000060
1160	1.1532e+02	-6.1619	-10.909856	0.000172	1.723360	0.583890	-0.000070
1161	1.1542e+02	-6.2116	-10.977882	0.000169	1.692948	0.573586	-0.000068
1162	1.1552e+02	-6.2533	-11.050389	0.000180	1.804460	0.611367	-0.000073
1163	1.1562e+02	-6.2870	-11.111083	0.000151	1.510475	0.511763	-0.000061
1164	1.1572e+02	-6.3319	-11.177480	0.000165	1.652398	0.559848	-0.000067
1165	1.1582e+02	-6.3881	-11.241840	0.000160	1.601711	0.542675	-0.000065
1166	1.1592e+02	-6.4089	-11.308644	0.000166	1.662536	0.563282	-0.000067
1167	1.1602e+02	-6.4394	-11.364450	0.000139	1.388826	0.470547	-0.000056
1168	1.1612e+02	-6.4907	-11.425551	0.000152	1.520612	0.515197	-0.000061
1169	1.1622e+02	-6.5228	-11.487875	0.000155	1.551024	0.525501	-0.000063
1170	1.1632e+02	-6.5902	-11.557938	0.000174	1.743635	0.590760	-0.000070
1171	1.1642e+02	-6.6110	-11.617410	0.000148	1.480062	0.501459	-0.000060
1172	1.1651e+02	-6.6351	-11.682992	0.000163	1.632124	0.552978	-0.000066
1173	1.1661e+02	-6.6768	-11.744500	0.000153	1.530750	0.518632	-0.000062
1174	1.1671e+02	-6.7185	-11.803972	0.000148	1.480062	0.501459	-0.000060
1175	1.1681e+02	-6.7586	-11.865889	0.000154	1.540887	0.522067	-0.000062
1176	1.1691e+02	-6.7971	-11.937173	0.000177	1.774047	0.601064	-0.000072
1177	1.1701e+02	-6.8581	-11.993794	0.000141	1.409101	0.477416	-0.000057
1178	1.1711e+02	-6.8806	-12.054488	0.000151	1.510475	0.511763	-0.000061
1179	1.1721e+02	-6.9287	-12.118034	0.000158	1.581437	0.535805	-0.000064
1180	1.1731e+02	-6.9896	-12.185245	0.000167	1.672673	0.566717	-0.000068
1181	1.1741e+02	-6.9945	-12.241866	0.000141	1.409101	0.477416	-0.000057
1182	1.1751e+02	-7.0522	-12.302152	0.000150	1.500337	0.508328	-0.000061
1183	1.1761e+02	-7.0923	-12.362439	0.000150	1.500337	0.508328	-0.000061
1184	1.1771e+02	-7.1100	-12.425170	0.000156	1.561162	0.528936	-0.000063
1185	1.1781e+02	-7.1693	-12.489530	0.000160	1.601711	0.542675	-0.000065
1186	1.1791e+02	-7.2062	-12.542077	0.000131	1.307726	0.443070	-0.000053
1187	1.1801e+02	-7.2383	-12.606845	0.000161	1.611849	0.546109	-0.000065
1188	1.1811e+02	-7.2736	-12.670797	0.000159	1.591574	0.539240	-0.000064
1189	1.1821e+02	-7.3105	-12.732713	0.000154	1.540887	0.522067	-0.000062
1190	1.1831e+02	-7.3634	-12.786075	0.000133	1.328001	0.449939	-0.000054
1191	1.1841e+02	-7.4388	-12.852880	0.000166	1.662536	0.563282	-0.000067
1192	1.1850e+02	-7.4565	-12.908685	0.000139	1.388826	0.470547	-0.000056
1193	1.1860e+02	-7.4918	-12.969787	0.000152	1.520612	0.515197	-0.000061
1194	1.1870e+02	-7.5271	-13.029666	0.000149	1.490200	0.504893	-0.000060
1195	1.1880e+02	-7.5559	-13.087509	0.000144	1.439513	0.487720	-0.000058
1196	1.1890e+02	-7.6169	-13.148610	0.000152	1.520612	0.515197	-0.000061
1197	1.1900e+02	-7.6313	-13.212563	0.000159	1.591574	0.539240	-0.000064
1198	1.1910e+02	-7.6698	-13.269184	0.000141	1.409101	0.477416	-0.000057
1199	1.1920e+02	-7.7404	-13.330285	0.000152	1.520612	0.515197	-0.000061
1200	1.1930e+02	-7.7308	-13.384054	-0.000134	-1.338139	-0.453374	-0.000054
1201	1.1940e+02	-7.7950	-13.448007	0.000159	1.591574	0.539240	-0.000064
1202	1.1950e+02	-7.8383	-13.501369	0.000133	1.328001	0.449939	-0.000054
1203	1.1960e+02	-7.8896	-13.558804	0.000143	1.429375	0.484285	-0.000058
1204	1.1970e+02	-7.9121	-13.620313	0.000153	1.530750	0.518632	-0.000062
1205	1.1980e+02	-7.9522	-13.685895	0.000163	1.632124	0.552978	-0.000066
1206	1.1990e+02	-8.0147	-13.738850	0.000132	1.317864	0.446504	-0.000053
1207	1.2000e+02	-8.0356	-13.798729	0.000149	1.490200	0.504893	-0.000060
1208	1.2010e+02	-8.0998	-13.855350	0.000141	1.409101	0.477416	-0.000057
1209	1.2020e+02	-8.1190	-13.913192	0.000144	1.439513	0.487720	-0.000058
1210	1.2030e+02	-8.1591	-13.974701	0.000153	1.530750	0.518632	-0.000062
1211	1.2039e+02	-8.1960	-14.030914	0.000140	1.398963	0.473982	-0.000056
1212	1.2049e+02	-8.2409	-14.085091	0.000135	1.348276	0.456808	-0.000054
1213	1.2059e+02	-8.2859	-14.148636	0.000158	1.581437	0.535805	-0.000064
1214	1.2069e+02	-8.3212	-14.204035	0.000138	1.378688	0.467112	-0.000056
1215	1.2079e+02	-8.3709	-14.259841	0.000139	1.388826	0.470547	-0.000056
1216	1.2089e+02	-8.4158	-14.320127	0.000150	1.500337	0.508328	-0.000061
1217	1.2099e+02	-8.4415	-14.364528	0.000110	1.104978	0.374377	-0.000045
1218	1.2109e+02	-8.4896	-14.426036	0.000153	1.530750	0.518632	-0.000062
1219	1.2119e+02	-8.5329	-14.486323	0.000150	1.500337	0.508328	-0.000061
1220	1.2129e+02	-8.5618	-14.543758	0.000143	1.429375	0.484285	-0.000058
1221	1.2139e+02	-8.6035	-14.595084	0.000128	1.277314	0.432766	-0.000052
1222	1.2149e+02	-8.6468	-14.648853	0.000134	1.338139	0.453374	-0.000054
1223	1.2159e+02	-8.6773	-14.703844	0.000137	1.368551	0.463678	-0.000055
1224	1.2169e+02	-8.7206	-14.763316	0.000148	1.480062	0.501459	-0.000060
1225	1.2179e+02	-8.7543	-14.821566	0.000145	1.449650	0.491155	-0.000059
1226	1.2189e+02	-8.7896	-14.873706	0.000130	1.297589	0.439635	-0.000052
1227	1.2199e+02	-8.8457	-14.929512	0.000139	1.388826	0.470547	-0.000056
1228	1.2209e+02	-8.8698	-14.986540	0.000142	1.419238	0.480851	-0.000057
1229	1.2219e+02	-8.9083	-15.041938	0.000138	1.378688	0.467112	-0.000056
1230	1.2229e+02	-8.9532	-15.098152	0.000140	1.398963	0.473982	-0.000056
1231	1.2239e+02	-9.0190	-15.151514	0.000133	1.328001	0.449939	-0.000054
1232	1.2248e+02	-9.0719	-15.206097	0.000136	1.358413	0.460243	-0.000055
1233	1.2258e+02	-9.0848	-15.263125	0.000142	1.419238	0.480851	-0.000057
1234	1.2268e+02	-9.1153	-15.317302	0.000135	1.348276	0.456808	-0.000054
1235	1.2278e+02	-9.1714	-15.371479	0.000135	1.348276	0.456808	-0.000054
1236	1.2288e+02	-9.1874	-15.424840	0.000133	1.328001	0.449939	-0.000054
1237	1.2298e+02	-9.2388	-15.479424	0.000136	1.358413	0.460243	-0.000055
1238	1.2308e+02	-9.2628	-15.531971	0.000131	1.307726	0.443070	-0.000053
1239	1.2318e+02	-9.3222	-15.587777	0.000139	1.388826	0.470547	-0.000056
1240	1.2328e+02	-9.3848	-15.645213	0.000143	1.429375	0.484285	-0.000058
1241	1.2338e+02	-9.3816	-15.701833	-0.000141	-1.409101	-0.477416	-0.000057
1242	1.2348e+02	-9.4313	-15.760898	0.000147	1.469925	0.498024	-0.000059
1243	1.2358e+02	-9.4971	-15.815889	0.000137	1.368551	0.463678	-0.000055
1244	1.2368e+02	-9.5436	-15.870066	0.000135	1.348276	0.456808	-0.000054
1245	1.2378e+02	-9.5692	-15.925872	0.000139	1.388826	0.470547	-0.000056
1246	1.2388e+02	-9.5725	-15.977197	0.000128	1.277314	0.432766	-0.000052
1247	1.2398e+02	-9.6479	-16.028929	0.000129	1.287452	0.436200	-0.000052
1248	1.2408e+02	-9.6751	-16.088401	0.000148	1.480062	0.501459	-0.000060
1249	1.2418e+02	-9.7200	-16.140134	0.000129	1.287452	0.436200	-0.000052
1250	1.2428e+02	-9.7682	-16.195940	0.000139	1.388826	0.470547	-0.000056
1251	1.2438e+02	-9.8147	-16.254597	0.000146	1.459788	0.494589	-0.000059
1252	1.2447e+02	-9.8356	-16.307552	0.000132	1.317864	0.446504	-0.000053
1253	1.2457e+02	-9.8933	-16.370282	0.000156	1.561162	0.528936	-0.000063
1254	1.2467e+02	-9.8981	-16.423237	0.000132	1.317864	0.446504	-0.000053
1255	1.2477e+02	-9.9430	-16.479450	0.000140	1.398963	0.473982	-0.000056
1256	1.2487e+02	-9.9992	-16.538922	0.000148	1.480062	0.501459	-0.000060
1257	1.2497e+02	-10.0409	-16.594728	0.000139	1.388826	0.470547	-0.000056
1258	1.2507e+02	-10.0601	-16.653793	0.000147	1.469925	0.498024	-0.000059
1259	1.2517e+02	-10.0842	-16.708784	0.000137	1.368551	0.463678	-0.000055
1260	1.2527e+02	-10.1339	-16.767034	0.000145	1.449650	0.491155	-0.000059
1261	1.2537e+02	-10.1612	-16.819581	0.000131	1.307726	0.443070	-0.000053
1262	1.2547e+02	-10.2559	-16.872943	0.000133	1.328001	0.449939	-0.000054
1263	1.2557e+02	-10.2559	-16.938118	0.000162	1.621986	0.549544	-0.000066
1264	1.2567e+02	-10.3281	-16.991480	0.000133	1.328001	0.449939	-0.000054
1265	1.2577e+02	-10.3601	-17.044434	0.000132	1.317864	0.446504	-0.000053
1266	1.2587e+02	-10.4002	-17.105128	0.000151	1.510475	0.511763	-0.000061
1267	1.2597e+02	-10.4275	-17.163378	0.000145	1.449650	0.491155	-0.000059
1268	1.2607e+02	-10.4788	-17.218777	0.000138	1.378688	0.467112	-0.000056
1269	1.2617e+02	-10.5254	-17.273768	0.000137	1.368551	0.463678	-0.000055
1270	1.2627e+02	-10.5526	-17.333240	0.000148	1.480062	0.501459	-0.000060
1271	1.2636e+02	-10.5831	-17.386602	0.000133	1.328001	0.449939	-0.000054
1272	1.2646e+02	-10.6248	-17.450555	0.000159	1.591574	0.539240	-0.000064
1273	1.2656e+02	-10.6730	-17.503102	0.000131	1.307726	0.443070	-0.000053
1274	1.2666e+02	-10.7195	-17.562167	0.000147	1.469925	0.498024	-0.000059
1275	1.2676e+02	-10.7580	-17.623268	0.000152	1.520612	0.515197	-0.000061
1276	1.2686e+02	-10.7853	-17.678667	0.000138	1.378688	0.467112	-0.000056
1277	1.2696e+02	-10.8189	-17.729992	0.000128	1.277314	0.432766	-0.000052
1278	1.2706e+02	-10.8671	-17.784576	0.000136	1.358413	0.460243	-0.000055
1279	1.2716e+02	-10.9184	-17.841604	0.000142	1.419238	0.480851	-0.000057
1280	1.2726e+02	-10.9441	-17.901890	0.000150	1.500337	0.508328	-0.000061
1281	1.2736e+02	-11.0050	-17.957289	0.000138	1.378688	0.467112	-0.000056
1282	1.2746e+02	-11.0339	-18.015946	0.000146	1.459788	0.494589	-0.000059
1283	1.2756e+02	-11.0740	-18.070123	0.000135	1.348276	0.456808	-0.000054
1284	1.2766e+02	-11.1173	-18.127558	0.000143	1.429375	0.484285	-0.000058
1285	1.2776e+02	-11.1302	-18.186623	0.000147	1.469925	0.498024	-0.000059
1286	1.2786e+02	-11.1959	-18.245688	0.000147	1.469925	0.498024	-0.000059
1287	1.2796e+02	-11.2120	-18.298642	0.000132	1.317864	0.446504	-0.000053
1288	1.2806e+02	-11.2601	-18.356485	0.000144	1.439513	0.487720	-0.000058
1289	1.2816e+02	-11.3098	-18.414327	0.000144	1.439513	0.487720	-0.000058
1290	1.2826e+02	-11.3532	-18.467689	0.000133	1.328001	0.449939	-0.000054
1291	1.2835e+02	-11.3676	-18.526347	0.000146	1.459788	0.494589	-0.000059
1292	1.2845e+02	-11.4590	-18.581338	0.000137	1.368551	0.463678	-0.000055
1293	1.2855e+02	-11.4879	-18.637144	0.000139	1.388826	0.470547	-0.000056
1294	1.2865e+02	-11.5072	-18.696208	0.000147	1.469925	0.498024	-0.000059
1295	1.2875e+02	-11.5441	-18.754458	0.000145	1.449650	0.491155	-0.000059
1296	1.2885e+02	-11.6050	-18.804154	0.000124	1.236765	0.419027	-0.000050
1297	1.2895e+02	-11.6307	-18.863219	0.000147	1.469925	0.498024	-0.000059
1298	1.2905e+02	-11.6548	-18.917395	0.000135	1.348276	0.456808	-0.000054
1299	1.2915e+02	-11.7350	-18.978497	0.000152	1.520612	0.515197	-0.000061
1300	1.2925e+02	-11.7526	-19.032673	0.000135	1.348276	0.456808	-0.000054
1301	1.2935e+02	-11.7895	-19.096219	0.000158	1.581437	0.535805	-0.000064
1302	1.2945e+02	-11.8280	-19.152839	0.000141	1.409101	0.477416	-0.000057
1303	1.2955e+02	-11.8697	-19.210682	0.000144	1.439513	0.487720	-0.000058
1304	1.2965e+02	-11.9178	-19.271376	0.000151	1.510475	0.511763	-0.000061
1305	1.2975e+02	-11.9467	-19.328811	0.000143	1.429375	0.484285	-0.000058
1306	1.2985e+02	-11.9708	-19.384210	0.000138	1.378688	0.467112	-0.000056
1307	1.2995e+02	-12.0334	-19.441238	0.000142	1.419238	0.480851	-0.000057
1308	1.3005e+02	-12.0831	-19.499895	0.000146	1.459788	0.494589	-0.000059
1309	1.3015e+02	-12.1055	-19.551628	0.000129	1.287452	0.436200	-0.000052
1310	1.3025e+02	-12.1312	-19.611914	0.000150	1.500337	0.508328	-0.000061
1311	1.3034e+02	-12.2130	-19.669350	0.000143	1.429375	0.484285	-0.000058
1312	1.3044e+02	-12.1922	-19.732081	-0.000156	-1.561162	-0.528936	-0.000063
1313	1.3054e+02	-12.2660	-19.781776	0.000124	1.236765	0.419027	-0.000050
1314	1.3064e+02	-12.3061	-19.843285	0.000153	1.530750	0.518632	-0.000062
1315	1.3074e+02	-12.3398	-19.903164	0.000149	1.490200	0.504893	-0.000060
1316	1.3084e+02	-12.3734	-19.956934	0.000134	1.338139	0.453374	-0.000054
1317	1.3094e+02	-12.4248	-20.013147	0.000140	1.398963	0.473982	-0.000056
1318	1.3104e+02	-12.4505	-20.072619	0.000148	1.480062	0.501459	-0.000060
1319	1.3114e+02	-12.4857	-20.132091	0.000148	1.480062	0.501459	-0.000060
1320	1.3124e+02	-12.5499	-20.185045	0.000132	1.317864	0.446504	-0.000053
1321	1.3134e+02	-12.5820	-20.246962	0.000154	1.540887	0.522067	-0.000062
1322	1.3144e+02	-12.6398	-20.298287	0.000128	1.277314	0.432766	-0.000052
1323	1.3154e+02	-12.6670	-20.352871	0.000136	1.358413	0.460243	-0.000055
1324	1.3164e+02	-12.7087	-20.410306	0.000143	1.429375	0.484285	-0.000058
1325	1.3174e+02	-12.7537	-20.468963	0.000146	1.459788	0.494589	-0.000059
1326	1.3184e+02	-12.7633	-20.520696	0.000129	1.287452	0.436200	-0.000052
1327	1.3194e+02	-12.8355	-20.573650	0.000132	1.317864	0.446504	-0.000053
1328	1.3204e+02	-12.8676	-20.635566	0.000154	1.540887	0.522067	-0.000062
1329	1.3214e+02	-12.9077	-20.688114	0.000131	1.307726	0.443070	-0.000053
1330	1.3224e+02	-12.9446	-20.741883	0.000134	1.338139	0.453374	-0.000054
1331	1.3234e+02	-13.0023	-20.792393	0.000126	1.257039	0.425896	-0.000051
1332	1.3243e+02	-13.0023	-20.853495	0.000152	1.520612	0.515197	-0.000061
1333	1.3253e+02	-13.0569	-20.908893	0.000138	1.378688	0.467112	-0.000056
1334	1.3263e+02	-13.0905	-20.963070	0.000135	1.348276	0.456808	-0.000054
1335	1.3273e+02	-13.1322	-21.018061	0.000137	1.368551	0.463678	-0.000055
1336	1.3283e+02	-13.1852	-21.068979	0.000127	1.267177	0.429331	-0.000051
1337	1.3293e+02	-13.2237	-21.126821	0.000144	1.439513	0.487720	-0.000058
1338	1.3303e+02	-13.2718	-21.180998	0.000135	1.348276	0.456808	-0.000054
1339	1.3313e+02	-13.3007	-21.235582	0.000136	1.358413	0.460243	-0.000055
1340	1.3323e+02	-13.3408	-21.284870	0.000123	1.226627	0.415593	-0.000050
1341	1.3333e+02	-13.3953	-21.336196	0.000128	1.277314	0.432766	-0.000052
1342	1.3343e+02	-13.3953	-21.387928	0.000129	1.287452	0.436200	-0.000052
1343	1.3353e+02	-13.4611	-21.438438	0.000126	1.257039	0.425896	-0.000051
1344	1.3363e+02	-13.4964	-21.486098	0.000119	1.186077	0.401854	-0.000048
1345	1.3373e+02	-13.5429	-21.545570	0.000148	1.480062	0.501459	-0.000060
1346	1.3383e+02	-13.5622	-21.600561	0.000137	1.368551	0.463678	-0.000055
1347	1.3393e+02	-13.6231	-21.657181	0.000141	1.409101	0.477416	-0.000057
1348	1.3403e+02	-13.6456	-21.704841	0.000119	1.186077	0.401854	-0.000048
1349	1.3413e+02	-13.6889	-21.756980	0.000130	1.297589	0.439635	-0.000052
1350	1.3423e+02	-13.7483	-21.808306	0.000128	1.277314	0.432766	-0.000052
1351	1.3432e+02	-13.7675	-21.861667	0.000133	1.328001	0.449939	-0.000054
1352	1.3442e+02	-13.8076	-21.911363	0.000124	1.236765	0.419027	-0.000050
1353	1.3452e+02	-13.8702	-21.961874	0.000126	1.257039	0.425896	-0.000051
1354	1.3462e+02	-13.9023	-22.016458	0.000136	1.358413	0.460243	-0.000055
1355	1.3472e+02	-13.9360	-22.069005	0.000131	1.307726	0.443070	-0.000053
1356	1.3482e+02	-13.9665	-22.116664	0.000119	1.186077	0.401854	-0.000048
1357	1.3492e+02	-14.0242	-22.169618	0.000132	1.317864	0.446504	-0.000053
1358	1.3502e+02	-14.0964	-22.221351	0.000129	1.287452	0.436200	-0.000052
1359	1.3512e+02	-14.0932	-22.266973	-0.000114	-1.135390	-0.384681	-0.000046
1360	1.3522e+02	-14.1269	-22.321150	0.000135	1.348276	0.456808	-0.000054
1361	1.3532e+02	-14.1910	-22.374104	0.000132	1.317864	0.446504	-0.000053
1362	1.3542e+02	-14.2311	-22.425022	0.000127	1.267177	0.429331	-0.000051
1363	1.3552e+02	-14.2552	-22.472681	0.000119	1.186077	0.401854	-0.000048
1364	1.3562e+02	-14.2809	-22.528487	0.000139	1.388826	0.470547	-0.000056
1365	1.3572e+02	-14.3386	-22.578590	0.000125	1.246902	0.422462	-0.000050
1366	1.3582e+02	-14.3819	-22.626657	0.000120	1.196215	0.405289	-0.000048
1367	1.3592e+02	-14.4301	-22.680019	0.000133	1.328001	0.449939	-0.000054
1368	1.3602e+02	-14.4670	-22.728492	0.000121	1.206352	0.408723	-0.000049
1369	1.3612e+02	-14.4782	-22.776966	0.000121	1.206352	0.408723	-0.000049
1370	1.3622e+02	-14.5488	-22.827884	0.000127	1.267177	0.429331	-0.000051
1371	1.3631e+02	-14.5905	-22.877580	0.000124	1.236765	0.419027	-0.000050
1372	1.3641e+02	-14.6290	-22.926868	0.000123	1.226627	0.415593	-0.000050
1373	1.3651e+02	-14.6787	-22.978601	0.000129	1.287452	0.436200	-0.000052
1374	1.3661e+02	-14.7060	-23.027889	0.000123	1.226627	0.415593	-0.000050
1375	1.3671e+02	-14.7381	-23.078807	0.000127	1.267177	0.429331	-0.000051
1376	1.3681e+02	-14.7942	-23.125244	0.000116	1.155665	0.391550	-0.000047
1377	1.3691e+02	-14.8408	-23.181457	0.000140	1.398963	0.473982	-0.000056
1378	1.3701e+02	-14.8664	-23.229931	0.000121	1.206352	0.408723	-0.000049
1379	1.3711e+02	-14.8825	-23.275961	0.000115	1.145528	0.388115	-0.000046
1380	1.3721e+02	-14.9643	-23.326879	0.000127	1.267177	0.429331	-0.000051
1381	1.3731e+02	-14.9707	-23.379018	0.000130	1.297589	0.439635	-0.000052
1382	1.3741e+02	-15.0092	-23.425863	0.000117	1.165803	0.394985	-0.000047
1383	1.3751e+02	-15.0525	-23.471078	0.000113	1.125253	0.381246	-0.000045
1384	1.3761e+02	-15.1022	-23.523218	0.000130	1.297589	0.439635	-0.000052
1385	1.3771e+02	-15.1440	-23.565989	0.000106	1.064428	0.360638	-0.000043
1386	1.3781e+02	-15.1793	-23.614055	0.000120	1.196215	0.405289	-0.000048
1387	1.3791e+02	-15.2081	-23.661307	0.000118	1.175940	0.398419	-0.000047
1388	1.3801e+02	-15.2675	-23.709373	0.000120	1.196215	0.405289	-0.000048
1389	1.3811e+02	-15.2915	-23.756218	0.000117	1.165803	0.394985	-0.000047
1390	1.3821e+02	-15.3653	-23.807543	0.000128	1.277314	0.432766	-0.000052
1391	1.3831e+02	-15.3782	-23.856831	0.000123	1.226627	0.415593	-0.000050
1392	1.3840e+02	-15.3942	-23.910193	0.000133	1.328001	0.449939	-0.000054
1393	1.3850e+02	-15.4407	-23.958667	0.000121	1.206352	0.408723	-0.000049
1394	1.3860e+02	-15.4905	-24.000623	0.000104	1.044154	0.353769	-0.000042
1395	1.3870e+02	-15.5338	-24.048282	0.000119	1.186077	0.401854	-0.000048
1396	1.3880e+02	-15.5675	-24.100829	0.000131	1.307726	0.443070	-0.000053
1397	1.3890e+02	-15.6220	-24.143600	0.000106	1.064428	0.360638	-0.000043
1398	1.3900e+02	-15.6349	-24.184742	0.000102	1.023879	0.346900	-0.000041
1399	1.3910e+02	-15.7135	-24.234845	0.000125	1.246902	0.422462	-0.000050
1400	1.3920e+02	-15.7488	-24.284541	0.000124	1.236765	0.419027	-0.000050
1401	1.3930e+02	-15.7520	-24.335051	0.000126	1.257039	0.425896	-0.000051
1402	1.3940e+02	-15.8065	-24.376193	0.000102	1.023879	0.346900	-0.000041
1403	1.3950e+02	-15.8338	-24.424259	0.000120	1.196215	0.405289	-0.000048
1404	1.3960e+02	-15.8947	-24.471918	0.000119	1.186077	0.401854	-0.000048
1405	1.3970e+02	-15.9236	-24.519985	0.000120	1.196215	0.405289	-0.000048
1406	1.3980e+02	-15.9669	-24.570088	0.000125	1.246902	0.422462	-0.000050
1407	1.3990e+02	-15.9942	-24.618562	0.000121	1.206352	0.408723	-0.000049
1408	1.4000e+02	-16.0423	-24.668665	0.000125	1.246902	0.422462	-0.000050
1409	1.4010e+02	-16.0824	-24.714287	0.000114	1.135390	0.384681	-0.000046
1410	1.4020e+02	-16.1257	-24.757058	0.000106	1.064428	0.360638	-0.000043
1411	1.4029e+02	-16.1755	-24.811642	0.000136	1.358413	0.460243	-0.000055
1412	1.4039e+02	-16.2204	-24.857672	0.000115	1.145528	0.388115	-0.000046
1413	1.4049e+02	-16.2396	-24.909404	0.000129	1.287452	0.436200	-0.000052
1414	1.4059e+02	-16.2765	-24.955841	0.000116	1.155665	0.391550	-0.000047
1415	1.4069e+02	-16.3263	-24.999427	0.000108	1.084703	0.367507	-0.000044
1416	1.4079e+02	-16.3535	-25.049938	0.000126	1.257039	0.425896	-0.000051
1417	1.4089e+02	-16.4161	-25.097597	0.000119	1.186077	0.401854	-0.000048
1418	1.4099e+02	-16.4578	-25.144441	0.000117	1.165803	0.394985	-0.000047
1419	1.4109e+02	-16.4755	-25.191285	0.000117	1.165803	0.394985	-0.000047
1420	1.4119e+02	-16.5348	-25.247091	0.000139	1.388826	0.470547	-0.000056
1421	1.4129e+02	-16.5733	-25.291899	0.000112	1.115116	0.377811	-0.000045
1422	1.4139e+02	-16.6134	-25.344039	0.000130	1.297589	0.439635	-0.000052
1423	1.4149e+02	-16.6455	-25.391291	0.000118	1.175940	0.398419	-0.000047
1424	1.4159e+02	-16.6888	-25.443430	0.000130	1.297589	0.439635	-0.000052
1425	1.4169e+02	-16.7273	-25.492719	0.000123	1.226627	0.415593	-0.000050
1426	1.4179e+02	-16.7482	-25.544044	0.000128	1.277314	0.432766	-0.000052
1427	1.4189e+02	-16.7803	-25.593740	0.000124	1.236765	0.419027	-0.000050
1428	1.4199e+02	-16.8316	-25.640584	0.000117	1.165803	0.394985	-0.000047
1429	1.4209e+02	-16.8813	-25.694353	0.000134	1.338139	0.453374	-0.000054
1430	1.4219e+02	-16.9503	-25.746086	0.000129	1.287452	0.436200	-0.000052
1431	1.4228e+02	-16.9519	-25.798633	0.000131	1.307726	0.443070	-0.000053
1432	1.4238e+02	-17.0097	-25.842626	0.000109	1.094841	0.370942	-0.000044
1433	1.4248e+02	-17.0450	-25.896395	0.000134	1.338139	0.453374	-0.000054
1434	1.4258e+02	-17.1011	-25.948943	0.000131	1.307726	0.443070	-0.000053
1435	1.4268e+02	-17.1236	-26.000268	0.000128	1.277314	0.432766	-0.000052
1436	1.4278e+02	-17.1621	-26.048741	0.000121	1.206352	0.408723	-0.000049
1437	1.4288e+02	-17.2022	-26.100067	0.000128	1.277314	0.432766	-0.000052
1438	1.4298e+02	-17.2327	-26.149762	0.000124	1.236765	0.419027	-0.000050
1439	1.4308e+02	-17.2920	-26.205976	0.000140	1.398963	0.473982	-0.000056
1440	1.4318e+02	-17.3193	-26.254042	0.000120	1.196215	0.405289	-0.000048
1441	1.4328e+02	-17.3803	-26.304960	0.000127	1.267177	0.429331	-0.000051
1442	1.4338e+02	-17.4139	-26.354656	0.000124	1.236765	0.419027	-0.000050
1443	1.4348e+02	-17.4348	-26.406388	0.000129	1.287452	0.436200	-0.000052
1444	1.4358e+02	-17.4861	-26.460157	0.000134	1.338139	0.453374	-0.000054
1445	1.4368e+02	-17.5150	-26.507409	0.000118	1.175940	0.398419	-0.000047
1446	1.4378e+02	-17.5760	-26.558734	0.000128	1.277314	0.432766	-0.000052
1447	1.4388e+02	-17.5968	-26.613318	0.000136	1.358413	0.460243	-0.000055
1448	1.4398e+02	-17.6514	-26.658126	0.000112	1.115116	0.377811	-0.000045
1449	1.4408e+02	-17.6754	-26.713932	0.000139	1.388826	0.470547	-0.000056
1450	1.4418e+02	-17.7268	-26.765257	0.000128	1.277314	0.432766	-0.000052
1451	1.4428e+02	-17.7829	-26.816582	0.000128	1.277314	0.432766	-0.000052
1452	1.4437e+02	-17.8022	-26.863834	0.000118	1.175940	0.398419	-0.000047
1453	1.4447e+02	-17.8567	-26.918418	0.000136	1.358413	0.460243	-0.000055
1454	1.4457e+02	-17.8808	-26.964448	0.000115	1.145528	0.388115	-0.000046
1455	1.4467e+02	-17.9209	-27.023920	0.000148	1.480062	0.501459	-0.000060
1456	1.4477e+02	-17.9610	-27.074430	0.000126	1.257039	0.425896	-0.000051
1457	1.4487e+02	-17.9899	-27.125755	0.000128	1.277314	0.432766	-0.000052
1458	1.4497e+02	-18.0380	-27.176266	0.000126	1.257039	0.425896	-0.000051
1459	1.4507e+02	-18.0765	-27.226369	0.000125	1.246902	0.422462	-0.000050
1460	1.4517e+02	-18.1166	-27.278509	0.000130	1.297589	0.439635	-0.000052
1461	1.4527e+02	-18.1808	-27.332278	0.000134	1.338139	0.453374	-0.000054
1462	1.4537e+02	-18.1920	-27.385640	0.000133	1.328001	0.449939	-0.000054
1463	1.4547e+02	-18.2546	-27.432484	0.000117	1.165803	0.394985	-0.000047
1464	1.4557e+02	-18.2786	-27.483402	0.000127	1.267177	0.429331	-0.000051
1465	1.4567e+02	-18.3203	-27.538393	0.000137	1.368551	0.463678	-0.000055
1466	1.4577e+02	-18.3637	-27.591755	0.000133	1.328001	0.449939	-0.000054
1467	1.4587e+02	-18.4198	-27.642673	0.000127	1.267177	0.429331	-0.000051
1468	1.4597e+02	-18.4374	-27.698479	0.000139	1.388826	0.470547	-0.000056
1469	1.4607e+02	-18.4663	-27.755507	0.000142	1.419238	0.480851	-0.000057
1470	1.4617e+02	-18.5481	-27.807239	0.000129	1.287452	0.436200	-0.000052
1471	1.4626e+02	-18.5802	-27.858972	0.000129	1.287452	0.436200	-0.000052
1472	1.4636e+02	-18.6316	-27.911926	0.000132	1.317864	0.446504	-0.000053
1473	1.4646e+02	-18.6508	-27.970991	0.000147	1.469925	0.498024	-0.000059
1474	1.4656e+02	-18.6765	-28.021094	0.000125	1.246902	0.422462	-0.000050
1475	1.4666e+02	-18.7390	-28.074863	0.000134	1.338139	0.453374	-0.000054
1476	1.4676e+02	-18.7888	-28.122115	0.000118	1.175940	0.398419	-0.000047
1477	1.4686e+02	-18.7952	-28.178736	0.000141	1.409101	0.477416	-0.000057
1478	1.4696e+02	-18.8465	-28.230061	0.000128	1.277314	0.432766	-0.000052
1479	1.4706e+02	-18.9203	-28.284645	0.000136	1.358413	0.460243	-0.000055
1480	1.4716e+02	-18.9332	-28.340043	0.000138	1.378688	0.467112	-0.000056
1481	1.4726e+02	-18.9652	-28.392591	0.000131	1.307726	0.443070	-0.000053
1482	1.4736e+02	-18.9781	-28.452470	0.000149	1.490200	0.504893	-0.000060
1483	1.4746e+02	-19.0519	-28.505832	0.000133	1.328001	0.449939	-0.000054
1484	1.4756e+02	-19.0727	-28.558786	0.000132	1.317864	0.446504	-0.000053
1485	1.4766e+02	-19.1337	-28.610926	0.000130	1.297589	0.439635	-0.000052
1486	1.4776e+02	-19.1690	-28.667139	0.000140	1.398963	0.473982	-0.000056
1487	1.4786e+02	-19.2380	-28.720909	0.000134	1.338139	0.453374	-0.000054
1488	1.4796e+02	-19.2235	-28.776307	-0.000138	-1.378688	-0.467112	-0.000056
1489	1.4806e+02	-19.2684	-28.829669	0.000133	1.328001	0.449939	-0.000054
1490	1.4816e+02	-19.3085	-28.883031	0.000133	1.328001	0.449939	-0.000054
1491	1.4825e+02	-19.3342	-28.933541	0.000126	1.257039	0.425896	-0.000051
1492	1.4835e+02	-19.4112	-28.980793	0.000118	1.175940	0.398419	-0.000047
1493	1.4845e+02	-19.4481	-29.034970	0.000135	1.348276	0.456808	-0.000054
1494	1.4855e+02	-19.4497	-29.087517	0.000131	1.307726	0.443070	-0.000053
1495	1.4865e+02	-19.5187	-29.140879	0.000133	1.328001	0.449939	-0.000054
1496	1.4875e+02	-19.5412	-29.200758	0.000149	1.490200	0.504893	-0.000060
1497	1.4885e+02	-19.6214	-29.253713	0.000132	1.317864	0.446504	-0.000053
1498	1.4895e+02	-19.6294	-29.302594	0.000122	1.216490	0.412158	-0.000049
1499	1.4905e+02	-19.6727	-29.358807	0.000140	1.398963	0.473982	-0.000056
1500	1.4915e+02	-19.7176	-29.415020	0.000140	1.398963	0.473982	-0.000056
1501	1.4925e+02	-19.7561	-29.465938	0.000127	1.267177	0.429331	-0.000051
1502	1.4935e+02	-19.8059	-29.518485	0.000131	1.307726	0.443070	-0.000053
1503	1.4945e+02	-19.8251	-29.572662	0.000135	1.348276	0.456808	-0.000054
1504	1.4955e+02	-19.8845	-29.625209	0.000131	1.307726	0.443070	-0.000053
1505	1.4965e+02	-19.9133	-29.672053	0.000117	1.165803	0.394985	-0.000047
1506	1.4975e+02	-19.9454	-29.726637	0.000136	1.358413	0.460243	-0.000055
1507	1.4985e+02	-19.9871	-29.779999	0.000133	1.328001	0.449939	-0.000054
1508	1.4995e+02	-19.9470	-29.746190	0.000084	0.841405	0.285076	0.000034
1509	1.5005e+02	-19.9230	-29.721342	0.000062	0.618382	0.209514	0.000025
1510	1.5015e+02	-19.8909	-29.685088	0.000090	0.902230	0.305684	0.000036
1511	1.5025e+02	-19.8171	-29.653723	0.000078	0.780581	0.264468	0.000032
1512	1.5034e+02	-19.8010	-29.619506	0.000085	0.851543	0.288511	0.000034
1513	1.5044e+02	-19.7353	-29.590992	0.000071	0.709619	0.240425	0.000029
1514	1.5054e+02	-19.7385	-29.553924	-0.000092	-0.922505	-0.312553	0.000037
1515	1.5064e+02	-19.6759	-29.520929	0.000082	0.821131	0.278207	0.000033
1516	1.5074e+02	-19.6438	-29.481825	0.000097	0.973192	0.329726	0.000039
1517	1.5084e+02	-19.6310	-29.448422	0.000083	0.831268	0.281641	0.000034
1518	1.5094e+02	-19.5636	-29.412576	0.000089	0.892092	0.302249	0.000036
1519	1.5104e+02	-19.5187	-29.375915	0.000091	0.912367	0.309118	0.000037
1520	1.5114e+02	-19.4898	-29.340884	0.000087	0.871818	0.295380	0.000035
1521	1.5124e+02	-19.4337	-29.307889	0.000082	0.821131	0.278207	0.000033
1522	1.5134e+02	-19.4000	-29.266340	0.000103	1.034016	0.350334	0.000042
1523	1.5144e+02	-19.3615	-29.229679	0.000091	0.912367	0.309118	0.000037
1524	1.5154e+02	-19.3374	-29.193019	0.000091	0.912367	0.309118	0.000037
1525	1.5164e+02	-19.2781	-29.155950	0.000092	0.922505	0.312553	0.000037
1526	1.5174e+02	-19.2364	-29.120512	0.000088	0.881955	0.298814	0.000036
1527	1.5184e+02	-19.2187	-29.082221	0.000095	0.952917	0.322857	0.000038
1528	1.5194e+02	-19.1770	-29.040673	0.000103	1.034016	0.350334	0.000042
1529	1.5204e+02	-19.1241	-29.005234	0.000088	0.881955	0.298814	0.000036
1530	1.5214e+02	-19.0679	-28.964499	0.000101	1.013741	0.343465	0.000041
1531	1.5224e+02	-19.0438	-28.927431	0.000092	0.922505	0.312553	0.000037
1532	1.5233e+02	-19.0134	-28.887919	0.000098	0.983329	0.333161	0.000040
1533	1.5243e+02	-18.9316	-28.850036	0.000094	0.942779	0.319422	0.000038
1534	1.5253e+02	-18.9011	-28.814190	0.000089	0.892092	0.302249	0.000036
1535	1.5263e+02	-18.8866	-28.769790	0.000110	1.104978	0.374377	0.000045
1536	1.5273e+02	-18.8273	-28.732314	0.000093	0.932642	0.315988	0.000038
1537	1.5283e+02	-18.7936	-28.689136	0.000107	1.074566	0.364073	0.000043
1538	1.5293e+02	-18.7535	-28.650031	0.000097	0.973192	0.329726	0.000039
1539	1.5303e+02	-18.7230	-28.608075	0.000104	1.044154	0.353769	0.000042
1540	1.5313e+02	-18.6829	-28.569785	0.000095	0.952917	0.322857	0.000038
1541	1.5323e+02	-18.6091	-28.528643	0.000102	1.023879	0.346900	0.000041
1542	1.5333e+02	-18.6187	-28.484650	-0.000109	-1.094841	-0.370942	0.000044
1543	1.5343e+02	-18.5722	-28.445952	0.000096	0.963054	0.326292	0.000039
1544	1.5353e+02	-18.5722	-28.404811	-0.000102	-1.023879	-0.346900	0.000041
1545	1.5363e+02	-18.4711	-28.364484	0.000100	1.003604	0.340030	0.000041
1546	1.5373e+02	-18.4535	-28.326194	0.000095	0.952917	0.322857	0.000038
1547	1.5383e+02	-18.4006	-28.280979	0.000113	1.125253	0.381246	0.000045
1548	1.5393e+02	-18.3717	-28.243096	0.000094	0.942779	0.319422	0.000038
1549	1.5403e+02	-18.3187	-28.201140	0.000104	1.044154	0.353769	0.000042
1550	1.5413e+02	-18.2931	-28.156739	0.000110	1.104978	0.374377	0.000045
1551	1.5422e+02	-18.2417	-28.107858	0.000122	1.216490	0.412158	0.000049
1552	1.5432e+02	-18.2048	-28.061828	0.000115	1.145528	0.388115	0.000046
1553	1.5442e+02	-18.1856	-28.027612	0.000085	0.851543	0.288511	0.000034
1554	1.5452e+02	-18.1326	-27.980360	0.000118	1.175940	0.398419	0.000047
1555	1.5462e+02	-18.0556	-27.933108	0.000118	1.175940	0.398419	0.000047
1556	1.5472e+02	-18.0043	-27.890337	0.000106	1.064428	0.360638	0.000043
1557	1.5482e+02	-18.0059	-27.847974	-0.000105	-1.054291	-0.357203	0.000043
1558	1.5492e+02	-17.9690	-27.803166	0.000112	1.115116	0.377811	0.000045
1559	1.5502e+02	-17.9385	-27.765690	0.000093	0.932642	0.315988	0.000038
1560	1.5512e+02	-17.8920	-27.721697	0.000109	1.094841	0.370942	0.000044
1561	1.5522e+02	-17.8343	-27.676482	0.000113	1.125253	0.381246	0.000045
1562	1.5532e+02	-17.7942	-27.628009	0.000121	1.206352	0.408723	0.000049
1563	1.5542e+02	-17.7476	-27.581979	0.000115	1.145528	0.388115	0.000046
1564	1.5552e+02	-17.7268	-27.538801	0.000107	1.074566	0.364073	0.000043
1565	1.5562e+02	-17.6979	-27.494808	0.000109	1.094841	0.370942	0.000044
1566	1.5572e+02	-17.6434	-27.454481	0.000100	1.003604	0.340030	0.000041
1567	1.5582e+02	-17.5984	-27.403563	0.000127	1.267177	0.429331	0.000051
1568	1.5592e+02	-17.5680	-27.361199	0.000105	1.054291	0.357203	0.000043
1569	1.5602e+02	-17.5391	-27.311503	0.000124	1.236765	0.419027	0.000050
1570	1.5612e+02	-17.4685	-27.268732	0.000106	1.064428	0.360638	0.000043
1571	1.5622e+02	-17.4460	-27.223110	0.000114	1.135390	0.384681	0.000046
1572	1.5631e+02	-17.4172	-27.183598	0.000098	0.983329	0.333161	0.000040
1573	1.5641e+02	-17.3690	-27.137568	0.000115	1.145528	0.388115	0.000046
1574	1.5651e+02	-17.3353	-27.091131	0.000116	1.155665	0.391550	0.000047
1575	1.5661e+02	-17.2888	-27.048360	0.000106	1.064428	0.360638	0.000043
1576	1.5671e+02	-17.2439	-27.002738	0.000114	1.135390	0.384681	0.000046
1577	1.5681e+02	-17.2214	-26.961596	0.000102	1.023879	0.346900	0.000041
1578	1.5691e+02	-17.1861	-26.914752	0.000117	1.165803	0.394985	0.000047
1579	1.5701e+02	-17.1124	-26.865871	0.000122	1.216490	0.412158	0.000049
1580	1.5711e+02	-17.0899	-26.824322	0.000103	1.034016	0.350334	0.000042
1581	1.5721e+02	-17.0498	-26.777477	0.000117	1.165803	0.394985	0.000047
1582	1.5731e+02	-17.0081	-26.731855	0.000114	1.135390	0.384681	0.000046
1583	1.5741e+02	-16.9920	-26.685825	0.000115	1.145528	0.388115	0.000046
1584	1.5751e+02	-16.9439	-26.640610	0.000113	1.125253	0.381246	0.000045
1585	1.5761e+02	-16.8733	-26.597432	0.000107	1.074566	0.364073	0.000043
1586	1.5771e+02	-16.8541	-26.556698	0.000101	1.013741	0.343465	0.000041
1587	1.5781e+02	-16.7803	-26.513519	0.000107	1.074566	0.364073	0.000043
1588	1.5791e+02	-16.7771	-26.467897	0.000114	1.135390	0.384681	0.000046
1589	1.5801e+02	-16.7418	-26.419831	0.000120	1.196215	0.405289	0.000048
1590	1.5811e+02	-16.7017	-26.383170	0.000091	0.912367	0.309118	0.000037
1591	1.5821e+02	-16.6327	-26.337547	0.000114	1.135390	0.384681	0.000046
1592	1.5830e+02	-16.6247	-26.292332	0.000113	1.125253	0.381246	0.000045
1593	1.5840e+02	-16.5894	-26.250376	0.000104	1.044154	0.353769	0.000042
1594	1.5850e+02	-16.5188	-26.204346	0.000115	1.145528	0.388115	0.000046
1595	1.5860e+02	-16.4819	-26.165649	0.000096	0.963054	0.326292	0.000039
1596	1.5870e+02	-16.4658	-26.123693	0.000104	1.044154	0.353769	0.000042
1597	1.5880e+02	-16.4081	-26.073182	0.000126	1.257039	0.425896	0.000051
1598	1.5890e+02	-16.3776	-26.034484	0.000096	0.963054	0.326292	0.000039
1599	1.5900e+02	-16.3070	-25.986418	0.000120	1.196215	0.405289	0.000048
1600	1.5910e+02	-16.2942	-25.946906	0.000098	0.983329	0.333161	0.000040
1601	1.5920e+02	-16.2396	-25.902098	0.000112	1.115116	0.377811	0.000045
1602	1.5930e+02	-16.2220	-25.865437	0.000091	0.912367	0.309118	0.000037
1603	1.5940e+02	-16.1851	-25.817371	0.000120	1.196215	0.405289	0.000048
1604	1.5950e+02	-16.1338	-25.772971	0.000110	1.104978	0.374377	0.000045
1605	1.5960e+02	-16.0985	-25.734273	0.000096	0.963054	0.326292	0.000039
1606	1.5970e+02	-16.0616	-25.691095	0.000107	1.074566	0.364073	0.000043
1607	1.5980e+02	-16.0151	-25.641806	0.000123	1.226627	0.415593	0.000050
1608	1.5990e+02	-15.9653	-25.603109	0.000096	0.963054	0.326292	0.000039
1609	1.6000e+02	-15.9332	-25.558301	0.000112	1.115116	0.377811	0.000045
1610	1.6010e+02	-15.8819	-25.519604	0.000096	0.963054	0.326292	0.000039
1611	1.6019e+02	-15.8530	-25.477647	0.000104	1.044154	0.353769	0.000042
1612	1.6029e+02	-15.7969	-25.427137	0.000126	1.257039	0.425896	0.000051
1613	1.6039e+02	-15.7552	-25.383144	0.000109	1.094841	0.370942	0.000044
1614	1.6049e+02	-15.7103	-25.340373	0.000106	1.064428	0.360638	0.000043
1615	1.6059e+02	-15.6734	-25.300861	0.000098	0.983329	0.333161	0.000040
1616	1.6069e+02	-15.6685	-25.253201	0.000119	1.186077	0.401854	0.000048
1617	1.6079e+02	-15.6365	-25.208394	0.000112	1.115116	0.377811	0.000045
1618	1.6089e+02	-15.5595	-25.164808	0.000108	1.084703	0.367507	0.000044
1619	1.6099e+02	-15.5258	-25.127740	0.000092	0.922505	0.312553	0.000037
1620	1.6109e+02	-15.5001	-25.079674	0.000120	1.196215	0.405289	0.000048
1621	1.6119e+02	-15.4696	-25.040161	0.000098	0.983329	0.333161	0.000040
1622	1.6129e+02	-15.4087	-24.998612	0.000103	1.034016	0.350334	0.000042
1623	1.6139e+02	-15.3798	-24.951361	0.000118	1.175940	0.398419	0.000047
1624	1.6149e+02	-15.3140	-24.908182	0.000107	1.074566	0.364073	0.000043
1625	1.6159e+02	-15.3236	-24.860931	-0.000118	-1.175940	-0.398419	0.000047
1626	1.6169e+02	-15.2450	-24.818160	0.000106	1.064428	0.360638	0.000043
1627	1.6179e+02	-15.2306	-24.778647	0.000098	0.983329	0.333161	0.000040
1628	1.6189e+02	-15.1760	-24.732618	0.000115	1.145528	0.388115	0.000046
1629	1.6199e+02	-15.1359	-24.687810	0.000112	1.115116	0.377811	0.000045
1630	1.6209e+02	-15.1039	-24.641373	0.000116	1.155665	0.391550	0.000047
1631	1.6219e+02	-15.0589	-24.600639	0.000101	1.013741	0.343465	0.000041
1632	1.6228e+02	-15.0156	-24.557460	0.000107	1.074566	0.364073	0.000043
1633	1.6238e+02	-14.9691	-24.511431	0.000115	1.145528	0.388115	0.000046
1634	1.6248e+02	-14.9274	-24.471104	0.000100	1.003604	0.340030	0.000041
1635	1.6258e+02	-14.8953	-24.427518	0.000108	1.084703	0.367507	0.000044
1636	1.6268e+02	-14.8456	-24.392487	0.000087	0.871818	0.295380	0.000035
1637	1.6278e+02	-14.8215	-24.346457	0.000115	1.145528	0.388115	0.000046
1638	1.6288e+02	-14.7670	-24.306537	0.000099	0.993467	0.336596	0.000040
1639	1.6298e+02	-14.7461	-24.262952	0.000108	1.084703	0.367507	0.000044
1640	1.6308e+02	-14.7076	-24.221403	0.000103	1.034016	0.350334	0.000042
1641	1.6318e+02	-14.6659	-24.175780	0.000114	1.135390	0.384681	0.000046
1642	1.6328e+02	-14.6306	-24.126899	0.000122	1.216490	0.412158	0.000049
1643	1.6338e+02	-14.5809	-24.080870	0.000115	1.145528	0.388115	0.000046
1644	1.6348e+02	-14.5231	-24.043394	0.000093	0.932642	0.315988	0.000038
1645	1.6358e+02	-14.4798	-23.996957	0.000116	1.155665	0.391550	0.000047
1646	1.6368e+02	-14.4766	-23.955001	0.000104	1.044154	0.353769	0.000042
1647	1.6378e+02	-14.4156	-23.912637	0.000105	1.054291	0.357203	0.000043
1648	1.6388e+02	-14.3852	-23.875569	0.000092	0.922505	0.312553	0.000037
1649	1.6398e+02	-14.3483	-23.830761	0.000112	1.115116	0.377811	0.000045
1650	1.6408e+02	-14.3049	-23.787990	0.000106	1.064428	0.360638	0.000043
1651	1.6418e+02	-14.2632	-23.738702	0.000123	1.226627	0.415593	0.000050
1652	1.6427e+02	-14.2328	-23.702448	0.000090	0.902230	0.305684	0.000036
1653	1.6437e+02	-14.1894	-23.657233	0.000113	1.125253	0.381246	0.000045
1654	1.6447e+02	-14.1413	-23.613648	0.000108	1.084703	0.367507	0.000044
1655	1.6457e+02	-14.0948	-23.568025	0.000114	1.135390	0.384681	0.000046
1656	1.6467e+02	-14.0787	-23.528106	0.000099	0.993467	0.336596	0.000040
1657	1.6477e+02	-14.0017	-23.478410	0.000124	1.236765	0.419027	0.000050
1658	1.6487e+02	-13.9745	-23.438490	0.000099	0.993467	0.336596	0.000040
1659	1.6497e+02	-13.9328	-23.394905	0.000108	1.084703	0.367507	0.000044
1660	1.6507e+02	-13.8878	-23.343580	0.000128	1.277314	0.432766	0.000052
1661	1.6517e+02	-13.8638	-23.302438	0.000102	1.023879	0.346900	0.000041
1662	1.6527e+02	-13.8269	-23.255594	0.000117	1.165803	0.394985	0.000047
1663	1.6537e+02	-13.7836	-23.214859	0.000101	1.013741	0.343465	0.000041
1664	1.6547e+02	-13.7403	-23.163942	0.000127	1.267177	0.429331	0.000051
1665	1.6557e+02	-13.7001	-23.124429	0.000098	0.983329	0.333161	0.000040
1666	1.6567e+02	-13.6649	-23.077585	0.000117	1.165803	0.394985	0.000047
1667	1.6577e+02	-13.6344	-23.033185	0.000110	1.104978	0.374377	0.000045
1668	1.6587e+02	-13.5638	-22.985118	0.000120	1.196215	0.405289	0.000048
1669	1.6597e+02	-13.5333	-22.943162	0.000104	1.044154	0.353769	0.000042
1670	1.6607e+02	-13.5092	-22.895503	0.000119	1.186077	0.401854	0.000048
1671	1.6616e+02	-13.4499	-22.848658	0.000117	1.165803	0.394985	0.000047
1672	1.6626e+02	-13.4178	-22.796926	0.000129	1.287452	0.436200	0.000052
1673	1.6636e+02	-13.4050	-22.748452	0.000121	1.206352	0.408723	0.000049
1674	1.6646e+02	-13.3376	-22.702422	0.000115	1.145528	0.388115	0.000046
1675	1.6656e+02	-13.2686	-22.655578	0.000117	1.165803	0.394985	0.000047
1676	1.6666e+02	-13.2766	-22.605068	-0.000126	-1.257039	-0.425896	0.000051
1677	1.6676e+02	-13.2269	-22.561482	0.000108	1.084703	0.367507	0.000044
1678	1.6686e+02	-13.1579	-22.511786	0.000124	1.236765	0.419027	0.000050
1679	1.6696e+02	-13.1643	-22.463720	-0.000120	-1.196215	-0.405289	0.000048
1680	1.6706e+02	-13.0825	-22.415246	0.000121	1.206352	0.408723	0.000049
1681	1.6716e+02	-13.0601	-22.367587	0.000119	1.186077	0.401854	0.000048
1682	1.6726e+02	-13.0183	-22.321150	0.000116	1.155665	0.391550	0.000047
1683	1.6736e+02	-12.9863	-22.265344	0.000139	1.388826	0.470547	0.000056
1684	1.6746e+02	-12.9462	-22.222166	0.000107	1.074566	0.364073	0.000043
1685	1.6756e+02	-12.9093	-22.168804	0.000133	1.328001	0.449939	0.000054
1686	1.6766e+02	-12.8708	-22.121959	0.000117	1.165803	0.394985	0.000047
1687	1.6776e+02	-12.8611	-22.073078	0.000122	1.216490	0.412158	0.000049
1688	1.6786e+02	-12.7825	-22.028270	0.000112	1.115116	0.377811	0.000045
1689	1.6796e+02	-12.7392	-21.976131	0.000130	1.297589	0.439635	0.000052
1690	1.6806e+02	-12.6975	-21.926435	0.000124	1.236765	0.419027	0.000050
1691	1.6816e+02	-12.6750	-21.872666	0.000134	1.338139	0.453374	0.000054
1692	1.6825e+02	-12.6446	-21.826636	0.000115	1.145528	0.388115	0.000046
1693	1.6835e+02	-12.5772	-21.776533	0.000125	1.246902	0.422462	0.000050
1694	1.6845e+02	-12.5595	-21.729688	0.000117	1.165803	0.394985	0.000047
1695	1.6855e+02	-12.4890	-21.676327	0.000133	1.328001	0.449939	0.000054
1696	1.6865e+02	-12.4649	-21.623779	0.000131	1.307726	0.443070	0.000053
1697	1.6875e+02	-12.4280	-21.575306	0.000121	1.206352	0.408723	0.000049
1698	1.6885e+02	-12.3542	-21.528869	0.000116	1.155665	0.391550	0.000047
1699	1.6895e+02	-12.3510	-21.472248	0.000141	1.409101	0.477416	0.000057
1700	1.6905e+02	-12.2868	-21.424589	0.000119	1.186077	0.401854	0.000048
1701	1.6915e+02	-12.2612	-21.370005	0.000136	1.358413	0.460243	0.000055
1702	1.6925e+02	-12.2419	-21.325197	0.000112	1.115116	0.377811	0.000045
1703	1.6935e+02	-12.1970	-21.270613	0.000136	1.358413	0.460243	0.000055
1704	1.6945e+02	-12.1617	-21.222547	0.000120	1.196215	0.405289	0.000048
1705	1.6955e+02	-12.0895	-21.167148	0.000138	1.378688	0.467112	0.000056
1706	1.6965e+02	-12.0462	-21.120304	0.000117	1.165803	0.394985	0.000047
1707	1.6975e+02	-12.0205	-21.069793	0.000126	1.257039	0.425896	0.000051
1708	1.6985e+02	-12.0013	-21.013988	0.000139	1.388826	0.470547	0.000056
1709	1.6995e+02	-11.9515	-20.963070	0.000127	1.267177	0.429331	0.000051
1710	1.7005e+02	-11.9082	-20.910115	0.000132	1.317864	0.446504	0.000053
1711	1.7015e+02	-11.8665	-20.855531	0.000136	1.358413	0.460243	0.000055
1712	1.7024e+02	-11.8424	-20.809502	0.000115	1.145528	0.388115	0.000046
1713	1.7034e+02	-11.8088	-20.755732	0.000134	1.338139	0.453374	0.000054
1714	1.7044e+02	-11.7462	-20.702778	0.000132	1.317864	0.446504	0.000053
1715	1.7054e+02	-11.7061	-20.657970	0.000112	1.115116	0.377811	0.000045
1716	1.7064e+02	-11.6884	-20.598091	0.000149	1.490200	0.504893	0.000060
1717	1.7074e+02	-11.6355	-20.549210	0.000122	1.216490	0.412158	0.000049
1718	1.7084e+02	-11.5810	-20.492996	0.000140	1.398963	0.473982	0.000056
1719	1.7094e+02	-11.5457	-20.444115	0.000122	1.216490	0.412158	0.000049
1720	1.7104e+02	-11.4927	-20.384643	0.000148	1.480062	0.501459	0.000060
1721	1.7114e+02	-11.4751	-20.336170	0.000121	1.206352	0.408723	0.000049
1722	1.7124e+02	-11.4462	-20.275068	0.000152	1.520612	0.515197	0.000061
1723	1.7134e+02	-11.3917	-20.224965	0.000125	1.246902	0.422462	0.000050
1724	1.7144e+02	-11.3387	-20.165900	0.000147	1.469925	0.498024	0.000059
1725	1.7154e+02	-11.3275	-20.114983	0.000127	1.267177	0.429331	0.000051
1726	1.7164e+02	-11.2890	-20.062843	0.000130	1.297589	0.439635	0.000052
1727	1.7174e+02	-11.2377	-20.009073	0.000134	1.338139	0.453374	0.000054
1728	1.7184e+02	-11.1751	-19.953675	0.000138	1.378688	0.467112	0.000056
1729	1.7194e+02	-11.1590	-19.903164	0.000126	1.257039	0.425896	0.000051
1730	1.7204e+02	-11.1254	-19.843692	0.000148	1.480062	0.501459	0.000060
1731	1.7213e+02	-11.0724	-19.788701	0.000137	1.368551	0.463678	0.000055
1732	1.7223e+02	-11.0435	-19.740227	0.000121	1.206352	0.408723	0.000049
1733	1.7233e+02	-11.0259	-19.683607	0.000141	1.409101	0.477416	0.000057
1734	1.7243e+02	-10.9569	-19.630245	0.000133	1.328001	0.449939	0.000054
1735	1.7253e+02	-10.9056	-19.569551	0.000151	1.510475	0.511763	0.000061
1736	1.7263e+02	-10.8847	-19.512116	0.000143	1.429375	0.484285	0.000058
1737	1.7273e+02	-10.8639	-19.461605	0.000126	1.257039	0.425896	0.000051
1738	1.7283e+02	-10.7564	-19.407021	0.000136	1.358413	0.460243	0.000055
1739	1.7293e+02	-10.7628	-19.351215	-0.000139	-1.388826	-0.470547	0.000056
1740	1.7303e+02	-10.7002	-19.291743	0.000148	1.480062	0.501459	0.000060
1741	1.7313e+02	-10.6665	-19.241640	0.000125	1.246902	0.422462	0.000050
1742	1.7323e+02	-10.6377	-19.190722	0.000127	1.267177	0.429331	0.000051
1743	1.7333e+02	-10.6152	-19.132065	0.000146	1.459788	0.494589	0.000059
1744	1.7343e+02	-10.5591	-19.080332	0.000129	1.287452	0.436200	0.000052
1745	1.7353e+02	-10.5061	-19.024934	0.000138	1.378688	0.467112	0.000056
1746	1.7363e+02	-10.4660	-18.973201	0.000129	1.287452	0.436200	0.000052
1747	1.7373e+02	-10.4275	-18.916988	0.000140	1.398963	0.473982	0.000056
1748	1.7383e+02	-10.4195	-18.859960	0.000142	1.419238	0.480851	0.000057
1749	1.7393e+02	-10.3682	-18.798859	0.000152	1.520612	0.515197	0.000061
1750	1.7403e+02	-10.2976	-18.747941	0.000127	1.267177	0.429331	0.000051
1751	1.7413e+02	-10.2751	-18.693357	0.000136	1.358413	0.460243	0.000055
1752	1.7422e+02	-10.2462	-18.639588	0.000134	1.338139	0.453374	0.000054
1753	1.7432e+02	-10.1821	-18.585819	0.000134	1.338139	0.453374	0.000054
1754	1.7442e+02	-10.1805	-18.532457	0.000133	1.328001	0.449939	0.000054
1755	1.7452e+02	-10.1115	-18.479095	0.000133	1.328001	0.449939	0.000054
1756	1.7462e+02	-10.0730	-18.424918	0.000135	1.348276	0.456808	0.000054
1757	1.7472e+02	-10.0281	-18.373593	0.000128	1.277314	0.432766	0.000052
1758	1.7482e+02	-10.0136	-18.324712	0.000122	1.216490	0.412158	0.000049
1759	1.7492e+02	-9.9623	-18.268906	0.000139	1.388826	0.470547	0.000056
1760	1.7502e+02	-9.9110	-18.214322	0.000136	1.358413	0.460243	0.000055
1761	1.7512e+02	-9.8757	-18.158924	0.000138	1.378688	0.467112	0.000056
1762	1.7522e+02	-9.8372	-18.103525	0.000138	1.378688	0.467112	0.000056
1763	1.7532e+02	-9.7730	-18.050978	0.000131	1.307726	0.443070	0.000053
1764	1.7542e+02	-9.7602	-17.998431	0.000131	1.307726	0.443070	0.000053
1765	1.7552e+02	-9.7152	-17.942217	0.000140	1.398963	0.473982	0.000056
1766	1.7562e+02	-9.6607	-17.888041	0.000135	1.348276	0.456808	0.000054
1767	1.7572e+02	-9.6414	-17.842418	0.000114	1.135390	0.384681	0.000046
1768	1.7582e+02	-9.5709	-17.787020	0.000138	1.378688	0.467112	0.000056
1769	1.7592e+02	-9.5452	-17.734880	0.000130	1.297589	0.439635	0.000052
1770	1.7602e+02	-9.5259	-17.682740	0.000130	1.297589	0.439635	0.000052
1771	1.7612e+02	-9.4489	-17.626527	0.000140	1.398963	0.473982	0.000056
1772	1.7621e+02	-9.4393	-17.580090	0.000116	1.155665	0.391550	0.000047
1773	1.7631e+02	-9.3992	-17.523062	0.000142	1.419238	0.480851	0.000057
1774	1.7641e+02	-9.3687	-17.469293	0.000134	1.338139	0.453374	0.000054
1775	1.7651e+02	-9.3254	-17.417968	0.000128	1.277314	0.432766	0.000052
1776	1.7661e+02	-9.2869	-17.365013	0.000132	1.317864	0.446504	0.000053
1777	1.7671e+02	-9.2436	-17.312873	0.000130	1.297589	0.439635	0.000052
1778	1.7681e+02	-9.2115	-17.257475	0.000138	1.378688	0.467112	0.000056
1779	1.7691e+02	-9.1570	-17.203705	0.000134	1.338139	0.453374	0.000054
1780	1.7701e+02	-9.1136	-17.145863	0.000144	1.439513	0.487720	0.000058
1781	1.7711e+02	-9.0880	-17.094945	0.000127	1.267177	0.429331	0.000051
1782	1.7721e+02	-9.0399	-17.040768	0.000135	1.348276	0.456808	0.000054
1783	1.7731e+02	-8.9917	-16.986592	0.000135	1.348276	0.456808	0.000054
1784	1.7741e+02	-8.9741	-16.933637	0.000132	1.317864	0.446504	0.000053
1785	1.7751e+02	-8.9211	-16.877424	0.000140	1.398963	0.473982	0.000056
1786	1.7761e+02	-8.8891	-16.823247	0.000135	1.348276	0.456808	0.000054
1787	1.7771e+02	-8.8393	-16.775588	0.000119	1.186077	0.401854	0.000048
1788	1.7781e+02	-8.8072	-16.717338	0.000145	1.449650	0.491155	0.000059
1789	1.7791e+02	-8.7655	-16.661532	0.000139	1.388826	0.470547	0.000056
1790	1.7801e+02	-8.6853	-16.611022	0.000126	1.257039	0.425896	0.000051
1791	1.7810e+02	-8.6917	-16.560511	-0.000126	-1.257039	-0.425896	0.000051
1792	1.7820e+02	-8.6276	-16.502261	0.000145	1.449650	0.491155	0.000059
1793	1.7830e+02	-8.6019	-16.450122	0.000130	1.297589	0.439635	0.000052
1794	1.7840e+02	-8.5650	-16.397167	0.000132	1.317864	0.446504	0.000053
1795	1.7850e+02	-8.5233	-16.341768	0.000138	1.378688	0.467112	0.000056
1796	1.7860e+02	-8.4864	-16.287592	0.000135	1.348276	0.456808	0.000054
1797	1.7870e+02	-8.4447	-16.228120	0.000148	1.480062	0.501459	0.000060
1798	1.7880e+02	-8.4142	-16.181683	0.000116	1.155665	0.391550	0.000047
1799	1.7890e+02	-8.3581	-16.121804	0.000149	1.490200	0.504893	0.000060
1800	1.7900e+02	-8.3115	-16.071700	0.000125	1.246902	0.422462	0.000050
1801	1.7910e+02	-8.2666	-16.014265	0.000143	1.429375	0.484285	0.000058
1802	1.7920e+02	-8.2586	-15.963755	0.000126	1.257039	0.425896	0.000051
1803	1.7930e+02	-8.2040	-15.911615	0.000130	1.297589	0.439635	0.000052
1804	1.7940e+02	-8.1704	-15.861919	0.000124	1.236765	0.419027	0.000050
1805	1.7950e+02	-8.1222	-15.807742	0.000135	1.348276	0.456808	0.000054
1806	1.7960e+02	-8.0837	-15.751936	0.000139	1.388826	0.470547	0.000056
1807	1.7970e+02	-8.0212	-15.702648	0.000123	1.226627	0.415593	0.000050
1808	1.7980e+02	-7.9891	-15.648879	0.000134	1.338139	0.453374	0.000054
1809	1.7990e+02	-7.9442	-15.593073	0.000139	1.388826	0.470547	0.000056
1810	1.8000e+02	-7.9137	-15.535638	0.000143	1.429375	0.484285	0.000058
1811	1.8009e+02	-7.8816	-15.478610	0.000142	1.419238	0.480851	0.000057
1812	1.8019e+02	-7.8335	-15.433395	0.000113	1.125253	0.381246	0.000045
1813	1.8029e+02	-7.8014	-15.374737	0.000146	1.459788	0.494589	0.000059
1814	1.8039e+02	-7.7821	-15.320153	0.000136	1.358413	0.460243	0.000055
1815	1.8049e+02	-7.7388	-15.269643	0.000126	1.257039	0.425896	0.000051
1816	1.8059e+02	-7.6907	-15.217096	0.000131	1.307726	0.443070	0.000053
1817	1.8069e+02	-7.6442	-15.161697	0.000138	1.378688	0.467112	0.000056
1818	1.8079e+02	-7.5928	-15.107928	0.000134	1.338139	0.453374	0.000054
1819	1.8089e+02	-7.5656	-15.054159	0.000134	1.338139	0.453374	0.000054
1820	1.8099e+02	-7.5206	-15.003648	0.000126	1.257039	0.425896	0.000051
1821	1.8109e+02	-7.5174	-14.945806	0.000144	1.439513	0.487720	0.000058
1822	1.8119e+02	-7.4581	-14.895295	0.000126	1.257039	0.425896	0.000051
1823	1.8129e+02	-7.4100	-14.839489	0.000139	1.388826	0.470547	0.000056
1824	1.8139e+02	-7.3490	-14.786942	0.000131	1.307726	0.443070	0.000053
1825	1.8149e+02	-7.3153	-14.730321	0.000141	1.409101	0.477416	0.000057
1826	1.8159e+02	-7.3009	-14.669220	0.000152	1.520612	0.515197	0.000061
1827	1.8169e+02	-7.2303	-14.612599	0.000141	1.409101	0.477416	0.000057
1828	1.8179e+02	-7.2046	-14.557201	0.000138	1.378688	0.467112	0.000056
1829	1.8189e+02	-7.1565	-14.506283	0.000127	1.267177	0.429331	0.000051
1830	1.8199e+02	-7.1308	-14.445589	0.000151	1.510475	0.511763	0.000061
1831	1.8209e+02	-7.0875	-14.396708	0.000122	1.216490	0.412158	0.000049
1832	1.8218e+02	-7.0554	-14.332348	0.000160	1.601711	0.542675	0.000065
1833	1.8228e+02	-7.0217	-14.281023	0.000128	1.277314	0.432766	0.000052
1834	1.8238e+02	-6.9608	-14.223180	0.000144	1.439513	0.487720	0.000058
1835	1.8248e+02	-6.9592	-14.168189	0.000137	1.368551	0.463678	0.000055
1836	1.8258e+02	-6.8998	-14.107495	0.000151	1.510475	0.511763	0.000061
1837	1.8268e+02	-6.8421	-14.048023	0.000148	1.480062	0.501459	0.000060
1838	1.8278e+02	-6.7811	-13.997512	0.000126	1.257039	0.425896	0.000051
1839	1.8288e+02	-6.7667	-13.936411	0.000152	1.520612	0.515197	0.000061
1840	1.8298e+02	-6.7137	-13.879790	0.000141	1.409101	0.477416	0.000057
1841	1.8308e+02	-6.6768	-13.814208	0.000163	1.632124	0.552978	0.000066
1842	1.8318e+02	-6.6511	-13.755958	0.000145	1.449650	0.491155	0.000059
1843	1.8328e+02	-6.5902	-13.696486	0.000148	1.480062	0.501459	0.000060
1844	1.8338e+02	-6.5597	-13.641087	0.000138	1.378688	0.467112	0.000056
1845	1.8348e+02	-6.5340	-13.579579	0.000153	1.530750	0.518632	0.000062
1846	1.8358e+02	-6.4795	-13.519292	0.000150	1.500337	0.508328	0.000061
1847	1.8368e+02	-6.4330	-13.459820	0.000148	1.480062	0.501459	0.000060
1848	1.8378e+02	-6.3848	-13.405643	0.000135	1.348276	0.456808	0.000054
1849	1.8388e+02	-6.3672	-13.342913	0.000156	1.561162	0.528936	0.000063
1850	1.8398e+02	-6.3415	-13.287514	0.000138	1.378688	0.467112	0.000056
1851	1.8407e+02	-6.3207	-13.223561	0.000159	1.591574	0.539240	0.000064
1852	1.8417e+02	-6.2517	-13.164904	0.000146	1.459788	0.494589	0.000059
1853	1.8427e+02	-6.2196	-13.106247	0.000146	1.459788	0.494589	0.000059
1854	1.8437e+02	-6.1779	-13.040664	0.000163	1.632124	0.552978	0.000066
1855	1.8447e+02	-6.1330	-12.979156	0.000153	1.530750	0.518632	0.000062
1856	1.8457e+02	-6.1025	-12.917647	0.000153	1.530750	0.518632	0.000062
1857	1.8467e+02	-6.0464	-12.858582	0.000147	1.469925	0.498024	0.000059
1858	1.8477e+02	-6.0159	-12.788927	0.000173	1.733498	0.587325	0.000070
1859	1.8487e+02	-5.9694	-12.730269	0.000146	1.459788	0.494589	0.000059
1860	1.8497e+02	-5.9421	-12.671205	0.000147	1.469925	0.498024	0.000059
1861	1.8507e+02	-5.9004	-12.608474	0.000156	1.561162	0.528936	0.000063
1862	1.8517e+02	-5.8218	-12.544521	0.000159	1.591574	0.539240	0.000064
1863	1.8527e+02	-5.8073	-12.482605	0.000154	1.540887	0.522067	0.000062
1864	1.8537e+02	-5.7929	-12.419874	0.000156	1.561162	0.528936	0.000063
1865	1.8547e+02	-5.7480	-12.361217	0.000146	1.459788	0.494589	0.000059
1866	1.8557e+02	-5.7143	-12.294413	0.000166	1.662536	0.563282	0.000067
1867	1.8567e+02	-5.6437	-12.235348	0.000147	1.469925	0.498024	0.000059
1868	1.8577e+02	-5.6116	-12.168137	0.000167	1.672673	0.566717	0.000068
1869	1.8587e+02	-5.5779	-12.109072	0.000147	1.469925	0.498024	0.000059
1870	1.8597e+02	-5.5186	-12.044712	0.000160	1.601711	0.542675	0.000065
1871	1.8606e+02	-5.5154	-11.975871	0.000171	1.713223	0.580456	0.000069
1872	1.8616e+02	-5.4480	-11.913955	0.000154	1.540887	0.522067	0.000062
1873	1.8626e+02	-5.4287	-11.854890	0.000147	1.469925	0.498024	0.000059
1874	1.8636e+02	-5.3710	-11.784827	0.000174	1.743635	0.590760	0.000070
1875	1.8646e+02	-5.3565	-11.721689	0.000157	1.571299	0.532371	0.000063
1876	1.8656e+02	-5.2683	-11.657736	0.000159	1.591574	0.539240	0.000064
1877	1.8666e+02	-5.2635	-11.593784	0.000159	1.591574	0.539240	0.000064
1878	1.8676e+02	-5.2105	-11.529424	0.000160	1.601711	0.542675	0.000065
1879	1.8686e+02	-5.1817	-11.465063	0.000160	1.601711	0.542675	0.000065
1880	1.8696e+02	-5.1368	-11.401111	0.000159	1.591574	0.539240	0.000064
1881	1.8706e+02	-5.1095	-11.336751	0.000160	1.601711	0.542675	0.000065
1882	1.8716e+02	-5.0373	-11.271168	0.000163	1.632124	0.552978	0.000066
1883	1.8726e+02	-5.0245	-11.205994	0.000162	1.621986	0.549544	0.000066
1884	1.8736e+02	-4.9699	-11.137560	0.000170	1.703086	0.577021	0.000069
1885	1.8746e+02	-4.9330	-11.071571	0.000164	1.642261	0.556413	0.000066
1886	1.8756e+02	-4.8913	-11.008025	0.000158	1.581437	0.535805	0.000064
1887	1.8766e+02	-4.8528	-10.937555	0.000175	1.753773	0.594194	0.000071
1888	1.8776e+02	-4.8159	-10.871158	0.000165	1.652398	0.559848	0.000067
1889	1.8786e+02	-4.7934	-10.801502	0.000173	1.733498	0.587325	0.000070
1890	1.8796e+02	-4.7373	-10.735920	0.000163	1.632124	0.552978	0.000066
1891	1.8806e+02	-4.6779	-10.669523	0.000165	1.652398	0.559848	0.000067
1892	1.8815e+02	-4.6587	-10.601905	0.000168	1.682811	0.570152	0.000068
1893	1.8825e+02	-4.6170	-10.535508	0.000165	1.652398	0.559848	0.000067
1894	1.8835e+02	-4.5865	-10.467074	0.000170	1.703086	0.577021	0.000069
1895	1.8845e+02	-4.5223	-10.398641	0.000170	1.703086	0.577021	0.000069
1896	1.8855e+02	-4.4951	-10.333873	0.000161	1.611849	0.546109	0.000065
1897	1.8865e+02	-4.4614	-10.262588	0.000177	1.774047	0.601064	0.000072
1898	1.8875e+02	-4.4036	-10.197821	0.000161	1.611849	0.546109	0.000065
1899	1.8885e+02	-4.3715	-10.118389	0.000198	1.976796	0.669757	0.000080
1900	1.8895e+02	-4.3170	-10.058510	0.000149	1.490200	0.504893	0.000060
1901	1.8905e+02	-4.3250	-9.986817	-0.000178	-1.784185	-0.604498	0.000072
1902	1.8915e+02	-4.2576	-9.915532	0.000177	1.774047	0.601064	0.000072
1903	1.8925e+02	-4.2255	-9.845062	0.000175	1.753773	0.594194	0.000071
1904	1.8935e+02	-4.1822	-9.777443	0.000168	1.682811	0.570152	0.000068
1905	1.8945e+02	-4.1485	-9.706973	0.000175	1.753773	0.594194	0.000071
1906	1.8955e+02	-4.1133	-9.640169	0.000166	1.662536	0.563282	0.000067
1907	1.8965e+02	-4.0699	-9.567662	0.000180	1.804460	0.611367	0.000073
1908	1.8975e+02	-4.0186	-9.501672	0.000164	1.642261	0.556413	0.000066
1909	1.8985e+02	-3.9689	-9.431609	0.000174	1.743635	0.590760	0.000070
1910	1.8995e+02	-3.9336	-9.360732	0.000176	1.763910	0.597629	0.000071
1911	1.9004e+02	-3.9015	-9.294742	0.000164	1.642261	0.556413	0.000066
1912	1.9014e+02	-3.8630	-9.223050	0.000178	1.784185	0.604498	0.000072
1913	1.9024e+02	-3.8068	-9.155839	0.000167	1.672673	0.566717	0.000068
1914	1.9034e+02	-3.7876	-9.083332	0.000180	1.804460	0.611367	0.000073
1915	1.9044e+02	-3.7507	-9.012454	0.000176	1.763910	0.597629	0.000071
1916	1.9054e+02	-3.6897	-8.941984	0.000175	1.753773	0.594194	0.000071
1917	1.9064e+02	-3.6577	-8.871106	0.000176	1.763910	0.597629	0.000071
1918	1.9074e+02	-3.6111	-8.799414	0.000178	1.784185	0.604498	0.000072
1919	1.9084e+02	-3.5839	-8.733017	0.000165	1.652398	0.559848	0.000067
1920	1.9094e+02	-3.5518	-8.663361	0.000173	1.733498	0.587325	0.000070
1921	1.9104e+02	-3.4988	-8.592484	0.000176	1.763910	0.597629	0.000071
1922	1.9114e+02	-3.4571	-8.521606	0.000176	1.763910	0.597629	0.000071
1923	1.9124e+02	-3.4218	-8.454802	0.000166	1.662536	0.563282	0.000067
1924	1.9134e+02	-3.3769	-8.381073	0.000183	1.834872	0.621671	0.000074
1925	1.9144e+02	-3.3416	-8.315084	0.000164	1.642261	0.556413	0.000066
1926	1.9154e+02	-3.2935	-8.248687	0.000165	1.652398	0.559848	0.000067
1927	1.9164e+02	-3.2903	-8.174143	0.000186	1.855147	0.628541	0.000075
1928	1.9174e+02	-3.2165	-8.104895	0.000172	1.723360	0.583890	0.000070
1929	1.9184e+02	-3.1988	-8.037683	0.000167	1.672673	0.566717	0.000068
1930	1.9194e+02	-3.1331	-7.966398	0.000177	1.774047	0.601064	0.000072
1931	1.9203e+02	-3.1090	-7.893891	0.000180	1.804460	0.611367	0.000073
1932	1.9213e+02	-3.0721	-7.827902	0.000164	1.642261	0.556413	0.000066
1933	1.9223e+02	-3.0224	-7.760690	0.000167	1.672673	0.566717	0.000068
1934	1.9233e+02	-2.9807	-7.686147	0.000186	1.855147	0.628541	0.000075
1935	1.9243e+02	-2.9470	-7.619342	0.000166	1.662536	0.563282	0.000067
1936	1.9253e+02	-2.9101	-7.543984	0.000188	1.875422	0.635410	0.000076
1937	1.9263e+02	-2.8748	-7.473106	0.000176	1.763910	0.597629	0.000071
1938	1.9273e+02	-2.8170	-7.405488	0.000168	1.682811	0.570152	0.000068
1939	1.9283e+02	-2.7817	-7.330944	0.000186	1.855147	0.628541	0.000075
1940	1.9293e+02	-2.7673	-7.264547	0.000165	1.652398	0.559848	0.000067
1941	1.9303e+02	-2.7112	-7.190818	0.000183	1.834872	0.621671	0.000074
1942	1.9313e+02	-2.6534	-7.124829	0.000164	1.642261	0.556413	0.000066
1943	1.9323e+02	-2.6213	-7.051507	0.000182	1.824735	0.618237	0.000074
1944	1.9333e+02	-2.5716	-6.984703	0.000166	1.662536	0.563282	0.000067
1945	1.9343e+02	-2.5539	-6.910566	0.000185	1.845009	0.625106	0.000075
1946	1.9353e+02	-2.5186	-6.840503	0.000174	1.743635	0.590760	0.000070
1947	1.9363e+02	-2.4577	-6.764330	0.000190	1.895696	0.642279	0.000077
1948	1.9373e+02	-2.4176	-6.694675	0.000173	1.733498	0.587325	0.000070
1949	1.9383e+02	-2.3903	-6.617687	0.000192	1.915971	0.649149	0.000077
1950	1.9393e+02	-2.3630	-6.548439	0.000172	1.723360	0.583890	0.000070
1951	1.9403e+02	-2.3181	-6.474710	0.000183	1.834872	0.621671	0.000074
1952	1.9412e+02	-2.2924	-6.407498	0.000167	1.672673	0.566717	0.000068
1953	1.9422e+02	-2.2523	-6.330511	0.000192	1.915971	0.649149	0.000077
1954	1.9432e+02	-2.1994	-6.262077	0.000170	1.703086	0.577021	0.000069
1955	1.9442e+02	-2.1481	-6.184275	0.000194	1.936246	0.656018	0.000078
1956	1.9452e+02	-2.1064	-6.115841	0.000170	1.703086	0.577021	0.000069
1957	1.9462e+02	-2.0646	-6.044556	0.000177	1.774047	0.601064	0.000072
1958	1.9472e+02	-2.0085	-5.967568	0.000192	1.915971	0.649149	0.000077
1959	1.9482e+02	-1.9957	-5.893025	0.000186	1.855147	0.628541	0.000075
1960	1.9492e+02	-1.9604	-5.822554	0.000175	1.753773	0.594194	0.000071
1961	1.9502e+02	-1.9219	-5.748011	0.000186	1.855147	0.628541	0.000075
1962	1.9512e+02	-1.8657	-5.670616	0.000193	1.926109	0.652583	0.000078
1963	1.9522e+02	-1.8240	-5.599331	0.000177	1.774047	0.601064	0.000072
1964	1.9532e+02	-1.7983	-5.519899	0.000198	1.976796	0.669757	0.000080
1965	1.9542e+02	-1.7566	-5.446577	0.000182	1.824735	0.618237	0.000074
1966	1.9552e+02	-1.7101	-5.369182	0.000193	1.926109	0.652583	0.000078
1967	1.9562e+02	-1.6764	-5.294638	0.000186	1.855147	0.628541	0.000075
1968	1.9572e+02	-1.6363	-5.221317	0.000182	1.824735	0.618237	0.000074
1969	1.9582e+02	-1.5994	-5.147180	0.000185	1.845009	0.625106	0.000075
1970	1.9592e+02	-1.5449	-5.076303	0.000176	1.763910	0.597629	0.000071
1971	1.9601e+02	-1.5080	-5.007055	0.000172	1.723360	0.583890	0.000070
1972	1.9611e+02	-1.4711	-4.925993	0.000202	2.017345	0.683495	0.000081
1973	1.9621e+02	-1.4165	-4.856745	0.000172	1.723360	0.583890	0.000070
1974	1.9631e+02	-1.3828	-4.778128	0.000196	1.956521	0.662887	0.000079
1975	1.9641e+02	-1.3588	-4.701548	0.000191	1.905834	0.645714	0.000077
1976	1.9651e+02	-1.2914	-4.622931	0.000196	1.956521	0.662887	0.000079
1977	1.9661e+02	-1.2882	-4.552053	0.000176	1.763910	0.597629	0.000071
1978	1.9671e+02	-1.2032	-4.472621	0.000198	1.976796	0.669757	0.000080
1979	1.9681e+02	-1.1759	-4.396856	0.000189	1.885559	0.638845	0.000076
1980	1.9691e+02	-1.1599	-4.319868	0.000192	1.915971	0.649149	0.000077
1981	1.9701e+02	-1.1053	-4.244102	0.000189	1.885559	0.638845	0.000076
1982	1.9711e+02	-1.0732	-4.168336	0.000189	1.885559	0.638845	0.000076
1983	1.9721e+02	-1.0155	-4.096237	0.000179	1.794322	0.607933	0.000072
1984	1.9731e+02	-0.9914	-4.019656	0.000191	1.905834	0.645714	0.000077
1985	1.9741e+02	-0.9385	-3.941447	0.000195	1.946383	0.659453	0.000079
1986	1.9751e+02	-0.9064	-3.860385	0.000202	2.017345	0.683495	0.000081
1987	1.9761e+02	-0.8727	-3.786249	0.000185	1.845009	0.625106	0.000075
1988	1.9771e+02	-0.8262	-3.709261	0.000192	1.915971	0.649149	0.000077
1989	1.9781e+02	-0.8133	-3.630644	0.000196	1.956521	0.662887	0.000079
1990	1.9791e+02	-0.7668	-3.551620	0.000197	1.966658	0.666322	0.000079
1991	1.9800e+02	-0.6898	-3.470559	0.000202	2.017345	0.683495	0.000081
1992	1.9810e+02	-0.6722	-3.395200	0.000188	1.875422	0.635410	0.000076
1993	1.9820e+02	-0.6369	-3.316990	0.000195	1.946383	0.659453	0.000079
1994	1.9830e+02	-0.5727	-3.237151	0.000199	1.986933	0.673191	0.000080
1995	1.9840e+02	-0.5743	-3.151202	-0.000214	-2.138994	-0.724711	0.000086
1996	1.9850e+02	-0.5230	-3.078288	0.000181	1.814597	0.614802	0.000073
1997	1.9860e+02	-0.4749	-2.998449	0.000199	1.986933	0.673191	0.000080
1998	1.9870e+02	-0.4219	-2.920239	0.000195	1.946383	0.659453	0.000079
1999	1.9880e+02	-0.4043	-2.837548	0.000206	2.057895	0.697234	0.000083
2000	1.9890e+02	-0.3561	-2.754043	0.000208	2.078170	0.704103	0.000084
2001	1.9900e+02	-0.3433	-2.677870	0.000190	1.895696	0.642279	0.000077
2002	1.9910e+02	-0.2759	-2.595994	0.000204	2.037620	0.690364	0.000082
2003	1.9920e+02	-0.2422	-2.513304	0.000206	2.057895	0.697234	0.000083
2004	1.9930e+02	-0.2021	-2.435094	0.000195	1.946383	0.659453	0.000079
2005	1.9940e+02	-0.1476	-2.355662	0.000198	1.976796	0.669757	0.000080
2006	1.9950e+02	-0.1107	-2.268898	0.000216	2.159269	0.731580	0.000087
2007	1.9960e+02	-0.0545	-2.189466	0.000198	1.976796	0.669757	0.000080
2008	1.9970e+02	-0.0385	-2.105146	0.000210	2.098445	0.710972	0.000085
2009	1.9980e+02	0.0080	-2.018790	0.000210	2.098445	0.710972	0.000087

Center data before PMax,+/-Pr and +/-Vc Calc.

PMax (uC/cm2):	2.98e+01
Pr (uC/cm2):	5.98e-01
-Pr (uC/cm2):	-2.02e+00
PLoss (uC/cm2):	-6.95e-01
Vc:	6.60e-01
-Vc:	-2.74e-01
C (Max-Eff) (nF):	1.49e-01
K (Eff):	5.05e+02
Vert. (+/-Pr) Shift (uC/cm2):	-7.10e-01
Horiz. Shift (+/-Vc):	1.93e-01
Offset (uC/cm2):	1.32e+00

A (Loop Area - uC/cm2·Volts):	9.12e-03



Hysteresis Version: 5.48.1 - Radiant Technologies, Inc., 1999 - 9/12/24

