»»»»»»»»»»»»»»»»»»»»»»»»»»»»»»»»»»»» Hysteresis ««««««««««««««««««««««««««««««««««««
»»»  Executed Version:	5.48.1
»»»  Vision Version:	5.48.4 (R)
»»»  Vision Compiled:	9/18/24
»»»  Driver Version:	5.47.0
»»»  Windows Version:	Windows 8 or 8.1
»»»  Processor Information:	x86 (AMD or Intel) - 32 Processors
»»»  Tester Name:	PMF21124-494 (100V)
»»»  Tester S/N:	PMF21124-494
»»»  Internal Amp Type:	100V RevK 270k
»»»  Internal Amp S/N:	iAB2-596/K     
»»»  Execution Count:	1
»»»»»»»»»»»»»»»»»»»»»»»»»»»»»»»»»»»»»»»»»»««««««««««««««««««««««««««««««««««««««««««

Stored:	6/12/2025 - 11:6:18
Configured:	06/12/25 10:06:17 AM
Executed:	06/12/25 11:05:49 AM

»»»»»»»»»»»»»»»»»»»»»»»»»»»»»»»»»»» Sample Info ««««««««««««««««««««««««««««««««««««
Sample Name:	
Lot Name:	
Wafer Name:	
Die Row/Column:	0/0
Capacitor Number:	0
Sample Area (cm2):	1.00e-04
Sample Thickness (microns):	3.00e-01

Amplifier:	Internal

»»»»»»»»»»»»»»»»»»»»»»»»»»»»»»»»»»» Tester Info «««««««««««««««««««««««««««««««««««
Tester Name:	PMF21124-494 (100V)
Tester Serial Number:	PMF21124-494
Return Signal Amp. Level:	0.19 [Index: 3]

»»»»»»»»»»»»»»»»»»»»»»»»»»»»»»»» Hysteresis Info ««««««««««««««««««««««««««««««««««
Task Name:	Hyst-1390
Volts:	20.00
Field:	666.67 (kV/cm)
DCBias:	0.00
DCField:	0.00 (kV/cm)
Hysteresis Period (ms):	2.00e+02
Preset:	Enabled
Preset Delay (ms):	1.00e+03
Profile:	Standard Bipolar

»»»»»»»»»»»»»»»»»»»»»»»»»»»»»»»»»»»»»» Data «««««««««««««««««««««««««««««««««««««««
Points:	2009

Valid Data

Point	Time (ms)	Drive Voltage	Measured Polarization (uC/cm2)	Capacitance (uF)	Normalized Capacitance (uF/cm2)	Dielectric Constant	Instantaneous Current (mA)
   1	0.0000e+00	0.0080	-1.352440	0.000375	3.750572	1.270728	0.000150
   2	9.9500e-02	0.0321	-1.203066	0.000375	3.750572	1.270728	0.000150
   3	1.9900e-01	0.0738	-1.017358	0.000466	4.662873	1.579824	0.000187
   4	2.9850e-01	0.1059	-0.855873	0.000405	4.054673	1.373760	0.000162
   5	3.9800e-01	0.1636	-0.645942	0.000527	5.271074	1.785888	0.000211
   6	4.9750e-01	0.1925	-0.452159	0.000487	4.865607	1.648512	0.000195
   7	5.9700e-01	0.2294	-0.298748	0.000385	3.851939	1.305072	0.000154
   8	6.9650e-01	0.2727	-0.133225	0.000416	4.156039	1.408104	0.000166
   9	7.9600e-01	0.3096	0.064594	0.000497	4.966974	1.682856	0.000199
  10	8.9550e-01	0.3561	0.234154	0.000426	4.257406	1.442448	0.000170
  11	9.9500e-01	0.3914	0.383528	0.000375	3.750572	1.270728	0.000150
  12	1.0945e+00	0.4331	0.540976	0.000395	3.953306	1.339416	0.000158
  13	1.1940e+00	0.4668	0.730722	0.000476	4.764240	1.614168	0.000191
  14	1.2935e+00	0.5182	0.855873	0.000314	3.142371	1.064664	0.000126
  15	1.3930e+00	0.5454	1.077915	0.000558	5.575175	1.888920	0.000223
  16	1.4925e+00	0.5871	1.231326	0.000385	3.851939	1.305072	0.000154
  17	1.5920e+00	0.6353	1.376663	0.000365	3.649205	1.236384	0.000146
  18	1.6915e+00	0.6658	1.590631	0.000537	5.372441	1.820232	0.000215
  19	1.7910e+00	0.7155	1.752117	0.000405	4.054673	1.373760	0.000162
  20	1.8905e+00	0.7412	1.970122	0.000547	5.473808	1.854576	0.000219
  21	1.9900e+00	0.7877	2.123533	0.000385	3.851939	1.305072	0.000154
  22	2.0895e+00	0.8198	2.333464	0.000527	5.271074	1.785888	0.000211
  23	2.1890e+00	0.8663	2.490913	0.000395	3.953306	1.339416	0.000158
  24	2.2885e+00	0.9096	2.692770	0.000507	5.068341	1.717200	0.000203
  25	2.3880e+00	0.9497	2.874441	0.000456	4.561507	1.545480	0.000183
  26	2.4875e+00	0.9738	3.027852	0.000385	3.851939	1.305072	0.000154
  27	2.5870e+00	1.0283	3.225671	0.000497	4.966974	1.682856	0.000199
  28	2.6865e+00	1.0780	3.354860	0.000324	3.243738	1.099008	0.000130
  29	2.7860e+00	1.1069	3.516345	0.000405	4.054673	1.373760	0.000162
  30	2.8855e+00	1.1390	3.726276	0.000527	5.271074	1.785888	0.000211
  31	2.9850e+00	1.1968	3.891799	0.000416	4.156039	1.408104	0.000166
  32	3.0845e+00	1.2208	4.077507	0.000466	4.662873	1.579824	0.000187
  33	3.1840e+00	1.2657	4.243030	0.000416	4.156039	1.408104	0.000166
  34	3.2835e+00	1.3010	4.392404	0.000375	3.750572	1.270728	0.000150
  35	3.3830e+00	1.3460	4.610409	0.000547	5.473808	1.854576	0.000219
  36	3.4825e+00	1.3925	4.767857	0.000395	3.953306	1.339416	0.000158
  37	3.5820e+00	1.4214	4.977788	0.000527	5.271074	1.785888	0.000211
  38	3.6815e+00	1.4647	5.175608	0.000497	4.966974	1.682856	0.000199
  39	3.7810e+00	1.4951	5.329019	0.000385	3.851939	1.305072	0.000154
  40	3.8805e+00	1.5353	5.514727	0.000466	4.662873	1.579824	0.000187
  41	3.9800e+00	1.5786	5.664101	0.000375	3.750572	1.270728	0.000150
  42	4.0795e+00	1.6251	5.902292	0.000598	5.980642	2.026296	0.000239
  43	4.1790e+00	1.6732	6.100112	0.000497	4.966974	1.682856	0.000199
  44	4.2785e+00	1.7069	6.253523	0.000385	3.851939	1.305072	0.000154
  45	4.3780e+00	1.7438	6.406934	0.000385	3.851939	1.305072	0.000154
  46	4.4775e+00	1.7935	6.548234	0.000355	3.547838	1.202040	0.000142
  47	4.5770e+00	1.8256	6.701645	0.000385	3.851939	1.305072	0.000154
  48	4.6765e+00	1.8689	6.903502	0.000507	5.068341	1.717200	0.000203
  49	4.7760e+00	1.9058	7.089210	0.000466	4.662873	1.579824	0.000187
  50	4.8755e+00	1.9491	7.238584	0.000375	3.750572	1.270728	0.000150
  51	4.9750e+00	1.9860	7.420255	0.000456	4.561507	1.545480	0.000183
  52	5.0745e+00	2.0245	7.610001	0.000476	4.764240	1.614168	0.000191
  53	5.1740e+00	2.0695	7.823969	0.000537	5.372441	1.820232	0.000215
  54	5.2735e+00	2.1015	7.993529	0.000426	4.257406	1.442448	0.000170
  55	5.3730e+00	2.1433	8.211534	0.000547	5.473808	1.854576	0.000219
  56	5.4725e+00	2.1834	8.352834	0.000355	3.547838	1.202040	0.000142
  57	5.5720e+00	2.2219	8.562765	0.000527	5.271074	1.785888	0.000211
  58	5.6715e+00	2.2684	8.716176	0.000385	3.851939	1.305072	0.000154
  59	5.7710e+00	2.3005	8.909959	0.000487	4.865607	1.648512	0.000195
  60	5.8705e+00	2.3390	9.071444	0.000405	4.054673	1.373760	0.000162
  61	5.9700e+00	2.3839	9.232929	0.000405	4.054673	1.373760	0.000162
  62	6.0695e+00	2.4304	9.426712	0.000487	4.865607	1.648512	0.000195
  63	6.1690e+00	2.4529	9.563975	0.000345	3.446472	1.167696	0.000138
  64	6.2685e+00	2.5042	9.749683	0.000466	4.662873	1.579824	0.000187
  65	6.3680e+00	2.5379	9.899057	0.000375	3.750572	1.270728	0.000150
  66	6.4675e+00	2.5892	10.048431	0.000375	3.750572	1.270728	0.000150
  67	6.5670e+00	2.6229	10.226065	0.000446	4.460140	1.511136	0.000179
  68	6.6665e+00	2.6646	10.431959	0.000517	5.169708	1.751544	0.000207
  69	6.7660e+00	2.6983	10.605556	0.000436	4.358773	1.476792	0.000174
  70	6.8655e+00	2.7416	10.779152	0.000436	4.358773	1.476792	0.000174
  71	6.9650e+00	2.7737	10.964861	0.000466	4.662873	1.579824	0.000187
  72	7.0645e+00	2.8202	11.142495	0.000446	4.460140	1.511136	0.000179
  73	7.1640e+00	2.8603	11.295906	0.000385	3.851939	1.305072	0.000154
  74	7.2635e+00	2.9069	11.505837	0.000527	5.271074	1.785888	0.000211
  75	7.3630e+00	2.9406	11.707694	0.000507	5.068341	1.717200	0.000203
  76	7.4625e+00	2.9807	11.869179	0.000405	4.054673	1.373760	0.000162
  77	7.5620e+00	3.0144	12.062962	0.000487	4.865607	1.648512	0.000195
  78	7.6615e+00	3.0609	12.176001	0.000284	2.838271	0.961632	0.000114
  79	7.7610e+00	3.1026	12.329413	0.000385	3.851939	1.305072	0.000154
  80	7.8605e+00	3.1411	12.450527	0.000304	3.041004	1.030320	0.000122
  81	7.9600e+00	3.1764	12.644309	0.000487	4.865607	1.648512	0.000195
  82	8.0595e+00	3.2133	12.777535	0.000335	3.345105	1.133352	0.000134
  83	8.1590e+00	3.2550	12.983429	0.000517	5.169708	1.751544	0.000207
  84	8.2585e+00	3.3015	13.144914	0.000405	4.054673	1.373760	0.000162
  85	8.3580e+00	3.3384	13.266028	0.000304	3.041004	1.030320	0.000122
  86	8.4575e+00	3.3753	13.463848	0.000497	4.966974	1.682856	0.000199
  87	8.5570e+00	3.4170	13.649556	0.000466	4.662873	1.579824	0.000187
  88	8.6565e+00	3.4571	13.827190	0.000446	4.460140	1.511136	0.000179
  89	8.7560e+00	3.4956	14.053270	0.000568	5.676542	1.923264	0.000227
  90	8.8555e+00	3.5277	14.142086	0.000223	2.230070	0.755568	0.000089
  91	8.9550e+00	3.5806	14.339906	0.000497	4.966974	1.682856	0.000199
  92	9.0545e+00	3.6063	14.529652	0.000476	4.764240	1.614168	0.000191
  93	9.1540e+00	3.6641	14.723434	0.000487	4.865607	1.648512	0.000195
  94	9.2535e+00	3.6994	14.868771	0.000365	3.649205	1.236384	0.000146
  95	9.3530e+00	3.7395	15.014108	0.000365	3.649205	1.236384	0.000146
  96	9.4525e+00	3.7748	15.143296	0.000324	3.243738	1.099008	0.000130
  97	9.5520e+00	3.8197	15.304782	0.000405	4.054673	1.373760	0.000162
  98	9.6515e+00	3.8502	15.417821	0.000284	2.838271	0.961632	0.000114
  99	9.7510e+00	3.9063	15.647938	0.000578	5.777908	1.957608	0.000231
 100	9.8505e+00	3.9384	15.777126	0.000324	3.243738	1.099008	0.000130
 101	9.9500e+00	3.9785	15.946686	0.000426	4.257406	1.442448	0.000170
 102	1.0050e+01	4.0234	16.128357	0.000456	4.561507	1.545480	0.000183
 103	1.0149e+01	4.0603	16.233323	0.000264	2.635537	0.892944	0.000105
 104	1.0248e+01	4.0892	16.443254	0.000527	5.271074	1.785888	0.000211
 105	1.0348e+01	4.1277	16.612814	0.000426	4.257406	1.442448	0.000170
 106	1.0447e+01	4.1758	16.790448	0.000446	4.460140	1.511136	0.000179
 107	1.0547e+01	4.2047	16.955970	0.000416	4.156039	1.408104	0.000166
 108	1.0646e+01	4.2576	17.117456	0.000405	4.054673	1.373760	0.000162
 109	1.0746e+01	4.2929	17.331424	0.000537	5.372441	1.820232	0.000215
 110	1.0845e+01	4.3362	17.472723	0.000355	3.547838	1.202040	0.000142
 111	1.0945e+01	4.3812	17.597875	0.000314	3.142371	1.064664	0.000126
 112	1.1044e+01	4.4165	17.787620	0.000476	4.764240	1.614168	0.000191
 113	1.1144e+01	4.4550	17.892586	0.000264	2.635537	0.892944	0.000105
 114	1.1243e+01	4.4951	18.041960	0.000375	3.750572	1.270728	0.000150
 115	1.1343e+01	4.5352	18.203445	0.000405	4.054673	1.373760	0.000162
 116	1.1443e+01	4.5737	18.352819	0.000375	3.750572	1.270728	0.000150
 117	1.1542e+01	4.6234	18.502193	0.000375	3.750572	1.270728	0.000150
 118	1.1642e+01	4.6523	18.643493	0.000355	3.547838	1.202040	0.000142
 119	1.1741e+01	4.6892	18.829201	0.000466	4.662873	1.579824	0.000187
 120	1.1841e+01	4.7277	18.970501	0.000355	3.547838	1.202040	0.000142
 121	1.1940e+01	4.7694	19.123912	0.000385	3.851939	1.305072	0.000154
 122	1.2040e+01	4.8079	19.301546	0.000446	4.460140	1.511136	0.000179
 123	1.2139e+01	4.8480	19.438809	0.000345	3.446472	1.167696	0.000138
 124	1.2239e+01	4.8881	19.660851	0.000558	5.575175	1.888920	0.000223
 125	1.2338e+01	4.9266	19.810225	0.000375	3.750572	1.270728	0.000150
 126	1.2438e+01	4.9731	19.935376	0.000314	3.142371	1.064664	0.000126
 127	1.2537e+01	5.0100	20.149344	0.000537	5.372441	1.820232	0.000215
 128	1.2636e+01	5.0646	20.286607	0.000345	3.446472	1.167696	0.000138
 129	1.2736e+01	5.0950	20.427907	0.000355	3.547838	1.202040	0.000142
 130	1.2835e+01	5.1368	20.553058	0.000314	3.142371	1.064664	0.000126
 131	1.2935e+01	5.1656	20.641875	0.000223	2.230070	0.755568	0.000089
 132	1.3034e+01	5.2138	20.827583	0.000466	4.662873	1.579824	0.000187
 133	1.3134e+01	5.2555	20.993106	0.000416	4.156039	1.408104	0.000166
 134	1.3233e+01	5.2924	21.146517	0.000385	3.851939	1.305072	0.000154
 135	1.3333e+01	5.3261	21.328188	0.000456	4.561507	1.545480	0.000183
 136	1.3432e+01	5.3758	21.425079	0.000243	2.432804	0.824256	0.000097
 137	1.3532e+01	5.4063	21.590602	0.000416	4.156039	1.408104	0.000166
 138	1.3632e+01	5.4496	21.715753	0.000314	3.142371	1.064664	0.000126
 139	1.3731e+01	5.4945	21.889350	0.000436	4.358773	1.476792	0.000174
 140	1.3831e+01	5.5314	22.022575	0.000335	3.345105	1.133352	0.000134
 141	1.3930e+01	5.5699	22.228469	0.000517	5.169708	1.751544	0.000207
 142	1.4030e+01	5.6068	22.377843	0.000375	3.750572	1.270728	0.000150
 143	1.4129e+01	5.6549	22.531255	0.000385	3.851939	1.305072	0.000154
 144	1.4229e+01	5.6886	22.680629	0.000375	3.750572	1.270728	0.000150
 145	1.4328e+01	5.7367	22.878448	0.000497	4.966974	1.682856	0.000199
 146	1.4428e+01	5.7688	22.983414	0.000264	2.635537	0.892944	0.000105
 147	1.4527e+01	5.8137	23.084342	0.000253	2.534170	0.858600	0.000101
 148	1.4627e+01	5.8538	23.197382	0.000284	2.838271	0.961632	0.000114
 149	1.4726e+01	5.8940	23.383090	0.000466	4.662873	1.579824	0.000187
 150	1.4825e+01	5.9196	23.532464	0.000375	3.750572	1.270728	0.000150
 151	1.4925e+01	5.9645	23.685875	0.000385	3.851939	1.305072	0.000154
 152	1.5024e+01	5.9966	23.815064	0.000324	3.243738	1.099008	0.000130
 153	1.5124e+01	6.0592	23.992698	0.000446	4.460140	1.511136	0.000179
 154	1.5223e+01	6.0929	24.117849	0.000314	3.142371	1.064664	0.000126
 155	1.5323e+01	6.1346	24.291446	0.000436	4.358773	1.476792	0.000174
 156	1.5422e+01	6.1570	24.408523	0.000294	2.939638	0.995976	0.000118
 157	1.5522e+01	6.1988	24.565971	0.000395	3.953306	1.339416	0.000158
 158	1.5621e+01	6.2485	24.727456	0.000405	4.054673	1.373760	0.000162
 159	1.5721e+01	6.2934	24.921239	0.000487	4.865607	1.648512	0.000195
 160	1.5820e+01	6.3335	25.038316	0.000294	2.939638	0.995976	0.000118
 161	1.5920e+01	6.3720	25.147319	0.000274	2.736904	0.927288	0.000110
 162	1.6020e+01	6.4185	25.296693	0.000375	3.750572	1.270728	0.000150
 163	1.6119e+01	6.4458	25.437992	0.000355	3.547838	1.202040	0.000142
 164	1.6218e+01	6.4811	25.571218	0.000335	3.345105	1.133352	0.000134
 165	1.6318e+01	6.5212	25.664072	0.000233	2.331437	0.789912	0.000093
 166	1.6418e+01	6.5709	25.857854	0.000487	4.865607	1.648512	0.000195
 167	1.6517e+01	6.6078	26.023377	0.000416	4.156039	1.408104	0.000166
 168	1.6616e+01	6.6399	26.140454	0.000294	2.939638	0.995976	0.000118
 169	1.6716e+01	6.6864	26.261568	0.000304	3.041004	1.030320	0.000122
 170	1.6816e+01	6.7249	26.439202	0.000446	4.460140	1.511136	0.000179
 171	1.6915e+01	6.7747	26.568390	0.000324	3.243738	1.099008	0.000130
 172	1.7015e+01	6.8100	26.701616	0.000335	3.345105	1.133352	0.000134
 173	1.7114e+01	6.8469	26.818693	0.000294	2.939638	0.995976	0.000118
 174	1.7213e+01	6.8806	27.012475	0.000487	4.865607	1.648512	0.000195
 175	1.7313e+01	6.9271	27.173961	0.000405	4.054673	1.373760	0.000162
 176	1.7413e+01	6.9624	27.291038	0.000294	2.939638	0.995976	0.000118
 177	1.7512e+01	7.0041	27.456560	0.000416	4.156039	1.408104	0.000166
 178	1.7611e+01	7.0442	27.565563	0.000274	2.736904	0.927288	0.000110
 179	1.7711e+01	7.0843	27.706863	0.000355	3.547838	1.202040	0.000142
 180	1.7811e+01	7.1244	27.848162	0.000355	3.547838	1.202040	0.000142
 181	1.7910e+01	7.1613	27.981388	0.000335	3.345105	1.133352	0.000134
 182	1.8009e+01	7.1982	28.110576	0.000324	3.243738	1.099008	0.000130
 183	1.8109e+01	7.2399	28.207467	0.000243	2.432804	0.824256	0.000097
 184	1.8209e+01	7.2848	28.421436	0.000537	5.372441	1.820232	0.000215
 185	1.8308e+01	7.3217	28.526401	0.000264	2.635537	0.892944	0.000105
 186	1.8407e+01	7.3682	28.667701	0.000355	3.547838	1.202040	0.000142
 187	1.8507e+01	7.3907	28.752481	0.000213	2.128703	0.721224	0.000085
 188	1.8607e+01	7.4436	28.922040	0.000426	4.257406	1.442448	0.000170
 189	1.8706e+01	7.4870	29.079489	0.000395	3.953306	1.339416	0.000158
 190	1.8805e+01	7.5239	29.184454	0.000264	2.635537	0.892944	0.000105
 191	1.8905e+01	7.5607	29.345940	0.000405	4.054673	1.373760	0.000162
 192	1.9005e+01	7.6025	29.527611	0.000456	4.561507	1.545480	0.000183
 193	1.9104e+01	7.6313	29.660836	0.000335	3.345105	1.133352	0.000134
 194	1.9203e+01	7.6843	29.822322	0.000405	4.054673	1.373760	0.000162
 195	1.9303e+01	7.7148	29.943436	0.000304	3.041004	1.030320	0.000122
 196	1.9402e+01	7.7677	30.064550	0.000304	3.041004	1.030320	0.000122
 197	1.9502e+01	7.8062	30.193738	0.000324	3.243738	1.099008	0.000130
 198	1.9602e+01	7.8511	30.318889	0.000314	3.142371	1.064664	0.000126
 199	1.9701e+01	7.8864	30.375409	0.000142	1.419135	0.480816	0.000057
 200	1.9800e+01	7.9153	30.532858	0.000395	3.953306	1.339416	0.000158
 201	1.9900e+01	7.9538	30.698380	0.000416	4.156039	1.408104	0.000166
 202	2.0000e+01	7.9923	30.839680	0.000355	3.547838	1.202040	0.000142
 203	2.0099e+01	8.0388	30.960794	0.000304	3.041004	1.030320	0.000122
 204	2.0198e+01	8.0773	31.102094	0.000355	3.547838	1.202040	0.000142
 205	2.0298e+01	8.1142	31.207059	0.000264	2.635537	0.892944	0.000105
 206	2.0398e+01	8.1607	31.388730	0.000456	4.561507	1.545480	0.000183
 207	2.0497e+01	8.1896	31.469473	0.000203	2.027336	0.686880	0.000081
 208	2.0596e+01	8.2281	31.651144	0.000456	4.561507	1.545480	0.000183
 209	2.0696e+01	8.2827	31.808592	0.000395	3.953306	1.339416	0.000158
 210	2.0796e+01	8.3163	31.917595	0.000274	2.736904	0.927288	0.000110
 211	2.0895e+01	8.3564	32.034672	0.000294	2.939638	0.995976	0.000118
 212	2.0994e+01	8.3933	32.188083	0.000385	3.851939	1.305072	0.000154
 213	2.1094e+01	8.4335	32.305160	0.000294	2.939638	0.995976	0.000118
 214	2.1194e+01	8.4784	32.414163	0.000274	2.736904	0.927288	0.000110
 215	2.1293e+01	8.5153	32.539314	0.000314	3.142371	1.064664	0.000126
 216	2.1392e+01	8.5618	32.708874	0.000426	4.257406	1.442448	0.000170
 217	2.1492e+01	8.6035	32.801728	0.000233	2.331437	0.789912	0.000093
 218	2.1591e+01	8.6436	32.922842	0.000304	3.041004	1.030320	0.000122
 219	2.1691e+01	8.6837	33.060105	0.000345	3.446472	1.167696	0.000138
 220	2.1791e+01	8.7126	33.189293	0.000324	3.243738	1.099008	0.000130
 221	2.1890e+01	8.7527	33.310407	0.000304	3.041004	1.030320	0.000122
 222	2.1989e+01	8.7960	33.459781	0.000375	3.750572	1.270728	0.000150
 223	2.2089e+01	8.8345	33.568784	0.000274	2.736904	0.927288	0.000110
 224	2.2189e+01	8.8762	33.722195	0.000385	3.851939	1.305072	0.000154
 225	2.2288e+01	8.9163	33.883680	0.000405	4.054673	1.373760	0.000162
 226	2.2387e+01	8.9645	34.020943	0.000345	3.446472	1.167696	0.000138
 227	2.2487e+01	9.0014	34.150131	0.000324	3.243738	1.099008	0.000130
 228	2.2587e+01	9.0334	34.303542	0.000385	3.851939	1.305072	0.000154
 229	2.2686e+01	9.0735	34.416582	0.000284	2.838271	0.961632	0.000114
 230	2.2785e+01	9.1233	34.529622	0.000284	2.838271	0.961632	0.000114
 231	2.2885e+01	9.1489	34.614402	0.000213	2.128703	0.721224	0.000085
 232	2.2985e+01	9.1955	34.743590	0.000324	3.243738	1.099008	0.000130
 233	2.3084e+01	9.2356	34.868741	0.000314	3.142371	1.064664	0.000126
 234	2.3183e+01	9.2805	34.985818	0.000294	2.939638	0.995976	0.000118
 235	2.3283e+01	9.3190	35.127118	0.000355	3.547838	1.202040	0.000142
 236	2.3383e+01	9.3495	35.268418	0.000355	3.547838	1.202040	0.000142
 237	2.3482e+01	9.3960	35.409718	0.000355	3.547838	1.202040	0.000142
 238	2.3581e+01	9.4361	35.510646	0.000253	2.534170	0.858600	0.000101
 239	2.3681e+01	9.4842	35.635797	0.000314	3.142371	1.064664	0.000126
 240	2.3780e+01	9.5115	35.781134	0.000365	3.649205	1.236384	0.000146
 241	2.3880e+01	9.5548	35.906285	0.000314	3.142371	1.064664	0.000126
 242	2.3980e+01	9.5997	36.047585	0.000355	3.547838	1.202040	0.000142
 243	2.4079e+01	9.6446	36.172736	0.000314	3.142371	1.064664	0.000126
 244	2.4178e+01	9.6815	36.301925	0.000324	3.243738	1.099008	0.000130
 245	2.4278e+01	9.7120	36.402853	0.000253	2.534170	0.858600	0.000101
 246	2.4378e+01	9.7505	36.540116	0.000345	3.446472	1.167696	0.000138
 247	2.4477e+01	9.7954	36.657193	0.000294	2.939638	0.995976	0.000118
 248	2.4576e+01	9.8291	36.729861	0.000182	1.824603	0.618192	0.000073
 249	2.4676e+01	9.8773	36.867124	0.000345	3.446472	1.167696	0.000138
 250	2.4776e+01	9.9126	36.947866	0.000203	2.027336	0.686880	0.000081
 251	2.4875e+01	9.9478	37.093203	0.000365	3.649205	1.236384	0.000146
 252	2.4974e+01	9.9992	37.210280	0.000294	2.939638	0.995976	0.000118
 253	2.5074e+01	10.0297	37.343506	0.000335	3.345105	1.133352	0.000134
 254	2.5174e+01	10.0730	37.448471	0.000264	2.635537	0.892944	0.000105
 255	2.5273e+01	10.1195	37.597845	0.000375	3.750572	1.270728	0.000150
 256	2.5372e+01	10.1532	37.722996	0.000314	3.142371	1.064664	0.000126
 257	2.5472e+01	10.1901	37.840073	0.000294	2.939638	0.995976	0.000118
 258	2.5572e+01	10.2318	38.013670	0.000436	4.358773	1.476792	0.000174
 259	2.5671e+01	10.2687	38.126710	0.000284	2.838271	0.961632	0.000114
 260	2.5770e+01	10.3104	38.268010	0.000355	3.547838	1.202040	0.000142
 261	2.5870e+01	10.3489	38.401235	0.000335	3.345105	1.133352	0.000134
 262	2.5970e+01	10.3922	38.494089	0.000233	2.331437	0.789912	0.000093
 263	2.6069e+01	10.4243	38.607129	0.000284	2.838271	0.961632	0.000114
 264	2.6169e+01	10.4821	38.732280	0.000314	3.142371	1.064664	0.000126
 265	2.6268e+01	10.5093	38.784763	0.000132	1.317769	0.446472	0.000053
 266	2.6367e+01	10.5414	38.934137	0.000375	3.750572	1.270728	0.000150
 267	2.6467e+01	10.5895	39.031028	0.000243	2.432804	0.824256	0.000097
 268	2.6567e+01	10.6264	39.208662	0.000446	4.460140	1.511136	0.000179
 269	2.6666e+01	10.6746	39.293442	0.000213	2.128703	0.721224	0.000085
 270	2.6765e+01	10.7099	39.394371	0.000253	2.534170	0.858600	0.000101
 271	2.6865e+01	10.7548	39.539707	0.000365	3.649205	1.236384	0.000146
 272	2.6965e+01	10.7997	39.620450	0.000203	2.027336	0.686880	0.000081
 273	2.7064e+01	10.8286	39.785973	0.000416	4.156039	1.408104	0.000166
 274	2.7163e+01	10.8703	39.923235	0.000345	3.446472	1.167696	0.000138
 275	2.7263e+01	10.9152	40.048387	0.000314	3.142371	1.064664	0.000126
 276	2.7363e+01	10.9473	40.173538	0.000314	3.142371	1.064664	0.000126
 277	2.7462e+01	10.9874	40.355209	0.000456	4.561507	1.545480	0.000183
 278	2.7561e+01	11.0403	40.415766	0.000152	1.520502	0.515160	0.000061
 279	2.7661e+01	11.0612	40.524769	0.000274	2.736904	0.927288	0.000110
 280	2.7761e+01	11.1109	40.662031	0.000345	3.446472	1.167696	0.000138
 281	2.7860e+01	11.1526	40.762960	0.000253	2.534170	0.858600	0.000101
 282	2.7959e+01	11.1863	40.851777	0.000223	2.230070	0.755568	0.000089
 283	2.8059e+01	11.2264	40.960779	0.000274	2.736904	0.927288	0.000110
 284	2.8159e+01	11.2633	41.085930	0.000314	3.142371	1.064664	0.000126
 285	2.8258e+01	11.3130	41.194933	0.000274	2.736904	0.927288	0.000110
 286	2.8358e+01	11.3548	41.291824	0.000243	2.432804	0.824256	0.000097
 287	2.8457e+01	11.3901	41.412938	0.000304	3.041004	1.030320	0.000122
 288	2.8556e+01	11.4221	41.534052	0.000304	3.041004	1.030320	0.000122
 289	2.8656e+01	11.4703	41.679389	0.000365	3.649205	1.236384	0.000146
 290	2.8756e+01	11.5120	41.792429	0.000284	2.838271	0.961632	0.000114
 291	2.8855e+01	11.5296	41.937766	0.000365	3.649205	1.236384	0.000146
 292	2.8954e+01	11.5842	42.058880	0.000304	3.041004	1.030320	0.000122
 293	2.9054e+01	11.6291	42.143660	0.000213	2.128703	0.721224	0.000085
 294	2.9154e+01	11.6692	42.268811	0.000314	3.142371	1.064664	0.000126
 295	2.9253e+01	11.7109	42.393962	0.000314	3.142371	1.064664	0.000126
 296	2.9352e+01	11.7510	42.490854	0.000243	2.432804	0.824256	0.000097
 297	2.9452e+01	11.7863	42.636191	0.000365	3.649205	1.236384	0.000146
 298	2.9552e+01	11.8280	42.712896	0.000193	1.925969	0.652536	0.000077
 299	2.9651e+01	11.8697	42.817862	0.000264	2.635537	0.892944	0.000105
 300	2.9750e+01	11.9050	42.914753	0.000243	2.432804	0.824256	0.000097
 301	2.9850e+01	11.9371	43.072201	0.000395	3.953306	1.339416	0.000158
 302	2.9950e+01	11.9820	43.148907	0.000193	1.925969	0.652536	0.000077
 303	3.0049e+01	12.0205	43.270021	0.000304	3.041004	1.030320	0.000122
 304	3.0148e+01	12.0654	43.387098	0.000294	2.939638	0.995976	0.000118
 305	3.0248e+01	12.1071	43.516286	0.000324	3.243738	1.099008	0.000130
 306	3.0348e+01	12.1505	43.625289	0.000274	2.736904	0.927288	0.000110
 307	3.0447e+01	12.1777	43.750440	0.000314	3.142371	1.064664	0.000126
 308	3.0547e+01	12.2194	43.899814	0.000375	3.750572	1.270728	0.000150
 309	3.0646e+01	12.2692	44.016891	0.000294	2.939638	0.995976	0.000118
 310	3.0745e+01	12.3061	44.089559	0.000182	1.824603	0.618192	0.000073
 311	3.0845e+01	12.3446	44.230859	0.000355	3.547838	1.202040	0.000142
 312	3.0945e+01	12.3799	44.331788	0.000253	2.534170	0.858600	0.000101
 313	3.1044e+01	12.4184	44.469050	0.000345	3.446472	1.167696	0.000138
 314	3.1143e+01	12.4585	44.557867	0.000223	2.230070	0.755568	0.000089
 315	3.1243e+01	12.5066	44.715315	0.000395	3.953306	1.339416	0.000158
 316	3.1343e+01	12.5467	44.804132	0.000223	2.230070	0.755568	0.000089
 317	3.1442e+01	12.5948	44.868727	0.000162	1.621869	0.549504	0.000065
 318	3.1541e+01	12.6301	44.933321	0.000162	1.621869	0.549504	0.000065
 319	3.1641e+01	12.6590	45.078658	0.000365	3.649205	1.236384	0.000146
 320	3.1741e+01	12.7055	45.187660	0.000274	2.736904	0.927288	0.000110
 321	3.1840e+01	12.7376	45.324923	0.000345	3.446472	1.167696	0.000138
 322	3.1939e+01	12.7809	45.397591	0.000182	1.824603	0.618192	0.000073
 323	3.2039e+01	12.8258	45.546965	0.000375	3.750572	1.270728	0.000150
 324	3.2139e+01	12.8659	45.643857	0.000243	2.432804	0.824256	0.000097
 325	3.2238e+01	12.9044	45.801305	0.000395	3.953306	1.339416	0.000158
 326	3.2337e+01	12.9381	45.906270	0.000264	2.635537	0.892944	0.000105
 327	3.2437e+01	12.9831	46.019310	0.000284	2.838271	0.961632	0.000114
 328	3.2536e+01	13.0119	46.144461	0.000314	3.142371	1.064664	0.000126
 329	3.2636e+01	13.0585	46.245390	0.000253	2.534170	0.858600	0.000101
 330	3.2736e+01	13.1034	46.350355	0.000264	2.635537	0.892944	0.000105
 331	3.2835e+01	13.1387	46.475507	0.000314	3.142371	1.064664	0.000126
 332	3.2934e+01	13.1788	46.576435	0.000253	2.534170	0.858600	0.000101
 333	3.3034e+01	13.2093	46.693512	0.000294	2.939638	0.995976	0.000118
 334	3.3133e+01	13.2606	46.745995	0.000132	1.317769	0.446472	0.000053
 335	3.3233e+01	13.2879	46.859035	0.000284	2.838271	0.961632	0.000114
 336	3.3333e+01	13.3376	46.964000	0.000264	2.635537	0.892944	0.000105
 337	3.3432e+01	13.3825	47.064928	0.000253	2.534170	0.858600	0.000101
 338	3.3532e+01	13.4210	47.198154	0.000335	3.345105	1.133352	0.000134
 339	3.3631e+01	13.4611	47.311194	0.000284	2.838271	0.961632	0.000114
 340	3.3730e+01	13.4996	47.424234	0.000284	2.838271	0.961632	0.000114
 341	3.3830e+01	13.5429	47.537273	0.000284	2.838271	0.961632	0.000114
 342	3.3929e+01	13.5686	47.662425	0.000314	3.142371	1.064664	0.000126
 343	3.4029e+01	13.6215	47.795650	0.000335	3.345105	1.133352	0.000134
 344	3.4129e+01	13.6568	47.940987	0.000365	3.649205	1.236384	0.000146
 345	3.4228e+01	13.6873	48.001544	0.000152	1.520502	0.515160	0.000061
 346	3.4328e+01	13.7451	48.134769	0.000335	3.345105	1.133352	0.000134
 347	3.4427e+01	13.7836	48.247809	0.000284	2.838271	0.961632	0.000114
 348	3.4526e+01	13.8092	48.352775	0.000264	2.635537	0.892944	0.000105
 349	3.4626e+01	13.8558	48.405257	0.000132	1.317769	0.446472	0.000053
 350	3.4725e+01	13.8943	48.586929	0.000456	4.561507	1.545480	0.000183
 351	3.4825e+01	13.9296	48.671708	0.000213	2.128703	0.721224	0.000085
 352	3.4925e+01	13.9761	48.748414	0.000193	1.925969	0.652536	0.000077
 353	3.5024e+01	14.0146	48.817045	0.000172	1.723236	0.583848	0.000069
 354	3.5123e+01	14.0547	48.922011	0.000264	2.635537	0.892944	0.000105
 355	3.5223e+01	14.0980	49.055236	0.000335	3.345105	1.133352	0.000134
 356	3.5322e+01	14.1461	49.180388	0.000314	3.142371	1.064664	0.000126
 357	3.5422e+01	14.1798	49.249019	0.000172	1.723236	0.583848	0.000069
 358	3.5522e+01	14.2135	49.362059	0.000284	2.838271	0.961632	0.000114
 359	3.5621e+01	14.2600	49.499321	0.000345	3.446472	1.167696	0.000138
 360	3.5721e+01	14.2921	49.624472	0.000314	3.142371	1.064664	0.000126
 361	3.5820e+01	14.3354	49.741549	0.000294	2.939638	0.995976	0.000118
 362	3.5919e+01	14.3819	49.878812	0.000345	3.446472	1.167696	0.000138
 363	3.6019e+01	14.4221	49.951480	0.000182	1.824603	0.618192	0.000073
 364	3.6118e+01	14.4429	50.056446	0.000264	2.635537	0.892944	0.000105
 365	3.6218e+01	14.4991	50.153337	0.000243	2.432804	0.824256	0.000097
 366	3.6318e+01	14.5343	50.322897	0.000426	4.257406	1.442448	0.000170
 367	3.6417e+01	14.5729	50.371343	0.000122	1.216402	0.412128	0.000049
 368	3.6517e+01	14.6081	50.472271	0.000253	2.534170	0.858600	0.000101
 369	3.6616e+01	14.6531	50.573199	0.000253	2.534170	0.858600	0.000101
 370	3.6715e+01	14.7012	50.625682	0.000132	1.317769	0.446472	0.000053
 371	3.6815e+01	14.7333	50.758908	0.000335	3.345105	1.133352	0.000134
 372	3.6914e+01	14.7702	50.871947	0.000284	2.838271	0.961632	0.000114
 373	3.7014e+01	14.8167	50.928467	0.000142	1.419135	0.480816	0.000057
 374	3.7114e+01	14.8440	51.073804	0.000365	3.649205	1.236384	0.000146
 375	3.7213e+01	14.8921	51.219141	0.000365	3.649205	1.236384	0.000146
 376	3.7313e+01	14.9290	51.307958	0.000223	2.230070	0.755568	0.000089
 377	3.7412e+01	14.9611	51.437146	0.000324	3.243738	1.099008	0.000130
 378	3.7511e+01	15.0092	51.513852	0.000193	1.925969	0.652536	0.000077
 379	3.7611e+01	15.0461	51.671300	0.000395	3.953306	1.339416	0.000158
 380	3.7711e+01	15.0846	51.743969	0.000182	1.824603	0.618192	0.000073
 381	3.7810e+01	15.1311	51.840860	0.000243	2.432804	0.824256	0.000097
 382	3.7910e+01	15.1648	51.998308	0.000395	3.953306	1.339416	0.000158
 383	3.8009e+01	15.2113	52.075014	0.000193	1.925969	0.652536	0.000077
 384	3.8108e+01	15.2563	52.179979	0.000264	2.635537	0.892944	0.000105
 385	3.8208e+01	15.2980	52.276871	0.000243	2.432804	0.824256	0.000097
 386	3.8307e+01	15.3252	52.369725	0.000233	2.331437	0.789912	0.000093
 387	3.8407e+01	15.3750	52.434319	0.000162	1.621869	0.549504	0.000065
 388	3.8507e+01	15.3990	52.531210	0.000243	2.432804	0.824256	0.000097
 389	3.8606e+01	15.4584	52.644250	0.000284	2.838271	0.961632	0.000114
 390	3.8706e+01	15.4792	52.741141	0.000243	2.432804	0.824256	0.000097
 391	3.8805e+01	15.5242	52.862255	0.000304	3.041004	1.030320	0.000122
 392	3.8904e+01	15.5595	53.015667	0.000385	3.851939	1.305072	0.000154
 393	3.9004e+01	15.6124	53.120632	0.000264	2.635537	0.892944	0.000105
 394	3.9103e+01	15.6557	53.181189	0.000152	1.520502	0.515160	0.000061
 395	3.9203e+01	15.6878	53.342675	0.000405	4.054673	1.373760	0.000162
 396	3.9303e+01	15.7359	53.419380	0.000193	1.925969	0.652536	0.000077
 397	3.9402e+01	15.7760	53.544531	0.000314	3.142371	1.064664	0.000126
 398	3.9502e+01	15.8081	53.605088	0.000152	1.520502	0.515160	0.000061
 399	3.9601e+01	15.8466	53.746388	0.000355	3.547838	1.202040	0.000142
 400	3.9700e+01	15.8915	53.827131	0.000203	2.027336	0.686880	0.000081
 401	3.9800e+01	15.9300	53.956319	0.000324	3.243738	1.099008	0.000130
 402	3.9900e+01	15.9637	54.020913	0.000162	1.621869	0.549504	0.000065
 403	3.9999e+01	16.0167	54.142027	0.000304	3.041004	1.030320	0.000122
 404	4.0099e+01	16.0423	54.190473	0.000122	1.216402	0.412128	0.000049
 405	4.0198e+01	16.0872	54.275253	0.000213	2.128703	0.721224	0.000085
 406	4.0297e+01	16.1257	54.408478	0.000335	3.345105	1.133352	0.000134
 407	4.0397e+01	16.1739	54.493258	0.000213	2.128703	0.721224	0.000085
 408	4.0496e+01	16.2076	54.590149	0.000243	2.432804	0.824256	0.000097
 409	4.0596e+01	16.2541	54.747598	0.000395	3.953306	1.339416	0.000158
 410	4.0696e+01	16.2830	54.836415	0.000223	2.230070	0.755568	0.000089
 411	4.0795e+01	16.3295	54.921195	0.000213	2.128703	0.721224	0.000085
 412	4.0895e+01	16.3616	55.074606	0.000385	3.851939	1.305072	0.000154
 413	4.0994e+01	16.3985	55.163423	0.000223	2.230070	0.755568	0.000089
 414	4.1093e+01	16.4386	55.284537	0.000304	3.041004	1.030320	0.000122
 415	4.1193e+01	16.4819	55.349131	0.000162	1.621869	0.549504	0.000065
 416	4.1292e+01	16.5252	55.474282	0.000314	3.142371	1.064664	0.000126
 417	4.1392e+01	16.5701	55.538876	0.000162	1.621869	0.549504	0.000065
 418	4.1492e+01	16.6070	55.684213	0.000365	3.649205	1.236384	0.000146
 419	4.1591e+01	16.6471	55.768993	0.000213	2.128703	0.721224	0.000085
 420	4.1691e+01	16.6856	55.841662	0.000182	1.824603	0.618192	0.000073
 421	4.1790e+01	16.7273	55.930479	0.000223	2.230070	0.755568	0.000089
 422	4.1889e+01	16.7674	56.019296	0.000223	2.230070	0.755568	0.000089
 423	4.1989e+01	16.8092	56.120224	0.000253	2.534170	0.858600	0.000101
 424	4.2089e+01	16.8477	56.209041	0.000223	2.230070	0.755568	0.000089
 425	4.2188e+01	16.8894	56.318044	0.000274	2.736904	0.927288	0.000110
 426	4.2288e+01	16.9182	56.378601	0.000152	1.520502	0.515160	0.000061
 427	4.2387e+01	16.9744	56.552197	0.000436	4.358773	1.476792	0.000174
 428	4.2486e+01	17.0081	56.661200	0.000274	2.736904	0.927288	0.000110
 429	4.2586e+01	17.0353	56.758091	0.000243	2.432804	0.824256	0.000097
 430	4.2685e+01	17.0819	56.879205	0.000304	3.041004	1.030320	0.000122
 431	4.2785e+01	17.1204	56.976097	0.000243	2.432804	0.824256	0.000097
 432	4.2885e+01	17.1685	57.060877	0.000213	2.128703	0.721224	0.000085
 433	4.2984e+01	17.2102	57.157768	0.000243	2.432804	0.824256	0.000097
 434	4.3084e+01	17.2391	57.270808	0.000284	2.838271	0.961632	0.000114
 435	4.3183e+01	17.2856	57.359625	0.000223	2.230070	0.755568	0.000089
 436	4.3282e+01	17.3193	57.492850	0.000335	3.345105	1.133352	0.000134
 437	4.3382e+01	17.3594	57.585704	0.000233	2.331437	0.789912	0.000093
 438	4.3481e+01	17.4011	57.658373	0.000182	1.824603	0.618192	0.000073
 439	4.3581e+01	17.4476	57.714893	0.000142	1.419135	0.480816	0.000057
 440	4.3681e+01	17.4829	57.848118	0.000335	3.345105	1.133352	0.000134
 441	4.3780e+01	17.5214	57.940972	0.000233	2.331437	0.789912	0.000093
 442	4.3880e+01	17.5680	58.001529	0.000152	1.520502	0.515160	0.000061
 443	4.3979e+01	17.5984	58.102458	0.000253	2.534170	0.858600	0.000101
 444	4.4078e+01	17.6434	58.239720	0.000345	3.446472	1.167696	0.000138
 445	4.4178e+01	17.6851	58.344686	0.000264	2.635537	0.892944	0.000105
 446	4.4278e+01	17.7236	58.417354	0.000182	1.824603	0.618192	0.000073
 447	4.4377e+01	17.7589	58.542505	0.000314	3.142371	1.064664	0.000126
 448	4.4477e+01	17.7974	58.631322	0.000223	2.230070	0.755568	0.000089
 449	4.4576e+01	17.8455	58.740325	0.000274	2.736904	0.927288	0.000110
 450	4.4675e+01	17.8808	58.833179	0.000233	2.331437	0.789912	0.000093
 451	4.4775e+01	17.9225	58.938145	0.000264	2.635537	0.892944	0.000105
 452	4.4874e+01	17.9610	59.059259	0.000304	3.041004	1.030320	0.000122
 453	4.4974e+01	17.9899	59.160187	0.000253	2.534170	0.858600	0.000101
 454	4.5074e+01	18.0444	59.269190	0.000274	2.736904	0.927288	0.000110
 455	4.5173e+01	18.0845	59.305524	0.000091	0.912301	0.309096	0.000037
 456	4.5273e+01	18.1134	59.430675	0.000314	3.142371	1.064664	0.000126
 457	4.5372e+01	18.1567	59.495269	0.000162	1.621869	0.549504	0.000065
 458	4.5471e+01	18.1984	59.576012	0.000203	2.027336	0.686880	0.000081
 459	4.5571e+01	18.2401	59.705200	0.000324	3.243738	1.099008	0.000130
 460	4.5670e+01	18.2738	59.806129	0.000253	2.534170	0.858600	0.000101
 461	4.5770e+01	18.3300	59.911094	0.000264	2.635537	0.892944	0.000105
 462	4.5870e+01	18.3540	60.016060	0.000264	2.635537	0.892944	0.000105
 463	4.5969e+01	18.3861	60.165434	0.000375	3.750572	1.270728	0.000150
 464	4.6069e+01	18.4423	60.238102	0.000182	1.824603	0.618192	0.000073
 465	4.6168e+01	18.4711	60.355179	0.000294	2.939638	0.995976	0.000118
 466	4.6267e+01	18.5177	60.456108	0.000253	2.534170	0.858600	0.000101
 467	4.6367e+01	18.5546	60.544925	0.000223	2.230070	0.755568	0.000089
 468	4.6467e+01	18.5963	60.641816	0.000243	2.432804	0.824256	0.000097
 469	4.6566e+01	18.6348	60.730633	0.000223	2.230070	0.755568	0.000089
 470	4.6666e+01	18.6845	60.851747	0.000304	3.041004	1.030320	0.000122
 471	4.6765e+01	18.7166	60.924415	0.000182	1.824603	0.618192	0.000073
 472	4.6864e+01	18.7567	61.045529	0.000304	3.041004	1.030320	0.000122
 473	4.6964e+01	18.8016	61.126272	0.000203	2.027336	0.686880	0.000081
 474	4.7063e+01	18.8321	61.158569	0.000081	0.810935	0.274752	0.000032
 475	4.7163e+01	18.8802	61.291795	0.000335	3.345105	1.133352	0.000134
 476	4.7263e+01	18.9171	61.376575	0.000213	2.128703	0.721224	0.000085
 477	4.7362e+01	18.9540	61.461354	0.000213	2.128703	0.721224	0.000085
 478	4.7462e+01	18.9957	61.574394	0.000284	2.838271	0.961632	0.000114
 479	4.7561e+01	19.0374	61.695508	0.000304	3.041004	1.030320	0.000122
 480	4.7660e+01	19.0791	61.788362	0.000233	2.331437	0.789912	0.000093
 481	4.7760e+01	19.1144	61.905439	0.000294	2.939638	0.995976	0.000118
 482	4.7859e+01	19.1594	61.994256	0.000223	2.230070	0.755568	0.000089
 483	4.7959e+01	19.1930	62.123445	0.000324	3.243738	1.099008	0.000130
 484	4.8059e+01	19.2396	62.196113	0.000182	1.824603	0.618192	0.000073
 485	4.8158e+01	19.2749	62.305116	0.000274	2.736904	0.927288	0.000110
 486	4.8258e+01	19.3214	62.406044	0.000253	2.534170	0.858600	0.000101
 487	4.8357e+01	19.3599	62.494861	0.000223	2.230070	0.755568	0.000089
 488	4.8456e+01	19.3920	62.628087	0.000335	3.345105	1.133352	0.000134
 489	4.8556e+01	19.4321	62.708829	0.000203	2.027336	0.686880	0.000081
 490	4.8656e+01	19.4802	62.724978	0.000041	0.405467	0.137376	0.000016
 491	4.8755e+01	19.5075	62.846092	0.000304	3.041004	1.030320	0.000122
 492	4.8855e+01	19.5604	62.930872	0.000213	2.128703	0.721224	0.000085
 493	4.8954e+01	19.5925	63.023726	0.000233	2.331437	0.789912	0.000093
 494	4.9053e+01	19.6390	63.112543	0.000223	2.230070	0.755568	0.000089
 495	4.9153e+01	19.6695	63.249806	0.000345	3.446472	1.167696	0.000138
 496	4.9252e+01	19.7176	63.318437	0.000172	1.723236	0.583848	0.000069
 497	4.9352e+01	19.7577	63.516257	0.000497	4.966974	1.682856	0.000199
 498	4.9452e+01	19.7850	63.592962	0.000193	1.925969	0.652536	0.000077
 499	4.9551e+01	19.8331	63.665631	0.000182	1.824603	0.618192	0.000073
 500	4.9651e+01	19.8700	63.766559	0.000253	2.534170	0.858600	0.000101
 501	4.9750e+01	19.9230	63.903822	0.000345	3.446472	1.167696	0.000138
 502	4.9849e+01	19.9486	63.980527	0.000193	1.925969	0.652536	0.000077
 503	4.9949e+01	19.9903	64.113753	0.000335	3.345105	1.133352	0.000134
 504	5.0048e+01	19.9567	63.992639	0.000304	3.041004	1.030320	-0.000122
 505	5.0148e+01	19.9182	63.968416	0.000061	0.608201	0.206064	-0.000024
 506	5.0248e+01	19.8813	63.867487	0.000253	2.534170	0.858600	-0.000101
 507	5.0347e+01	19.8444	63.819042	0.000122	1.216402	0.412128	-0.000049
 508	5.0447e+01	19.7834	63.689853	0.000324	3.243738	1.099008	-0.000130
 509	5.0546e+01	19.7593	63.625259	0.000162	1.621869	0.549504	-0.000065
 510	5.0645e+01	19.7176	63.552591	0.000182	1.824603	0.618192	-0.000073
 511	5.0745e+01	19.6775	63.512219	0.000101	1.013668	0.343440	-0.000041
 512	5.0844e+01	19.6310	63.415328	0.000243	2.432804	0.824256	-0.000097
 513	5.0944e+01	19.6005	63.378994	0.000091	0.912301	0.309096	-0.000037
 514	5.1044e+01	19.5492	63.330548	0.000122	1.216402	0.412128	-0.000049
 515	5.1143e+01	19.5043	63.286140	0.000112	1.115035	0.377784	-0.000045
 516	5.1242e+01	19.4786	63.189249	0.000243	2.432804	0.824256	-0.000097
 517	5.1342e+01	19.4321	63.128692	0.000152	1.520502	0.515160	-0.000061
 518	5.1441e+01	19.3952	63.076209	0.000132	1.317769	0.446472	-0.000053
 519	5.1541e+01	19.3599	62.979318	0.000243	2.432804	0.824256	-0.000097
 520	5.1641e+01	19.3230	62.898575	0.000203	2.027336	0.686880	-0.000081
 521	5.1740e+01	19.2684	62.854166	0.000112	1.115035	0.377784	-0.000045
 522	5.1840e+01	19.2251	62.753238	0.000253	2.534170	0.858600	-0.000101
 523	5.1939e+01	19.1979	62.680569	0.000182	1.824603	0.618192	-0.000073
 524	5.2038e+01	19.1642	62.607901	0.000182	1.824603	0.618192	-0.000073
 525	5.2138e+01	19.1112	62.519084	0.000223	2.230070	0.755568	-0.000089
 526	5.2237e+01	19.0679	62.438341	0.000203	2.027336	0.686880	-0.000081
 527	5.2337e+01	19.0390	62.321264	0.000294	2.939638	0.995976	-0.000118
 528	5.2437e+01	18.9973	62.280893	0.000101	1.013668	0.343440	-0.000041
 529	5.2536e+01	18.9604	62.192076	0.000223	2.230070	0.755568	-0.000089
 530	5.2636e+01	18.9235	62.103259	0.000223	2.230070	0.755568	-0.000089
 531	5.2735e+01	18.8802	62.054813	0.000122	1.216402	0.412128	-0.000049
 532	5.2834e+01	18.8353	62.002331	0.000132	1.317769	0.446472	-0.000053
 533	5.2934e+01	18.7984	61.937736	0.000162	1.621869	0.549504	-0.000065
 534	5.3033e+01	18.7487	61.848920	0.000223	2.230070	0.755568	-0.000089
 535	5.3133e+01	18.7182	61.760103	0.000223	2.230070	0.755568	-0.000089
 536	5.3233e+01	18.6749	61.695508	0.000162	1.621869	0.549504	-0.000065
 537	5.3332e+01	18.6428	61.655137	0.000101	1.013668	0.343440	-0.000041
 538	5.3431e+01	18.6011	61.538060	0.000294	2.939638	0.995976	-0.000118
 539	5.3531e+01	18.5610	61.445206	0.000233	2.331437	0.789912	-0.000093
 540	5.3630e+01	18.5241	61.404835	0.000101	1.013668	0.343440	-0.000041
 541	5.3730e+01	18.4840	61.287758	0.000294	2.939638	0.995976	-0.000118
 542	5.3830e+01	18.4391	61.219126	0.000172	1.723236	0.583848	-0.000069
 543	5.3929e+01	18.4022	61.061678	0.000395	3.953306	1.339416	-0.000158
 544	5.4029e+01	18.3540	61.001121	0.000152	1.520502	0.515160	-0.000061
 545	5.4128e+01	18.3171	60.924415	0.000193	1.925969	0.652536	-0.000077
 546	5.4227e+01	18.2786	60.819450	0.000264	2.635537	0.892944	-0.000105
 547	5.4327e+01	18.2401	60.762930	0.000142	1.419135	0.480816	-0.000057
 548	5.4426e+01	18.2000	60.710447	0.000132	1.317769	0.446472	-0.000053
 549	5.4526e+01	18.1663	60.637779	0.000182	1.824603	0.618192	-0.000073
 550	5.4626e+01	18.1054	60.561073	0.000193	1.925969	0.652536	-0.000077
 551	5.4725e+01	18.0733	60.512628	0.000122	1.216402	0.412128	-0.000049
 552	5.4825e+01	18.0380	60.435922	0.000193	1.925969	0.652536	-0.000077
 553	5.4924e+01	18.0091	60.343068	0.000233	2.331437	0.789912	-0.000093
 554	5.5023e+01	17.9674	60.242139	0.000253	2.534170	0.858600	-0.000101
 555	5.5123e+01	17.9241	60.197731	0.000112	1.115035	0.377784	-0.000045
 556	5.5222e+01	17.8712	60.084691	0.000284	2.838271	0.961632	-0.000114
 557	5.5322e+01	17.8407	60.020097	0.000162	1.621869	0.549504	-0.000065
 558	5.5422e+01	17.8022	59.923206	0.000243	2.432804	0.824256	-0.000097
 559	5.5521e+01	17.7621	59.846500	0.000193	1.925969	0.652536	-0.000077
 560	5.5620e+01	17.7204	59.753646	0.000233	2.331437	0.789912	-0.000093
 561	5.5720e+01	17.6770	59.624458	0.000324	3.243738	1.099008	-0.000130
 562	5.5819e+01	17.6450	59.571975	0.000132	1.317769	0.446472	-0.000053
 563	5.5919e+01	17.6000	59.446824	0.000314	3.142371	1.064664	-0.000126
 564	5.6019e+01	17.5535	59.394341	0.000132	1.317769	0.446472	-0.000053
 565	5.6118e+01	17.5262	59.329747	0.000162	1.621869	0.549504	-0.000065
 566	5.6218e+01	17.4829	59.277264	0.000132	1.317769	0.446472	-0.000053
 567	5.6317e+01	17.4364	59.200558	0.000193	1.925969	0.652536	-0.000077
 568	5.6416e+01	17.4091	59.127890	0.000182	1.824603	0.618192	-0.000073
 569	5.6516e+01	17.3530	59.026962	0.000253	2.534170	0.858600	-0.000101
 570	5.6615e+01	17.3209	58.958330	0.000172	1.723236	0.583848	-0.000069
 571	5.6715e+01	17.2808	58.877588	0.000203	2.027336	0.686880	-0.000081
 572	5.6815e+01	17.2407	58.748399	0.000324	3.243738	1.099008	-0.000130
 573	5.6914e+01	17.1990	58.683805	0.000162	1.621869	0.549504	-0.000065
 574	5.7014e+01	17.1717	58.607100	0.000193	1.925969	0.652536	-0.000077
 575	5.7113e+01	17.1300	58.530394	0.000193	1.925969	0.652536	-0.000077
 576	5.7212e+01	17.0883	58.421391	0.000274	2.736904	0.927288	-0.000110
 577	5.7312e+01	17.0434	58.276054	0.000365	3.649205	1.236384	-0.000146
 578	5.7411e+01	17.0017	58.199349	0.000193	1.925969	0.652536	-0.000077
 579	5.7511e+01	16.9535	58.098420	0.000253	2.534170	0.858600	-0.000101
 580	5.7611e+01	16.9279	57.997492	0.000253	2.534170	0.858600	-0.000101
 581	5.7710e+01	16.8781	57.949046	0.000122	1.216402	0.412128	-0.000049
 582	5.7809e+01	16.8477	57.836007	0.000284	2.838271	0.961632	-0.000114
 583	5.7909e+01	16.8027	57.819858	0.000041	0.405467	0.137376	-0.000016
 584	5.8008e+01	16.7626	57.747190	0.000182	1.824603	0.618192	-0.000073
 585	5.8108e+01	16.7289	57.634150	0.000284	2.838271	0.961632	-0.000114
 586	5.8208e+01	16.6888	57.573593	0.000152	1.520502	0.515160	-0.000061
 587	5.8307e+01	16.6391	57.428256	0.000365	3.649205	1.236384	-0.000146
 588	5.8407e+01	16.6054	57.339439	0.000223	2.230070	0.755568	-0.000089
 589	5.8506e+01	16.5557	57.295030	0.000112	1.115035	0.377784	-0.000045
 590	5.8605e+01	16.5348	57.230436	0.000162	1.621869	0.549504	-0.000065
 591	5.8705e+01	16.4835	57.145656	0.000213	2.128703	0.721224	-0.000085
 592	5.8804e+01	16.4466	57.060877	0.000213	2.128703	0.721224	-0.000085
 593	5.8904e+01	16.4097	56.935725	0.000314	3.142371	1.064664	-0.000126
 594	5.9004e+01	16.3648	56.810574	0.000314	3.142371	1.064664	-0.000126
 595	5.9103e+01	16.3295	56.713683	0.000243	2.432804	0.824256	-0.000097
 596	5.9203e+01	16.2862	56.596606	0.000294	2.939638	0.995976	-0.000118
 597	5.9302e+01	16.2493	56.515863	0.000203	2.027336	0.686880	-0.000081
 598	5.9401e+01	16.2060	56.487603	0.000071	0.709568	0.240408	-0.000028
 599	5.9501e+01	16.1675	56.382638	0.000264	2.635537	0.892944	-0.000105
 600	5.9600e+01	16.1306	56.330155	0.000132	1.317769	0.446472	-0.000053
 601	5.9700e+01	16.0824	56.253449	0.000193	1.925969	0.652536	-0.000077
 602	5.9800e+01	16.0520	56.128298	0.000314	3.142371	1.064664	-0.000126
 603	5.9899e+01	16.0070	56.083890	0.000112	1.115035	0.377784	-0.000045
 604	5.9998e+01	15.9621	55.970850	0.000284	2.838271	0.961632	-0.000114
 605	6.0098e+01	15.9397	55.873959	0.000243	2.432804	0.824256	-0.000097
 606	6.0197e+01	15.8819	55.813402	0.000152	1.520502	0.515160	-0.000061
 607	6.0297e+01	15.8450	55.732659	0.000203	2.027336	0.686880	-0.000081
 608	6.0397e+01	15.8097	55.595396	0.000345	3.446472	1.167696	-0.000138
 609	6.0496e+01	15.7648	55.510616	0.000213	2.128703	0.721224	-0.000085
 610	6.0596e+01	15.7455	55.401614	0.000274	2.736904	0.927288	-0.000110
 611	6.0695e+01	15.6878	55.288574	0.000284	2.838271	0.961632	-0.000114
 612	6.0794e+01	15.6525	55.163423	0.000314	3.142371	1.064664	-0.000126
 613	6.0894e+01	15.6028	55.090754	0.000182	1.824603	0.618192	-0.000073
 614	6.0993e+01	15.5691	55.038272	0.000132	1.317769	0.446472	-0.000053
 615	6.1093e+01	15.5290	54.969640	0.000172	1.723236	0.583848	-0.000069
 616	6.1193e+01	15.4857	54.909083	0.000152	1.520502	0.515160	-0.000061
 617	6.1292e+01	15.4504	54.783932	0.000314	3.142371	1.064664	-0.000126
 618	6.1392e+01	15.4119	54.699152	0.000213	2.128703	0.721224	-0.000085
 619	6.1491e+01	15.3669	54.610335	0.000223	2.230070	0.755568	-0.000089
 620	6.1590e+01	15.3349	54.525555	0.000213	2.128703	0.721224	-0.000085
 621	6.1690e+01	15.2915	54.428664	0.000243	2.432804	0.824256	-0.000097
 622	6.1789e+01	15.2530	54.323698	0.000264	2.635537	0.892944	-0.000105
 623	6.1889e+01	15.2065	54.251030	0.000182	1.824603	0.618192	-0.000073
 624	6.1989e+01	15.1680	54.174324	0.000193	1.925969	0.652536	-0.000077
 625	6.2088e+01	15.1375	54.061285	0.000284	2.838271	0.961632	-0.000114
 626	6.2188e+01	15.0990	53.972468	0.000223	2.230070	0.755568	-0.000089
 627	6.2287e+01	15.0477	53.859428	0.000284	2.838271	0.961632	-0.000114
 628	6.2386e+01	15.0236	53.782722	0.000193	1.925969	0.652536	-0.000077
 629	6.2486e+01	14.9707	53.649497	0.000335	3.345105	1.133352	-0.000134
 630	6.2586e+01	14.9306	53.568754	0.000203	2.027336	0.686880	-0.000081
 631	6.2685e+01	14.8969	53.500123	0.000172	1.723236	0.583848	-0.000069
 632	6.2785e+01	14.8424	53.419380	0.000203	2.027336	0.686880	-0.000081
 633	6.2884e+01	14.8167	53.358823	0.000152	1.520502	0.515160	-0.000061
 634	6.2983e+01	14.7622	53.209449	0.000375	3.750572	1.270728	-0.000150
 635	6.3083e+01	14.7429	53.136781	0.000182	1.824603	0.618192	-0.000073
 636	6.3182e+01	14.7028	53.072186	0.000162	1.621869	0.549504	-0.000065
 637	6.3282e+01	14.6595	52.979332	0.000233	2.331437	0.789912	-0.000093
 638	6.3382e+01	14.6097	52.882441	0.000243	2.432804	0.824256	-0.000097
 639	6.3481e+01	14.5584	52.765364	0.000294	2.939638	0.995976	-0.000118
 640	6.3581e+01	14.5327	52.676547	0.000223	2.230070	0.755568	-0.000089
 641	6.3680e+01	14.4942	52.567544	0.000274	2.736904	0.927288	-0.000110
 642	6.3779e+01	14.4461	52.478727	0.000223	2.230070	0.755568	-0.000089
 643	6.3879e+01	14.4060	52.353576	0.000314	3.142371	1.064664	-0.000126
 644	6.3978e+01	14.3739	52.280908	0.000182	1.824603	0.618192	-0.000073
 645	6.4078e+01	14.3386	52.159794	0.000304	3.041004	1.030320	-0.000122
 646	6.4177e+01	14.2937	52.075014	0.000213	2.128703	0.721224	-0.000085
 647	6.4277e+01	14.2488	51.978123	0.000243	2.432804	0.824256	-0.000097
 648	6.4376e+01	14.2183	51.893343	0.000213	2.128703	0.721224	-0.000085
 649	6.4476e+01	14.1750	51.824711	0.000172	1.723236	0.583848	-0.000069
 650	6.4576e+01	14.1429	51.727820	0.000243	2.432804	0.824256	-0.000097
 651	6.4675e+01	14.0932	51.626892	0.000253	2.534170	0.858600	-0.000101
 652	6.4775e+01	14.0483	51.521926	0.000264	2.635537	0.892944	-0.000105
 653	6.4874e+01	14.0226	51.420998	0.000253	2.534170	0.858600	-0.000101
 654	6.4974e+01	13.9729	51.307958	0.000284	2.838271	0.961632	-0.000114
 655	6.5073e+01	13.9312	51.235290	0.000182	1.824603	0.618192	-0.000073
 656	6.5172e+01	13.8894	51.154547	0.000203	2.027336	0.686880	-0.000081
 657	6.5272e+01	13.8509	51.045544	0.000274	2.736904	0.927288	-0.000110
 658	6.5371e+01	13.8124	50.952690	0.000233	2.331437	0.789912	-0.000093
 659	6.5471e+01	13.7675	50.839650	0.000284	2.838271	0.961632	-0.000114
 660	6.5570e+01	13.7338	50.758908	0.000203	2.027336	0.686880	-0.000081
 661	6.5670e+01	13.6921	50.613571	0.000365	3.649205	1.236384	-0.000146
 662	6.5769e+01	13.6568	50.581274	0.000081	0.810935	0.274752	-0.000032
 663	6.5869e+01	13.6151	50.448048	0.000335	3.345105	1.133352	-0.000134
 664	6.5969e+01	13.5750	50.367305	0.000203	2.027336	0.686880	-0.000081
 665	6.6068e+01	13.5349	50.282526	0.000213	2.128703	0.721224	-0.000085
 666	6.6168e+01	13.4948	50.189671	0.000233	2.331437	0.789912	-0.000093
 667	6.6267e+01	13.4563	50.100855	0.000223	2.230070	0.755568	-0.000089
 668	6.6367e+01	13.4162	49.987815	0.000284	2.838271	0.961632	-0.000114
 669	6.6466e+01	13.3761	49.858626	0.000324	3.243738	1.099008	-0.000130
 670	6.6566e+01	13.3264	49.798069	0.000152	1.520502	0.515160	-0.000061
 671	6.6665e+01	13.2991	49.693104	0.000264	2.635537	0.892944	-0.000105
 672	6.6764e+01	13.2622	49.604287	0.000223	2.230070	0.755568	-0.000089
 673	6.6864e+01	13.2253	49.531618	0.000182	1.824603	0.618192	-0.000073
 674	6.6963e+01	13.1836	49.414541	0.000294	2.939638	0.995976	-0.000118
 675	6.7063e+01	13.1355	49.321687	0.000233	2.331437	0.789912	-0.000093
 676	6.7162e+01	13.0986	49.220759	0.000253	2.534170	0.858600	-0.000101
 677	6.7262e+01	13.0681	49.127905	0.000233	2.331437	0.789912	-0.000093
 678	6.7362e+01	13.0200	49.018902	0.000274	2.736904	0.927288	-0.000110
 679	6.7461e+01	12.9782	48.922011	0.000243	2.432804	0.824256	-0.000097
 680	6.7561e+01	12.9381	48.813008	0.000274	2.736904	0.927288	-0.000110
 681	6.7660e+01	12.8980	48.760525	0.000132	1.317769	0.446472	-0.000053
 682	6.7760e+01	12.8627	48.627300	0.000335	3.345105	1.133352	-0.000134
 683	6.7859e+01	12.8274	48.506186	0.000304	3.041004	1.030320	-0.000122
 684	6.7959e+01	12.7777	48.441592	0.000162	1.621869	0.549504	-0.000065
 685	6.8058e+01	12.7456	48.348738	0.000233	2.331437	0.789912	-0.000093
 686	6.8157e+01	12.7023	48.215512	0.000335	3.345105	1.133352	-0.000134
 687	6.8257e+01	12.6574	48.134769	0.000203	2.027336	0.686880	-0.000081
 688	6.8356e+01	12.6221	48.029804	0.000264	2.635537	0.892944	-0.000105
 689	6.8456e+01	12.5868	47.936950	0.000233	2.331437	0.789912	-0.000093
 690	6.8555e+01	12.5515	47.860244	0.000193	1.925969	0.652536	-0.000077
 691	6.8655e+01	12.5146	47.735093	0.000314	3.142371	1.064664	-0.000126
 692	6.8754e+01	12.4665	47.609942	0.000314	3.142371	1.064664	-0.000126
 693	6.8854e+01	12.4264	47.504976	0.000264	2.635537	0.892944	-0.000105
 694	6.8954e+01	12.3831	47.444419	0.000152	1.520502	0.515160	-0.000061
 695	6.9053e+01	12.3398	47.323305	0.000304	3.041004	1.030320	-0.000122
 696	6.9153e+01	12.2980	47.230451	0.000233	2.331437	0.789912	-0.000093
 697	6.9252e+01	12.2628	47.194117	0.000091	0.912301	0.309096	-0.000037
 698	6.9352e+01	12.2226	47.052817	0.000355	3.547838	1.202040	-0.000142
 699	6.9451e+01	12.1906	46.939777	0.000284	2.838271	0.961632	-0.000114
 700	6.9550e+01	12.1456	46.818663	0.000304	3.041004	1.030320	-0.000122
 701	6.9650e+01	12.1087	46.725809	0.000233	2.331437	0.789912	-0.000093
 702	6.9749e+01	12.0686	46.624881	0.000253	2.534170	0.858600	-0.000101
 703	6.9849e+01	12.0237	46.519915	0.000264	2.635537	0.892944	-0.000105
 704	6.9948e+01	11.9788	46.402838	0.000294	2.939638	0.995976	-0.000118
 705	7.0048e+01	11.9371	46.305947	0.000243	2.432804	0.824256	-0.000097
 706	7.0147e+01	11.9066	46.205019	0.000253	2.534170	0.858600	-0.000101
 707	7.0247e+01	11.8713	46.116202	0.000223	2.230070	0.755568	-0.000089
 708	7.0347e+01	11.8184	45.978939	0.000345	3.446472	1.167696	-0.000138
 709	7.0446e+01	11.7895	45.894159	0.000213	2.128703	0.721224	-0.000085
 710	7.0546e+01	11.7494	45.805342	0.000223	2.230070	0.755568	-0.000089
 711	7.0645e+01	11.7077	45.680191	0.000314	3.142371	1.064664	-0.000126
 712	7.0745e+01	11.6644	45.615597	0.000162	1.621869	0.549504	-0.000065
 713	7.0844e+01	11.6339	45.494483	0.000304	3.041004	1.030320	-0.000122
 714	7.0944e+01	11.5906	45.417777	0.000193	1.925969	0.652536	-0.000077
 715	7.1043e+01	11.5473	45.361257	0.000142	1.419135	0.480816	-0.000057
 716	7.1142e+01	11.5120	45.147289	0.000537	5.372441	1.820232	-0.000215
 717	7.1242e+01	11.4638	45.054435	0.000233	2.331437	0.789912	-0.000093
 718	7.1341e+01	11.4270	44.997915	0.000142	1.419135	0.480816	-0.000057
 719	7.1441e+01	11.3836	44.840467	0.000395	3.953306	1.339416	-0.000158
 720	7.1540e+01	11.3419	44.707241	0.000335	3.345105	1.133352	-0.000134
 721	7.1640e+01	11.3098	44.634573	0.000182	1.824603	0.618192	-0.000073
 722	7.1740e+01	11.2649	44.517496	0.000294	2.939638	0.995976	-0.000118
 723	7.1839e+01	11.2264	44.412530	0.000264	2.635537	0.892944	-0.000105
 724	7.1939e+01	11.1911	44.364085	0.000122	1.216402	0.412128	-0.000049
 725	7.2038e+01	11.1446	44.238933	0.000314	3.142371	1.064664	-0.000126
 726	7.2138e+01	11.1109	44.105708	0.000335	3.345105	1.133352	-0.000134
 727	7.2237e+01	11.0644	44.041114	0.000162	1.621869	0.549504	-0.000065
 728	7.2337e+01	11.0323	43.924037	0.000294	2.939638	0.995976	-0.000118
 729	7.2436e+01	10.9906	43.827146	0.000243	2.432804	0.824256	-0.000097
 730	7.2535e+01	10.9505	43.726217	0.000253	2.534170	0.858600	-0.000101
 731	7.2635e+01	10.9120	43.617215	0.000274	2.736904	0.927288	-0.000110
 732	7.2734e+01	10.8687	43.568769	0.000122	1.216402	0.412128	-0.000049
 733	7.2834e+01	10.8334	43.467840	0.000253	2.534170	0.858600	-0.000101
 734	7.2933e+01	10.7885	43.294244	0.000436	4.358773	1.476792	-0.000174
 735	7.3033e+01	10.7484	43.189278	0.000264	2.635537	0.892944	-0.000105
 736	7.3132e+01	10.7099	43.072201	0.000294	2.939638	0.995976	-0.000118
 737	7.3232e+01	10.6649	42.987421	0.000213	2.128703	0.721224	-0.000085
 738	7.3332e+01	10.6264	42.850159	0.000345	3.446472	1.167696	-0.000138
 739	7.3431e+01	10.5895	42.749230	0.000253	2.534170	0.858600	-0.000101
 740	7.3531e+01	10.5575	42.620042	0.000324	3.243738	1.099008	-0.000130
 741	7.3630e+01	10.5109	42.527188	0.000233	2.331437	0.789912	-0.000093
 742	7.3730e+01	10.4676	42.422222	0.000264	2.635537	0.892944	-0.000105
 743	7.3829e+01	10.4307	42.309183	0.000284	2.838271	0.961632	-0.000114
 744	7.3928e+01	10.3842	42.204217	0.000264	2.635537	0.892944	-0.000105
 745	7.4028e+01	10.3441	42.070992	0.000335	3.345105	1.133352	-0.000134
 746	7.4127e+01	10.3232	41.986212	0.000213	2.128703	0.721224	-0.000085
 747	7.4227e+01	10.2735	41.881246	0.000264	2.635537	0.892944	-0.000105
 748	7.4326e+01	10.2142	41.788392	0.000233	2.331437	0.789912	-0.000093
 749	7.4426e+01	10.1901	41.647092	0.000355	3.547838	1.202040	-0.000142
 750	7.4525e+01	10.1516	41.550201	0.000243	2.432804	0.824256	-0.000097
 751	7.4625e+01	10.1243	41.449273	0.000253	2.534170	0.858600	-0.000101
 752	7.4725e+01	10.0682	41.283750	0.000416	4.156039	1.408104	-0.000166
 753	7.4824e+01	10.0329	41.186859	0.000243	2.432804	0.824256	-0.000097
 754	7.4924e+01	9.9976	41.085930	0.000253	2.534170	0.858600	-0.000101
 755	7.5023e+01	9.9462	40.976928	0.000274	2.736904	0.927288	-0.000110
 756	7.5123e+01	9.9126	40.859851	0.000294	2.939638	0.995976	-0.000118
 757	7.5222e+01	9.8773	40.722588	0.000345	3.446472	1.167696	-0.000138
 758	7.5322e+01	9.8356	40.633771	0.000223	2.230070	0.755568	-0.000089
 759	7.5421e+01	9.8051	40.524769	0.000274	2.736904	0.927288	-0.000110
 760	7.5520e+01	9.7473	40.427877	0.000243	2.432804	0.824256	-0.000097
 761	7.5620e+01	9.7184	40.298689	0.000324	3.243738	1.099008	-0.000130
 762	7.5719e+01	9.6623	40.221983	0.000193	1.925969	0.652536	-0.000077
 763	7.5819e+01	9.6286	40.145278	0.000193	1.925969	0.652536	-0.000077
 764	7.5918e+01	9.5901	40.040312	0.000264	2.635537	0.892944	-0.000105
 765	7.6018e+01	9.5548	39.927272	0.000284	2.838271	0.961632	-0.000114
 766	7.6118e+01	9.5195	39.769824	0.000395	3.953306	1.339416	-0.000158
 767	7.6217e+01	9.4810	39.656784	0.000284	2.838271	0.961632	-0.000114
 768	7.6317e+01	9.4409	39.503373	0.000385	3.851939	1.305072	-0.000154
 769	7.6416e+01	9.3896	39.386296	0.000294	2.939638	0.995976	-0.000118
 770	7.6516e+01	9.3543	39.305554	0.000203	2.027336	0.686880	-0.000081
 771	7.6615e+01	9.3238	39.176365	0.000324	3.243738	1.099008	-0.000130
 772	7.6715e+01	9.2789	39.067363	0.000274	2.736904	0.927288	-0.000110
 773	7.6814e+01	9.2292	38.934137	0.000335	3.345105	1.133352	-0.000134
 774	7.6913e+01	9.1890	38.817060	0.000294	2.939638	0.995976	-0.000118
 775	7.7013e+01	9.1570	38.716132	0.000253	2.534170	0.858600	-0.000101
 776	7.7112e+01	9.1153	38.566758	0.000375	3.750572	1.270728	-0.000150
 777	7.7212e+01	9.0735	38.506201	0.000152	1.520502	0.515160	-0.000061
 778	7.7311e+01	9.0318	38.445644	0.000152	1.520502	0.515160	-0.000061
 779	7.7411e+01	8.9901	38.292232	0.000385	3.851939	1.305072	-0.000154
 780	7.7510e+01	8.9516	38.199378	0.000233	2.331437	0.789912	-0.000093
 781	7.7610e+01	8.9115	38.050004	0.000375	3.750572	1.270728	-0.000150
 782	7.7710e+01	8.8714	37.949076	0.000253	2.534170	0.858600	-0.000101
 783	7.7809e+01	8.8297	37.852185	0.000243	2.432804	0.824256	-0.000097
 784	7.7909e+01	8.8008	37.686662	0.000416	4.156039	1.408104	-0.000166
 785	7.8008e+01	8.7623	37.557474	0.000324	3.243738	1.099008	-0.000130
 786	7.8108e+01	8.7254	37.416174	0.000355	3.547838	1.202040	-0.000142
 787	7.8207e+01	8.6757	37.323320	0.000233	2.331437	0.789912	-0.000093
 788	7.8306e+01	8.6436	37.226429	0.000243	2.432804	0.824256	-0.000097
 789	7.8406e+01	8.5987	37.077055	0.000375	3.750572	1.270728	-0.000150
 790	7.8505e+01	8.5490	36.964015	0.000284	2.838271	0.961632	-0.000114
 791	7.8605e+01	8.5201	36.899421	0.000162	1.621869	0.549504	-0.000065
 792	7.8704e+01	8.4768	36.705638	0.000487	4.865607	1.648512	-0.000195
 793	7.8804e+01	8.4367	36.641044	0.000162	1.621869	0.549504	-0.000065
 794	7.8903e+01	8.3998	36.540116	0.000253	2.534170	0.858600	-0.000101
 795	7.9003e+01	8.3548	36.435150	0.000264	2.635537	0.892944	-0.000105
 796	7.9103e+01	8.3212	36.305962	0.000324	3.243738	1.099008	-0.000130
 797	7.9202e+01	8.2875	36.229256	0.000193	1.925969	0.652536	-0.000077
 798	7.9302e+01	8.2361	36.067771	0.000405	4.054673	1.373760	-0.000162
 799	7.9401e+01	8.1960	35.962805	0.000264	2.635537	0.892944	-0.000105
 800	7.9501e+01	8.1527	35.841691	0.000304	3.041004	1.030320	-0.000122
 801	7.9600e+01	8.1254	35.720577	0.000304	3.041004	1.030320	-0.000122
 802	7.9700e+01	8.0789	35.559092	0.000405	4.054673	1.373760	-0.000162
 803	7.9799e+01	8.0404	35.442015	0.000294	2.939638	0.995976	-0.000118
 804	7.9898e+01	7.9987	35.292641	0.000375	3.750572	1.270728	-0.000150
 805	7.9998e+01	7.9634	35.175564	0.000294	2.939638	0.995976	-0.000118
 806	8.0097e+01	7.9121	35.070598	0.000264	2.635537	0.892944	-0.000105
 807	8.0197e+01	7.8688	34.937373	0.000335	3.345105	1.133352	-0.000134
 808	8.0296e+01	7.8351	34.800110	0.000345	3.446472	1.167696	-0.000138
 809	8.0396e+01	7.8062	34.707256	0.000233	2.331437	0.789912	-0.000093
 810	8.0496e+01	7.7629	34.630550	0.000193	1.925969	0.652536	-0.000077
 811	8.0595e+01	7.7244	34.469065	0.000405	4.054673	1.373760	-0.000162
 812	8.0695e+01	7.6795	34.404471	0.000162	1.621869	0.549504	-0.000065
 813	8.0794e+01	7.6361	34.271245	0.000335	3.345105	1.133352	-0.000134
 814	8.0894e+01	7.5896	34.146094	0.000314	3.142371	1.064664	-0.000126
 815	8.0993e+01	7.5607	34.016906	0.000324	3.243738	1.099008	-0.000130
 816	8.1093e+01	7.5239	33.911940	0.000264	2.635537	0.892944	-0.000105
 817	8.1192e+01	7.4805	33.762566	0.000375	3.750572	1.270728	-0.000150
 818	8.1291e+01	7.4452	33.621266	0.000355	3.547838	1.202040	-0.000142
 819	8.1391e+01	7.3987	33.496115	0.000314	3.142371	1.064664	-0.000126
 820	8.1490e+01	7.3602	33.342704	0.000385	3.851939	1.305072	-0.000154
 821	8.1590e+01	7.3265	33.225627	0.000294	2.939638	0.995976	-0.000118
 822	8.1689e+01	7.2816	33.092402	0.000335	3.345105	1.133352	-0.000134
 823	8.1789e+01	7.2383	32.959176	0.000335	3.345105	1.133352	-0.000134
 824	8.1888e+01	7.1934	32.846136	0.000284	2.838271	0.961632	-0.000114
 825	8.1988e+01	7.1741	32.725022	0.000304	3.041004	1.030320	-0.000122
 826	8.2088e+01	7.1212	32.628131	0.000243	2.432804	0.824256	-0.000097
 827	8.2187e+01	7.0699	32.531240	0.000243	2.432804	0.824256	-0.000097
 828	8.2287e+01	7.0378	32.398014	0.000335	3.345105	1.133352	-0.000134
 829	8.2386e+01	7.0121	32.284974	0.000284	2.838271	0.961632	-0.000114
 830	8.2486e+01	6.9672	32.163860	0.000304	3.041004	1.030320	-0.000122
 831	8.2585e+01	6.9271	31.998338	0.000416	4.156039	1.408104	-0.000166
 832	8.2684e+01	6.8870	31.905484	0.000233	2.331437	0.789912	-0.000093
 833	8.2784e+01	6.8453	31.800518	0.000264	2.635537	0.892944	-0.000105
 834	8.2883e+01	6.7971	31.695553	0.000264	2.635537	0.892944	-0.000105
 835	8.2983e+01	6.7667	31.546179	0.000375	3.750572	1.270728	-0.000150
 836	8.3082e+01	6.7298	31.368545	0.000446	4.460140	1.511136	-0.000179
 837	8.3182e+01	6.6832	31.275691	0.000233	2.331437	0.789912	-0.000093
 838	8.3281e+01	6.6447	31.098057	0.000446	4.460140	1.511136	-0.000179
 839	8.3381e+01	6.6046	30.989054	0.000274	2.736904	0.927288	-0.000110
 840	8.3481e+01	6.5629	30.871977	0.000294	2.939638	0.995976	-0.000118
 841	8.3580e+01	6.5308	30.738752	0.000335	3.345105	1.133352	-0.000134
 842	8.3680e+01	6.4795	30.613600	0.000314	3.142371	1.064664	-0.000126
 843	8.3779e+01	6.4394	30.484412	0.000324	3.243738	1.099008	-0.000130
 844	8.3879e+01	6.4105	30.419818	0.000162	1.621869	0.549504	-0.000065
 845	8.3978e+01	6.3656	30.266407	0.000385	3.851939	1.305072	-0.000154
 846	8.4078e+01	6.3415	30.117033	0.000375	3.750572	1.270728	-0.000150
 847	8.4177e+01	6.2950	30.048401	0.000172	1.723236	0.583848	-0.000069
 848	8.4276e+01	6.2501	29.874804	0.000436	4.358773	1.476792	-0.000174
 849	8.4376e+01	6.2164	29.745616	0.000324	3.243738	1.099008	-0.000130
 850	8.4475e+01	6.1667	29.600279	0.000365	3.649205	1.236384	-0.000146
 851	8.4575e+01	6.1314	29.491277	0.000274	2.736904	0.927288	-0.000110
 852	8.4674e+01	6.0897	29.382274	0.000274	2.736904	0.927288	-0.000110
 853	8.4774e+01	6.0464	29.224826	0.000395	3.953306	1.339416	-0.000158
 854	8.4874e+01	5.9998	29.059303	0.000416	4.156039	1.408104	-0.000166
 855	8.4973e+01	5.9710	28.946263	0.000284	2.838271	0.961632	-0.000114
 856	8.5073e+01	5.9292	28.788815	0.000395	3.953306	1.339416	-0.000158
 857	8.5172e+01	5.8843	28.635404	0.000385	3.851939	1.305072	-0.000154
 858	8.5272e+01	5.8506	28.522364	0.000284	2.838271	0.961632	-0.000114
 859	8.5371e+01	5.8057	28.413361	0.000274	2.736904	0.927288	-0.000110
 860	8.5471e+01	5.7704	28.296284	0.000294	2.939638	0.995976	-0.000118
 861	8.5570e+01	5.7319	28.171133	0.000314	3.142371	1.064664	-0.000126
 862	8.5669e+01	5.6854	28.070205	0.000253	2.534170	0.858600	-0.000101
 863	8.5769e+01	5.6549	27.941016	0.000324	3.243738	1.099008	-0.000130
 864	8.5868e+01	5.6036	27.791642	0.000375	3.750572	1.270728	-0.000150
 865	8.5968e+01	5.5683	27.658417	0.000335	3.345105	1.133352	-0.000134
 866	8.6067e+01	5.5362	27.513080	0.000365	3.649205	1.236384	-0.000146
 867	8.6167e+01	5.4945	27.363706	0.000375	3.750572	1.270728	-0.000150
 868	8.6266e+01	5.4480	27.262778	0.000253	2.534170	0.858600	-0.000101
 869	8.6366e+01	5.4127	27.137626	0.000314	3.142371	1.064664	-0.000126
 870	8.6466e+01	5.3758	26.947881	0.000476	4.764240	1.614168	-0.000191
 871	8.6565e+01	5.3389	26.814656	0.000335	3.345105	1.133352	-0.000134
 872	8.6665e+01	5.2956	26.637022	0.000446	4.460140	1.511136	-0.000179
 873	8.6764e+01	5.2571	26.515908	0.000304	3.041004	1.030320	-0.000122
 874	8.6864e+01	5.2154	26.342311	0.000436	4.358773	1.476792	-0.000174
 875	8.6963e+01	5.1753	26.221197	0.000304	3.041004	1.030320	-0.000122
 876	8.7063e+01	5.1368	26.124305	0.000243	2.432804	0.824256	-0.000097
 877	8.7162e+01	5.0870	26.011266	0.000284	2.838271	0.961632	-0.000114
 878	8.7261e+01	5.0581	25.894189	0.000294	2.939638	0.995976	-0.000118
 879	8.7361e+01	5.0084	25.748852	0.000365	3.649205	1.236384	-0.000146
 880	8.7460e+01	4.9715	25.655998	0.000233	2.331437	0.789912	-0.000093
 881	8.7560e+01	4.9298	25.470289	0.000466	4.662873	1.579824	-0.000187
 882	8.7659e+01	4.8945	25.320915	0.000375	3.750572	1.270728	-0.000150
 883	8.7759e+01	4.8512	25.199801	0.000304	3.041004	1.030320	-0.000122
 884	8.7859e+01	4.8143	25.050427	0.000375	3.750572	1.270728	-0.000150
 885	8.7958e+01	4.7758	24.901053	0.000375	3.750572	1.270728	-0.000150
 886	8.8058e+01	4.7293	24.775902	0.000314	3.142371	1.064664	-0.000126
 887	8.8157e+01	4.6972	24.598268	0.000446	4.460140	1.511136	-0.000179
 888	8.8257e+01	4.6587	24.440820	0.000395	3.953306	1.339416	-0.000158
 889	8.8356e+01	4.6170	24.271260	0.000426	4.257406	1.442448	-0.000170
 890	8.8456e+01	4.5737	24.178406	0.000233	2.331437	0.789912	-0.000093
 891	8.8555e+01	4.5400	24.012883	0.000416	4.156039	1.408104	-0.000166
 892	8.8654e+01	4.4935	23.851398	0.000405	4.054673	1.373760	-0.000162
 893	8.8754e+01	4.4614	23.766618	0.000213	2.128703	0.721224	-0.000085
 894	8.8853e+01	4.4197	23.645504	0.000304	3.041004	1.030320	-0.000122
 895	8.8953e+01	4.3667	23.492093	0.000385	3.851939	1.305072	-0.000154
 896	8.9052e+01	4.3443	23.379053	0.000284	2.838271	0.961632	-0.000114
 897	8.9152e+01	4.2929	23.221605	0.000395	3.953306	1.339416	-0.000158
 898	8.9251e+01	4.2608	23.108565	0.000284	2.838271	0.961632	-0.000114
 899	8.9351e+01	4.2143	22.934968	0.000436	4.358773	1.476792	-0.000174
 900	8.9451e+01	4.1710	22.813854	0.000304	3.041004	1.030320	-0.000122
 901	8.9550e+01	4.1309	22.680629	0.000335	3.345105	1.133352	-0.000134
 902	8.9650e+01	4.0972	22.507032	0.000436	4.358773	1.476792	-0.000174
 903	8.9749e+01	4.0539	22.349583	0.000395	3.953306	1.339416	-0.000158
 904	8.9849e+01	4.0170	22.171949	0.000446	4.460140	1.511136	-0.000179
 905	8.9948e+01	3.9785	22.034687	0.000345	3.446472	1.167696	-0.000138
 906	9.0047e+01	3.9320	21.893387	0.000355	3.547838	1.202040	-0.000142
 907	9.0147e+01	3.9031	21.719790	0.000436	4.358773	1.476792	-0.000174
 908	9.0246e+01	3.8550	21.602713	0.000294	2.939638	0.995976	-0.000118
 909	9.0346e+01	3.8293	21.400857	0.000507	5.068341	1.717200	-0.000203
 910	9.0445e+01	3.7748	21.312040	0.000223	2.230070	0.755568	-0.000089
 911	9.0545e+01	3.7395	21.194963	0.000294	2.939638	0.995976	-0.000118
 912	9.0644e+01	3.6929	21.009254	0.000466	4.662873	1.579824	-0.000187
 913	9.0744e+01	3.6625	20.884103	0.000314	3.142371	1.064664	-0.000126
 914	9.0844e+01	3.6208	20.758952	0.000314	3.142371	1.064664	-0.000126
 915	9.0943e+01	3.5758	20.589392	0.000426	4.257406	1.442448	-0.000170
 916	9.1043e+01	3.5389	20.419833	0.000426	4.257406	1.442448	-0.000170
 917	9.1142e+01	3.4956	20.270459	0.000375	3.750572	1.270728	-0.000150
 918	9.1242e+01	3.4635	20.149344	0.000304	3.041004	1.030320	-0.000122
 919	9.1341e+01	3.4138	19.975748	0.000436	4.358773	1.476792	-0.000174
 920	9.1441e+01	3.3753	19.810225	0.000416	4.156039	1.408104	-0.000166
 921	9.1540e+01	3.3288	19.681037	0.000324	3.243738	1.099008	-0.000130
 922	9.1639e+01	3.3031	19.450920	0.000578	5.777908	1.957608	-0.000231
 923	9.1739e+01	3.2646	19.325769	0.000314	3.142371	1.064664	-0.000126
 924	9.1838e+01	3.2261	19.156209	0.000426	4.257406	1.442448	-0.000170
 925	9.1938e+01	3.1812	19.039132	0.000294	2.939638	0.995976	-0.000118
 926	9.2037e+01	3.1363	18.861498	0.000446	4.460140	1.511136	-0.000179
 927	9.2137e+01	3.1058	18.740384	0.000304	3.041004	1.030320	-0.000122
 928	9.2237e+01	3.0577	18.611196	0.000324	3.243738	1.099008	-0.000130
 929	9.2336e+01	3.0111	18.433562	0.000446	4.460140	1.511136	-0.000179
 930	9.2436e+01	2.9839	18.272076	0.000405	4.054673	1.373760	-0.000162
 931	9.2535e+01	2.9502	18.171148	0.000253	2.534170	0.858600	-0.000101
 932	9.2635e+01	2.9037	18.013700	0.000395	3.953306	1.339416	-0.000158
 933	9.2734e+01	2.8587	17.848177	0.000416	4.156039	1.408104	-0.000166
 934	9.2834e+01	2.8283	17.698803	0.000375	3.750572	1.270728	-0.000150
 935	9.2933e+01	2.7833	17.561540	0.000345	3.446472	1.167696	-0.000138
 936	9.3032e+01	2.7336	17.400055	0.000405	4.054673	1.373760	-0.000162
 937	9.3132e+01	2.6967	17.234532	0.000416	4.156039	1.408104	-0.000166
 938	9.3231e+01	2.6614	17.081121	0.000385	3.851939	1.305072	-0.000154
 939	9.3331e+01	2.6293	16.887339	0.000487	4.865607	1.648512	-0.000195
 940	9.3430e+01	2.5876	16.713742	0.000436	4.358773	1.476792	-0.000174
 941	9.3530e+01	2.5331	16.568405	0.000365	3.649205	1.236384	-0.000146
 942	9.3629e+01	2.5138	16.406920	0.000405	4.054673	1.373760	-0.000162
 943	9.3729e+01	2.4577	16.225249	0.000456	4.561507	1.545480	-0.000183
 944	9.3829e+01	2.4192	16.116246	0.000274	2.736904	0.927288	-0.000110
 945	9.3928e+01	2.3759	15.966872	0.000375	3.750572	1.270728	-0.000150
 946	9.4028e+01	2.3470	15.809424	0.000395	3.953306	1.339416	-0.000158
 947	9.4127e+01	2.2973	15.643901	0.000416	4.156039	1.408104	-0.000166
 948	9.4227e+01	2.2716	15.518750	0.000314	3.142371	1.064664	-0.000126
 949	9.4326e+01	2.2187	15.341116	0.000446	4.460140	1.511136	-0.000179
 950	9.4425e+01	2.1850	15.151370	0.000476	4.764240	1.614168	-0.000191
 951	9.4525e+01	2.1400	15.001996	0.000375	3.750572	1.270728	-0.000150
 952	9.4624e+01	2.1015	14.840511	0.000405	4.054673	1.373760	-0.000162
 953	9.4724e+01	2.0582	14.666914	0.000436	4.358773	1.476792	-0.000174
 954	9.4823e+01	2.0197	14.525614	0.000355	3.547838	1.202040	-0.000142
 955	9.4923e+01	1.9844	14.376240	0.000375	3.750572	1.270728	-0.000150
 956	9.5022e+01	1.9411	14.182458	0.000487	4.865607	1.648512	-0.000195
 957	9.5122e+01	1.8978	14.016935	0.000416	4.156039	1.408104	-0.000166
 958	9.5222e+01	1.8657	13.819116	0.000497	4.966974	1.682856	-0.000199
 959	9.5321e+01	1.8208	13.673779	0.000365	3.649205	1.236384	-0.000146
 960	9.5421e+01	1.7855	13.500182	0.000436	4.358773	1.476792	-0.000174
 961	9.5520e+01	1.7518	13.383105	0.000294	2.939638	0.995976	-0.000118
 962	9.5620e+01	1.7133	13.217582	0.000416	4.156039	1.408104	-0.000166
 963	9.5719e+01	1.6620	13.043986	0.000436	4.358773	1.476792	-0.000174
 964	9.5819e+01	1.6219	12.878463	0.000416	4.156039	1.408104	-0.000166
 965	9.5918e+01	1.5882	12.716978	0.000405	4.054673	1.373760	-0.000162
 966	9.6017e+01	1.5513	12.571641	0.000365	3.649205	1.236384	-0.000146
 967	9.6117e+01	1.5080	12.410155	0.000405	4.054673	1.373760	-0.000162
 968	9.6216e+01	1.4679	12.204261	0.000517	5.169708	1.751544	-0.000207
 969	9.6316e+01	1.4246	12.050850	0.000385	3.851939	1.305072	-0.000154
 970	9.6415e+01	1.3828	11.905513	0.000365	3.649205	1.236384	-0.000146
 971	9.6515e+01	1.3460	11.723842	0.000456	4.561507	1.545480	-0.000183
 972	9.6615e+01	1.3026	11.538134	0.000466	4.662873	1.579824	-0.000187
 973	9.6714e+01	1.2625	11.396834	0.000355	3.547838	1.202040	-0.000142
 974	9.6814e+01	1.2256	11.211126	0.000466	4.662873	1.579824	-0.000187
 975	9.6913e+01	1.1791	11.017343	0.000487	4.865607	1.648512	-0.000195
 976	9.7013e+01	1.1502	10.835672	0.000456	4.561507	1.545480	-0.000183
 977	9.7112e+01	1.1037	10.649964	0.000466	4.662873	1.579824	-0.000187
 978	9.7212e+01	1.0780	10.516739	0.000335	3.345105	1.133352	-0.000134
 979	9.7311e+01	1.0203	10.359290	0.000395	3.953306	1.339416	-0.000158
 980	9.7410e+01	0.9850	10.205879	0.000385	3.851939	1.305072	-0.000154
 981	9.7510e+01	0.9433	9.983837	0.000558	5.575175	1.888920	-0.000223
 982	9.7609e+01	0.9032	9.838500	0.000365	3.649205	1.236384	-0.000146
 983	9.7709e+01	0.8743	9.652792	0.000466	4.662873	1.579824	-0.000187
 984	9.7808e+01	0.8246	9.535715	0.000294	2.939638	0.995976	-0.000118
 985	9.7908e+01	0.7813	9.301561	0.000588	5.879275	1.991952	-0.000235
 986	9.8007e+01	0.7444	9.140075	0.000405	4.054673	1.373760	-0.000162
 987	9.8107e+01	0.7091	8.994738	0.000365	3.649205	1.236384	-0.000146
 988	9.8207e+01	0.6722	8.865550	0.000324	3.243738	1.099008	-0.000130
 989	9.8306e+01	0.6305	8.663693	0.000507	5.068341	1.717200	-0.000203
 990	9.8406e+01	0.5839	8.413391	0.000628	6.284742	2.129328	-0.000252
 991	9.8505e+01	0.5486	8.300351	0.000284	2.838271	0.961632	-0.000114
 992	9.8605e+01	0.5214	8.118680	0.000456	4.561507	1.545480	-0.000183
 993	9.8704e+01	0.4620	7.941046	0.000446	4.460140	1.511136	-0.000179
 994	9.8803e+01	0.4283	7.775523	0.000416	4.156039	1.408104	-0.000166
 995	9.8903e+01	0.3866	7.630187	0.000365	3.649205	1.236384	-0.000146
 996	9.9002e+01	0.3465	7.400070	0.000578	5.777908	1.957608	-0.000231
 997	9.9102e+01	0.3064	7.202250	0.000497	4.966974	1.682856	-0.000199
 998	9.9201e+01	0.2631	7.069025	0.000335	3.345105	1.133352	-0.000134
 999	9.9301e+01	0.2310	6.903502	0.000416	4.156039	1.408104	-0.000166
1000	9.9400e+01	0.1861	6.713757	0.000476	4.764240	1.614168	-0.000191
1001	9.9500e+01	0.1524	6.528048	0.000466	4.662873	1.579824	-0.000187
1002	9.9600e+01	0.1123	6.342340	0.000466	4.662873	1.579824	-0.000187
1003	9.9699e+01	0.0594	6.201040	0.000355	3.547838	1.202040	-0.000142
1004	9.9799e+01	0.0289	6.043592	0.000395	3.953306	1.339416	-0.000158
1005	9.9898e+01	-0.0032	5.886144	0.000395	3.953306	1.339416	-0.000158
1006	9.9998e+01	-0.0401	5.688324	0.000497	4.966974	1.682856	-0.000199
1007	1.0010e+02	-0.0706	5.530876	0.000395	3.953306	1.339416	-0.000158
1008	1.0020e+02	-0.1251	5.337093	0.000487	4.865607	1.648512	-0.000195
1009	1.0030e+02	-0.1652	5.167534	0.000426	4.257406	1.442448	-0.000170
1010	1.0040e+02	-0.1989	5.026234	0.000355	3.547838	1.202040	-0.000142
1011	1.0050e+02	-0.2390	4.824377	0.000507	5.068341	1.717200	-0.000203
1012	1.0059e+02	-0.2823	4.646743	0.000446	4.460140	1.511136	-0.000179
1013	1.0069e+02	-0.3257	4.428738	0.000547	5.473808	1.854576	-0.000219
1014	1.0079e+02	-0.3577	4.283401	0.000365	3.649205	1.236384	-0.000146
1015	1.0089e+02	-0.3978	4.093656	0.000476	4.764240	1.614168	-0.000191
1016	1.0099e+02	-0.4331	3.891799	0.000507	5.068341	1.717200	-0.000203
1017	1.0109e+02	-0.4813	3.726276	0.000416	4.156039	1.408104	-0.000166
1018	1.0119e+02	-0.5166	3.528457	0.000497	4.966974	1.682856	-0.000199
1019	1.0129e+02	-0.5631	3.354860	0.000436	4.358773	1.476792	-0.000174
1020	1.0139e+02	-0.5807	3.213560	0.000355	3.547838	1.202040	-0.000142
1021	1.0149e+02	-0.6369	2.995555	0.000547	5.473808	1.854576	-0.000219
1022	1.0159e+02	-0.6850	2.817921	0.000446	4.460140	1.511136	-0.000179
1023	1.0169e+02	-0.7171	2.648361	0.000426	4.257406	1.442448	-0.000170
1024	1.0179e+02	-0.7572	2.486876	0.000405	4.054673	1.373760	-0.000162
1025	1.0189e+02	-0.8021	2.305205	0.000456	4.561507	1.545480	-0.000183
1026	1.0199e+02	-0.8358	2.127571	0.000446	4.460140	1.511136	-0.000179
1027	1.0209e+02	-0.8823	1.921677	0.000517	5.169708	1.751544	-0.000207
1028	1.0219e+02	-0.9176	1.735968	0.000466	4.662873	1.579824	-0.000187
1029	1.0229e+02	-0.9545	1.538149	0.000497	4.966974	1.682856	-0.000199
1030	1.0239e+02	-0.9962	1.320143	0.000547	5.473808	1.854576	-0.000219
1031	1.0248e+02	-1.0315	1.174806	0.000365	3.649205	1.236384	-0.000146
1032	1.0258e+02	-1.0813	1.017358	0.000395	3.953306	1.339416	-0.000158
1033	1.0268e+02	-1.1085	0.799353	0.000547	5.473808	1.854576	-0.000219
1034	1.0278e+02	-1.1599	0.645942	0.000385	3.851939	1.305072	-0.000154
1035	1.0288e+02	-1.2016	0.440048	0.000517	5.169708	1.751544	-0.000207
1036	1.0298e+02	-1.2401	0.274525	0.000416	4.156039	1.408104	-0.000166
1037	1.0308e+02	-1.2770	0.100928	0.000436	4.358773	1.476792	-0.000174
1038	1.0318e+02	-1.3235	-0.125151	0.000568	5.676542	1.923264	-0.000227
1039	1.0328e+02	-1.3604	-0.294711	0.000426	4.257406	1.442448	-0.000170
1040	1.0338e+02	-1.3973	-0.436011	0.000355	3.547838	1.202040	-0.000142
1041	1.0348e+02	-1.4438	-0.641905	0.000517	5.169708	1.751544	-0.000207
1042	1.0358e+02	-1.4839	-0.787241	0.000365	3.649205	1.236384	-0.000146
1043	1.0368e+02	-1.5192	-1.013321	0.000568	5.676542	1.923264	-0.000227
1044	1.0378e+02	-1.5545	-1.174806	0.000405	4.054673	1.373760	-0.000162
1045	1.0388e+02	-1.5994	-1.368589	0.000487	4.865607	1.648512	-0.000195
1046	1.0398e+02	-1.6363	-1.534112	0.000416	4.156039	1.408104	-0.000166
1047	1.0408e+02	-1.6748	-1.744043	0.000527	5.271074	1.785888	-0.000211
1048	1.0418e+02	-1.7133	-1.921677	0.000446	4.460140	1.511136	-0.000179
1049	1.0428e+02	-1.7518	-2.119496	0.000497	4.966974	1.682856	-0.000199
1050	1.0438e+02	-1.7983	-2.313279	0.000487	4.865607	1.648512	-0.000195
1051	1.0447e+02	-1.8304	-2.470727	0.000395	3.953306	1.339416	-0.000158
1052	1.0457e+02	-1.8737	-2.624138	0.000385	3.851939	1.305072	-0.000154
1053	1.0467e+02	-1.9122	-2.830032	0.000517	5.169708	1.751544	-0.000207
1054	1.0477e+02	-1.9604	-3.007666	0.000446	4.460140	1.511136	-0.000179
1055	1.0487e+02	-1.9909	-3.181263	0.000436	4.358773	1.476792	-0.000174
1056	1.0497e+02	-2.0406	-3.338711	0.000395	3.953306	1.339416	-0.000158
1057	1.0507e+02	-2.0727	-3.508271	0.000426	4.257406	1.442448	-0.000170
1058	1.0517e+02	-2.1048	-3.714165	0.000517	5.169708	1.751544	-0.000207
1059	1.0527e+02	-2.1545	-3.855465	0.000355	3.547838	1.202040	-0.000142
1060	1.0537e+02	-2.1994	-4.020987	0.000416	4.156039	1.408104	-0.000166
1061	1.0547e+02	-2.2283	-4.182473	0.000405	4.054673	1.373760	-0.000162
1062	1.0557e+02	-2.2812	-4.388367	0.000517	5.169708	1.751544	-0.000207
1063	1.0567e+02	-2.3021	-4.602335	0.000537	5.372441	1.820232	-0.000215
1064	1.0577e+02	-2.3470	-4.771894	0.000426	4.257406	1.442448	-0.000170
1065	1.0587e+02	-2.3951	-4.957603	0.000466	4.662873	1.579824	-0.000187
1066	1.0597e+02	-2.4384	-5.131200	0.000436	4.358773	1.476792	-0.000174
1067	1.0607e+02	-2.4769	-5.300759	0.000426	4.257406	1.442448	-0.000170
1068	1.0617e+02	-2.5122	-5.458208	0.000395	3.953306	1.339416	-0.000158
1069	1.0627e+02	-2.5523	-5.664101	0.000517	5.169708	1.751544	-0.000207
1070	1.0637e+02	-2.5892	-5.825587	0.000405	4.054673	1.373760	-0.000162
1071	1.0647e+02	-2.6277	-5.983035	0.000395	3.953306	1.339416	-0.000158
1072	1.0656e+02	-2.6807	-6.184892	0.000507	5.068341	1.717200	-0.000203
1073	1.0666e+02	-2.7128	-6.342340	0.000395	3.953306	1.339416	-0.000158
1074	1.0676e+02	-2.7513	-6.524011	0.000456	4.561507	1.545480	-0.000183
1075	1.0686e+02	-2.7978	-6.661274	0.000345	3.446472	1.167696	-0.000138
1076	1.0696e+02	-2.8347	-6.838908	0.000446	4.460140	1.511136	-0.000179
1077	1.0706e+02	-2.8780	-7.008468	0.000426	4.257406	1.442448	-0.000170
1078	1.0716e+02	-2.9053	-7.157842	0.000375	3.750572	1.270728	-0.000150
1079	1.0726e+02	-2.9454	-7.343550	0.000466	4.662873	1.579824	-0.000187
1080	1.0736e+02	-2.9919	-7.565592	0.000558	5.575175	1.888920	-0.000223
1081	1.0746e+02	-3.0336	-7.755338	0.000476	4.764240	1.614168	-0.000191
1082	1.0756e+02	-3.0657	-7.908749	0.000385	3.851939	1.305072	-0.000154
1083	1.0766e+02	-3.1058	-8.070234	0.000405	4.054673	1.373760	-0.000162
1084	1.0776e+02	-3.1475	-8.272091	0.000507	5.068341	1.717200	-0.000203
1085	1.0786e+02	-3.1940	-8.437614	0.000416	4.156039	1.408104	-0.000166
1086	1.0796e+02	-3.2341	-8.582951	0.000365	3.649205	1.236384	-0.000146
1087	1.0806e+02	-3.2694	-8.752510	0.000426	4.257406	1.442448	-0.000170
1088	1.0816e+02	-3.3143	-8.954367	0.000507	5.068341	1.717200	-0.000203
1089	1.0826e+02	-3.3528	-9.119890	0.000416	4.156039	1.408104	-0.000166
1090	1.0836e+02	-3.3833	-9.277338	0.000395	3.953306	1.339416	-0.000158
1091	1.0845e+02	-3.4218	-9.422675	0.000365	3.649205	1.236384	-0.000146
1092	1.0855e+02	-3.4732	-9.555900	0.000335	3.345105	1.133352	-0.000134
1093	1.0865e+02	-3.5020	-9.729497	0.000436	4.358773	1.476792	-0.000174
1094	1.0875e+02	-3.5470	-9.899057	0.000426	4.257406	1.442448	-0.000170
1095	1.0885e+02	-3.5887	-10.044394	0.000365	3.649205	1.236384	-0.000146
1096	1.0895e+02	-3.6256	-10.234139	0.000476	4.764240	1.614168	-0.000191
1097	1.0905e+02	-3.6657	-10.419847	0.000466	4.662873	1.579824	-0.000187
1098	1.0915e+02	-3.7106	-10.641890	0.000558	5.575175	1.888920	-0.000223
1099	1.0925e+02	-3.7459	-10.791264	0.000375	3.750572	1.270728	-0.000150
1100	1.0935e+02	-3.7876	-10.948712	0.000395	3.953306	1.339416	-0.000158
1101	1.0945e+02	-3.8277	-11.098086	0.000375	3.750572	1.270728	-0.000150
1102	1.0955e+02	-3.8710	-11.271683	0.000436	4.358773	1.476792	-0.000174
1103	1.0965e+02	-3.9095	-11.425094	0.000385	3.851939	1.305072	-0.000154
1104	1.0975e+02	-3.9544	-11.558320	0.000335	3.345105	1.133352	-0.000134
1105	1.0985e+02	-3.9833	-11.727879	0.000426	4.257406	1.442448	-0.000170
1106	1.0995e+02	-4.0250	-11.885328	0.000395	3.953306	1.339416	-0.000158
1107	1.1005e+02	-4.0667	-12.042776	0.000395	3.953306	1.339416	-0.000158
1108	1.1015e+02	-4.1133	-12.212336	0.000426	4.257406	1.442448	-0.000170
1109	1.1025e+02	-4.1437	-12.309227	0.000243	2.432804	0.824256	-0.000097
1110	1.1035e+02	-4.1903	-12.490898	0.000456	4.561507	1.545480	-0.000183
1111	1.1044e+02	-4.2304	-12.660458	0.000426	4.257406	1.442448	-0.000170
1112	1.1054e+02	-4.2673	-12.846166	0.000466	4.662873	1.579824	-0.000187
1113	1.1064e+02	-4.3170	-12.995540	0.000375	3.750572	1.270728	-0.000150
1114	1.1074e+02	-4.3491	-13.197397	0.000507	5.068341	1.717200	-0.000203
1115	1.1084e+02	-4.3780	-13.334659	0.000345	3.446472	1.167696	-0.000138
1116	1.1094e+02	-4.4341	-13.516330	0.000456	4.561507	1.545480	-0.000183
1117	1.1104e+02	-4.4598	-13.649556	0.000335	3.345105	1.133352	-0.000134
1118	1.1114e+02	-4.5063	-13.798930	0.000375	3.750572	1.270728	-0.000150
1119	1.1124e+02	-4.5496	-13.964453	0.000416	4.156039	1.408104	-0.000166
1120	1.1134e+02	-4.5897	-14.121901	0.000395	3.953306	1.339416	-0.000158
1121	1.1144e+02	-4.6186	-14.267238	0.000365	3.649205	1.236384	-0.000146
1122	1.1154e+02	-4.6651	-14.408537	0.000355	3.547838	1.202040	-0.000142
1123	1.1164e+02	-4.7004	-14.570023	0.000405	4.054673	1.373760	-0.000162
1124	1.1174e+02	-4.7469	-14.731508	0.000405	4.054673	1.373760	-0.000162
1125	1.1184e+02	-4.7870	-14.860697	0.000324	3.243738	1.099008	-0.000130
1126	1.1194e+02	-4.8223	-15.006034	0.000365	3.649205	1.236384	-0.000146
1127	1.1204e+02	-4.8624	-15.135222	0.000324	3.243738	1.099008	-0.000130
1128	1.1214e+02	-4.9057	-15.316893	0.000456	4.561507	1.545480	-0.000183
1129	1.1224e+02	-4.9330	-15.438007	0.000304	3.041004	1.030320	-0.000122
1130	1.1234e+02	-4.9779	-15.627752	0.000476	4.764240	1.614168	-0.000191
1131	1.1244e+02	-5.0212	-15.793275	0.000416	4.156039	1.408104	-0.000166
1132	1.1253e+02	-5.0614	-15.983020	0.000476	4.764240	1.614168	-0.000191
1133	1.1263e+02	-5.0950	-16.124320	0.000355	3.547838	1.202040	-0.000142
1134	1.1273e+02	-5.1400	-16.261583	0.000345	3.446472	1.167696	-0.000138
1135	1.1283e+02	-5.2089	-16.402883	0.000355	3.547838	1.202040	-0.000142
1136	1.1293e+02	-5.2218	-16.584554	0.000456	4.561507	1.545480	-0.000183
1137	1.1303e+02	-5.2603	-16.733928	0.000375	3.750572	1.270728	-0.000150
1138	1.1313e+02	-5.3052	-16.863116	0.000324	3.243738	1.099008	-0.000130
1139	1.1323e+02	-5.3421	-17.012490	0.000375	3.750572	1.270728	-0.000150
1140	1.1333e+02	-5.3838	-17.149753	0.000345	3.446472	1.167696	-0.000138
1141	1.1343e+02	-5.4095	-17.295090	0.000365	3.649205	1.236384	-0.000146
1142	1.1353e+02	-5.4672	-17.420241	0.000314	3.142371	1.064664	-0.000126
1143	1.1363e+02	-5.5073	-17.565578	0.000365	3.649205	1.236384	-0.000146
1144	1.1373e+02	-5.5458	-17.747249	0.000456	4.561507	1.545480	-0.000183
1145	1.1383e+02	-5.5891	-17.832029	0.000213	2.128703	0.721224	-0.000085
1146	1.1393e+02	-5.6325	-18.033885	0.000507	5.068341	1.717200	-0.000203
1147	1.1403e+02	-5.6645	-18.171148	0.000345	3.446472	1.167696	-0.000138
1148	1.1413e+02	-5.6902	-18.332633	0.000405	4.054673	1.373760	-0.000162
1149	1.1423e+02	-5.7319	-18.490082	0.000395	3.953306	1.339416	-0.000158
1150	1.1433e+02	-5.7817	-18.607159	0.000294	2.939638	0.995976	-0.000118
1151	1.1442e+02	-5.8218	-18.768644	0.000405	4.054673	1.373760	-0.000162
1152	1.1452e+02	-5.8667	-18.926092	0.000395	3.953306	1.339416	-0.000158
1153	1.1462e+02	-5.9004	-19.087578	0.000405	4.054673	1.373760	-0.000162
1154	1.1472e+02	-5.9373	-19.188506	0.000253	2.534170	0.858600	-0.000101
1155	1.1482e+02	-5.9838	-19.341917	0.000385	3.851939	1.305072	-0.000154
1156	1.1492e+02	-6.0175	-19.475143	0.000335	3.345105	1.133352	-0.000134
1157	1.1502e+02	-6.0688	-19.620480	0.000365	3.649205	1.236384	-0.000146
1158	1.1512e+02	-6.1025	-19.773891	0.000385	3.851939	1.305072	-0.000154
1159	1.1522e+02	-6.1506	-19.919228	0.000365	3.649205	1.236384	-0.000146
1160	1.1532e+02	-6.1827	-20.064565	0.000365	3.649205	1.236384	-0.000146
1161	1.1542e+02	-6.2276	-20.149344	0.000213	2.128703	0.721224	-0.000085
1162	1.1552e+02	-6.2597	-20.351201	0.000507	5.068341	1.717200	-0.000203
1163	1.1562e+02	-6.2918	-20.448093	0.000243	2.432804	0.824256	-0.000097
1164	1.1572e+02	-6.3399	-20.645912	0.000497	4.966974	1.682856	-0.000199
1165	1.1582e+02	-6.3832	-20.787212	0.000355	3.547838	1.202040	-0.000142
1166	1.1592e+02	-6.4121	-20.936586	0.000375	3.750572	1.270728	-0.000150
1167	1.1602e+02	-6.4570	-21.061737	0.000314	3.142371	1.064664	-0.000126
1168	1.1612e+02	-6.4875	-21.207074	0.000365	3.649205	1.236384	-0.000146
1169	1.1622e+02	-6.5324	-21.328188	0.000304	3.041004	1.030320	-0.000122
1170	1.1632e+02	-6.5725	-21.481599	0.000385	3.851939	1.305072	-0.000154
1171	1.1642e+02	-6.6094	-21.606750	0.000314	3.142371	1.064664	-0.000126
1172	1.1651e+02	-6.6479	-21.752087	0.000365	3.649205	1.236384	-0.000146
1173	1.1661e+02	-6.6913	-21.865127	0.000284	2.838271	0.961632	-0.000114
1174	1.1671e+02	-6.7298	-22.014501	0.000375	3.750572	1.270728	-0.000150
1175	1.1681e+02	-6.7715	-22.107355	0.000233	2.331437	0.789912	-0.000093
1176	1.1691e+02	-6.8180	-22.264804	0.000395	3.953306	1.339416	-0.000158
1177	1.1701e+02	-6.8549	-22.369769	0.000264	2.635537	0.892944	-0.000105
1178	1.1711e+02	-6.8966	-22.523180	0.000385	3.851939	1.305072	-0.000154
1179	1.1721e+02	-6.9383	-22.684666	0.000405	4.054673	1.373760	-0.000162
1180	1.1731e+02	-6.9688	-22.842114	0.000395	3.953306	1.339416	-0.000158
1181	1.1741e+02	-7.0073	-22.939005	0.000243	2.432804	0.824256	-0.000097
1182	1.1751e+02	-7.0490	-23.084342	0.000365	3.649205	1.236384	-0.000146
1183	1.1761e+02	-7.0923	-23.229679	0.000365	3.649205	1.236384	-0.000146
1184	1.1771e+02	-7.1340	-23.379053	0.000375	3.750572	1.270728	-0.000150
1185	1.1781e+02	-7.1709	-23.492093	0.000284	2.838271	0.961632	-0.000114
1186	1.1791e+02	-7.2094	-23.653578	0.000405	4.054673	1.373760	-0.000162
1187	1.1801e+02	-7.2543	-23.806989	0.000385	3.851939	1.305072	-0.000154
1188	1.1811e+02	-7.2993	-23.911955	0.000264	2.635537	0.892944	-0.000105
1189	1.1821e+02	-7.3281	-24.073440	0.000405	4.054673	1.373760	-0.000162
1190	1.1831e+02	-7.3682	-24.218777	0.000365	3.649205	1.236384	-0.000146
1191	1.1841e+02	-7.4067	-24.299520	0.000203	2.027336	0.686880	-0.000081
1192	1.1850e+02	-7.4581	-24.400448	0.000253	2.534170	0.858600	-0.000101
1193	1.1860e+02	-7.4886	-24.557897	0.000395	3.953306	1.339416	-0.000158
1194	1.1870e+02	-7.5335	-24.687085	0.000324	3.243738	1.099008	-0.000130
1195	1.1880e+02	-7.5672	-24.800125	0.000284	2.838271	0.961632	-0.000114
1196	1.1890e+02	-7.6105	-24.929313	0.000324	3.243738	1.099008	-0.000130
1197	1.1900e+02	-7.6490	-25.115021	0.000466	4.662873	1.579824	-0.000187
1198	1.1910e+02	-7.6939	-25.260358	0.000365	3.649205	1.236384	-0.000146
1199	1.1920e+02	-7.7324	-25.369361	0.000274	2.736904	0.927288	-0.000110
1200	1.1930e+02	-7.7549	-25.518735	0.000375	3.750572	1.270728	-0.000150
1201	1.1940e+02	-7.8062	-25.603515	0.000213	2.128703	0.721224	-0.000085
1202	1.1950e+02	-7.8479	-25.748852	0.000365	3.649205	1.236384	-0.000146
1203	1.1960e+02	-7.8944	-25.918411	0.000426	4.257406	1.442448	-0.000170
1204	1.1970e+02	-7.9377	-26.015303	0.000243	2.432804	0.824256	-0.000097
1205	1.1980e+02	-7.9650	-26.176788	0.000405	4.054673	1.373760	-0.000162
1206	1.1990e+02	-8.0115	-26.293865	0.000294	2.939638	0.995976	-0.000118
1207	1.2000e+02	-8.0581	-26.414979	0.000304	3.041004	1.030320	-0.000122
1208	1.2010e+02	-8.0934	-26.528019	0.000284	2.838271	0.961632	-0.000114
1209	1.2020e+02	-8.1351	-26.632984	0.000264	2.635537	0.892944	-0.000105
1210	1.2030e+02	-8.1736	-26.750061	0.000294	2.939638	0.995976	-0.000118
1211	1.2039e+02	-8.2057	-26.939807	0.000476	4.764240	1.614168	-0.000191
1212	1.2049e+02	-8.2506	-27.048809	0.000274	2.736904	0.927288	-0.000110
1213	1.2059e+02	-8.2891	-27.202221	0.000385	3.851939	1.305072	-0.000154
1214	1.2069e+02	-8.3228	-27.319298	0.000294	2.939638	0.995976	-0.000118
1215	1.2079e+02	-8.3645	-27.416189	0.000243	2.432804	0.824256	-0.000097
1216	1.2089e+02	-8.4110	-27.553451	0.000345	3.446472	1.167696	-0.000138
1217	1.2099e+02	-8.4479	-27.731085	0.000446	4.460140	1.511136	-0.000179
1218	1.2109e+02	-8.4896	-27.823940	0.000233	2.331437	0.789912	-0.000093
1219	1.2119e+02	-8.5233	-27.989462	0.000416	4.156039	1.408104	-0.000166
1220	1.2129e+02	-8.5730	-28.114613	0.000314	3.142371	1.064664	-0.000126
1221	1.2139e+02	-8.6163	-28.199393	0.000213	2.128703	0.721224	-0.000085
1222	1.2149e+02	-8.6484	-28.360879	0.000405	4.054673	1.373760	-0.000162
1223	1.2159e+02	-8.6949	-28.449696	0.000223	2.230070	0.755568	-0.000089
1224	1.2169e+02	-8.7206	-28.574847	0.000314	3.142371	1.064664	-0.000126
1225	1.2179e+02	-8.7687	-28.655589	0.000203	2.027336	0.686880	-0.000081
1226	1.2189e+02	-8.8008	-28.772666	0.000294	2.939638	0.995976	-0.000118
1227	1.2199e+02	-8.8409	-28.893780	0.000304	3.041004	1.030320	-0.000122
1228	1.2209e+02	-8.8842	-29.071414	0.000446	4.460140	1.511136	-0.000179
1229	1.2219e+02	-8.9292	-29.220788	0.000375	3.750572	1.270728	-0.000150
1230	1.2229e+02	-8.9677	-29.333828	0.000284	2.838271	0.961632	-0.000114
1231	1.2239e+02	-9.0046	-29.479165	0.000365	3.649205	1.236384	-0.000146
1232	1.2248e+02	-9.0431	-29.608354	0.000324	3.243738	1.099008	-0.000130
1233	1.2258e+02	-9.0960	-29.697170	0.000223	2.230070	0.755568	-0.000089
1234	1.2268e+02	-9.1249	-29.802136	0.000264	2.635537	0.892944	-0.000105
1235	1.2278e+02	-9.1730	-29.951510	0.000375	3.750572	1.270728	-0.000150
1236	1.2288e+02	-9.2083	-30.040327	0.000223	2.230070	0.755568	-0.000089
1237	1.2298e+02	-9.2484	-30.197775	0.000395	3.953306	1.339416	-0.000158
1238	1.2308e+02	-9.2837	-30.326964	0.000324	3.243738	1.099008	-0.000130
1239	1.2318e+02	-9.3238	-30.476338	0.000375	3.750572	1.270728	-0.000150
1240	1.2328e+02	-9.3623	-30.557080	0.000203	2.027336	0.686880	-0.000081
1241	1.2338e+02	-9.4120	-30.601489	0.000112	1.115035	0.377784	-0.000045
1242	1.2348e+02	-9.4473	-30.742789	0.000355	3.547838	1.202040	-0.000142
1243	1.2358e+02	-9.4810	-30.871977	0.000324	3.243738	1.099008	-0.000130
1244	1.2368e+02	-9.5067	-31.033462	0.000405	4.054673	1.373760	-0.000162
1245	1.2378e+02	-9.5612	-31.170725	0.000345	3.446472	1.167696	-0.000138
1246	1.2388e+02	-9.5981	-31.299913	0.000324	3.243738	1.099008	-0.000130
1247	1.2398e+02	-9.6446	-31.396805	0.000243	2.432804	0.824256	-0.000097
1248	1.2408e+02	-9.6783	-31.525993	0.000324	3.243738	1.099008	-0.000130
1249	1.2418e+02	-9.7217	-31.643070	0.000294	2.939638	0.995976	-0.000118
1250	1.2428e+02	-9.7618	-31.788407	0.000365	3.649205	1.236384	-0.000146
1251	1.2438e+02	-9.7970	-31.877224	0.000223	2.230070	0.755568	-0.000089
1252	1.2447e+02	-9.8516	-32.010449	0.000335	3.345105	1.133352	-0.000134
1253	1.2457e+02	-9.8837	-32.119452	0.000274	2.736904	0.927288	-0.000110
1254	1.2467e+02	-9.9238	-32.256715	0.000345	3.446472	1.167696	-0.000138
1255	1.2477e+02	-9.9607	-32.369754	0.000284	2.838271	0.961632	-0.000114
1256	1.2487e+02	-9.9976	-32.478757	0.000274	2.736904	0.927288	-0.000110
1257	1.2497e+02	-10.0409	-32.567574	0.000223	2.230070	0.755568	-0.000089
1258	1.2507e+02	-10.0810	-32.700799	0.000335	3.345105	1.133352	-0.000134
1259	1.2517e+02	-10.1243	-32.801728	0.000253	2.534170	0.858600	-0.000101
1260	1.2527e+02	-10.1580	-32.922842	0.000304	3.041004	1.030320	-0.000122
1261	1.2537e+02	-10.2077	-33.064142	0.000355	3.547838	1.202040	-0.000142
1262	1.2547e+02	-10.2382	-33.181219	0.000294	2.939638	0.995976	-0.000118
1263	1.2557e+02	-10.2735	-33.310407	0.000324	3.243738	1.099008	-0.000130
1264	1.2567e+02	-10.3184	-33.431521	0.000304	3.041004	1.030320	-0.000122
1265	1.2577e+02	-10.3585	-33.572821	0.000355	3.547838	1.202040	-0.000142
1266	1.2587e+02	-10.4018	-33.697972	0.000314	3.142371	1.064664	-0.000126
1267	1.2597e+02	-10.4420	-33.794863	0.000243	2.432804	0.824256	-0.000097
1268	1.2607e+02	-10.4805	-33.936163	0.000355	3.547838	1.202040	-0.000142
1269	1.2617e+02	-10.5206	-34.033054	0.000243	2.432804	0.824256	-0.000097
1270	1.2627e+02	-10.5639	-34.138020	0.000264	2.635537	0.892944	-0.000105
1271	1.2636e+02	-10.6088	-34.271245	0.000335	3.345105	1.133352	-0.000134
1272	1.2646e+02	-10.6441	-34.368137	0.000243	2.432804	0.824256	-0.000097
1273	1.2656e+02	-10.6730	-34.469065	0.000253	2.534170	0.858600	-0.000101
1274	1.2666e+02	-10.7179	-34.586142	0.000294	2.939638	0.995976	-0.000118
1275	1.2676e+02	-10.7500	-34.658810	0.000182	1.824603	0.618192	-0.000073
1276	1.2686e+02	-10.8061	-34.792036	0.000335	3.345105	1.133352	-0.000134
1277	1.2696e+02	-10.8430	-34.929298	0.000345	3.446472	1.167696	-0.000138
1278	1.2706e+02	-10.8751	-35.078672	0.000375	3.750572	1.270728	-0.000150
1279	1.2716e+02	-10.9184	-35.191712	0.000284	2.838271	0.961632	-0.000114
1280	1.2726e+02	-10.9489	-35.361272	0.000426	4.257406	1.442448	-0.000170
1281	1.2736e+02	-10.9938	-35.433940	0.000182	1.824603	0.618192	-0.000073
1282	1.2746e+02	-11.0371	-35.534869	0.000253	2.534170	0.858600	-0.000101
1283	1.2756e+02	-11.0772	-35.643871	0.000274	2.736904	0.927288	-0.000110
1284	1.2766e+02	-11.1221	-35.740763	0.000243	2.432804	0.824256	-0.000097
1285	1.2776e+02	-11.1703	-35.878025	0.000345	3.446472	1.167696	-0.000138
1286	1.2786e+02	-11.1991	-36.007214	0.000324	3.243738	1.099008	-0.000130
1287	1.2796e+02	-11.2409	-36.128328	0.000304	3.041004	1.030320	-0.000122
1288	1.2806e+02	-11.2826	-36.213108	0.000213	2.128703	0.721224	-0.000085
1289	1.2816e+02	-11.3211	-36.326147	0.000284	2.838271	0.961632	-0.000114
1290	1.2826e+02	-11.3564	-36.390742	0.000162	1.621869	0.549504	-0.000065
1291	1.2835e+02	-11.3981	-36.511856	0.000304	3.041004	1.030320	-0.000122
1292	1.2845e+02	-11.4334	-36.616821	0.000264	2.635537	0.892944	-0.000105
1293	1.2855e+02	-11.4783	-36.794455	0.000446	4.460140	1.511136	-0.000179
1294	1.2865e+02	-11.5200	-36.899421	0.000264	2.635537	0.892944	-0.000105
1295	1.2875e+02	-11.5601	-37.020535	0.000304	3.041004	1.030320	-0.000122
1296	1.2885e+02	-11.5938	-37.109352	0.000223	2.230070	0.755568	-0.000089
1297	1.2895e+02	-11.6403	-37.222392	0.000284	2.838271	0.961632	-0.000114
1298	1.2905e+02	-11.6804	-37.343506	0.000304	3.041004	1.030320	-0.000122
1299	1.2915e+02	-11.7173	-37.480768	0.000345	3.446472	1.167696	-0.000138
1300	1.2925e+02	-11.7542	-37.581697	0.000253	2.534170	0.858600	-0.000101
1301	1.2935e+02	-11.7991	-37.743182	0.000405	4.054673	1.373760	-0.000162
1302	1.2945e+02	-11.8344	-37.840073	0.000243	2.432804	0.824256	-0.000097
1303	1.2955e+02	-11.8729	-37.945039	0.000264	2.635537	0.892944	-0.000105
1304	1.2965e+02	-11.9082	-38.025782	0.000203	2.027336	0.686880	-0.000081
1305	1.2975e+02	-11.9628	-38.138821	0.000284	2.838271	0.961632	-0.000114
1306	1.2985e+02	-11.9981	-38.268010	0.000324	3.243738	1.099008	-0.000130
1307	1.2995e+02	-12.0398	-38.344715	0.000193	1.925969	0.652536	-0.000077
1308	1.3005e+02	-12.0751	-38.417384	0.000182	1.824603	0.618192	-0.000073
1309	1.3015e+02	-12.1055	-38.574832	0.000395	3.953306	1.339416	-0.000158
1310	1.3025e+02	-12.1553	-38.679798	0.000264	2.635537	0.892944	-0.000105
1311	1.3034e+02	-12.1986	-38.821097	0.000355	3.547838	1.202040	-0.000142
1312	1.3044e+02	-12.2307	-38.926063	0.000264	2.635537	0.892944	-0.000105
1313	1.3054e+02	-12.2692	-39.059288	0.000335	3.345105	1.133352	-0.000134
1314	1.3064e+02	-12.3141	-39.131957	0.000182	1.824603	0.618192	-0.000073
1315	1.3074e+02	-12.3446	-39.257108	0.000314	3.142371	1.064664	-0.000126
1316	1.3084e+02	-12.3911	-39.358036	0.000253	2.534170	0.858600	-0.000101
1317	1.3094e+02	-12.4296	-39.487225	0.000324	3.243738	1.099008	-0.000130
1318	1.3104e+02	-12.4729	-39.608339	0.000304	3.041004	1.030320	-0.000122
1319	1.3114e+02	-12.5162	-39.721379	0.000284	2.838271	0.961632	-0.000114
1320	1.3124e+02	-12.5499	-39.826344	0.000264	2.635537	0.892944	-0.000105
1321	1.3134e+02	-12.6029	-39.947458	0.000304	3.041004	1.030320	-0.000122
1322	1.3144e+02	-12.6430	-40.024164	0.000193	1.925969	0.652536	-0.000077
1323	1.3154e+02	-12.6750	-40.181612	0.000395	3.953306	1.339416	-0.000158
1324	1.3164e+02	-12.7151	-40.254280	0.000182	1.824603	0.618192	-0.000073
1325	1.3174e+02	-12.7488	-40.355209	0.000253	2.534170	0.858600	-0.000101
1326	1.3184e+02	-12.7889	-40.488434	0.000335	3.345105	1.133352	-0.000134
1327	1.3194e+02	-12.8339	-40.581288	0.000233	2.331437	0.789912	-0.000093
1328	1.3204e+02	-12.8772	-40.686254	0.000264	2.635537	0.892944	-0.000105
1329	1.3214e+02	-12.9061	-40.803331	0.000294	2.939638	0.995976	-0.000118
1330	1.3224e+02	-12.9510	-40.920408	0.000294	2.939638	0.995976	-0.000118
1331	1.3234e+02	-12.9815	-41.009225	0.000223	2.230070	0.755568	-0.000089
1332	1.3243e+02	-13.0280	-41.098042	0.000223	2.230070	0.755568	-0.000089
1333	1.3253e+02	-13.0713	-41.231267	0.000335	3.345105	1.133352	-0.000134
1334	1.3263e+02	-13.1162	-41.364493	0.000335	3.345105	1.133352	-0.000134
1335	1.3273e+02	-13.1451	-41.441198	0.000193	1.925969	0.652536	-0.000077
1336	1.3283e+02	-13.1948	-41.534052	0.000233	2.331437	0.789912	-0.000093
1337	1.3293e+02	-13.2237	-41.675352	0.000355	3.547838	1.202040	-0.000142
1338	1.3303e+02	-13.2638	-41.784355	0.000274	2.736904	0.927288	-0.000110
1339	1.3313e+02	-13.3087	-41.917580	0.000335	3.345105	1.133352	-0.000134
1340	1.3323e+02	-13.3536	-41.961989	0.000112	1.115035	0.377784	-0.000045
1341	1.3333e+02	-13.3889	-42.091177	0.000324	3.243738	1.099008	-0.000130
1342	1.3343e+02	-13.4226	-42.220366	0.000324	3.243738	1.099008	-0.000130
1343	1.3353e+02	-13.4643	-42.284960	0.000162	1.621869	0.549504	-0.000065
1344	1.3363e+02	-13.5044	-42.434334	0.000375	3.750572	1.270728	-0.000150
1345	1.3373e+02	-13.5429	-42.498928	0.000162	1.621869	0.549504	-0.000065
1346	1.3383e+02	-13.5846	-42.611968	0.000284	2.838271	0.961632	-0.000114
1347	1.3393e+02	-13.6280	-42.769416	0.000395	3.953306	1.339416	-0.000158
1348	1.3403e+02	-13.6713	-42.882456	0.000284	2.838271	0.961632	-0.000114
1349	1.3413e+02	-13.7114	-42.987421	0.000264	2.635537	0.892944	-0.000105
1350	1.3423e+02	-13.7483	-43.124684	0.000345	3.446472	1.167696	-0.000138
1351	1.3432e+02	-13.7884	-43.209464	0.000213	2.128703	0.721224	-0.000085
1352	1.3442e+02	-13.8317	-43.278095	0.000172	1.723236	0.583848	-0.000069
1353	1.3452e+02	-13.8654	-43.383061	0.000264	2.635537	0.892944	-0.000105
1354	1.3462e+02	-13.9119	-43.512249	0.000324	3.243738	1.099008	-0.000130
1355	1.3472e+02	-13.9472	-43.613177	0.000253	2.534170	0.858600	-0.000101
1356	1.3482e+02	-13.9873	-43.766589	0.000385	3.851939	1.305072	-0.000154
1357	1.3492e+02	-14.0370	-43.847331	0.000203	2.027336	0.686880	-0.000081
1358	1.3502e+02	-14.0627	-43.928074	0.000203	2.027336	0.686880	-0.000081
1359	1.3512e+02	-14.0964	-44.069374	0.000355	3.547838	1.202040	-0.000142
1360	1.3522e+02	-14.1509	-44.206636	0.000345	3.446472	1.167696	-0.000138
1361	1.3532e+02	-14.1734	-44.295453	0.000223	2.230070	0.755568	-0.000089
1362	1.3542e+02	-14.2311	-44.396382	0.000253	2.534170	0.858600	-0.000101
1363	1.3552e+02	-14.2632	-44.497310	0.000253	2.534170	0.858600	-0.000101
1364	1.3562e+02	-14.2969	-44.634573	0.000345	3.446472	1.167696	-0.000138
1365	1.3572e+02	-14.3402	-44.687055	0.000132	1.317769	0.446472	-0.000053
1366	1.3582e+02	-14.3787	-44.812207	0.000314	3.142371	1.064664	-0.000126
1367	1.3592e+02	-14.4237	-44.965618	0.000385	3.851939	1.305072	-0.000154
1368	1.3602e+02	-14.4702	-45.070583	0.000264	2.635537	0.892944	-0.000105
1369	1.3612e+02	-14.5023	-45.175549	0.000264	2.635537	0.892944	-0.000105
1370	1.3622e+02	-14.5408	-45.280514	0.000264	2.635537	0.892944	-0.000105
1371	1.3631e+02	-14.5873	-45.381443	0.000253	2.534170	0.858600	-0.000101
1372	1.3641e+02	-14.6242	-45.490445	0.000274	2.736904	0.927288	-0.000110
1373	1.3651e+02	-14.6627	-45.607522	0.000294	2.939638	0.995976	-0.000118
1374	1.3661e+02	-14.7076	-45.732674	0.000314	3.142371	1.064664	-0.000126
1375	1.3671e+02	-14.7429	-45.845713	0.000284	2.838271	0.961632	-0.000114
1376	1.3681e+02	-14.7846	-45.950679	0.000264	2.635537	0.892944	-0.000105
1377	1.3691e+02	-14.8215	-46.063719	0.000284	2.838271	0.961632	-0.000114
1378	1.3701e+02	-14.8616	-46.176759	0.000284	2.838271	0.961632	-0.000114
1379	1.3711e+02	-14.9001	-46.289798	0.000284	2.838271	0.961632	-0.000114
1380	1.3721e+02	-14.9434	-46.390727	0.000253	2.534170	0.858600	-0.000101
1381	1.3731e+02	-14.9819	-46.499729	0.000274	2.736904	0.927288	-0.000110
1382	1.3741e+02	-15.0301	-46.592584	0.000233	2.331437	0.789912	-0.000093
1383	1.3751e+02	-15.0573	-46.713698	0.000304	3.041004	1.030320	-0.000122
1384	1.3761e+02	-15.0990	-46.806552	0.000233	2.331437	0.789912	-0.000093
1385	1.3771e+02	-15.1424	-46.939777	0.000335	3.345105	1.133352	-0.000134
1386	1.3781e+02	-15.1857	-47.077040	0.000345	3.446472	1.167696	-0.000138
1387	1.3791e+02	-15.2226	-47.222377	0.000365	3.649205	1.236384	-0.000146
1388	1.3801e+02	-15.2675	-47.311194	0.000223	2.230070	0.755568	-0.000089
1389	1.3811e+02	-15.3012	-47.408085	0.000243	2.432804	0.824256	-0.000097
1390	1.3821e+02	-15.3445	-47.521125	0.000284	2.838271	0.961632	-0.000114
1391	1.3831e+02	-15.3782	-47.654350	0.000335	3.345105	1.133352	-0.000134
1392	1.3840e+02	-15.4295	-47.799687	0.000365	3.649205	1.236384	-0.000146
1393	1.3850e+02	-15.4616	-47.920801	0.000304	3.041004	1.030320	-0.000122
1394	1.3860e+02	-15.4985	-47.981358	0.000152	1.520502	0.515160	-0.000061
1395	1.3870e+02	-15.5434	-48.082287	0.000253	2.534170	0.858600	-0.000101
1396	1.3880e+02	-15.5755	-48.207438	0.000314	3.142371	1.064664	-0.000126
1397	1.3890e+02	-15.6204	-48.320478	0.000284	2.838271	0.961632	-0.000114
1398	1.3900e+02	-15.6621	-48.437555	0.000294	2.939638	0.995976	-0.000118
1399	1.3910e+02	-15.7006	-48.538483	0.000253	2.534170	0.858600	-0.000101
1400	1.3920e+02	-15.7279	-48.647486	0.000274	2.736904	0.927288	-0.000110
1401	1.3930e+02	-15.7792	-48.772637	0.000314	3.142371	1.064664	-0.000126
1402	1.3940e+02	-15.8225	-48.881640	0.000274	2.736904	0.927288	-0.000110
1403	1.3950e+02	-15.8514	-48.978531	0.000243	2.432804	0.824256	-0.000097
1404	1.3960e+02	-15.9012	-49.123868	0.000365	3.649205	1.236384	-0.000146
1405	1.3970e+02	-15.9413	-49.261130	0.000345	3.446472	1.167696	-0.000138
1406	1.3980e+02	-15.9782	-49.374170	0.000284	2.838271	0.961632	-0.000114
1407	1.3990e+02	-16.0151	-49.491247	0.000294	2.939638	0.995976	-0.000118
1408	1.4000e+02	-16.0600	-49.644658	0.000385	3.851939	1.305072	-0.000154
1409	1.4010e+02	-16.0985	-49.745587	0.000253	2.534170	0.858600	-0.000101
1410	1.4020e+02	-16.1338	-49.882849	0.000345	3.446472	1.167696	-0.000138
1411	1.4029e+02	-16.1771	-49.983778	0.000253	2.534170	0.858600	-0.000101
1412	1.4039e+02	-16.2188	-50.100855	0.000294	2.939638	0.995976	-0.000118
1413	1.4049e+02	-16.2557	-50.189671	0.000223	2.230070	0.755568	-0.000089
1414	1.4059e+02	-16.3022	-50.318860	0.000324	3.243738	1.099008	-0.000130
1415	1.4069e+02	-16.3487	-50.452085	0.000335	3.345105	1.133352	-0.000134
1416	1.4079e+02	-16.3808	-50.585311	0.000335	3.345105	1.133352	-0.000134
1417	1.4089e+02	-16.4225	-50.686239	0.000253	2.534170	0.858600	-0.000101
1418	1.4099e+02	-16.4578	-50.823502	0.000345	3.446472	1.167696	-0.000138
1419	1.4109e+02	-16.4963	-50.924430	0.000253	2.534170	0.858600	-0.000101
1420	1.4119e+02	-16.5396	-51.045544	0.000304	3.041004	1.030320	-0.000122
1421	1.4129e+02	-16.5733	-51.219141	0.000436	4.358773	1.476792	-0.000174
1422	1.4139e+02	-16.6215	-51.303921	0.000213	2.128703	0.721224	-0.000085
1423	1.4149e+02	-16.6584	-51.497703	0.000487	4.865607	1.648512	-0.000195
1424	1.4159e+02	-16.6888	-51.570372	0.000182	1.824603	0.618192	-0.000073
1425	1.4169e+02	-16.7338	-51.727820	0.000395	3.953306	1.339416	-0.000158
1426	1.4179e+02	-16.7803	-51.832786	0.000264	2.635537	0.892944	-0.000105
1427	1.4189e+02	-16.7995	-51.961974	0.000324	3.243738	1.099008	-0.000130
1428	1.4199e+02	-16.8509	-52.058865	0.000243	2.432804	0.824256	-0.000097
1429	1.4209e+02	-16.8958	-52.200165	0.000355	3.547838	1.202040	-0.000142
1430	1.4219e+02	-16.9295	-52.309168	0.000274	2.736904	0.927288	-0.000110
1431	1.4228e+02	-16.9840	-52.442393	0.000335	3.345105	1.133352	-0.000134
1432	1.4238e+02	-17.0097	-52.559470	0.000294	2.939638	0.995976	-0.000118
1433	1.4248e+02	-17.0530	-52.720956	0.000405	4.054673	1.373760	-0.000162
1434	1.4258e+02	-17.0995	-52.829958	0.000274	2.736904	0.927288	-0.000110
1435	1.4268e+02	-17.1332	-52.951072	0.000304	3.041004	1.030320	-0.000122
1436	1.4278e+02	-17.1797	-53.096409	0.000365	3.649205	1.236384	-0.000146
1437	1.4288e+02	-17.2182	-53.201375	0.000264	2.635537	0.892944	-0.000105
1438	1.4298e+02	-17.2535	-53.326526	0.000314	3.142371	1.064664	-0.000126
1439	1.4308e+02	-17.2952	-53.504160	0.000446	4.460140	1.511136	-0.000179
1440	1.4318e+02	-17.3305	-53.669683	0.000416	4.156039	1.408104	-0.000166
1441	1.4328e+02	-17.3706	-53.794834	0.000314	3.142371	1.064664	-0.000126
1442	1.4338e+02	-17.4075	-53.911911	0.000294	2.939638	0.995976	-0.000118
1443	1.4348e+02	-17.4541	-54.033025	0.000304	3.041004	1.030320	-0.000122
1444	1.4358e+02	-17.4910	-54.178362	0.000365	3.649205	1.236384	-0.000146
1445	1.4368e+02	-17.5375	-54.275253	0.000243	2.432804	0.824256	-0.000097
1446	1.4378e+02	-17.5824	-54.376181	0.000253	2.534170	0.858600	-0.000101
1447	1.4388e+02	-17.6129	-54.549778	0.000436	4.358773	1.476792	-0.000174
1448	1.4398e+02	-17.6514	-54.674929	0.000314	3.142371	1.064664	-0.000126
1449	1.4408e+02	-17.6963	-54.836415	0.000405	4.054673	1.373760	-0.000162
1450	1.4418e+02	-17.7412	-54.965603	0.000324	3.243738	1.099008	-0.000130
1451	1.4428e+02	-17.7733	-55.110940	0.000365	3.649205	1.236384	-0.000146
1452	1.4437e+02	-17.8134	-55.228017	0.000294	2.939638	0.995976	-0.000118
1453	1.4447e+02	-17.8599	-55.385465	0.000395	3.953306	1.339416	-0.000158
1454	1.4457e+02	-17.8872	-55.534839	0.000375	3.750572	1.270728	-0.000150
1455	1.4467e+02	-17.9289	-55.639805	0.000264	2.635537	0.892944	-0.000105
1456	1.4477e+02	-17.9594	-55.821476	0.000456	4.561507	1.545480	-0.000183
1457	1.4487e+02	-18.0091	-55.970850	0.000375	3.750572	1.270728	-0.000150
1458	1.4497e+02	-18.0524	-56.112150	0.000355	3.547838	1.202040	-0.000142
1459	1.4507e+02	-18.0877	-56.277672	0.000416	4.156039	1.408104	-0.000166
1460	1.4517e+02	-18.1278	-56.439158	0.000405	4.054673	1.373760	-0.000162
1461	1.4527e+02	-18.1776	-56.527975	0.000223	2.230070	0.755568	-0.000089
1462	1.4537e+02	-18.2113	-56.717720	0.000476	4.764240	1.614168	-0.000191
1463	1.4547e+02	-18.2546	-56.806537	0.000223	2.230070	0.755568	-0.000089
1464	1.4557e+02	-18.2963	-56.931688	0.000314	3.142371	1.064664	-0.000126
1465	1.4567e+02	-18.3284	-57.048765	0.000294	2.939638	0.995976	-0.000118
1466	1.4577e+02	-18.3797	-57.246585	0.000497	4.966974	1.682856	-0.000199
1467	1.4587e+02	-18.4134	-57.379810	0.000335	3.345105	1.133352	-0.000134
1468	1.4597e+02	-18.4471	-57.529184	0.000375	3.750572	1.270728	-0.000150
1469	1.4607e+02	-18.4936	-57.678558	0.000375	3.750572	1.270728	-0.000150
1470	1.4617e+02	-18.5257	-57.815821	0.000345	3.446472	1.167696	-0.000138
1471	1.4626e+02	-18.5674	-58.001529	0.000466	4.662873	1.579824	-0.000187
1472	1.4636e+02	-18.6011	-58.138792	0.000345	3.446472	1.167696	-0.000138
1473	1.4646e+02	-18.6460	-58.324500	0.000466	4.662873	1.579824	-0.000187
1474	1.4656e+02	-18.6797	-58.469837	0.000365	3.649205	1.236384	-0.000146
1475	1.4666e+02	-18.7214	-58.619211	0.000375	3.750572	1.270728	-0.000150
1476	1.4676e+02	-18.7711	-58.800882	0.000456	4.561507	1.545480	-0.000183
1477	1.4686e+02	-18.8112	-58.974479	0.000436	4.358773	1.476792	-0.000174
1478	1.4696e+02	-18.8545	-59.095593	0.000304	3.041004	1.030320	-0.000122
1479	1.4706e+02	-18.8914	-59.236893	0.000355	3.547838	1.202040	-0.000142
1480	1.4716e+02	-18.9251	-59.378192	0.000355	3.547838	1.202040	-0.000142
1481	1.4726e+02	-18.9668	-59.576012	0.000497	4.966974	1.682856	-0.000199
1482	1.4736e+02	-19.0070	-59.753646	0.000446	4.460140	1.511136	-0.000179
1483	1.4746e+02	-19.0503	-59.878797	0.000314	3.142371	1.064664	-0.000126
1484	1.4756e+02	-19.0872	-60.007986	0.000324	3.243738	1.099008	-0.000130
1485	1.4766e+02	-19.1273	-60.201768	0.000487	4.865607	1.648512	-0.000195
1486	1.4776e+02	-19.1642	-60.347105	0.000365	3.649205	1.236384	-0.000146
1487	1.4786e+02	-19.2075	-60.536850	0.000476	4.764240	1.614168	-0.000191
1488	1.4796e+02	-19.2460	-60.710447	0.000436	4.358773	1.476792	-0.000174
1489	1.4806e+02	-19.2845	-60.900193	0.000476	4.764240	1.614168	-0.000191
1490	1.4816e+02	-19.3214	-61.081864	0.000456	4.561507	1.545480	-0.000183
1491	1.4825e+02	-19.3583	-61.271609	0.000476	4.764240	1.614168	-0.000191
1492	1.4835e+02	-19.4000	-61.420983	0.000375	3.750572	1.270728	-0.000150
1493	1.4845e+02	-19.4465	-61.546134	0.000314	3.142371	1.064664	-0.000126
1494	1.4855e+02	-19.4834	-61.752028	0.000517	5.169708	1.751544	-0.000207
1495	1.4865e+02	-19.5187	-61.889291	0.000345	3.446472	1.167696	-0.000138
1496	1.4875e+02	-19.5620	-62.074999	0.000466	4.662873	1.579824	-0.000187
1497	1.4885e+02	-19.6117	-62.188039	0.000284	2.838271	0.961632	-0.000114
1498	1.4895e+02	-19.6406	-62.397970	0.000527	5.271074	1.785888	-0.000211
1499	1.4905e+02	-19.6823	-62.531195	0.000335	3.345105	1.133352	-0.000134
1500	1.4915e+02	-19.7224	-62.708829	0.000446	4.460140	1.511136	-0.000179
1501	1.4925e+02	-19.7641	-62.898575	0.000476	4.764240	1.614168	-0.000191
1502	1.4935e+02	-19.8091	-63.043912	0.000365	3.649205	1.236384	-0.000146
1503	1.4945e+02	-19.8428	-63.245768	0.000507	5.068341	1.717200	-0.000203
1504	1.4955e+02	-19.8845	-63.399180	0.000385	3.851939	1.305072	-0.000154
1505	1.4965e+02	-19.9198	-63.645445	0.000618	6.183376	2.094984	-0.000248
1506	1.4975e+02	-19.9631	-63.835190	0.000476	4.764240	1.614168	-0.000191
1507	1.4985e+02	-20.0032	-64.024936	0.000476	4.764240	1.614168	-0.000191
1508	1.4995e+02	-19.9615	-64.073381	-0.000122	-1.216402	-0.412128	-0.000049
1509	1.5005e+02	-19.9294	-64.085493	-0.000030	-0.304100	-0.103032	-0.000012
1510	1.5015e+02	-19.8861	-64.065307	0.000051	0.506834	0.171720	0.000020
1511	1.5025e+02	-19.8508	-64.053196	0.000030	0.304100	0.103032	0.000012
1512	1.5034e+02	-19.8043	-64.105678	-0.000132	-1.317769	-0.446472	-0.000053
1513	1.5044e+02	-19.7609	-64.113753	-0.000020	-0.202734	-0.068688	-0.000008
1514	1.5054e+02	-19.7337	-64.113753	0.000000	0.000000	0.000000	0.000000
1515	1.5064e+02	-19.6887	-64.024936	0.000223	2.230070	0.755568	0.000089
1516	1.5074e+02	-19.6502	-64.020899	0.000010	0.101367	0.034344	0.000004
1517	1.5084e+02	-19.6134	-64.049158	-0.000071	-0.709568	-0.240408	-0.000028
1518	1.5094e+02	-19.5588	-64.008787	0.000101	1.013668	0.343440	0.000041
1519	1.5104e+02	-19.5267	-63.988601	0.000051	0.506834	0.171720	0.000020
1520	1.5114e+02	-19.4802	-63.972453	0.000041	0.405467	0.137376	0.000016
1521	1.5124e+02	-19.4433	-63.968416	0.000010	0.101367	0.034344	0.000004
1522	1.5134e+02	-19.4080	-63.988601	-0.000051	-0.506834	-0.171720	-0.000020
1523	1.5144e+02	-19.3647	-63.932082	0.000142	1.419135	0.480816	0.000057
1524	1.5154e+02	-19.3262	-63.919970	0.000030	0.304100	0.103032	0.000012
1525	1.5164e+02	-19.2925	-63.879599	0.000101	1.013668	0.343440	0.000041
1526	1.5174e+02	-19.2428	-63.895747	-0.000041	-0.405467	-0.137376	-0.000016
1527	1.5184e+02	-19.1930	-63.835190	0.000152	1.520502	0.515160	0.000061
1528	1.5194e+02	-19.1690	-63.778670	0.000142	1.419135	0.480816	0.000057
1529	1.5204e+02	-19.1305	-63.726188	0.000132	1.317769	0.446472	0.000053
1530	1.5214e+02	-19.0920	-63.701965	0.000061	0.608201	0.206064	0.000024
1531	1.5224e+02	-19.0422	-63.677742	0.000061	0.608201	0.206064	0.000024
1532	1.5233e+02	-19.0150	-63.601036	0.000193	1.925969	0.652536	0.000077
1533	1.5243e+02	-18.9668	-63.504145	0.000243	2.432804	0.824256	0.000097
1534	1.5253e+02	-18.9316	-63.508182	-0.000010	-0.101367	-0.034344	-0.000004
1535	1.5263e+02	-18.8914	-63.427440	0.000203	2.027336	0.686880	0.000081
1536	1.5273e+02	-18.8481	-63.431477	-0.000010	-0.101367	-0.034344	-0.000004
1537	1.5283e+02	-18.8064	-63.342660	0.000223	2.230070	0.755568	0.000089
1538	1.5293e+02	-18.7743	-63.338623	0.000010	0.101367	0.034344	0.000004
1539	1.5303e+02	-18.7230	-63.274028	0.000162	1.621869	0.549504	0.000065
1540	1.5313e+02	-18.6893	-63.229620	0.000112	1.115035	0.377784	0.000045
1541	1.5323e+02	-18.6524	-63.181174	0.000122	1.216402	0.412128	0.000049
1542	1.5333e+02	-18.6043	-63.173100	0.000020	0.202734	0.068688	0.000008
1543	1.5343e+02	-18.5818	-63.104469	0.000172	1.723236	0.583848	0.000069
1544	1.5353e+02	-18.5257	-63.051986	0.000132	1.317769	0.446472	0.000053
1545	1.5363e+02	-18.4888	-62.983355	0.000172	1.723236	0.583848	0.000069
1546	1.5373e+02	-18.4439	-62.906649	0.000193	1.925969	0.652536	0.000077
1547	1.5383e+02	-18.4070	-62.854166	0.000132	1.317769	0.446472	0.000053
1548	1.5393e+02	-18.3685	-62.821869	0.000081	0.810935	0.274752	0.000032
1549	1.5403e+02	-18.3348	-62.712867	0.000274	2.736904	0.927288	0.000110
1550	1.5413e+02	-18.2947	-62.672495	0.000101	1.013668	0.343440	0.000041
1551	1.5422e+02	-18.2481	-62.587715	0.000213	2.128703	0.721224	0.000085
1552	1.5432e+02	-18.2113	-62.555418	0.000081	0.810935	0.274752	0.000032
1553	1.5442e+02	-18.1711	-62.519084	0.000091	0.912301	0.309096	0.000037
1554	1.5452e+02	-18.1326	-62.454490	0.000162	1.621869	0.549504	0.000065
1555	1.5462e+02	-18.0909	-62.414119	0.000101	1.013668	0.343440	0.000041
1556	1.5472e+02	-18.0508	-62.329339	0.000213	2.128703	0.721224	0.000085
1557	1.5482e+02	-18.0075	-62.256670	0.000182	1.824603	0.618192	0.000073
1558	1.5492e+02	-17.9754	-62.212262	0.000112	1.115035	0.377784	0.000045
1559	1.5502e+02	-17.9385	-62.163816	0.000122	1.216402	0.412128	0.000049
1560	1.5512e+02	-17.8904	-62.079036	0.000213	2.128703	0.721224	0.000085
1561	1.5522e+02	-17.8551	-62.010405	0.000172	1.723236	0.583848	0.000069
1562	1.5532e+02	-17.8182	-61.945811	0.000162	1.621869	0.549504	0.000065
1563	1.5542e+02	-17.7749	-61.865068	0.000203	2.027336	0.686880	0.000081
1564	1.5552e+02	-17.7380	-61.796437	0.000172	1.723236	0.583848	0.000069
1565	1.5562e+02	-17.6947	-61.743954	0.000132	1.317769	0.446472	0.000053
1566	1.5572e+02	-17.6482	-61.663211	0.000203	2.027336	0.686880	0.000081
1567	1.5582e+02	-17.6177	-61.598617	0.000162	1.621869	0.549504	0.000065
1568	1.5592e+02	-17.5744	-61.509800	0.000223	2.230070	0.755568	0.000089
1569	1.5602e+02	-17.5391	-61.453280	0.000142	1.419135	0.480816	0.000057
1570	1.5612e+02	-17.4861	-61.388686	0.000162	1.621869	0.549504	0.000065
1571	1.5622e+02	-17.4541	-61.328129	0.000152	1.520502	0.515160	0.000061
1572	1.5631e+02	-17.4172	-61.239312	0.000223	2.230070	0.755568	0.000089
1573	1.5641e+02	-17.3787	-61.207015	0.000081	0.810935	0.274752	0.000032
1574	1.5651e+02	-17.3353	-61.134346	0.000182	1.824603	0.618192	0.000073
1575	1.5661e+02	-17.2872	-61.069752	0.000162	1.621869	0.549504	0.000065
1576	1.5671e+02	-17.2519	-60.972861	0.000243	2.432804	0.824256	0.000097
1577	1.5681e+02	-17.2102	-60.916341	0.000142	1.419135	0.480816	0.000057
1578	1.5691e+02	-17.1797	-60.851747	0.000162	1.621869	0.549504	0.000065
1579	1.5701e+02	-17.1364	-60.787153	0.000162	1.621869	0.549504	0.000065
1580	1.5711e+02	-17.1027	-60.678150	0.000274	2.736904	0.927288	0.000110
1581	1.5721e+02	-17.0578	-60.645853	0.000081	0.810935	0.274752	0.000032
1582	1.5731e+02	-17.0145	-60.577222	0.000172	1.723236	0.583848	0.000069
1583	1.5741e+02	-16.9808	-60.480330	0.000243	2.432804	0.824256	0.000097
1584	1.5751e+02	-16.9375	-60.460145	0.000051	0.506834	0.171720	0.000020
1585	1.5761e+02	-16.8910	-60.318845	0.000355	3.547838	1.202040	0.000142
1586	1.5771e+02	-16.8541	-60.266362	0.000132	1.317769	0.446472	0.000053
1587	1.5781e+02	-16.8092	-60.197731	0.000172	1.723236	0.583848	0.000069
1588	1.5791e+02	-16.7723	-60.125063	0.000182	1.824603	0.618192	0.000073
1589	1.5801e+02	-16.7402	-60.052394	0.000182	1.824603	0.618192	0.000073
1590	1.5811e+02	-16.7033	-59.999911	0.000132	1.317769	0.446472	0.000053
1591	1.5821e+02	-16.6551	-59.919169	0.000203	2.027336	0.686880	0.000081
1592	1.5830e+02	-16.6231	-59.838426	0.000203	2.027336	0.686880	0.000081
1593	1.5840e+02	-16.5669	-59.794017	0.000112	1.115035	0.377784	0.000045
1594	1.5850e+02	-16.5348	-59.697126	0.000243	2.432804	0.824256	0.000097
1595	1.5860e+02	-16.4883	-59.648681	0.000122	1.216402	0.412128	0.000049
1596	1.5870e+02	-16.4514	-59.555826	0.000233	2.331437	0.789912	0.000093
1597	1.5880e+02	-16.4161	-59.422601	0.000335	3.345105	1.133352	0.000134
1598	1.5890e+02	-16.3744	-59.438749	-0.000041	-0.405467	-0.137376	-0.000016
1599	1.5900e+02	-16.3343	-59.358007	0.000203	2.027336	0.686880	0.000081
1600	1.5910e+02	-16.2910	-59.249004	0.000274	2.736904	0.927288	0.000110
1601	1.5920e+02	-16.2605	-59.180373	0.000172	1.723236	0.583848	0.000069
1602	1.5930e+02	-16.2108	-59.099630	0.000203	2.027336	0.686880	0.000081
1603	1.5940e+02	-16.1787	-59.002739	0.000243	2.432804	0.824256	0.000097
1604	1.5950e+02	-16.1386	-58.930070	0.000182	1.824603	0.618192	0.000073
1605	1.5960e+02	-16.0889	-58.845291	0.000213	2.128703	0.721224	0.000085
1606	1.5970e+02	-16.0568	-58.748399	0.000243	2.432804	0.824256	0.000097
1607	1.5980e+02	-16.0199	-58.679768	0.000172	1.723236	0.583848	0.000069
1608	1.5990e+02	-15.9669	-58.647471	0.000081	0.810935	0.274752	0.000032
1609	1.6000e+02	-15.9413	-58.506171	0.000355	3.547838	1.202040	0.000142
1610	1.6010e+02	-15.9012	-58.473874	0.000081	0.810935	0.274752	0.000032
1611	1.6019e+02	-15.8627	-58.368909	0.000264	2.635537	0.892944	0.000105
1612	1.6029e+02	-15.8161	-58.308351	0.000152	1.520502	0.515160	0.000061
1613	1.6039e+02	-15.7889	-58.195312	0.000284	2.838271	0.961632	0.000114
1614	1.6049e+02	-15.7311	-58.187237	0.000020	0.202734	0.068688	0.000008
1615	1.6059e+02	-15.7006	-58.142829	0.000112	1.115035	0.377784	0.000045
1616	1.6069e+02	-15.6637	-58.029789	0.000284	2.838271	0.961632	0.000114
1617	1.6079e+02	-15.6124	-57.973269	0.000142	1.419135	0.480816	0.000057
1618	1.6089e+02	-15.5707	-57.880415	0.000233	2.331437	0.789912	0.000093
1619	1.6099e+02	-15.5498	-57.775450	0.000264	2.635537	0.892944	0.000105
1620	1.6109e+02	-15.4953	-57.670484	0.000264	2.635537	0.892944	0.000105
1621	1.6119e+02	-15.4616	-57.609927	0.000152	1.520502	0.515160	0.000061
1622	1.6129e+02	-15.4151	-57.517073	0.000233	2.331437	0.789912	0.000093
1623	1.6139e+02	-15.3926	-57.428256	0.000223	2.230070	0.755568	0.000089
1624	1.6149e+02	-15.3493	-57.311179	0.000294	2.939638	0.995976	0.000118
1625	1.6159e+02	-15.3092	-57.242548	0.000172	1.723236	0.583848	0.000069
1626	1.6169e+02	-15.2579	-57.214288	0.000071	0.709568	0.240408	0.000028
1627	1.6179e+02	-15.2290	-57.117396	0.000243	2.432804	0.824256	0.000097
1628	1.6189e+02	-15.1760	-57.028579	0.000223	2.230070	0.755568	0.000089
1629	1.6199e+02	-15.1456	-56.980134	0.000122	1.216402	0.412128	0.000049
1630	1.6209e+02	-15.0942	-56.879205	0.000253	2.534170	0.858600	0.000101
1631	1.6219e+02	-15.0557	-56.846908	0.000081	0.810935	0.274752	0.000032
1632	1.6228e+02	-15.0156	-56.729831	0.000294	2.939638	0.995976	0.000118
1633	1.6238e+02	-14.9835	-56.701571	0.000071	0.709568	0.240408	0.000028
1634	1.6248e+02	-14.9466	-56.620829	0.000203	2.027336	0.686880	0.000081
1635	1.6258e+02	-14.9049	-56.503752	0.000294	2.939638	0.995976	0.000118
1636	1.6268e+02	-14.8664	-56.398786	0.000264	2.635537	0.892944	0.000105
1637	1.6278e+02	-14.8263	-56.318044	0.000203	2.027336	0.686880	0.000081
1638	1.6288e+02	-14.7894	-56.132335	0.000466	4.662873	1.579824	0.000187
1639	1.6298e+02	-14.7413	-56.112150	0.000051	0.506834	0.171720	0.000020
1640	1.6308e+02	-14.7012	-56.015258	0.000243	2.432804	0.824256	0.000097
1641	1.6318e+02	-14.6659	-55.970850	0.000112	1.115035	0.377784	0.000045
1642	1.6328e+02	-14.6290	-55.882033	0.000223	2.230070	0.755568	0.000089
1643	1.6338e+02	-14.5873	-55.760919	0.000304	3.041004	1.030320	0.000122
1644	1.6348e+02	-14.5456	-55.692288	0.000172	1.723236	0.583848	0.000069
1645	1.6358e+02	-14.5087	-55.659990	0.000081	0.810935	0.274752	0.000032
1646	1.6368e+02	-14.4654	-55.542913	0.000294	2.939638	0.995976	0.000118
1647	1.6378e+02	-14.4237	-55.474282	0.000172	1.723236	0.583848	0.000069
1648	1.6388e+02	-14.3836	-55.437948	0.000091	0.912301	0.309096	0.000037
1649	1.6398e+02	-14.3467	-55.324908	0.000284	2.838271	0.961632	0.000114
1650	1.6408e+02	-14.3049	-55.236091	0.000223	2.230070	0.755568	0.000089
1651	1.6418e+02	-14.2713	-55.147274	0.000223	2.230070	0.755568	0.000089
1652	1.6427e+02	-14.2263	-55.070569	0.000193	1.925969	0.652536	0.000077
1653	1.6437e+02	-14.1894	-54.977714	0.000233	2.331437	0.789912	0.000093
1654	1.6447e+02	-14.1461	-54.876786	0.000253	2.534170	0.858600	0.000101
1655	1.6457e+02	-14.1092	-54.767783	0.000274	2.736904	0.927288	0.000110
1656	1.6467e+02	-14.0659	-54.699152	0.000172	1.723236	0.583848	0.000069
1657	1.6477e+02	-14.0274	-54.630521	0.000172	1.723236	0.583848	0.000069
1658	1.6487e+02	-13.9905	-54.521518	0.000274	2.736904	0.927288	0.000110
1659	1.6497e+02	-13.9472	-54.456924	0.000162	1.621869	0.549504	0.000065
1660	1.6507e+02	-13.8975	-54.343884	0.000284	2.838271	0.961632	0.000114
1661	1.6517e+02	-13.8702	-54.263141	0.000203	2.027336	0.686880	0.000081
1662	1.6527e+02	-13.8221	-54.230844	0.000081	0.810935	0.274752	0.000032
1663	1.6537e+02	-13.7884	-54.109730	0.000304	3.041004	1.030320	0.000122
1664	1.6547e+02	-13.7354	-54.041099	0.000172	1.723236	0.583848	0.000069
1665	1.6557e+02	-13.7130	-53.992653	0.000122	1.216402	0.412128	0.000049
1666	1.6567e+02	-13.6713	-53.887688	0.000264	2.635537	0.892944	0.000105
1667	1.6577e+02	-13.6199	-53.782722	0.000264	2.635537	0.892944	0.000105
1668	1.6587e+02	-13.5862	-53.681794	0.000253	2.534170	0.858600	0.000101
1669	1.6597e+02	-13.5461	-53.597014	0.000213	2.128703	0.721224	0.000085
1670	1.6607e+02	-13.5060	-53.496086	0.000253	2.534170	0.858600	0.000101
1671	1.6616e+02	-13.4740	-53.447640	0.000122	1.216402	0.412128	0.000049
1672	1.6626e+02	-13.4387	-53.286155	0.000405	4.054673	1.373760	0.000162
1673	1.6636e+02	-13.3841	-53.225598	0.000152	1.520502	0.515160	0.000061
1674	1.6646e+02	-13.3520	-53.076224	0.000375	3.750572	1.270728	0.000150
1675	1.6656e+02	-13.3039	-53.068149	0.000020	0.202734	0.068688	0.000008
1676	1.6666e+02	-13.2686	-52.926850	0.000355	3.547838	1.202040	0.000142
1677	1.6676e+02	-13.2189	-52.858218	0.000172	1.723236	0.583848	0.000069
1678	1.6686e+02	-13.1884	-52.773438	0.000213	2.128703	0.721224	0.000085
1679	1.6696e+02	-13.1563	-52.729030	0.000112	1.115035	0.377784	0.000045
1680	1.6706e+02	-13.0970	-52.599842	0.000324	3.243738	1.099008	0.000130
1681	1.6716e+02	-13.0697	-52.531210	0.000172	1.723236	0.583848	0.000069
1682	1.6726e+02	-13.0280	-52.490839	0.000101	1.013668	0.343440	0.000041
1683	1.6736e+02	-12.9927	-52.333391	0.000395	3.953306	1.339416	0.000158
1684	1.6746e+02	-12.9462	-52.276871	0.000142	1.419135	0.480816	0.000057
1685	1.6756e+02	-12.9077	-52.171905	0.000264	2.635537	0.892944	0.000105
1686	1.6766e+02	-12.8659	-52.087125	0.000213	2.128703	0.721224	0.000085
1687	1.6776e+02	-12.8339	-51.986197	0.000253	2.534170	0.858600	0.000101
1688	1.6786e+02	-12.8034	-51.901417	0.000213	2.128703	0.721224	0.000085
1689	1.6796e+02	-12.7504	-51.768192	0.000335	3.345105	1.133352	0.000134
1690	1.6806e+02	-12.7151	-51.695523	0.000182	1.824603	0.618192	0.000073
1691	1.6816e+02	-12.6638	-51.598632	0.000243	2.432804	0.824256	0.000097
1692	1.6825e+02	-12.6301	-51.509815	0.000223	2.230070	0.755568	0.000089
1693	1.6835e+02	-12.5948	-51.412924	0.000243	2.432804	0.824256	0.000097
1694	1.6845e+02	-12.5595	-51.344292	0.000172	1.723236	0.583848	0.000069
1695	1.6855e+02	-12.5178	-51.255475	0.000223	2.230070	0.755568	0.000089
1696	1.6865e+02	-12.4697	-51.166658	0.000223	2.230070	0.755568	0.000089
1697	1.6875e+02	-12.4312	-51.061693	0.000264	2.635537	0.892944	0.000105
1698	1.6885e+02	-12.3959	-51.033433	0.000071	0.709568	0.240408	0.000028
1699	1.6895e+02	-12.3494	-50.908282	0.000314	3.142371	1.064664	0.000126
1700	1.6905e+02	-12.3157	-50.847725	0.000152	1.520502	0.515160	0.000061
1701	1.6915e+02	-12.2660	-50.690276	0.000395	3.953306	1.339416	0.000158
1702	1.6925e+02	-12.2291	-50.653942	0.000091	0.912301	0.309096	0.000037
1703	1.6935e+02	-12.2002	-50.504568	0.000375	3.750572	1.270728	0.000150
1704	1.6945e+02	-12.1473	-50.395565	0.000274	2.736904	0.927288	0.000110
1705	1.6955e+02	-12.1216	-50.322897	0.000182	1.824603	0.618192	0.000073
1706	1.6965e+02	-12.0735	-50.181597	0.000355	3.547838	1.202040	0.000142
1707	1.6975e+02	-12.0301	-50.169486	0.000030	0.304100	0.103032	0.000012
1708	1.6985e+02	-11.9932	-50.056446	0.000284	2.838271	0.961632	0.000114
1709	1.6995e+02	-11.9596	-49.975703	0.000203	2.027336	0.686880	0.000081
1710	1.7005e+02	-11.9146	-49.898998	0.000193	1.925969	0.652536	0.000077
1711	1.7015e+02	-11.8729	-49.781921	0.000294	2.939638	0.995976	0.000118
1712	1.7024e+02	-11.8408	-49.713289	0.000172	1.723236	0.583848	0.000069
1713	1.7034e+02	-11.7911	-49.624472	0.000223	2.230070	0.755568	0.000089
1714	1.7044e+02	-11.7590	-49.471061	0.000385	3.851939	1.305072	0.000154
1715	1.7054e+02	-11.7157	-49.402430	0.000172	1.723236	0.583848	0.000069
1716	1.7064e+02	-11.6788	-49.309576	0.000233	2.331437	0.789912	0.000093
1717	1.7074e+02	-11.6419	-49.192499	0.000294	2.939638	0.995976	0.000118
1718	1.7084e+02	-11.6002	-49.111756	0.000203	2.027336	0.686880	0.000081
1719	1.7094e+02	-11.5601	-48.990642	0.000304	3.041004	1.030320	0.000122
1720	1.7104e+02	-11.5120	-48.905862	0.000213	2.128703	0.721224	0.000085
1721	1.7114e+02	-11.4751	-48.841268	0.000162	1.621869	0.549504	0.000065
1722	1.7124e+02	-11.4382	-48.736303	0.000264	2.635537	0.892944	0.000105
1723	1.7134e+02	-11.4013	-48.643449	0.000233	2.331437	0.789912	0.000093
1724	1.7144e+02	-11.3499	-48.538483	0.000264	2.635537	0.892944	0.000105
1725	1.7154e+02	-11.3275	-48.465815	0.000182	1.824603	0.618192	0.000073
1726	1.7164e+02	-11.2713	-48.348738	0.000294	2.939638	0.995976	0.000118
1727	1.7174e+02	-11.2344	-48.263958	0.000213	2.128703	0.721224	0.000085
1728	1.7184e+02	-11.2008	-48.163029	0.000253	2.534170	0.858600	0.000101
1729	1.7194e+02	-11.1574	-48.054027	0.000274	2.736904	0.927288	0.000110
1730	1.7204e+02	-11.1205	-47.953098	0.000253	2.534170	0.858600	0.000101
1731	1.7213e+02	-11.0820	-47.872356	0.000203	2.027336	0.686880	0.000081
1732	1.7223e+02	-11.0419	-47.747204	0.000314	3.142371	1.064664	0.000126
1733	1.7233e+02	-11.0082	-47.658387	0.000223	2.230070	0.755568	0.000089
1734	1.7243e+02	-10.9553	-47.577645	0.000203	2.027336	0.686880	0.000081
1735	1.7253e+02	-10.9200	-47.492865	0.000213	2.128703	0.721224	0.000085
1736	1.7263e+02	-10.8847	-47.359639	0.000335	3.345105	1.133352	0.000134
1737	1.7273e+02	-10.8334	-47.270822	0.000223	2.230070	0.755568	0.000089
1738	1.7283e+02	-10.7997	-47.214302	0.000142	1.419135	0.480816	0.000057
1739	1.7293e+02	-10.7596	-47.113374	0.000253	2.534170	0.858600	0.000101
1740	1.7303e+02	-10.7211	-46.959963	0.000385	3.851939	1.305072	0.000154
1741	1.7313e+02	-10.6842	-46.850960	0.000274	2.736904	0.927288	0.000110
1742	1.7323e+02	-10.6377	-46.790403	0.000152	1.520502	0.515160	0.000061
1743	1.7333e+02	-10.5944	-46.653141	0.000345	3.446472	1.167696	0.000138
1744	1.7343e+02	-10.5607	-46.588546	0.000162	1.621869	0.549504	0.000065
1745	1.7353e+02	-10.5190	-46.479544	0.000274	2.736904	0.927288	0.000110
1746	1.7363e+02	-10.4756	-46.435135	0.000112	1.115035	0.377784	0.000045
1747	1.7373e+02	-10.4355	-46.241353	0.000487	4.865607	1.648512	0.000195
1748	1.7383e+02	-10.4067	-46.176759	0.000162	1.621869	0.549504	0.000065
1749	1.7393e+02	-10.3682	-46.083904	0.000233	2.331437	0.789912	0.000093
1750	1.7403e+02	-10.3168	-45.970865	0.000284	2.838271	0.961632	0.000114
1751	1.7413e+02	-10.2815	-45.873973	0.000243	2.432804	0.824256	0.000097
1752	1.7422e+02	-10.2462	-45.773045	0.000253	2.534170	0.858600	0.000101
1753	1.7432e+02	-10.1981	-45.688265	0.000213	2.128703	0.721224	0.000085
1754	1.7442e+02	-10.1612	-45.599448	0.000223	2.230070	0.755568	0.000089
1755	1.7452e+02	-10.1259	-45.514668	0.000213	2.128703	0.721224	0.000085
1756	1.7462e+02	-10.0778	-45.429888	0.000213	2.128703	0.721224	0.000085
1757	1.7472e+02	-10.0409	-45.288589	0.000355	3.547838	1.202040	0.000142
1758	1.7482e+02	-9.9912	-45.183623	0.000264	2.635537	0.892944	0.000105
1759	1.7492e+02	-9.9607	-45.102880	0.000203	2.027336	0.686880	0.000081
1760	1.7502e+02	-9.9222	-44.969655	0.000335	3.345105	1.133352	0.000134
1761	1.7512e+02	-9.8789	-44.876801	0.000233	2.331437	0.789912	0.000093
1762	1.7522e+02	-9.8420	-44.816244	0.000152	1.520502	0.515160	0.000061
1763	1.7532e+02	-9.8035	-44.699167	0.000294	2.939638	0.995976	0.000118
1764	1.7542e+02	-9.7714	-44.578053	0.000304	3.041004	1.030320	0.000122
1765	1.7552e+02	-9.7281	-44.452902	0.000314	3.142371	1.064664	0.000126
1766	1.7562e+02	-9.6783	-44.384270	0.000172	1.723236	0.583848	0.000069
1767	1.7572e+02	-9.6527	-44.271231	0.000284	2.838271	0.961632	0.000114
1768	1.7582e+02	-9.6078	-44.158191	0.000284	2.838271	0.961632	0.000114
1769	1.7592e+02	-9.5709	-44.061299	0.000243	2.432804	0.824256	0.000097
1770	1.7602e+02	-9.5227	-43.952297	0.000274	2.736904	0.927288	0.000110
1771	1.7612e+02	-9.4858	-43.887703	0.000162	1.621869	0.549504	0.000065
1772	1.7621e+02	-9.4361	-43.774663	0.000284	2.838271	0.961632	0.000114
1773	1.7631e+02	-9.4072	-43.661623	0.000284	2.838271	0.961632	0.000114
1774	1.7641e+02	-9.3671	-43.496100	0.000416	4.156039	1.408104	0.000166
1775	1.7651e+02	-9.3270	-43.435543	0.000152	1.520502	0.515160	0.000061
1776	1.7661e+02	-9.2805	-43.366912	0.000172	1.723236	0.583848	0.000069
1777	1.7671e+02	-9.2452	-43.209464	0.000395	3.953306	1.339416	0.000158
1778	1.7681e+02	-9.2051	-43.148907	0.000152	1.520502	0.515160	0.000061
1779	1.7691e+02	-9.1666	-43.003570	0.000365	3.649205	1.236384	0.000146
1780	1.7701e+02	-9.1136	-42.914753	0.000223	2.230070	0.755568	0.000089
1781	1.7711e+02	-9.0928	-42.789602	0.000314	3.142371	1.064664	0.000126
1782	1.7721e+02	-9.0399	-42.660413	0.000324	3.243738	1.099008	0.000130
1783	1.7731e+02	-9.0142	-42.579671	0.000203	2.027336	0.686880	0.000081
1784	1.7741e+02	-8.9628	-42.446445	0.000335	3.345105	1.133352	0.000134
1785	1.7751e+02	-8.9340	-42.377814	0.000172	1.723236	0.583848	0.000069
1786	1.7761e+02	-8.8810	-42.268811	0.000274	2.736904	0.927288	0.000110
1787	1.7771e+02	-8.8393	-42.163846	0.000264	2.635537	0.892944	0.000105
1788	1.7781e+02	-8.7992	-42.111363	0.000132	1.317769	0.446472	0.000053
1789	1.7791e+02	-8.7543	-42.014472	0.000243	2.432804	0.824256	0.000097
1790	1.7801e+02	-8.7190	-41.869135	0.000365	3.649205	1.236384	0.000146
1791	1.7810e+02	-8.6853	-41.719761	0.000375	3.750572	1.270728	0.000150
1792	1.7820e+02	-8.6436	-41.618832	0.000253	2.534170	0.858600	0.000101
1793	1.7830e+02	-8.6131	-41.485607	0.000335	3.345105	1.133352	0.000134
1794	1.7840e+02	-8.5730	-41.396790	0.000223	2.230070	0.755568	0.000089
1795	1.7850e+02	-8.5329	-41.307973	0.000223	2.230070	0.755568	0.000089
1796	1.7860e+02	-8.4912	-41.162636	0.000365	3.649205	1.236384	0.000146
1797	1.7870e+02	-8.4447	-41.065745	0.000243	2.432804	0.824256	0.000097
1798	1.7880e+02	-8.4094	-40.976928	0.000223	2.230070	0.755568	0.000089
1799	1.7890e+02	-8.3725	-40.855814	0.000304	3.041004	1.030320	0.000122
1800	1.7900e+02	-8.3324	-40.758922	0.000243	2.432804	0.824256	0.000097
1801	1.7910e+02	-8.2907	-40.621660	0.000345	3.446472	1.167696	0.000138
1802	1.7920e+02	-8.2425	-40.532843	0.000223	2.230070	0.755568	0.000089
1803	1.7930e+02	-8.2105	-40.419803	0.000284	2.838271	0.961632	0.000114
1804	1.7940e+02	-8.1639	-40.310800	0.000274	2.736904	0.927288	0.000110
1805	1.7950e+02	-8.1254	-40.226020	0.000213	2.128703	0.721224	0.000085
1806	1.7960e+02	-8.0837	-40.088758	0.000345	3.446472	1.167696	0.000138
1807	1.7970e+02	-8.0436	-39.979755	0.000274	2.736904	0.927288	0.000110
1808	1.7980e+02	-8.0115	-39.854604	0.000314	3.142371	1.064664	0.000126
1809	1.7990e+02	-7.9682	-39.745601	0.000274	2.736904	0.927288	0.000110
1810	1.8000e+02	-7.9281	-39.608339	0.000345	3.446472	1.167696	0.000138
1811	1.8009e+02	-7.8832	-39.491262	0.000294	2.939638	0.995976	0.000118
1812	1.8019e+02	-7.8495	-39.378222	0.000284	2.838271	0.961632	0.000114
1813	1.8029e+02	-7.8062	-39.249034	0.000324	3.243738	1.099008	0.000130
1814	1.8039e+02	-7.7709	-39.188477	0.000152	1.520502	0.515160	0.000061
1815	1.8049e+02	-7.7164	-39.063325	0.000314	3.142371	1.064664	0.000126
1816	1.8059e+02	-7.6923	-38.966434	0.000243	2.432804	0.824256	0.000097
1817	1.8069e+02	-7.6538	-38.861469	0.000264	2.635537	0.892944	0.000105
1818	1.8079e+02	-7.6073	-38.695946	0.000416	4.156039	1.408104	0.000166
1819	1.8089e+02	-7.5752	-38.611166	0.000213	2.128703	0.721224	0.000085
1820	1.8099e+02	-7.5335	-38.526386	0.000213	2.128703	0.721224	0.000085
1821	1.8109e+02	-7.4886	-38.465829	0.000152	1.520502	0.515160	0.000061
1822	1.8119e+02	-7.4485	-38.336641	0.000324	3.243738	1.099008	0.000130
1823	1.8129e+02	-7.4164	-38.179193	0.000395	3.953306	1.339416	0.000158
1824	1.8139e+02	-7.3747	-38.050004	0.000324	3.243738	1.099008	0.000130
1825	1.8149e+02	-7.3329	-37.880445	0.000426	4.257406	1.442448	0.000170
1826	1.8159e+02	-7.2912	-37.771442	0.000274	2.736904	0.927288	0.000110
1827	1.8169e+02	-7.2559	-37.650328	0.000304	3.041004	1.030320	0.000122
1828	1.8179e+02	-7.2078	-37.549399	0.000253	2.534170	0.858600	0.000101
1829	1.8189e+02	-7.1789	-37.440397	0.000274	2.736904	0.927288	0.000110
1830	1.8199e+02	-7.1308	-37.371766	0.000172	1.723236	0.583848	0.000069
1831	1.8209e+02	-7.0875	-37.222392	0.000375	3.750572	1.270728	0.000150
1832	1.8218e+02	-7.0442	-37.117426	0.000264	2.635537	0.892944	0.000105
1833	1.8228e+02	-7.0169	-36.984200	0.000335	3.345105	1.133352	0.000134
1834	1.8238e+02	-6.9720	-36.834826	0.000375	3.750572	1.270728	0.000150
1835	1.8248e+02	-6.9239	-36.737935	0.000243	2.432804	0.824256	0.000097
1836	1.8258e+02	-6.8918	-36.632970	0.000264	2.635537	0.892944	0.000105
1837	1.8268e+02	-6.8469	-36.519930	0.000284	2.838271	0.961632	0.000114
1838	1.8278e+02	-6.8068	-36.423039	0.000243	2.432804	0.824256	0.000097
1839	1.8288e+02	-6.7667	-36.301925	0.000304	3.041004	1.030320	0.000122
1840	1.8298e+02	-6.7458	-36.136402	0.000416	4.156039	1.408104	0.000166
1841	1.8308e+02	-6.7009	-35.999139	0.000345	3.446472	1.167696	0.000138
1842	1.8318e+02	-6.6560	-35.882062	0.000294	2.939638	0.995976	0.000118
1843	1.8328e+02	-6.6094	-35.752874	0.000324	3.243738	1.099008	0.000130
1844	1.8338e+02	-6.5758	-35.627723	0.000314	3.142371	1.064664	0.000126
1845	1.8348e+02	-6.5340	-35.506609	0.000304	3.041004	1.030320	0.000122
1846	1.8358e+02	-6.4939	-35.381458	0.000314	3.142371	1.064664	0.000126
1847	1.8368e+02	-6.4506	-35.272455	0.000274	2.736904	0.927288	0.000110
1848	1.8378e+02	-6.4153	-35.115007	0.000395	3.953306	1.339416	0.000158
1849	1.8388e+02	-6.3832	-35.034264	0.000203	2.027336	0.686880	0.000081
1850	1.8398e+02	-6.3351	-34.868741	0.000416	4.156039	1.408104	0.000166
1851	1.8407e+02	-6.2998	-34.816259	0.000132	1.317769	0.446472	0.000053
1852	1.8417e+02	-6.2597	-34.687070	0.000324	3.243738	1.099008	0.000130
1853	1.8427e+02	-6.2116	-34.545771	0.000355	3.547838	1.202040	0.000142
1854	1.8437e+02	-6.1843	-34.436768	0.000274	2.736904	0.927288	0.000110
1855	1.8447e+02	-6.1282	-34.372174	0.000162	1.621869	0.549504	0.000065
1856	1.8457e+02	-6.1025	-34.202614	0.000426	4.257406	1.442448	0.000170
1857	1.8467e+02	-6.0672	-34.033054	0.000426	4.257406	1.442448	0.000170
1858	1.8477e+02	-6.0175	-33.940200	0.000233	2.331437	0.789912	0.000093
1859	1.8487e+02	-5.9694	-33.815049	0.000314	3.142371	1.064664	0.000126
1860	1.8497e+02	-5.9373	-33.665675	0.000375	3.750572	1.270728	0.000150
1861	1.8507e+02	-5.8907	-33.560709	0.000264	2.635537	0.892944	0.000105
1862	1.8517e+02	-5.8651	-33.399224	0.000405	4.054673	1.373760	0.000162
1863	1.8527e+02	-5.8186	-33.282147	0.000294	2.939638	0.995976	0.000118
1864	1.8537e+02	-5.7768	-33.152959	0.000324	3.243738	1.099008	0.000130
1865	1.8547e+02	-5.7432	-33.015696	0.000345	3.446472	1.167696	0.000138
1866	1.8557e+02	-5.7063	-32.878433	0.000345	3.446472	1.167696	0.000138
1867	1.8567e+02	-5.6517	-32.761357	0.000294	2.939638	0.995976	0.000118
1868	1.8577e+02	-5.6164	-32.620057	0.000355	3.547838	1.202040	0.000142
1869	1.8587e+02	-5.5779	-32.527203	0.000233	2.331437	0.789912	0.000093
1870	1.8597e+02	-5.5314	-32.381866	0.000365	3.649205	1.236384	0.000146
1871	1.8606e+02	-5.4977	-32.301123	0.000203	2.027336	0.686880	0.000081
1872	1.8616e+02	-5.4592	-32.151749	0.000375	3.750572	1.270728	0.000150
1873	1.8626e+02	-5.4239	-31.998338	0.000385	3.851939	1.305072	0.000154
1874	1.8636e+02	-5.3886	-31.869150	0.000324	3.243738	1.099008	0.000130
1875	1.8646e+02	-5.3469	-31.752073	0.000294	2.939638	0.995976	0.000118
1876	1.8656e+02	-5.2940	-31.614810	0.000345	3.446472	1.167696	0.000138
1877	1.8666e+02	-5.2539	-31.453325	0.000405	4.054673	1.373760	0.000162
1878	1.8676e+02	-5.2250	-31.360470	0.000233	2.331437	0.789912	0.000093
1879	1.8686e+02	-5.1720	-31.194948	0.000416	4.156039	1.408104	0.000166
1880	1.8696e+02	-5.1319	-31.065760	0.000324	3.243738	1.099008	0.000130
1881	1.8706e+02	-5.0966	-30.964831	0.000253	2.534170	0.858600	0.000101
1882	1.8716e+02	-5.0678	-30.835643	0.000324	3.243738	1.099008	0.000130
1883	1.8726e+02	-5.0309	-30.633786	0.000507	5.068341	1.717200	0.000203
1884	1.8736e+02	-4.9876	-30.549006	0.000213	2.128703	0.721224	0.000085
1885	1.8746e+02	-4.9346	-30.444041	0.000264	2.635537	0.892944	0.000105
1886	1.8756e+02	-4.9025	-30.290629	0.000385	3.851939	1.305072	0.000154
1887	1.8766e+02	-4.8656	-30.149330	0.000355	3.547838	1.202040	0.000142
1888	1.8776e+02	-4.8223	-29.995919	0.000385	3.851939	1.305072	0.000154
1889	1.8786e+02	-4.7822	-29.878842	0.000294	2.939638	0.995976	0.000118
1890	1.8796e+02	-4.7437	-29.705245	0.000436	4.358773	1.476792	0.000174
1891	1.8806e+02	-4.6924	-29.580094	0.000314	3.142371	1.064664	0.000126
1892	1.8815e+02	-4.6683	-29.487239	0.000233	2.331437	0.789912	0.000093
1893	1.8825e+02	-4.6234	-29.382274	0.000264	2.635537	0.892944	0.000105
1894	1.8835e+02	-4.5817	-29.200603	0.000456	4.561507	1.545480	0.000183
1895	1.8845e+02	-4.5368	-29.075452	0.000314	3.142371	1.064664	0.000126
1896	1.8855e+02	-4.5095	-28.926078	0.000375	3.750572	1.270728	0.000150
1897	1.8865e+02	-4.4694	-28.768629	0.000395	3.953306	1.339416	0.000158
1898	1.8875e+02	-4.4116	-28.643478	0.000314	3.142371	1.064664	0.000126
1899	1.8885e+02	-4.3796	-28.502178	0.000355	3.547838	1.202040	0.000142
1900	1.8895e+02	-4.3443	-28.397213	0.000264	2.635537	0.892944	0.000105
1901	1.8905e+02	-4.3138	-28.215542	0.000456	4.561507	1.545480	0.000183
1902	1.8915e+02	-4.2657	-28.102502	0.000284	2.838271	0.961632	0.000114
1903	1.8925e+02	-4.2239	-27.949091	0.000385	3.851939	1.305072	0.000154
1904	1.8935e+02	-4.1919	-27.803754	0.000365	3.649205	1.236384	0.000146
1905	1.8945e+02	-4.1469	-27.626120	0.000446	4.460140	1.511136	0.000179
1906	1.8955e+02	-4.1036	-27.517117	0.000274	2.736904	0.927288	0.000110
1907	1.8965e+02	-4.0715	-27.359669	0.000395	3.953306	1.339416	0.000158
1908	1.8975e+02	-4.0234	-27.230481	0.000324	3.243738	1.099008	0.000130
1909	1.8985e+02	-3.9881	-27.077069	0.000385	3.851939	1.305072	0.000154
1910	1.8995e+02	-3.9448	-26.931733	0.000365	3.649205	1.236384	0.000146
1911	1.9004e+02	-3.9015	-26.790433	0.000355	3.547838	1.202040	0.000142
1912	1.9014e+02	-3.8662	-26.649133	0.000355	3.547838	1.202040	0.000142
1913	1.9024e+02	-3.8309	-26.491685	0.000395	3.953306	1.339416	0.000158
1914	1.9034e+02	-3.7828	-26.342311	0.000375	3.750572	1.270728	0.000150
1915	1.9044e+02	-3.7587	-26.237345	0.000264	2.635537	0.892944	0.000105
1916	1.9054e+02	-3.7122	-26.067785	0.000426	4.257406	1.442448	0.000170
1917	1.9064e+02	-3.6753	-25.914374	0.000385	3.851939	1.305072	0.000154
1918	1.9074e+02	-3.6384	-25.789223	0.000314	3.142371	1.064664	0.000126
1919	1.9084e+02	-3.5839	-25.651960	0.000345	3.446472	1.167696	0.000138
1920	1.9094e+02	-3.5470	-25.494512	0.000395	3.953306	1.339416	0.000158
1921	1.9104e+02	-3.5020	-25.353212	0.000355	3.547838	1.202040	0.000142
1922	1.9114e+02	-3.4603	-25.215950	0.000345	3.446472	1.167696	0.000138
1923	1.9124e+02	-3.4315	-25.098873	0.000294	2.939638	0.995976	0.000118
1924	1.9134e+02	-3.3881	-24.888942	0.000527	5.271074	1.785888	0.000211
1925	1.9144e+02	-3.3448	-24.747642	0.000355	3.547838	1.202040	0.000142
1926	1.9154e+02	-3.3095	-24.646714	0.000253	2.534170	0.858600	0.000101
1927	1.9164e+02	-3.2710	-24.456968	0.000476	4.764240	1.614168	0.000191
1928	1.9174e+02	-3.2309	-24.311631	0.000365	3.649205	1.236384	0.000146
1929	1.9184e+02	-3.1940	-24.174369	0.000345	3.446472	1.167696	0.000138
1930	1.9194e+02	-3.1491	-24.004809	0.000426	4.257406	1.442448	0.000170
1931	1.9203e+02	-3.1042	-23.851398	0.000385	3.851939	1.305072	0.000154
1932	1.9213e+02	-3.0721	-23.718172	0.000335	3.345105	1.133352	0.000134
1933	1.9223e+02	-3.0256	-23.540538	0.000446	4.460140	1.511136	0.000179
1934	1.9233e+02	-2.9919	-23.423462	0.000294	2.939638	0.995976	0.000118
1935	1.9243e+02	-2.9598	-23.245828	0.000446	4.460140	1.511136	0.000179
1936	1.9253e+02	-2.9213	-23.072231	0.000436	4.358773	1.476792	0.000174
1937	1.9263e+02	-2.8716	-22.963228	0.000274	2.736904	0.927288	0.000110
1938	1.9273e+02	-2.8299	-22.797706	0.000416	4.156039	1.408104	0.000166
1939	1.9283e+02	-2.7882	-22.599886	0.000497	4.966974	1.682856	0.000199
1940	1.9293e+02	-2.7416	-22.494920	0.000264	2.635537	0.892944	0.000105
1941	1.9303e+02	-2.7144	-22.305175	0.000476	4.764240	1.614168	0.000191
1942	1.9313e+02	-2.6630	-22.151764	0.000385	3.851939	1.305072	0.000154
1943	1.9323e+02	-2.6390	-22.014501	0.000345	3.446472	1.167696	0.000138
1944	1.9333e+02	-2.5940	-21.901461	0.000284	2.838271	0.961632	0.000114
1945	1.9343e+02	-2.5443	-21.707679	0.000487	4.865607	1.648512	0.000195
1946	1.9353e+02	-2.5154	-21.550231	0.000395	3.953306	1.339416	0.000158
1947	1.9363e+02	-2.4721	-21.348374	0.000507	5.068341	1.717200	0.000203
1948	1.9373e+02	-2.4368	-21.219185	0.000324	3.243738	1.099008	0.000130
1949	1.9383e+02	-2.3935	-21.041551	0.000446	4.460140	1.511136	0.000179
1950	1.9393e+02	-2.3566	-20.888140	0.000385	3.851939	1.305072	0.000154
1951	1.9403e+02	-2.3213	-20.779138	0.000274	2.736904	0.927288	0.000110
1952	1.9412e+02	-2.2796	-20.581318	0.000497	4.966974	1.682856	0.000199
1953	1.9422e+02	-2.2283	-20.395610	0.000466	4.662873	1.579824	0.000187
1954	1.9432e+02	-2.2026	-20.222013	0.000436	4.358773	1.476792	0.000174
1955	1.9442e+02	-2.1481	-20.084750	0.000345	3.446472	1.167696	0.000138
1956	1.9452e+02	-2.1048	-19.955562	0.000324	3.243738	1.099008	0.000130
1957	1.9462e+02	-2.0727	-19.749668	0.000517	5.169708	1.751544	0.000207
1958	1.9472e+02	-2.0310	-19.612405	0.000345	3.446472	1.167696	0.000138
1959	1.9482e+02	-1.9989	-19.434771	0.000446	4.460140	1.511136	0.000179
1960	1.9492e+02	-1.9524	-19.285397	0.000375	3.750572	1.270728	0.000150
1961	1.9502e+02	-1.9155	-19.148135	0.000345	3.446472	1.167696	0.000138
1962	1.9512e+02	-1.8770	-18.942241	0.000517	5.169708	1.751544	0.000207
1963	1.9522e+02	-1.8320	-18.776718	0.000416	4.156039	1.408104	0.000166
1964	1.9532e+02	-1.7903	-18.611196	0.000416	4.156039	1.408104	0.000166
1965	1.9542e+02	-1.7550	-18.453747	0.000395	3.953306	1.339416	0.000158
1966	1.9552e+02	-1.7149	-18.259965	0.000487	4.865607	1.648512	0.000195
1967	1.9562e+02	-1.6828	-18.126739	0.000335	3.345105	1.133352	0.000134
1968	1.9572e+02	-1.6363	-17.945068	0.000456	4.561507	1.545480	0.000183
1969	1.9582e+02	-1.5994	-17.759360	0.000466	4.662873	1.579824	0.000187
1970	1.9592e+02	-1.5689	-17.593838	0.000416	4.156039	1.408104	0.000166
1971	1.9601e+02	-1.5208	-17.396018	0.000497	4.966974	1.682856	0.000199
1972	1.9611e+02	-1.4727	-17.218384	0.000446	4.460140	1.511136	0.000179
1973	1.9621e+02	-1.4342	-17.032676	0.000466	4.662873	1.579824	0.000187
1974	1.9631e+02	-1.3909	-16.899450	0.000335	3.345105	1.133352	0.000134
1975	1.9641e+02	-1.3620	-16.762188	0.000345	3.446472	1.167696	0.000138
1976	1.9651e+02	-1.3123	-16.580516	0.000456	4.561507	1.545480	0.000183
1977	1.9661e+02	-1.2722	-16.394808	0.000466	4.662873	1.579824	0.000187
1978	1.9671e+02	-1.2401	-16.261583	0.000335	3.345105	1.133352	0.000134
1979	1.9681e+02	-1.1952	-16.079912	0.000456	4.561507	1.545480	0.000183
1980	1.9691e+02	-1.1550	-15.886129	0.000487	4.865607	1.648512	0.000195
1981	1.9701e+02	-1.1230	-15.732718	0.000385	3.851939	1.305072	0.000154
1982	1.9711e+02	-1.0748	-15.579307	0.000385	3.851939	1.305072	0.000154
1983	1.9721e+02	-1.0379	-15.353227	0.000568	5.676542	1.923264	0.000227
1984	1.9731e+02	-1.0059	-15.207890	0.000365	3.649205	1.236384	0.000146
1985	1.9741e+02	-0.9625	-15.010071	0.000497	4.966974	1.682856	0.000199
1986	1.9751e+02	-0.9048	-14.868771	0.000355	3.547838	1.202040	0.000142
1987	1.9761e+02	-0.8871	-14.687100	0.000456	4.561507	1.545480	0.000183
1988	1.9771e+02	-0.8390	-14.481206	0.000517	5.169708	1.751544	0.000207
1989	1.9781e+02	-0.8021	-14.295498	0.000466	4.662873	1.579824	0.000187
1990	1.9791e+02	-0.7492	-14.073455	0.000558	5.575175	1.888920	0.000223
1991	1.9800e+02	-0.7123	-13.944267	0.000324	3.243738	1.099008	0.000130
1992	1.9810e+02	-0.6866	-13.794893	0.000375	3.750572	1.270728	0.000150
1993	1.9820e+02	-0.6401	-13.580925	0.000537	5.372441	1.820232	0.000215
1994	1.9830e+02	-0.5984	-13.399254	0.000456	4.561507	1.545480	0.000183
1995	1.9840e+02	-0.5567	-13.217582	0.000456	4.561507	1.545480	0.000183
1996	1.9850e+02	-0.5166	-13.064171	0.000385	3.851939	1.305072	0.000154
1997	1.9860e+02	-0.4845	-12.830017	0.000588	5.879275	1.991952	0.000235
1998	1.9870e+02	-0.4364	-12.652383	0.000446	4.460140	1.511136	0.000179
1999	1.9880e+02	-0.4091	-12.482824	0.000426	4.257406	1.442448	0.000170
2000	1.9890e+02	-0.3529	-12.321338	0.000405	4.054673	1.373760	0.000162
2001	1.9900e+02	-0.3225	-12.135630	0.000466	4.662873	1.579824	0.000187
2002	1.9910e+02	-0.2952	-11.925699	0.000527	5.271074	1.785888	0.000211
2003	1.9920e+02	-0.2454	-11.772288	0.000385	3.851939	1.305072	0.000154
2004	1.9930e+02	-0.2037	-11.562357	0.000527	5.271074	1.785888	0.000211
2005	1.9940e+02	-0.1604	-11.408946	0.000385	3.851939	1.305072	0.000154
2006	1.9950e+02	-0.1187	-11.186903	0.000558	5.575175	1.888920	0.000223
2007	1.9960e+02	-0.0834	-11.029455	0.000395	3.953306	1.339416	0.000158
2008	1.9970e+02	-0.0385	-10.819524	0.000527	5.271074	1.785888	0.000211
2009	1.9980e+02	-0.0064	-10.629778	0.000527	5.271074	1.785888	0.000191

Center data before PMax,+/-Pr and +/-Vc Calc.

PMax (uC/cm2):	6.41e+01
Pr (uC/cm2):	5.90e+00
-Pr (uC/cm2):	-1.06e+01
PLoss (uC/cm2):	-9.28e+00
Vc:	2.98e-01
-Vc:	-1.30e+00
C (Max-Eff) (nF):	3.21e-01
K (Eff):	1.09e+03
Vert. (+/-Pr) Shift (uC/cm2):	-2.36e+00
Horiz. Shift (+/-Vc):	-5.00e-01
Offset (uC/cm2):	1.29e+00

A (Loop Area - uC/cm2·Volts):	-3.08e-03



Hysteresis Version: 5.48.1 - Radiant Technologies, Inc., 1999 - 9/12/24

