»»»»»»»»»»»»»»»»»»»»»»»»»»»»»»»»»»»» Hysteresis ««««««««««««««««««««««««««««««««««««
»»»  Executed Version:	5.48.1
»»»  Vision Version:	5.48.4 (R)
»»»  Vision Compiled:	9/18/24
»»»  Driver Version:	5.47.0
»»»  Windows Version:	Windows 8 or 8.1
»»»  Processor Information:	x86 (AMD or Intel) - 32 Processors
»»»  Tester Name:	PMF21124-494 (100V)
»»»  Tester S/N:	PMF21124-494
»»»  Internal Amp Type:	100V RevK 270k
»»»  Internal Amp S/N:	iAB2-596/K     
»»»  Execution Count:	1
»»»»»»»»»»»»»»»»»»»»»»»»»»»»»»»»»»»»»»»»»»««««««««««««««««««««««««««««««««««««««««««

Stored:	6/12/2025 - 10:58:48
Configured:	06/12/25 10:06:17 AM
Executed:	06/12/25 10:58:13 AM

»»»»»»»»»»»»»»»»»»»»»»»»»»»»»»»»»»» Sample Info ««««««««««««««««««««««««««««««««««««
Sample Name:	
Lot Name:	
Wafer Name:	
Die Row/Column:	0/0
Capacitor Number:	0
Sample Area (cm2):	1.00e-04
Sample Thickness (microns):	3.00e-01

Amplifier:	Internal

»»»»»»»»»»»»»»»»»»»»»»»»»»»»»»»»»»» Tester Info «««««««««««««««««««««««««««««««««««
Tester Name:	PMF21124-494 (100V)
Tester Serial Number:	PMF21124-494
Return Signal Amp. Level:	0.19 [Index: 3]

»»»»»»»»»»»»»»»»»»»»»»»»»»»»»»»» Hysteresis Info ««««««««««««««««««««««««««««««««««
Task Name:	Hyst-1390
Volts:	20.00
Field:	666.67 (kV/cm)
DCBias:	0.00
DCField:	0.00 (kV/cm)
Hysteresis Period (ms):	2.00e+02
Preset:	Enabled
Preset Delay (ms):	1.00e+03
Profile:	Standard Bipolar

»»»»»»»»»»»»»»»»»»»»»»»»»»»»»»»»»»»»»» Data «««««««««««««««««««««««««««««««««««««««
Points:	2009

Valid Data

Point	Time (ms)	Drive Voltage	Measured Polarization (uC/cm2)	Capacitance (uF)	Normalized Capacitance (uF/cm2)	Dielectric Constant	Instantaneous Current (mA)
   1	0.0000e+00	0.0080	-4.773913	0.000334	3.344635	1.133193	0.000134
   2	9.9500e-02	0.0289	-4.640688	0.000334	3.344635	1.133193	0.000134
   3	1.9900e-01	0.0626	-4.414608	0.000568	5.675745	1.922994	0.000227
   4	2.9850e-01	0.1075	-4.220825	0.000486	4.864924	1.648281	0.000195
   5	3.9800e-01	0.1444	-3.914003	0.000770	7.702796	2.609778	0.000308
   6	4.9750e-01	0.1877	-3.720221	0.000486	4.864924	1.648281	0.000195
   7	5.9700e-01	0.2342	-3.473955	0.000618	6.182508	2.094690	0.000248
   8	6.9650e-01	0.2663	-3.268061	0.000517	5.168982	1.751298	0.000207
   9	7.9600e-01	0.3080	-3.021796	0.000618	6.182508	2.094690	0.000248
  10	8.9550e-01	0.3465	-2.803791	0.000547	5.473039	1.854316	0.000219
  11	9.9500e-01	0.3914	-2.553488	0.000628	6.283860	2.129029	0.000252
  12	1.0945e+00	0.4187	-2.278963	0.000689	6.891976	2.335065	0.000276
  13	1.1940e+00	0.4652	-2.081143	0.000497	4.966277	1.682620	0.000199
  14	1.2935e+00	0.5134	-1.838915	0.000608	6.081155	2.060351	0.000243
  15	1.3930e+00	0.5438	-1.600724	0.000598	5.979802	2.026012	0.000239
  16	1.4925e+00	0.5807	-1.330236	0.000679	6.790623	2.300725	0.000272
  17	1.5920e+00	0.6289	-1.083971	0.000618	6.182508	2.094690	0.000248
  18	1.6915e+00	0.6658	-0.853854	0.000578	5.777097	1.957334	0.000231
  19	1.7910e+00	0.7107	-0.623737	0.000578	5.777097	1.957334	0.000231
  20	1.8905e+00	0.7508	-0.405732	0.000547	5.473039	1.854316	0.000219
  21	1.9900e+00	0.7925	-0.143318	0.000659	6.587918	2.232047	0.000264
  22	2.0895e+00	0.8278	0.074687	0.000547	5.473039	1.854316	0.000219
  23	2.1890e+00	0.8727	0.308841	0.000588	5.878450	1.991673	0.000235
  24	2.2885e+00	0.9080	0.587403	0.000699	6.993328	2.369404	0.000280
  25	2.3880e+00	0.9449	0.789260	0.000507	5.067629	1.716959	0.000203
  26	2.4875e+00	0.9818	1.079934	0.000730	7.297386	2.472421	0.000292
  27	2.5870e+00	1.0299	1.273716	0.000486	4.864924	1.648281	0.000195
  28	2.6865e+00	1.0572	1.528056	0.000639	6.385213	2.163369	0.000256
  29	2.7860e+00	1.1005	1.826804	0.000750	7.500091	2.541100	0.000300
  30	2.8855e+00	1.1599	2.008475	0.000456	4.560866	1.545263	0.000183
  31	2.9850e+00	1.1887	2.234555	0.000568	5.675745	1.922994	0.000227
  32	3.0845e+00	1.2288	2.501006	0.000669	6.689270	2.266386	0.000268
  33	3.1840e+00	1.2641	2.714974	0.000537	5.371687	1.819977	0.000215
  34	3.2835e+00	1.3074	2.969313	0.000639	6.385213	2.163369	0.000256
  35	3.3830e+00	1.3524	3.239801	0.000679	6.790623	2.300725	0.000272
  36	3.4825e+00	1.3845	3.453770	0.000537	5.371687	1.819977	0.000215
  37	3.5820e+00	1.4230	3.700035	0.000618	6.182508	2.094690	0.000248
  38	3.6815e+00	1.4743	3.966486	0.000669	6.689270	2.266386	0.000268
  39	3.7810e+00	1.5016	4.192565	0.000568	5.675745	1.922994	0.000227
  40	3.8805e+00	1.5545	4.422682	0.000578	5.777097	1.957334	0.000231
  41	3.9800e+00	1.5770	4.648762	0.000568	5.675745	1.922994	0.000227
  42	4.0795e+00	1.6155	4.903101	0.000639	6.385213	2.163369	0.000256
  43	4.1790e+00	1.6684	5.125144	0.000557	5.574392	1.888655	0.000223
  44	4.2785e+00	1.7069	5.391595	0.000669	6.689270	2.266386	0.000268
  45	4.3780e+00	1.7518	5.633823	0.000608	6.081155	2.060351	0.000243
  46	4.4775e+00	1.7807	5.872014	0.000598	5.979802	2.026012	0.000239
  47	4.5770e+00	1.8240	6.081945	0.000527	5.270334	1.785638	0.000211
  48	4.6765e+00	1.8609	6.364544	0.000709	7.094681	2.403743	0.000284
  49	4.7760e+00	1.8930	6.586587	0.000557	5.574392	1.888655	0.000223
  50	4.8755e+00	1.9411	6.800555	0.000537	5.371687	1.819977	0.000215
  51	4.9750e+00	1.9796	7.071043	0.000679	6.790623	2.300725	0.000272
  52	5.0745e+00	2.0245	7.272900	0.000507	5.067629	1.716959	0.000203
  53	5.1740e+00	2.0598	7.543388	0.000679	6.790623	2.300725	0.000272
  54	5.2735e+00	2.0999	7.785616	0.000608	6.081155	2.060351	0.000243
  55	5.3730e+00	2.1384	8.007659	0.000557	5.574392	1.888655	0.000223
  56	5.4725e+00	2.1898	8.266035	0.000649	6.486565	2.197708	0.000260
  57	5.5720e+00	2.2283	8.480004	0.000537	5.371687	1.819977	0.000215
  58	5.6715e+00	2.2620	8.730306	0.000628	6.283860	2.129029	0.000252
  59	5.7710e+00	2.2989	8.952348	0.000557	5.574392	1.888655	0.000223
  60	5.8705e+00	2.3502	9.174391	0.000557	5.574392	1.888655	0.000223
  61	5.9700e+00	2.3759	9.400471	0.000568	5.675745	1.922994	0.000227
  62	6.0695e+00	2.4176	9.674996	0.000689	6.891976	2.335065	0.000276
  63	6.1690e+00	2.4593	9.856667	0.000456	4.560866	1.545263	0.000183
  64	6.2685e+00	2.4994	10.115044	0.000649	6.486565	2.197708	0.000260
  65	6.3680e+00	2.5443	10.333049	0.000547	5.473039	1.854316	0.000219
  66	6.4675e+00	2.5860	10.575277	0.000608	6.081155	2.060351	0.000243
  67	6.5670e+00	2.6165	10.813468	0.000598	5.979802	2.026012	0.000239
  68	6.6665e+00	2.6566	11.031473	0.000547	5.473039	1.854316	0.000219
  69	6.7660e+00	2.6967	11.269664	0.000598	5.979802	2.026012	0.000239
  70	6.8655e+00	2.7448	11.483633	0.000537	5.371687	1.819977	0.000215
  71	6.9650e+00	2.7705	11.737972	0.000639	6.385213	2.163369	0.000256
  72	7.0645e+00	2.8251	11.951940	0.000537	5.371687	1.819977	0.000215
  73	7.1640e+00	2.8620	12.202243	0.000628	6.283860	2.129029	0.000252
  74	7.2635e+00	2.9053	12.400062	0.000497	4.966277	1.682620	0.000199
  75	7.3630e+00	2.9309	12.670551	0.000679	6.790623	2.300725	0.000272
  76	7.4625e+00	2.9759	12.880482	0.000527	5.270334	1.785638	0.000211
  77	7.5620e+00	3.0111	13.086375	0.000517	5.168982	1.751298	0.000207
  78	7.6615e+00	3.0577	13.296307	0.000527	5.270334	1.785638	0.000211
  79	7.7610e+00	3.1074	13.578906	0.000709	7.094681	2.403743	0.000284
  80	7.8605e+00	3.1427	13.825171	0.000618	6.182508	2.094690	0.000248
  81	7.9600e+00	3.1844	13.998768	0.000436	4.358161	1.476585	0.000174
  82	8.0595e+00	3.2197	14.224848	0.000568	5.675745	1.922994	0.000227
  83	8.1590e+00	3.2582	14.479187	0.000639	6.385213	2.163369	0.000256
  84	8.2585e+00	3.3111	14.713341	0.000588	5.878450	1.991673	0.000235
  85	8.3580e+00	3.3288	14.907124	0.000486	4.864924	1.648281	0.000195
  86	8.4575e+00	3.3737	15.149352	0.000608	6.081155	2.060351	0.000243
  87	8.5570e+00	3.4170	15.379469	0.000578	5.777097	1.957334	0.000231
  88	8.6565e+00	3.4603	15.581325	0.000507	5.067629	1.716959	0.000203
  89	8.7560e+00	3.5004	15.811442	0.000578	5.777097	1.957334	0.000231
  90	8.8555e+00	3.5470	16.025410	0.000537	5.371687	1.819977	0.000215
  91	8.9550e+00	3.5887	16.271676	0.000618	6.182508	2.094690	0.000248
  92	9.0545e+00	3.6127	16.461421	0.000476	4.763571	1.613942	0.000191
  93	9.1540e+00	3.6625	16.699612	0.000598	5.979802	2.026012	0.000239
  94	9.2535e+00	3.6994	16.881283	0.000456	4.560866	1.545263	0.000183
  95	9.3530e+00	3.7411	17.131586	0.000628	6.283860	2.129029	0.000252
  96	9.4525e+00	3.7667	17.357665	0.000568	5.675745	1.922994	0.000227
  97	9.5520e+00	3.8229	17.559522	0.000507	5.067629	1.716959	0.000203
  98	9.6515e+00	3.8582	17.801750	0.000608	6.081155	2.060351	0.000243
  99	9.7510e+00	3.8919	18.056090	0.000639	6.385213	2.163369	0.000256
 100	9.8505e+00	3.9336	18.237761	0.000456	4.560866	1.545263	0.000183
 101	9.9500e+00	3.9801	18.459803	0.000557	5.574392	1.888655	0.000223
 102	1.0050e+01	4.0122	18.673771	0.000537	5.371687	1.819977	0.000215
 103	1.0149e+01	4.0587	18.916000	0.000608	6.081155	2.060351	0.000243
 104	1.0248e+01	4.1004	19.105745	0.000476	4.763571	1.613942	0.000191
 105	1.0348e+01	4.1261	19.331824	0.000568	5.675745	1.922994	0.000227
 106	1.0447e+01	4.1710	19.517533	0.000466	4.662219	1.579602	0.000187
 107	1.0547e+01	4.2111	19.739575	0.000557	5.574392	1.888655	0.000223
 108	1.0646e+01	4.2608	19.981803	0.000608	6.081155	2.060351	0.000243
 109	1.0746e+01	4.2881	20.191734	0.000527	5.270334	1.785638	0.000211
 110	1.0845e+01	4.3427	20.417814	0.000568	5.675745	1.922994	0.000227
 111	1.0945e+01	4.3683	20.591411	0.000436	4.358161	1.476585	0.000174
 112	1.1044e+01	4.4197	20.785193	0.000486	4.864924	1.648281	0.000195
 113	1.1144e+01	4.4566	21.015310	0.000578	5.777097	1.957334	0.000231
 114	1.1243e+01	4.4951	21.245427	0.000578	5.777097	1.957334	0.000231
 115	1.1343e+01	4.5287	21.443246	0.000497	4.966277	1.682620	0.000199
 116	1.1443e+01	4.5785	21.653178	0.000527	5.270334	1.785638	0.000211
 117	1.1542e+01	4.6106	21.871183	0.000547	5.473039	1.854316	0.000219
 118	1.1642e+01	4.6539	22.048817	0.000446	4.459514	1.510924	0.000179
 119	1.1741e+01	4.6972	22.250674	0.000507	5.067629	1.716959	0.000203
 120	1.1841e+01	4.7229	22.456568	0.000517	5.168982	1.751298	0.000207
 121	1.1940e+01	4.7694	22.694759	0.000598	5.979802	2.026012	0.000239
 122	1.2040e+01	4.8207	22.888541	0.000486	4.864924	1.648281	0.000195
 123	1.2139e+01	4.8480	23.086361	0.000497	4.966277	1.682620	0.000199
 124	1.2239e+01	4.8993	23.304366	0.000547	5.473039	1.854316	0.000219
 125	1.2338e+01	4.9250	23.477963	0.000436	4.358161	1.476585	0.000174
 126	1.2438e+01	4.9747	23.700005	0.000557	5.574392	1.888655	0.000223
 127	1.2537e+01	5.0100	23.913974	0.000537	5.371687	1.819977	0.000215
 128	1.2636e+01	5.0469	24.099682	0.000466	4.662219	1.579602	0.000187
 129	1.2736e+01	5.0999	24.313650	0.000537	5.371687	1.819977	0.000215
 130	1.2835e+01	5.1287	24.499358	0.000466	4.662219	1.579602	0.000187
 131	1.2935e+01	5.1656	24.701215	0.000507	5.067629	1.716959	0.000203
 132	1.3034e+01	5.2170	24.907109	0.000517	5.168982	1.751298	0.000207
 133	1.3134e+01	5.2507	25.117040	0.000527	5.270334	1.785638	0.000211
 134	1.3233e+01	5.2940	25.347157	0.000578	5.777097	1.957334	0.000231
 135	1.3333e+01	5.3325	25.557088	0.000527	5.270334	1.785638	0.000211
 136	1.3432e+01	5.3662	25.730685	0.000436	4.358161	1.476585	0.000174
 137	1.3532e+01	5.4143	25.944653	0.000537	5.371687	1.819977	0.000215
 138	1.3632e+01	5.4416	26.110175	0.000416	4.155456	1.407907	0.000166
 139	1.3731e+01	5.4977	26.312032	0.000507	5.067629	1.716959	0.000203
 140	1.3831e+01	5.5314	26.517926	0.000517	5.168982	1.751298	0.000207
 141	1.3930e+01	5.5779	26.703634	0.000466	4.662219	1.579602	0.000187
 142	1.4030e+01	5.6084	26.905491	0.000507	5.067629	1.716959	0.000203
 143	1.4129e+01	5.6485	27.083125	0.000446	4.459514	1.510924	0.000179
 144	1.4229e+01	5.6918	27.284982	0.000507	5.067629	1.716959	0.000203
 145	1.4328e+01	5.7319	27.494913	0.000527	5.270334	1.785638	0.000211
 146	1.4428e+01	5.7768	27.680621	0.000466	4.662219	1.579602	0.000187
 147	1.4527e+01	5.8186	27.870367	0.000476	4.763571	1.613942	0.000191
 148	1.4627e+01	5.8522	28.056075	0.000466	4.662219	1.579602	0.000187
 149	1.4726e+01	5.8859	28.282154	0.000568	5.675745	1.922994	0.000227
 150	1.4825e+01	5.9341	28.492085	0.000527	5.270334	1.785638	0.000211
 151	1.4925e+01	5.9661	28.645497	0.000385	3.851398	1.304889	0.000154
 152	1.5024e+01	6.0079	28.835242	0.000476	4.763571	1.613942	0.000191
 153	1.5124e+01	6.0528	29.089582	0.000639	6.385213	2.163369	0.000256
 154	1.5223e+01	6.0897	29.242993	0.000385	3.851398	1.304889	0.000154
 155	1.5323e+01	6.1362	29.452924	0.000527	5.270334	1.785638	0.000211
 156	1.5422e+01	6.1683	29.610372	0.000395	3.952751	1.339228	0.000158
 157	1.5522e+01	6.2132	29.804155	0.000486	4.864924	1.648281	0.000195
 158	1.5621e+01	6.2373	30.006011	0.000507	5.067629	1.716959	0.000203
 159	1.5721e+01	6.2886	30.191720	0.000466	4.662219	1.579602	0.000187
 160	1.5820e+01	6.3383	30.369354	0.000446	4.459514	1.510924	0.000179
 161	1.5920e+01	6.3688	30.563136	0.000486	4.864924	1.648281	0.000195
 162	1.6020e+01	6.4009	30.756919	0.000486	4.864924	1.648281	0.000195
 163	1.6119e+01	6.4522	30.946664	0.000476	4.763571	1.613942	0.000191
 164	1.6218e+01	6.4843	31.116224	0.000426	4.256808	1.442246	0.000170
 165	1.6318e+01	6.5244	31.322118	0.000517	5.168982	1.751298	0.000207
 166	1.6418e+01	6.5613	31.511863	0.000476	4.763571	1.613942	0.000191
 167	1.6517e+01	6.6046	31.693534	0.000456	4.560866	1.545263	0.000183
 168	1.6616e+01	6.6383	31.871168	0.000446	4.459514	1.510924	0.000179
 169	1.6716e+01	6.6832	32.016505	0.000365	3.648693	1.236211	0.000146
 170	1.6816e+01	6.7282	32.214325	0.000497	4.966277	1.682620	0.000199
 171	1.6915e+01	6.7683	32.424256	0.000527	5.270334	1.785638	0.000211
 172	1.7015e+01	6.8052	32.585741	0.000405	4.054103	1.373567	0.000162
 173	1.7114e+01	6.8404	32.763375	0.000446	4.459514	1.510924	0.000179
 174	1.7213e+01	6.8822	32.941009	0.000446	4.459514	1.510924	0.000179
 175	1.7313e+01	6.9191	33.154977	0.000537	5.371687	1.819977	0.000215
 176	1.7413e+01	6.9656	33.284166	0.000324	3.243283	1.098854	0.000130
 177	1.7512e+01	6.9993	33.510245	0.000568	5.675745	1.922994	0.000227
 178	1.7611e+01	7.0458	33.651545	0.000355	3.547340	1.201871	0.000142
 179	1.7711e+01	7.0859	33.821105	0.000426	4.256808	1.442246	0.000170
 180	1.7811e+01	7.1244	34.047184	0.000568	5.675745	1.922994	0.000227
 181	1.7910e+01	7.1661	34.216744	0.000426	4.256808	1.442246	0.000170
 182	1.8009e+01	7.1998	34.370155	0.000385	3.851398	1.304889	0.000154
 183	1.8109e+01	7.2415	34.572012	0.000507	5.067629	1.716959	0.000203
 184	1.8209e+01	7.2816	34.733497	0.000405	4.054103	1.373567	0.000162
 185	1.8308e+01	7.3233	34.967651	0.000588	5.878450	1.991673	0.000235
 186	1.8407e+01	7.3666	35.133174	0.000416	4.155456	1.407907	0.000166
 187	1.8507e+01	7.4035	35.286585	0.000385	3.851398	1.304889	0.000154
 188	1.8607e+01	7.4420	35.444033	0.000395	3.952751	1.339228	0.000158
 189	1.8706e+01	7.4854	35.641853	0.000497	4.966277	1.682620	0.000199
 190	1.8805e+01	7.5239	35.807375	0.000416	4.155456	1.407907	0.000166
 191	1.8905e+01	7.5624	36.009232	0.000507	5.067629	1.716959	0.000203
 192	1.9005e+01	7.5976	36.170718	0.000405	4.054103	1.373567	0.000162
 193	1.9104e+01	7.6410	36.344314	0.000436	4.358161	1.476585	0.000174
 194	1.9203e+01	7.6843	36.542134	0.000497	4.966277	1.682620	0.000199
 195	1.9303e+01	7.7244	36.719768	0.000446	4.459514	1.510924	0.000179
 196	1.9402e+01	7.7565	36.897402	0.000446	4.459514	1.510924	0.000179
 197	1.9502e+01	7.7998	37.058888	0.000405	4.054103	1.373567	0.000162
 198	1.9602e+01	7.8559	37.224410	0.000416	4.155456	1.407907	0.000166
 199	1.9701e+01	7.8912	37.426267	0.000507	5.067629	1.716959	0.000203
 200	1.9800e+01	7.9169	37.571604	0.000365	3.648693	1.236211	0.000146
 201	1.9900e+01	7.9634	37.777498	0.000517	5.168982	1.751298	0.000207
 202	2.0000e+01	7.9987	37.918797	0.000355	3.547340	1.201871	0.000142
 203	2.0099e+01	8.0420	38.128728	0.000527	5.270334	1.785638	0.000211
 204	2.0198e+01	8.0661	38.241768	0.000284	2.837872	0.961497	0.000114
 205	2.0298e+01	8.1126	38.475922	0.000588	5.878450	1.991673	0.000235
 206	2.0398e+01	8.1575	38.621259	0.000365	3.648693	1.236211	0.000146
 207	2.0497e+01	8.1960	38.794856	0.000436	4.358161	1.476585	0.000174
 208	2.0596e+01	8.2345	38.968453	0.000436	4.358161	1.476585	0.000174
 209	2.0696e+01	8.2810	39.129938	0.000405	4.054103	1.373567	0.000162
 210	2.0796e+01	8.3115	39.299498	0.000426	4.256808	1.442246	0.000170
 211	2.0895e+01	8.3645	39.501355	0.000507	5.067629	1.716959	0.000203
 212	2.0994e+01	8.3998	39.630543	0.000324	3.243283	1.098854	0.000130
 213	2.1094e+01	8.4415	39.808177	0.000446	4.459514	1.510924	0.000179
 214	2.1194e+01	8.4896	39.973700	0.000416	4.155456	1.407907	0.000166
 215	2.1293e+01	8.5121	40.167482	0.000486	4.864924	1.648281	0.000195
 216	2.1392e+01	8.5554	40.357227	0.000476	4.763571	1.613942	0.000191
 217	2.1492e+01	8.5907	40.510639	0.000385	3.851398	1.304889	0.000154
 218	2.1591e+01	8.6452	40.684235	0.000436	4.358161	1.476585	0.000174
 219	2.1691e+01	8.6757	40.825535	0.000355	3.547340	1.201871	0.000142
 220	2.1791e+01	8.7222	41.011243	0.000466	4.662219	1.579602	0.000187
 221	2.1890e+01	8.7607	41.188877	0.000446	4.459514	1.510924	0.000179
 222	2.1989e+01	8.8008	41.338251	0.000375	3.750046	1.270550	0.000150
 223	2.2089e+01	8.8313	41.523960	0.000466	4.662219	1.579602	0.000187
 224	2.2189e+01	8.8810	41.709668	0.000466	4.662219	1.579602	0.000187
 225	2.2288e+01	8.9195	41.891339	0.000456	4.560866	1.545263	0.000183
 226	2.2387e+01	8.9532	42.040713	0.000375	3.750046	1.270550	0.000150
 227	2.2487e+01	8.9917	42.157790	0.000294	2.939225	0.995836	0.000118
 228	2.2587e+01	9.0350	42.319275	0.000405	4.054103	1.373567	0.000162
 229	2.2686e+01	9.0751	42.500946	0.000456	4.560866	1.545263	0.000183
 230	2.2785e+01	9.1169	42.690692	0.000476	4.763571	1.613942	0.000191
 231	2.2885e+01	9.1521	42.795657	0.000264	2.635167	0.892819	0.000105
 232	2.2985e+01	9.1971	42.997514	0.000507	5.067629	1.716959	0.000203
 233	2.3084e+01	9.2275	43.150925	0.000385	3.851398	1.304889	0.000154
 234	2.3183e+01	9.2741	43.320485	0.000426	4.256808	1.442246	0.000170
 235	2.3283e+01	9.3126	43.522342	0.000507	5.067629	1.716959	0.000203
 236	2.3383e+01	9.3591	43.683827	0.000405	4.054103	1.373567	0.000162
 237	2.3482e+01	9.4072	43.833201	0.000375	3.750046	1.270550	0.000150
 238	2.3581e+01	9.4377	43.978538	0.000365	3.648693	1.236211	0.000146
 239	2.3681e+01	9.4810	44.148098	0.000426	4.256808	1.442246	0.000170
 240	2.3780e+01	9.5227	44.301509	0.000385	3.851398	1.304889	0.000154
 241	2.3880e+01	9.5548	44.503366	0.000507	5.067629	1.716959	0.000203
 242	2.3980e+01	9.5981	44.648703	0.000365	3.648693	1.236211	0.000146
 243	2.4079e+01	9.6366	44.818262	0.000426	4.256808	1.442246	0.000170
 244	2.4178e+01	9.6687	44.983785	0.000416	4.155456	1.407907	0.000166
 245	2.4278e+01	9.7120	45.149308	0.000416	4.155456	1.407907	0.000166
 246	2.4378e+01	9.7505	45.282533	0.000334	3.344635	1.133193	0.000134
 247	2.4477e+01	9.7890	45.472278	0.000476	4.763571	1.613942	0.000191
 248	2.4576e+01	9.8307	45.645875	0.000436	4.358161	1.476585	0.000174
 249	2.4676e+01	9.8708	45.807361	0.000405	4.054103	1.373567	0.000162
 250	2.4776e+01	9.9142	45.976920	0.000426	4.256808	1.442246	0.000170
 251	2.4875e+01	9.9478	46.142443	0.000416	4.155456	1.407907	0.000166
 252	2.4974e+01	9.9992	46.259520	0.000294	2.939225	0.995836	0.000118
 253	2.5074e+01	10.0329	46.465414	0.000517	5.168982	1.751298	0.000207
 254	2.5174e+01	10.0666	46.606714	0.000355	3.547340	1.201871	0.000142
 255	2.5273e+01	10.1019	46.796459	0.000476	4.763571	1.613942	0.000191
 256	2.5372e+01	10.1532	46.945833	0.000375	3.750046	1.270550	0.000150
 257	2.5472e+01	10.1965	47.099244	0.000385	3.851398	1.304889	0.000154
 258	2.5572e+01	10.2366	47.276878	0.000446	4.459514	1.510924	0.000179
 259	2.5671e+01	10.2703	47.458549	0.000456	4.560866	1.545263	0.000183
 260	2.5770e+01	10.3152	47.599849	0.000355	3.547340	1.201871	0.000142
 261	2.5870e+01	10.3569	47.729037	0.000324	3.243283	1.098854	0.000130
 262	2.5970e+01	10.3890	47.930894	0.000507	5.067629	1.716959	0.000203
 263	2.6069e+01	10.4275	48.080268	0.000375	3.750046	1.270550	0.000150
 264	2.6169e+01	10.4740	48.237716	0.000395	3.952751	1.339228	0.000158
 265	2.6268e+01	10.5077	48.411313	0.000436	4.358161	1.476585	0.000174
 266	2.6367e+01	10.5494	48.548576	0.000345	3.445988	1.167532	0.000138
 267	2.6467e+01	10.5847	48.738321	0.000476	4.763571	1.613942	0.000191
 268	2.6567e+01	10.6264	48.924029	0.000466	4.662219	1.579602	0.000187
 269	2.6666e+01	10.6778	49.073403	0.000375	3.750046	1.270550	0.000150
 270	2.6765e+01	10.7115	49.182406	0.000274	2.736520	0.927158	0.000110
 271	2.6865e+01	10.7548	49.339854	0.000395	3.952751	1.339228	0.000158
 272	2.6965e+01	10.7885	49.501340	0.000405	4.054103	1.373567	0.000162
 273	2.7064e+01	10.8206	49.638602	0.000345	3.445988	1.167532	0.000138
 274	2.7163e+01	10.8655	49.852571	0.000537	5.371687	1.819977	0.000215
 275	2.7263e+01	10.9120	49.981759	0.000324	3.243283	1.098854	0.000130
 276	2.7363e+01	10.9553	50.167467	0.000466	4.662219	1.579602	0.000187
 277	2.7462e+01	10.9890	50.300693	0.000334	3.344635	1.133193	0.000134
 278	2.7561e+01	11.0259	50.429881	0.000324	3.243283	1.098854	0.000130
 279	2.7661e+01	11.0628	50.623664	0.000486	4.864924	1.648281	0.000195
 280	2.7761e+01	11.1173	50.777075	0.000385	3.851398	1.304889	0.000154
 281	2.7860e+01	11.1526	50.894152	0.000294	2.939225	0.995836	0.000118
 282	2.7959e+01	11.1911	51.079860	0.000466	4.662219	1.579602	0.000187
 283	2.8059e+01	11.2248	51.241345	0.000405	4.054103	1.373567	0.000162
 284	2.8159e+01	11.2729	51.390719	0.000375	3.750046	1.270550	0.000150
 285	2.8258e+01	11.3082	51.604688	0.000537	5.371687	1.819977	0.000215
 286	2.8358e+01	11.3548	51.705616	0.000253	2.533815	0.858480	0.000101
 287	2.8457e+01	11.3917	51.838841	0.000334	3.344635	1.133193	0.000134
 288	2.8556e+01	11.4302	52.028587	0.000476	4.763571	1.613942	0.000191
 289	2.8656e+01	11.4735	52.181998	0.000385	3.851398	1.304889	0.000154
 290	2.8756e+01	11.5088	52.327335	0.000365	3.648693	1.236211	0.000146
 291	2.8855e+01	11.5473	52.496895	0.000426	4.256808	1.442246	0.000170
 292	2.8954e+01	11.5842	52.593786	0.000243	2.432462	0.824140	0.000097
 293	2.9054e+01	11.6291	52.763346	0.000426	4.256808	1.442246	0.000170
 294	2.9154e+01	11.6692	52.924831	0.000405	4.054103	1.373567	0.000162
 295	2.9253e+01	11.7141	53.074205	0.000375	3.750046	1.270550	0.000150
 296	2.9352e+01	11.7414	53.227616	0.000385	3.851398	1.304889	0.000154
 297	2.9452e+01	11.7831	53.417362	0.000476	4.763571	1.613942	0.000191
 298	2.9552e+01	11.8344	53.550587	0.000334	3.344635	1.133193	0.000134
 299	2.9651e+01	11.8585	53.720147	0.000426	4.256808	1.442246	0.000170
 300	2.9750e+01	11.9034	53.861446	0.000355	3.547340	1.201871	0.000142
 301	2.9850e+01	11.9531	54.039080	0.000446	4.459514	1.510924	0.000179
 302	2.9950e+01	11.9932	54.168269	0.000324	3.243283	1.098854	0.000130
 303	3.0049e+01	12.0334	54.301494	0.000334	3.344635	1.133193	0.000134
 304	3.0148e+01	12.0542	54.458943	0.000395	3.952751	1.339228	0.000158
 305	3.0248e+01	12.1023	54.588131	0.000324	3.243283	1.098854	0.000130
 306	3.0348e+01	12.1537	54.761728	0.000436	4.358161	1.476585	0.000174
 307	3.0447e+01	12.1809	54.903027	0.000355	3.547340	1.201871	0.000142
 308	3.0547e+01	12.2307	55.072587	0.000426	4.256808	1.442246	0.000170
 309	3.0646e+01	12.2692	55.189664	0.000294	2.939225	0.995836	0.000118
 310	3.0745e+01	12.3013	55.318852	0.000324	3.243283	1.098854	0.000130
 311	3.0845e+01	12.3478	55.520709	0.000507	5.067629	1.716959	0.000203
 312	3.0945e+01	12.3799	55.645860	0.000314	3.141930	1.064515	0.000126
 313	3.1044e+01	12.4280	55.811383	0.000416	4.155456	1.407907	0.000166
 314	3.1143e+01	12.4585	56.005166	0.000486	4.864924	1.648281	0.000195
 315	3.1243e+01	12.5034	56.106094	0.000253	2.533815	0.858480	0.000101
 316	3.1343e+01	12.5403	56.279691	0.000436	4.358161	1.476585	0.000174
 317	3.1442e+01	12.5836	56.408879	0.000324	3.243283	1.098854	0.000130
 318	3.1541e+01	12.6205	56.558253	0.000375	3.750046	1.270550	0.000150
 319	3.1641e+01	12.6638	56.699553	0.000355	3.547340	1.201871	0.000142
 320	3.1741e+01	12.6959	56.869113	0.000426	4.256808	1.442246	0.000170
 321	3.1840e+01	12.7440	57.002338	0.000334	3.344635	1.133193	0.000134
 322	3.1939e+01	12.7873	57.208232	0.000517	5.168982	1.751298	0.000207
 323	3.2039e+01	12.8210	57.305123	0.000243	2.432462	0.824140	0.000097
 324	3.2139e+01	12.8595	57.466609	0.000405	4.054103	1.373567	0.000162
 325	3.2238e+01	12.8980	57.595797	0.000324	3.243283	1.098854	0.000130
 326	3.2337e+01	12.9462	57.733060	0.000345	3.445988	1.167532	0.000138
 327	3.2437e+01	12.9782	57.890508	0.000395	3.952751	1.339228	0.000158
 328	3.2536e+01	13.0183	58.023733	0.000334	3.344635	1.133193	0.000134
 329	3.2636e+01	13.0488	58.181182	0.000395	3.952751	1.339228	0.000158
 330	3.2736e+01	13.0986	58.350741	0.000426	4.256808	1.442246	0.000170
 331	3.2835e+01	13.1419	58.496078	0.000365	3.648693	1.236211	0.000146
 332	3.2934e+01	13.1772	58.637378	0.000355	3.547340	1.201871	0.000142
 333	3.3034e+01	13.2076	58.742344	0.000264	2.635167	0.892819	0.000105
 334	3.3133e+01	13.2590	58.903829	0.000405	4.054103	1.373567	0.000162
 335	3.3233e+01	13.2991	59.041092	0.000345	3.445988	1.167532	0.000138
 336	3.3333e+01	13.3408	59.194503	0.000385	3.851398	1.304889	0.000154
 337	3.3432e+01	13.3857	59.335803	0.000355	3.547340	1.201871	0.000142
 338	3.3532e+01	13.4226	59.513436	0.000446	4.459514	1.510924	0.000179
 339	3.3631e+01	13.4627	59.634551	0.000304	3.040577	1.030176	0.000122
 340	3.3730e+01	13.4948	59.743553	0.000274	2.736520	0.927158	0.000110
 341	3.3830e+01	13.5317	59.913113	0.000426	4.256808	1.442246	0.000170
 342	3.3929e+01	13.5814	60.066524	0.000385	3.851398	1.304889	0.000154
 343	3.4029e+01	13.6231	60.187638	0.000304	3.040577	1.030176	0.000122
 344	3.4129e+01	13.6552	60.308752	0.000304	3.040577	1.030176	0.000122
 345	3.4228e+01	13.6889	60.466201	0.000395	3.952751	1.339228	0.000158
 346	3.4328e+01	13.7354	60.599426	0.000334	3.344635	1.133193	0.000134
 347	3.4427e+01	13.7755	60.736689	0.000345	3.445988	1.167532	0.000138
 348	3.4526e+01	13.8221	60.902211	0.000416	4.155456	1.407907	0.000166
 349	3.4626e+01	13.8574	61.007177	0.000264	2.635167	0.892819	0.000105
 350	3.4725e+01	13.8927	61.148476	0.000355	3.547340	1.201871	0.000142
 351	3.4825e+01	13.9296	61.322073	0.000436	4.358161	1.476585	0.000174
 352	3.4925e+01	13.9761	61.467410	0.000365	3.648693	1.236211	0.000146
 353	3.5024e+01	14.0178	61.600636	0.000334	3.344635	1.133193	0.000134
 354	3.5123e+01	14.0515	61.725787	0.000314	3.141930	1.064515	0.000126
 355	3.5223e+01	14.0996	61.875161	0.000375	3.750046	1.270550	0.000150
 356	3.5322e+01	14.1381	62.000312	0.000314	3.141930	1.064515	0.000126
 357	3.5422e+01	14.1782	62.149686	0.000375	3.750046	1.270550	0.000150
 358	3.5522e+01	14.2103	62.299060	0.000375	3.750046	1.270550	0.000150
 359	3.5621e+01	14.2552	62.464583	0.000416	4.155456	1.407907	0.000166
 360	3.5721e+01	14.2793	62.593771	0.000324	3.243283	1.098854	0.000130
 361	3.5820e+01	14.3370	62.710848	0.000294	2.939225	0.995836	0.000118
 362	3.5919e+01	14.3771	62.840036	0.000324	3.243283	1.098854	0.000130
 363	3.6019e+01	14.4108	62.989410	0.000375	3.750046	1.270550	0.000150
 364	3.6118e+01	14.4541	63.167044	0.000446	4.459514	1.510924	0.000179
 365	3.6218e+01	14.4862	63.280084	0.000284	2.837872	0.961497	0.000114
 366	3.6318e+01	14.5279	63.409272	0.000324	3.243283	1.098854	0.000130
 367	3.6417e+01	14.5745	63.574795	0.000416	4.155456	1.407907	0.000166
 368	3.6517e+01	14.6210	63.695909	0.000304	3.040577	1.030176	0.000122
 369	3.6616e+01	14.6466	63.825097	0.000324	3.243283	1.098854	0.000130
 370	3.6715e+01	14.6900	63.970434	0.000365	3.648693	1.236211	0.000146
 371	3.6815e+01	14.7333	64.083474	0.000284	2.837872	0.961497	0.000114
 372	3.6914e+01	14.7750	64.261108	0.000446	4.459514	1.510924	0.000179
 373	3.7014e+01	14.8071	64.374148	0.000284	2.837872	0.961497	0.000114
 374	3.7114e+01	14.8456	64.511411	0.000345	3.445988	1.167532	0.000138
 375	3.7213e+01	14.8873	64.672896	0.000405	4.054103	1.373567	0.000162
 376	3.7313e+01	14.9290	64.765750	0.000233	2.331109	0.789801	0.000093
 377	3.7412e+01	14.9659	64.874753	0.000274	2.736520	0.927158	0.000110
 378	3.7511e+01	15.0156	65.084684	0.000527	5.270334	1.785638	0.000211
 379	3.7611e+01	15.0493	65.230021	0.000365	3.648693	1.236211	0.000146
 380	3.7711e+01	15.0894	65.314801	0.000213	2.128404	0.721123	0.000085
 381	3.7810e+01	15.1247	65.492435	0.000446	4.459514	1.510924	0.000179
 382	3.7910e+01	15.1712	65.625660	0.000334	3.344635	1.133193	0.000134
 383	3.8009e+01	15.2129	65.762923	0.000345	3.445988	1.167532	0.000138
 384	3.8108e+01	15.2579	65.892111	0.000324	3.243283	1.098854	0.000130
 385	3.8208e+01	15.2883	66.001114	0.000274	2.736520	0.927158	0.000110
 386	3.8307e+01	15.3317	66.162599	0.000405	4.054103	1.373567	0.000162
 387	3.8407e+01	15.3686	66.324084	0.000405	4.054103	1.373567	0.000162
 388	3.8507e+01	15.4103	66.412901	0.000223	2.229757	0.755462	0.000089
 389	3.8606e+01	15.4536	66.594573	0.000456	4.560866	1.545263	0.000183
 390	3.8706e+01	15.4873	66.719724	0.000314	3.141930	1.064515	0.000126
 391	3.8805e+01	15.5338	66.861024	0.000355	3.547340	1.201871	0.000142
 392	3.8904e+01	15.5707	67.002323	0.000355	3.547340	1.201871	0.000142
 393	3.9004e+01	15.6124	67.159772	0.000395	3.952751	1.339228	0.000158
 394	3.9103e+01	15.6525	67.272811	0.000284	2.837872	0.961497	0.000114
 395	3.9203e+01	15.6894	67.373740	0.000253	2.533815	0.858480	0.000101
 396	3.9303e+01	15.7343	67.511002	0.000345	3.445988	1.167532	0.000138
 397	3.9402e+01	15.7648	67.656339	0.000365	3.648693	1.236211	0.000146
 398	3.9502e+01	15.8081	67.821862	0.000416	4.155456	1.407907	0.000166
 399	3.9601e+01	15.8546	67.906642	0.000213	2.128404	0.721123	0.000085
 400	3.9700e+01	15.8867	68.035830	0.000324	3.243283	1.098854	0.000130
 401	3.9800e+01	15.9268	68.189241	0.000385	3.851398	1.304889	0.000154
 402	3.9900e+01	15.9605	68.366875	0.000446	4.459514	1.510924	0.000179
 403	3.9999e+01	16.0102	68.459729	0.000233	2.331109	0.789801	0.000093
 404	4.0099e+01	16.0487	68.621215	0.000405	4.054103	1.373567	0.000162
 405	4.0198e+01	16.0969	68.750403	0.000324	3.243283	1.098854	0.000130
 406	4.0297e+01	16.1290	68.863443	0.000284	2.837872	0.961497	0.000114
 407	4.0397e+01	16.1723	68.984557	0.000304	3.040577	1.030176	0.000122
 408	4.0496e+01	16.2092	69.170265	0.000466	4.662219	1.579602	0.000187
 409	4.0596e+01	16.2445	69.291379	0.000304	3.040577	1.030176	0.000122
 410	4.0696e+01	16.2894	69.428642	0.000345	3.445988	1.167532	0.000138
 411	4.0795e+01	16.3279	69.541682	0.000284	2.837872	0.961497	0.000114
 412	4.0895e+01	16.3728	69.674907	0.000334	3.344635	1.133193	0.000134
 413	4.0994e+01	16.4001	69.820244	0.000365	3.648693	1.236211	0.000146
 414	4.1093e+01	16.4450	69.929247	0.000274	2.736520	0.927158	0.000110
 415	4.1193e+01	16.4835	70.074584	0.000365	3.648693	1.236211	0.000146
 416	4.1292e+01	16.5236	70.211846	0.000345	3.445988	1.167532	0.000138
 417	4.1392e+01	16.5653	70.357183	0.000365	3.648693	1.236211	0.000146
 418	4.1492e+01	16.6022	70.478297	0.000304	3.040577	1.030176	0.000122
 419	4.1591e+01	16.6519	70.595374	0.000294	2.939225	0.995836	0.000118
 420	4.1691e+01	16.6840	70.752822	0.000395	3.952751	1.339228	0.000158
 421	4.1790e+01	16.7354	70.890085	0.000345	3.445988	1.167532	0.000138
 422	4.1889e+01	16.7674	71.027348	0.000345	3.445988	1.167532	0.000138
 423	4.1989e+01	16.8027	71.168647	0.000355	3.547340	1.201871	0.000142
 424	4.2089e+01	16.8477	71.301873	0.000334	3.344635	1.133193	0.000134
 425	4.2188e+01	16.8781	71.418950	0.000294	2.939225	0.995836	0.000118
 426	4.2288e+01	16.9214	71.592547	0.000436	4.358161	1.476585	0.000174
 427	4.2387e+01	16.9616	71.701549	0.000274	2.736520	0.927158	0.000110
 428	4.2486e+01	17.0065	71.830738	0.000324	3.243283	1.098854	0.000130
 429	4.2586e+01	17.0434	72.008372	0.000446	4.459514	1.510924	0.000179
 430	4.2685e+01	17.0851	72.085077	0.000193	1.925699	0.652445	0.000077
 431	4.2785e+01	17.1252	72.254637	0.000426	4.256808	1.442246	0.000170
 432	4.2885e+01	17.1717	72.375751	0.000304	3.040577	1.030176	0.000122
 433	4.2984e+01	17.2054	72.504939	0.000324	3.243283	1.098854	0.000130
 434	4.3084e+01	17.2391	72.638165	0.000334	3.344635	1.133193	0.000134
 435	4.3183e+01	17.2808	72.771390	0.000334	3.344635	1.133193	0.000134
 436	4.3282e+01	17.3241	72.912690	0.000355	3.547340	1.201871	0.000142
 437	4.3382e+01	17.3642	73.045915	0.000334	3.344635	1.133193	0.000134
 438	4.3481e+01	17.4107	73.154918	0.000274	2.736520	0.927158	0.000110
 439	4.3581e+01	17.4428	73.292181	0.000345	3.445988	1.167532	0.000138
 440	4.3681e+01	17.4942	73.445592	0.000385	3.851398	1.304889	0.000154
 441	4.3780e+01	17.5246	73.607077	0.000405	4.054103	1.373567	0.000162
 442	4.3880e+01	17.5663	73.691857	0.000213	2.128404	0.721123	0.000085
 443	4.3979e+01	17.5968	73.877565	0.000466	4.662219	1.579602	0.000187
 444	4.4078e+01	17.6514	73.974457	0.000243	2.432462	0.824140	0.000097
 445	4.4178e+01	17.6851	74.131905	0.000395	3.952751	1.339228	0.000158
 446	4.4278e+01	17.7220	74.253019	0.000304	3.040577	1.030176	0.000122
 447	4.4377e+01	17.7589	74.386245	0.000334	3.344635	1.133193	0.000134
 448	4.4477e+01	17.8038	74.519470	0.000334	3.344635	1.133193	0.000134
 449	4.4576e+01	17.8519	74.640584	0.000304	3.040577	1.030176	0.000122
 450	4.4675e+01	17.8760	74.761698	0.000304	3.040577	1.030176	0.000122
 451	4.4775e+01	17.9241	74.927221	0.000416	4.155456	1.407907	0.000166
 452	4.4874e+01	17.9578	75.020075	0.000233	2.331109	0.789801	0.000093
 453	4.4974e+01	18.0011	75.185597	0.000416	4.155456	1.407907	0.000166
 454	4.5074e+01	18.0364	75.314786	0.000324	3.243283	1.098854	0.000130
 455	4.5173e+01	18.0781	75.423788	0.000274	2.736520	0.927158	0.000110
 456	4.5273e+01	18.1166	75.573162	0.000375	3.750046	1.270550	0.000150
 457	4.5372e+01	18.1615	75.746759	0.000436	4.358161	1.476585	0.000174
 458	4.5471e+01	18.2032	75.835576	0.000223	2.229757	0.755462	0.000089
 459	4.5571e+01	18.2385	75.997062	0.000405	4.054103	1.373567	0.000162
 460	4.5670e+01	18.2770	76.081842	0.000213	2.128404	0.721123	0.000085
 461	4.5770e+01	18.3219	76.251401	0.000426	4.256808	1.442246	0.000170
 462	4.5870e+01	18.3588	76.340218	0.000223	2.229757	0.755462	0.000089
 463	4.5969e+01	18.3957	76.465369	0.000314	3.141930	1.064515	0.000126
 464	4.6069e+01	18.4358	76.638966	0.000436	4.358161	1.476585	0.000174
 465	4.6168e+01	18.4824	76.764117	0.000314	3.141930	1.064515	0.000126
 466	4.6267e+01	18.5225	76.897343	0.000334	3.344635	1.133193	0.000134
 467	4.6367e+01	18.5626	77.030568	0.000334	3.344635	1.133193	0.000134
 468	4.6467e+01	18.5963	77.147645	0.000294	2.939225	0.995836	0.000118
 469	4.6566e+01	18.6396	77.297019	0.000375	3.750046	1.270550	0.000150
 470	4.6666e+01	18.6797	77.422171	0.000314	3.141930	1.064515	0.000126
 471	4.6765e+01	18.7166	77.535210	0.000284	2.837872	0.961497	0.000114
 472	4.6864e+01	18.7599	77.676510	0.000355	3.547340	1.201871	0.000142
 473	4.6964e+01	18.8016	77.813773	0.000345	3.445988	1.167532	0.000138
 474	4.7063e+01	18.8433	77.922775	0.000274	2.736520	0.927158	0.000110
 475	4.7163e+01	18.8850	78.100409	0.000446	4.459514	1.510924	0.000179
 476	4.7263e+01	18.9203	78.213449	0.000284	2.837872	0.961497	0.000114
 477	4.7362e+01	18.9652	78.330526	0.000294	2.939225	0.995836	0.000118
 478	4.7462e+01	19.0021	78.479900	0.000375	3.750046	1.270550	0.000150
 479	4.7561e+01	19.0358	78.609089	0.000324	3.243283	1.098854	0.000130
 480	4.7660e+01	19.0711	78.778648	0.000426	4.256808	1.442246	0.000170
 481	4.7760e+01	19.1241	78.879577	0.000253	2.533815	0.858480	0.000101
 482	4.7859e+01	19.1642	78.992616	0.000284	2.837872	0.961497	0.000114
 483	4.7959e+01	19.1898	79.162176	0.000426	4.256808	1.442246	0.000170
 484	4.8059e+01	19.2380	79.295402	0.000334	3.344635	1.133193	0.000134
 485	4.8158e+01	19.2813	79.400367	0.000264	2.635167	0.892819	0.000105
 486	4.8258e+01	19.3246	79.517444	0.000294	2.939225	0.995836	0.000118
 487	4.8357e+01	19.3535	79.699115	0.000456	4.560866	1.545263	0.000183
 488	4.8456e+01	19.3920	79.796006	0.000243	2.432462	0.824140	0.000097
 489	4.8556e+01	19.4369	79.925195	0.000324	3.243283	1.098854	0.000130
 490	4.8656e+01	19.4754	80.102829	0.000446	4.459514	1.510924	0.000179
 491	4.8755e+01	19.5235	80.215869	0.000284	2.837872	0.961497	0.000114
 492	4.8855e+01	19.5588	80.328908	0.000284	2.837872	0.961497	0.000114
 493	4.8954e+01	19.6005	80.450022	0.000304	3.040577	1.030176	0.000122
 494	4.9053e+01	19.6342	80.603434	0.000385	3.851398	1.304889	0.000154
 495	4.9153e+01	19.6695	80.728585	0.000314	3.141930	1.064515	0.000126
 496	4.9252e+01	19.7160	80.869885	0.000355	3.547340	1.201871	0.000142
 497	4.9352e+01	19.7641	81.011184	0.000355	3.547340	1.201871	0.000142
 498	4.9452e+01	19.8010	81.120187	0.000274	2.736520	0.927158	0.000110
 499	4.9551e+01	19.8203	81.265524	0.000365	3.648693	1.236211	0.000146
 500	4.9651e+01	19.8716	81.362415	0.000243	2.432462	0.824140	0.000097
 501	4.9750e+01	19.9133	81.471418	0.000274	2.736520	0.927158	0.000110
 502	4.9849e+01	19.9567	81.649052	0.000446	4.459514	1.510924	0.000179
 503	4.9949e+01	20.0016	81.778240	0.000324	3.243283	1.098854	0.000130
 504	5.0048e+01	19.9567	81.685386	0.000233	2.331109	0.789801	-0.000093
 505	5.0148e+01	19.9085	81.636940	0.000122	1.216231	0.412070	-0.000049
 506	5.0248e+01	19.8732	81.507752	0.000324	3.243283	1.098854	-0.000130
 507	5.0347e+01	19.8315	81.422972	0.000213	2.128404	0.721123	-0.000085
 508	5.0447e+01	19.7962	81.350304	0.000182	1.824346	0.618105	-0.000073
 509	5.0546e+01	19.7561	81.221115	0.000324	3.243283	1.098854	-0.000130
 510	5.0645e+01	19.7048	81.132298	0.000223	2.229757	0.755462	-0.000089
 511	5.0745e+01	19.6727	81.047519	0.000213	2.128404	0.721123	-0.000085
 512	5.0844e+01	19.6278	80.958702	0.000223	2.229757	0.755462	-0.000089
 513	5.0944e+01	19.5941	80.881996	0.000193	1.925699	0.652445	-0.000077
 514	5.1044e+01	19.5524	80.781068	0.000253	2.533815	0.858480	-0.000101
 515	5.1143e+01	19.5059	80.672065	0.000274	2.736520	0.927158	-0.000110
 516	5.1242e+01	19.4722	80.571136	0.000253	2.533815	0.858480	-0.000101
 517	5.1342e+01	19.4273	80.490394	0.000203	2.027052	0.686784	-0.000081
 518	5.1441e+01	19.3920	80.389465	0.000253	2.533815	0.858480	-0.000101
 519	5.1541e+01	19.3567	80.288537	0.000253	2.533815	0.858480	-0.000101
 520	5.1641e+01	19.3150	80.203757	0.000213	2.128404	0.721123	-0.000085
 521	5.1740e+01	19.2877	80.110903	0.000233	2.331109	0.789801	-0.000093
 522	5.1840e+01	19.2331	79.969603	0.000355	3.547340	1.201871	-0.000142
 523	5.1939e+01	19.2027	79.913083	0.000142	1.418936	0.480749	-0.000057
 524	5.2038e+01	19.1561	79.783895	0.000324	3.243283	1.098854	-0.000130
 525	5.2138e+01	19.1160	79.678929	0.000264	2.635167	0.892819	-0.000105
 526	5.2237e+01	19.0695	79.606261	0.000182	1.824346	0.618105	-0.000073
 527	5.2337e+01	19.0390	79.505333	0.000253	2.533815	0.858480	-0.000101
 528	5.2437e+01	18.9941	79.416516	0.000223	2.229757	0.755462	-0.000089
 529	5.2536e+01	18.9588	79.319624	0.000243	2.432462	0.824140	-0.000097
 530	5.2636e+01	18.9187	79.170250	0.000375	3.750046	1.270550	-0.000150
 531	5.2735e+01	18.8850	79.097582	0.000182	1.824346	0.618105	-0.000073
 532	5.2834e+01	18.8449	79.012802	0.000213	2.128404	0.721123	-0.000085
 533	5.2934e+01	18.8000	78.859391	0.000385	3.851398	1.304889	-0.000154
 534	5.3033e+01	18.7567	78.802871	0.000142	1.418936	0.480749	-0.000057
 535	5.3133e+01	18.7166	78.665608	0.000345	3.445988	1.167532	-0.000138
 536	5.3233e+01	18.6749	78.588903	0.000193	1.925699	0.652445	-0.000077
 537	5.3332e+01	18.6348	78.467789	0.000304	3.040577	1.030176	-0.000122
 538	5.3431e+01	18.5995	78.370898	0.000243	2.432462	0.824140	-0.000097
 539	5.3531e+01	18.5578	78.241709	0.000324	3.243283	1.098854	-0.000130
 540	5.3630e+01	18.5273	78.144818	0.000243	2.432462	0.824140	-0.000097
 541	5.3730e+01	18.4824	78.027741	0.000294	2.939225	0.995836	-0.000118
 542	5.3830e+01	18.4374	77.967184	0.000152	1.520289	0.515088	-0.000061
 543	5.3929e+01	18.4006	77.890478	0.000193	1.925699	0.652445	-0.000077
 544	5.4029e+01	18.3556	77.745141	0.000365	3.648693	1.236211	-0.000146
 545	5.4128e+01	18.3171	77.611916	0.000334	3.344635	1.133193	-0.000134
 546	5.4227e+01	18.2834	77.502913	0.000274	2.736520	0.927158	-0.000110
 547	5.4327e+01	18.2369	77.434282	0.000172	1.722994	0.583766	-0.000069
 548	5.4426e+01	18.1920	77.284908	0.000375	3.750046	1.270550	-0.000150
 549	5.4526e+01	18.1647	77.200128	0.000213	2.128404	0.721123	-0.000085
 550	5.4626e+01	18.1246	77.074977	0.000314	3.141930	1.064515	-0.000126
 551	5.4725e+01	18.0813	77.042680	0.000081	0.810821	0.274713	-0.000032
 552	5.4825e+01	18.0396	76.885232	0.000395	3.952751	1.339228	-0.000158
 553	5.4924e+01	17.9979	76.788340	0.000243	2.432462	0.824140	-0.000097
 554	5.5023e+01	17.9594	76.679338	0.000274	2.736520	0.927158	-0.000110
 555	5.5123e+01	17.9209	76.546112	0.000334	3.344635	1.133193	-0.000134
 556	5.5222e+01	17.8744	76.445184	0.000253	2.533815	0.858480	-0.000101
 557	5.5322e+01	17.8391	76.352330	0.000233	2.331109	0.789801	-0.000093
 558	5.5422e+01	17.7990	76.267550	0.000213	2.128404	0.721123	-0.000085
 559	5.5521e+01	17.7540	76.089916	0.000446	4.459514	1.510924	-0.000179
 560	5.5620e+01	17.7236	76.009173	0.000203	2.027052	0.686784	-0.000081
 561	5.5720e+01	17.6802	75.843651	0.000416	4.155456	1.407907	-0.000166
 562	5.5819e+01	17.6289	75.791168	0.000132	1.317584	0.446409	-0.000053
 563	5.5919e+01	17.6049	75.678128	0.000284	2.837872	0.961497	-0.000114
 564	5.6019e+01	17.5615	75.552977	0.000314	3.141930	1.064515	-0.000126
 565	5.6118e+01	17.5166	75.468197	0.000213	2.128404	0.721123	-0.000085
 566	5.6218e+01	17.4829	75.363231	0.000264	2.635167	0.892819	-0.000105
 567	5.6317e+01	17.4412	75.250192	0.000284	2.837872	0.961497	-0.000114
 568	5.6416e+01	17.4043	75.129078	0.000304	3.040577	1.030176	-0.000122
 569	5.6516e+01	17.3610	74.971629	0.000395	3.952751	1.339228	-0.000158
 570	5.6615e+01	17.3241	74.874738	0.000243	2.432462	0.824140	-0.000097
 571	5.6715e+01	17.2776	74.781884	0.000233	2.331109	0.789801	-0.000093
 572	5.6815e+01	17.2423	74.648658	0.000334	3.344635	1.133193	-0.000134
 573	5.6914e+01	17.1926	74.535619	0.000284	2.837872	0.961497	-0.000114
 574	5.7014e+01	17.1589	74.430653	0.000264	2.635167	0.892819	-0.000105
 575	5.7113e+01	17.1300	74.313576	0.000294	2.939225	0.995836	-0.000118
 576	5.7212e+01	17.0883	74.204573	0.000274	2.736520	0.927158	-0.000110
 577	5.7312e+01	17.0418	74.067311	0.000345	3.445988	1.167532	-0.000138
 578	5.7411e+01	17.0097	74.002717	0.000162	1.621641	0.549427	-0.000065
 579	5.7511e+01	16.9599	73.861417	0.000355	3.547340	1.201871	-0.000142
 580	5.7611e+01	16.9182	73.740303	0.000304	3.040577	1.030176	-0.000122
 581	5.7710e+01	16.8829	73.615152	0.000314	3.141930	1.064515	-0.000126
 582	5.7809e+01	16.8428	73.534409	0.000203	2.027052	0.686784	-0.000081
 583	5.7909e+01	16.7995	73.417332	0.000294	2.939225	0.995836	-0.000118
 584	5.8008e+01	16.7674	73.276032	0.000355	3.547340	1.201871	-0.000142
 585	5.8108e+01	16.7257	73.179141	0.000243	2.432462	0.824140	-0.000097
 586	5.8208e+01	16.6904	73.062064	0.000294	2.939225	0.995836	-0.000118
 587	5.8307e+01	16.6439	72.989396	0.000182	1.824346	0.618105	-0.000073
 588	5.8407e+01	16.6070	72.819836	0.000426	4.256808	1.442246	-0.000170
 589	5.8506e+01	16.5573	72.751205	0.000172	1.722994	0.583766	-0.000069
 590	5.8605e+01	16.5284	72.650276	0.000253	2.533815	0.858480	-0.000101
 591	5.8705e+01	16.4867	72.504939	0.000365	3.648693	1.236211	-0.000146
 592	5.8804e+01	16.4466	72.383825	0.000304	3.040577	1.030176	-0.000122
 593	5.8904e+01	16.4097	72.290971	0.000233	2.331109	0.789801	-0.000093
 594	5.9004e+01	16.3664	72.181968	0.000274	2.736520	0.927158	-0.000110
 595	5.9103e+01	16.3231	72.028557	0.000385	3.851398	1.304889	-0.000154
 596	5.9203e+01	16.2910	71.959926	0.000172	1.722994	0.583766	-0.000069
 597	5.9302e+01	16.2493	71.842849	0.000294	2.939225	0.995836	-0.000118
 598	5.9401e+01	16.2060	71.725772	0.000294	2.939225	0.995836	-0.000118
 599	5.9501e+01	16.1594	71.592547	0.000334	3.344635	1.133193	-0.000134
 600	5.9600e+01	16.1209	71.475470	0.000294	2.939225	0.995836	-0.000118
 601	5.9700e+01	16.0856	71.346281	0.000324	3.243283	1.098854	-0.000130
 602	5.9800e+01	16.0503	71.265539	0.000203	2.027052	0.686784	-0.000081
 603	5.9899e+01	16.0118	71.120202	0.000365	3.648693	1.236211	-0.000146
 604	5.9998e+01	15.9717	71.039459	0.000203	2.027052	0.686784	-0.000081
 605	6.0098e+01	15.9268	70.922382	0.000294	2.939225	0.995836	-0.000118
 606	6.0197e+01	15.8883	70.773008	0.000375	3.750046	1.270550	-0.000150
 607	6.0297e+01	15.8546	70.672080	0.000253	2.533815	0.858480	-0.000101
 608	6.0397e+01	15.7985	70.583263	0.000223	2.229757	0.755462	-0.000089
 609	6.0496e+01	15.7584	70.462149	0.000304	3.040577	1.030176	-0.000122
 610	6.0596e+01	15.7311	70.304700	0.000395	3.952751	1.339228	-0.000158
 611	6.0695e+01	15.6814	70.248180	0.000142	1.418936	0.480749	-0.000057
 612	6.0794e+01	15.6557	70.074584	0.000436	4.358161	1.476585	-0.000174
 613	6.0894e+01	15.6108	69.957507	0.000294	2.939225	0.995836	-0.000118
 614	6.0993e+01	15.5675	69.844467	0.000284	2.837872	0.961497	-0.000114
 615	6.1093e+01	15.5354	69.751613	0.000233	2.331109	0.789801	-0.000093
 616	6.1193e+01	15.4841	69.630499	0.000304	3.040577	1.030176	-0.000122
 617	6.1292e+01	15.4472	69.501310	0.000324	3.243283	1.098854	-0.000130
 618	6.1392e+01	15.4167	69.355973	0.000365	3.648693	1.236211	-0.000146
 619	6.1491e+01	15.3669	69.246971	0.000274	2.736520	0.927158	-0.000110
 620	6.1590e+01	15.3300	69.129894	0.000294	2.939225	0.995836	-0.000118
 621	6.1690e+01	15.2932	68.988594	0.000355	3.547340	1.201871	-0.000142
 622	6.1789e+01	15.2546	68.936111	0.000132	1.317584	0.446409	-0.000053
 623	6.1889e+01	15.2129	68.802886	0.000334	3.344635	1.133193	-0.000134
 624	6.1989e+01	15.1760	68.665623	0.000345	3.445988	1.167532	-0.000138
 625	6.2088e+01	15.1375	68.528361	0.000345	3.445988	1.167532	-0.000138
 626	6.2188e+01	15.0894	68.407247	0.000304	3.040577	1.030176	-0.000122
 627	6.2287e+01	15.0605	68.338615	0.000172	1.722994	0.583766	-0.000069
 628	6.2386e+01	15.0124	68.213464	0.000314	3.141930	1.064515	-0.000126
 629	6.2486e+01	14.9707	68.068127	0.000365	3.648693	1.236211	-0.000146
 630	6.2586e+01	14.9322	67.955087	0.000284	2.837872	0.961497	-0.000114
 631	6.2685e+01	14.8889	67.785528	0.000426	4.256808	1.442246	-0.000170
 632	6.2785e+01	14.8552	67.668451	0.000294	2.939225	0.995836	-0.000118
 633	6.2884e+01	14.8087	67.555411	0.000284	2.837872	0.961497	-0.000114
 634	6.2983e+01	14.7670	67.454482	0.000253	2.533815	0.858480	-0.000101
 635	6.3083e+01	14.7317	67.341443	0.000284	2.837872	0.961497	-0.000114
 636	6.3182e+01	14.6964	67.204180	0.000345	3.445988	1.167532	-0.000138
 637	6.3282e+01	14.6563	67.062880	0.000355	3.547340	1.201871	-0.000142
 638	6.3382e+01	14.6114	66.961952	0.000253	2.533815	0.858480	-0.000101
 639	6.3481e+01	14.5648	66.832764	0.000324	3.243283	1.098854	-0.000130
 640	6.3581e+01	14.5295	66.695501	0.000345	3.445988	1.167532	-0.000138
 641	6.3680e+01	14.4878	66.586498	0.000274	2.736520	0.927158	-0.000110
 642	6.3779e+01	14.4557	66.453273	0.000334	3.344635	1.133193	-0.000134
 643	6.3879e+01	14.4076	66.324084	0.000324	3.243283	1.098854	-0.000130
 644	6.3978e+01	14.3739	66.231230	0.000233	2.331109	0.789801	-0.000093
 645	6.4078e+01	14.3322	66.089931	0.000355	3.547340	1.201871	-0.000142
 646	6.4177e+01	14.2905	65.960742	0.000324	3.243283	1.098854	-0.000130
 647	6.4277e+01	14.2600	65.855777	0.000264	2.635167	0.892819	-0.000105
 648	6.4376e+01	14.2135	65.742737	0.000284	2.837872	0.961497	-0.000114
 649	6.4476e+01	14.1766	65.589326	0.000385	3.851398	1.304889	-0.000154
 650	6.4576e+01	14.1253	65.492435	0.000243	2.432462	0.824140	-0.000097
 651	6.4675e+01	14.0948	65.351135	0.000355	3.547340	1.201871	-0.000142
 652	6.4775e+01	14.0563	65.250206	0.000253	2.533815	0.858480	-0.000101
 653	6.4874e+01	14.0130	65.116981	0.000334	3.344635	1.133193	-0.000134
 654	6.4974e+01	13.9761	64.995867	0.000304	3.040577	1.030176	-0.000122
 655	6.5073e+01	13.9328	64.862641	0.000334	3.344635	1.133193	-0.000134
 656	6.5172e+01	13.8943	64.709230	0.000385	3.851398	1.304889	-0.000154
 657	6.5272e+01	13.8590	64.580042	0.000324	3.243283	1.098854	-0.000130
 658	6.5371e+01	13.8140	64.483151	0.000243	2.432462	0.824140	-0.000097
 659	6.5471e+01	13.7804	64.353962	0.000324	3.243283	1.098854	-0.000130
 660	6.5570e+01	13.7322	64.248997	0.000264	2.635167	0.892819	-0.000105
 661	6.5670e+01	13.6985	64.119808	0.000324	3.243283	1.098854	-0.000130
 662	6.5769e+01	13.6649	63.986583	0.000334	3.344635	1.133193	-0.000134
 663	6.5869e+01	13.6199	63.849320	0.000345	3.445988	1.167532	-0.000138
 664	6.5969e+01	13.5830	63.712058	0.000345	3.445988	1.167532	-0.000138
 665	6.6068e+01	13.5397	63.607092	0.000264	2.635167	0.892819	-0.000105
 666	6.6168e+01	13.4964	63.437532	0.000426	4.256808	1.442246	-0.000170
 667	6.6267e+01	13.4595	63.356790	0.000203	2.027052	0.686784	-0.000081
 668	6.6367e+01	13.4162	63.203379	0.000385	3.851398	1.304889	-0.000154
 669	6.6466e+01	13.3681	63.058042	0.000365	3.648693	1.236211	-0.000146
 670	6.6566e+01	13.3312	62.932890	0.000314	3.141930	1.064515	-0.000126
 671	6.6665e+01	13.2991	62.831962	0.000253	2.533815	0.858480	-0.000101
 672	6.6764e+01	13.2590	62.674514	0.000395	3.952751	1.339228	-0.000158
 673	6.6864e+01	13.2141	62.541288	0.000334	3.344635	1.133193	-0.000134
 674	6.6963e+01	13.1756	62.456508	0.000213	2.128404	0.721123	-0.000085
 675	6.7063e+01	13.1419	62.290986	0.000416	4.155456	1.407907	-0.000166
 676	6.7162e+01	13.0970	62.141612	0.000375	3.750046	1.270550	-0.000150
 677	6.7262e+01	13.0552	62.024535	0.000294	2.939225	0.995836	-0.000118
 678	6.7362e+01	13.0200	61.895347	0.000324	3.243283	1.098854	-0.000130
 679	6.7461e+01	12.9766	61.733861	0.000405	4.054103	1.373567	-0.000162
 680	6.7561e+01	12.9430	61.624858	0.000274	2.736520	0.927158	-0.000110
 681	6.7660e+01	12.8980	61.519893	0.000264	2.635167	0.892819	-0.000105
 682	6.7760e+01	12.8611	61.362445	0.000395	3.952751	1.339228	-0.000158
 683	6.7859e+01	12.8242	61.233256	0.000324	3.243283	1.098854	-0.000130
 684	6.7959e+01	12.7857	61.087919	0.000365	3.648693	1.236211	-0.000146
 685	6.8058e+01	12.7440	60.986991	0.000253	2.533815	0.858480	-0.000101
 686	6.8157e+01	12.7055	60.837617	0.000375	3.750046	1.270550	-0.000150
 687	6.8257e+01	12.6558	60.704392	0.000334	3.344635	1.133193	-0.000134
 688	6.8356e+01	12.6173	60.546943	0.000395	3.952751	1.339228	-0.000158
 689	6.8456e+01	12.5804	60.437941	0.000274	2.736520	0.927158	-0.000110
 690	6.8555e+01	12.5435	60.296641	0.000355	3.547340	1.201871	-0.000142
 691	6.8655e+01	12.5018	60.151304	0.000365	3.648693	1.236211	-0.000146
 692	6.8754e+01	12.4649	60.050376	0.000253	2.533815	0.858480	-0.000101
 693	6.8854e+01	12.4280	59.921187	0.000324	3.243283	1.098854	-0.000130
 694	6.8954e+01	12.3799	59.779887	0.000355	3.547340	1.201871	-0.000142
 695	6.9053e+01	12.3398	59.646662	0.000334	3.344635	1.133193	-0.000134
 696	6.9153e+01	12.3093	59.501325	0.000365	3.648693	1.236211	-0.000146
 697	6.9252e+01	12.2708	59.408471	0.000233	2.331109	0.789801	-0.000093
 698	6.9352e+01	12.2275	59.222763	0.000466	4.662219	1.579602	-0.000187
 699	6.9451e+01	12.1874	59.085500	0.000345	3.445988	1.167532	-0.000138
 700	6.9550e+01	12.1392	58.924015	0.000405	4.054103	1.373567	-0.000162
 701	6.9650e+01	12.1071	58.815012	0.000274	2.736520	0.927158	-0.000110
 702	6.9749e+01	12.0670	58.665638	0.000375	3.750046	1.270550	-0.000150
 703	6.9849e+01	12.0205	58.560672	0.000264	2.635167	0.892819	-0.000105
 704	6.9948e+01	11.9868	58.423410	0.000345	3.445988	1.167532	-0.000138
 705	7.0048e+01	11.9563	58.261924	0.000405	4.054103	1.373567	-0.000162
 706	7.0147e+01	11.8986	58.148885	0.000284	2.837872	0.961497	-0.000114
 707	7.0247e+01	11.8633	58.019696	0.000324	3.243283	1.098854	-0.000130
 708	7.0347e+01	11.8216	57.890508	0.000324	3.243283	1.098854	-0.000130
 709	7.0446e+01	11.7879	57.729022	0.000405	4.054103	1.373567	-0.000162
 710	7.0546e+01	11.7510	57.555426	0.000436	4.358161	1.476585	-0.000174
 711	7.0645e+01	11.7093	57.478720	0.000193	1.925699	0.652445	-0.000077
 712	7.0745e+01	11.6692	57.309160	0.000426	4.256808	1.442246	-0.000170
 713	7.0844e+01	11.6307	57.236492	0.000182	1.824346	0.618105	-0.000073
 714	7.0944e+01	11.5810	57.054821	0.000456	4.560866	1.545263	-0.000183
 715	7.1043e+01	11.5457	56.897373	0.000395	3.952751	1.339228	-0.000158
 716	7.1142e+01	11.5023	56.764147	0.000334	3.344635	1.133193	-0.000134
 717	7.1242e+01	11.4622	56.655144	0.000274	2.736520	0.927158	-0.000110
 718	7.1341e+01	11.4382	56.521919	0.000334	3.344635	1.133193	-0.000134
 719	7.1441e+01	11.3949	56.368508	0.000385	3.851398	1.304889	-0.000154
 720	7.1540e+01	11.3483	56.207022	0.000405	4.054103	1.373567	-0.000162
 721	7.1640e+01	11.3066	56.110131	0.000243	2.432462	0.824140	-0.000097
 722	7.1740e+01	11.2649	55.932497	0.000446	4.459514	1.510924	-0.000179
 723	7.1839e+01	11.2264	55.799272	0.000334	3.344635	1.133193	-0.000134
 724	7.1939e+01	11.1943	55.690269	0.000274	2.736520	0.927158	-0.000110
 725	7.2038e+01	11.1446	55.500524	0.000476	4.763571	1.613942	-0.000191
 726	7.2138e+01	11.1109	55.379409	0.000304	3.040577	1.030176	-0.000122
 727	7.2237e+01	11.0692	55.262333	0.000294	2.939225	0.995836	-0.000118
 728	7.2337e+01	11.0291	55.104884	0.000395	3.952751	1.339228	-0.000158
 729	7.2436e+01	10.9810	54.975696	0.000324	3.243283	1.098854	-0.000130
 730	7.2535e+01	10.9441	54.830359	0.000365	3.648693	1.236211	-0.000146
 731	7.2635e+01	10.9056	54.668874	0.000405	4.054103	1.373567	-0.000162
 732	7.2734e+01	10.8703	54.547760	0.000304	3.040577	1.030176	-0.000122
 733	7.2834e+01	10.8302	54.422608	0.000314	3.141930	1.064515	-0.000126
 734	7.2933e+01	10.7837	54.261123	0.000405	4.054103	1.373567	-0.000162
 735	7.3033e+01	10.7548	54.111749	0.000375	3.750046	1.270550	-0.000150
 736	7.3132e+01	10.7115	53.966412	0.000365	3.648693	1.236211	-0.000146
 737	7.3232e+01	10.6681	53.829149	0.000345	3.445988	1.167532	-0.000138
 738	7.3332e+01	10.6296	53.703998	0.000314	3.141930	1.064515	-0.000126
 739	7.3431e+01	10.5944	53.522327	0.000456	4.560866	1.545263	-0.000183
 740	7.3531e+01	10.5591	53.433510	0.000223	2.229757	0.755462	-0.000089
 741	7.3630e+01	10.5141	53.255876	0.000446	4.459514	1.510924	-0.000179
 742	7.3730e+01	10.4708	53.122651	0.000334	3.344635	1.133193	-0.000134
 743	7.3829e+01	10.4323	52.940980	0.000456	4.560866	1.545263	-0.000183
 744	7.3928e+01	10.3922	52.807754	0.000334	3.344635	1.133193	-0.000134
 745	7.4028e+01	10.3441	52.658380	0.000375	3.750046	1.270550	-0.000150
 746	7.4127e+01	10.3056	52.541303	0.000294	2.939225	0.995836	-0.000118
 747	7.4227e+01	10.2655	52.367706	0.000436	4.358161	1.476585	-0.000174
 748	7.4326e+01	10.2270	52.250629	0.000294	2.939225	0.995836	-0.000118
 749	7.4426e+01	10.1885	52.097218	0.000385	3.851398	1.304889	-0.000154
 750	7.4525e+01	10.1484	51.939770	0.000395	3.952751	1.339228	-0.000158
 751	7.4625e+01	10.1131	51.838841	0.000253	2.533815	0.858480	-0.000101
 752	7.4725e+01	10.0762	51.681393	0.000395	3.952751	1.339228	-0.000158
 753	7.4824e+01	10.0361	51.536056	0.000365	3.648693	1.236211	-0.000146
 754	7.4924e+01	9.9880	51.342274	0.000486	4.864924	1.648281	-0.000195
 755	7.5023e+01	9.9446	51.233271	0.000274	2.736520	0.927158	-0.000110
 756	7.5123e+01	9.9061	51.096008	0.000345	3.445988	1.167532	-0.000138
 757	7.5222e+01	9.8724	50.950672	0.000365	3.648693	1.236211	-0.000146
 758	7.5322e+01	9.8259	50.781112	0.000426	4.256808	1.442246	-0.000170
 759	7.5421e+01	9.7874	50.680183	0.000253	2.533815	0.858480	-0.000101
 760	7.5520e+01	9.7505	50.514661	0.000416	4.155456	1.407907	-0.000166
 761	7.5620e+01	9.7104	50.361250	0.000385	3.851398	1.304889	-0.000154
 762	7.5719e+01	9.6687	50.219950	0.000355	3.547340	1.201871	-0.000142
 763	7.5819e+01	9.6366	50.102873	0.000294	2.939225	0.995836	-0.000118
 764	7.5918e+01	9.6094	49.937351	0.000416	4.155456	1.407907	-0.000166
 765	7.6018e+01	9.5548	49.832385	0.000264	2.635167	0.892819	-0.000105
 766	7.6118e+01	9.5211	49.642640	0.000476	4.763571	1.613942	-0.000191
 767	7.6217e+01	9.4634	49.477117	0.000416	4.155456	1.407907	-0.000166
 768	7.6317e+01	9.4377	49.335817	0.000355	3.547340	1.201871	-0.000142
 769	7.6416e+01	9.3944	49.206629	0.000324	3.243283	1.098854	-0.000130
 770	7.6516e+01	9.3591	49.093589	0.000284	2.837872	0.961497	-0.000114
 771	7.6615e+01	9.3110	48.940178	0.000385	3.851398	1.304889	-0.000154
 772	7.6715e+01	9.2677	48.746395	0.000486	4.864924	1.648281	-0.000195
 773	7.6814e+01	9.2340	48.637393	0.000274	2.736520	0.927158	-0.000110
 774	7.6913e+01	9.1939	48.459759	0.000446	4.459514	1.510924	-0.000179
 775	7.7013e+01	9.1554	48.346719	0.000284	2.837872	0.961497	-0.000114
 776	7.7112e+01	9.1088	48.165048	0.000456	4.560866	1.545263	-0.000183
 777	7.7212e+01	9.0719	48.031822	0.000334	3.344635	1.133193	-0.000134
 778	7.7311e+01	9.0382	47.842077	0.000476	4.763571	1.613942	-0.000191
 779	7.7411e+01	8.9965	47.684629	0.000395	3.952751	1.339228	-0.000158
 780	7.7510e+01	8.9580	47.571589	0.000284	2.837872	0.961497	-0.000114
 781	7.7610e+01	8.9131	47.397992	0.000436	4.358161	1.476585	-0.000174
 782	7.7710e+01	8.8762	47.236507	0.000405	4.054103	1.373567	-0.000162
 783	7.7809e+01	8.8313	47.091170	0.000365	3.648693	1.236211	-0.000146
 784	7.7909e+01	8.8040	46.986204	0.000264	2.635167	0.892819	-0.000105
 785	7.8008e+01	8.7591	46.824719	0.000405	4.054103	1.373567	-0.000162
 786	7.8108e+01	8.7206	46.679382	0.000365	3.648693	1.236211	-0.000146
 787	7.8207e+01	8.6773	46.513859	0.000416	4.155456	1.407907	-0.000166
 788	7.8306e+01	8.6228	46.344300	0.000426	4.256808	1.442246	-0.000170
 789	7.8406e+01	8.6003	46.231260	0.000284	2.837872	0.961497	-0.000114
 790	7.8505e+01	8.5570	46.033440	0.000497	4.966277	1.682620	-0.000199
 791	7.8605e+01	8.5201	45.880029	0.000385	3.851398	1.304889	-0.000154
 792	7.8704e+01	8.4816	45.746804	0.000334	3.344635	1.133193	-0.000134
 793	7.8804e+01	8.4383	45.597430	0.000375	3.750046	1.270550	-0.000150
 794	7.8903e+01	8.3933	45.423833	0.000436	4.358161	1.476585	-0.000174
 795	7.9003e+01	8.3564	45.246199	0.000446	4.459514	1.510924	-0.000179
 796	7.9103e+01	8.3179	45.096825	0.000375	3.750046	1.270550	-0.000150
 797	7.9202e+01	8.2794	44.955525	0.000355	3.547340	1.201871	-0.000142
 798	7.9302e+01	8.2409	44.802114	0.000385	3.851398	1.304889	-0.000154
 799	7.9401e+01	8.2040	44.652740	0.000375	3.750046	1.270550	-0.000150
 800	7.9501e+01	8.1671	44.507403	0.000365	3.648693	1.236211	-0.000146
 801	7.9600e+01	8.1094	44.341880	0.000416	4.155456	1.407907	-0.000166
 802	7.9700e+01	8.0789	44.164246	0.000446	4.459514	1.510924	-0.000179
 803	7.9799e+01	8.0372	43.994687	0.000426	4.256808	1.442246	-0.000170
 804	7.9898e+01	7.9971	43.913944	0.000203	2.027052	0.686784	-0.000081
 805	7.9998e+01	7.9554	43.671716	0.000608	6.081155	2.060351	-0.000243
 806	8.0097e+01	7.9233	43.542528	0.000324	3.243283	1.098854	-0.000130
 807	8.0197e+01	7.8800	43.397191	0.000365	3.648693	1.236211	-0.000146
 808	8.0296e+01	7.8399	43.231668	0.000416	4.155456	1.407907	-0.000166
 809	8.0396e+01	7.7982	43.058071	0.000436	4.358161	1.476585	-0.000174
 810	8.0496e+01	7.7565	42.945031	0.000284	2.837872	0.961497	-0.000114
 811	8.0595e+01	7.7212	42.755286	0.000476	4.763571	1.613942	-0.000191
 812	8.0695e+01	7.6843	42.622061	0.000334	3.344635	1.133193	-0.000134
 813	8.0794e+01	7.6490	42.440389	0.000456	4.560866	1.545263	-0.000183
 814	8.0894e+01	7.6025	42.286978	0.000385	3.851398	1.304889	-0.000154
 815	8.0993e+01	7.5624	42.129530	0.000395	3.952751	1.339228	-0.000158
 816	8.1093e+01	7.5126	41.976119	0.000385	3.851398	1.304889	-0.000154
 817	8.1192e+01	7.4821	41.830782	0.000365	3.648693	1.236211	-0.000146
 818	8.1291e+01	7.4468	41.693519	0.000345	3.445988	1.167532	-0.000138
 819	8.1391e+01	7.3939	41.475514	0.000547	5.473039	1.854316	-0.000219
 820	8.1490e+01	7.3714	41.301917	0.000436	4.358161	1.476585	-0.000174
 821	8.1590e+01	7.3281	41.180803	0.000304	3.040577	1.030176	-0.000122
 822	8.1689e+01	7.2880	41.015281	0.000416	4.155456	1.407907	-0.000166
 823	8.1789e+01	7.2335	40.849758	0.000416	4.155456	1.407907	-0.000166
 824	8.1888e+01	7.1966	40.684235	0.000416	4.155456	1.407907	-0.000166
 825	8.1988e+01	7.1613	40.534861	0.000375	3.750046	1.270550	-0.000150
 826	8.2088e+01	7.1276	40.345116	0.000476	4.763571	1.613942	-0.000191
 827	8.2187e+01	7.0843	40.207853	0.000345	3.445988	1.167532	-0.000138
 828	8.2287e+01	7.0426	40.058479	0.000375	3.750046	1.270550	-0.000150
 829	8.2386e+01	6.9993	39.844511	0.000537	5.371687	1.819977	-0.000215
 830	8.2486e+01	6.9688	39.699174	0.000365	3.648693	1.236211	-0.000146
 831	8.2585e+01	6.9271	39.569986	0.000324	3.243283	1.098854	-0.000130
 832	8.2684e+01	6.8822	39.360055	0.000527	5.270334	1.785638	-0.000211
 833	8.2784e+01	6.8437	39.206644	0.000385	3.851398	1.304889	-0.000154
 834	8.2883e+01	6.8100	39.033047	0.000436	4.358161	1.476585	-0.000174
 835	8.2983e+01	6.7618	38.883673	0.000375	3.750046	1.270550	-0.000150
 836	8.3082e+01	6.7282	38.706039	0.000446	4.459514	1.510924	-0.000179
 837	8.3182e+01	6.6848	38.552628	0.000385	3.851398	1.304889	-0.000154
 838	8.3281e+01	6.6528	38.379031	0.000436	4.358161	1.476585	-0.000174
 839	8.3381e+01	6.6014	38.193323	0.000466	4.662219	1.579602	-0.000187
 840	8.3481e+01	6.5581	38.031837	0.000405	4.054103	1.373567	-0.000162
 841	8.3580e+01	6.5164	37.858240	0.000436	4.358161	1.476585	-0.000174
 842	8.3680e+01	6.4875	37.660421	0.000497	4.966277	1.682620	-0.000199
 843	8.3779e+01	6.4442	37.531232	0.000324	3.243283	1.098854	-0.000130
 844	8.3879e+01	6.4121	37.393970	0.000345	3.445988	1.167532	-0.000138
 845	8.3978e+01	6.3672	37.171927	0.000557	5.574392	1.888655	-0.000223
 846	8.4078e+01	6.3175	37.006405	0.000416	4.155456	1.407907	-0.000166
 847	8.4177e+01	6.2886	36.865105	0.000355	3.547340	1.201871	-0.000142
 848	8.4276e+01	6.2389	36.671322	0.000486	4.864924	1.648281	-0.000195
 849	8.4376e+01	6.2100	36.501763	0.000426	4.256808	1.442246	-0.000170
 850	8.4475e+01	6.1699	36.295869	0.000517	5.168982	1.751298	-0.000207
 851	8.4575e+01	6.1250	36.162643	0.000334	3.344635	1.133193	-0.000134
 852	8.4674e+01	6.0977	35.989047	0.000436	4.358161	1.476585	-0.000174
 853	8.4774e+01	6.0560	35.819487	0.000426	4.256808	1.442246	-0.000170
 854	8.4874e+01	6.0030	35.617630	0.000507	5.067629	1.716959	-0.000203
 855	8.4973e+01	5.9710	35.468256	0.000375	3.750046	1.270550	-0.000150
 856	8.5073e+01	5.9325	35.290622	0.000446	4.459514	1.510924	-0.000179
 857	8.5172e+01	5.8972	35.104914	0.000466	4.662219	1.579602	-0.000187
 858	8.5272e+01	5.8506	34.943428	0.000405	4.054103	1.373567	-0.000162
 859	8.5371e+01	5.8169	34.737534	0.000517	5.168982	1.751298	-0.000207
 860	8.5471e+01	5.7736	34.572012	0.000416	4.155456	1.407907	-0.000166
 861	8.5570e+01	5.7271	34.418601	0.000385	3.851398	1.304889	-0.000154
 862	8.5669e+01	5.6966	34.297487	0.000304	3.040577	1.030176	-0.000122
 863	8.5769e+01	5.6453	34.083518	0.000537	5.371687	1.819977	-0.000215
 864	8.5868e+01	5.6084	33.837253	0.000618	6.182508	2.094690	-0.000248
 865	8.5968e+01	5.5731	33.699991	0.000345	3.445988	1.167532	-0.000138
 866	8.6067e+01	5.5218	33.526394	0.000436	4.358161	1.476585	-0.000174
 867	8.6167e+01	5.4961	33.356834	0.000426	4.256808	1.442246	-0.000170
 868	8.6266e+01	5.4528	33.187274	0.000426	4.256808	1.442246	-0.000170
 869	8.6366e+01	5.4111	32.993492	0.000486	4.864924	1.648281	-0.000195
 870	8.6466e+01	5.3694	32.791635	0.000507	5.067629	1.716959	-0.000203
 871	8.6565e+01	5.3325	32.678595	0.000284	2.837872	0.961497	-0.000114
 872	8.6665e+01	5.2827	32.456553	0.000557	5.574392	1.888655	-0.000223
 873	8.6764e+01	5.2587	32.299104	0.000395	3.952751	1.339228	-0.000158
 874	8.6864e+01	5.2057	32.101285	0.000497	4.966277	1.682620	-0.000199
 875	8.6963e+01	5.1737	31.972096	0.000324	3.243283	1.098854	-0.000130
 876	8.7063e+01	5.1368	31.762165	0.000527	5.270334	1.785638	-0.000211
 877	8.7162e+01	5.0870	31.560309	0.000507	5.067629	1.716959	-0.000203
 878	8.7261e+01	5.0549	31.390749	0.000426	4.256808	1.442246	-0.000170
 879	8.7361e+01	5.0100	31.213115	0.000446	4.459514	1.510924	-0.000179
 880	8.7460e+01	4.9763	31.043555	0.000426	4.256808	1.442246	-0.000170
 881	8.7560e+01	4.9426	30.837661	0.000517	5.168982	1.751298	-0.000207
 882	8.7659e+01	4.8849	30.635805	0.000507	5.067629	1.716959	-0.000203
 883	8.7759e+01	4.8528	30.433948	0.000507	5.067629	1.716959	-0.000203
 884	8.7859e+01	4.8143	30.296685	0.000345	3.445988	1.167532	-0.000138
 885	8.7958e+01	4.7710	30.102903	0.000486	4.864924	1.648281	-0.000195
 886	8.8058e+01	4.7341	29.945454	0.000395	3.952751	1.339228	-0.000158
 887	8.8157e+01	4.7036	29.727449	0.000547	5.473039	1.854316	-0.000219
 888	8.8257e+01	4.6587	29.549815	0.000446	4.459514	1.510924	-0.000179
 889	8.8356e+01	4.6122	29.351995	0.000497	4.966277	1.682620	-0.000199
 890	8.8456e+01	4.5737	29.174361	0.000446	4.459514	1.510924	-0.000179
 891	8.8555e+01	4.5352	28.992690	0.000456	4.560866	1.545263	-0.000183
 892	8.8654e+01	4.4919	28.794871	0.000497	4.966277	1.682620	-0.000199
 893	8.8754e+01	4.4501	28.605125	0.000476	4.763571	1.613942	-0.000191
 894	8.8853e+01	4.4165	28.395194	0.000527	5.270334	1.785638	-0.000211
 895	8.8953e+01	4.3828	28.241783	0.000385	3.851398	1.304889	-0.000154
 896	8.9052e+01	4.3330	28.056075	0.000466	4.662219	1.579602	-0.000187
 897	8.9152e+01	4.2929	27.838069	0.000547	5.473039	1.854316	-0.000219
 898	8.9251e+01	4.2544	27.680621	0.000395	3.952751	1.339228	-0.000158
 899	8.9351e+01	4.2159	27.458579	0.000557	5.574392	1.888655	-0.000223
 900	8.9451e+01	4.1774	27.280945	0.000446	4.459514	1.510924	-0.000179
 901	8.9550e+01	4.1421	27.115422	0.000416	4.155456	1.407907	-0.000166
 902	8.9650e+01	4.1004	26.901454	0.000537	5.371687	1.819977	-0.000215
 903	8.9749e+01	4.0587	26.711709	0.000476	4.763571	1.613942	-0.000191
 904	8.9849e+01	4.0234	26.538112	0.000436	4.358161	1.476585	-0.000174
 905	8.9948e+01	3.9849	26.291846	0.000618	6.182508	2.094690	-0.000248
 906	9.0047e+01	3.9368	26.118250	0.000436	4.358161	1.476585	-0.000174
 907	9.0147e+01	3.9047	25.904281	0.000537	5.371687	1.819977	-0.000215
 908	9.0246e+01	3.8518	25.742796	0.000405	4.054103	1.373567	-0.000162
 909	9.0346e+01	3.8181	25.516716	0.000568	5.675745	1.922994	-0.000227
 910	9.0445e+01	3.7667	25.343120	0.000436	4.358161	1.476585	-0.000174
 911	9.0545e+01	3.7347	25.185671	0.000395	3.952751	1.339228	-0.000158
 912	9.0644e+01	3.6929	24.931332	0.000639	6.385213	2.163369	-0.000256
 913	9.0744e+01	3.6512	24.773883	0.000395	3.952751	1.339228	-0.000158
 914	9.0844e+01	3.6111	24.576064	0.000497	4.966277	1.682620	-0.000199
 915	9.0943e+01	3.5710	24.354021	0.000557	5.574392	1.888655	-0.000223
 916	9.1043e+01	3.5373	24.160239	0.000486	4.864924	1.648281	-0.000195
 917	9.1142e+01	3.5020	23.986642	0.000436	4.358161	1.476585	-0.000174
 918	9.1242e+01	3.4587	23.796897	0.000476	4.763571	1.613942	-0.000191
 919	9.1341e+01	3.4154	23.578891	0.000547	5.473039	1.854316	-0.000219
 920	9.1441e+01	3.3833	23.360886	0.000547	5.473039	1.854316	-0.000219
 921	9.1540e+01	3.3416	23.187289	0.000436	4.358161	1.476585	-0.000174
 922	9.1639e+01	3.2999	22.993507	0.000486	4.864924	1.648281	-0.000195
 923	9.1739e+01	3.2662	22.759353	0.000588	5.878450	1.991673	-0.000235
 924	9.1838e+01	3.2101	22.573644	0.000466	4.662219	1.579602	-0.000187
 925	9.1938e+01	3.1780	22.420233	0.000385	3.851398	1.304889	-0.000154
 926	9.2037e+01	3.1331	22.210302	0.000527	5.270334	1.785638	-0.000211
 927	9.2137e+01	3.0946	22.016520	0.000486	4.864924	1.648281	-0.000195
 928	9.2237e+01	3.0609	21.822737	0.000486	4.864924	1.648281	-0.000195
 929	9.2336e+01	3.0208	21.584546	0.000598	5.979802	2.026012	-0.000239
 930	9.2436e+01	2.9759	21.382689	0.000507	5.067629	1.716959	-0.000203
 931	9.2535e+01	2.9357	21.184870	0.000497	4.966277	1.682620	-0.000199
 932	9.2635e+01	2.8972	21.003199	0.000456	4.560866	1.545263	-0.000183
 933	9.2734e+01	2.8587	20.805379	0.000497	4.966277	1.682620	-0.000199
 934	9.2834e+01	2.8202	20.599485	0.000517	5.168982	1.751298	-0.000207
 935	9.2933e+01	2.7785	20.389554	0.000527	5.270334	1.785638	-0.000211
 936	9.3032e+01	2.7448	20.211920	0.000446	4.459514	1.510924	-0.000179
 937	9.3132e+01	2.7095	19.957581	0.000639	6.385213	2.163369	-0.000256
 938	9.3231e+01	2.6662	19.788021	0.000426	4.256808	1.442246	-0.000170
 939	9.3331e+01	2.6245	19.533681	0.000639	6.385213	2.163369	-0.000256
 940	9.3430e+01	2.5780	19.380270	0.000385	3.851398	1.304889	-0.000154
 941	9.3530e+01	2.5395	19.170339	0.000527	5.270334	1.785638	-0.000211
 942	9.3629e+01	2.4930	18.956371	0.000537	5.371687	1.819977	-0.000215
 943	9.3729e+01	2.4577	18.746440	0.000527	5.270334	1.785638	-0.000211
 944	9.3829e+01	2.4384	18.516323	0.000578	5.777097	1.957334	-0.000231
 945	9.3928e+01	2.3871	18.354838	0.000405	4.054103	1.373567	-0.000162
 946	9.4028e+01	2.3326	18.136832	0.000547	5.473039	1.854316	-0.000219
 947	9.4127e+01	2.2957	17.862307	0.000689	6.891976	2.335065	-0.000276
 948	9.4227e+01	2.2604	17.688710	0.000436	4.358161	1.476585	-0.000174
 949	9.4326e+01	2.2235	17.474742	0.000537	5.371687	1.819977	-0.000215
 950	9.4425e+01	2.1882	17.248662	0.000568	5.675745	1.922994	-0.000227
 951	9.4525e+01	2.1433	17.046806	0.000507	5.067629	1.716959	-0.000203
 952	9.4624e+01	2.1015	16.812652	0.000588	5.878450	1.991673	-0.000235
 953	9.4724e+01	2.0630	16.562349	0.000628	6.283860	2.129029	-0.000252
 954	9.4823e+01	2.0181	16.417012	0.000365	3.648693	1.236211	-0.000146
 955	9.4923e+01	1.9876	16.186896	0.000578	5.777097	1.957334	-0.000231
 956	9.5022e+01	1.9411	15.940630	0.000618	6.182508	2.094690	-0.000248
 957	9.5122e+01	1.9122	15.742811	0.000497	4.966277	1.682620	-0.000199
 958	9.5222e+01	1.8577	15.528843	0.000537	5.371687	1.819977	-0.000215
 959	9.5321e+01	1.8256	15.326986	0.000507	5.067629	1.716959	-0.000203
 960	9.5421e+01	1.7839	15.088795	0.000598	5.979802	2.026012	-0.000239
 961	9.5520e+01	1.7422	14.886938	0.000507	5.067629	1.716959	-0.000203
 962	9.5620e+01	1.7005	14.681044	0.000517	5.168982	1.751298	-0.000207
 963	9.5719e+01	1.6652	14.442853	0.000598	5.979802	2.026012	-0.000239
 964	9.5819e+01	1.6267	14.196588	0.000618	6.182508	2.094690	-0.000248
 965	9.5918e+01	1.5850	14.022991	0.000436	4.358161	1.476585	-0.000174
 966	9.6017e+01	1.5385	13.792874	0.000578	5.777097	1.957334	-0.000231
 967	9.6117e+01	1.5112	13.538535	0.000639	6.385213	2.163369	-0.000256
 968	9.6216e+01	1.4566	13.324567	0.000537	5.371687	1.819977	-0.000215
 969	9.6316e+01	1.4181	13.138858	0.000466	4.662219	1.579602	-0.000187
 970	9.6415e+01	1.3877	12.916816	0.000557	5.574392	1.888655	-0.000223
 971	9.6515e+01	1.3411	12.670551	0.000618	6.182508	2.094690	-0.000248
 972	9.6615e+01	1.3123	12.444471	0.000568	5.675745	1.922994	-0.000227
 973	9.6714e+01	1.2706	12.234540	0.000527	5.270334	1.785638	-0.000211
 974	9.6814e+01	1.2272	11.988275	0.000618	6.182508	2.094690	-0.000248
 975	9.6913e+01	1.1871	11.794492	0.000486	4.864924	1.648281	-0.000195
 976	9.7013e+01	1.1486	11.528041	0.000669	6.689270	2.266386	-0.000268
 977	9.7112e+01	1.0909	11.273702	0.000639	6.385213	2.163369	-0.000256
 978	9.7212e+01	1.0684	11.063770	0.000527	5.270334	1.785638	-0.000211
 979	9.7311e+01	1.0187	10.845765	0.000547	5.473039	1.854316	-0.000219
 980	9.7410e+01	0.9946	10.668131	0.000446	4.459514	1.510924	-0.000179
 981	9.7510e+01	0.9465	10.417829	0.000628	6.283860	2.129029	-0.000252
 982	9.7609e+01	0.9064	10.135229	0.000709	7.094681	2.403743	-0.000284
 983	9.7709e+01	0.8647	9.945484	0.000476	4.763571	1.613942	-0.000191
 984	9.7808e+01	0.8294	9.763813	0.000456	4.560866	1.545263	-0.000183
 985	9.7908e+01	0.7829	9.505436	0.000649	6.486565	2.197708	-0.000260
 986	9.8007e+01	0.7444	9.283394	0.000557	5.574392	1.888655	-0.000223
 987	9.8107e+01	0.7010	9.004831	0.000699	6.993328	2.369404	-0.000280
 988	9.8207e+01	0.6658	8.802974	0.000507	5.067629	1.716959	-0.000203
 989	9.8306e+01	0.6305	8.589006	0.000537	5.371687	1.819977	-0.000215
 990	9.8406e+01	0.5904	8.342741	0.000618	6.182508	2.094690	-0.000248
 991	9.8505e+01	0.5535	8.084364	0.000649	6.486565	2.197708	-0.000260
 992	9.8605e+01	0.5150	7.862322	0.000557	5.574392	1.888655	-0.000223
 993	9.8704e+01	0.4749	7.644317	0.000547	5.473039	1.854316	-0.000219
 994	9.8803e+01	0.4315	7.373828	0.000679	6.790623	2.300725	-0.000272
 995	9.8903e+01	0.3882	7.163897	0.000527	5.270334	1.785638	-0.000211
 996	9.9002e+01	0.3433	6.905521	0.000649	6.486565	2.197708	-0.000260
 997	9.9102e+01	0.3160	6.687515	0.000547	5.473039	1.854316	-0.000219
 998	9.9201e+01	0.2791	6.469510	0.000547	5.473039	1.854316	-0.000219
 999	9.9301e+01	0.2294	6.239393	0.000578	5.777097	1.957334	-0.000231
1000	9.9400e+01	0.1861	5.985054	0.000639	6.385213	2.163369	-0.000256
1001	9.9500e+01	0.1476	5.706491	0.000699	6.993328	2.369404	-0.000280
1002	9.9600e+01	0.1107	5.480412	0.000568	5.675745	1.922994	-0.000227
1003	9.9699e+01	0.0642	5.306815	0.000436	4.358161	1.476585	-0.000174
1004	9.9799e+01	0.0353	5.040364	0.000669	6.689270	2.266386	-0.000268
1005	9.9898e+01	0.0032	4.838507	0.000507	5.067629	1.716959	-0.000203
1006	9.9998e+01	-0.0465	4.592242	0.000618	6.182508	2.094690	-0.000248
1007	1.0010e+02	-0.0802	4.345977	0.000618	6.182508	2.094690	-0.000248
1008	1.0020e+02	-0.1219	4.083563	0.000659	6.587918	2.232047	-0.000264
1009	1.0030e+02	-0.1684	3.873632	0.000527	5.270334	1.785638	-0.000211
1010	1.0040e+02	-0.1989	3.591032	0.000709	7.094681	2.403743	-0.000284
1011	1.0050e+02	-0.2487	3.344767	0.000618	6.182508	2.094690	-0.000248
1012	1.0059e+02	-0.2727	3.114650	0.000578	5.777097	1.957334	-0.000231
1013	1.0069e+02	-0.3257	2.876459	0.000598	5.979802	2.026012	-0.000239
1014	1.0079e+02	-0.3561	2.654417	0.000557	5.574392	1.888655	-0.000223
1015	1.0089e+02	-0.3962	2.408151	0.000618	6.182508	2.094690	-0.000248
1016	1.0099e+02	-0.4364	2.121515	0.000720	7.196033	2.438082	-0.000288
1017	1.0109e+02	-0.4829	1.907547	0.000537	5.371687	1.819977	-0.000215
1018	1.0119e+02	-0.5134	1.673393	0.000588	5.878450	1.991673	-0.000235
1019	1.0129e+02	-0.5567	1.406942	0.000669	6.689270	2.266386	-0.000268
1020	1.0139e+02	-0.5888	1.140491	0.000669	6.689270	2.266386	-0.000268
1021	1.0149e+02	-0.6401	0.926523	0.000537	5.371687	1.819977	-0.000215
1022	1.0159e+02	-0.6802	0.660072	0.000669	6.689270	2.266386	-0.000268
1023	1.0169e+02	-0.7155	0.413806	0.000618	6.182508	2.094690	-0.000248
1024	1.0179e+02	-0.7668	0.175615	0.000598	5.979802	2.026012	-0.000239
1025	1.0189e+02	-0.7925	-0.050464	0.000568	5.675745	1.922994	-0.000227
1026	1.0199e+02	-0.8358	-0.304804	0.000639	6.385213	2.163369	-0.000256
1027	1.0209e+02	-0.8839	-0.542995	0.000598	5.979802	2.026012	-0.000239
1028	1.0219e+02	-0.9112	-0.805409	0.000659	6.587918	2.232047	-0.000264
1029	1.0229e+02	-0.9674	-1.039562	0.000588	5.878450	1.991673	-0.000235
1030	1.0239e+02	-0.9946	-1.281791	0.000608	6.081155	2.060351	-0.000243
1031	1.0248e+02	-1.0347	-1.556316	0.000689	6.891976	2.335065	-0.000276
1032	1.0258e+02	-1.0796	-1.798544	0.000608	6.081155	2.060351	-0.000243
1033	1.0268e+02	-1.1117	-2.040772	0.000608	6.081155	2.060351	-0.000243
1034	1.0278e+02	-1.1550	-2.291075	0.000628	6.283860	2.129029	-0.000252
1035	1.0288e+02	-1.2016	-2.509080	0.000547	5.473039	1.854316	-0.000219
1036	1.0298e+02	-1.2401	-2.747271	0.000598	5.979802	2.026012	-0.000239
1037	1.0308e+02	-1.2689	-3.025833	0.000699	6.993328	2.369404	-0.000280
1038	1.0318e+02	-1.3235	-3.247876	0.000557	5.574392	1.888655	-0.000223
1039	1.0328e+02	-1.3572	-3.482030	0.000588	5.878450	1.991673	-0.000235
1040	1.0338e+02	-1.3973	-3.764629	0.000709	7.094681	2.403743	-0.000284
1041	1.0348e+02	-1.4390	-3.982634	0.000547	5.473039	1.854316	-0.000219
1042	1.0358e+02	-1.4775	-4.245048	0.000659	6.587918	2.232047	-0.000264
1043	1.0368e+02	-1.5128	-4.459016	0.000537	5.371687	1.819977	-0.000215
1044	1.0378e+02	-1.5609	-4.717393	0.000649	6.486565	2.197708	-0.000260
1045	1.0388e+02	-1.6058	-4.951547	0.000588	5.878450	1.991673	-0.000235
1046	1.0398e+02	-1.6235	-5.185701	0.000588	5.878450	1.991673	-0.000235
1047	1.0408e+02	-1.6748	-5.452152	0.000669	6.689270	2.266386	-0.000268
1048	1.0418e+02	-1.7133	-5.670157	0.000547	5.473039	1.854316	-0.000219
1049	1.0428e+02	-1.7534	-5.908348	0.000598	5.979802	2.026012	-0.000239
1050	1.0438e+02	-1.7951	-6.162688	0.000639	6.385213	2.163369	-0.000256
1051	1.0447e+02	-1.8320	-6.396842	0.000588	5.878450	1.991673	-0.000235
1052	1.0457e+02	-1.8802	-6.655218	0.000649	6.486565	2.197708	-0.000260
1053	1.0467e+02	-1.9203	-6.901484	0.000618	6.182508	2.094690	-0.000248
1054	1.0477e+02	-1.9636	-7.123526	0.000557	5.574392	1.888655	-0.000223
1055	1.0487e+02	-1.9973	-7.373828	0.000628	6.283860	2.129029	-0.000252
1056	1.0497e+02	-2.0278	-7.591834	0.000547	5.473039	1.854316	-0.000219
1057	1.0507e+02	-2.0759	-7.846173	0.000639	6.385213	2.163369	-0.000256
1058	1.0517e+02	-2.1096	-8.092439	0.000618	6.182508	2.094690	-0.000248
1059	1.0527e+02	-2.1577	-8.274110	0.000456	4.560866	1.545263	-0.000183
1060	1.0537e+02	-2.1946	-8.548635	0.000689	6.891976	2.335065	-0.000276
1061	1.0547e+02	-2.2379	-8.798937	0.000628	6.283860	2.129029	-0.000252
1062	1.0557e+02	-2.2732	-9.020980	0.000557	5.574392	1.888655	-0.000223
1063	1.0567e+02	-2.3101	-9.251097	0.000578	5.777097	1.957334	-0.000231
1064	1.0577e+02	-2.3566	-9.509473	0.000649	6.486565	2.197708	-0.000260
1065	1.0587e+02	-2.3951	-9.727479	0.000547	5.473039	1.854316	-0.000219
1066	1.0597e+02	-2.4352	-9.937410	0.000527	5.270334	1.785638	-0.000211
1067	1.0607e+02	-2.4721	-10.211935	0.000689	6.891976	2.335065	-0.000276
1068	1.0617e+02	-2.5154	-10.429940	0.000547	5.473039	1.854316	-0.000219
1069	1.0627e+02	-2.5555	-10.692354	0.000659	6.587918	2.232047	-0.000264
1070	1.0637e+02	-2.5892	-10.898248	0.000517	5.168982	1.751298	-0.000207
1071	1.0647e+02	-2.6374	-11.124328	0.000568	5.675745	1.922994	-0.000227
1072	1.0656e+02	-2.6694	-11.358481	0.000588	5.878450	1.991673	-0.000235
1073	1.0666e+02	-2.7144	-11.572450	0.000537	5.371687	1.819977	-0.000215
1074	1.0676e+02	-2.7529	-11.786418	0.000537	5.371687	1.819977	-0.000215
1075	1.0686e+02	-2.7914	-12.020572	0.000588	5.878450	1.991673	-0.000235
1076	1.0696e+02	-2.8315	-12.282985	0.000659	6.587918	2.232047	-0.000264
1077	1.0706e+02	-2.8732	-12.484842	0.000507	5.067629	1.716959	-0.000203
1078	1.0716e+02	-2.9101	-12.698810	0.000537	5.371687	1.819977	-0.000215
1079	1.0726e+02	-2.9582	-12.957187	0.000649	6.486565	2.197708	-0.000260
1080	1.0736e+02	-2.9839	-13.163081	0.000517	5.168982	1.751298	-0.000207
1081	1.0746e+02	-3.0368	-13.445681	0.000709	7.094681	2.403743	-0.000284
1082	1.0756e+02	-3.0737	-13.619277	0.000436	4.358161	1.476585	-0.000174
1083	1.0766e+02	-3.1122	-13.849394	0.000578	5.777097	1.957334	-0.000231
1084	1.0776e+02	-3.1619	-14.047214	0.000497	4.966277	1.682620	-0.000199
1085	1.0786e+02	-3.1940	-14.253108	0.000517	5.168982	1.751298	-0.000207
1086	1.0796e+02	-3.2229	-14.515522	0.000659	6.587918	2.232047	-0.000264
1087	1.0806e+02	-3.2758	-14.765824	0.000628	6.283860	2.129029	-0.000252
1088	1.0816e+02	-3.3079	-14.947495	0.000456	4.560866	1.545263	-0.000183
1089	1.0826e+02	-3.3448	-15.165500	0.000547	5.473039	1.854316	-0.000219
1090	1.0836e+02	-3.3865	-15.343134	0.000446	4.459514	1.510924	-0.000179
1091	1.0845e+02	-3.4298	-15.617660	0.000689	6.891976	2.335065	-0.000276
1092	1.0855e+02	-3.4667	-15.787219	0.000426	4.256808	1.442246	-0.000170
1093	1.0865e+02	-3.5052	-16.029447	0.000608	6.081155	2.060351	-0.000243
1094	1.0875e+02	-3.5502	-16.215156	0.000466	4.662219	1.579602	-0.000187
1095	1.0885e+02	-3.5967	-16.441235	0.000568	5.675745	1.922994	-0.000227
1096	1.0895e+02	-3.6272	-16.626944	0.000466	4.662219	1.579602	-0.000187
1097	1.0905e+02	-3.6737	-16.857060	0.000578	5.777097	1.957334	-0.000231
1098	1.0915e+02	-3.7026	-17.131586	0.000689	6.891976	2.335065	-0.000276
1099	1.0925e+02	-3.7491	-17.284997	0.000385	3.851398	1.304889	-0.000154
1100	1.0935e+02	-3.7892	-17.498965	0.000537	5.371687	1.819977	-0.000215
1101	1.0945e+02	-3.8245	-17.721007	0.000557	5.574392	1.888655	-0.000223
1102	1.0955e+02	-3.8662	-17.906716	0.000466	4.662219	1.579602	-0.000187
1103	1.0965e+02	-3.9143	-18.132795	0.000568	5.675745	1.922994	-0.000227
1104	1.0975e+02	-3.9352	-18.330615	0.000497	4.966277	1.682620	-0.000199
1105	1.0985e+02	-3.9849	-18.544583	0.000537	5.371687	1.819977	-0.000215
1106	1.0995e+02	-4.0330	-18.734328	0.000476	4.763571	1.613942	-0.000191
1107	1.1005e+02	-4.0683	-18.940222	0.000517	5.168982	1.751298	-0.000207
1108	1.1015e+02	-4.1084	-19.170339	0.000578	5.777097	1.957334	-0.000231
1109	1.1025e+02	-4.1502	-19.372196	0.000507	5.067629	1.716959	-0.000203
1110	1.1035e+02	-4.1919	-19.574053	0.000507	5.067629	1.716959	-0.000203
1111	1.1044e+02	-4.2288	-19.759761	0.000466	4.662219	1.579602	-0.000187
1112	1.1054e+02	-4.2624	-19.961618	0.000507	5.067629	1.716959	-0.000203
1113	1.1064e+02	-4.3138	-20.183660	0.000557	5.574392	1.888655	-0.000223
1114	1.1074e+02	-4.3603	-20.401665	0.000547	5.473039	1.854316	-0.000219
1115	1.1084e+02	-4.3796	-20.575262	0.000436	4.358161	1.476585	-0.000174
1116	1.1094e+02	-4.4213	-20.801342	0.000568	5.675745	1.922994	-0.000227
1117	1.1104e+02	-4.4694	-20.987050	0.000466	4.662219	1.579602	-0.000187
1118	1.1114e+02	-4.5111	-21.192944	0.000517	5.168982	1.751298	-0.000207
1119	1.1124e+02	-4.5496	-21.406912	0.000537	5.371687	1.819977	-0.000215
1120	1.1134e+02	-4.5801	-21.604732	0.000497	4.966277	1.682620	-0.000199
1121	1.1144e+02	-4.6314	-21.786403	0.000456	4.560866	1.545263	-0.000183
1122	1.1154e+02	-4.6683	-21.927703	0.000355	3.547340	1.201871	-0.000142
1123	1.1164e+02	-4.7004	-22.190117	0.000659	6.587918	2.232047	-0.000264
1124	1.1174e+02	-4.7485	-22.375825	0.000466	4.662219	1.579602	-0.000187
1125	1.1184e+02	-4.7918	-22.533273	0.000395	3.952751	1.339228	-0.000158
1126	1.1194e+02	-4.8223	-22.747241	0.000537	5.371687	1.819977	-0.000215
1127	1.1204e+02	-4.8624	-22.965247	0.000547	5.473039	1.854316	-0.000219
1128	1.1214e+02	-4.9025	-23.171141	0.000517	5.168982	1.751298	-0.000207
1129	1.1224e+02	-4.9410	-23.356849	0.000466	4.662219	1.579602	-0.000187
1130	1.1234e+02	-4.9827	-23.582928	0.000568	5.675745	1.922994	-0.000227
1131	1.1244e+02	-5.0212	-23.776711	0.000486	4.864924	1.648281	-0.000195
1132	1.1253e+02	-5.0581	-23.942233	0.000416	4.155456	1.407907	-0.000166
1133	1.1263e+02	-5.0999	-24.123905	0.000456	4.560866	1.545263	-0.000183
1134	1.1273e+02	-5.1368	-24.345947	0.000557	5.574392	1.888655	-0.000223
1135	1.1283e+02	-5.1833	-24.531655	0.000466	4.662219	1.579602	-0.000187
1136	1.1293e+02	-5.2282	-24.717364	0.000466	4.662219	1.579602	-0.000187
1137	1.1303e+02	-5.2523	-24.899035	0.000456	4.560866	1.545263	-0.000183
1138	1.1313e+02	-5.2972	-25.084743	0.000466	4.662219	1.579602	-0.000187
1139	1.1323e+02	-5.3501	-25.282563	0.000497	4.966277	1.682620	-0.000199
1140	1.1333e+02	-5.3854	-25.480382	0.000497	4.966277	1.682620	-0.000199
1141	1.1343e+02	-5.4287	-25.670128	0.000476	4.763571	1.613942	-0.000191
1142	1.1353e+02	-5.4512	-25.888133	0.000547	5.473039	1.854316	-0.000219
1143	1.1363e+02	-5.4993	-26.013284	0.000314	3.141930	1.064515	-0.000126
1144	1.1373e+02	-5.5410	-26.251475	0.000598	5.979802	2.026012	-0.000239
1145	1.1383e+02	-5.5875	-26.441221	0.000476	4.763571	1.613942	-0.000191
1146	1.1393e+02	-5.6228	-26.614817	0.000436	4.358161	1.476585	-0.000174
1147	1.1403e+02	-5.6662	-26.808600	0.000486	4.864924	1.648281	-0.000195
1148	1.1413e+02	-5.6966	-26.986234	0.000446	4.459514	1.510924	-0.000179
1149	1.1423e+02	-5.7415	-27.175979	0.000476	4.763571	1.613942	-0.000191
1150	1.1433e+02	-5.7865	-27.337465	0.000405	4.054103	1.373567	-0.000162
1151	1.1442e+02	-5.8186	-27.527210	0.000476	4.763571	1.613942	-0.000191
1152	1.1452e+02	-5.8571	-27.729067	0.000507	5.067629	1.716959	-0.000203
1153	1.1462e+02	-5.9020	-27.926886	0.000497	4.966277	1.682620	-0.000199
1154	1.1472e+02	-5.9421	-28.092409	0.000416	4.155456	1.407907	-0.000166
1155	1.1482e+02	-5.9774	-28.266006	0.000436	4.358161	1.476585	-0.000174
1156	1.1492e+02	-6.0207	-28.455751	0.000476	4.763571	1.613942	-0.000191
1157	1.1502e+02	-6.0576	-28.633385	0.000446	4.459514	1.510924	-0.000179
1158	1.1512e+02	-6.0977	-28.843316	0.000527	5.270334	1.785638	-0.000211
1159	1.1522e+02	-6.1378	-28.980579	0.000345	3.445988	1.167532	-0.000138
1160	1.1532e+02	-6.1811	-29.178399	0.000497	4.966277	1.682620	-0.000199
1161	1.1542e+02	-6.2308	-29.356033	0.000446	4.459514	1.510924	-0.000179
1162	1.1552e+02	-6.2645	-29.553852	0.000497	4.966277	1.682620	-0.000199
1163	1.1562e+02	-6.3094	-29.743598	0.000476	4.763571	1.613942	-0.000191
1164	1.1572e+02	-6.3303	-29.897009	0.000385	3.851398	1.304889	-0.000154
1165	1.1582e+02	-6.3800	-30.106940	0.000527	5.270334	1.785638	-0.000211
1166	1.1592e+02	-6.4137	-30.264388	0.000395	3.952751	1.339228	-0.000158
1167	1.1602e+02	-6.4635	-30.401651	0.000345	3.445988	1.167532	-0.000138
1168	1.1612e+02	-6.4875	-30.595433	0.000486	4.864924	1.648281	-0.000195
1169	1.1622e+02	-6.5324	-30.797290	0.000507	5.067629	1.716959	-0.000203
1170	1.1632e+02	-6.5822	-30.966850	0.000426	4.256808	1.442246	-0.000170
1171	1.1642e+02	-6.6126	-31.108149	0.000355	3.547340	1.201871	-0.000142
1172	1.1651e+02	-6.6528	-31.330192	0.000557	5.574392	1.888655	-0.000223
1173	1.1661e+02	-6.6913	-31.523974	0.000486	4.864924	1.648281	-0.000195
1174	1.1671e+02	-6.7330	-31.705646	0.000456	4.560866	1.545263	-0.000183
1175	1.1681e+02	-6.7795	-31.863094	0.000395	3.952751	1.339228	-0.000158
1176	1.1691e+02	-6.8180	-32.028616	0.000416	4.155456	1.407907	-0.000166
1177	1.1701e+02	-6.8517	-32.218362	0.000476	4.763571	1.613942	-0.000191
1178	1.1711e+02	-6.8998	-32.400033	0.000456	4.560866	1.545263	-0.000183
1179	1.1721e+02	-6.9319	-32.630150	0.000578	5.777097	1.957334	-0.000231
1180	1.1731e+02	-6.9720	-32.767412	0.000345	3.445988	1.167532	-0.000138
1181	1.1741e+02	-7.0137	-32.932935	0.000416	4.155456	1.407907	-0.000166
1182	1.1751e+02	-7.0538	-33.078272	0.000365	3.648693	1.236211	-0.000146
1183	1.1761e+02	-7.0891	-33.268017	0.000476	4.763571	1.613942	-0.000191
1184	1.1771e+02	-7.1276	-33.437577	0.000426	4.256808	1.442246	-0.000170
1185	1.1781e+02	-7.1822	-33.651545	0.000537	5.371687	1.819977	-0.000215
1186	1.1791e+02	-7.2126	-33.800919	0.000375	3.750046	1.270550	-0.000150
1187	1.1801e+02	-7.2527	-33.982590	0.000456	4.560866	1.545263	-0.000183
1188	1.1811e+02	-7.2961	-34.148113	0.000416	4.155456	1.407907	-0.000166
1189	1.1821e+02	-7.3329	-34.321709	0.000436	4.358161	1.476585	-0.000174
1190	1.1831e+02	-7.3747	-34.519529	0.000497	4.966277	1.682620	-0.000199
1191	1.1841e+02	-7.4067	-34.660829	0.000355	3.547340	1.201871	-0.000142
1192	1.1850e+02	-7.4565	-34.798091	0.000345	3.445988	1.167532	-0.000138
1193	1.1860e+02	-7.4966	-35.020134	0.000557	5.574392	1.888655	-0.000223
1194	1.1870e+02	-7.5303	-35.177582	0.000395	3.952751	1.339228	-0.000158
1195	1.1880e+02	-7.5672	-35.387513	0.000527	5.270334	1.785638	-0.000211
1196	1.1890e+02	-7.6057	-35.508627	0.000304	3.040577	1.030176	-0.000122
1197	1.1900e+02	-7.6522	-35.698373	0.000476	4.763571	1.613942	-0.000191
1198	1.1910e+02	-7.6923	-35.876007	0.000446	4.459514	1.510924	-0.000179
1199	1.1920e+02	-7.7340	-36.025381	0.000375	3.750046	1.270550	-0.000150
1200	1.1930e+02	-7.7693	-36.219163	0.000486	4.864924	1.648281	-0.000195
1201	1.1940e+02	-7.8206	-36.372574	0.000385	3.851398	1.304889	-0.000154
1202	1.1950e+02	-7.8399	-36.530023	0.000395	3.952751	1.339228	-0.000158
1203	1.1960e+02	-7.8928	-36.719768	0.000476	4.763571	1.613942	-0.000191
1204	1.1970e+02	-7.9249	-36.857031	0.000345	3.445988	1.167532	-0.000138
1205	1.1980e+02	-7.9618	-37.042739	0.000466	4.662219	1.579602	-0.000187
1206	1.1990e+02	-8.0115	-37.192113	0.000375	3.750046	1.270550	-0.000150
1207	1.2000e+02	-8.0565	-37.398007	0.000517	5.168982	1.751298	-0.000207
1208	1.2010e+02	-8.0998	-37.563529	0.000416	4.155456	1.407907	-0.000166
1209	1.2020e+02	-8.1270	-37.712903	0.000375	3.750046	1.270550	-0.000150
1210	1.2030e+02	-8.1655	-37.838055	0.000314	3.141930	1.064515	-0.000126
1211	1.2039e+02	-8.2169	-38.072209	0.000588	5.878450	1.991673	-0.000235
1212	1.2049e+02	-8.2522	-38.189286	0.000294	2.939225	0.995836	-0.000118
1213	1.2059e+02	-8.2923	-38.379031	0.000476	4.763571	1.613942	-0.000191
1214	1.2069e+02	-8.3324	-38.564739	0.000466	4.662219	1.579602	-0.000187
1215	1.2079e+02	-8.3725	-38.677779	0.000284	2.837872	0.961497	-0.000114
1216	1.2089e+02	-8.4126	-38.867524	0.000476	4.763571	1.613942	-0.000191
1217	1.2099e+02	-8.4479	-39.057270	0.000476	4.763571	1.613942	-0.000191
1218	1.2109e+02	-8.4896	-39.214718	0.000395	3.952751	1.339228	-0.000158
1219	1.2119e+02	-8.5393	-39.347943	0.000334	3.344635	1.133193	-0.000134
1220	1.2129e+02	-8.5634	-39.501355	0.000385	3.851398	1.304889	-0.000154
1221	1.2139e+02	-8.6051	-39.666877	0.000416	4.155456	1.407907	-0.000166
1222	1.2149e+02	-8.6548	-39.868734	0.000507	5.067629	1.716959	-0.000203
1223	1.2159e+02	-8.6805	-40.030219	0.000405	4.054103	1.373567	-0.000162
1224	1.2169e+02	-8.7334	-40.147296	0.000294	2.939225	0.995836	-0.000118
1225	1.2179e+02	-8.7719	-40.345116	0.000497	4.966277	1.682620	-0.000199
1226	1.2189e+02	-8.8056	-40.510639	0.000416	4.155456	1.407907	-0.000166
1227	1.2199e+02	-8.8538	-40.611567	0.000253	2.533815	0.858480	-0.000101
1228	1.2209e+02	-8.8923	-40.793238	0.000456	4.560866	1.545263	-0.000183
1229	1.2219e+02	-8.9276	-41.011243	0.000547	5.473039	1.854316	-0.000219
1230	1.2229e+02	-8.9709	-41.128320	0.000294	2.939225	0.995836	-0.000118
1231	1.2239e+02	-8.9997	-41.322103	0.000486	4.864924	1.648281	-0.000195
1232	1.2248e+02	-9.0463	-41.447254	0.000314	3.141930	1.064515	-0.000126
1233	1.2258e+02	-9.0896	-41.628925	0.000456	4.560866	1.545263	-0.000183
1234	1.2268e+02	-9.1329	-41.782336	0.000385	3.851398	1.304889	-0.000154
1235	1.2278e+02	-9.1666	-41.959970	0.000446	4.459514	1.510924	-0.000179
1236	1.2288e+02	-9.2083	-42.097233	0.000345	3.445988	1.167532	-0.000138
1237	1.2298e+02	-9.2452	-42.258718	0.000405	4.054103	1.373567	-0.000162
1238	1.2308e+02	-9.2805	-42.395981	0.000345	3.445988	1.167532	-0.000138
1239	1.2318e+02	-9.3270	-42.589763	0.000486	4.864924	1.648281	-0.000195
1240	1.2328e+02	-9.3623	-42.739137	0.000375	3.750046	1.270550	-0.000150
1241	1.2338e+02	-9.4056	-42.920809	0.000456	4.560866	1.545263	-0.000183
1242	1.2348e+02	-9.4505	-43.062108	0.000355	3.547340	1.201871	-0.000142
1243	1.2358e+02	-9.4810	-43.207445	0.000365	3.648693	1.236211	-0.000146
1244	1.2368e+02	-9.5227	-43.397191	0.000476	4.763571	1.613942	-0.000191
1245	1.2378e+02	-9.5612	-43.542528	0.000365	3.648693	1.236211	-0.000146
1246	1.2388e+02	-9.6045	-43.667679	0.000314	3.141930	1.064515	-0.000126
1247	1.2398e+02	-9.6527	-43.845313	0.000446	4.459514	1.510924	-0.000179
1248	1.2408e+02	-9.6864	-43.982575	0.000345	3.445988	1.167532	-0.000138
1249	1.2418e+02	-9.7233	-44.180395	0.000497	4.966277	1.682620	-0.000199
1250	1.2428e+02	-9.7666	-44.337843	0.000395	3.952751	1.339228	-0.000158
1251	1.2438e+02	-9.8003	-44.442809	0.000264	2.635167	0.892819	-0.000105
1252	1.2447e+02	-9.8291	-44.576034	0.000334	3.344635	1.133193	-0.000134
1253	1.2457e+02	-9.8853	-44.749631	0.000436	4.358161	1.476585	-0.000174
1254	1.2467e+02	-9.9270	-44.943414	0.000486	4.864924	1.648281	-0.000195
1255	1.2477e+02	-9.9623	-45.100862	0.000395	3.952751	1.339228	-0.000158
1256	1.2487e+02	-10.0056	-45.217939	0.000294	2.939225	0.995836	-0.000118
1257	1.2497e+02	-10.0409	-45.355201	0.000345	3.445988	1.167532	-0.000138
1258	1.2507e+02	-10.0842	-45.524761	0.000426	4.256808	1.442246	-0.000170
1259	1.2517e+02	-10.1243	-45.674135	0.000375	3.750046	1.270550	-0.000150
1260	1.2527e+02	-10.1612	-45.843695	0.000426	4.256808	1.442246	-0.000170
1261	1.2537e+02	-10.2029	-46.021329	0.000446	4.459514	1.510924	-0.000179
1262	1.2547e+02	-10.2446	-46.166666	0.000365	3.648693	1.236211	-0.000146
1263	1.2557e+02	-10.2831	-46.275668	0.000274	2.736520	0.927158	-0.000110
1264	1.2567e+02	-10.3297	-46.429080	0.000385	3.851398	1.304889	-0.000154
1265	1.2577e+02	-10.3505	-46.582491	0.000385	3.851398	1.304889	-0.000154
1266	1.2587e+02	-10.3970	-46.731865	0.000375	3.750046	1.270550	-0.000150
1267	1.2597e+02	-10.4484	-46.857016	0.000314	3.141930	1.064515	-0.000126
1268	1.2607e+02	-10.4740	-47.046761	0.000476	4.763571	1.613942	-0.000191
1269	1.2617e+02	-10.5190	-47.167875	0.000304	3.040577	1.030176	-0.000122
1270	1.2627e+02	-10.5687	-47.325324	0.000395	3.952751	1.339228	-0.000158
1271	1.2636e+02	-10.5944	-47.462586	0.000345	3.445988	1.167532	-0.000138
1272	1.2646e+02	-10.6457	-47.603886	0.000355	3.547340	1.201871	-0.000142
1273	1.2656e+02	-10.6810	-47.777483	0.000436	4.358161	1.476585	-0.000174
1274	1.2666e+02	-10.7115	-47.906671	0.000324	3.243283	1.098854	-0.000130
1275	1.2676e+02	-10.7516	-48.052008	0.000365	3.648693	1.236211	-0.000146
1276	1.2686e+02	-10.8029	-48.229642	0.000446	4.459514	1.510924	-0.000179
1277	1.2696e+02	-10.8414	-48.407276	0.000446	4.459514	1.510924	-0.000179
1278	1.2706e+02	-10.8831	-48.512242	0.000264	2.635167	0.892819	-0.000105
1279	1.2716e+02	-10.9200	-48.645467	0.000334	3.344635	1.133193	-0.000134
1280	1.2726e+02	-10.9681	-48.806953	0.000405	4.054103	1.373567	-0.000162
1281	1.2736e+02	-11.0034	-48.972475	0.000416	4.155456	1.407907	-0.000166
1282	1.2746e+02	-11.0355	-49.085515	0.000284	2.837872	0.961497	-0.000114
1283	1.2756e+02	-11.0740	-49.242963	0.000395	3.952751	1.339228	-0.000158
1284	1.2766e+02	-11.1221	-49.384263	0.000355	3.547340	1.201871	-0.000142
1285	1.2776e+02	-11.1574	-49.537674	0.000385	3.851398	1.304889	-0.000154
1286	1.2786e+02	-11.1927	-49.715308	0.000446	4.459514	1.510924	-0.000179
1287	1.2796e+02	-11.2393	-49.880831	0.000416	4.155456	1.407907	-0.000166
1288	1.2806e+02	-11.2794	-49.977722	0.000243	2.432462	0.824140	-0.000097
1289	1.2816e+02	-11.3243	-50.135170	0.000395	3.952751	1.339228	-0.000158
1290	1.2826e+02	-11.3612	-50.276470	0.000355	3.547340	1.201871	-0.000142
1291	1.2835e+02	-11.3917	-50.389510	0.000284	2.837872	0.961497	-0.000114
1292	1.2845e+02	-11.4366	-50.542921	0.000385	3.851398	1.304889	-0.000154
1293	1.2855e+02	-11.4767	-50.748815	0.000517	5.168982	1.751298	-0.000207
1294	1.2865e+02	-11.5264	-50.865892	0.000294	2.939225	0.995836	-0.000118
1295	1.2875e+02	-11.5649	-51.019303	0.000385	3.851398	1.304889	-0.000154
1296	1.2885e+02	-11.5922	-51.128306	0.000274	2.736520	0.927158	-0.000110
1297	1.2895e+02	-11.6387	-51.277680	0.000375	3.750046	1.270550	-0.000150
1298	1.2905e+02	-11.6724	-51.471462	0.000486	4.864924	1.648281	-0.000195
1299	1.2915e+02	-11.7141	-51.620836	0.000375	3.750046	1.270550	-0.000150
1300	1.2925e+02	-11.7622	-51.705616	0.000213	2.128404	0.721123	-0.000085
1301	1.2935e+02	-11.7943	-51.891324	0.000466	4.662219	1.579602	-0.000187
1302	1.2945e+02	-11.8328	-52.036661	0.000365	3.648693	1.236211	-0.000146
1303	1.2955e+02	-11.8809	-52.145664	0.000274	2.736520	0.927158	-0.000110
1304	1.2965e+02	-11.9162	-52.286964	0.000355	3.547340	1.201871	-0.000142
1305	1.2975e+02	-11.9563	-52.460560	0.000436	4.358161	1.476585	-0.000174
1306	1.2985e+02	-11.9820	-52.593786	0.000334	3.344635	1.133193	-0.000134
1307	1.2995e+02	-12.0285	-52.771420	0.000446	4.459514	1.510924	-0.000179
1308	1.3005e+02	-12.0847	-52.916757	0.000365	3.648693	1.236211	-0.000146
1309	1.3015e+02	-12.1104	-53.013648	0.000243	2.432462	0.824140	-0.000097
1310	1.3025e+02	-12.1473	-53.171096	0.000395	3.952751	1.339228	-0.000158
1311	1.3034e+02	-12.2002	-53.332582	0.000405	4.054103	1.373567	-0.000162
1312	1.3044e+02	-12.2467	-53.461770	0.000324	3.243283	1.098854	-0.000130
1313	1.3054e+02	-12.2676	-53.570773	0.000274	2.736520	0.927158	-0.000110
1314	1.3064e+02	-12.3173	-53.748407	0.000446	4.459514	1.510924	-0.000179
1315	1.3074e+02	-12.3494	-53.926041	0.000446	4.459514	1.510924	-0.000179
1316	1.3084e+02	-12.3927	-54.014858	0.000223	2.229757	0.755462	-0.000089
1317	1.3094e+02	-12.4344	-54.176343	0.000405	4.054103	1.373567	-0.000162
1318	1.3104e+02	-12.4729	-54.309569	0.000334	3.344635	1.133193	-0.000134
1319	1.3114e+02	-12.5050	-54.442794	0.000334	3.344635	1.133193	-0.000134
1320	1.3124e+02	-12.5563	-54.592168	0.000375	3.750046	1.270550	-0.000150
1321	1.3134e+02	-12.5932	-54.733468	0.000355	3.547340	1.201871	-0.000142
1322	1.3144e+02	-12.6349	-54.898990	0.000416	4.155456	1.407907	-0.000166
1323	1.3154e+02	-12.6734	-54.975696	0.000193	1.925699	0.652445	-0.000077
1324	1.3164e+02	-12.7168	-55.157367	0.000456	4.560866	1.545263	-0.000183
1325	1.3174e+02	-12.7488	-55.294630	0.000345	3.445988	1.167532	-0.000138
1326	1.3184e+02	-12.7938	-55.411707	0.000294	2.939225	0.995836	-0.000118
1327	1.3194e+02	-12.8274	-55.544932	0.000334	3.344635	1.133193	-0.000134
1328	1.3204e+02	-12.8804	-55.710455	0.000416	4.155456	1.407907	-0.000166
1329	1.3214e+02	-12.9093	-55.819457	0.000274	2.736520	0.927158	-0.000110
1330	1.3224e+02	-12.9526	-55.952683	0.000334	3.344635	1.133193	-0.000134
1331	1.3234e+02	-12.9782	-56.106094	0.000385	3.851398	1.304889	-0.000154
1332	1.3243e+02	-13.0280	-56.275654	0.000426	4.256808	1.442246	-0.000170
1333	1.3253e+02	-13.0713	-56.396768	0.000304	3.040577	1.030176	-0.000122
1334	1.3263e+02	-13.1098	-56.542105	0.000365	3.648693	1.236211	-0.000146
1335	1.3273e+02	-13.1483	-56.683404	0.000355	3.547340	1.201871	-0.000142
1336	1.3283e+02	-13.2012	-56.792407	0.000274	2.736520	0.927158	-0.000110
1337	1.3293e+02	-13.2221	-56.941781	0.000375	3.750046	1.270550	-0.000150
1338	1.3303e+02	-13.2702	-57.091155	0.000375	3.750046	1.270550	-0.000150
1339	1.3313e+02	-13.3055	-57.240529	0.000375	3.750046	1.270550	-0.000150
1340	1.3323e+02	-13.3488	-57.353569	0.000284	2.837872	0.961497	-0.000114
1341	1.3333e+02	-13.3857	-57.551389	0.000497	4.966277	1.682620	-0.000199
1342	1.3343e+02	-13.4354	-57.684614	0.000334	3.344635	1.133193	-0.000134
1343	1.3353e+02	-13.4675	-57.825914	0.000355	3.547340	1.201871	-0.000142
1344	1.3363e+02	-13.4996	-57.947028	0.000304	3.040577	1.030176	-0.000122
1345	1.3373e+02	-13.5558	-58.104476	0.000395	3.952751	1.339228	-0.000158
1346	1.3383e+02	-13.5895	-58.233664	0.000324	3.243283	1.098854	-0.000130
1347	1.3393e+02	-13.6328	-58.354779	0.000304	3.040577	1.030176	-0.000122
1348	1.3403e+02	-13.6697	-58.463781	0.000274	2.736520	0.927158	-0.000110
1349	1.3413e+02	-13.7018	-58.649489	0.000466	4.662219	1.579602	-0.000187
1350	1.3423e+02	-13.7515	-58.774641	0.000314	3.141930	1.064515	-0.000126
1351	1.3432e+02	-13.7948	-58.895755	0.000304	3.040577	1.030176	-0.000122
1352	1.3442e+02	-13.8269	-59.077426	0.000456	4.560866	1.545263	-0.000183
1353	1.3452e+02	-13.8654	-59.198540	0.000304	3.040577	1.030176	-0.000122
1354	1.3462e+02	-13.9055	-59.311580	0.000284	2.837872	0.961497	-0.000114
1355	1.3472e+02	-13.9456	-59.497288	0.000466	4.662219	1.579602	-0.000187
1356	1.3482e+02	-13.9937	-59.606291	0.000274	2.736520	0.927158	-0.000110
1357	1.3492e+02	-14.0242	-59.787962	0.000456	4.560866	1.545263	-0.000183
1358	1.3502e+02	-14.0723	-59.884853	0.000243	2.432462	0.824140	-0.000097
1359	1.3512e+02	-14.1124	-60.058450	0.000436	4.358161	1.476585	-0.000174
1360	1.3522e+02	-14.1477	-60.143230	0.000213	2.128404	0.721123	-0.000085
1361	1.3532e+02	-14.1910	-60.284529	0.000355	3.547340	1.201871	-0.000142
1362	1.3542e+02	-14.2231	-60.502535	0.000547	5.473039	1.854316	-0.000219
1363	1.3552e+02	-14.2664	-60.583277	0.000203	2.027052	0.686784	-0.000081
1364	1.3562e+02	-14.3114	-60.720540	0.000345	3.445988	1.167532	-0.000138
1365	1.3572e+02	-14.3499	-60.873951	0.000385	3.851398	1.304889	-0.000154
1366	1.3582e+02	-14.3852	-61.035437	0.000405	4.054103	1.373567	-0.000162
1367	1.3592e+02	-14.4221	-61.144439	0.000274	2.736520	0.927158	-0.000110
1368	1.3602e+02	-14.4654	-61.265553	0.000304	3.040577	1.030176	-0.000122
1369	1.3612e+02	-14.5007	-61.443187	0.000446	4.459514	1.510924	-0.000179
1370	1.3622e+02	-14.5440	-61.544116	0.000253	2.533815	0.858480	-0.000101
1371	1.3631e+02	-14.5729	-61.681378	0.000345	3.445988	1.167532	-0.000138
1372	1.3641e+02	-14.6146	-61.875161	0.000486	4.864924	1.648281	-0.000195
1373	1.3651e+02	-14.6659	-61.988201	0.000284	2.837872	0.961497	-0.000114
1374	1.3661e+02	-14.7060	-62.125463	0.000345	3.445988	1.167532	-0.000138
1375	1.3671e+02	-14.7381	-62.254652	0.000324	3.243283	1.098854	-0.000130
1376	1.3681e+02	-14.7830	-62.387877	0.000334	3.344635	1.133193	-0.000134
1377	1.3691e+02	-14.8167	-62.529177	0.000355	3.547340	1.201871	-0.000142
1378	1.3701e+02	-14.8632	-62.662402	0.000334	3.344635	1.133193	-0.000134
1379	1.3711e+02	-14.8953	-62.807739	0.000365	3.648693	1.236211	-0.000146
1380	1.3721e+02	-14.9386	-62.892519	0.000213	2.128404	0.721123	-0.000085
1381	1.3731e+02	-14.9851	-63.062079	0.000426	4.256808	1.442246	-0.000170
1382	1.3741e+02	-15.0268	-63.215490	0.000385	3.851398	1.304889	-0.000154
1383	1.3751e+02	-15.0637	-63.368901	0.000385	3.851398	1.304889	-0.000154
1384	1.3761e+02	-15.0926	-63.502127	0.000334	3.344635	1.133193	-0.000134
1385	1.3771e+02	-15.1472	-63.578832	0.000193	1.925699	0.652445	-0.000077
1386	1.3781e+02	-15.1857	-63.760503	0.000456	4.560866	1.545263	-0.000183
1387	1.3791e+02	-15.2322	-63.861432	0.000253	2.533815	0.858480	-0.000101
1388	1.3801e+02	-15.2595	-64.026954	0.000416	4.155456	1.407907	-0.000166
1389	1.3811e+02	-15.3092	-64.152105	0.000314	3.141930	1.064515	-0.000126
1390	1.3821e+02	-15.3397	-64.269182	0.000294	2.939225	0.995836	-0.000118
1391	1.3831e+02	-15.3782	-64.450853	0.000456	4.560866	1.545263	-0.000183
1392	1.3840e+02	-15.4167	-64.580042	0.000324	3.243283	1.098854	-0.000130
1393	1.3850e+02	-15.4600	-64.725379	0.000365	3.648693	1.236211	-0.000146
1394	1.3860e+02	-15.5001	-64.842456	0.000294	2.939225	0.995836	-0.000118
1395	1.3870e+02	-15.5482	-64.939347	0.000243	2.432462	0.824140	-0.000097
1396	1.3880e+02	-15.5819	-65.145241	0.000517	5.168982	1.751298	-0.000207
1397	1.3890e+02	-15.6268	-65.246169	0.000253	2.533815	0.858480	-0.000101
1398	1.3900e+02	-15.6605	-65.423803	0.000446	4.459514	1.510924	-0.000179
1399	1.3910e+02	-15.6894	-65.540880	0.000294	2.939225	0.995836	-0.000118
1400	1.3920e+02	-15.7423	-65.625660	0.000213	2.128404	0.721123	-0.000085
1401	1.3930e+02	-15.7840	-65.807331	0.000456	4.560866	1.545263	-0.000183
1402	1.3940e+02	-15.8209	-65.932482	0.000314	3.141930	1.064515	-0.000126
1403	1.3950e+02	-15.8627	-66.061671	0.000324	3.243283	1.098854	-0.000130
1404	1.3960e+02	-15.9028	-66.223156	0.000405	4.054103	1.373567	-0.000162
1405	1.3970e+02	-15.9397	-66.356382	0.000334	3.344635	1.133193	-0.000134
1406	1.3980e+02	-15.9750	-66.473458	0.000294	2.939225	0.995836	-0.000118
1407	1.3990e+02	-16.0183	-66.638981	0.000416	4.155456	1.407907	-0.000166
1408	1.4000e+02	-16.0632	-66.780281	0.000355	3.547340	1.201871	-0.000142
1409	1.4010e+02	-16.0953	-66.893321	0.000284	2.837872	0.961497	-0.000114
1410	1.4020e+02	-16.1290	-67.062880	0.000426	4.256808	1.442246	-0.000170
1411	1.4029e+02	-16.1755	-67.183994	0.000304	3.040577	1.030176	-0.000122
1412	1.4039e+02	-16.2220	-67.329331	0.000365	3.648693	1.236211	-0.000146
1413	1.4049e+02	-16.2637	-67.470631	0.000355	3.547340	1.201871	-0.000142
1414	1.4059e+02	-16.3070	-67.615968	0.000365	3.648693	1.236211	-0.000146
1415	1.4069e+02	-16.3327	-67.720933	0.000264	2.635167	0.892819	-0.000105
1416	1.4079e+02	-16.3728	-67.914716	0.000486	4.864924	1.648281	-0.000195
1417	1.4089e+02	-16.4161	-68.015644	0.000253	2.533815	0.858480	-0.000101
1418	1.4099e+02	-16.4578	-68.160981	0.000365	3.648693	1.236211	-0.000146
1419	1.4109e+02	-16.4851	-68.298244	0.000345	3.445988	1.167532	-0.000138
1420	1.4119e+02	-16.5380	-68.435506	0.000345	3.445988	1.167532	-0.000138
1421	1.4129e+02	-16.5910	-68.572769	0.000345	3.445988	1.167532	-0.000138
1422	1.4139e+02	-16.6215	-68.705995	0.000334	3.344635	1.133193	-0.000134
1423	1.4149e+02	-16.6487	-68.843257	0.000345	3.445988	1.167532	-0.000138
1424	1.4159e+02	-16.6969	-68.968408	0.000314	3.141930	1.064515	-0.000126
1425	1.4169e+02	-16.7354	-69.137968	0.000426	4.256808	1.442246	-0.000170
1426	1.4179e+02	-16.7723	-69.238896	0.000253	2.533815	0.858480	-0.000101
1427	1.4189e+02	-16.8156	-69.408456	0.000426	4.256808	1.442246	-0.000170
1428	1.4199e+02	-16.8589	-69.590127	0.000456	4.560866	1.545263	-0.000183
1429	1.4209e+02	-16.8926	-69.723353	0.000334	3.344635	1.133193	-0.000134
1430	1.4219e+02	-16.9407	-69.796021	0.000182	1.824346	0.618105	-0.000073
1431	1.4228e+02	-16.9744	-69.945395	0.000375	3.750046	1.270550	-0.000150
1432	1.4238e+02	-17.0129	-70.094769	0.000375	3.750046	1.270550	-0.000150
1433	1.4248e+02	-17.0562	-70.256255	0.000405	4.054103	1.373567	-0.000162
1434	1.4258e+02	-17.0995	-70.381406	0.000314	3.141930	1.064515	-0.000126
1435	1.4268e+02	-17.1444	-70.502520	0.000304	3.040577	1.030176	-0.000122
1436	1.4278e+02	-17.1781	-70.659968	0.000395	3.952751	1.339228	-0.000158
1437	1.4288e+02	-17.2182	-70.813379	0.000385	3.851398	1.304889	-0.000154
1438	1.4298e+02	-17.2535	-70.942568	0.000324	3.243283	1.098854	-0.000130
1439	1.4308e+02	-17.2888	-71.087905	0.000365	3.648693	1.236211	-0.000146
1440	1.4318e+02	-17.3434	-71.217093	0.000324	3.243283	1.098854	-0.000130
1441	1.4328e+02	-17.3722	-71.370504	0.000385	3.851398	1.304889	-0.000154
1442	1.4338e+02	-17.4123	-71.507767	0.000345	3.445988	1.167532	-0.000138
1443	1.4348e+02	-17.4621	-71.685401	0.000446	4.459514	1.510924	-0.000179
1444	1.4358e+02	-17.4910	-71.830738	0.000365	3.648693	1.236211	-0.000146
1445	1.4368e+02	-17.5343	-71.943777	0.000284	2.837872	0.961497	-0.000114
1446	1.4378e+02	-17.5680	-72.081040	0.000345	3.445988	1.167532	-0.000138
1447	1.4388e+02	-17.6289	-72.226377	0.000365	3.648693	1.236211	-0.000146
1448	1.4398e+02	-17.6546	-72.379788	0.000385	3.851398	1.304889	-0.000154
1449	1.4408e+02	-17.6883	-72.533199	0.000385	3.851398	1.304889	-0.000154
1450	1.4418e+02	-17.7332	-72.682573	0.000375	3.750046	1.270550	-0.000150
1451	1.4428e+02	-17.7733	-72.864244	0.000456	4.560866	1.545263	-0.000183
1452	1.4437e+02	-17.8118	-72.965173	0.000253	2.533815	0.858480	-0.000101
1453	1.4447e+02	-17.8567	-73.106473	0.000355	3.547340	1.201871	-0.000142
1454	1.4457e+02	-17.8984	-73.288144	0.000456	4.560866	1.545263	-0.000183
1455	1.4467e+02	-17.9273	-73.401183	0.000284	2.837872	0.961497	-0.000114
1456	1.4477e+02	-17.9690	-73.522297	0.000304	3.040577	1.030176	-0.000122
1457	1.4487e+02	-18.0091	-73.699931	0.000446	4.459514	1.510924	-0.000179
1458	1.4497e+02	-18.0428	-73.825083	0.000314	3.141930	1.064515	-0.000126
1459	1.4507e+02	-18.0957	-74.006754	0.000456	4.560866	1.545263	-0.000183
1460	1.4517e+02	-18.1439	-74.176313	0.000426	4.256808	1.442246	-0.000170
1461	1.4527e+02	-18.1679	-74.277242	0.000253	2.533815	0.858480	-0.000101
1462	1.4537e+02	-18.2080	-74.434690	0.000395	3.952751	1.339228	-0.000158
1463	1.4547e+02	-18.2514	-74.600213	0.000416	4.155456	1.407907	-0.000166
1464	1.4557e+02	-18.2947	-74.761698	0.000405	4.054103	1.373567	-0.000162
1465	1.4567e+02	-18.3284	-74.898961	0.000345	3.445988	1.167532	-0.000138
1466	1.4577e+02	-18.3701	-75.064483	0.000416	4.155456	1.407907	-0.000166
1467	1.4587e+02	-18.4182	-75.230006	0.000416	4.155456	1.407907	-0.000166
1468	1.4597e+02	-18.4455	-75.367269	0.000345	3.445988	1.167532	-0.000138
1469	1.4607e+02	-18.4888	-75.516643	0.000375	3.750046	1.270550	-0.000150
1470	1.4617e+02	-18.5257	-75.657942	0.000355	3.547340	1.201871	-0.000142
1471	1.4626e+02	-18.5674	-75.843651	0.000466	4.662219	1.579602	-0.000187
1472	1.4636e+02	-18.6059	-75.980913	0.000345	3.445988	1.167532	-0.000138
1473	1.4646e+02	-18.6588	-76.150473	0.000426	4.256808	1.442246	-0.000170
1474	1.4656e+02	-18.6861	-76.283698	0.000334	3.344635	1.133193	-0.000134
1475	1.4666e+02	-18.7294	-76.445184	0.000405	4.054103	1.373567	-0.000162
1476	1.4676e+02	-18.7679	-76.626855	0.000456	4.560866	1.545263	-0.000183
1477	1.4686e+02	-18.8144	-76.747969	0.000304	3.040577	1.030176	-0.000122
1478	1.4696e+02	-18.8578	-76.905417	0.000395	3.952751	1.339228	-0.000158
1479	1.4706e+02	-18.8802	-77.103237	0.000497	4.966277	1.682620	-0.000199
1480	1.4716e+02	-18.9283	-77.248574	0.000365	3.648693	1.236211	-0.000146
1481	1.4726e+02	-18.9604	-77.414096	0.000416	4.155456	1.407907	-0.000166
1482	1.4736e+02	-19.0118	-77.531173	0.000294	2.939225	0.995836	-0.000118
1483	1.4746e+02	-19.0487	-77.716882	0.000466	4.662219	1.579602	-0.000187
1484	1.4756e+02	-19.0936	-77.866256	0.000375	3.750046	1.270550	-0.000150
1485	1.4766e+02	-19.1225	-78.015630	0.000375	3.750046	1.270550	-0.000150
1486	1.4776e+02	-19.1690	-78.197301	0.000456	4.560866	1.545263	-0.000183
1487	1.4786e+02	-19.2075	-78.370898	0.000436	4.358161	1.476585	-0.000174
1488	1.4796e+02	-19.2428	-78.548531	0.000446	4.459514	1.510924	-0.000179
1489	1.4806e+02	-19.2893	-78.705980	0.000395	3.952751	1.339228	-0.000158
1490	1.4816e+02	-19.3294	-78.843242	0.000345	3.445988	1.167532	-0.000138
1491	1.4825e+02	-19.3663	-79.053173	0.000527	5.270334	1.785638	-0.000211
1492	1.4835e+02	-19.4064	-79.202547	0.000375	3.750046	1.270550	-0.000150
1493	1.4845e+02	-19.4481	-79.347884	0.000365	3.648693	1.236211	-0.000146
1494	1.4855e+02	-19.4786	-79.497258	0.000375	3.750046	1.270550	-0.000150
1495	1.4865e+02	-19.5315	-79.687004	0.000476	4.763571	1.613942	-0.000191
1496	1.4875e+02	-19.5636	-79.828304	0.000355	3.547340	1.201871	-0.000142
1497	1.4885e+02	-19.6117	-80.005937	0.000446	4.459514	1.510924	-0.000179
1498	1.4895e+02	-19.6438	-80.187609	0.000456	4.560866	1.545263	-0.000183
1499	1.4905e+02	-19.6807	-80.332945	0.000365	3.648693	1.236211	-0.000146
1500	1.4915e+02	-19.7224	-80.514617	0.000456	4.560866	1.545263	-0.000183
1501	1.4925e+02	-19.7625	-80.676102	0.000405	4.054103	1.373567	-0.000162
1502	1.4935e+02	-19.8043	-80.853736	0.000446	4.459514	1.510924	-0.000179
1503	1.4945e+02	-19.8428	-81.035407	0.000456	4.560866	1.545263	-0.000183
1504	1.4955e+02	-19.8764	-81.196893	0.000405	4.054103	1.373567	-0.000162
1505	1.4965e+02	-19.9326	-81.370489	0.000436	4.358161	1.476585	-0.000174
1506	1.4975e+02	-19.9647	-81.531975	0.000405	4.054103	1.373567	-0.000162
1507	1.4985e+02	-19.9968	-81.778240	0.000618	6.182508	2.094690	-0.000248
1508	1.4995e+02	-19.9599	-81.701534	0.000193	1.925699	0.652445	0.000077
1509	1.5005e+02	-19.9214	-81.697497	0.000010	0.101353	0.034339	0.000004
1510	1.5015e+02	-19.8861	-81.665200	0.000081	0.810821	0.274713	0.000032
1511	1.5025e+02	-19.8412	-81.649052	0.000041	0.405410	0.137357	0.000016
1512	1.5034e+02	-19.7994	-81.612718	0.000091	0.912173	0.309053	0.000037
1513	1.5044e+02	-19.7690	-81.572346	0.000101	1.013526	0.343392	0.000041
1514	1.5054e+02	-19.7144	-81.499678	0.000182	1.824346	0.618105	0.000073
1515	1.5064e+02	-19.6807	-81.487566	0.000030	0.304058	0.103018	0.000012
1516	1.5074e+02	-19.6502	-81.439121	0.000122	1.216231	0.412070	0.000049
1517	1.5084e+02	-19.6053	-81.398749	0.000101	1.013526	0.343392	0.000041
1518	1.5094e+02	-19.5652	-81.322044	0.000193	1.925699	0.652445	0.000077
1519	1.5104e+02	-19.5219	-81.261487	0.000152	1.520289	0.515088	0.000061
1520	1.5114e+02	-19.4882	-81.213041	0.000122	1.216231	0.412070	0.000049
1521	1.5124e+02	-19.4481	-81.180744	0.000081	0.810821	0.274713	0.000032
1522	1.5134e+02	-19.3984	-81.095964	0.000213	2.128404	0.721123	0.000085
1523	1.5144e+02	-19.3727	-81.043481	0.000132	1.317584	0.446409	0.000053
1524	1.5154e+02	-19.3246	-80.970813	0.000182	1.824346	0.618105	0.000073
1525	1.5164e+02	-19.2909	-80.906219	0.000162	1.621641	0.549427	0.000065
1526	1.5174e+02	-19.2492	-80.849699	0.000142	1.418936	0.480749	0.000057
1527	1.5184e+02	-19.2123	-80.825476	0.000061	0.608115	0.206035	0.000024
1528	1.5194e+02	-19.1610	-80.732622	0.000233	2.331109	0.789801	0.000093
1529	1.5204e+02	-19.1273	-80.647842	0.000213	2.128404	0.721123	0.000085
1530	1.5214e+02	-19.0888	-80.546914	0.000253	2.533815	0.858480	0.000101
1531	1.5224e+02	-19.0487	-80.546914	0.000000	0.000000	0.000000	0.000000
1532	1.5233e+02	-19.0037	-80.421762	0.000314	3.141930	1.064515	0.000126
1533	1.5243e+02	-18.9636	-80.369280	0.000132	1.317584	0.446409	0.000053
1534	1.5253e+02	-18.9267	-80.292574	0.000193	1.925699	0.652445	0.000077
1535	1.5263e+02	-18.8834	-80.268351	0.000061	0.608115	0.206035	0.000024
1536	1.5273e+02	-18.8513	-80.131089	0.000345	3.445988	1.167532	0.000138
1537	1.5283e+02	-18.8209	-80.082643	0.000122	1.216231	0.412070	0.000049
1538	1.5293e+02	-18.7583	-80.022086	0.000152	1.520289	0.515088	0.000061
1539	1.5303e+02	-18.7358	-79.913083	0.000274	2.736520	0.927158	0.000110
1540	1.5313e+02	-18.6893	-79.852526	0.000152	1.520289	0.515088	0.000061
1541	1.5323e+02	-18.6476	-79.779858	0.000182	1.824346	0.618105	0.000073
1542	1.5333e+02	-18.6187	-79.674892	0.000264	2.635167	0.892819	0.000105
1543	1.5343e+02	-18.5690	-79.598187	0.000193	1.925699	0.652445	0.000077
1544	1.5353e+02	-18.5353	-79.521481	0.000193	1.925699	0.652445	0.000077
1545	1.5363e+02	-18.4952	-79.444776	0.000193	1.925699	0.652445	0.000077
1546	1.5373e+02	-18.4487	-79.384219	0.000152	1.520289	0.515088	0.000061
1547	1.5383e+02	-18.4134	-79.271179	0.000284	2.837872	0.961497	0.000114
1548	1.5393e+02	-18.3685	-79.194473	0.000193	1.925699	0.652445	0.000077
1549	1.5403e+02	-18.3300	-79.105656	0.000223	2.229757	0.755462	0.000089
1550	1.5413e+02	-18.2963	-79.028951	0.000193	1.925699	0.652445	0.000077
1551	1.5422e+02	-18.2449	-78.911874	0.000294	2.939225	0.995836	0.000118
1552	1.5432e+02	-18.2096	-78.867465	0.000111	1.114878	0.377731	0.000045
1553	1.5442e+02	-18.1744	-78.762500	0.000264	2.635167	0.892819	0.000105
1554	1.5452e+02	-18.1375	-78.653497	0.000274	2.736520	0.927158	0.000110
1555	1.5462e+02	-18.0877	-78.560643	0.000233	2.331109	0.789801	0.000093
1556	1.5472e+02	-18.0540	-78.492012	0.000172	1.722994	0.583766	0.000069
1557	1.5482e+02	-18.0171	-78.479900	0.000030	0.304058	0.103018	0.000012
1558	1.5492e+02	-17.9674	-78.334563	0.000365	3.648693	1.236211	0.000146
1559	1.5502e+02	-17.9337	-78.217486	0.000294	2.939225	0.995836	0.000118
1560	1.5512e+02	-17.8872	-78.116558	0.000253	2.533815	0.858480	0.000101
1561	1.5522e+02	-17.8471	-78.100409	0.000041	0.405410	0.137357	0.000016
1562	1.5532e+02	-17.8198	-77.959110	0.000355	3.547340	1.201871	0.000142
1563	1.5542e+02	-17.7797	-77.862218	0.000243	2.432462	0.824140	0.000097
1564	1.5552e+02	-17.7316	-77.724956	0.000345	3.445988	1.167532	0.000138
1565	1.5562e+02	-17.6915	-77.676510	0.000122	1.216231	0.412070	0.000049
1566	1.5572e+02	-17.6530	-77.579619	0.000243	2.432462	0.824140	0.000097
1567	1.5582e+02	-17.6145	-77.506950	0.000182	1.824346	0.618105	0.000073
1568	1.5592e+02	-17.5680	-77.422171	0.000213	2.128404	0.721123	0.000085
1569	1.5602e+02	-17.5230	-77.321242	0.000253	2.533815	0.858480	0.000101
1570	1.5612e+02	-17.5038	-77.232425	0.000223	2.229757	0.755462	0.000089
1571	1.5622e+02	-17.4541	-77.127460	0.000264	2.635167	0.892819	0.000105
1572	1.5631e+02	-17.4172	-77.018457	0.000274	2.736520	0.927158	0.000110
1573	1.5641e+02	-17.3787	-76.949826	0.000172	1.722994	0.583766	0.000069
1574	1.5651e+02	-17.3418	-76.869083	0.000203	2.027052	0.686784	0.000081
1575	1.5661e+02	-17.2968	-76.776229	0.000233	2.331109	0.789801	0.000093
1576	1.5671e+02	-17.2455	-76.663189	0.000284	2.837872	0.961497	0.000114
1577	1.5681e+02	-17.2118	-76.538038	0.000314	3.141930	1.064515	0.000126
1578	1.5691e+02	-17.1717	-76.465369	0.000182	1.824346	0.618105	0.000073
1579	1.5701e+02	-17.1300	-76.380590	0.000213	2.128404	0.721123	0.000085
1580	1.5711e+02	-17.0947	-76.299847	0.000203	2.027052	0.686784	0.000081
1581	1.5721e+02	-17.0562	-76.194881	0.000264	2.635167	0.892819	0.000105
1582	1.5731e+02	-17.0145	-76.089916	0.000264	2.635167	0.892819	0.000105
1583	1.5741e+02	-16.9792	-75.972839	0.000294	2.939225	0.995836	0.000118
1584	1.5751e+02	-16.9455	-75.871910	0.000253	2.533815	0.858480	0.000101
1585	1.5761e+02	-16.8958	-75.811353	0.000152	1.520289	0.515088	0.000061
1586	1.5771e+02	-16.8493	-75.690239	0.000304	3.040577	1.030176	0.000122
1587	1.5781e+02	-16.8156	-75.597385	0.000233	2.331109	0.789801	0.000093
1588	1.5791e+02	-16.7803	-75.468197	0.000324	3.243283	1.098854	0.000130
1589	1.5801e+02	-16.7386	-75.375343	0.000233	2.331109	0.789801	0.000093
1590	1.5811e+02	-16.6953	-75.278452	0.000243	2.432462	0.824140	0.000097
1591	1.5821e+02	-16.6600	-75.201746	0.000193	1.925699	0.652445	0.000077
1592	1.5830e+02	-16.6166	-75.056409	0.000365	3.648693	1.236211	0.000146
1593	1.5840e+02	-16.5669	-74.975666	0.000203	2.027052	0.686784	0.000081
1594	1.5850e+02	-16.5445	-74.882812	0.000233	2.331109	0.789801	0.000093
1595	1.5860e+02	-16.4963	-74.761698	0.000304	3.040577	1.030176	0.000122
1596	1.5870e+02	-16.4578	-74.668844	0.000233	2.331109	0.789801	0.000093
1597	1.5880e+02	-16.4209	-74.559841	0.000274	2.736520	0.927158	0.000110
1598	1.5890e+02	-16.3776	-74.446802	0.000284	2.837872	0.961497	0.000114
1599	1.5900e+02	-16.3439	-74.366059	0.000203	2.027052	0.686784	0.000081
1600	1.5910e+02	-16.3022	-74.220722	0.000365	3.648693	1.236211	0.000146
1601	1.5920e+02	-16.2525	-74.131905	0.000223	2.229757	0.755462	0.000089
1602	1.5930e+02	-16.2236	-74.010791	0.000304	3.040577	1.030176	0.000122
1603	1.5940e+02	-16.1787	-73.942160	0.000172	1.722994	0.583766	0.000069
1604	1.5950e+02	-16.1338	-73.833157	0.000274	2.736520	0.927158	0.000110
1605	1.5960e+02	-16.0953	-73.724154	0.000274	2.736520	0.927158	0.000110
1606	1.5970e+02	-16.0552	-73.594966	0.000324	3.243283	1.098854	0.000130
1607	1.5980e+02	-16.0183	-73.494038	0.000253	2.533815	0.858480	0.000101
1608	1.5990e+02	-15.9814	-73.413295	0.000203	2.027052	0.686784	0.000081
1609	1.6000e+02	-15.9397	-73.288144	0.000314	3.141930	1.064515	0.000126
1610	1.6010e+02	-15.9076	-73.162992	0.000314	3.141930	1.064515	0.000126
1611	1.6019e+02	-15.8610	-73.070138	0.000233	2.331109	0.789801	0.000093
1612	1.6029e+02	-15.8242	-72.973247	0.000243	2.432462	0.824140	0.000097
1613	1.6039e+02	-15.7808	-72.856170	0.000294	2.939225	0.995836	0.000118
1614	1.6049e+02	-15.7359	-72.767353	0.000223	2.229757	0.755462	0.000089
1615	1.6059e+02	-15.6958	-72.662388	0.000264	2.635167	0.892819	0.000105
1616	1.6069e+02	-15.6637	-72.541274	0.000304	3.040577	1.030176	0.000122
1617	1.6079e+02	-15.6124	-72.468605	0.000182	1.824346	0.618105	0.000073
1618	1.6089e+02	-15.5835	-72.339417	0.000324	3.243283	1.098854	0.000130
1619	1.6099e+02	-15.5450	-72.210228	0.000324	3.243283	1.098854	0.000130
1620	1.6109e+02	-15.5081	-72.149671	0.000152	1.520289	0.515088	0.000061
1621	1.6119e+02	-15.4584	-72.052780	0.000243	2.432462	0.824140	0.000097
1622	1.6129e+02	-15.4199	-71.875146	0.000446	4.459514	1.510924	0.000179
1623	1.6139e+02	-15.3798	-71.814589	0.000152	1.520289	0.515088	0.000061
1624	1.6149e+02	-15.3365	-71.693475	0.000304	3.040577	1.030176	0.000122
1625	1.6159e+02	-15.2964	-71.568324	0.000314	3.141930	1.064515	0.000126
1626	1.6169e+02	-15.2611	-71.471433	0.000243	2.432462	0.824140	0.000097
1627	1.6179e+02	-15.2178	-71.370504	0.000253	2.533815	0.858480	0.000101
1628	1.6189e+02	-15.1841	-71.245353	0.000314	3.141930	1.064515	0.000126
1629	1.6199e+02	-15.1488	-71.152499	0.000233	2.331109	0.789801	0.000093
1630	1.6209e+02	-15.1006	-71.019273	0.000334	3.344635	1.133193	0.000134
1631	1.6219e+02	-15.0589	-70.950642	0.000172	1.722994	0.583766	0.000069
1632	1.6228e+02	-15.0188	-70.837602	0.000284	2.837872	0.961497	0.000114
1633	1.6238e+02	-14.9771	-70.680154	0.000395	3.952751	1.339228	0.000158
1634	1.6248e+02	-14.9531	-70.623634	0.000142	1.418936	0.480749	0.000057
1635	1.6258e+02	-14.9097	-70.502520	0.000304	3.040577	1.030176	0.000122
1636	1.6268e+02	-14.8696	-70.373332	0.000324	3.243283	1.098854	0.000130
1637	1.6278e+02	-14.8263	-70.268366	0.000264	2.635167	0.892819	0.000105
1638	1.6288e+02	-14.7862	-70.147252	0.000304	3.040577	1.030176	0.000122
1639	1.6298e+02	-14.7477	-70.050361	0.000243	2.432462	0.824140	0.000097
1640	1.6308e+02	-14.7044	-69.933284	0.000294	2.939225	0.995836	0.000118
1641	1.6318e+02	-14.6595	-69.852541	0.000203	2.027052	0.686784	0.000081
1642	1.6328e+02	-14.6226	-69.727390	0.000314	3.141930	1.064515	0.000126
1643	1.6338e+02	-14.5873	-69.610313	0.000294	2.939225	0.995836	0.000118
1644	1.6348e+02	-14.5360	-69.481125	0.000324	3.243283	1.098854	0.000130
1645	1.6358e+02	-14.4991	-69.412493	0.000172	1.722994	0.583766	0.000069
1646	1.6368e+02	-14.4734	-69.242934	0.000426	4.256808	1.442246	0.000170
1647	1.6378e+02	-14.4156	-69.146042	0.000243	2.432462	0.824140	0.000097
1648	1.6388e+02	-14.3868	-69.045114	0.000253	2.533815	0.858480	0.000101
1649	1.6398e+02	-14.3467	-68.948223	0.000243	2.432462	0.824140	0.000097
1650	1.6408e+02	-14.3033	-68.835183	0.000284	2.837872	0.961497	0.000114
1651	1.6418e+02	-14.2680	-68.685809	0.000375	3.750046	1.270550	0.000150
1652	1.6427e+02	-14.2183	-68.572769	0.000284	2.837872	0.961497	0.000114
1653	1.6437e+02	-14.1878	-68.483952	0.000223	2.229757	0.755462	0.000089
1654	1.6447e+02	-14.1509	-68.346689	0.000345	3.445988	1.167532	0.000138
1655	1.6457e+02	-14.1108	-68.209427	0.000345	3.445988	1.167532	0.000138
1656	1.6467e+02	-14.0659	-68.144833	0.000162	1.621641	0.549427	0.000065
1657	1.6477e+02	-14.0322	-68.027756	0.000294	2.939225	0.995836	0.000118
1658	1.6487e+02	-13.9889	-67.886456	0.000355	3.547340	1.201871	0.000142
1659	1.6497e+02	-13.9488	-67.813788	0.000182	1.824346	0.618105	0.000073
1660	1.6507e+02	-13.9087	-67.640191	0.000436	4.358161	1.476585	0.000174
1661	1.6517e+02	-13.8686	-67.579634	0.000152	1.520289	0.515088	0.000061
1662	1.6527e+02	-13.8221	-67.422185	0.000395	3.952751	1.339228	0.000158
1663	1.6537e+02	-13.7820	-67.284923	0.000345	3.445988	1.167532	0.000138
1664	1.6547e+02	-13.7467	-67.236477	0.000122	1.216231	0.412070	0.000049
1665	1.6557e+02	-13.7082	-67.083066	0.000385	3.851398	1.304889	0.000154
1666	1.6567e+02	-13.6697	-66.970026	0.000284	2.837872	0.961497	0.000114
1667	1.6577e+02	-13.6280	-66.861024	0.000274	2.736520	0.927158	0.000110
1668	1.6587e+02	-13.5927	-66.743947	0.000294	2.939225	0.995836	0.000118
1669	1.6597e+02	-13.5477	-66.626870	0.000294	2.939225	0.995836	0.000118
1670	1.6607e+02	-13.5060	-66.505756	0.000304	3.040577	1.030176	0.000122
1671	1.6616e+02	-13.4659	-66.404827	0.000253	2.533815	0.858480	0.000101
1672	1.6626e+02	-13.4290	-66.303899	0.000253	2.533815	0.858480	0.000101
1673	1.6636e+02	-13.3841	-66.154525	0.000375	3.750046	1.270550	0.000150
1674	1.6646e+02	-13.3488	-66.053596	0.000253	2.533815	0.858480	0.000101
1675	1.6656e+02	-13.3167	-65.936519	0.000294	2.939225	0.995836	0.000118
1676	1.6666e+02	-13.2686	-65.823480	0.000284	2.837872	0.961497	0.000114
1677	1.6676e+02	-13.2397	-65.726588	0.000243	2.432462	0.824140	0.000097
1678	1.6686e+02	-13.1788	-65.593363	0.000334	3.344635	1.133193	0.000134
1679	1.6696e+02	-13.1499	-65.476286	0.000294	2.939225	0.995836	0.000118
1680	1.6706e+02	-13.1034	-65.371320	0.000264	2.635167	0.892819	0.000105
1681	1.6716e+02	-13.0681	-65.250206	0.000304	3.040577	1.030176	0.000122
1682	1.6726e+02	-13.0280	-65.153315	0.000243	2.432462	0.824140	0.000097
1683	1.6736e+02	-12.9879	-65.028164	0.000314	3.141930	1.064515	0.000126
1684	1.6746e+02	-12.9542	-64.919161	0.000274	2.736520	0.927158	0.000110
1685	1.6756e+02	-12.9109	-64.785936	0.000334	3.344635	1.133193	0.000134
1686	1.6766e+02	-12.8676	-64.648673	0.000345	3.445988	1.167532	0.000138
1687	1.6776e+02	-12.8323	-64.559856	0.000223	2.229757	0.755462	0.000089
1688	1.6786e+02	-12.7938	-64.442779	0.000294	2.939225	0.995836	0.000118
1689	1.6796e+02	-12.7585	-64.313591	0.000324	3.243283	1.098854	0.000130
1690	1.6806e+02	-12.7135	-64.212662	0.000253	2.533815	0.858480	0.000101
1691	1.6816e+02	-12.6734	-64.087511	0.000314	3.141930	1.064515	0.000126
1692	1.6825e+02	-12.6349	-63.962360	0.000314	3.141930	1.064515	0.000126
1693	1.6835e+02	-12.5996	-63.857395	0.000264	2.635167	0.892819	0.000105
1694	1.6845e+02	-12.5387	-63.728206	0.000324	3.243283	1.098854	0.000130
1695	1.6855e+02	-12.5130	-63.566721	0.000405	4.054103	1.373567	0.000162
1696	1.6865e+02	-12.4729	-63.494052	0.000182	1.824346	0.618105	0.000073
1697	1.6875e+02	-12.4344	-63.360827	0.000334	3.344635	1.133193	0.000134
1698	1.6885e+02	-12.4007	-63.223564	0.000345	3.445988	1.167532	0.000138
1699	1.6895e+02	-12.3478	-63.126673	0.000243	2.432462	0.824140	0.000097
1700	1.6905e+02	-12.3093	-63.021707	0.000264	2.635167	0.892819	0.000105
1701	1.6915e+02	-12.2788	-62.892519	0.000324	3.243283	1.098854	0.000130
1702	1.6925e+02	-12.2355	-62.771405	0.000304	3.040577	1.030176	0.000122
1703	1.6935e+02	-12.1954	-62.646254	0.000314	3.141930	1.064515	0.000126
1704	1.6945e+02	-12.1569	-62.549363	0.000243	2.432462	0.824140	0.000097
1705	1.6955e+02	-12.1248	-62.359617	0.000476	4.763571	1.613942	0.000191
1706	1.6965e+02	-12.0670	-62.282912	0.000193	1.925699	0.652445	0.000077
1707	1.6975e+02	-12.0430	-62.149686	0.000334	3.344635	1.133193	0.000134
1708	1.6985e+02	-11.9804	-62.028572	0.000304	3.040577	1.030176	0.000122
1709	1.6995e+02	-11.9612	-61.939755	0.000223	2.229757	0.755462	0.000089
1710	1.7005e+02	-11.9130	-61.814604	0.000314	3.141930	1.064515	0.000126
1711	1.7015e+02	-11.8761	-61.681378	0.000334	3.344635	1.133193	0.000134
1712	1.7024e+02	-11.8360	-61.552190	0.000324	3.243283	1.098854	0.000130
1713	1.7034e+02	-11.8055	-61.431076	0.000304	3.040577	1.030176	0.000122
1714	1.7044e+02	-11.7446	-61.285739	0.000365	3.648693	1.236211	0.000146
1715	1.7054e+02	-11.7157	-61.180774	0.000264	2.635167	0.892819	0.000105
1716	1.7064e+02	-11.6772	-61.055622	0.000314	3.141930	1.064515	0.000126
1717	1.7074e+02	-11.6387	-60.946620	0.000274	2.736520	0.927158	0.000110
1718	1.7084e+02	-11.5986	-60.825506	0.000304	3.040577	1.030176	0.000122
1719	1.7094e+02	-11.5617	-60.680169	0.000365	3.648693	1.236211	0.000146
1720	1.7104e+02	-11.5296	-60.563092	0.000294	2.939225	0.995836	0.000118
1721	1.7114e+02	-11.4799	-60.462163	0.000253	2.533815	0.858480	0.000101
1722	1.7124e+02	-11.4382	-60.308752	0.000385	3.851398	1.304889	0.000154
1723	1.7134e+02	-11.3997	-60.191675	0.000294	2.939225	0.995836	0.000118
1724	1.7144e+02	-11.3548	-60.098821	0.000233	2.331109	0.789801	0.000093
1725	1.7154e+02	-11.3147	-59.961559	0.000345	3.445988	1.167532	0.000138
1726	1.7164e+02	-11.2762	-59.820259	0.000355	3.547340	1.201871	0.000142
1727	1.7174e+02	-11.2360	-59.674922	0.000365	3.648693	1.236211	0.000146
1728	1.7184e+02	-11.1975	-59.537659	0.000345	3.445988	1.167532	0.000138
1729	1.7194e+02	-11.1606	-59.440768	0.000243	2.432462	0.824140	0.000097
1730	1.7204e+02	-11.1141	-59.275245	0.000416	4.155456	1.407907	0.000166
1731	1.7213e+02	-11.0772	-59.142020	0.000334	3.344635	1.133193	0.000134
1732	1.7223e+02	-11.0371	-59.012832	0.000324	3.243283	1.098854	0.000130
1733	1.7233e+02	-11.0018	-58.879606	0.000334	3.344635	1.133193	0.000134
1734	1.7243e+02	-10.9569	-58.798863	0.000203	2.027052	0.686784	0.000081
1735	1.7253e+02	-10.9152	-58.685824	0.000284	2.837872	0.961497	0.000114
1736	1.7263e+02	-10.8799	-58.556635	0.000324	3.243283	1.098854	0.000130
1737	1.7273e+02	-10.8398	-58.447633	0.000274	2.736520	0.927158	0.000110
1738	1.7283e+02	-10.7917	-58.257887	0.000476	4.763571	1.613942	0.000191
1739	1.7293e+02	-10.7644	-58.144847	0.000284	2.837872	0.961497	0.000114
1740	1.7303e+02	-10.7163	-58.007585	0.000345	3.445988	1.167532	0.000138
1741	1.7313e+02	-10.6730	-57.898582	0.000274	2.736520	0.927158	0.000110
1742	1.7323e+02	-10.6393	-57.785542	0.000284	2.837872	0.961497	0.000114
1743	1.7333e+02	-10.6008	-57.607908	0.000446	4.459514	1.510924	0.000179
1744	1.7343e+02	-10.5671	-57.494869	0.000284	2.837872	0.961497	0.000114
1745	1.7353e+02	-10.5206	-57.373755	0.000304	3.040577	1.030176	0.000122
1746	1.7363e+02	-10.4837	-57.244566	0.000324	3.243283	1.098854	0.000130
1747	1.7373e+02	-10.4403	-57.131526	0.000284	2.837872	0.961497	0.000114
1748	1.7383e+02	-10.3938	-57.038672	0.000233	2.331109	0.789801	0.000093
1749	1.7393e+02	-10.3601	-56.877187	0.000405	4.054103	1.373567	0.000162
1750	1.7403e+02	-10.3216	-56.768184	0.000274	2.736520	0.927158	0.000110
1751	1.7413e+02	-10.2847	-56.614773	0.000385	3.851398	1.304889	0.000154
1752	1.7422e+02	-10.2366	-56.477510	0.000345	3.445988	1.167532	0.000138
1753	1.7432e+02	-10.1981	-56.356396	0.000304	3.040577	1.030176	0.000122
1754	1.7442e+02	-10.1660	-56.215097	0.000355	3.547340	1.201871	0.000142
1755	1.7452e+02	-10.1243	-56.061685	0.000385	3.851398	1.304889	0.000154
1756	1.7462e+02	-10.0810	-55.976906	0.000213	2.128404	0.721123	0.000085
1757	1.7472e+02	-10.0441	-55.787160	0.000476	4.763571	1.613942	0.000191
1758	1.7482e+02	-10.0088	-55.641823	0.000365	3.648693	1.236211	0.000146
1759	1.7492e+02	-9.9623	-55.569155	0.000182	1.824346	0.618105	0.000073
1760	1.7502e+02	-9.9254	-55.407669	0.000405	4.054103	1.373567	0.000162
1761	1.7512e+02	-9.8885	-55.302704	0.000264	2.635167	0.892819	0.000105
1762	1.7522e+02	-9.8323	-55.125070	0.000446	4.459514	1.510924	0.000179
1763	1.7532e+02	-9.8019	-54.983770	0.000355	3.547340	1.201871	0.000142
1764	1.7542e+02	-9.7634	-54.850545	0.000334	3.344635	1.133193	0.000134
1765	1.7552e+02	-9.7329	-54.709245	0.000355	3.547340	1.201871	0.000142
1766	1.7562e+02	-9.6767	-54.592168	0.000294	2.939225	0.995836	0.000118
1767	1.7572e+02	-9.6398	-54.458943	0.000334	3.344635	1.133193	0.000134
1768	1.7582e+02	-9.6078	-54.341866	0.000294	2.939225	0.995836	0.000118
1769	1.7592e+02	-9.5580	-54.192492	0.000375	3.750046	1.270550	0.000150
1770	1.7602e+02	-9.5195	-54.095600	0.000243	2.432462	0.824140	0.000097
1771	1.7612e+02	-9.4810	-53.901818	0.000486	4.864924	1.648281	0.000195
1772	1.7621e+02	-9.4425	-53.772629	0.000324	3.243283	1.098854	0.000130
1773	1.7631e+02	-9.4056	-53.623255	0.000375	3.750046	1.270550	0.000150
1774	1.7641e+02	-9.3735	-53.469844	0.000385	3.851398	1.304889	0.000154
1775	1.7651e+02	-9.3254	-53.336619	0.000334	3.344635	1.133193	0.000134
1776	1.7661e+02	-9.2789	-53.203393	0.000334	3.344635	1.133193	0.000134
1777	1.7671e+02	-9.2580	-53.049982	0.000385	3.851398	1.304889	0.000154
1778	1.7681e+02	-9.2131	-52.908682	0.000355	3.547340	1.201871	0.000142
1779	1.7691e+02	-9.1746	-52.731048	0.000446	4.459514	1.510924	0.000179
1780	1.7701e+02	-9.1120	-52.658380	0.000182	1.824346	0.618105	0.000073
1781	1.7711e+02	-9.0864	-52.521117	0.000345	3.445988	1.167532	0.000138
1782	1.7721e+02	-9.0527	-52.375780	0.000365	3.648693	1.236211	0.000146
1783	1.7731e+02	-8.9981	-52.214295	0.000405	4.054103	1.373567	0.000162
1784	1.7741e+02	-8.9693	-52.040698	0.000436	4.358161	1.476585	0.000174
1785	1.7751e+02	-8.9308	-51.935733	0.000264	2.635167	0.892819	0.000105
1786	1.7761e+02	-8.8923	-51.838841	0.000243	2.432462	0.824140	0.000097
1787	1.7771e+02	-8.8489	-51.661207	0.000446	4.459514	1.510924	0.000179
1788	1.7781e+02	-8.8072	-51.544131	0.000294	2.939225	0.995836	0.000118
1789	1.7791e+02	-8.7591	-51.398794	0.000365	3.648693	1.236211	0.000146
1790	1.7801e+02	-8.7270	-51.277680	0.000304	3.040577	1.030176	0.000122
1791	1.7810e+02	-8.6885	-51.096008	0.000456	4.560866	1.545263	0.000183
1792	1.7820e+02	-8.6468	-50.978932	0.000294	2.939225	0.995836	0.000118
1793	1.7830e+02	-8.6195	-50.821483	0.000395	3.952751	1.339228	0.000158
1794	1.7840e+02	-8.5682	-50.672109	0.000375	3.750046	1.270550	0.000150
1795	1.7850e+02	-8.5249	-50.506587	0.000416	4.155456	1.407907	0.000166
1796	1.7860e+02	-8.4896	-50.397584	0.000274	2.736520	0.927158	0.000110
1797	1.7870e+02	-8.4431	-50.236099	0.000405	4.054103	1.373567	0.000162
1798	1.7880e+02	-8.4094	-50.066539	0.000426	4.256808	1.442246	0.000170
1799	1.7890e+02	-8.3645	-49.961573	0.000264	2.635167	0.892819	0.000105
1800	1.7900e+02	-8.3308	-49.808162	0.000385	3.851398	1.304889	0.000154
1801	1.7910e+02	-8.2907	-49.662825	0.000365	3.648693	1.236211	0.000146
1802	1.7920e+02	-8.2474	-49.501340	0.000405	4.054103	1.373567	0.000162
1803	1.7930e+02	-8.2024	-49.376189	0.000314	3.141930	1.064515	0.000126
1804	1.7940e+02	-8.1688	-49.210666	0.000416	4.155456	1.407907	0.000166
1805	1.7950e+02	-8.1319	-49.097626	0.000284	2.837872	0.961497	0.000114
1806	1.7960e+02	-8.0918	-48.924029	0.000436	4.358161	1.476585	0.000174
1807	1.7970e+02	-8.0549	-48.806953	0.000294	2.939225	0.995836	0.000118
1808	1.7980e+02	-8.0099	-48.629319	0.000446	4.459514	1.510924	0.000179
1809	1.7990e+02	-7.9730	-48.492056	0.000345	3.445988	1.167532	0.000138
1810	1.8000e+02	-7.9329	-48.326533	0.000416	4.155456	1.407907	0.000166
1811	1.8009e+02	-7.8896	-48.185234	0.000355	3.547340	1.201871	0.000142
1812	1.8019e+02	-7.8431	-48.060082	0.000314	3.141930	1.064515	0.000126
1813	1.8029e+02	-7.8174	-47.902634	0.000395	3.952751	1.339228	0.000158
1814	1.8039e+02	-7.7645	-47.761334	0.000355	3.547340	1.201871	0.000142
1815	1.8049e+02	-7.7276	-47.628109	0.000334	3.344635	1.133193	0.000134
1816	1.8059e+02	-7.6955	-47.462586	0.000416	4.155456	1.407907	0.000166
1817	1.8069e+02	-7.6586	-47.333398	0.000324	3.243283	1.098854	0.000130
1818	1.8079e+02	-7.6105	-47.147690	0.000466	4.662219	1.579602	0.000187
1819	1.8089e+02	-7.5752	-46.994279	0.000385	3.851398	1.304889	0.000154
1820	1.8099e+02	-7.5367	-46.869127	0.000314	3.141930	1.064515	0.000126
1821	1.8109e+02	-7.4886	-46.711679	0.000395	3.952751	1.339228	0.000158
1822	1.8119e+02	-7.4661	-46.542119	0.000426	4.256808	1.442246	0.000170
1823	1.8129e+02	-7.4116	-46.416968	0.000314	3.141930	1.064515	0.000126
1824	1.8139e+02	-7.3731	-46.223186	0.000486	4.864924	1.648281	0.000195
1825	1.8149e+02	-7.3313	-46.114183	0.000274	2.736520	0.927158	0.000110
1826	1.8159e+02	-7.2944	-45.928475	0.000466	4.662219	1.579602	0.000187
1827	1.8169e+02	-7.2608	-45.775064	0.000385	3.851398	1.304889	0.000154
1828	1.8179e+02	-7.2126	-45.657987	0.000294	2.939225	0.995836	0.000118
1829	1.8189e+02	-7.1773	-45.508613	0.000375	3.750046	1.270550	0.000150
1830	1.8199e+02	-7.1276	-45.314830	0.000486	4.864924	1.648281	0.000195
1831	1.8209e+02	-7.1019	-45.197753	0.000294	2.939225	0.995836	0.000118
1832	1.8218e+02	-7.0538	-45.024156	0.000436	4.358161	1.476585	0.000174
1833	1.8228e+02	-7.0073	-44.870745	0.000385	3.851398	1.304889	0.000154
1834	1.8238e+02	-6.9736	-44.705223	0.000416	4.155456	1.407907	0.000166
1835	1.8248e+02	-6.9303	-44.531626	0.000436	4.358161	1.476585	0.000174
1836	1.8258e+02	-6.8902	-44.410512	0.000304	3.040577	1.030176	0.000122
1837	1.8268e+02	-6.8485	-44.224803	0.000466	4.662219	1.579602	0.000187
1838	1.8278e+02	-6.8180	-44.107727	0.000294	2.939225	0.995836	0.000118
1839	1.8288e+02	-6.7763	-43.966427	0.000355	3.547340	1.201871	0.000142
1840	1.8298e+02	-6.7362	-43.792830	0.000436	4.358161	1.476585	0.000174
1841	1.8308e+02	-6.6945	-43.639419	0.000385	3.851398	1.304889	0.000154
1842	1.8318e+02	-6.6479	-43.477933	0.000405	4.054103	1.373567	0.000162
1843	1.8328e+02	-6.6126	-43.312411	0.000416	4.155456	1.407907	0.000166
1844	1.8338e+02	-6.5790	-43.150925	0.000405	4.054103	1.373567	0.000162
1845	1.8348e+02	-6.5308	-43.017700	0.000334	3.344635	1.133193	0.000134
1846	1.8358e+02	-6.4923	-42.819880	0.000497	4.966277	1.682620	0.000199
1847	1.8368e+02	-6.4635	-42.674543	0.000365	3.648693	1.236211	0.000146
1848	1.8378e+02	-6.4233	-42.581689	0.000233	2.331109	0.789801	0.000093
1849	1.8388e+02	-6.3848	-42.371758	0.000527	5.270334	1.785638	0.000211
1850	1.8398e+02	-6.3383	-42.214310	0.000395	3.952751	1.339228	0.000158
1851	1.8407e+02	-6.2950	-42.113381	0.000253	2.533815	0.858480	0.000101
1852	1.8417e+02	-6.2677	-41.939785	0.000436	4.358161	1.476585	0.000174
1853	1.8427e+02	-6.2132	-41.746002	0.000486	4.864924	1.648281	0.000195
1854	1.8437e+02	-6.1779	-41.620851	0.000314	3.141930	1.064515	0.000126
1855	1.8447e+02	-6.1442	-41.451291	0.000426	4.256808	1.442246	0.000170
1856	1.8457e+02	-6.0993	-41.297880	0.000385	3.851398	1.304889	0.000154
1857	1.8467e+02	-6.0592	-41.120246	0.000446	4.459514	1.510924	0.000179
1858	1.8477e+02	-6.0191	-40.982983	0.000345	3.445988	1.167532	0.000138
1859	1.8487e+02	-5.9854	-40.841684	0.000355	3.547340	1.201871	0.000142
1860	1.8497e+02	-5.9437	-40.631753	0.000527	5.270334	1.785638	0.000211
1861	1.8507e+02	-5.9020	-40.546973	0.000213	2.128404	0.721123	0.000085
1862	1.8517e+02	-5.8587	-40.308782	0.000598	5.979802	2.026012	0.000239
1863	1.8527e+02	-5.8234	-40.143259	0.000416	4.155456	1.407907	0.000166
1864	1.8537e+02	-5.7833	-39.993885	0.000375	3.750046	1.270550	0.000150
1865	1.8547e+02	-5.7399	-39.840474	0.000385	3.851398	1.304889	0.000154
1866	1.8557e+02	-5.7095	-39.642654	0.000497	4.966277	1.682620	0.000199
1867	1.8567e+02	-5.6613	-39.469058	0.000436	4.358161	1.476585	0.000174
1868	1.8577e+02	-5.6164	-39.327758	0.000355	3.547340	1.201871	0.000142
1869	1.8587e+02	-5.5859	-39.170309	0.000395	3.952751	1.339228	0.000158
1870	1.8597e+02	-5.5394	-38.988638	0.000456	4.560866	1.545263	0.000183
1871	1.8606e+02	-5.5073	-38.855413	0.000334	3.344635	1.133193	0.000134
1872	1.8616e+02	-5.4656	-38.693927	0.000405	4.054103	1.373567	0.000162
1873	1.8626e+02	-5.4191	-38.492071	0.000507	5.067629	1.716959	0.000203
1874	1.8636e+02	-5.3886	-38.334622	0.000395	3.952751	1.339228	0.000158
1875	1.8646e+02	-5.3277	-38.140840	0.000486	4.864924	1.648281	0.000195
1876	1.8656e+02	-5.3020	-37.979354	0.000405	4.054103	1.373567	0.000162
1877	1.8666e+02	-5.2667	-37.821906	0.000395	3.952751	1.339228	0.000158
1878	1.8676e+02	-5.2186	-37.656384	0.000416	4.155456	1.407907	0.000166
1879	1.8686e+02	-5.1865	-37.458564	0.000497	4.966277	1.682620	0.000199
1880	1.8696e+02	-5.1432	-37.297079	0.000405	4.054103	1.373567	0.000162
1881	1.8706e+02	-5.1079	-37.151742	0.000365	3.648693	1.236211	0.000146
1882	1.8716e+02	-5.0614	-36.949885	0.000507	5.067629	1.716959	0.000203
1883	1.8726e+02	-5.0309	-36.832808	0.000294	2.939225	0.995836	0.000118
1884	1.8736e+02	-4.9876	-36.614803	0.000547	5.473039	1.854316	0.000219
1885	1.8746e+02	-4.9442	-36.457354	0.000395	3.952751	1.339228	0.000158
1886	1.8756e+02	-4.9009	-36.263572	0.000486	4.864924	1.648281	0.000195
1887	1.8766e+02	-4.8688	-36.102086	0.000405	4.054103	1.373567	0.000162
1888	1.8776e+02	-4.8271	-35.940601	0.000405	4.054103	1.373567	0.000162
1889	1.8786e+02	-4.7967	-35.718558	0.000557	5.574392	1.888655	0.000223
1890	1.8796e+02	-4.7453	-35.565147	0.000385	3.851398	1.304889	0.000154
1891	1.8806e+02	-4.7084	-35.419810	0.000365	3.648693	1.236211	0.000146
1892	1.8815e+02	-4.6683	-35.221991	0.000497	4.966277	1.682620	0.000199
1893	1.8825e+02	-4.6218	-35.016097	0.000517	5.168982	1.751298	0.000207
1894	1.8835e+02	-4.5817	-34.834426	0.000456	4.560866	1.545263	0.000183
1895	1.8845e+02	-4.5512	-34.681015	0.000385	3.851398	1.304889	0.000154
1896	1.8855e+02	-4.5015	-34.507418	0.000436	4.358161	1.476585	0.000174
1897	1.8865e+02	-4.4598	-34.301524	0.000517	5.168982	1.751298	0.000207
1898	1.8875e+02	-4.4325	-34.115816	0.000466	4.662219	1.579602	0.000187
1899	1.8885e+02	-4.3828	-33.942219	0.000436	4.358161	1.476585	0.000174
1900	1.8895e+02	-4.3475	-33.792845	0.000375	3.750046	1.270550	0.000150
1901	1.8905e+02	-4.3026	-33.607136	0.000466	4.662219	1.579602	0.000187
1902	1.8915e+02	-4.2721	-33.405280	0.000507	5.067629	1.716959	0.000203
1903	1.8925e+02	-4.2255	-33.227646	0.000446	4.459514	1.510924	0.000179
1904	1.8935e+02	-4.1983	-33.102494	0.000314	3.141930	1.064515	0.000126
1905	1.8945e+02	-4.1469	-32.880452	0.000557	5.574392	1.888655	0.000223
1906	1.8955e+02	-4.1116	-32.698781	0.000456	4.560866	1.545263	0.000183
1907	1.8965e+02	-4.0683	-32.500961	0.000497	4.966277	1.682620	0.000199
1908	1.8975e+02	-4.0282	-32.315253	0.000466	4.662219	1.579602	0.000187
1909	1.8985e+02	-3.9865	-32.093211	0.000557	5.574392	1.888655	0.000223
1910	1.8995e+02	-3.9400	-31.980171	0.000284	2.837872	0.961497	0.000114
1911	1.9004e+02	-3.9031	-31.750054	0.000578	5.777097	1.957334	0.000231
1912	1.9014e+02	-3.8646	-31.572420	0.000446	4.459514	1.510924	0.000179
1913	1.9024e+02	-3.8277	-31.398823	0.000436	4.358161	1.476585	0.000174
1914	1.9034e+02	-3.7972	-31.168706	0.000578	5.777097	1.957334	0.000231
1915	1.9044e+02	-3.7459	-31.023370	0.000365	3.648693	1.236211	0.000146
1916	1.9054e+02	-3.6994	-30.813439	0.000527	5.270334	1.785638	0.000211
1917	1.9064e+02	-3.6737	-30.643879	0.000426	4.256808	1.442246	0.000170
1918	1.9074e+02	-3.6304	-30.462208	0.000456	4.560866	1.545263	0.000183
1919	1.9084e+02	-3.5919	-30.284574	0.000446	4.459514	1.510924	0.000179
1920	1.9094e+02	-3.5341	-30.062531	0.000557	5.574392	1.888655	0.000223
1921	1.9104e+02	-3.5004	-29.848563	0.000537	5.371687	1.819977	0.000215
1922	1.9114e+02	-3.4667	-29.687078	0.000405	4.054103	1.373567	0.000162
1923	1.9124e+02	-3.4202	-29.501369	0.000466	4.662219	1.579602	0.000187
1924	1.9134e+02	-3.3849	-29.311624	0.000476	4.763571	1.613942	0.000191
1925	1.9144e+02	-3.3480	-29.129953	0.000456	4.560866	1.545263	0.000183
1926	1.9154e+02	-3.3047	-28.928096	0.000507	5.067629	1.716959	0.000203
1927	1.9164e+02	-3.2807	-28.697979	0.000578	5.777097	1.957334	0.000231
1928	1.9174e+02	-3.2245	-28.520345	0.000446	4.459514	1.510924	0.000179
1929	1.9184e+02	-3.1908	-28.342711	0.000446	4.459514	1.510924	0.000179
1930	1.9194e+02	-3.1539	-28.100483	0.000608	6.081155	2.060351	0.000243
1931	1.9203e+02	-3.1138	-27.902664	0.000497	4.966277	1.682620	0.000199
1932	1.9213e+02	-3.0753	-27.720993	0.000456	4.560866	1.545263	0.000183
1933	1.9223e+02	-3.0320	-27.494913	0.000568	5.675745	1.922994	0.000227
1934	1.9233e+02	-2.9903	-27.309205	0.000466	4.662219	1.579602	0.000187
1935	1.9243e+02	-2.9582	-27.103311	0.000517	5.168982	1.751298	0.000207
1936	1.9253e+02	-2.9181	-26.921640	0.000456	4.560866	1.545263	0.000183
1937	1.9263e+02	-2.8748	-26.691523	0.000578	5.777097	1.957334	0.000231
1938	1.9273e+02	-2.8234	-26.505815	0.000466	4.662219	1.579602	0.000187
1939	1.9283e+02	-2.7866	-26.316069	0.000476	4.763571	1.613942	0.000191
1940	1.9293e+02	-2.7481	-26.102101	0.000537	5.371687	1.819977	0.000215
1941	1.9303e+02	-2.7176	-25.855836	0.000618	6.182508	2.094690	0.000248
1942	1.9313e+02	-2.6694	-25.662053	0.000486	4.864924	1.648281	0.000195
1943	1.9323e+02	-2.6293	-25.480382	0.000456	4.560866	1.545263	0.000183
1944	1.9333e+02	-2.5956	-25.242191	0.000598	5.979802	2.026012	0.000239
1945	1.9343e+02	-2.5620	-25.024186	0.000547	5.473039	1.854316	0.000219
1946	1.9353e+02	-2.5154	-24.838478	0.000466	4.662219	1.579602	0.000187
1947	1.9363e+02	-2.4737	-24.652769	0.000466	4.662219	1.579602	0.000187
1948	1.9373e+02	-2.4304	-24.430727	0.000557	5.574392	1.888655	0.000223
1949	1.9383e+02	-2.3919	-24.204647	0.000568	5.675745	1.922994	0.000227
1950	1.9393e+02	-2.3550	-24.010865	0.000486	4.864924	1.648281	0.000195
1951	1.9403e+02	-2.3069	-23.804971	0.000517	5.168982	1.751298	0.000207
1952	1.9412e+02	-2.2700	-23.574854	0.000578	5.777097	1.957334	0.000231
1953	1.9422e+02	-2.2363	-23.320515	0.000639	6.385213	2.163369	0.000256
1954	1.9432e+02	-2.1978	-23.118658	0.000507	5.067629	1.716959	0.000203
1955	1.9442e+02	-2.1529	-22.924875	0.000486	4.864924	1.648281	0.000195
1956	1.9452e+02	-2.1096	-22.674573	0.000628	6.283860	2.129029	0.000252
1957	1.9462e+02	-2.0679	-22.496939	0.000446	4.459514	1.510924	0.000179
1958	1.9472e+02	-2.0342	-22.246636	0.000628	6.283860	2.129029	0.000252
1959	1.9482e+02	-1.9941	-22.060928	0.000466	4.662219	1.579602	0.000187
1960	1.9492e+02	-1.9507	-21.859071	0.000507	5.067629	1.716959	0.000203
1961	1.9502e+02	-1.9171	-21.637029	0.000557	5.574392	1.888655	0.000223
1962	1.9512e+02	-1.8737	-21.419024	0.000547	5.473039	1.854316	0.000219
1963	1.9522e+02	-1.8352	-21.180833	0.000598	5.979802	2.026012	0.000239
1964	1.9532e+02	-1.7919	-20.934567	0.000618	6.182508	2.094690	0.000248
1965	1.9542e+02	-1.7566	-20.732711	0.000507	5.067629	1.716959	0.000203
1966	1.9552e+02	-1.7165	-20.506631	0.000568	5.675745	1.922994	0.000227
1967	1.9562e+02	-1.6684	-20.296700	0.000527	5.270334	1.785638	0.000211
1968	1.9572e+02	-1.6363	-20.082732	0.000537	5.371687	1.819977	0.000215
1969	1.9582e+02	-1.5914	-19.852615	0.000578	5.777097	1.957334	0.000231
1970	1.9592e+02	-1.5545	-19.654795	0.000497	4.966277	1.682620	0.000199
1971	1.9601e+02	-1.5128	-19.376233	0.000699	6.993328	2.369404	0.000280
1972	1.9611e+02	-1.4839	-19.158228	0.000547	5.473039	1.854316	0.000219
1973	1.9621e+02	-1.4422	-18.940222	0.000547	5.473039	1.854316	0.000219
1974	1.9631e+02	-1.3861	-18.661660	0.000699	6.993328	2.369404	0.000280
1975	1.9641e+02	-1.3684	-18.475952	0.000466	4.662219	1.579602	0.000187
1976	1.9651e+02	-1.3123	-18.237761	0.000598	5.979802	2.026012	0.000239
1977	1.9661e+02	-1.2818	-18.003607	0.000588	5.878450	1.991673	0.000235
1978	1.9671e+02	-1.2369	-17.789639	0.000537	5.371687	1.819977	0.000215
1979	1.9681e+02	-1.1968	-17.595856	0.000486	4.864924	1.648281	0.000195
1980	1.9691e+02	-1.1679	-17.297108	0.000750	7.500091	2.541100	0.000300
1981	1.9701e+02	-1.1182	-17.087177	0.000527	5.270334	1.785638	0.000211
1982	1.9711e+02	-1.0732	-16.861097	0.000568	5.675745	1.922994	0.000227
1983	1.9721e+02	-1.0460	-16.643092	0.000547	5.473039	1.854316	0.000219
1984	1.9731e+02	-0.9994	-16.384715	0.000649	6.486565	2.197708	0.000260
1985	1.9741e+02	-0.9609	-16.126339	0.000649	6.486565	2.197708	0.000260
1986	1.9751e+02	-0.9208	-15.900259	0.000568	5.675745	1.922994	0.000227
1987	1.9761e+02	-0.8759	-15.678217	0.000557	5.574392	1.888655	0.000223
1988	1.9771e+02	-0.8326	-15.444063	0.000588	5.878450	1.991673	0.000235
1989	1.9781e+02	-0.7941	-15.157426	0.000720	7.196033	2.438082	0.000288
1990	1.9791e+02	-0.7540	-14.967681	0.000476	4.763571	1.613942	0.000191
1991	1.9800e+02	-0.7267	-14.660858	0.000770	7.702796	2.609778	0.000308
1992	1.9810e+02	-0.6690	-14.442853	0.000547	5.473039	1.854316	0.000219
1993	1.9820e+02	-0.6385	-14.188514	0.000639	6.385213	2.163369	0.000256
1994	1.9830e+02	-0.6080	-13.974545	0.000537	5.371687	1.819977	0.000215
1995	1.9840e+02	-0.5551	-13.712132	0.000659	6.587918	2.232047	0.000264
1996	1.9850e+02	-0.5166	-13.469903	0.000608	6.081155	2.060351	0.000243
1997	1.9860e+02	-0.4749	-13.215564	0.000639	6.385213	2.163369	0.000256
1998	1.9870e+02	-0.4412	-12.989484	0.000568	5.675745	1.922994	0.000227
1999	1.9880e+02	-0.4027	-12.735145	0.000639	6.385213	2.163369	0.000256
2000	1.9890e+02	-0.3658	-12.476768	0.000649	6.486565	2.197708	0.000260
2001	1.9900e+02	-0.3225	-12.186094	0.000730	7.297386	2.472421	0.000292
2002	1.9910e+02	-0.2807	-11.976163	0.000527	5.270334	1.785638	0.000211
2003	1.9920e+02	-0.2390	-11.737972	0.000598	5.979802	2.026012	0.000239
2004	1.9930e+02	-0.2005	-11.495744	0.000608	6.081155	2.060351	0.000243
2005	1.9940e+02	-0.1668	-11.237367	0.000649	6.486565	2.197708	0.000260
2006	1.9950e+02	-0.1203	-10.999176	0.000598	5.979802	2.026012	0.000239
2007	1.9960e+02	-0.0866	-10.724651	0.000689	6.891976	2.335065	0.000276
2008	1.9970e+02	-0.0385	-10.486460	0.000598	5.979802	2.026012	0.000239
2009	1.9980e+02	-0.0048	-10.224046	0.000598	5.979802	2.026012	0.000264

Center data before PMax,+/-Pr and +/-Vc Calc.

PMax (uC/cm2):	8.18e+01
Pr (uC/cm2):	4.82e+00
-Pr (uC/cm2):	-1.02e+01
PLoss (uC/cm2):	-5.45e+00
Vc:	8.16e-01
-Vc:	-7.87e-01
C (Max-Eff) (nF):	4.09e-01
K (Eff):	1.39e+03
Vert. (+/-Pr) Shift (uC/cm2):	-2.70e+00
Horiz. Shift (+/-Vc):	1.45e-02
Offset (uC/cm2):	4.77e+00

A (Loop Area - uC/cm2·Volts):	3.85e-02



Hysteresis Version: 5.48.1 - Radiant Technologies, Inc., 1999 - 9/12/24

