»»»»»»»»»»»»»»»»»»»»»»»»»»»»»»»»»»»» Hysteresis ««««««««««««««««««««««««««««««««««««
»»»  Executed Version:	5.48.1
»»»  Vision Version:	5.48.4 (R)
»»»  Vision Compiled:	9/18/24
»»»  Driver Version:	5.47.0
»»»  Windows Version:	Windows 8 or 8.1
»»»  Processor Information:	x86 (AMD or Intel) - 32 Processors
»»»  Tester Name:	PMF21124-494 (100V)
»»»  Tester S/N:	PMF21124-494
»»»  Internal Amp Type:	100V RevK 270k
»»»  Internal Amp S/N:	iAB2-596/K     
»»»  Execution Count:	1
»»»»»»»»»»»»»»»»»»»»»»»»»»»»»»»»»»»»»»»»»»««««««««««««««««««««««««««««««««««««««««««

Stored:	6/12/2025 - 10:54:12
Configured:	06/12/25 10:06:17 AM
Executed:	06/12/25 10:53:42 AM

»»»»»»»»»»»»»»»»»»»»»»»»»»»»»»»»»»» Sample Info ««««««««««««««««««««««««««««««««««««
Sample Name:	
Lot Name:	
Wafer Name:	
Die Row/Column:	0/0
Capacitor Number:	0
Sample Area (cm2):	1.00e-04
Sample Thickness (microns):	3.00e-01

Amplifier:	Internal

»»»»»»»»»»»»»»»»»»»»»»»»»»»»»»»»»»» Tester Info «««««««««««««««««««««««««««««««««««
Tester Name:	PMF21124-494 (100V)
Tester Serial Number:	PMF21124-494
Return Signal Amp. Level:	0.19 [Index: 3]

»»»»»»»»»»»»»»»»»»»»»»»»»»»»»»»» Hysteresis Info ««««««««««««««««««««««««««««««««««
Task Name:	Hyst-1390
Volts:	20.00
Field:	666.67 (kV/cm)
DCBias:	0.00
DCField:	0.00 (kV/cm)
Hysteresis Period (ms):	2.00e+02
Preset:	Enabled
Preset Delay (ms):	1.00e+03
Profile:	Standard Bipolar

»»»»»»»»»»»»»»»»»»»»»»»»»»»»»»»»»»»»»» Data «««««««««««««««««««««««««««««««««««««««
Points:	2009

Valid Data

Point	Time (ms)	Drive Voltage	Measured Polarization (uC/cm2)	Capacitance (uF)	Normalized Capacitance (uF/cm2)	Dielectric Constant	Instantaneous Current (mA)
   1	0.0000e+00	0.0000	-4.588205	0.000426	4.256979	1.442304	0.000170
   2	9.9500e-02	0.0289	-4.418645	0.000426	4.256979	1.442304	0.000170
   3	1.9900e-01	0.0738	-4.212751	0.000517	5.169189	1.751369	0.000207
   4	2.9850e-01	0.1043	-3.982634	0.000578	5.777329	1.957412	0.000231
   5	3.9800e-01	0.1492	-3.792889	0.000476	4.763762	1.614006	0.000191
   6	4.9750e-01	0.1957	-3.611218	0.000456	4.561049	1.545325	0.000183
   7	5.9700e-01	0.2342	-3.409361	0.000507	5.067832	1.717028	0.000203
   8	6.9650e-01	0.2663	-3.207504	0.000507	5.067832	1.717028	0.000203
   9	7.9600e-01	0.3144	-2.997573	0.000527	5.270546	1.785709	0.000211
  10	8.9550e-01	0.3481	-2.783605	0.000537	5.371902	1.820050	0.000215
  11	9.9500e-01	0.3930	-2.565600	0.000547	5.473259	1.854390	0.000219
  12	1.0945e+00	0.4347	-2.363743	0.000507	5.067832	1.717028	0.000203
  13	1.1940e+00	0.4668	-2.145738	0.000547	5.473259	1.854390	0.000219
  14	1.2935e+00	0.5037	-1.951955	0.000487	4.865119	1.648347	0.000195
  15	1.3930e+00	0.5454	-1.758173	0.000487	4.865119	1.648347	0.000195
  16	1.4925e+00	0.5871	-1.556316	0.000507	5.067832	1.717028	0.000203
  17	1.5920e+00	0.6224	-1.310051	0.000618	6.182756	2.094774	0.000248
  18	1.6915e+00	0.6738	-1.128379	0.000456	4.561049	1.545325	0.000183
  19	1.7910e+00	0.7059	-0.934597	0.000487	4.865119	1.648347	0.000195
  20	1.8905e+00	0.7508	-0.668146	0.000669	6.689539	2.266477	0.000268
  21	1.9900e+00	0.7845	-0.502623	0.000416	4.155623	1.407963	0.000166
  22	2.0895e+00	0.8214	-0.248284	0.000639	6.385469	2.163455	0.000256
  23	2.1890e+00	0.8599	-0.074687	0.000436	4.358336	1.476644	0.000174
  24	2.2885e+00	0.9000	0.135244	0.000527	5.270546	1.785709	0.000211
  25	2.3880e+00	0.9385	0.393621	0.000649	6.486825	2.197796	0.000260
  26	2.4875e+00	0.9706	0.615663	0.000557	5.574616	1.888731	0.000223
  27	2.5870e+00	1.0315	0.785223	0.000426	4.256979	1.442304	0.000170
  28	2.6865e+00	1.0652	0.970931	0.000466	4.662406	1.579666	0.000187
  29	2.7860e+00	1.0957	1.225271	0.000639	6.385469	2.163455	0.000256
  30	2.8855e+00	1.1470	1.435202	0.000527	5.270546	1.785709	0.000211
  31	2.9850e+00	1.1887	1.661281	0.000568	5.675972	1.923071	0.000227
  32	3.0845e+00	1.2208	1.871212	0.000527	5.270546	1.785709	0.000211
  33	3.1840e+00	1.2561	2.028661	0.000395	3.952909	1.339282	0.000158
  34	3.2835e+00	1.3026	2.254740	0.000568	5.675972	1.923071	0.000227
  35	3.3830e+00	1.3427	2.492931	0.000598	5.980042	2.026093	0.000239
  36	3.4825e+00	1.3877	2.686714	0.000487	4.865119	1.648347	0.000195
  37	3.5820e+00	1.4278	2.908756	0.000557	5.574616	1.888731	0.000223
  38	3.6815e+00	1.4663	3.126762	0.000547	5.473259	1.854390	0.000219
  39	3.7810e+00	1.5096	3.312470	0.000466	4.662406	1.579666	0.000187
  40	3.8805e+00	1.5417	3.534512	0.000557	5.574616	1.888731	0.000223
  41	3.9800e+00	1.5882	3.724258	0.000476	4.763762	1.614006	0.000191
  42	4.0795e+00	1.6219	3.974560	0.000628	6.284112	2.129115	0.000252
  43	4.1790e+00	1.6620	4.172380	0.000497	4.966476	1.682688	0.000199
  44	4.2785e+00	1.7021	4.378274	0.000517	5.169189	1.751369	0.000207
  45	4.3780e+00	1.7406	4.612428	0.000588	5.878686	1.991753	0.000235
  46	4.4775e+00	1.7839	4.798136	0.000466	4.662406	1.579666	0.000187
  47	4.5770e+00	1.8240	5.040364	0.000608	6.081399	2.060434	0.000243
  48	4.6765e+00	1.8657	5.246258	0.000517	5.169189	1.751369	0.000207
  49	4.7760e+00	1.9122	5.407743	0.000405	4.054266	1.373622	0.000162
  50	4.8755e+00	1.9443	5.629786	0.000557	5.574616	1.888731	0.000223
  51	4.9750e+00	1.9876	5.855865	0.000568	5.675972	1.923071	0.000227
  52	5.0745e+00	2.0229	6.053685	0.000497	4.966476	1.682688	0.000199
  53	5.1740e+00	2.0614	6.267653	0.000537	5.371902	1.820050	0.000215
  54	5.2735e+00	2.1048	6.465473	0.000497	4.966476	1.682688	0.000199
  55	5.3730e+00	2.1449	6.663293	0.000497	4.966476	1.682688	0.000199
  56	5.4725e+00	2.1802	6.889372	0.000568	5.675972	1.923071	0.000227
  57	5.5720e+00	2.2235	7.103340	0.000537	5.371902	1.820050	0.000215
  58	5.6715e+00	2.2636	7.313271	0.000527	5.270546	1.785709	0.000211
  59	5.7710e+00	2.3037	7.503017	0.000476	4.763762	1.614006	0.000191
  60	5.8705e+00	2.3438	7.741208	0.000598	5.980042	2.026093	0.000239
  61	5.9700e+00	2.3839	7.959213	0.000547	5.473259	1.854390	0.000219
  62	6.0695e+00	2.4240	8.112624	0.000385	3.851553	1.304941	0.000154
  63	6.1690e+00	2.4641	8.358890	0.000618	6.182756	2.094774	0.000248
  64	6.2685e+00	2.4914	8.536524	0.000446	4.459693	1.510985	0.000179
  65	6.3680e+00	2.5379	8.782789	0.000618	6.182756	2.094774	0.000248
  66	6.4675e+00	2.5876	8.972534	0.000476	4.763762	1.614006	0.000191
  67	6.5670e+00	2.6181	9.142094	0.000426	4.256979	1.442304	0.000170
  68	6.6665e+00	2.6582	9.412582	0.000679	6.790895	2.300818	0.000272
  69	6.7660e+00	2.7015	9.578105	0.000416	4.155623	1.407963	0.000166
  70	6.8655e+00	2.7513	9.775924	0.000497	4.966476	1.682688	0.000199
  71	6.9650e+00	2.7849	10.054487	0.000699	6.993609	2.369499	0.000280
  72	7.0645e+00	2.8186	10.211935	0.000395	3.952909	1.339282	0.000158
  73	7.1640e+00	2.8587	10.409755	0.000497	4.966476	1.682688	0.000199
  74	7.2635e+00	2.8972	10.595463	0.000466	4.662406	1.579666	0.000187
  75	7.3630e+00	2.9325	10.809431	0.000537	5.371902	1.820050	0.000215
  76	7.4625e+00	2.9742	11.051659	0.000608	6.081399	2.060434	0.000243
  77	7.5620e+00	3.0192	11.201033	0.000375	3.750196	1.270601	0.000150
  78	7.6615e+00	3.0625	11.439224	0.000598	5.980042	2.026093	0.000239
  79	7.7610e+00	3.1042	11.600710	0.000405	4.054266	1.373622	0.000162
  80	7.8605e+00	3.1363	11.818715	0.000547	5.473259	1.854390	0.000219
  81	7.9600e+00	3.1780	12.069017	0.000628	6.284112	2.129115	0.000252
  82	8.0595e+00	3.2133	12.226466	0.000395	3.952909	1.339282	0.000158
  83	8.1590e+00	3.2646	12.464657	0.000598	5.980042	2.026093	0.000239
  84	8.2585e+00	3.2983	12.626142	0.000405	4.054266	1.373622	0.000162
  85	8.3580e+00	3.3288	12.823962	0.000497	4.966476	1.682688	0.000199
  86	8.4575e+00	3.3817	13.041967	0.000547	5.473259	1.854390	0.000219
  87	8.5570e+00	3.4202	13.268047	0.000568	5.675972	1.923071	0.000227
  88	8.6565e+00	3.4555	13.409346	0.000355	3.547483	1.201920	0.000142
  89	8.7560e+00	3.5020	13.647537	0.000598	5.980042	2.026093	0.000239
  90	8.8555e+00	3.5373	13.813060	0.000416	4.155623	1.407963	0.000166
  91	8.9550e+00	3.5839	14.043177	0.000578	5.777329	1.957412	0.000231
  92	9.0545e+00	3.6127	14.212736	0.000426	4.256979	1.442304	0.000170
  93	9.1540e+00	3.6544	14.446890	0.000588	5.878686	1.991753	0.000235
  94	9.2535e+00	3.6929	14.612413	0.000416	4.155623	1.407963	0.000166
  95	9.3530e+00	3.7330	14.826381	0.000537	5.371902	1.820050	0.000215
  96	9.4525e+00	3.7619	15.020164	0.000487	4.865119	1.648347	0.000195
  97	9.5520e+00	3.8084	15.222020	0.000507	5.067832	1.717028	0.000203
  98	9.6515e+00	3.8534	15.379469	0.000395	3.952909	1.339282	0.000158
  99	9.7510e+00	3.9031	15.597474	0.000547	5.473259	1.854390	0.000219
 100	9.8505e+00	3.9352	15.754922	0.000395	3.952909	1.339282	0.000158
 101	9.9500e+00	3.9753	15.981002	0.000568	5.675972	1.923071	0.000227
 102	1.0050e+01	4.0122	16.178821	0.000497	4.966476	1.682688	0.000199
 103	1.0149e+01	4.0491	16.360493	0.000456	4.561049	1.545325	0.000183
 104	1.0248e+01	4.0956	16.530052	0.000426	4.256979	1.442304	0.000170
 105	1.0348e+01	4.1309	16.744020	0.000537	5.371902	1.820050	0.000215
 106	1.0447e+01	4.1822	16.933766	0.000476	4.763762	1.614006	0.000191
 107	1.0547e+01	4.2111	17.127548	0.000487	4.865119	1.648347	0.000195
 108	1.0646e+01	4.2544	17.305182	0.000446	4.459693	1.510985	0.000179
 109	1.0746e+01	4.2945	17.507039	0.000507	5.067832	1.717028	0.000203
 110	1.0845e+01	4.3394	17.692747	0.000466	4.662406	1.579666	0.000187
 111	1.0945e+01	4.3667	17.846159	0.000385	3.851553	1.304941	0.000154
 112	1.1044e+01	4.4132	18.052052	0.000517	5.169189	1.751369	0.000207
 113	1.1144e+01	4.4550	18.233724	0.000456	4.561049	1.545325	0.000183
 114	1.1243e+01	4.5015	18.455766	0.000557	5.574616	1.888731	0.000223
 115	1.1343e+01	4.5304	18.625326	0.000426	4.256979	1.442304	0.000170
 116	1.1443e+01	4.5737	18.794885	0.000426	4.256979	1.442304	0.000170
 117	1.1542e+01	4.6106	19.004816	0.000527	5.270546	1.785709	0.000211
 118	1.1642e+01	4.6507	19.166302	0.000405	4.054266	1.373622	0.000162
 119	1.1741e+01	4.6892	19.376233	0.000527	5.270546	1.785709	0.000211
 120	1.1841e+01	4.7389	19.565978	0.000476	4.763762	1.614006	0.000191
 121	1.1940e+01	4.7694	19.755724	0.000476	4.763762	1.614006	0.000191
 122	1.2040e+01	4.8255	19.929321	0.000436	4.358336	1.476644	0.000174
 123	1.2139e+01	4.8496	20.110992	0.000456	4.561049	1.545325	0.000183
 124	1.2239e+01	4.9025	20.268440	0.000395	3.952909	1.339282	0.000158
 125	1.2338e+01	4.9346	20.474334	0.000517	5.169189	1.751369	0.000207
 126	1.2438e+01	4.9731	20.635819	0.000405	4.054266	1.373622	0.000162
 127	1.2537e+01	5.0020	20.817490	0.000456	4.561049	1.545325	0.000183
 128	1.2636e+01	5.0581	21.023384	0.000517	5.169189	1.751369	0.000207
 129	1.2736e+01	5.0886	21.168721	0.000365	3.648839	1.236260	0.000146
 130	1.2835e+01	5.1255	21.378652	0.000527	5.270546	1.785709	0.000211
 131	1.2935e+01	5.1672	21.568398	0.000476	4.763762	1.614006	0.000191
 132	1.3034e+01	5.2089	21.750069	0.000456	4.561049	1.545325	0.000183
 133	1.3134e+01	5.2523	21.951926	0.000507	5.067832	1.717028	0.000203
 134	1.3233e+01	5.2988	22.129560	0.000446	4.459693	1.510985	0.000179
 135	1.3333e+01	5.3357	22.287008	0.000395	3.952909	1.339282	0.000158
 136	1.3432e+01	5.3613	22.488865	0.000507	5.067832	1.717028	0.000203
 137	1.3532e+01	5.4159	22.634202	0.000365	3.648839	1.236260	0.000146
 138	1.3632e+01	5.4512	22.787613	0.000385	3.851553	1.304941	0.000154
 139	1.3731e+01	5.4897	23.013692	0.000568	5.675972	1.923071	0.000227
 140	1.3831e+01	5.5362	23.179215	0.000416	4.155623	1.407963	0.000166
 141	1.3930e+01	5.5667	23.336663	0.000395	3.952909	1.339282	0.000158
 142	1.4030e+01	5.6084	23.550631	0.000537	5.371902	1.820050	0.000215
 143	1.4129e+01	5.6485	23.740377	0.000476	4.763762	1.614006	0.000191
 144	1.4229e+01	5.6870	23.913974	0.000436	4.358336	1.476644	0.000174
 145	1.4328e+01	5.7223	24.051236	0.000345	3.446126	1.167579	0.000138
 146	1.4428e+01	5.7736	24.228870	0.000446	4.459693	1.510985	0.000179
 147	1.4527e+01	5.8105	24.394393	0.000416	4.155623	1.407963	0.000166
 148	1.4627e+01	5.8506	24.567990	0.000436	4.358336	1.476644	0.000174
 149	1.4726e+01	5.8923	24.713326	0.000365	3.648839	1.236260	0.000146
 150	1.4825e+01	5.9276	24.882886	0.000426	4.256979	1.442304	0.000170
 151	1.4925e+01	5.9726	25.056483	0.000436	4.358336	1.476644	0.000174
 152	1.5024e+01	6.0111	25.266414	0.000527	5.270546	1.785709	0.000211
 153	1.5124e+01	6.0367	25.391565	0.000314	3.142056	1.064557	0.000126
 154	1.5223e+01	6.0816	25.617645	0.000568	5.675972	1.923071	0.000227
 155	1.5323e+01	6.1234	25.738759	0.000304	3.040699	1.030217	0.000122
 156	1.5422e+01	6.1651	25.916393	0.000446	4.459693	1.510985	0.000179
 157	1.5522e+01	6.2100	26.150547	0.000588	5.878686	1.991753	0.000235
 158	1.5621e+01	6.2565	26.247438	0.000243	2.432560	0.824173	0.000097
 159	1.5721e+01	6.2838	26.437183	0.000476	4.763762	1.614006	0.000191
 160	1.5820e+01	6.3191	26.614817	0.000446	4.459693	1.510985	0.000179
 161	1.5920e+01	6.3736	26.780340	0.000416	4.155623	1.407963	0.000166
 162	1.6020e+01	6.4089	26.937788	0.000395	3.952909	1.339282	0.000158
 163	1.6119e+01	6.4474	27.131571	0.000487	4.865119	1.648347	0.000195
 164	1.6218e+01	6.4811	27.276908	0.000365	3.648839	1.236260	0.000146
 165	1.6318e+01	6.5276	27.414170	0.000345	3.446126	1.167579	0.000138
 166	1.6418e+01	6.5597	27.595841	0.000456	4.561049	1.545325	0.000183
 167	1.6517e+01	6.6030	27.813847	0.000547	5.473259	1.854390	0.000219
 168	1.6616e+01	6.6415	27.934961	0.000304	3.040699	1.030217	0.000122
 169	1.6716e+01	6.6800	28.104520	0.000426	4.256979	1.442304	0.000170
 170	1.6816e+01	6.7265	28.274080	0.000426	4.256979	1.442304	0.000170
 171	1.6915e+01	6.7570	28.427491	0.000385	3.851553	1.304941	0.000154
 172	1.7015e+01	6.7955	28.588977	0.000405	4.054266	1.373622	0.000162
 173	1.7114e+01	6.8501	28.734314	0.000365	3.648839	1.236260	0.000146
 174	1.7213e+01	6.8822	28.903873	0.000426	4.256979	1.442304	0.000170
 175	1.7313e+01	6.9239	29.129953	0.000568	5.675972	1.923071	0.000227
 176	1.7413e+01	6.9688	29.323735	0.000487	4.865119	1.648347	0.000195
 177	1.7512e+01	7.0089	29.408515	0.000213	2.128490	0.721152	0.000085
 178	1.7611e+01	7.0490	29.570001	0.000405	4.054266	1.373622	0.000162
 179	1.7711e+01	7.0859	29.763783	0.000487	4.865119	1.648347	0.000195
 180	1.7811e+01	7.1196	29.917194	0.000385	3.851553	1.304941	0.000154
 181	1.7910e+01	7.1613	30.054457	0.000345	3.446126	1.167579	0.000138
 182	1.8009e+01	7.2014	30.256314	0.000507	5.067832	1.717028	0.000203
 183	1.8109e+01	7.2367	30.429911	0.000436	4.358336	1.476644	0.000174
 184	1.8209e+01	7.2816	30.530839	0.000253	2.533916	0.858514	0.000101
 185	1.8308e+01	7.3185	30.716547	0.000466	4.662406	1.579666	0.000187
 186	1.8407e+01	7.3634	30.869958	0.000385	3.851553	1.304941	0.000154
 187	1.8507e+01	7.4067	31.055667	0.000466	4.662406	1.579666	0.000187
 188	1.8607e+01	7.4388	31.213115	0.000395	3.952909	1.339282	0.000158
 189	1.8706e+01	7.4725	31.406897	0.000487	4.865119	1.648347	0.000195
 190	1.8805e+01	7.5158	31.564346	0.000395	3.952909	1.339282	0.000158
 191	1.8905e+01	7.5672	31.681423	0.000294	2.939343	0.995876	0.000118
 192	1.9005e+01	7.5960	31.850982	0.000426	4.256979	1.442304	0.000170
 193	1.9104e+01	7.6506	31.996319	0.000365	3.648839	1.236260	0.000146
 194	1.9203e+01	7.6795	32.149730	0.000385	3.851553	1.304941	0.000154
 195	1.9303e+01	7.7132	32.311216	0.000405	4.054266	1.373622	0.000162
 196	1.9402e+01	7.7565	32.521147	0.000527	5.270546	1.785709	0.000211
 197	1.9502e+01	7.7998	32.646298	0.000314	3.142056	1.064557	0.000126
 198	1.9602e+01	7.8479	32.779524	0.000334	3.344769	1.133239	0.000134
 199	1.9701e+01	7.8784	32.961195	0.000456	4.561049	1.545325	0.000183
 200	1.9800e+01	7.9185	33.126717	0.000416	4.155623	1.407963	0.000166
 201	1.9900e+01	7.9554	33.243794	0.000294	2.939343	0.995876	0.000118
 202	2.0000e+01	7.9955	33.425465	0.000456	4.561049	1.545325	0.000183
 203	2.0099e+01	8.0388	33.590988	0.000416	4.155623	1.407963	0.000166
 204	2.0198e+01	8.0725	33.704028	0.000284	2.837986	0.961536	0.000114
 205	2.0298e+01	8.1190	33.893773	0.000476	4.763762	1.614006	0.000191
 206	2.0398e+01	8.1591	34.026999	0.000334	3.344769	1.133239	0.000134
 207	2.0497e+01	8.2121	34.204633	0.000446	4.459693	1.510985	0.000179
 208	2.0596e+01	8.2458	34.366118	0.000405	4.054266	1.373622	0.000162
 209	2.0696e+01	8.2730	34.507418	0.000355	3.547483	1.201920	0.000142
 210	2.0796e+01	8.3228	34.672940	0.000416	4.155623	1.407963	0.000166
 211	2.0895e+01	8.3548	34.818277	0.000365	3.648839	1.236260	0.000146
 212	2.0994e+01	8.4014	34.967651	0.000375	3.750196	1.270601	0.000150
 213	2.1094e+01	8.4367	35.149322	0.000456	4.561049	1.545325	0.000183
 214	2.1194e+01	8.4816	35.335031	0.000466	4.662406	1.579666	0.000187
 215	2.1293e+01	8.5153	35.452107	0.000294	2.939343	0.995876	0.000118
 216	2.1392e+01	8.5634	35.605519	0.000385	3.851553	1.304941	0.000154
 217	2.1492e+01	8.5987	35.754893	0.000375	3.750196	1.270601	0.000150
 218	2.1591e+01	8.6356	35.876007	0.000304	3.040699	1.030217	0.000122
 219	2.1691e+01	8.6757	36.017306	0.000355	3.547483	1.201920	0.000142
 220	2.1791e+01	8.7206	36.211089	0.000487	4.865119	1.648347	0.000195
 221	2.1890e+01	8.7575	36.352389	0.000355	3.547483	1.201920	0.000142
 222	2.1989e+01	8.7912	36.513874	0.000405	4.054266	1.373622	0.000162
 223	2.2089e+01	8.8361	36.647100	0.000334	3.344769	1.133239	0.000134
 224	2.2189e+01	8.8874	36.800511	0.000385	3.851553	1.304941	0.000154
 225	2.2288e+01	8.9211	36.949885	0.000375	3.750196	1.270601	0.000150
 226	2.2387e+01	8.9564	37.135593	0.000466	4.662406	1.579666	0.000187
 227	2.2487e+01	8.9981	37.264781	0.000324	3.243413	1.098898	0.000130
 228	2.2587e+01	9.0399	37.418193	0.000385	3.851553	1.304941	0.000154
 229	2.2686e+01	9.0800	37.579678	0.000405	4.054266	1.373622	0.000162
 230	2.2785e+01	9.1104	37.712903	0.000334	3.344769	1.133239	0.000134
 231	2.2885e+01	9.1618	37.886500	0.000436	4.358336	1.476644	0.000174
 232	2.2985e+01	9.1955	38.056060	0.000426	4.256979	1.442304	0.000170
 233	2.3084e+01	9.2275	38.201397	0.000365	3.648839	1.236260	0.000146
 234	2.3183e+01	9.2693	38.334622	0.000334	3.344769	1.133239	0.000134
 235	2.3283e+01	9.3190	38.496108	0.000405	4.054266	1.373622	0.000162
 236	2.3383e+01	9.3511	38.621259	0.000314	3.142056	1.064557	0.000126
 237	2.3482e+01	9.4024	38.766596	0.000365	3.648839	1.236260	0.000146
 238	2.3581e+01	9.4281	38.940193	0.000436	4.358336	1.476644	0.000174
 239	2.3681e+01	9.4746	39.101678	0.000405	4.054266	1.373622	0.000162
 240	2.3780e+01	9.5163	39.275275	0.000436	4.358336	1.476644	0.000174
 241	2.3880e+01	9.5484	39.388315	0.000284	2.837986	0.961536	0.000114
 242	2.3980e+01	9.5997	39.517503	0.000324	3.243413	1.098898	0.000130
 243	2.4079e+01	9.6302	39.662840	0.000365	3.648839	1.236260	0.000146
 244	2.4178e+01	9.6719	39.840474	0.000446	4.459693	1.510985	0.000179
 245	2.4278e+01	9.7168	39.985811	0.000365	3.648839	1.236260	0.000146
 246	2.4378e+01	9.7537	40.139222	0.000385	3.851553	1.304941	0.000154
 247	2.4477e+01	9.7906	40.244188	0.000264	2.635273	0.892855	0.000105
 248	2.4576e+01	9.8388	40.413747	0.000426	4.256979	1.442304	0.000170
 249	2.4676e+01	9.8757	40.591381	0.000446	4.459693	1.510985	0.000179
 250	2.4776e+01	9.9174	40.744792	0.000385	3.851553	1.304941	0.000154
 251	2.4875e+01	9.9559	40.894166	0.000375	3.750196	1.270601	0.000150
 252	2.4974e+01	9.9944	40.995095	0.000253	2.533916	0.858514	0.000101
 253	2.5074e+01	10.0313	41.172729	0.000446	4.459693	1.510985	0.000179
 254	2.5174e+01	10.0650	41.309991	0.000345	3.446126	1.167579	0.000138
 255	2.5273e+01	10.1083	41.459365	0.000375	3.750196	1.270601	0.000150
 256	2.5372e+01	10.1484	41.620851	0.000405	4.054266	1.373622	0.000162
 257	2.5472e+01	10.1885	41.746002	0.000314	3.142056	1.064557	0.000126
 258	2.5572e+01	10.2286	41.875190	0.000324	3.243413	1.098898	0.000130
 259	2.5671e+01	10.2687	42.052824	0.000446	4.459693	1.510985	0.000179
 260	2.5770e+01	10.3120	42.202198	0.000375	3.750196	1.270601	0.000150
 261	2.5870e+01	10.3441	42.339461	0.000345	3.446126	1.167579	0.000138
 262	2.5970e+01	10.3970	42.492872	0.000385	3.851553	1.304941	0.000154
 263	2.6069e+01	10.4291	42.654358	0.000405	4.054266	1.373622	0.000162
 264	2.6169e+01	10.4772	42.763360	0.000274	2.736630	0.927195	0.000110
 265	2.6268e+01	10.5093	42.912734	0.000375	3.750196	1.270601	0.000150
 266	2.6367e+01	10.5559	43.054034	0.000355	3.547483	1.201920	0.000142
 267	2.6467e+01	10.5895	43.227631	0.000436	4.358336	1.476644	0.000174
 268	2.6567e+01	10.6232	43.348745	0.000304	3.040699	1.030217	0.000122
 269	2.6666e+01	10.6633	43.530416	0.000456	4.561049	1.545325	0.000183
 270	2.6765e+01	10.7131	43.671716	0.000355	3.547483	1.201920	0.000142
 271	2.6865e+01	10.7419	43.744384	0.000182	1.824420	0.618130	0.000073
 272	2.6965e+01	10.7917	43.974501	0.000578	5.777329	1.957412	0.000231
 273	2.7064e+01	10.8318	44.091578	0.000294	2.939343	0.995876	0.000118
 274	2.7163e+01	10.8719	44.204618	0.000284	2.837986	0.961536	0.000114
 275	2.7263e+01	10.9040	44.353992	0.000375	3.750196	1.270601	0.000150
 276	2.7363e+01	10.9473	44.499329	0.000365	3.648839	1.236260	0.000146
 277	2.7462e+01	10.9874	44.640628	0.000355	3.547483	1.201920	0.000142
 278	2.7561e+01	11.0339	44.753668	0.000284	2.837986	0.961536	0.000114
 279	2.7661e+01	11.0724	44.899005	0.000365	3.648839	1.236260	0.000146
 280	2.7761e+01	11.1093	45.060491	0.000405	4.054266	1.373622	0.000162
 281	2.7860e+01	11.1446	45.185642	0.000314	3.142056	1.064557	0.000126
 282	2.7959e+01	11.1895	45.286570	0.000253	2.533916	0.858514	0.000101
 283	2.8059e+01	11.2296	45.464204	0.000446	4.459693	1.510985	0.000179
 284	2.8159e+01	11.2633	45.605504	0.000355	3.547483	1.201920	0.000142
 285	2.8258e+01	11.3114	45.762952	0.000395	3.952909	1.339282	0.000158
 286	2.8358e+01	11.3516	45.932512	0.000426	4.256979	1.442304	0.000170
 287	2.8457e+01	11.3868	46.045552	0.000284	2.837986	0.961536	0.000114
 288	2.8556e+01	11.4253	46.190889	0.000365	3.648839	1.236260	0.000146
 289	2.8656e+01	11.4687	46.299891	0.000274	2.736630	0.927195	0.000110
 290	2.8756e+01	11.5120	46.477525	0.000446	4.459693	1.510985	0.000179
 291	2.8855e+01	11.5489	46.622862	0.000365	3.648839	1.236260	0.000146
 292	2.8954e+01	11.5906	46.743976	0.000304	3.040699	1.030217	0.000122
 293	2.9054e+01	11.6259	46.901424	0.000395	3.952909	1.339282	0.000158
 294	2.9154e+01	11.6612	47.030613	0.000324	3.243413	1.098898	0.000130
 295	2.9253e+01	11.7061	47.167875	0.000345	3.446126	1.167579	0.000138
 296	2.9352e+01	11.7430	47.309175	0.000355	3.547483	1.201920	0.000142
 297	2.9452e+01	11.7815	47.466623	0.000395	3.952909	1.339282	0.000158
 298	2.9552e+01	11.8232	47.587738	0.000304	3.040699	1.030217	0.000122
 299	2.9651e+01	11.8665	47.749223	0.000405	4.054266	1.373622	0.000162
 300	2.9750e+01	11.9034	47.842077	0.000233	2.331203	0.789833	0.000093
 301	2.9850e+01	11.9483	47.995488	0.000385	3.851553	1.304941	0.000154
 302	2.9950e+01	11.9740	48.161011	0.000416	4.155623	1.407963	0.000166
 303	3.0049e+01	12.0189	48.298273	0.000345	3.446126	1.167579	0.000138
 304	3.0148e+01	12.0638	48.383053	0.000213	2.128490	0.721152	0.000085
 305	3.0248e+01	12.1087	48.536464	0.000385	3.851553	1.304941	0.000154
 306	3.0348e+01	12.1440	48.693913	0.000395	3.952909	1.339282	0.000158
 307	3.0447e+01	12.1874	48.823101	0.000324	3.243413	1.098898	0.000130
 308	3.0547e+01	12.2210	48.964401	0.000355	3.547483	1.201920	0.000142
 309	3.0646e+01	12.2595	49.113775	0.000375	3.750196	1.270601	0.000150
 310	3.0745e+01	12.2997	49.206629	0.000233	2.331203	0.789833	0.000093
 311	3.0845e+01	12.3446	49.400411	0.000487	4.865119	1.648347	0.000195
 312	3.0945e+01	12.3783	49.497303	0.000243	2.432560	0.824173	0.000097
 313	3.1044e+01	12.4296	49.634565	0.000345	3.446126	1.167579	0.000138
 314	3.1143e+01	12.4553	49.763754	0.000324	3.243413	1.098898	0.000130
 315	3.1243e+01	12.5018	49.876793	0.000284	2.837986	0.961536	0.000114
 316	3.1343e+01	12.5531	50.030205	0.000385	3.851553	1.304941	0.000154
 317	3.1442e+01	12.5884	50.151319	0.000304	3.040699	1.030217	0.000122
 318	3.1541e+01	12.6189	50.292618	0.000355	3.547483	1.201920	0.000142
 319	3.1641e+01	12.6606	50.437955	0.000365	3.648839	1.236260	0.000146
 320	3.1741e+01	12.7039	50.579255	0.000355	3.547483	1.201920	0.000142
 321	3.1840e+01	12.7328	50.700369	0.000304	3.040699	1.030217	0.000122
 322	3.1939e+01	12.7841	50.857817	0.000395	3.952909	1.339282	0.000158
 323	3.2039e+01	12.8194	50.926449	0.000172	1.723063	0.583790	0.000069
 324	3.2139e+01	12.8627	51.100046	0.000436	4.358336	1.476644	0.000174
 325	3.2238e+01	12.8964	51.200974	0.000253	2.533916	0.858514	0.000101
 326	3.2337e+01	12.9381	51.350348	0.000375	3.750196	1.270601	0.000150
 327	3.2437e+01	12.9750	51.463388	0.000284	2.837986	0.961536	0.000114
 328	3.2536e+01	13.0183	51.580465	0.000294	2.939343	0.995876	0.000118
 329	3.2636e+01	13.0601	51.697542	0.000294	2.939343	0.995876	0.000118
 330	3.2736e+01	13.1050	51.891324	0.000487	4.865119	1.648347	0.000195
 331	3.2835e+01	13.1387	51.968030	0.000193	1.925776	0.652471	0.000077
 332	3.2934e+01	13.1740	52.153738	0.000466	4.662406	1.579666	0.000187
 333	3.3034e+01	13.2253	52.258704	0.000264	2.635273	0.892855	0.000105
 334	3.3133e+01	13.2574	52.391929	0.000334	3.344769	1.133239	0.000134
 335	3.3233e+01	13.3023	52.517080	0.000314	3.142056	1.064557	0.000126
 336	3.3333e+01	13.3472	52.654343	0.000345	3.446126	1.167579	0.000138
 337	3.3432e+01	13.3745	52.775457	0.000304	3.040699	1.030217	0.000122
 338	3.3532e+01	13.4146	52.884460	0.000274	2.736630	0.927195	0.000110
 339	3.3631e+01	13.4547	53.017685	0.000334	3.344769	1.133239	0.000134
 340	3.3730e+01	13.4916	53.146873	0.000324	3.243413	1.098898	0.000130
 341	3.3830e+01	13.5429	53.316433	0.000426	4.256979	1.442304	0.000170
 342	3.3929e+01	13.5798	53.409287	0.000233	2.331203	0.789833	0.000093
 343	3.4029e+01	13.6167	53.586921	0.000446	4.459693	1.510985	0.000179
 344	3.4129e+01	13.6536	53.679775	0.000233	2.331203	0.789833	0.000093
 345	3.4228e+01	13.6873	53.841261	0.000405	4.054266	1.373622	0.000162
 346	3.4328e+01	13.7435	53.954301	0.000284	2.837986	0.961536	0.000114
 347	3.4427e+01	13.7755	54.103675	0.000375	3.750196	1.270601	0.000150
 348	3.4526e+01	13.8124	54.196529	0.000233	2.331203	0.789833	0.000093
 349	3.4626e+01	13.8461	54.325717	0.000324	3.243413	1.098898	0.000130
 350	3.4725e+01	13.8927	54.438757	0.000284	2.837986	0.961536	0.000114
 351	3.4825e+01	13.9376	54.584094	0.000365	3.648839	1.236260	0.000146
 352	3.4925e+01	13.9745	54.717319	0.000334	3.344769	1.133239	0.000134
 353	3.5024e+01	14.0114	54.898990	0.000456	4.561049	1.545325	0.000183
 354	3.5123e+01	14.0547	55.007993	0.000274	2.736630	0.927195	0.000110
 355	3.5223e+01	14.0964	55.112959	0.000264	2.635273	0.892855	0.000105
 356	3.5322e+01	14.1397	55.242147	0.000324	3.243413	1.098898	0.000130
 357	3.5422e+01	14.1750	55.314815	0.000182	1.824420	0.618130	0.000073
 358	3.5522e+01	14.2199	55.504561	0.000476	4.763762	1.614006	0.000191
 359	3.5621e+01	14.2424	55.633749	0.000324	3.243413	1.098898	0.000130
 360	3.5721e+01	14.3017	55.746789	0.000284	2.837986	0.961536	0.000114
 361	3.5820e+01	14.3290	55.871940	0.000314	3.142056	1.064557	0.000126
 362	3.5919e+01	14.3739	55.984980	0.000284	2.837986	0.961536	0.000114
 363	3.6019e+01	14.4060	56.142428	0.000395	3.952909	1.339282	0.000158
 364	3.6118e+01	14.4509	56.255468	0.000284	2.837986	0.961536	0.000114
 365	3.6218e+01	14.4910	56.380619	0.000314	3.142056	1.064557	0.000126
 366	3.6318e+01	14.5343	56.513845	0.000334	3.344769	1.133239	0.000134
 367	3.6417e+01	14.5793	56.643033	0.000324	3.243413	1.098898	0.000130
 368	3.6517e+01	14.6097	56.760110	0.000294	2.939343	0.995876	0.000118
 369	3.6616e+01	14.6450	56.885261	0.000314	3.142056	1.064557	0.000126
 370	3.6715e+01	14.6932	57.006375	0.000304	3.040699	1.030217	0.000122
 371	3.6815e+01	14.7317	57.143638	0.000345	3.446126	1.167579	0.000138
 372	3.6914e+01	14.7702	57.293012	0.000375	3.750196	1.270601	0.000150
 373	3.7014e+01	14.8103	57.381829	0.000223	2.229846	0.755492	0.000089
 374	3.7114e+01	14.8488	57.523129	0.000355	3.547483	1.201920	0.000142
 375	3.7213e+01	14.8889	57.615983	0.000233	2.331203	0.789833	0.000093
 376	3.7313e+01	14.9370	57.761320	0.000365	3.648839	1.236260	0.000146
 377	3.7412e+01	14.9707	57.866285	0.000264	2.635273	0.892855	0.000105
 378	3.7511e+01	15.0124	57.987399	0.000304	3.040699	1.030217	0.000122
 379	3.7611e+01	15.0477	58.116588	0.000324	3.243413	1.098898	0.000130
 380	3.7711e+01	15.0894	58.274036	0.000395	3.952909	1.339282	0.000158
 381	3.7810e+01	15.1215	58.387076	0.000284	2.837986	0.961536	0.000114
 382	3.7910e+01	15.1728	58.496078	0.000274	2.736630	0.927195	0.000110
 383	3.8009e+01	15.2033	58.625267	0.000324	3.243413	1.098898	0.000130
 384	3.8108e+01	15.2514	58.778678	0.000385	3.851553	1.304941	0.000154
 385	3.8208e+01	15.2915	58.847309	0.000172	1.723063	0.583790	0.000069
 386	3.8307e+01	15.3252	59.012832	0.000416	4.155623	1.407963	0.000166
 387	3.8407e+01	15.3702	59.133946	0.000304	3.040699	1.030217	0.000122
 388	3.8507e+01	15.4054	59.283320	0.000375	3.750196	1.270601	0.000150
 389	3.8606e+01	15.4456	59.400397	0.000294	2.939343	0.995876	0.000118
 390	3.8706e+01	15.4889	59.473065	0.000182	1.824420	0.618130	0.000073
 391	3.8805e+01	15.5338	59.630513	0.000395	3.952909	1.339282	0.000158
 392	3.8904e+01	15.5723	59.727405	0.000243	2.432560	0.824173	0.000097
 393	3.9004e+01	15.6076	59.896964	0.000426	4.256979	1.442304	0.000170
 394	3.9103e+01	15.6493	60.018078	0.000304	3.040699	1.030217	0.000122
 395	3.9203e+01	15.6910	60.102858	0.000213	2.128490	0.721152	0.000085
 396	3.9303e+01	15.7343	60.252232	0.000375	3.750196	1.270601	0.000150
 397	3.9402e+01	15.7648	60.405643	0.000385	3.851553	1.304941	0.000154
 398	3.9502e+01	15.8113	60.494460	0.000223	2.229846	0.755492	0.000089
 399	3.9601e+01	15.8402	60.655946	0.000405	4.054266	1.373622	0.000162
 400	3.9700e+01	15.8883	60.768986	0.000284	2.837986	0.961536	0.000114
 401	3.9800e+01	15.9236	60.877988	0.000274	2.736630	0.927195	0.000110
 402	3.9900e+01	15.9717	61.003140	0.000314	3.142056	1.064557	0.000126
 403	3.9999e+01	16.0086	61.132328	0.000324	3.243413	1.098898	0.000130
 404	4.0099e+01	16.0487	61.265553	0.000334	3.344769	1.133239	0.000134
 405	4.0198e+01	16.0824	61.394742	0.000324	3.243413	1.098898	0.000130
 406	4.0297e+01	16.1290	61.487596	0.000233	2.331203	0.789833	0.000093
 407	4.0397e+01	16.1707	61.616784	0.000324	3.243413	1.098898	0.000130
 408	4.0496e+01	16.2156	61.729824	0.000284	2.837986	0.961536	0.000114
 409	4.0596e+01	16.2396	61.907458	0.000446	4.459693	1.510985	0.000179
 410	4.0696e+01	16.2846	62.004349	0.000243	2.432560	0.824173	0.000097
 411	4.0795e+01	16.3215	62.121426	0.000294	2.939343	0.995876	0.000118
 412	4.0895e+01	16.3648	62.274837	0.000385	3.851553	1.304941	0.000154
 413	4.0994e+01	16.4145	62.367691	0.000233	2.331203	0.789833	0.000093
 414	4.1093e+01	16.4514	62.517065	0.000375	3.750196	1.270601	0.000150
 415	4.1193e+01	16.4899	62.626068	0.000274	2.736630	0.927195	0.000110
 416	4.1292e+01	16.5300	62.755256	0.000324	3.243413	1.098898	0.000130
 417	4.1392e+01	16.5605	62.815814	0.000152	1.520350	0.515108	0.000061
 418	4.1492e+01	16.6102	62.997485	0.000456	4.561049	1.545325	0.000183
 419	4.1591e+01	16.6503	63.122636	0.000314	3.142056	1.064557	0.000126
 420	4.1691e+01	16.6856	63.231638	0.000274	2.736630	0.927195	0.000110
 421	4.1790e+01	16.7209	63.348715	0.000294	2.939343	0.995876	0.000118
 422	4.1889e+01	16.7626	63.449644	0.000253	2.533916	0.858514	0.000101
 423	4.1989e+01	16.7995	63.566721	0.000294	2.939343	0.995876	0.000118
 424	4.2089e+01	16.8477	63.699946	0.000334	3.344769	1.133239	0.000134
 425	4.2188e+01	16.8862	63.845283	0.000365	3.648839	1.236260	0.000146
 426	4.2288e+01	16.9214	63.982546	0.000345	3.446126	1.167579	0.000138
 427	4.2387e+01	16.9551	64.079437	0.000243	2.432560	0.824173	0.000097
 428	4.2486e+01	17.0017	64.212662	0.000334	3.344769	1.133239	0.000134
 429	4.2586e+01	17.0418	64.281294	0.000172	1.723063	0.583790	0.000069
 430	4.2685e+01	17.0771	64.454891	0.000436	4.358336	1.476644	0.000174
 431	4.2785e+01	17.1188	64.535633	0.000203	2.027133	0.686811	0.000081
 432	4.2885e+01	17.1653	64.689044	0.000385	3.851553	1.304941	0.000154
 433	4.2984e+01	17.1942	64.826307	0.000345	3.446126	1.167579	0.000138
 434	4.3084e+01	17.2375	64.923198	0.000243	2.432560	0.824173	0.000097
 435	4.3183e+01	17.2792	65.036238	0.000284	2.837986	0.961536	0.000114
 436	4.3282e+01	17.3241	65.161389	0.000314	3.142056	1.064557	0.000126
 437	4.3382e+01	17.3642	65.302689	0.000355	3.547483	1.201920	0.000142
 438	4.3481e+01	17.4043	65.423803	0.000304	3.040699	1.030217	0.000122
 439	4.3581e+01	17.4380	65.524732	0.000253	2.533916	0.858514	0.000101
 440	4.3681e+01	17.4893	65.670068	0.000365	3.648839	1.236260	0.000146
 441	4.3780e+01	17.5214	65.754848	0.000213	2.128490	0.721152	0.000085
 442	4.3880e+01	17.5567	65.912297	0.000395	3.952909	1.339282	0.000158
 443	4.3979e+01	17.5984	66.017262	0.000264	2.635273	0.892855	0.000105
 444	4.4078e+01	17.6450	66.134339	0.000294	2.939343	0.995876	0.000118
 445	4.4178e+01	17.6851	66.243342	0.000274	2.736630	0.927195	0.000110
 446	4.4278e+01	17.7268	66.344270	0.000253	2.533916	0.858514	0.000101
 447	4.4377e+01	17.7621	66.521904	0.000446	4.459693	1.510985	0.000179
 448	4.4477e+01	17.7942	66.618795	0.000243	2.432560	0.824173	0.000097
 449	4.4576e+01	17.8391	66.707612	0.000223	2.229846	0.755492	0.000089
 450	4.4675e+01	17.8808	66.816615	0.000274	2.736630	0.927195	0.000110
 451	4.4775e+01	17.9257	66.974063	0.000395	3.952909	1.339282	0.000158
 452	4.4874e+01	17.9594	67.079029	0.000264	2.635273	0.892855	0.000105
 453	4.4974e+01	18.0027	67.200143	0.000304	3.040699	1.030217	0.000122
 454	4.5074e+01	18.0444	67.260700	0.000152	1.520350	0.515108	0.000061
 455	4.5173e+01	18.0765	67.446408	0.000466	4.662406	1.579666	0.000187
 456	4.5273e+01	18.1150	67.567522	0.000304	3.040699	1.030217	0.000122
 457	4.5372e+01	18.1583	67.676525	0.000274	2.736630	0.927195	0.000110
 458	4.5471e+01	18.1968	67.797639	0.000304	3.040699	1.030217	0.000122
 459	4.5571e+01	18.2401	67.914716	0.000294	2.939343	0.995876	0.000118
 460	4.5670e+01	18.2802	68.011607	0.000243	2.432560	0.824173	0.000097
 461	4.5770e+01	18.3139	68.177130	0.000416	4.155623	1.407963	0.000166
 462	4.5870e+01	18.3476	68.294207	0.000294	2.939343	0.995876	0.000118
 463	4.5969e+01	18.3909	68.395135	0.000253	2.533916	0.858514	0.000101
 464	4.6069e+01	18.4358	68.528361	0.000334	3.344769	1.133239	0.000134
 465	4.6168e+01	18.4808	68.649475	0.000304	3.040699	1.030217	0.000122
 466	4.6267e+01	18.5225	68.798849	0.000375	3.750196	1.270601	0.000150
 467	4.6367e+01	18.5626	68.891703	0.000233	2.331203	0.789833	0.000093
 468	4.6467e+01	18.5947	68.980520	0.000223	2.229846	0.755492	0.000089
 469	4.6566e+01	18.6412	69.142005	0.000405	4.054266	1.373622	0.000162
 470	4.6666e+01	18.6749	69.259082	0.000294	2.939343	0.995876	0.000118
 471	4.6765e+01	18.7166	69.380196	0.000304	3.040699	1.030217	0.000122
 472	4.6864e+01	18.7519	69.456902	0.000193	1.925776	0.652471	0.000077
 473	4.6964e+01	18.7936	69.565904	0.000274	2.736630	0.927195	0.000110
 474	4.7063e+01	18.8273	69.739501	0.000436	4.358336	1.476644	0.000174
 475	4.7163e+01	18.8786	69.812170	0.000182	1.824420	0.618130	0.000073
 476	4.7263e+01	18.9123	69.989804	0.000446	4.459693	1.510985	0.000179
 477	4.7362e+01	18.9604	70.046324	0.000142	1.418993	0.480768	0.000057
 478	4.7462e+01	19.0053	70.151289	0.000264	2.635273	0.892855	0.000105
 479	4.7561e+01	19.0438	70.268366	0.000294	2.939343	0.995876	0.000118
 480	4.7660e+01	19.0807	70.393517	0.000314	3.142056	1.064557	0.000126
 481	4.7760e+01	19.1160	70.559040	0.000416	4.155623	1.407963	0.000166
 482	4.7859e+01	19.1706	70.631708	0.000182	1.824420	0.618130	0.000073
 483	4.7959e+01	19.1995	70.744748	0.000284	2.837986	0.961536	0.000114
 484	4.8059e+01	19.2331	70.857788	0.000284	2.837986	0.961536	0.000114
 485	4.8158e+01	19.2716	71.011199	0.000385	3.851553	1.304941	0.000154
 486	4.8258e+01	19.3214	71.075793	0.000162	1.621706	0.549449	0.000065
 487	4.8357e+01	19.3567	71.188833	0.000284	2.837986	0.961536	0.000114
 488	4.8456e+01	19.3952	71.342244	0.000385	3.851553	1.304941	0.000154
 489	4.8556e+01	19.4353	71.422987	0.000203	2.027133	0.686811	0.000081
 490	4.8656e+01	19.4722	71.568324	0.000365	3.648839	1.236260	0.000146
 491	4.8755e+01	19.5123	71.669252	0.000253	2.533916	0.858514	0.000101
 492	4.8855e+01	19.5572	71.798441	0.000324	3.243413	1.098898	0.000130
 493	4.8954e+01	19.5893	71.891295	0.000233	2.331203	0.789833	0.000093
 494	4.9053e+01	19.6390	72.020483	0.000324	3.243413	1.098898	0.000130
 495	4.9153e+01	19.6743	72.137560	0.000294	2.939343	0.995876	0.000118
 496	4.9252e+01	19.7144	72.262711	0.000314	3.142056	1.064557	0.000126
 497	4.9352e+01	19.7593	72.371714	0.000274	2.736630	0.927195	0.000110
 498	4.9452e+01	19.7786	72.500902	0.000324	3.243413	1.098898	0.000130
 499	4.9551e+01	19.8347	72.601831	0.000253	2.533916	0.858514	0.000101
 500	4.9651e+01	19.8620	72.731019	0.000324	3.243413	1.098898	0.000130
 501	4.9750e+01	19.9085	72.823873	0.000233	2.331203	0.789833	0.000093
 502	4.9849e+01	19.9534	72.957098	0.000334	3.344769	1.133239	0.000134
 503	4.9949e+01	19.9887	73.053990	0.000243	2.432560	0.824173	0.000097
 504	5.0048e+01	19.9663	72.993433	0.000152	1.520350	0.515108	-0.000061
 505	5.0148e+01	19.9069	72.916727	0.000193	1.925776	0.652471	-0.000077
 506	5.0248e+01	19.8748	72.835984	0.000203	2.027133	0.686811	-0.000081
 507	5.0347e+01	19.8412	72.747167	0.000223	2.229846	0.755492	-0.000089
 508	5.0447e+01	19.7930	72.622016	0.000314	3.142056	1.064557	-0.000126
 509	5.0546e+01	19.7513	72.601831	0.000051	0.506783	0.171703	-0.000020
 510	5.0645e+01	19.7192	72.513014	0.000223	2.229846	0.755492	-0.000089
 511	5.0745e+01	19.6807	72.404011	0.000274	2.736630	0.927195	-0.000110
 512	5.0844e+01	19.6278	72.311157	0.000233	2.331203	0.789833	-0.000093
 513	5.0944e+01	19.5893	72.222340	0.000223	2.229846	0.755492	-0.000089
 514	5.1044e+01	19.5508	72.145634	0.000193	1.925776	0.652471	-0.000077
 515	5.1143e+01	19.5059	72.077003	0.000172	1.723063	0.583790	-0.000069
 516	5.1242e+01	19.4706	71.923592	0.000385	3.851553	1.304941	-0.000154
 517	5.1342e+01	19.4337	71.863035	0.000152	1.520350	0.515108	-0.000061
 518	5.1441e+01	19.3920	71.810552	0.000132	1.317636	0.446427	-0.000053
 519	5.1541e+01	19.3454	71.689438	0.000304	3.040699	1.030217	-0.000122
 520	5.1641e+01	19.3134	71.608695	0.000203	2.027133	0.686811	-0.000081
 521	5.1740e+01	19.2749	71.499692	0.000274	2.736630	0.927195	-0.000110
 522	5.1840e+01	19.2412	71.443173	0.000142	1.418993	0.480768	-0.000057
 523	5.1939e+01	19.1882	71.338207	0.000264	2.635273	0.892855	-0.000105
 524	5.2038e+01	19.1561	71.253427	0.000213	2.128490	0.721152	-0.000085
 525	5.2138e+01	19.1144	71.128276	0.000314	3.142056	1.064557	-0.000126
 526	5.2237e+01	19.0775	71.051570	0.000193	1.925776	0.652471	-0.000077
 527	5.2337e+01	19.0374	70.958716	0.000233	2.331203	0.789833	-0.000093
 528	5.2437e+01	18.9925	70.861825	0.000243	2.432560	0.824173	-0.000097
 529	5.2536e+01	18.9460	70.764934	0.000243	2.432560	0.824173	-0.000097
 530	5.2636e+01	18.9139	70.680154	0.000213	2.128490	0.721152	-0.000085
 531	5.2735e+01	18.8674	70.579226	0.000253	2.533916	0.858514	-0.000101
 532	5.2834e+01	18.8449	70.466186	0.000284	2.837986	0.961536	-0.000114
 533	5.2934e+01	18.7968	70.373332	0.000233	2.331203	0.789833	-0.000093
 534	5.3033e+01	18.7695	70.296626	0.000193	1.925776	0.652471	-0.000077
 535	5.3133e+01	18.7214	70.207809	0.000223	2.229846	0.755492	-0.000089
 536	5.3233e+01	18.6733	70.086695	0.000304	3.040699	1.030217	-0.000122
 537	5.3332e+01	18.6332	70.014027	0.000182	1.824420	0.618130	-0.000073
 538	5.3431e+01	18.5931	69.929247	0.000213	2.128490	0.721152	-0.000085
 539	5.3531e+01	18.5546	69.820244	0.000274	2.736630	0.927195	-0.000110
 540	5.3630e+01	18.5289	69.707204	0.000284	2.837986	0.961536	-0.000114
 541	5.3730e+01	18.4824	69.638573	0.000172	1.723063	0.583790	-0.000069
 542	5.3830e+01	18.4374	69.501310	0.000345	3.446126	1.167579	-0.000138
 543	5.3929e+01	18.4134	69.416530	0.000213	2.128490	0.721152	-0.000085
 544	5.4029e+01	18.3556	69.295416	0.000304	3.040699	1.030217	-0.000122
 545	5.4128e+01	18.3123	69.214674	0.000203	2.027133	0.686811	-0.000081
 546	5.4227e+01	18.2786	69.133931	0.000203	2.027133	0.686811	-0.000081
 547	5.4327e+01	18.2465	69.045114	0.000223	2.229846	0.755492	-0.000089
 548	5.4426e+01	18.2064	68.915926	0.000324	3.243413	1.098898	-0.000130
 549	5.4526e+01	18.1615	68.814997	0.000253	2.533916	0.858514	-0.000101
 550	5.4626e+01	18.1166	68.738292	0.000193	1.925776	0.652471	-0.000077
 551	5.4725e+01	18.0765	68.617178	0.000304	3.040699	1.030217	-0.000122
 552	5.4825e+01	18.0364	68.536435	0.000203	2.027133	0.686811	-0.000081
 553	5.4924e+01	17.9995	68.391098	0.000365	3.648839	1.236260	-0.000146
 554	5.5023e+01	17.9674	68.298244	0.000233	2.331203	0.789833	-0.000093
 555	5.5123e+01	17.9113	68.193278	0.000264	2.635273	0.892855	-0.000105
 556	5.5222e+01	17.8744	68.096387	0.000243	2.432560	0.824173	-0.000097
 557	5.5322e+01	17.8407	68.035830	0.000152	1.520350	0.515108	-0.000061
 558	5.5422e+01	17.8006	67.910679	0.000314	3.142056	1.064557	-0.000126
 559	5.5521e+01	17.7605	67.809750	0.000253	2.533916	0.858514	-0.000101
 560	5.5620e+01	17.7236	67.741119	0.000172	1.723063	0.583790	-0.000069
 561	5.5720e+01	17.6851	67.611931	0.000324	3.243413	1.098898	-0.000130
 562	5.5819e+01	17.6353	67.511002	0.000253	2.533916	0.858514	-0.000101
 563	5.5919e+01	17.6016	67.438334	0.000182	1.824420	0.618130	-0.000073
 564	5.6019e+01	17.5535	67.321257	0.000294	2.939343	0.995876	-0.000118
 565	5.6118e+01	17.5230	67.220329	0.000253	2.533916	0.858514	-0.000101
 566	5.6218e+01	17.4781	67.079029	0.000355	3.547483	1.201920	-0.000142
 567	5.6317e+01	17.4396	66.998286	0.000203	2.027133	0.686811	-0.000081
 568	5.6416e+01	17.4011	66.921581	0.000193	1.925776	0.652471	-0.000077
 569	5.6516e+01	17.3562	66.768169	0.000385	3.851553	1.304941	-0.000154
 570	5.6615e+01	17.3225	66.731835	0.000091	0.912210	0.309065	-0.000037
 571	5.6715e+01	17.2728	66.638981	0.000233	2.331203	0.789833	-0.000093
 572	5.6815e+01	17.2455	66.505756	0.000334	3.344769	1.133239	-0.000134
 573	5.6914e+01	17.1958	66.404827	0.000253	2.533916	0.858514	-0.000101
 574	5.7014e+01	17.1605	66.352344	0.000132	1.317636	0.446427	-0.000053
 575	5.7113e+01	17.1252	66.194896	0.000395	3.952909	1.339282	-0.000158
 576	5.7212e+01	17.0787	66.093968	0.000253	2.533916	0.858514	-0.000101
 577	5.7312e+01	17.0434	66.001114	0.000233	2.331203	0.789833	-0.000093
 578	5.7411e+01	16.9968	65.924408	0.000193	1.925776	0.652471	-0.000077
 579	5.7511e+01	16.9616	65.787145	0.000345	3.446126	1.167579	-0.000138
 580	5.7611e+01	16.9231	65.682180	0.000264	2.635273	0.892855	-0.000105
 581	5.7710e+01	16.8797	65.601437	0.000203	2.027133	0.686811	-0.000081
 582	5.7809e+01	16.8364	65.480323	0.000304	3.040699	1.030217	-0.000122
 583	5.7909e+01	16.8108	65.387469	0.000233	2.331203	0.789833	-0.000093
 584	5.8008e+01	16.7723	65.278466	0.000274	2.736630	0.927195	-0.000110
 585	5.8108e+01	16.7177	65.181575	0.000243	2.432560	0.824173	-0.000097
 586	5.8208e+01	16.6792	65.080647	0.000253	2.533916	0.858514	-0.000101
 587	5.8307e+01	16.6471	64.955495	0.000314	3.142056	1.064557	-0.000126
 588	5.8407e+01	16.6086	64.858604	0.000243	2.432560	0.824173	-0.000097
 589	5.8506e+01	16.5589	64.745564	0.000284	2.837986	0.961536	-0.000114
 590	5.8605e+01	16.5236	64.644636	0.000253	2.533916	0.858514	-0.000101
 591	5.8705e+01	16.4851	64.555819	0.000223	2.229846	0.755492	-0.000089
 592	5.8804e+01	16.4498	64.438742	0.000294	2.939343	0.995876	-0.000118
 593	5.8904e+01	16.4033	64.321665	0.000294	2.939343	0.995876	-0.000118
 594	5.9004e+01	16.3568	64.208625	0.000284	2.837986	0.961536	-0.000114
 595	5.9103e+01	16.3295	64.091548	0.000294	2.939343	0.995876	-0.000118
 596	5.9203e+01	16.2830	64.018880	0.000182	1.824420	0.618130	-0.000073
 597	5.9302e+01	16.2477	63.889692	0.000324	3.243413	1.098898	-0.000130
 598	5.9401e+01	16.1995	63.812986	0.000193	1.925776	0.652471	-0.000077
 599	5.9501e+01	16.1659	63.671686	0.000355	3.547483	1.201920	-0.000142
 600	5.9600e+01	16.1225	63.586906	0.000213	2.128490	0.721152	-0.000085
 601	5.9700e+01	16.0856	63.490015	0.000243	2.432560	0.824173	-0.000097
 602	5.9800e+01	16.0536	63.376975	0.000284	2.837986	0.961536	-0.000114
 603	5.9899e+01	16.0022	63.276047	0.000253	2.533916	0.858514	-0.000101
 604	5.9998e+01	15.9685	63.118599	0.000395	3.952909	1.339282	-0.000158
 605	6.0098e+01	15.9300	63.037856	0.000203	2.027133	0.686811	-0.000081
 606	6.0197e+01	15.8835	62.932890	0.000264	2.635273	0.892855	-0.000105
 607	6.0297e+01	15.8530	62.815814	0.000294	2.939343	0.995876	-0.000118
 608	6.0397e+01	15.8113	62.735071	0.000203	2.027133	0.686811	-0.000081
 609	6.0496e+01	15.7584	62.622031	0.000284	2.837986	0.961536	-0.000114
 610	6.0596e+01	15.7215	62.508991	0.000284	2.837986	0.961536	-0.000114
 611	6.0695e+01	15.6878	62.383840	0.000314	3.142056	1.064557	-0.000126
 612	6.0794e+01	15.6477	62.286949	0.000243	2.432560	0.824173	-0.000097
 613	6.0894e+01	15.6028	62.169872	0.000294	2.939343	0.995876	-0.000118
 614	6.0993e+01	15.5675	62.068943	0.000253	2.533916	0.858514	-0.000101
 615	6.1093e+01	15.5210	61.968015	0.000253	2.533916	0.858514	-0.000101
 616	6.1193e+01	15.4905	61.810567	0.000395	3.952909	1.339282	-0.000158
 617	6.1292e+01	15.4520	61.713675	0.000243	2.432560	0.824173	-0.000097
 618	6.1392e+01	15.4087	61.645044	0.000172	1.723063	0.583790	-0.000069
 619	6.1491e+01	15.3653	61.507782	0.000345	3.446126	1.167579	-0.000138
 620	6.1590e+01	15.3365	61.394742	0.000284	2.837986	0.961536	-0.000114
 621	6.1690e+01	15.2867	61.297850	0.000243	2.432560	0.824173	-0.000097
 622	6.1789e+01	15.2418	61.204996	0.000233	2.331203	0.789833	-0.000093
 623	6.1889e+01	15.2049	61.079845	0.000314	3.142056	1.064557	-0.000126
 624	6.1989e+01	15.1648	60.966805	0.000284	2.837986	0.961536	-0.000114
 625	6.2088e+01	15.1311	60.853766	0.000284	2.837986	0.961536	-0.000114
 626	6.2188e+01	15.0958	60.740726	0.000284	2.837986	0.961536	-0.000114
 627	6.2287e+01	15.0493	60.619612	0.000304	3.040699	1.030217	-0.000122
 628	6.2386e+01	15.0108	60.538869	0.000203	2.027133	0.686811	-0.000081
 629	6.2486e+01	14.9739	60.409681	0.000324	3.243413	1.098898	-0.000130
 630	6.2586e+01	14.9306	60.337012	0.000182	1.824420	0.618130	-0.000073
 631	6.2685e+01	14.8905	60.187638	0.000375	3.750196	1.270601	-0.000150
 632	6.2785e+01	14.8520	60.058450	0.000324	3.243413	1.098898	-0.000130
 633	6.2884e+01	14.8103	59.977707	0.000203	2.027133	0.686811	-0.000081
 634	6.2983e+01	14.7766	59.876779	0.000253	2.533916	0.858514	-0.000101
 635	6.3083e+01	14.7236	59.739516	0.000345	3.446126	1.167579	-0.000138
 636	6.3182e+01	14.6884	59.658773	0.000203	2.027133	0.686811	-0.000081
 637	6.3282e+01	14.6563	59.545734	0.000284	2.837986	0.961536	-0.000114
 638	6.3382e+01	14.6081	59.448842	0.000243	2.432560	0.824173	-0.000097
 639	6.3481e+01	14.5712	59.315617	0.000334	3.344769	1.133239	-0.000134
 640	6.3581e+01	14.5343	59.170280	0.000365	3.648839	1.236260	-0.000146
 641	6.3680e+01	14.4975	59.085500	0.000213	2.128490	0.721152	-0.000085
 642	6.3779e+01	14.4638	58.972460	0.000284	2.837986	0.961536	-0.000114
 643	6.3879e+01	14.4044	58.867495	0.000264	2.635273	0.892855	-0.000105
 644	6.3978e+01	14.3675	58.754455	0.000284	2.837986	0.961536	-0.000114
 645	6.4078e+01	14.3386	58.605081	0.000375	3.750196	1.270601	-0.000150
 646	6.4177e+01	14.2889	58.536450	0.000172	1.723063	0.583790	-0.000069
 647	6.4277e+01	14.2568	58.407261	0.000324	3.243413	1.098898	-0.000130
 648	6.4376e+01	14.2087	58.322481	0.000213	2.128490	0.721152	-0.000085
 649	6.4476e+01	14.1766	58.193293	0.000324	3.243413	1.098898	-0.000130
 650	6.4576e+01	14.1429	58.047956	0.000365	3.648839	1.236260	-0.000146
 651	6.4675e+01	14.0916	57.934916	0.000284	2.837986	0.961536	-0.000114
 652	6.4775e+01	14.0563	57.825914	0.000274	2.736630	0.927195	-0.000110
 653	6.4874e+01	14.0226	57.712874	0.000284	2.837986	0.961536	-0.000114
 654	6.4974e+01	13.9841	57.559463	0.000385	3.851553	1.304941	-0.000154
 655	6.5073e+01	13.9344	57.442386	0.000294	2.939343	0.995876	-0.000118
 656	6.5172e+01	13.8894	57.325309	0.000294	2.939343	0.995876	-0.000118
 657	6.5272e+01	13.8526	57.236492	0.000223	2.229846	0.755492	-0.000089
 658	6.5371e+01	13.8173	57.079044	0.000395	3.952909	1.339282	-0.000158
 659	6.5471e+01	13.7675	57.002338	0.000193	1.925776	0.652471	-0.000077
 660	6.5570e+01	13.7354	56.877187	0.000314	3.142056	1.064557	-0.000126
 661	6.5670e+01	13.6969	56.723776	0.000385	3.851553	1.304941	-0.000154
 662	6.5769e+01	13.6633	56.626884	0.000243	2.432560	0.824173	-0.000097
 663	6.5869e+01	13.6151	56.485585	0.000355	3.547483	1.201920	-0.000142
 664	6.5969e+01	13.5782	56.392731	0.000233	2.331203	0.789833	-0.000093
 665	6.6068e+01	13.5365	56.259505	0.000334	3.344769	1.133239	-0.000134
 666	6.6168e+01	13.4932	56.150502	0.000274	2.736630	0.927195	-0.000110
 667	6.6267e+01	13.4595	56.073797	0.000193	1.925776	0.652471	-0.000077
 668	6.6367e+01	13.4114	55.924423	0.000375	3.750196	1.270601	-0.000150
 669	6.6466e+01	13.3761	55.803309	0.000304	3.040699	1.030217	-0.000122
 670	6.6566e+01	13.3424	55.722566	0.000203	2.027133	0.686811	-0.000081
 671	6.6665e+01	13.2975	55.565118	0.000395	3.952909	1.339282	-0.000158
 672	6.6764e+01	13.2622	55.435929	0.000324	3.243413	1.098898	-0.000130
 673	6.6864e+01	13.2093	55.330964	0.000264	2.635273	0.892855	-0.000105
 674	6.6963e+01	13.1852	55.230035	0.000253	2.533916	0.858514	-0.000101
 675	6.7063e+01	13.1355	55.121033	0.000274	2.736630	0.927195	-0.000110
 676	6.7162e+01	13.1114	54.963585	0.000395	3.952909	1.339282	-0.000158
 677	6.7262e+01	13.0617	54.850545	0.000284	2.837986	0.961536	-0.000114
 678	6.7362e+01	13.0167	54.757691	0.000233	2.331203	0.789833	-0.000093
 679	6.7461e+01	12.9638	54.596205	0.000405	4.054266	1.373622	-0.000162
 680	6.7561e+01	12.9397	54.499314	0.000243	2.432560	0.824173	-0.000097
 681	6.7660e+01	12.8996	54.378200	0.000304	3.040699	1.030217	-0.000122
 682	6.7760e+01	12.8643	54.244974	0.000334	3.344769	1.133239	-0.000134
 683	6.7859e+01	12.8162	54.119823	0.000314	3.142056	1.064557	-0.000126
 684	6.7959e+01	12.7809	54.031006	0.000223	2.229846	0.755492	-0.000089
 685	6.8058e+01	12.7440	53.905855	0.000314	3.142056	1.064557	-0.000126
 686	6.8157e+01	12.7071	53.772629	0.000334	3.344769	1.133239	-0.000134
 687	6.8257e+01	12.6622	53.659590	0.000284	2.837986	0.961536	-0.000114
 688	6.8356e+01	12.6237	53.530401	0.000324	3.243413	1.098898	-0.000130
 689	6.8456e+01	12.5852	53.425436	0.000264	2.635273	0.892855	-0.000105
 690	6.8555e+01	12.5467	53.288173	0.000345	3.446126	1.167579	-0.000138
 691	6.8655e+01	12.5066	53.171096	0.000294	2.939343	0.995876	-0.000118
 692	6.8754e+01	12.4601	53.037871	0.000334	3.344769	1.133239	-0.000134
 693	6.8854e+01	12.4264	52.900608	0.000345	3.446126	1.167579	-0.000138
 694	6.8954e+01	12.3911	52.795643	0.000264	2.635273	0.892855	-0.000105
 695	6.9053e+01	12.3462	52.686640	0.000274	2.736630	0.927195	-0.000110
 696	6.9153e+01	12.3029	52.529192	0.000395	3.952909	1.339282	-0.000158
 697	6.9252e+01	12.2612	52.460560	0.000172	1.723063	0.583790	-0.000069
 698	6.9352e+01	12.2162	52.295038	0.000416	4.155623	1.407963	-0.000166
 699	6.9451e+01	12.1906	52.202184	0.000233	2.331203	0.789833	-0.000093
 700	6.9550e+01	12.1392	52.081070	0.000304	3.040699	1.030217	-0.000122
 701	6.9650e+01	12.1087	51.939770	0.000355	3.547483	1.201920	-0.000142
 702	6.9749e+01	12.0590	51.818656	0.000304	3.040699	1.030217	-0.000122
 703	6.9849e+01	12.0253	51.673319	0.000365	3.648839	1.236260	-0.000146
 704	6.9948e+01	11.9884	51.556242	0.000294	2.939343	0.995876	-0.000118
 705	7.0048e+01	11.9451	51.439165	0.000294	2.939343	0.995876	-0.000118
 706	7.0147e+01	11.9098	51.338237	0.000253	2.533916	0.858514	-0.000101
 707	7.0247e+01	11.8729	51.196937	0.000355	3.547483	1.201920	-0.000142
 708	7.0347e+01	11.8280	51.059674	0.000345	3.446126	1.167579	-0.000138
 709	7.0446e+01	11.7799	50.934523	0.000314	3.142056	1.064557	-0.000126
 710	7.0546e+01	11.7462	50.833595	0.000253	2.533916	0.858514	-0.000101
 711	7.0645e+01	11.7077	50.704406	0.000324	3.243413	1.098898	-0.000130
 712	7.0745e+01	11.6612	50.538884	0.000416	4.155623	1.407963	-0.000166
 713	7.0844e+01	11.6275	50.462178	0.000193	1.925776	0.652471	-0.000077
 714	7.0944e+01	11.5858	50.312804	0.000375	3.750196	1.270601	-0.000150
 715	7.1043e+01	11.5521	50.175542	0.000345	3.446126	1.167579	-0.000138
 716	7.1142e+01	11.5088	50.070576	0.000264	2.635273	0.892855	-0.000105
 717	7.1242e+01	11.4638	49.909091	0.000405	4.054266	1.373622	-0.000162
 718	7.1341e+01	11.4189	49.812199	0.000243	2.432560	0.824173	-0.000097
 719	7.1441e+01	11.3836	49.695122	0.000294	2.939343	0.995876	-0.000118
 720	7.1540e+01	11.3467	49.537674	0.000395	3.952909	1.339282	-0.000158
 721	7.1640e+01	11.3050	49.420597	0.000294	2.939343	0.995876	-0.000118
 722	7.1740e+01	11.2681	49.291409	0.000324	3.243413	1.098898	-0.000130
 723	7.1839e+01	11.2264	49.158183	0.000334	3.344769	1.133239	-0.000134
 724	7.1939e+01	11.1975	49.037069	0.000304	3.040699	1.030217	-0.000122
 725	7.2038e+01	11.1430	48.899807	0.000345	3.446126	1.167579	-0.000138
 726	7.2138e+01	11.1077	48.778693	0.000304	3.040699	1.030217	-0.000122
 727	7.2237e+01	11.0660	48.653541	0.000314	3.142056	1.064557	-0.000126
 728	7.2337e+01	11.0355	48.524353	0.000324	3.243413	1.098898	-0.000130
 729	7.2436e+01	10.9810	48.403239	0.000304	3.040699	1.030217	-0.000122
 730	7.2535e+01	10.9505	48.298273	0.000264	2.635273	0.892855	-0.000105
 731	7.2635e+01	10.9040	48.152937	0.000365	3.648839	1.236260	-0.000146
 732	7.2734e+01	10.8671	47.995488	0.000395	3.952909	1.339282	-0.000158
 733	7.2834e+01	10.8238	47.914746	0.000203	2.027133	0.686811	-0.000081
 734	7.2933e+01	10.7933	47.773446	0.000355	3.547483	1.201920	-0.000142
 735	7.3033e+01	10.7484	47.611960	0.000405	4.054266	1.373622	-0.000162
 736	7.3132e+01	10.7115	47.502958	0.000274	2.736630	0.927195	-0.000110
 737	7.3232e+01	10.6649	47.365695	0.000345	3.446126	1.167579	-0.000138
 738	7.3332e+01	10.6329	47.264767	0.000253	2.533916	0.858514	-0.000101
 739	7.3431e+01	10.5879	47.143653	0.000304	3.040699	1.030217	-0.000122
 740	7.3531e+01	10.5446	47.026576	0.000294	2.939343	0.995876	-0.000118
 741	7.3630e+01	10.5045	46.869127	0.000395	3.952909	1.339282	-0.000158
 742	7.3730e+01	10.4708	46.760125	0.000274	2.736630	0.927195	-0.000110
 743	7.3829e+01	10.4323	46.594602	0.000416	4.155623	1.407963	-0.000166
 744	7.3928e+01	10.3826	46.497711	0.000243	2.432560	0.824173	-0.000097
 745	7.4028e+01	10.3505	46.372560	0.000314	3.142056	1.064557	-0.000126
 746	7.4127e+01	10.3120	46.251446	0.000304	3.040699	1.030217	-0.000122
 747	7.4227e+01	10.2671	46.110146	0.000355	3.547483	1.201920	-0.000142
 748	7.4326e+01	10.2270	45.940586	0.000426	4.256979	1.442304	-0.000170
 749	7.4426e+01	10.1901	45.835621	0.000264	2.635273	0.892855	-0.000105
 750	7.4525e+01	10.1500	45.702395	0.000334	3.344769	1.133239	-0.000134
 751	7.4625e+01	10.1083	45.565133	0.000345	3.446126	1.167579	-0.000138
 752	7.4725e+01	10.0714	45.476316	0.000223	2.229846	0.755492	-0.000089
 753	7.4824e+01	10.0265	45.294644	0.000456	4.561049	1.545325	-0.000183
 754	7.4924e+01	9.9960	45.181605	0.000284	2.837986	0.961536	-0.000114
 755	7.5023e+01	9.9414	45.048379	0.000334	3.344769	1.133239	-0.000134
 756	7.5123e+01	9.9110	44.919191	0.000324	3.243413	1.098898	-0.000130
 757	7.5222e+01	9.8628	44.781928	0.000345	3.446126	1.167579	-0.000138
 758	7.5322e+01	9.8388	44.648703	0.000334	3.344769	1.133239	-0.000134
 759	7.5421e+01	9.7938	44.535663	0.000284	2.837986	0.961536	-0.000114
 760	7.5520e+01	9.7489	44.414549	0.000304	3.040699	1.030217	-0.000122
 761	7.5620e+01	9.7120	44.269212	0.000365	3.648839	1.236260	-0.000146
 762	7.5719e+01	9.6671	44.095615	0.000436	4.358336	1.476644	-0.000174
 763	7.5819e+01	9.6302	43.974501	0.000304	3.040699	1.030217	-0.000122
 764	7.5918e+01	9.5917	43.837238	0.000345	3.446126	1.167579	-0.000138
 765	7.6018e+01	9.5452	43.724199	0.000284	2.837986	0.961536	-0.000114
 766	7.6118e+01	9.5163	43.578862	0.000365	3.648839	1.236260	-0.000146
 767	7.6217e+01	9.4666	43.457748	0.000304	3.040699	1.030217	-0.000122
 768	7.6317e+01	9.4393	43.272039	0.000466	4.662406	1.579666	-0.000187
 769	7.6416e+01	9.3880	43.195334	0.000193	1.925776	0.652471	-0.000077
 770	7.6516e+01	9.3623	43.013663	0.000456	4.561049	1.545325	-0.000183
 771	7.6615e+01	9.3142	42.940994	0.000182	1.824420	0.618130	-0.000073
 772	7.6715e+01	9.2805	42.767397	0.000436	4.358336	1.476644	-0.000174
 773	7.6814e+01	9.2308	42.634172	0.000334	3.344769	1.133239	-0.000134
 774	7.6913e+01	9.1890	42.484798	0.000375	3.750196	1.270601	-0.000150
 775	7.7013e+01	9.1489	42.359647	0.000314	3.142056	1.064557	-0.000126
 776	7.7112e+01	9.1169	42.254681	0.000264	2.635273	0.892855	-0.000105
 777	7.7212e+01	9.0784	42.097233	0.000395	3.952909	1.339282	-0.000158
 778	7.7311e+01	9.0447	41.959970	0.000345	3.446126	1.167579	-0.000138
 779	7.7411e+01	8.9949	41.790411	0.000426	4.256979	1.442304	-0.000170
 780	7.7510e+01	8.9596	41.697556	0.000233	2.331203	0.789833	-0.000093
 781	7.7610e+01	8.9260	41.536071	0.000405	4.054266	1.373622	-0.000162
 782	7.7710e+01	8.8618	41.398808	0.000345	3.446126	1.167579	-0.000138
 783	7.7809e+01	8.8393	41.269620	0.000324	3.243413	1.098898	-0.000130
 784	7.7909e+01	8.7976	41.128320	0.000355	3.547483	1.201920	-0.000142
 785	7.8008e+01	8.7527	40.966835	0.000405	4.054266	1.373622	-0.000162
 786	7.8108e+01	8.7174	40.825535	0.000355	3.547483	1.201920	-0.000142
 787	7.8207e+01	8.6789	40.708458	0.000294	2.939343	0.995876	-0.000118
 788	7.8306e+01	8.6372	40.526787	0.000456	4.561049	1.545325	-0.000183
 789	7.8406e+01	8.5859	40.413747	0.000284	2.837986	0.961536	-0.000114
 790	7.8505e+01	8.5522	40.308782	0.000264	2.635273	0.892855	-0.000105
 791	7.8605e+01	8.5201	40.171519	0.000345	3.446126	1.167579	-0.000138
 792	7.8704e+01	8.4832	40.046368	0.000314	3.142056	1.064557	-0.000126
 793	7.8804e+01	8.4447	39.868734	0.000446	4.459693	1.510985	-0.000179
 794	7.8903e+01	8.3917	39.707249	0.000405	4.054266	1.373622	-0.000162
 795	7.9003e+01	8.3613	39.590172	0.000294	2.939343	0.995876	-0.000118
 796	7.9103e+01	8.3179	39.448872	0.000355	3.547483	1.201920	-0.000142
 797	7.9202e+01	8.2746	39.287386	0.000405	4.054266	1.373622	-0.000162
 798	7.9302e+01	8.2329	39.142050	0.000365	3.648839	1.236260	-0.000146
 799	7.9401e+01	8.1960	39.089567	0.000132	1.317636	0.446427	-0.000053
 800	7.9501e+01	8.1591	38.855413	0.000588	5.878686	1.991753	-0.000235
 801	7.9600e+01	8.1174	38.774670	0.000203	2.027133	0.686811	-0.000081
 802	7.9700e+01	8.0709	38.592999	0.000456	4.561049	1.545325	-0.000183
 803	7.9799e+01	8.0452	38.479959	0.000284	2.837986	0.961536	-0.000114
 804	7.9898e+01	7.9987	38.322511	0.000395	3.952909	1.339282	-0.000158
 805	7.9998e+01	7.9602	38.165063	0.000395	3.952909	1.339282	-0.000158
 806	8.0097e+01	7.9121	38.023763	0.000355	3.547483	1.201920	-0.000142
 807	8.0197e+01	7.8736	37.914760	0.000274	2.736630	0.927195	-0.000110
 808	8.0296e+01	7.8415	37.757312	0.000395	3.952909	1.339282	-0.000158
 809	8.0396e+01	7.8014	37.620049	0.000345	3.446126	1.167579	-0.000138
 810	8.0496e+01	7.7597	37.466638	0.000385	3.851553	1.304941	-0.000154
 811	8.0595e+01	7.7212	37.321301	0.000365	3.648839	1.236260	-0.000146
 812	8.0695e+01	7.6763	37.171927	0.000375	3.750196	1.270601	-0.000150
 813	8.0794e+01	7.6378	37.022553	0.000375	3.750196	1.270601	-0.000150
 814	8.0894e+01	7.5944	36.861068	0.000405	4.054266	1.373622	-0.000162
 815	8.0993e+01	7.5656	36.723805	0.000345	3.446126	1.167579	-0.000138
 816	8.1093e+01	7.5206	36.586543	0.000345	3.446126	1.167579	-0.000138
 817	8.1192e+01	7.4805	36.429094	0.000395	3.952909	1.339282	-0.000158
 818	8.1291e+01	7.4340	36.255497	0.000436	4.358336	1.476644	-0.000174
 819	8.1391e+01	7.4083	36.126309	0.000324	3.243413	1.098898	-0.000130
 820	8.1490e+01	7.3666	35.960787	0.000416	4.155623	1.407963	-0.000166
 821	8.1590e+01	7.3201	35.819487	0.000355	3.547483	1.201920	-0.000142
 822	8.1689e+01	7.2816	35.670113	0.000375	3.750196	1.270601	-0.000150
 823	8.1789e+01	7.2399	35.532850	0.000345	3.446126	1.167579	-0.000138
 824	8.1888e+01	7.2014	35.363290	0.000426	4.256979	1.442304	-0.000170
 825	8.1988e+01	7.1661	35.274474	0.000223	2.229846	0.755492	-0.000089
 826	8.2088e+01	7.1228	35.068580	0.000517	5.169189	1.751369	-0.000207
 827	8.2187e+01	7.0666	34.911131	0.000395	3.952909	1.339282	-0.000158
 828	8.2287e+01	7.0394	34.761757	0.000375	3.750196	1.270601	-0.000150
 829	8.2386e+01	7.0025	34.624495	0.000345	3.446126	1.167579	-0.000138
 830	8.2486e+01	6.9656	34.442824	0.000456	4.561049	1.545325	-0.000183
 831	8.2585e+01	6.9303	34.333821	0.000274	2.736630	0.927195	-0.000110
 832	8.2684e+01	6.8822	34.160224	0.000436	4.358336	1.476644	-0.000174
 833	8.2784e+01	6.8404	34.014887	0.000365	3.648839	1.236260	-0.000146
 834	8.2883e+01	6.8052	33.841290	0.000436	4.358336	1.476644	-0.000174
 835	8.2983e+01	6.7667	33.695953	0.000365	3.648839	1.236260	-0.000146
 836	8.3082e+01	6.7201	33.550617	0.000365	3.648839	1.236260	-0.000146
 837	8.3182e+01	6.6768	33.393168	0.000395	3.952909	1.339282	-0.000158
 838	8.3281e+01	6.6431	33.235720	0.000395	3.952909	1.339282	-0.000158
 839	8.3381e+01	6.6062	33.118643	0.000294	2.939343	0.995876	-0.000118
 840	8.3481e+01	6.5645	32.949083	0.000426	4.256979	1.442304	-0.000170
 841	8.3580e+01	6.5068	32.795672	0.000385	3.851553	1.304941	-0.000154
 842	8.3680e+01	6.4891	32.678595	0.000294	2.939343	0.995876	-0.000118
 843	8.3779e+01	6.4442	32.484813	0.000487	4.865119	1.648347	-0.000195
 844	8.3879e+01	6.4105	32.331402	0.000385	3.851553	1.304941	-0.000154
 845	8.3978e+01	6.3608	32.194139	0.000345	3.446126	1.167579	-0.000138
 846	8.4078e+01	6.3303	32.016505	0.000446	4.459693	1.510985	-0.000179
 847	8.4177e+01	6.2886	31.895391	0.000304	3.040699	1.030217	-0.000122
 848	8.4276e+01	6.2501	31.725831	0.000426	4.256979	1.442304	-0.000170
 849	8.4376e+01	6.2084	31.552234	0.000436	4.358336	1.476644	-0.000174
 850	8.4475e+01	6.1554	31.402860	0.000375	3.750196	1.270601	-0.000150
 851	8.4575e+01	6.1218	31.249449	0.000385	3.851553	1.304941	-0.000154
 852	8.4674e+01	6.0881	31.075852	0.000436	4.358336	1.476644	-0.000174
 853	8.4774e+01	6.0480	30.930515	0.000365	3.648839	1.236260	-0.000146
 854	8.4874e+01	6.0046	30.760956	0.000426	4.256979	1.442304	-0.000170
 855	8.4973e+01	5.9710	30.607545	0.000385	3.851553	1.304941	-0.000154
 856	8.5073e+01	5.9212	30.429911	0.000446	4.459693	1.510985	-0.000179
 857	8.5172e+01	5.8875	30.304759	0.000314	3.142056	1.064557	-0.000126
 858	8.5272e+01	5.8474	30.147311	0.000395	3.952909	1.339282	-0.000158
 859	8.5371e+01	5.8121	29.957566	0.000476	4.763762	1.614006	-0.000191
 860	8.5471e+01	5.7688	29.808192	0.000375	3.750196	1.270601	-0.000150
 861	8.5570e+01	5.7207	29.679003	0.000324	3.243413	1.098898	-0.000130
 862	8.5669e+01	5.6838	29.537704	0.000355	3.547483	1.201920	-0.000142
 863	8.5769e+01	5.6469	29.339884	0.000497	4.966476	1.682688	-0.000199
 864	8.5868e+01	5.6020	29.194547	0.000365	3.648839	1.236260	-0.000146
 865	8.5968e+01	5.5715	29.029025	0.000416	4.155623	1.407963	-0.000166
 866	8.6067e+01	5.5298	28.851391	0.000446	4.459693	1.510985	-0.000179
 867	8.6167e+01	5.4833	28.702017	0.000375	3.750196	1.270601	-0.000150
 868	8.6266e+01	5.4416	28.548605	0.000385	3.851553	1.304941	-0.000154
 869	8.6366e+01	5.4063	28.399231	0.000375	3.750196	1.270601	-0.000150
 870	8.6466e+01	5.3694	28.213523	0.000466	4.662406	1.579666	-0.000187
 871	8.6565e+01	5.3261	28.068186	0.000365	3.648839	1.236260	-0.000146
 872	8.6665e+01	5.2940	27.926886	0.000355	3.547483	1.201920	-0.000142
 873	8.6764e+01	5.2555	27.716955	0.000527	5.270546	1.785709	-0.000211
 874	8.6864e+01	5.2105	27.539321	0.000446	4.459693	1.510985	-0.000179
 875	8.6963e+01	5.1720	27.385910	0.000385	3.851553	1.304941	-0.000154
 876	8.7063e+01	5.1303	27.252685	0.000334	3.344769	1.133239	-0.000134
 877	8.7162e+01	5.0902	27.038717	0.000537	5.371902	1.820050	-0.000215
 878	8.7261e+01	5.0421	26.893380	0.000365	3.648839	1.236260	-0.000146
 879	8.7361e+01	5.0116	26.731894	0.000405	4.054266	1.373622	-0.000162
 880	8.7460e+01	4.9747	26.566372	0.000416	4.155623	1.407963	-0.000166
 881	8.7560e+01	4.9298	26.433146	0.000334	3.344769	1.133239	-0.000134
 882	8.7659e+01	4.8945	26.231289	0.000507	5.067832	1.717028	-0.000203
 883	8.7759e+01	4.8464	26.077878	0.000385	3.851553	1.304941	-0.000154
 884	8.7859e+01	4.8111	25.912356	0.000416	4.155623	1.407963	-0.000166
 885	8.7958e+01	4.7758	25.767019	0.000365	3.648839	1.236260	-0.000146
 886	8.8058e+01	4.7341	25.536902	0.000578	5.777329	1.957412	-0.000231
 887	8.8157e+01	4.6876	25.427899	0.000274	2.736630	0.927195	-0.000110
 888	8.8257e+01	4.6523	25.234117	0.000487	4.865119	1.648347	-0.000195
 889	8.8356e+01	4.6009	25.076669	0.000395	3.952909	1.339282	-0.000158
 890	8.8456e+01	4.5817	24.899035	0.000446	4.459693	1.510985	-0.000179
 891	8.8555e+01	4.5320	24.741586	0.000395	3.952909	1.339282	-0.000158
 892	8.8654e+01	4.4983	24.567990	0.000436	4.358336	1.476644	-0.000174
 893	8.8754e+01	4.4566	24.398430	0.000426	4.256979	1.442304	-0.000170
 894	8.8853e+01	4.4100	24.236944	0.000405	4.054266	1.373622	-0.000162
 895	8.8953e+01	4.3780	24.047199	0.000476	4.763762	1.614006	-0.000191
 896	8.9052e+01	4.3266	23.901862	0.000365	3.648839	1.236260	-0.000146
 897	8.9152e+01	4.3042	23.683857	0.000547	5.473259	1.854390	-0.000219
 898	8.9251e+01	4.2608	23.534483	0.000375	3.750196	1.270601	-0.000150
 899	8.9351e+01	4.2063	23.364923	0.000426	4.256979	1.442304	-0.000170
 900	8.9451e+01	4.1646	23.191326	0.000436	4.358336	1.476644	-0.000174
 901	8.9550e+01	4.1389	23.054064	0.000345	3.446126	1.167579	-0.000138
 902	8.9650e+01	4.0924	22.840095	0.000537	5.371902	1.820050	-0.000215
 903	8.9749e+01	4.0539	22.694759	0.000365	3.648839	1.236260	-0.000146
 904	8.9849e+01	4.0218	22.517125	0.000446	4.459693	1.510985	-0.000179
 905	8.9948e+01	3.9817	22.343528	0.000436	4.358336	1.476644	-0.000174
 906	9.0047e+01	3.9368	22.190117	0.000385	3.851553	1.304941	-0.000154
 907	9.0147e+01	3.8903	22.020557	0.000426	4.256979	1.442304	-0.000170
 908	9.0246e+01	3.8550	21.830812	0.000476	4.763762	1.614006	-0.000191
 909	9.0346e+01	3.8181	21.661252	0.000426	4.256979	1.442304	-0.000170
 910	9.0445e+01	3.7732	21.495729	0.000416	4.155623	1.407963	-0.000166
 911	9.0545e+01	3.7282	21.326170	0.000426	4.256979	1.442304	-0.000170
 912	9.0644e+01	3.6945	21.104127	0.000557	5.574616	1.888731	-0.000223
 913	9.0744e+01	3.6512	20.970902	0.000334	3.344769	1.133239	-0.000134
 914	9.0844e+01	3.6063	20.825565	0.000365	3.648839	1.236260	-0.000146
 915	9.0943e+01	3.5758	20.583337	0.000608	6.081399	2.060434	-0.000243
 916	9.1043e+01	3.5373	20.458185	0.000314	3.142056	1.064557	-0.000126
 917	9.1142e+01	3.5036	20.244217	0.000537	5.371902	1.820050	-0.000215
 918	9.1242e+01	3.4491	20.090806	0.000385	3.851553	1.304941	-0.000154
 919	9.1341e+01	3.4218	19.897023	0.000487	4.865119	1.648347	-0.000195
 920	9.1441e+01	3.3737	19.707278	0.000476	4.763762	1.614006	-0.000191
 921	9.1540e+01	3.3304	19.541756	0.000416	4.155623	1.407963	-0.000166
 922	9.1639e+01	3.2951	19.360084	0.000456	4.561049	1.545325	-0.000183
 923	9.1739e+01	3.2614	19.206673	0.000385	3.851553	1.304941	-0.000154
 924	9.1838e+01	3.2181	19.016928	0.000476	4.763762	1.614006	-0.000191
 925	9.1938e+01	3.1764	18.802960	0.000537	5.371902	1.820050	-0.000215
 926	9.2037e+01	3.1427	18.641474	0.000405	4.054266	1.373622	-0.000162
 927	9.2137e+01	3.1058	18.439617	0.000507	5.067832	1.717028	-0.000203
 928	9.2237e+01	3.0561	18.274095	0.000416	4.155623	1.407963	-0.000166
 929	9.2336e+01	3.0224	18.064164	0.000527	5.270546	1.785709	-0.000211
 930	9.2436e+01	2.9710	17.918827	0.000365	3.648839	1.236260	-0.000146
 931	9.2535e+01	2.9390	17.725044	0.000487	4.865119	1.648347	-0.000195
 932	9.2635e+01	2.9101	17.551448	0.000436	4.358336	1.476644	-0.000174
 933	9.2734e+01	2.8475	17.361702	0.000476	4.763762	1.614006	-0.000191
 934	9.2834e+01	2.8218	17.188105	0.000436	4.358336	1.476644	-0.000174
 935	9.2933e+01	2.7769	17.010471	0.000446	4.459693	1.510985	-0.000179
 936	9.3032e+01	2.7352	16.804578	0.000517	5.169189	1.751369	-0.000207
 937	9.3132e+01	2.6935	16.618869	0.000466	4.662406	1.579666	-0.000187
 938	9.3231e+01	2.6518	16.408938	0.000527	5.270546	1.785709	-0.000211
 939	9.3331e+01	2.6165	16.247453	0.000405	4.054266	1.373622	-0.000162
 940	9.3430e+01	2.5876	16.065782	0.000456	4.561049	1.545325	-0.000183
 941	9.3530e+01	2.5459	15.880073	0.000466	4.662406	1.579666	-0.000187
 942	9.3629e+01	2.4994	15.706477	0.000436	4.358336	1.476644	-0.000174
 943	9.3729e+01	2.4609	15.504620	0.000507	5.067832	1.717028	-0.000203
 944	9.3829e+01	2.4208	15.290652	0.000537	5.371902	1.820050	-0.000215
 945	9.3928e+01	2.3871	15.129166	0.000405	4.054266	1.373622	-0.000162
 946	9.4028e+01	2.3454	14.939421	0.000476	4.763762	1.614006	-0.000191
 947	9.4127e+01	2.3037	14.757750	0.000456	4.561049	1.545325	-0.000183
 948	9.4227e+01	2.2652	14.543781	0.000537	5.371902	1.820050	-0.000215
 949	9.4326e+01	2.2122	14.354036	0.000476	4.763762	1.614006	-0.000191
 950	9.4425e+01	2.1882	14.152179	0.000507	5.067832	1.717028	-0.000203
 951	9.4525e+01	2.1352	13.958397	0.000487	4.865119	1.648347	-0.000195
 952	9.4624e+01	2.0951	13.768651	0.000476	4.763762	1.614006	-0.000191
 953	9.4724e+01	2.0679	13.607166	0.000405	4.054266	1.373622	-0.000162
 954	9.4823e+01	2.0261	13.332641	0.000689	6.892252	2.335158	-0.000276
 955	9.4923e+01	1.9876	13.183267	0.000375	3.750196	1.270601	-0.000150
 956	9.5022e+01	1.9427	13.025818	0.000395	3.952909	1.339282	-0.000158
 957	9.5122e+01	1.8994	12.823962	0.000507	5.067832	1.717028	-0.000203
 958	9.5222e+01	1.8609	12.581734	0.000608	6.081399	2.060434	-0.000243
 959	9.5321e+01	1.8288	12.420248	0.000405	4.054266	1.373622	-0.000162
 960	9.5421e+01	1.7935	12.161871	0.000649	6.486825	2.197796	-0.000260
 961	9.5520e+01	1.7454	12.028646	0.000334	3.344769	1.133239	-0.000134
 962	9.5620e+01	1.7117	11.842938	0.000466	4.662406	1.579666	-0.000187
 963	9.5719e+01	1.6684	11.616858	0.000568	5.675972	1.923071	-0.000227
 964	9.5819e+01	1.6139	11.435187	0.000456	4.561049	1.545325	-0.000183
 965	9.5918e+01	1.5754	11.269664	0.000416	4.155623	1.407963	-0.000166
 966	9.6017e+01	1.5385	11.031473	0.000598	5.980042	2.026093	-0.000239
 967	9.6117e+01	1.5032	10.833654	0.000497	4.966476	1.682688	-0.000199
 968	9.6216e+01	1.4631	10.643908	0.000476	4.763762	1.614006	-0.000191
 969	9.6316e+01	1.4230	10.421866	0.000557	5.574616	1.888731	-0.000223
 970	9.6415e+01	1.3909	10.252306	0.000426	4.256979	1.442304	-0.000170
 971	9.6515e+01	1.3411	10.046412	0.000517	5.169189	1.751369	-0.000207
 972	9.6615e+01	1.3155	9.872815	0.000436	4.358336	1.476644	-0.000174
 973	9.6714e+01	1.2641	9.654810	0.000547	5.473259	1.854390	-0.000219
 974	9.6814e+01	1.2304	9.485250	0.000426	4.256979	1.442304	-0.000170
 975	9.6913e+01	1.1887	9.247059	0.000598	5.980042	2.026093	-0.000239
 976	9.7013e+01	1.1470	9.008868	0.000598	5.980042	2.026093	-0.000239
 977	9.7112e+01	1.0957	8.843346	0.000416	4.155623	1.407963	-0.000166
 978	9.7212e+01	1.0588	8.637452	0.000517	5.169189	1.751369	-0.000207
 979	9.7311e+01	1.0219	8.411372	0.000568	5.675972	1.923071	-0.000227
 980	9.7410e+01	0.9914	8.221627	0.000476	4.763762	1.614006	-0.000191
 981	9.7510e+01	0.9529	8.027844	0.000487	4.865119	1.648347	-0.000195
 982	9.7609e+01	0.9000	7.846173	0.000456	4.561049	1.545325	-0.000183
 983	9.7709e+01	0.8647	7.612019	0.000588	5.878686	1.991753	-0.000235
 984	9.7808e+01	0.8326	7.402088	0.000527	5.270546	1.785709	-0.000211
 985	9.7908e+01	0.7957	7.180046	0.000557	5.574616	1.888731	-0.000223
 986	9.8007e+01	0.7492	6.962041	0.000547	5.473259	1.854390	-0.000219
 987	9.8107e+01	0.7010	6.760184	0.000507	5.067832	1.717028	-0.000203
 988	9.8207e+01	0.6593	6.558327	0.000507	5.067832	1.717028	-0.000203
 989	9.8306e+01	0.6257	6.320136	0.000598	5.980042	2.026093	-0.000239
 990	9.8406e+01	0.5952	6.150576	0.000426	4.256979	1.442304	-0.000170
 991	9.8505e+01	0.5390	5.920460	0.000578	5.777329	1.957412	-0.000231
 992	9.8605e+01	0.5085	5.710529	0.000527	5.270546	1.785709	-0.000211
 993	9.8704e+01	0.4749	5.540969	0.000426	4.256979	1.442304	-0.000170
 994	9.8803e+01	0.4267	5.298741	0.000608	6.081399	2.060434	-0.000243
 995	9.8903e+01	0.3834	5.088810	0.000527	5.270546	1.785709	-0.000211
 996	9.9002e+01	0.3449	4.842544	0.000618	6.182756	2.094774	-0.000248
 997	9.9102e+01	0.3032	4.652799	0.000476	4.763762	1.614006	-0.000191
 998	9.9201e+01	0.2615	4.422682	0.000578	5.777329	1.957412	-0.000231
 999	9.9301e+01	0.2326	4.245048	0.000446	4.459693	1.510985	-0.000179
1000	9.9400e+01	0.1893	4.047229	0.000497	4.966476	1.682688	-0.000199
1001	9.9500e+01	0.1492	3.809038	0.000598	5.980042	2.026093	-0.000239
1002	9.9600e+01	0.1091	3.603144	0.000517	5.169189	1.751369	-0.000207
1003	9.9699e+01	0.0722	3.368990	0.000588	5.878686	1.991753	-0.000235
1004	9.9799e+01	0.0257	3.155022	0.000537	5.371902	1.820050	-0.000215
1005	9.9898e+01	-0.0032	2.965276	0.000476	4.763762	1.614006	-0.000191
1006	9.9998e+01	-0.0497	2.783605	0.000456	4.561049	1.545325	-0.000183
1007	1.0010e+02	-0.0882	2.601934	0.000456	4.561049	1.545325	-0.000183
1008	1.0020e+02	-0.1155	2.355669	0.000618	6.182756	2.094774	-0.000248
1009	1.0030e+02	-0.1700	2.117478	0.000598	5.980042	2.026093	-0.000239
1010	1.0040e+02	-0.2005	1.931769	0.000466	4.662406	1.579666	-0.000187
1011	1.0050e+02	-0.2438	1.733950	0.000497	4.966476	1.682688	-0.000199
1012	1.0059e+02	-0.2791	1.471536	0.000659	6.588182	2.232137	-0.000264
1013	1.0069e+02	-0.3257	1.269679	0.000507	5.067832	1.717028	-0.000203
1014	1.0079e+02	-0.3529	1.071860	0.000497	4.966476	1.682688	-0.000199
1015	1.0089e+02	-0.3946	0.841743	0.000578	5.777329	1.957412	-0.000231
1016	1.0099e+02	-0.4396	0.591440	0.000628	6.284112	2.129115	-0.000252
1017	1.0109e+02	-0.4813	0.393621	0.000497	4.966476	1.682688	-0.000199
1018	1.0119e+02	-0.5230	0.183690	0.000527	5.270546	1.785709	-0.000211
1019	1.0129e+02	-0.5551	-0.006056	0.000476	4.763762	1.614006	-0.000191
1020	1.0139e+02	-0.5968	-0.240210	0.000588	5.878686	1.991753	-0.000235
1021	1.0149e+02	-0.6417	-0.438029	0.000497	4.966476	1.682688	-0.000199
1022	1.0159e+02	-0.6834	-0.668146	0.000578	5.777329	1.957412	-0.000231
1023	1.0169e+02	-0.7203	-0.890188	0.000557	5.574616	1.888731	-0.000223
1024	1.0179e+02	-0.7556	-1.112231	0.000557	5.574616	1.888731	-0.000223
1025	1.0189e+02	-0.7957	-1.334273	0.000557	5.574616	1.888731	-0.000223
1026	1.0199e+02	-0.8406	-1.524019	0.000476	4.763762	1.614006	-0.000191
1027	1.0209e+02	-0.8807	-1.705690	0.000456	4.561049	1.545325	-0.000183
1028	1.0219e+02	-0.9256	-1.923695	0.000547	5.473259	1.854390	-0.000219
1029	1.0229e+02	-0.9545	-2.202258	0.000699	6.993609	2.369499	-0.000280
1030	1.0239e+02	-0.9882	-2.412189	0.000527	5.270546	1.785709	-0.000211
1031	1.0248e+02	-1.0411	-2.622120	0.000527	5.270546	1.785709	-0.000211
1032	1.0258e+02	-1.0829	-2.775531	0.000385	3.851553	1.304941	-0.000154
1033	1.0268e+02	-1.1262	-3.005648	0.000578	5.777329	1.957412	-0.000231
1034	1.0278e+02	-1.1550	-3.227690	0.000557	5.574616	1.888731	-0.000223
1035	1.0288e+02	-1.1935	-3.482030	0.000639	6.385469	2.163455	-0.000256
1036	1.0298e+02	-1.2353	-3.659664	0.000446	4.459693	1.510985	-0.000179
1037	1.0308e+02	-1.2866	-3.853446	0.000487	4.865119	1.648347	-0.000195
1038	1.0318e+02	-1.3203	-4.115860	0.000659	6.588182	2.232137	-0.000264
1039	1.0328e+02	-1.3556	-4.325791	0.000527	5.270546	1.785709	-0.000211
1040	1.0338e+02	-1.4037	-4.539759	0.000537	5.371902	1.820050	-0.000215
1041	1.0348e+02	-1.4374	-4.765839	0.000568	5.675972	1.923071	-0.000227
1042	1.0358e+02	-1.4743	-4.975770	0.000527	5.270546	1.785709	-0.000211
1043	1.0368e+02	-1.5128	-5.145329	0.000426	4.256979	1.442304	-0.000170
1044	1.0378e+02	-1.5577	-5.371409	0.000568	5.675972	1.923071	-0.000227
1045	1.0388e+02	-1.5914	-5.581340	0.000527	5.270546	1.785709	-0.000211
1046	1.0398e+02	-1.6363	-5.795308	0.000537	5.371902	1.820050	-0.000215
1047	1.0408e+02	-1.6780	-6.033499	0.000598	5.980042	2.026093	-0.000239
1048	1.0418e+02	-1.7165	-6.223245	0.000476	4.763762	1.614006	-0.000191
1049	1.0428e+02	-1.7614	-6.441250	0.000547	5.473259	1.854390	-0.000219
1050	1.0438e+02	-1.7919	-6.655218	0.000537	5.371902	1.820050	-0.000215
1051	1.0447e+02	-1.8336	-6.857075	0.000507	5.067832	1.717028	-0.000203
1052	1.0457e+02	-1.8737	-7.075080	0.000547	5.473259	1.854390	-0.000219
1053	1.0467e+02	-1.9219	-7.309234	0.000588	5.878686	1.991753	-0.000235
1054	1.0477e+02	-1.9588	-7.490905	0.000456	4.561049	1.545325	-0.000183
1055	1.0487e+02	-1.9925	-7.721022	0.000578	5.777329	1.957412	-0.000231
1056	1.0497e+02	-2.0342	-7.939027	0.000547	5.473259	1.854390	-0.000219
1057	1.0507e+02	-2.0887	-8.140884	0.000507	5.067832	1.717028	-0.000203
1058	1.0517e+02	-2.1176	-8.330630	0.000476	4.763762	1.614006	-0.000191
1059	1.0527e+02	-2.1609	-8.540561	0.000527	5.270546	1.785709	-0.000211
1060	1.0537e+02	-2.2058	-8.782789	0.000608	6.081399	2.060434	-0.000243
1061	1.0547e+02	-2.2411	-8.980608	0.000497	4.966476	1.682688	-0.000199
1062	1.0557e+02	-2.2716	-9.162280	0.000456	4.561049	1.545325	-0.000183
1063	1.0567e+02	-2.3133	-9.331839	0.000426	4.256979	1.442304	-0.000170
1064	1.0577e+02	-2.3502	-9.602327	0.000679	6.790895	2.300818	-0.000272
1065	1.0587e+02	-2.4080	-9.808221	0.000517	5.169189	1.751369	-0.000207
1066	1.0597e+02	-2.4304	-10.002004	0.000487	4.865119	1.648347	-0.000195
1067	1.0607e+02	-2.4689	-10.147341	0.000365	3.648839	1.236260	-0.000146
1068	1.0617e+02	-2.5186	-10.357272	0.000527	5.270546	1.785709	-0.000211
1069	1.0627e+02	-2.5539	-10.587388	0.000578	5.777329	1.957412	-0.000231
1070	1.0637e+02	-2.5973	-10.785208	0.000497	4.966476	1.682688	-0.000199
1071	1.0647e+02	-2.6277	-10.978991	0.000487	4.865119	1.648347	-0.000195
1072	1.0656e+02	-2.6823	-11.152587	0.000436	4.358336	1.476644	-0.000174
1073	1.0666e+02	-2.7112	-11.378667	0.000568	5.675972	1.923071	-0.000227
1074	1.0676e+02	-2.7529	-11.556301	0.000446	4.459693	1.510985	-0.000179
1075	1.0686e+02	-2.7849	-11.762195	0.000517	5.169189	1.751369	-0.000207
1076	1.0696e+02	-2.8347	-11.951940	0.000476	4.763762	1.614006	-0.000191
1077	1.0706e+02	-2.8764	-12.121500	0.000426	4.256979	1.442304	-0.000170
1078	1.0716e+02	-2.9165	-12.351617	0.000578	5.777329	1.957412	-0.000231
1079	1.0726e+02	-2.9550	-12.505028	0.000385	3.851553	1.304941	-0.000154
1080	1.0736e+02	-2.9919	-12.735145	0.000578	5.777329	1.957412	-0.000231
1081	1.0746e+02	-3.0400	-12.928927	0.000487	4.865119	1.648347	-0.000195
1082	1.0756e+02	-3.0753	-13.110598	0.000456	4.561049	1.545325	-0.000183
1083	1.0766e+02	-3.1074	-13.320529	0.000527	5.270546	1.785709	-0.000211
1084	1.0776e+02	-3.1491	-13.522386	0.000507	5.067832	1.717028	-0.000203
1085	1.0786e+02	-3.1924	-13.732317	0.000527	5.270546	1.785709	-0.000211
1086	1.0796e+02	-3.2293	-13.885728	0.000385	3.851553	1.304941	-0.000154
1087	1.0806e+02	-3.2678	-14.107771	0.000557	5.574616	1.888731	-0.000223
1088	1.0816e+02	-3.3015	-14.285405	0.000446	4.459693	1.510985	-0.000179
1089	1.0826e+02	-3.3512	-14.475150	0.000476	4.763762	1.614006	-0.000191
1090	1.0836e+02	-3.3897	-14.668933	0.000487	4.865119	1.648347	-0.000195
1091	1.0845e+02	-3.4282	-14.903087	0.000588	5.878686	1.991753	-0.000235
1092	1.0855e+02	-3.4587	-15.036312	0.000334	3.344769	1.133239	-0.000134
1093	1.0865e+02	-3.5101	-15.217983	0.000456	4.561049	1.545325	-0.000183
1094	1.0875e+02	-3.5389	-15.427914	0.000527	5.270546	1.785709	-0.000211
1095	1.0885e+02	-3.5951	-15.645920	0.000547	5.473259	1.854390	-0.000219
1096	1.0895e+02	-3.6224	-15.791256	0.000365	3.648839	1.236260	-0.000146
1097	1.0905e+02	-3.6689	-16.005225	0.000537	5.371902	1.820050	-0.000215
1098	1.0915e+02	-3.7138	-16.199007	0.000487	4.865119	1.648347	-0.000195
1099	1.0925e+02	-3.7443	-16.332233	0.000334	3.344769	1.133239	-0.000134
1100	1.0935e+02	-3.7924	-16.509867	0.000446	4.459693	1.510985	-0.000179
1101	1.0945e+02	-3.8213	-16.687501	0.000446	4.459693	1.510985	-0.000179
1102	1.0955e+02	-3.8694	-16.941840	0.000639	6.385469	2.163455	-0.000256
1103	1.0965e+02	-3.9111	-17.071028	0.000324	3.243413	1.098898	-0.000130
1104	1.0975e+02	-3.9528	-17.305182	0.000588	5.878686	1.991753	-0.000235
1105	1.0985e+02	-3.9929	-17.470705	0.000416	4.155623	1.407963	-0.000166
1106	1.0995e+02	-4.0266	-17.680636	0.000527	5.270546	1.785709	-0.000211
1107	1.1005e+02	-4.0667	-17.825973	0.000365	3.648839	1.236260	-0.000146
1108	1.1015e+02	-4.1052	-18.007644	0.000456	4.561049	1.545325	-0.000183
1109	1.1025e+02	-4.1518	-18.177204	0.000426	4.256979	1.442304	-0.000170
1110	1.1035e+02	-4.1870	-18.387135	0.000527	5.270546	1.785709	-0.000211
1111	1.1044e+02	-4.2288	-18.564769	0.000446	4.459693	1.510985	-0.000179
1112	1.1054e+02	-4.2689	-18.726254	0.000405	4.054266	1.373622	-0.000162
1113	1.1064e+02	-4.3026	-18.879665	0.000385	3.851553	1.304941	-0.000154
1114	1.1074e+02	-4.3555	-19.085559	0.000517	5.169189	1.751369	-0.000207
1115	1.1084e+02	-4.3908	-19.243007	0.000395	3.952909	1.339282	-0.000158
1116	1.1094e+02	-4.4277	-19.461013	0.000547	5.473259	1.854390	-0.000219
1117	1.1104e+02	-4.4758	-19.634610	0.000436	4.358336	1.476644	-0.000174
1118	1.1114e+02	-4.5127	-19.832429	0.000497	4.966476	1.682688	-0.000199
1119	1.1124e+02	-4.5496	-19.985840	0.000385	3.851553	1.304941	-0.000154
1120	1.1134e+02	-4.5833	-20.139252	0.000385	3.851553	1.304941	-0.000154
1121	1.1144e+02	-4.6202	-20.320923	0.000456	4.561049	1.545325	-0.000183
1122	1.1154e+02	-4.6635	-20.514705	0.000487	4.865119	1.648347	-0.000195
1123	1.1164e+02	-4.7116	-20.692339	0.000446	4.459693	1.510985	-0.000179
1124	1.1174e+02	-4.7485	-20.890159	0.000497	4.966476	1.682688	-0.000199
1125	1.1184e+02	-4.7886	-21.039533	0.000375	3.750196	1.270601	-0.000150
1126	1.1194e+02	-4.8352	-21.188907	0.000375	3.750196	1.270601	-0.000150
1127	1.1204e+02	-4.8705	-21.374615	0.000466	4.662406	1.579666	-0.000187
1128	1.1214e+02	-4.9106	-21.528026	0.000385	3.851553	1.304941	-0.000154
1129	1.1224e+02	-4.9491	-21.689512	0.000405	4.054266	1.373622	-0.000162
1130	1.1234e+02	-4.9908	-21.879257	0.000476	4.763762	1.614006	-0.000191
1131	1.1244e+02	-5.0261	-22.077077	0.000497	4.966476	1.682688	-0.000199
1132	1.1253e+02	-5.0710	-22.230488	0.000385	3.851553	1.304941	-0.000154
1133	1.1263e+02	-5.1079	-22.416196	0.000466	4.662406	1.579666	-0.000187
1134	1.1273e+02	-5.1416	-22.525199	0.000274	2.736630	0.927195	-0.000110
1135	1.1283e+02	-5.1865	-22.771464	0.000618	6.182756	2.094774	-0.000248
1136	1.1293e+02	-5.2234	-22.936987	0.000416	4.155623	1.407963	-0.000166
1137	1.1303e+02	-5.2731	-23.090398	0.000385	3.851553	1.304941	-0.000154
1138	1.1313e+02	-5.3052	-23.268032	0.000446	4.459693	1.510985	-0.000179
1139	1.1323e+02	-5.3405	-23.401257	0.000334	3.344769	1.133239	-0.000134
1140	1.1333e+02	-5.3822	-23.542557	0.000355	3.547483	1.201920	-0.000142
1141	1.1343e+02	-5.4223	-23.772674	0.000578	5.777329	1.957412	-0.000231
1142	1.1353e+02	-5.4656	-23.905899	0.000334	3.344769	1.133239	-0.000134
1143	1.1363e+02	-5.4961	-24.107756	0.000507	5.067832	1.717028	-0.000203
1144	1.1373e+02	-5.5442	-24.265204	0.000395	3.952909	1.339282	-0.000158
1145	1.1383e+02	-5.5940	-24.418616	0.000385	3.851553	1.304941	-0.000154
1146	1.1393e+02	-5.6260	-24.543767	0.000314	3.142056	1.064557	-0.000126
1147	1.1403e+02	-5.6533	-24.757735	0.000537	5.371902	1.820050	-0.000215
1148	1.1413e+02	-5.6998	-24.947480	0.000476	4.763762	1.614006	-0.000191
1149	1.1423e+02	-5.7335	-25.084743	0.000345	3.446126	1.167579	-0.000138
1150	1.1433e+02	-5.7720	-25.242191	0.000395	3.952909	1.339282	-0.000158
1151	1.1442e+02	-5.8202	-25.435974	0.000487	4.865119	1.648347	-0.000195
1152	1.1452e+02	-5.8667	-25.581311	0.000365	3.648839	1.236260	-0.000146
1153	1.1462e+02	-5.8972	-25.779130	0.000497	4.966476	1.682688	-0.000199
1154	1.1472e+02	-5.9437	-25.924467	0.000365	3.648839	1.236260	-0.000146
1155	1.1482e+02	-5.9806	-26.069804	0.000365	3.648839	1.236260	-0.000146
1156	1.1492e+02	-6.0271	-26.255512	0.000466	4.662406	1.579666	-0.000187
1157	1.1502e+02	-6.0656	-26.421035	0.000416	4.155623	1.407963	-0.000166
1158	1.1512e+02	-6.1009	-26.618854	0.000497	4.966476	1.682688	-0.000199
1159	1.1522e+02	-6.1394	-26.744006	0.000314	3.142056	1.064557	-0.000126
1160	1.1532e+02	-6.1811	-26.929714	0.000466	4.662406	1.579666	-0.000187
1161	1.1542e+02	-6.2212	-27.119459	0.000476	4.763762	1.614006	-0.000191
1162	1.1552e+02	-6.2613	-27.240573	0.000304	3.040699	1.030217	-0.000122
1163	1.1562e+02	-6.2998	-27.369762	0.000324	3.243413	1.098898	-0.000130
1164	1.1572e+02	-6.3351	-27.591804	0.000557	5.574616	1.888731	-0.000223
1165	1.1582e+02	-6.3784	-27.745215	0.000385	3.851553	1.304941	-0.000154
1166	1.1592e+02	-6.4282	-27.890552	0.000365	3.648839	1.236260	-0.000146
1167	1.1602e+02	-6.4602	-28.019741	0.000324	3.243413	1.098898	-0.000130
1168	1.1612e+02	-6.4939	-28.193337	0.000436	4.358336	1.476644	-0.000174
1169	1.1622e+02	-6.5405	-28.350786	0.000395	3.952909	1.339282	-0.000158
1170	1.1632e+02	-6.5709	-28.532457	0.000456	4.561049	1.545325	-0.000183
1171	1.1642e+02	-6.6094	-28.697979	0.000416	4.155623	1.407963	-0.000166
1172	1.1651e+02	-6.6560	-28.831205	0.000334	3.344769	1.133239	-0.000134
1173	1.1661e+02	-6.6961	-29.000765	0.000426	4.256979	1.442304	-0.000170
1174	1.1671e+02	-6.7314	-29.121879	0.000304	3.040699	1.030217	-0.000122
1175	1.1681e+02	-6.7667	-29.323735	0.000507	5.067832	1.717028	-0.000203
1176	1.1691e+02	-6.8212	-29.452924	0.000324	3.243413	1.098898	-0.000130
1177	1.1701e+02	-6.8549	-29.614409	0.000405	4.054266	1.373622	-0.000162
1178	1.1711e+02	-6.8870	-29.779932	0.000416	4.155623	1.407963	-0.000166
1179	1.1721e+02	-6.9255	-29.961603	0.000456	4.561049	1.545325	-0.000183
1180	1.1731e+02	-6.9688	-30.058494	0.000243	2.432560	0.824173	-0.000097
1181	1.1741e+02	-7.0121	-30.284574	0.000568	5.675972	1.923071	-0.000227
1182	1.1751e+02	-7.0522	-30.385502	0.000253	2.533916	0.858514	-0.000101
1183	1.1761e+02	-7.0939	-30.591396	0.000517	5.169189	1.751369	-0.000207
1184	1.1771e+02	-7.1388	-30.712510	0.000304	3.040699	1.030217	-0.000122
1185	1.1781e+02	-7.1693	-30.890144	0.000446	4.459693	1.510985	-0.000179
1186	1.1791e+02	-7.2094	-31.019332	0.000324	3.243413	1.098898	-0.000130
1187	1.1801e+02	-7.2575	-31.184855	0.000416	4.155623	1.407963	-0.000166
1188	1.1811e+02	-7.2880	-31.330192	0.000365	3.648839	1.236260	-0.000146
1189	1.1821e+02	-7.3313	-31.455343	0.000314	3.142056	1.064557	-0.000126
1190	1.1831e+02	-7.3714	-31.637014	0.000456	4.561049	1.545325	-0.000183
1191	1.1841e+02	-7.4132	-31.826760	0.000476	4.763762	1.614006	-0.000191
1192	1.1850e+02	-7.4581	-31.931725	0.000264	2.635273	0.892855	-0.000105
1193	1.1860e+02	-7.4934	-32.081099	0.000375	3.750196	1.270601	-0.000150
1194	1.1870e+02	-7.5351	-32.246622	0.000416	4.155623	1.407963	-0.000166
1195	1.1880e+02	-7.5688	-32.391959	0.000365	3.648839	1.236260	-0.000146
1196	1.1890e+02	-7.6137	-32.561518	0.000426	4.256979	1.442304	-0.000170
1197	1.1900e+02	-7.6522	-32.731078	0.000426	4.256979	1.442304	-0.000170
1198	1.1910e+02	-7.6971	-32.819895	0.000223	2.229846	0.755492	-0.000089
1199	1.1920e+02	-7.7356	-33.009640	0.000476	4.763762	1.614006	-0.000191
1200	1.1930e+02	-7.7629	-33.138829	0.000324	3.243413	1.098898	-0.000130
1201	1.1940e+02	-7.8110	-33.288203	0.000375	3.750196	1.270601	-0.000150
1202	1.1950e+02	-7.8479	-33.449688	0.000405	4.054266	1.373622	-0.000162
1203	1.1960e+02	-7.8912	-33.623285	0.000436	4.358336	1.476644	-0.000174
1204	1.1970e+02	-7.9281	-33.720176	0.000243	2.432560	0.824173	-0.000097
1205	1.1980e+02	-7.9682	-33.893773	0.000436	4.358336	1.476644	-0.000174
1206	1.1990e+02	-8.0083	-34.051221	0.000395	3.952909	1.339282	-0.000158
1207	1.2000e+02	-8.0565	-34.232892	0.000456	4.561049	1.545325	-0.000183
1208	1.2010e+02	-8.0918	-34.366118	0.000334	3.344769	1.133239	-0.000134
1209	1.2020e+02	-8.1303	-34.446861	0.000203	2.027133	0.686811	-0.000081
1210	1.2030e+02	-8.1688	-34.628532	0.000456	4.561049	1.545325	-0.000183
1211	1.2039e+02	-8.2137	-34.777906	0.000375	3.750196	1.270601	-0.000150
1212	1.2049e+02	-8.2506	-34.967651	0.000476	4.763762	1.614006	-0.000191
1213	1.2059e+02	-8.2794	-35.108951	0.000355	3.547483	1.201920	-0.000142
1214	1.2069e+02	-8.3308	-35.262362	0.000385	3.851553	1.304941	-0.000154
1215	1.2079e+02	-8.3677	-35.403662	0.000355	3.547483	1.201920	-0.000142
1216	1.2089e+02	-8.4030	-35.532850	0.000324	3.243413	1.098898	-0.000130
1217	1.2099e+02	-8.4495	-35.674150	0.000355	3.547483	1.201920	-0.000142
1218	1.2109e+02	-8.5072	-35.831598	0.000395	3.952909	1.339282	-0.000158
1219	1.2119e+02	-8.5361	-35.972898	0.000355	3.547483	1.201920	-0.000142
1220	1.2129e+02	-8.5746	-36.142458	0.000426	4.256979	1.442304	-0.000170
1221	1.2139e+02	-8.5987	-36.299906	0.000395	3.952909	1.339282	-0.000158
1222	1.2149e+02	-8.6420	-36.412946	0.000284	2.837986	0.961536	-0.000114
1223	1.2159e+02	-8.6805	-36.582505	0.000426	4.256979	1.442304	-0.000170
1224	1.2169e+02	-8.7302	-36.743991	0.000405	4.054266	1.373622	-0.000162
1225	1.2179e+02	-8.7752	-36.836845	0.000233	2.331203	0.789833	-0.000093
1226	1.2189e+02	-8.8040	-37.034665	0.000497	4.966476	1.682688	-0.000199
1227	1.2199e+02	-8.8473	-37.123482	0.000223	2.229846	0.755492	-0.000089
1228	1.2209e+02	-8.9019	-37.301116	0.000446	4.459693	1.510985	-0.000179
1229	1.2219e+02	-8.9308	-37.426267	0.000314	3.142056	1.064557	-0.000126
1230	1.2229e+02	-8.9805	-37.599864	0.000436	4.358336	1.476644	-0.000174
1231	1.2239e+02	-9.0046	-37.733089	0.000334	3.344769	1.133239	-0.000134
1232	1.2248e+02	-9.0495	-37.850166	0.000294	2.939343	0.995876	-0.000118
1233	1.2258e+02	-9.0880	-37.979354	0.000324	3.243413	1.098898	-0.000130
1234	1.2268e+02	-9.1297	-38.132766	0.000385	3.851553	1.304941	-0.000154
1235	1.2278e+02	-9.1666	-38.310400	0.000446	4.459693	1.510985	-0.000179
1236	1.2288e+02	-9.2083	-38.415365	0.000264	2.635273	0.892855	-0.000105
1237	1.2298e+02	-9.2484	-38.580888	0.000416	4.155623	1.407963	-0.000166
1238	1.2308e+02	-9.2917	-38.710076	0.000324	3.243413	1.098898	-0.000130
1239	1.2318e+02	-9.3238	-38.839264	0.000324	3.243413	1.098898	-0.000130
1240	1.2328e+02	-9.3607	-38.960378	0.000304	3.040699	1.030217	-0.000122
1241	1.2338e+02	-9.4152	-39.117827	0.000395	3.952909	1.339282	-0.000158
1242	1.2348e+02	-9.4409	-39.303535	0.000466	4.662406	1.579666	-0.000187
1243	1.2358e+02	-9.4955	-39.384278	0.000203	2.027133	0.686811	-0.000081
1244	1.2368e+02	-9.5227	-39.553837	0.000426	4.256979	1.442304	-0.000170
1245	1.2378e+02	-9.5821	-39.666877	0.000284	2.837986	0.961536	-0.000114
1246	1.2388e+02	-9.6029	-39.824325	0.000395	3.952909	1.339282	-0.000158
1247	1.2398e+02	-9.6350	-39.985811	0.000405	4.054266	1.373622	-0.000162
1248	1.2408e+02	-9.6880	-40.078665	0.000233	2.331203	0.789833	-0.000093
1249	1.2418e+02	-9.7184	-40.224002	0.000365	3.648839	1.236260	-0.000146
1250	1.2428e+02	-9.7585	-40.353190	0.000324	3.243413	1.098898	-0.000130
1251	1.2438e+02	-9.8067	-40.474304	0.000304	3.040699	1.030217	-0.000122
1252	1.2447e+02	-9.8372	-40.619641	0.000365	3.648839	1.236260	-0.000146
1253	1.2457e+02	-9.8821	-40.809387	0.000476	4.763762	1.614006	-0.000191
1254	1.2467e+02	-9.9286	-40.878018	0.000172	1.723063	0.583790	-0.000069
1255	1.2477e+02	-9.9559	-41.071800	0.000487	4.865119	1.648347	-0.000195
1256	1.2487e+02	-10.0024	-41.164655	0.000233	2.331203	0.789833	-0.000093
1257	1.2497e+02	-10.0425	-41.322103	0.000395	3.952909	1.339282	-0.000158
1258	1.2507e+02	-10.0826	-41.483588	0.000405	4.054266	1.373622	-0.000162
1259	1.2517e+02	-10.1179	-41.592591	0.000274	2.736630	0.927195	-0.000110
1260	1.2527e+02	-10.1644	-41.729854	0.000345	3.446126	1.167579	-0.000138
1261	1.2537e+02	-10.2045	-41.875190	0.000365	3.648839	1.236260	-0.000146
1262	1.2547e+02	-10.2414	-42.008416	0.000334	3.344769	1.133239	-0.000134
1263	1.2557e+02	-10.2767	-42.161827	0.000385	3.851553	1.304941	-0.000154
1264	1.2567e+02	-10.3281	-42.242570	0.000203	2.027133	0.686811	-0.000081
1265	1.2577e+02	-10.3569	-42.420204	0.000446	4.459693	1.510985	-0.000179
1266	1.2587e+02	-10.4051	-42.545355	0.000314	3.142056	1.064557	-0.000126
1267	1.2597e+02	-10.4436	-42.674543	0.000324	3.243413	1.098898	-0.000130
1268	1.2607e+02	-10.4869	-42.811806	0.000345	3.446126	1.167579	-0.000138
1269	1.2617e+02	-10.5238	-42.965217	0.000385	3.851553	1.304941	-0.000154
1270	1.2627e+02	-10.5575	-43.098443	0.000334	3.344769	1.133239	-0.000134
1271	1.2636e+02	-10.5960	-43.215520	0.000294	2.939343	0.995876	-0.000118
1272	1.2646e+02	-10.6361	-43.356819	0.000355	3.547483	1.201920	-0.000142
1273	1.2656e+02	-10.6794	-43.506193	0.000375	3.750196	1.270601	-0.000150
1274	1.2666e+02	-10.7147	-43.663642	0.000395	3.952909	1.339282	-0.000158
1275	1.2676e+02	-10.7612	-43.776681	0.000284	2.837986	0.961536	-0.000114
1276	1.2686e+02	-10.8029	-43.885684	0.000274	2.736630	0.927195	-0.000110
1277	1.2696e+02	-10.8414	-44.047169	0.000405	4.054266	1.373622	-0.000162
1278	1.2706e+02	-10.8783	-44.164246	0.000294	2.939343	0.995876	-0.000118
1279	1.2716e+02	-10.9200	-44.285360	0.000304	3.040699	1.030217	-0.000122
1280	1.2726e+02	-10.9601	-44.458957	0.000436	4.358336	1.476644	-0.000174
1281	1.2736e+02	-11.0018	-44.551811	0.000233	2.331203	0.789833	-0.000093
1282	1.2746e+02	-11.0387	-44.733483	0.000456	4.561049	1.545325	-0.000183
1283	1.2756e+02	-11.0820	-44.834411	0.000253	2.533916	0.858514	-0.000101
1284	1.2766e+02	-11.1093	-44.971674	0.000345	3.446126	1.167579	-0.000138
1285	1.2776e+02	-11.1606	-45.121048	0.000375	3.750196	1.270601	-0.000150
1286	1.2786e+02	-11.2056	-45.230050	0.000274	2.736630	0.927195	-0.000110
1287	1.2796e+02	-11.2393	-45.375387	0.000365	3.648839	1.236260	-0.000146
1288	1.2806e+02	-11.2794	-45.480353	0.000264	2.635273	0.892855	-0.000105
1289	1.2816e+02	-11.3179	-45.605504	0.000314	3.142056	1.064557	-0.000126
1290	1.2826e+02	-11.3548	-45.783138	0.000446	4.459693	1.510985	-0.000179
1291	1.2835e+02	-11.3997	-45.892141	0.000274	2.736630	0.927195	-0.000110
1292	1.2845e+02	-11.4430	-46.053626	0.000405	4.054266	1.373622	-0.000162
1293	1.2855e+02	-11.4751	-46.198963	0.000365	3.648839	1.236260	-0.000146
1294	1.2865e+02	-11.5072	-46.275668	0.000193	1.925776	0.652471	-0.000077
1295	1.2875e+02	-11.5569	-46.404857	0.000324	3.243413	1.098898	-0.000130
1296	1.2885e+02	-11.5890	-46.566342	0.000405	4.054266	1.373622	-0.000162
1297	1.2895e+02	-11.6339	-46.667271	0.000253	2.533916	0.858514	-0.000101
1298	1.2905e+02	-11.6740	-46.804533	0.000345	3.446126	1.167579	-0.000138
1299	1.2915e+02	-11.7237	-46.925647	0.000304	3.040699	1.030217	-0.000122
1300	1.2925e+02	-11.7558	-47.058873	0.000334	3.344769	1.133239	-0.000134
1301	1.2935e+02	-11.7895	-47.184024	0.000314	3.142056	1.064557	-0.000126
1302	1.2945e+02	-11.8328	-47.337435	0.000385	3.851553	1.304941	-0.000154
1303	1.2955e+02	-11.8729	-47.502958	0.000416	4.155623	1.407963	-0.000166
1304	1.2965e+02	-11.9146	-47.587738	0.000213	2.128490	0.721152	-0.000085
1305	1.2975e+02	-11.9563	-47.692703	0.000264	2.635273	0.892855	-0.000105
1306	1.2985e+02	-11.9868	-47.834003	0.000355	3.547483	1.201920	-0.000142
1307	1.2995e+02	-12.0350	-47.934931	0.000253	2.533916	0.858514	-0.000101
1308	1.3005e+02	-12.0735	-48.104491	0.000426	4.256979	1.442304	-0.000170
1309	1.3015e+02	-12.1168	-48.201382	0.000243	2.432560	0.824173	-0.000097
1310	1.3025e+02	-12.1489	-48.370942	0.000426	4.256979	1.442304	-0.000170
1311	1.3034e+02	-12.1986	-48.496093	0.000314	3.142056	1.064557	-0.000126
1312	1.3044e+02	-12.2419	-48.633356	0.000345	3.446126	1.167579	-0.000138
1313	1.3054e+02	-12.2660	-48.722173	0.000223	2.229846	0.755492	-0.000089
1314	1.3064e+02	-12.3125	-48.875584	0.000385	3.851553	1.304941	-0.000154
1315	1.3074e+02	-12.3590	-49.000735	0.000314	3.142056	1.064557	-0.000126
1316	1.3084e+02	-12.3959	-49.125886	0.000314	3.142056	1.064557	-0.000126
1317	1.3094e+02	-12.4344	-49.283335	0.000395	3.952909	1.339282	-0.000158
1318	1.3104e+02	-12.4745	-49.388300	0.000264	2.635273	0.892855	-0.000105
1319	1.3114e+02	-12.5066	-49.537674	0.000375	3.750196	1.270601	-0.000150
1320	1.3124e+02	-12.5499	-49.654751	0.000294	2.939343	0.995876	-0.000118
1321	1.3134e+02	-12.5980	-49.792014	0.000345	3.446126	1.167579	-0.000138
1322	1.3144e+02	-12.6381	-49.884868	0.000233	2.331203	0.789833	-0.000093
1323	1.3154e+02	-12.6766	-50.050390	0.000416	4.155623	1.407963	-0.000166
1324	1.3164e+02	-12.7168	-50.171504	0.000304	3.040699	1.030217	-0.000122
1325	1.3174e+02	-12.7585	-50.300693	0.000324	3.243413	1.098898	-0.000130
1326	1.3184e+02	-12.7970	-50.446030	0.000365	3.648839	1.236260	-0.000146
1327	1.3194e+02	-12.8371	-50.579255	0.000334	3.344769	1.133239	-0.000134
1328	1.3204e+02	-12.8804	-50.708443	0.000324	3.243413	1.098898	-0.000130
1329	1.3214e+02	-12.9061	-50.837632	0.000324	3.243413	1.098898	-0.000130
1330	1.3224e+02	-12.9590	-50.962783	0.000314	3.142056	1.064557	-0.000126
1331	1.3234e+02	-12.9959	-51.091971	0.000324	3.243413	1.098898	-0.000130
1332	1.3243e+02	-13.0360	-51.200974	0.000274	2.736630	0.927195	-0.000110
1333	1.3253e+02	-13.0649	-51.309977	0.000274	2.736630	0.927195	-0.000110
1334	1.3263e+02	-13.1098	-51.471462	0.000405	4.054266	1.373622	-0.000162
1335	1.3273e+02	-13.1563	-51.568353	0.000243	2.432560	0.824173	-0.000097
1336	1.3283e+02	-13.1884	-51.665245	0.000243	2.432560	0.824173	-0.000097
1337	1.3293e+02	-13.2317	-51.863064	0.000497	4.966476	1.682688	-0.000199
1338	1.3303e+02	-13.2718	-51.992253	0.000324	3.243413	1.098898	-0.000130
1339	1.3313e+02	-13.3151	-52.117404	0.000314	3.142056	1.064557	-0.000126
1340	1.3323e+02	-13.3520	-52.218332	0.000253	2.533916	0.858514	-0.000101
1341	1.3333e+02	-13.3873	-52.335409	0.000294	2.939343	0.995876	-0.000118
1342	1.3343e+02	-13.4290	-52.492857	0.000395	3.952909	1.339282	-0.000158
1343	1.3353e+02	-13.4691	-52.605897	0.000284	2.837986	0.961536	-0.000114
1344	1.3363e+02	-13.5125	-52.718937	0.000284	2.837986	0.961536	-0.000114
1345	1.3373e+02	-13.5397	-52.880422	0.000405	4.054266	1.373622	-0.000162
1346	1.3383e+02	-13.5895	-52.989425	0.000274	2.736630	0.927195	-0.000110
1347	1.3393e+02	-13.6264	-53.114576	0.000314	3.142056	1.064557	-0.000126
1348	1.3403e+02	-13.6697	-53.223579	0.000274	2.736630	0.927195	-0.000110
1349	1.3413e+02	-13.7066	-53.364879	0.000355	3.547483	1.201920	-0.000142
1350	1.3423e+02	-13.7467	-53.473881	0.000274	2.736630	0.927195	-0.000110
1351	1.3432e+02	-13.7900	-53.663627	0.000476	4.763762	1.614006	-0.000191
1352	1.3442e+02	-13.8237	-53.748407	0.000213	2.128490	0.721152	-0.000085
1353	1.3452e+02	-13.8670	-53.873558	0.000314	3.142056	1.064557	-0.000126
1354	1.3462e+02	-13.9055	-53.994672	0.000304	3.040699	1.030217	-0.000122
1355	1.3472e+02	-13.9488	-54.103675	0.000274	2.736630	0.927195	-0.000110
1356	1.3482e+02	-13.9809	-54.196529	0.000233	2.331203	0.789833	-0.000093
1357	1.3492e+02	-14.0322	-54.353977	0.000395	3.952909	1.339282	-0.000158
1358	1.3502e+02	-14.0723	-54.471054	0.000294	2.939343	0.995876	-0.000118
1359	1.3512e+02	-14.1060	-54.632539	0.000405	4.054266	1.373622	-0.000162
1360	1.3522e+02	-14.1461	-54.701171	0.000172	1.723063	0.583790	-0.000069
1361	1.3532e+02	-14.1926	-54.822285	0.000304	3.040699	1.030217	-0.000122
1362	1.3542e+02	-14.2311	-54.963585	0.000355	3.547483	1.201920	-0.000142
1363	1.3552e+02	-14.2616	-55.088736	0.000314	3.142056	1.064557	-0.000126
1364	1.3562e+02	-14.3098	-55.225998	0.000345	3.446126	1.167579	-0.000138
1365	1.3572e+02	-14.3515	-55.306741	0.000203	2.027133	0.686811	-0.000081
1366	1.3582e+02	-14.3932	-55.472264	0.000416	4.155623	1.407963	-0.000166
1367	1.3592e+02	-14.4237	-55.589341	0.000294	2.939343	0.995876	-0.000118
1368	1.3602e+02	-14.4638	-55.730640	0.000355	3.547483	1.201920	-0.000142
1369	1.3612e+02	-14.5039	-55.843680	0.000284	2.837986	0.961536	-0.000114
1370	1.3622e+02	-14.5472	-55.948646	0.000264	2.635273	0.892855	-0.000105
1371	1.3631e+02	-14.5825	-56.085908	0.000345	3.446126	1.167579	-0.000138
1372	1.3641e+02	-14.6322	-56.174725	0.000223	2.229846	0.755492	-0.000089
1373	1.3651e+02	-14.6739	-56.311988	0.000345	3.446126	1.167579	-0.000138
1374	1.3661e+02	-14.6996	-56.429065	0.000294	2.939343	0.995876	-0.000118
1375	1.3671e+02	-14.7397	-56.594587	0.000416	4.155623	1.407963	-0.000166
1376	1.3681e+02	-14.7814	-56.695516	0.000253	2.533916	0.858514	-0.000101
1377	1.3691e+02	-14.8311	-56.804518	0.000274	2.736630	0.927195	-0.000110
1378	1.3701e+02	-14.8584	-56.941781	0.000345	3.446126	1.167579	-0.000138
1379	1.3711e+02	-14.8937	-57.038672	0.000243	2.432560	0.824173	-0.000097
1380	1.3721e+02	-14.9466	-57.200158	0.000405	4.054266	1.373622	-0.000162
1381	1.3731e+02	-14.9867	-57.301086	0.000253	2.533916	0.858514	-0.000101
1382	1.3741e+02	-15.0220	-57.430274	0.000324	3.243413	1.098898	-0.000130
1383	1.3751e+02	-15.0557	-57.531203	0.000253	2.533916	0.858514	-0.000101
1384	1.3761e+02	-15.1022	-57.652317	0.000304	3.040699	1.030217	-0.000122
1385	1.3771e+02	-15.1472	-57.825914	0.000436	4.358336	1.476644	-0.000174
1386	1.3781e+02	-15.1841	-57.934916	0.000274	2.736630	0.927195	-0.000110
1387	1.3791e+02	-15.2210	-58.023733	0.000223	2.229846	0.755492	-0.000089
1388	1.3801e+02	-15.2659	-58.165033	0.000355	3.547483	1.201920	-0.000142
1389	1.3811e+02	-15.2980	-58.282110	0.000294	2.939343	0.995876	-0.000118
1390	1.3821e+02	-15.3429	-58.399187	0.000294	2.939343	0.995876	-0.000118
1391	1.3831e+02	-15.3926	-58.528375	0.000324	3.243413	1.098898	-0.000130
1392	1.3840e+02	-15.4279	-58.657564	0.000324	3.243413	1.098898	-0.000130
1393	1.3850e+02	-15.4664	-58.810975	0.000385	3.851553	1.304941	-0.000154
1394	1.3860e+02	-15.4985	-58.928052	0.000294	2.939343	0.995876	-0.000118
1395	1.3870e+02	-15.5434	-59.024943	0.000243	2.432560	0.824173	-0.000097
1396	1.3880e+02	-15.5835	-59.117797	0.000233	2.331203	0.789833	-0.000093
1397	1.3890e+02	-15.6204	-59.242948	0.000314	3.142056	1.064557	-0.000126
1398	1.3900e+02	-15.6621	-59.388285	0.000365	3.648839	1.236260	-0.000146
1399	1.3910e+02	-15.7022	-59.481139	0.000233	2.331203	0.789833	-0.000093
1400	1.3920e+02	-15.7423	-59.622439	0.000355	3.547483	1.201920	-0.000142
1401	1.3930e+02	-15.7808	-59.731442	0.000274	2.736630	0.927195	-0.000110
1402	1.3940e+02	-15.8225	-59.848519	0.000294	2.939343	0.995876	-0.000118
1403	1.3950e+02	-15.8610	-59.973670	0.000314	3.142056	1.064557	-0.000126
1404	1.3960e+02	-15.8931	-60.102858	0.000324	3.243413	1.098898	-0.000130
1405	1.3970e+02	-15.9397	-60.187638	0.000213	2.128490	0.721152	-0.000085
1406	1.3980e+02	-15.9798	-60.288567	0.000253	2.533916	0.858514	-0.000101
1407	1.3990e+02	-16.0167	-60.458126	0.000426	4.256979	1.442304	-0.000170
1408	1.4000e+02	-16.0552	-60.571166	0.000284	2.837986	0.961536	-0.000114
1409	1.4010e+02	-16.1017	-60.688243	0.000294	2.939343	0.995876	-0.000118
1410	1.4020e+02	-16.1338	-60.821468	0.000334	3.344769	1.133239	-0.000134
1411	1.4029e+02	-16.1851	-60.930471	0.000274	2.736630	0.927195	-0.000110
1412	1.4039e+02	-16.2252	-61.067734	0.000345	3.446126	1.167579	-0.000138
1413	1.4049e+02	-16.2637	-61.128291	0.000152	1.520350	0.515108	-0.000061
1414	1.4059e+02	-16.2942	-61.273628	0.000365	3.648839	1.236260	-0.000146
1415	1.4069e+02	-16.3359	-61.382630	0.000274	2.736630	0.927195	-0.000110
1416	1.4079e+02	-16.3696	-61.515856	0.000334	3.344769	1.133239	-0.000134
1417	1.4089e+02	-16.4113	-61.596599	0.000203	2.027133	0.686811	-0.000081
1418	1.4099e+02	-16.4626	-61.758084	0.000405	4.054266	1.373622	-0.000162
1419	1.4109e+02	-16.4995	-61.850938	0.000233	2.331203	0.789833	-0.000093
1420	1.4119e+02	-16.5412	-61.980126	0.000324	3.243413	1.098898	-0.000130
1421	1.4129e+02	-16.5733	-62.105278	0.000314	3.142056	1.064557	-0.000126
1422	1.4139e+02	-16.6231	-62.254652	0.000375	3.750196	1.270601	-0.000150
1423	1.4149e+02	-16.6584	-62.315209	0.000152	1.520350	0.515108	-0.000061
1424	1.4159e+02	-16.6985	-62.460546	0.000365	3.648839	1.236260	-0.000146
1425	1.4169e+02	-16.7370	-62.605882	0.000365	3.648839	1.236260	-0.000146
1426	1.4179e+02	-16.7755	-62.714885	0.000274	2.736630	0.927195	-0.000110
1427	1.4189e+02	-16.8156	-62.823888	0.000274	2.736630	0.927195	-0.000110
1428	1.4199e+02	-16.8460	-62.993447	0.000426	4.256979	1.442304	-0.000170
1429	1.4209e+02	-16.8926	-63.078227	0.000213	2.128490	0.721152	-0.000085
1430	1.4219e+02	-16.9359	-63.195304	0.000294	2.939343	0.995876	-0.000118
1431	1.4228e+02	-16.9824	-63.308344	0.000284	2.837986	0.961536	-0.000114
1432	1.4238e+02	-17.0209	-63.425421	0.000294	2.939343	0.995876	-0.000118
1433	1.4248e+02	-17.0546	-63.562684	0.000345	3.446126	1.167579	-0.000138
1434	1.4258e+02	-17.1027	-63.687835	0.000314	3.142056	1.064557	-0.000126
1435	1.4268e+02	-17.1348	-63.804912	0.000294	2.939343	0.995876	-0.000118
1436	1.4278e+02	-17.1797	-63.930063	0.000314	3.142056	1.064557	-0.000126
1437	1.4288e+02	-17.2134	-64.051177	0.000304	3.040699	1.030217	-0.000122
1438	1.4298e+02	-17.2567	-64.131920	0.000203	2.027133	0.686811	-0.000081
1439	1.4308e+02	-17.3000	-64.289368	0.000395	3.952909	1.339282	-0.000158
1440	1.4318e+02	-17.3337	-64.406445	0.000294	2.939343	0.995876	-0.000118
1441	1.4328e+02	-17.3738	-64.511411	0.000264	2.635273	0.892855	-0.000105
1442	1.4338e+02	-17.4172	-64.612339	0.000253	2.533916	0.858514	-0.000101
1443	1.4348e+02	-17.4541	-64.737490	0.000314	3.142056	1.064557	-0.000126
1444	1.4358e+02	-17.4958	-64.915124	0.000446	4.459693	1.510985	-0.000179
1445	1.4368e+02	-17.5311	-64.999904	0.000213	2.128490	0.721152	-0.000085
1446	1.4378e+02	-17.5647	-65.169464	0.000426	4.256979	1.442304	-0.000170
1447	1.4388e+02	-17.6145	-65.270392	0.000253	2.533916	0.858514	-0.000101
1448	1.4398e+02	-17.6514	-65.395543	0.000314	3.142056	1.064557	-0.000126
1449	1.4408e+02	-17.6947	-65.557029	0.000405	4.054266	1.373622	-0.000162
1450	1.4418e+02	-17.7332	-65.601437	0.000111	1.114923	0.377746	-0.000045
1451	1.4428e+02	-17.7733	-65.726588	0.000314	3.142056	1.064557	-0.000126
1452	1.4437e+02	-17.8214	-65.888074	0.000405	4.054266	1.373622	-0.000162
1453	1.4447e+02	-17.8535	-65.993039	0.000264	2.635273	0.892855	-0.000105
1454	1.4457e+02	-17.8856	-66.081856	0.000223	2.229846	0.755492	-0.000089
1455	1.4467e+02	-17.9289	-66.287750	0.000517	5.169189	1.751369	-0.000207
1456	1.4477e+02	-17.9738	-66.340233	0.000132	1.317636	0.446427	-0.000053
1457	1.4487e+02	-18.0075	-66.497681	0.000395	3.952909	1.339282	-0.000158
1458	1.4497e+02	-18.0524	-66.630907	0.000334	3.344769	1.133239	-0.000134
1459	1.4507e+02	-18.0909	-66.715687	0.000213	2.128490	0.721152	-0.000085
1460	1.4517e+02	-18.1326	-66.852949	0.000345	3.446126	1.167579	-0.000138
1461	1.4527e+02	-18.1776	-66.990212	0.000345	3.446126	1.167579	-0.000138
1462	1.4537e+02	-18.2113	-67.135549	0.000365	3.648839	1.236260	-0.000146
1463	1.4547e+02	-18.2562	-67.220329	0.000213	2.128490	0.721152	-0.000085
1464	1.4557e+02	-18.2866	-67.349517	0.000324	3.243413	1.098898	-0.000130
1465	1.4567e+02	-18.3396	-67.486780	0.000345	3.446126	1.167579	-0.000138
1466	1.4577e+02	-18.3701	-67.611931	0.000314	3.142056	1.064557	-0.000126
1467	1.4587e+02	-18.4102	-67.753231	0.000355	3.547483	1.201920	-0.000142
1468	1.4597e+02	-18.4471	-67.874345	0.000304	3.040699	1.030217	-0.000122
1469	1.4607e+02	-18.4904	-67.995459	0.000304	3.040699	1.030217	-0.000122
1470	1.4617e+02	-18.5241	-68.108498	0.000284	2.837986	0.961536	-0.000114
1471	1.4626e+02	-18.5642	-68.213464	0.000264	2.635273	0.892855	-0.000105
1472	1.4636e+02	-18.6091	-68.370912	0.000395	3.952909	1.339282	-0.000158
1473	1.4646e+02	-18.6556	-68.479915	0.000274	2.736630	0.927195	-0.000110
1474	1.4656e+02	-18.6925	-68.621215	0.000355	3.547483	1.201920	-0.000142
1475	1.4666e+02	-18.7294	-68.742329	0.000304	3.040699	1.030217	-0.000122
1476	1.4676e+02	-18.7743	-68.875554	0.000334	3.344769	1.133239	-0.000134
1477	1.4686e+02	-18.8128	-69.008780	0.000334	3.344769	1.133239	-0.000134
1478	1.4696e+02	-18.8449	-69.065300	0.000142	1.418993	0.480768	-0.000057
1479	1.4706e+02	-18.8866	-69.275231	0.000527	5.270546	1.785709	-0.000211
1480	1.4716e+02	-18.9267	-69.380196	0.000264	2.635273	0.892855	-0.000105
1481	1.4726e+02	-18.9765	-69.509385	0.000324	3.243413	1.098898	-0.000130
1482	1.4736e+02	-19.0118	-69.654721	0.000365	3.648839	1.236260	-0.000146
1483	1.4746e+02	-19.0471	-69.743538	0.000223	2.229846	0.755492	-0.000089
1484	1.4756e+02	-19.0840	-69.896950	0.000385	3.851553	1.304941	-0.000154
1485	1.4766e+02	-19.1289	-70.042286	0.000365	3.648839	1.236260	-0.000146
1486	1.4776e+02	-19.1626	-70.175512	0.000334	3.344769	1.133239	-0.000134
1487	1.4786e+02	-19.2011	-70.300663	0.000314	3.142056	1.064557	-0.000126
1488	1.4796e+02	-19.2492	-70.466186	0.000416	4.155623	1.407963	-0.000166
1489	1.4806e+02	-19.2925	-70.567114	0.000253	2.533916	0.858514	-0.000101
1490	1.4816e+02	-19.3374	-70.708414	0.000355	3.547483	1.201920	-0.000142
1491	1.4825e+02	-19.3759	-70.825491	0.000294	2.939343	0.995876	-0.000118
1492	1.4835e+02	-19.4048	-70.970828	0.000365	3.648839	1.236260	-0.000146
1493	1.4845e+02	-19.4497	-71.116165	0.000365	3.648839	1.236260	-0.000146
1494	1.4855e+02	-19.4770	-71.209019	0.000233	2.331203	0.789833	-0.000093
1495	1.4865e+02	-19.5380	-71.414913	0.000517	5.169189	1.751369	-0.000207
1496	1.4875e+02	-19.5604	-71.519878	0.000264	2.635273	0.892855	-0.000105
1497	1.4885e+02	-19.6117	-71.681364	0.000405	4.054266	1.373622	-0.000162
1498	1.4895e+02	-19.6406	-71.810552	0.000324	3.243413	1.098898	-0.000130
1499	1.4905e+02	-19.6807	-71.927629	0.000294	2.939343	0.995876	-0.000118
1500	1.4915e+02	-19.7256	-72.105263	0.000446	4.459693	1.510985	-0.000179
1501	1.4925e+02	-19.7722	-72.250600	0.000365	3.648839	1.236260	-0.000146
1502	1.4935e+02	-19.8043	-72.339417	0.000223	2.229846	0.755492	-0.000089
1503	1.4945e+02	-19.8379	-72.496865	0.000395	3.952909	1.339282	-0.000158
1504	1.4955e+02	-19.8909	-72.597793	0.000253	2.533916	0.858514	-0.000101
1505	1.4965e+02	-19.9214	-72.763316	0.000416	4.155623	1.407963	-0.000166
1506	1.4975e+02	-19.9518	-72.888467	0.000314	3.142056	1.064557	-0.000126
1507	1.4985e+02	-20.0032	-73.053990	0.000416	4.155623	1.407963	-0.000166
1508	1.4995e+02	-19.9775	-72.981321	0.000182	1.824420	0.618130	0.000073
1509	1.5005e+02	-19.9246	-72.965173	0.000041	0.405427	0.137362	0.000016
1510	1.5015e+02	-19.8813	-72.892504	0.000182	1.824420	0.618130	0.000073
1511	1.5025e+02	-19.8363	-72.840022	0.000132	1.317636	0.446427	0.000053
1512	1.5034e+02	-19.8010	-72.791576	0.000122	1.216280	0.412087	0.000049
1513	1.5044e+02	-19.7577	-72.698722	0.000233	2.331203	0.789833	0.000093
1514	1.5054e+02	-19.7128	-72.694685	0.000010	0.101357	0.034341	0.000004
1515	1.5064e+02	-19.6839	-72.601831	0.000233	2.331203	0.789833	0.000093
1516	1.5074e+02	-19.6406	-72.589719	0.000030	0.304070	0.103022	0.000012
1517	1.5084e+02	-19.6166	-72.500902	0.000223	2.229846	0.755492	0.000089
1518	1.5094e+02	-19.5716	-72.444382	0.000142	1.418993	0.480768	0.000057
1519	1.5104e+02	-19.5203	-72.367677	0.000193	1.925776	0.652471	0.000077
1520	1.5114e+02	-19.4882	-72.323268	0.000111	1.114923	0.377746	0.000045
1521	1.5124e+02	-19.4497	-72.250600	0.000182	1.824420	0.618130	0.000073
1522	1.5134e+02	-19.4160	-72.194080	0.000142	1.418993	0.480768	0.000057
1523	1.5144e+02	-19.3695	-72.165820	0.000071	0.709497	0.240384	0.000028
1524	1.5154e+02	-19.3262	-72.109300	0.000142	1.418993	0.480768	0.000057
1525	1.5164e+02	-19.2877	-71.968000	0.000355	3.547483	1.201920	0.000142
1526	1.5174e+02	-19.2460	-71.891295	0.000193	1.925776	0.652471	0.000077
1527	1.5184e+02	-19.2075	-71.883220	0.000020	0.202713	0.068681	0.000008
1528	1.5194e+02	-19.1658	-71.798441	0.000213	2.128490	0.721152	0.000085
1529	1.5204e+02	-19.1241	-71.705586	0.000233	2.331203	0.789833	0.000093
1530	1.5214e+02	-19.0968	-71.608695	0.000243	2.432560	0.824173	0.000097
1531	1.5224e+02	-19.0519	-71.548138	0.000152	1.520350	0.515108	0.000061
1532	1.5233e+02	-19.0086	-71.548138	0.000000	0.000000	0.000000	0.000000
1533	1.5243e+02	-18.9749	-71.443173	0.000264	2.635273	0.892855	0.000105
1534	1.5253e+02	-18.9348	-71.346281	0.000243	2.432560	0.824173	0.000097
1535	1.5263e+02	-18.8898	-71.285724	0.000152	1.520350	0.515108	0.000061
1536	1.5273e+02	-18.8497	-71.221130	0.000162	1.621706	0.549449	0.000065
1537	1.5283e+02	-18.8048	-71.112127	0.000274	2.736630	0.927195	0.000110
1538	1.5293e+02	-18.7759	-71.055608	0.000142	1.418993	0.480768	0.000057
1539	1.5303e+02	-18.7326	-70.930456	0.000314	3.142056	1.064557	0.000126
1540	1.5313e+02	-18.6989	-70.898159	0.000081	0.810853	0.274724	0.000032
1541	1.5323e+02	-18.6460	-70.781082	0.000294	2.939343	0.995876	0.000118
1542	1.5333e+02	-18.6107	-70.736674	0.000111	1.114923	0.377746	0.000045
1543	1.5343e+02	-18.5706	-70.611523	0.000314	3.142056	1.064557	0.000126
1544	1.5353e+02	-18.5305	-70.550966	0.000152	1.520350	0.515108	0.000061
1545	1.5363e+02	-18.4952	-70.425814	0.000314	3.142056	1.064557	0.000126
1546	1.5373e+02	-18.4455	-70.401592	0.000061	0.608140	0.206043	0.000024
1547	1.5383e+02	-18.4118	-70.320849	0.000203	2.027133	0.686811	0.000081
1548	1.5393e+02	-18.3749	-70.215883	0.000264	2.635273	0.892855	0.000105
1549	1.5403e+02	-18.3300	-70.106881	0.000274	2.736630	0.927195	0.000110
1550	1.5413e+02	-18.2850	-70.058435	0.000122	1.216280	0.412087	0.000049
1551	1.5422e+02	-18.2562	-69.953470	0.000264	2.635273	0.892855	0.000105
1552	1.5432e+02	-18.2129	-69.913098	0.000101	1.013566	0.343406	0.000041
1553	1.5442e+02	-18.1760	-69.820244	0.000233	2.331203	0.789833	0.000093
1554	1.5452e+02	-18.1262	-69.723353	0.000243	2.432560	0.824173	0.000097
1555	1.5462e+02	-18.0974	-69.618387	0.000264	2.635273	0.892855	0.000105
1556	1.5472e+02	-18.0524	-69.553793	0.000162	1.621706	0.549449	0.000065
1557	1.5482e+02	-18.0123	-69.464976	0.000223	2.229846	0.755492	0.000089
1558	1.5492e+02	-17.9770	-69.404419	0.000152	1.520350	0.515108	0.000061
1559	1.5502e+02	-17.9369	-69.303491	0.000253	2.533916	0.858514	0.000101
1560	1.5512e+02	-17.8856	-69.206599	0.000243	2.432560	0.824173	0.000097
1561	1.5522e+02	-17.8535	-69.137968	0.000172	1.723063	0.583790	0.000069
1562	1.5532e+02	-17.8150	-69.069337	0.000172	1.723063	0.583790	0.000069
1563	1.5542e+02	-17.7701	-68.948223	0.000304	3.040699	1.030217	0.000122
1564	1.5552e+02	-17.7236	-68.879591	0.000172	1.723063	0.583790	0.000069
1565	1.5562e+02	-17.6979	-68.806923	0.000182	1.824420	0.618130	0.000073
1566	1.5572e+02	-17.6514	-68.661586	0.000365	3.648839	1.236260	0.000146
1567	1.5582e+02	-17.6161	-68.596992	0.000162	1.621706	0.549449	0.000065
1568	1.5592e+02	-17.5808	-68.504138	0.000233	2.331203	0.789833	0.000093
1569	1.5602e+02	-17.5343	-68.427432	0.000193	1.925776	0.652471	0.000077
1570	1.5612e+02	-17.4974	-68.314392	0.000284	2.837986	0.961536	0.000114
1571	1.5622e+02	-17.4573	-68.253835	0.000152	1.520350	0.515108	0.000061
1572	1.5631e+02	-17.4043	-68.128684	0.000314	3.142056	1.064557	0.000126
1573	1.5641e+02	-17.3770	-68.076201	0.000132	1.317636	0.446427	0.000053
1574	1.5651e+02	-17.3385	-67.955087	0.000304	3.040699	1.030217	0.000122
1575	1.5661e+02	-17.2984	-67.890493	0.000162	1.621706	0.549449	0.000065
1576	1.5671e+02	-17.2535	-67.777453	0.000284	2.837986	0.961536	0.000114
1577	1.5681e+02	-17.2134	-67.724971	0.000132	1.317636	0.446427	0.000053
1578	1.5691e+02	-17.1813	-67.591745	0.000334	3.344769	1.133239	0.000134
1579	1.5701e+02	-17.1396	-67.531188	0.000152	1.520350	0.515108	0.000061
1580	1.5711e+02	-17.0947	-67.389888	0.000355	3.547483	1.201920	0.000142
1581	1.5721e+02	-17.0530	-67.276849	0.000284	2.837986	0.961536	0.000114
1582	1.5731e+02	-17.0129	-67.216291	0.000152	1.520350	0.515108	0.000061
1583	1.5741e+02	-16.9808	-67.095177	0.000304	3.040699	1.030217	0.000122
1584	1.5751e+02	-16.9359	-67.014435	0.000203	2.027133	0.686811	0.000081
1585	1.5761e+02	-16.8974	-66.897358	0.000294	2.939343	0.995876	0.000118
1586	1.5771e+02	-16.8573	-66.885246	0.000030	0.304070	0.103022	0.000012
1587	1.5781e+02	-16.8300	-66.731835	0.000385	3.851553	1.304941	0.000154
1588	1.5791e+02	-16.7706	-66.659167	0.000182	1.824420	0.618130	0.000073
1589	1.5801e+02	-16.7434	-66.546127	0.000284	2.837986	0.961536	0.000114
1590	1.5811e+02	-16.7001	-66.469421	0.000193	1.925776	0.652471	0.000077
1591	1.5821e+02	-16.6471	-66.384642	0.000213	2.128490	0.721152	0.000085
1592	1.5830e+02	-16.6182	-66.271602	0.000284	2.837986	0.961536	0.000114
1593	1.5840e+02	-16.5765	-66.211045	0.000152	1.520350	0.515108	0.000061
1594	1.5850e+02	-16.5412	-66.081856	0.000324	3.243413	1.098898	0.000130
1595	1.5860e+02	-16.4947	-65.997076	0.000213	2.128490	0.721152	0.000085
1596	1.5870e+02	-16.4610	-65.884037	0.000284	2.837986	0.961536	0.000114
1597	1.5880e+02	-16.4209	-65.766960	0.000294	2.939343	0.995876	0.000118
1598	1.5890e+02	-16.3808	-65.682180	0.000213	2.128490	0.721152	0.000085
1599	1.5900e+02	-16.3311	-65.585289	0.000243	2.432560	0.824173	0.000097
1600	1.5910e+02	-16.2958	-65.516657	0.000172	1.723063	0.583790	0.000069
1601	1.5920e+02	-16.2557	-65.407655	0.000274	2.736630	0.927195	0.000110
1602	1.5930e+02	-16.2124	-65.322875	0.000213	2.128490	0.721152	0.000085
1603	1.5940e+02	-16.1803	-65.209835	0.000284	2.837986	0.961536	0.000114
1604	1.5950e+02	-16.1386	-65.112944	0.000243	2.432560	0.824173	0.000097
1605	1.5960e+02	-16.0969	-65.036238	0.000193	1.925776	0.652471	0.000077
1606	1.5970e+02	-16.0680	-64.894938	0.000355	3.547483	1.201920	0.000142
1607	1.5980e+02	-16.0215	-64.810159	0.000213	2.128490	0.721152	0.000085
1608	1.5990e+02	-15.9798	-64.701156	0.000274	2.736630	0.927195	0.000110
1609	1.6000e+02	-15.9429	-64.580042	0.000304	3.040699	1.030217	0.000122
1610	1.6010e+02	-15.9044	-64.515448	0.000162	1.621706	0.549449	0.000065
1611	1.6019e+02	-15.8562	-64.442779	0.000182	1.824420	0.618130	0.000073
1612	1.6029e+02	-15.8209	-64.333777	0.000274	2.736630	0.927195	0.000110
1613	1.6039e+02	-15.7824	-64.212662	0.000304	3.040699	1.030217	0.000122
1614	1.6049e+02	-15.7359	-64.144031	0.000172	1.723063	0.583790	0.000069
1615	1.6059e+02	-15.7135	-64.030991	0.000284	2.837986	0.961536	0.000114
1616	1.6069e+02	-15.6653	-63.942174	0.000223	2.229846	0.755492	0.000089
1617	1.6079e+02	-15.6172	-63.812986	0.000324	3.243413	1.098898	0.000130
1618	1.6089e+02	-15.5771	-63.752429	0.000152	1.520350	0.515108	0.000061
1619	1.6099e+02	-15.5450	-63.623241	0.000324	3.243413	1.098898	0.000130
1620	1.6109e+02	-15.5065	-63.530387	0.000233	2.331203	0.789833	0.000093
1621	1.6119e+02	-15.4632	-63.433495	0.000243	2.432560	0.824173	0.000097
1622	1.6129e+02	-15.4215	-63.328530	0.000264	2.635273	0.892855	0.000105
1623	1.6139e+02	-15.3798	-63.235676	0.000233	2.331203	0.789833	0.000093
1624	1.6149e+02	-15.3525	-63.126673	0.000274	2.736630	0.927195	0.000110
1625	1.6159e+02	-15.3028	-63.021707	0.000264	2.635273	0.892855	0.000105
1626	1.6169e+02	-15.2579	-62.953076	0.000172	1.723063	0.583790	0.000069
1627	1.6179e+02	-15.2274	-62.831962	0.000304	3.040699	1.030217	0.000122
1628	1.6189e+02	-15.1841	-62.751219	0.000203	2.027133	0.686811	0.000081
1629	1.6199e+02	-15.1440	-62.626068	0.000314	3.142056	1.064557	0.000126
1630	1.6209e+02	-15.1006	-62.553400	0.000182	1.824420	0.618130	0.000073
1631	1.6219e+02	-15.0589	-62.436323	0.000294	2.939343	0.995876	0.000118
1632	1.6228e+02	-15.0268	-62.351543	0.000213	2.128490	0.721152	0.000085
1633	1.6238e+02	-14.9851	-62.198132	0.000385	3.851553	1.304941	0.000154
1634	1.6248e+02	-14.9402	-62.125463	0.000182	1.824420	0.618130	0.000073
1635	1.6258e+02	-14.9017	-61.996275	0.000324	3.243413	1.098898	0.000130
1636	1.6268e+02	-14.8616	-61.903421	0.000233	2.331203	0.789833	0.000093
1637	1.6278e+02	-14.8247	-61.814604	0.000223	2.229846	0.755492	0.000089
1638	1.6288e+02	-14.7878	-61.713675	0.000253	2.533916	0.858514	0.000101
1639	1.6298e+02	-14.7509	-61.584487	0.000324	3.243413	1.098898	0.000130
1640	1.6308e+02	-14.7076	-61.511819	0.000182	1.824420	0.618130	0.000073
1641	1.6318e+02	-14.6579	-61.366482	0.000365	3.648839	1.236260	0.000146
1642	1.6328e+02	-14.6194	-61.297850	0.000172	1.723063	0.583790	0.000069
1643	1.6338e+02	-14.5809	-61.200959	0.000243	2.432560	0.824173	0.000097
1644	1.6348e+02	-14.5552	-61.071771	0.000324	3.243413	1.098898	0.000130
1645	1.6358e+02	-14.5023	-60.966805	0.000264	2.635273	0.892855	0.000105
1646	1.6368e+02	-14.4734	-60.906248	0.000152	1.520350	0.515108	0.000061
1647	1.6378e+02	-14.4269	-60.732651	0.000436	4.358336	1.476644	0.000174
1648	1.6388e+02	-14.3836	-60.668057	0.000162	1.621706	0.549449	0.000065
1649	1.6398e+02	-14.3434	-60.583277	0.000213	2.128490	0.721152	0.000085
1650	1.6408e+02	-14.3098	-60.482349	0.000253	2.533916	0.858514	0.000101
1651	1.6418e+02	-14.2680	-60.397569	0.000213	2.128490	0.721152	0.000085
1652	1.6427e+02	-14.2263	-60.296641	0.000253	2.533916	0.858514	0.000101
1653	1.6437e+02	-14.1943	-60.155341	0.000355	3.547483	1.201920	0.000142
1654	1.6447e+02	-14.1509	-60.074598	0.000203	2.027133	0.686811	0.000081
1655	1.6457e+02	-14.1044	-59.941373	0.000334	3.344769	1.133239	0.000134
1656	1.6467e+02	-14.0707	-59.836407	0.000264	2.635273	0.892855	0.000105
1657	1.6477e+02	-14.0194	-59.743553	0.000233	2.331203	0.789833	0.000093
1658	1.6487e+02	-13.9921	-59.630513	0.000284	2.837986	0.961536	0.000114
1659	1.6497e+02	-13.9472	-59.553808	0.000193	1.925776	0.652471	0.000077
1660	1.6507e+02	-13.8991	-59.440768	0.000284	2.837986	0.961536	0.000114
1661	1.6517e+02	-13.8654	-59.347914	0.000233	2.331203	0.789833	0.000093
1662	1.6527e+02	-13.8333	-59.230837	0.000294	2.939343	0.995876	0.000118
1663	1.6537e+02	-13.7948	-59.125871	0.000264	2.635273	0.892855	0.000105
1664	1.6547e+02	-13.7451	-59.049166	0.000193	1.925776	0.652471	0.000077
1665	1.6557e+02	-13.7098	-58.903829	0.000365	3.648839	1.236260	0.000146
1666	1.6567e+02	-13.6681	-58.815012	0.000223	2.229846	0.755492	0.000089
1667	1.6577e+02	-13.6280	-58.714084	0.000253	2.533916	0.858514	0.000101
1668	1.6587e+02	-13.5911	-58.609118	0.000264	2.635273	0.892855	0.000105
1669	1.6597e+02	-13.5397	-58.496078	0.000284	2.837986	0.961536	0.000114
1670	1.6607e+02	-13.5125	-58.403224	0.000233	2.331203	0.789833	0.000093
1671	1.6616e+02	-13.4772	-58.290184	0.000284	2.837986	0.961536	0.000114
1672	1.6626e+02	-13.4242	-58.189256	0.000253	2.533916	0.858514	0.000101
1673	1.6636e+02	-13.3953	-58.092365	0.000243	2.432560	0.824173	0.000097
1674	1.6646e+02	-13.3488	-57.995473	0.000243	2.432560	0.824173	0.000097
1675	1.6656e+02	-13.3055	-57.894545	0.000253	2.533916	0.858514	0.000101
1676	1.6666e+02	-13.2558	-57.741134	0.000385	3.851553	1.304941	0.000154
1677	1.6676e+02	-13.2221	-57.632131	0.000274	2.736630	0.927195	0.000110
1678	1.6686e+02	-13.1852	-57.547351	0.000213	2.128490	0.721152	0.000085
1679	1.6696e+02	-13.1547	-57.450460	0.000243	2.432560	0.824173	0.000097
1680	1.6706e+02	-13.1034	-57.337420	0.000284	2.837986	0.961536	0.000114
1681	1.6716e+02	-13.0729	-57.236492	0.000253	2.533916	0.858514	0.000101
1682	1.6726e+02	-13.0376	-57.103266	0.000334	3.344769	1.133239	0.000134
1683	1.6736e+02	-12.9911	-57.010412	0.000233	2.331203	0.789833	0.000093
1684	1.6746e+02	-12.9542	-56.909484	0.000253	2.533916	0.858514	0.000101
1685	1.6756e+02	-12.9093	-56.784333	0.000314	3.142056	1.064557	0.000126
1686	1.6766e+02	-12.8740	-56.675330	0.000274	2.736630	0.927195	0.000110
1687	1.6776e+02	-12.8371	-56.574402	0.000253	2.533916	0.858514	0.000101
1688	1.6786e+02	-12.8002	-56.449250	0.000314	3.142056	1.064557	0.000126
1689	1.6796e+02	-12.7553	-56.352359	0.000243	2.432560	0.824173	0.000097
1690	1.6806e+02	-12.7248	-56.259505	0.000233	2.331203	0.789833	0.000093
1691	1.6816e+02	-12.6783	-56.154540	0.000264	2.635273	0.892855	0.000105
1692	1.6825e+02	-12.6349	-56.029388	0.000314	3.142056	1.064557	0.000126
1693	1.6835e+02	-12.6045	-55.920386	0.000274	2.736630	0.927195	0.000110
1694	1.6845e+02	-12.5467	-55.831569	0.000223	2.229846	0.755492	0.000089
1695	1.6855e+02	-12.5050	-55.670083	0.000405	4.054266	1.373622	0.000162
1696	1.6865e+02	-12.4777	-55.589341	0.000203	2.027133	0.686811	0.000081
1697	1.6875e+02	-12.4328	-55.484375	0.000264	2.635273	0.892855	0.000105
1698	1.6885e+02	-12.3991	-55.355187	0.000324	3.243413	1.098898	0.000130
1699	1.6895e+02	-12.3526	-55.270407	0.000213	2.128490	0.721152	0.000085
1700	1.6905e+02	-12.3221	-55.141218	0.000324	3.243413	1.098898	0.000130
1701	1.6915e+02	-12.2756	-54.991844	0.000375	3.750196	1.270601	0.000150
1702	1.6925e+02	-12.2371	-54.907065	0.000213	2.128490	0.721152	0.000085
1703	1.6935e+02	-12.1906	-54.846508	0.000152	1.520350	0.515108	0.000061
1704	1.6945e+02	-12.1617	-54.709245	0.000345	3.446126	1.167579	0.000138
1705	1.6955e+02	-12.1152	-54.576019	0.000334	3.344769	1.133239	0.000134
1706	1.6965e+02	-12.0815	-54.430683	0.000365	3.648839	1.236260	0.000146
1707	1.6975e+02	-12.0398	-54.358014	0.000182	1.824420	0.618130	0.000073
1708	1.6985e+02	-11.9900	-54.208640	0.000375	3.750196	1.270601	0.000150
1709	1.6995e+02	-11.9628	-54.119823	0.000223	2.229846	0.755492	0.000089
1710	1.7005e+02	-11.9227	-54.043118	0.000193	1.925776	0.652471	0.000077
1711	1.7015e+02	-11.8793	-53.893744	0.000375	3.750196	1.270601	0.000150
1712	1.7024e+02	-11.8408	-53.776667	0.000294	2.939343	0.995876	0.000118
1713	1.7034e+02	-11.7991	-53.691887	0.000213	2.128490	0.721152	0.000085
1714	1.7044e+02	-11.7510	-53.582884	0.000274	2.736630	0.927195	0.000110
1715	1.7054e+02	-11.7157	-53.433510	0.000375	3.750196	1.270601	0.000150
1716	1.7064e+02	-11.6772	-53.356804	0.000193	1.925776	0.652471	0.000077
1717	1.7074e+02	-11.6323	-53.223579	0.000334	3.344769	1.133239	0.000134
1718	1.7084e+02	-11.6034	-53.134762	0.000223	2.229846	0.755492	0.000089
1719	1.7094e+02	-11.5553	-53.001537	0.000334	3.344769	1.133239	0.000134
1720	1.7104e+02	-11.5184	-52.872348	0.000324	3.243413	1.098898	0.000130
1721	1.7114e+02	-11.4879	-52.803717	0.000172	1.723063	0.583790	0.000069
1722	1.7124e+02	-11.4446	-52.642231	0.000405	4.054266	1.373622	0.000162
1723	1.7134e+02	-11.3997	-52.529192	0.000284	2.837986	0.961536	0.000114
1724	1.7144e+02	-11.3692	-52.428263	0.000253	2.533916	0.858514	0.000101
1725	1.7154e+02	-11.3195	-52.315223	0.000284	2.837986	0.961536	0.000114
1726	1.7164e+02	-11.2697	-52.218332	0.000243	2.432560	0.824173	0.000097
1727	1.7174e+02	-11.2360	-52.137589	0.000203	2.027133	0.686811	0.000081
1728	1.7184e+02	-11.2056	-52.004364	0.000334	3.344769	1.133239	0.000134
1729	1.7194e+02	-11.1671	-51.867101	0.000345	3.446126	1.167579	0.000138
1730	1.7204e+02	-11.1077	-51.750024	0.000294	2.939343	0.995876	0.000118
1731	1.7213e+02	-11.0756	-51.620836	0.000324	3.243413	1.098898	0.000130
1732	1.7223e+02	-11.0451	-51.511833	0.000274	2.736630	0.927195	0.000110
1733	1.7233e+02	-11.0082	-51.382645	0.000324	3.243413	1.098898	0.000130
1734	1.7243e+02	-10.9633	-51.257494	0.000314	3.142056	1.064557	0.000126
1735	1.7253e+02	-10.9184	-51.140417	0.000294	2.939343	0.995876	0.000118
1736	1.7263e+02	-10.8815	-50.991043	0.000375	3.750196	1.270601	0.000150
1737	1.7273e+02	-10.8366	-50.922412	0.000172	1.723063	0.583790	0.000069
1738	1.7283e+02	-10.7933	-50.829558	0.000233	2.331203	0.789833	0.000093
1739	1.7293e+02	-10.7612	-50.664035	0.000416	4.155623	1.407963	0.000166
1740	1.7303e+02	-10.7259	-50.518698	0.000365	3.648839	1.236260	0.000146
1741	1.7313e+02	-10.6842	-50.450067	0.000172	1.723063	0.583790	0.000069
1742	1.7323e+02	-10.6377	-50.280507	0.000426	4.256979	1.442304	0.000170
1743	1.7333e+02	-10.5992	-50.171504	0.000274	2.736630	0.927195	0.000110
1744	1.7343e+02	-10.5591	-50.062502	0.000274	2.736630	0.927195	0.000110
1745	1.7353e+02	-10.5206	-49.973685	0.000223	2.229846	0.755492	0.000089
1746	1.7363e+02	-10.4869	-49.848534	0.000314	3.142056	1.064557	0.000126
1747	1.7373e+02	-10.4468	-49.654751	0.000487	4.865119	1.648347	0.000195
1748	1.7383e+02	-10.4034	-49.586120	0.000172	1.723063	0.583790	0.000069
1749	1.7393e+02	-10.3617	-49.424634	0.000405	4.054266	1.373622	0.000162
1750	1.7403e+02	-10.3264	-49.368114	0.000142	1.418993	0.480768	0.000057
1751	1.7413e+02	-10.2831	-49.226815	0.000355	3.547483	1.201920	0.000142
1752	1.7422e+02	-10.2478	-49.109738	0.000294	2.939343	0.995876	0.000118
1753	1.7432e+02	-10.2077	-48.956327	0.000385	3.851553	1.304941	0.000154
1754	1.7442e+02	-10.1740	-48.883658	0.000182	1.824420	0.618130	0.000073
1755	1.7452e+02	-10.1323	-48.710061	0.000436	4.358336	1.476644	0.000174
1756	1.7462e+02	-10.0890	-48.576836	0.000334	3.344769	1.133239	0.000134
1757	1.7472e+02	-10.0521	-48.496093	0.000203	2.027133	0.686811	0.000081
1758	1.7482e+02	-9.9944	-48.334608	0.000405	4.054266	1.373622	0.000162
1759	1.7492e+02	-9.9559	-48.245791	0.000223	2.229846	0.755492	0.000089
1760	1.7502e+02	-9.9206	-48.104491	0.000355	3.547483	1.201920	0.000142
1761	1.7512e+02	-9.8837	-47.991451	0.000284	2.837986	0.961536	0.000114
1762	1.7522e+02	-9.8516	-47.858226	0.000334	3.344769	1.133239	0.000134
1763	1.7532e+02	-9.8003	-47.769409	0.000223	2.229846	0.755492	0.000089
1764	1.7542e+02	-9.7714	-47.615997	0.000385	3.851553	1.304941	0.000154
1765	1.7552e+02	-9.7184	-47.494883	0.000304	3.040699	1.030217	0.000122
1766	1.7562e+02	-9.6831	-47.353584	0.000355	3.547483	1.201920	0.000142
1767	1.7572e+02	-9.6350	-47.216321	0.000345	3.446126	1.167579	0.000138
1768	1.7582e+02	-9.6142	-47.127504	0.000223	2.229846	0.755492	0.000089
1769	1.7592e+02	-9.5580	-47.002353	0.000314	3.142056	1.064557	0.000126
1770	1.7602e+02	-9.5307	-46.869127	0.000334	3.344769	1.133239	0.000134
1771	1.7612e+02	-9.4842	-46.719753	0.000375	3.750196	1.270601	0.000150
1772	1.7621e+02	-9.4313	-46.622862	0.000243	2.432560	0.824173	0.000097
1773	1.7631e+02	-9.4024	-46.489637	0.000334	3.344769	1.133239	0.000134
1774	1.7641e+02	-9.3703	-46.380634	0.000274	2.736630	0.927195	0.000110
1775	1.7651e+02	-9.3254	-46.247408	0.000334	3.344769	1.133239	0.000134
1776	1.7661e+02	-9.2821	-46.146480	0.000253	2.533916	0.858514	0.000101
1777	1.7671e+02	-9.2436	-46.005180	0.000355	3.547483	1.201920	0.000142
1778	1.7681e+02	-9.2099	-45.835621	0.000426	4.256979	1.442304	0.000170
1779	1.7691e+02	-9.1682	-45.686247	0.000375	3.750196	1.270601	0.000150
1780	1.7701e+02	-9.1297	-45.589355	0.000243	2.432560	0.824173	0.000097
1781	1.7711e+02	-9.0912	-45.468241	0.000304	3.040699	1.030217	0.000122
1782	1.7721e+02	-9.0511	-45.330979	0.000345	3.446126	1.167579	0.000138
1783	1.7731e+02	-8.9997	-45.193716	0.000345	3.446126	1.167579	0.000138
1784	1.7741e+02	-8.9709	-45.112973	0.000203	2.027133	0.686811	0.000081
1785	1.7751e+02	-8.9308	-45.012045	0.000253	2.533916	0.858514	0.000101
1786	1.7761e+02	-8.8907	-44.850559	0.000405	4.054266	1.373622	0.000162
1787	1.7771e+02	-8.8473	-44.725408	0.000314	3.142056	1.064557	0.000126
1788	1.7781e+02	-8.8024	-44.580071	0.000365	3.648839	1.236260	0.000146
1789	1.7791e+02	-8.7719	-44.434735	0.000365	3.648839	1.236260	0.000146
1790	1.7801e+02	-8.7254	-44.321695	0.000284	2.837986	0.961536	0.000114
1791	1.7810e+02	-8.6869	-44.172321	0.000375	3.750196	1.270601	0.000150
1792	1.7820e+02	-8.6468	-44.055244	0.000294	2.939343	0.995876	0.000118
1793	1.7830e+02	-8.6051	-43.986612	0.000172	1.723063	0.583790	0.000069
1794	1.7840e+02	-8.5682	-43.772644	0.000537	5.371902	1.820050	0.000215
1795	1.7850e+02	-8.5297	-43.667679	0.000264	2.635273	0.892855	0.000105
1796	1.7860e+02	-8.4928	-43.558676	0.000274	2.736630	0.927195	0.000110
1797	1.7870e+02	-8.4543	-43.425451	0.000334	3.344769	1.133239	0.000134
1798	1.7880e+02	-8.4126	-43.280114	0.000365	3.648839	1.236260	0.000146
1799	1.7890e+02	-8.3773	-43.126703	0.000385	3.851553	1.304941	0.000154
1800	1.7900e+02	-8.3292	-43.009626	0.000294	2.939343	0.995876	0.000118
1801	1.7910e+02	-8.2875	-42.872363	0.000345	3.446126	1.167579	0.000138
1802	1.7920e+02	-8.2442	-42.735100	0.000345	3.446126	1.167579	0.000138
1803	1.7930e+02	-8.2089	-42.626098	0.000274	2.736630	0.927195	0.000110
1804	1.7940e+02	-8.1639	-42.472687	0.000385	3.851553	1.304941	0.000154
1805	1.7950e+02	-8.1238	-42.327350	0.000365	3.648839	1.236260	0.000146
1806	1.7960e+02	-8.0869	-42.206236	0.000304	3.040699	1.030217	0.000122
1807	1.7970e+02	-8.0468	-42.105307	0.000253	2.533916	0.858514	0.000101
1808	1.7980e+02	-8.0147	-41.935747	0.000426	4.256979	1.442304	0.000170
1809	1.7990e+02	-7.9778	-41.782336	0.000385	3.851553	1.304941	0.000154
1810	1.8000e+02	-7.9345	-41.689482	0.000233	2.331203	0.789833	0.000093
1811	1.8009e+02	-7.8912	-41.519922	0.000426	4.256979	1.442304	0.000170
1812	1.8019e+02	-7.8447	-41.414957	0.000264	2.635273	0.892855	0.000105
1813	1.8029e+02	-7.8158	-41.245397	0.000426	4.256979	1.442304	0.000170
1814	1.8039e+02	-7.7693	-41.104098	0.000355	3.547483	1.201920	0.000142
1815	1.8049e+02	-7.7260	-40.974909	0.000324	3.243413	1.098898	0.000130
1816	1.8059e+02	-7.6875	-40.869944	0.000264	2.635273	0.892855	0.000105
1817	1.8069e+02	-7.6570	-40.724607	0.000365	3.648839	1.236260	0.000146
1818	1.8079e+02	-7.6169	-40.627715	0.000243	2.432560	0.824173	0.000097
1819	1.8089e+02	-7.5656	-40.466230	0.000405	4.054266	1.373622	0.000162
1820	1.8099e+02	-7.5367	-40.337042	0.000324	3.243413	1.098898	0.000130
1821	1.8109e+02	-7.4902	-40.199779	0.000345	3.446126	1.167579	0.000138
1822	1.8119e+02	-7.4452	-40.074628	0.000314	3.142056	1.064557	0.000126
1823	1.8129e+02	-7.4100	-39.913142	0.000405	4.054266	1.373622	0.000162
1824	1.8139e+02	-7.3650	-39.767806	0.000365	3.648839	1.236260	0.000146
1825	1.8149e+02	-7.3426	-39.666877	0.000253	2.533916	0.858514	0.000101
1826	1.8159e+02	-7.2896	-39.481169	0.000466	4.662406	1.579666	0.000187
1827	1.8169e+02	-7.2511	-39.424649	0.000142	1.418993	0.480768	0.000057
1828	1.8179e+02	-7.2174	-39.263164	0.000405	4.054266	1.373622	0.000162
1829	1.8189e+02	-7.1757	-39.125901	0.000345	3.446126	1.167579	0.000138
1830	1.8199e+02	-7.1324	-39.000750	0.000314	3.142056	1.064557	0.000126
1831	1.8209e+02	-7.0891	-38.847339	0.000385	3.851553	1.304941	0.000154
1832	1.8218e+02	-7.0506	-38.685853	0.000405	4.054266	1.373622	0.000162
1833	1.8228e+02	-7.0137	-38.564739	0.000304	3.040699	1.030217	0.000122
1834	1.8238e+02	-6.9768	-38.435551	0.000324	3.243413	1.098898	0.000130
1835	1.8248e+02	-6.9319	-38.270028	0.000416	4.155623	1.407963	0.000166
1836	1.8258e+02	-6.8934	-38.148914	0.000304	3.040699	1.030217	0.000122
1837	1.8268e+02	-6.8549	-38.027800	0.000304	3.040699	1.030217	0.000122
1838	1.8278e+02	-6.8132	-37.866315	0.000405	4.054266	1.373622	0.000162
1839	1.8288e+02	-6.7715	-37.753275	0.000284	2.837986	0.961536	0.000114
1840	1.8298e+02	-6.7394	-37.527195	0.000568	5.675972	1.923071	0.000227
1841	1.8308e+02	-6.6945	-37.450490	0.000193	1.925776	0.652471	0.000077
1842	1.8318e+02	-6.6624	-37.289004	0.000405	4.054266	1.373622	0.000162
1843	1.8328e+02	-6.6143	-37.135593	0.000385	3.851553	1.304941	0.000154
1844	1.8338e+02	-6.5822	-36.986219	0.000375	3.750196	1.270601	0.000150
1845	1.8348e+02	-6.5308	-36.881254	0.000264	2.635273	0.892855	0.000105
1846	1.8358e+02	-6.4955	-36.715731	0.000416	4.155623	1.407963	0.000166
1847	1.8368e+02	-6.4538	-36.622877	0.000233	2.331203	0.789833	0.000093
1848	1.8378e+02	-6.4169	-36.473503	0.000375	3.750196	1.270601	0.000150
1849	1.8388e+02	-6.3736	-36.287795	0.000466	4.662406	1.579666	0.000187
1850	1.8398e+02	-6.3383	-36.166681	0.000304	3.040699	1.030217	0.000122
1851	1.8407e+02	-6.2998	-36.037492	0.000324	3.243413	1.098898	0.000130
1852	1.8417e+02	-6.2613	-35.876007	0.000405	4.054266	1.373622	0.000162
1853	1.8427e+02	-6.2228	-35.730670	0.000365	3.648839	1.236260	0.000146
1854	1.8437e+02	-6.1827	-35.569184	0.000405	4.054266	1.373622	0.000162
1855	1.8447e+02	-6.1378	-35.439996	0.000324	3.243413	1.098898	0.000130
1856	1.8457e+02	-6.1057	-35.306771	0.000334	3.344769	1.133239	0.000134
1857	1.8467e+02	-6.0640	-35.165471	0.000355	3.547483	1.201920	0.000142
1858	1.8477e+02	-6.0159	-35.028208	0.000345	3.446126	1.167579	0.000138
1859	1.8487e+02	-5.9790	-34.814240	0.000537	5.371902	1.820050	0.000215
1860	1.8497e+02	-5.9533	-34.693126	0.000304	3.040699	1.030217	0.000122
1861	1.8507e+02	-5.9020	-34.539715	0.000385	3.851553	1.304941	0.000154
1862	1.8517e+02	-5.8554	-34.398415	0.000355	3.547483	1.201920	0.000142
1863	1.8527e+02	-5.8234	-34.253078	0.000365	3.648839	1.236260	0.000146
1864	1.8537e+02	-5.7849	-34.079481	0.000436	4.358336	1.476644	0.000174
1865	1.8547e+02	-5.7351	-33.998739	0.000203	2.027133	0.686811	0.000081
1866	1.8557e+02	-5.7014	-33.821105	0.000446	4.459693	1.510985	0.000179
1867	1.8567e+02	-5.6565	-33.663656	0.000395	3.952909	1.339282	0.000158
1868	1.8577e+02	-5.6244	-33.518319	0.000365	3.648839	1.236260	0.000146
1869	1.8587e+02	-5.5924	-33.360871	0.000395	3.952909	1.339282	0.000158
1870	1.8597e+02	-5.5458	-33.207460	0.000385	3.851553	1.304941	0.000154
1871	1.8606e+02	-5.5009	-33.058086	0.000375	3.750196	1.270601	0.000150
1872	1.8616e+02	-5.4704	-32.892563	0.000416	4.155623	1.407963	0.000166
1873	1.8626e+02	-5.4271	-32.739152	0.000385	3.851553	1.304941	0.000154
1874	1.8636e+02	-5.3790	-32.601890	0.000345	3.446126	1.167579	0.000138
1875	1.8646e+02	-5.3485	-32.452516	0.000375	3.750196	1.270601	0.000150
1876	1.8656e+02	-5.3036	-32.282956	0.000426	4.256979	1.442304	0.000170
1877	1.8666e+02	-5.2651	-32.125508	0.000395	3.952909	1.339282	0.000158
1878	1.8676e+02	-5.2314	-32.004394	0.000304	3.040699	1.030217	0.000122
1879	1.8686e+02	-5.1897	-31.842908	0.000405	4.054266	1.373622	0.000162
1880	1.8696e+02	-5.1480	-31.681423	0.000405	4.054266	1.373622	0.000162
1881	1.8706e+02	-5.0983	-31.556271	0.000314	3.142056	1.064557	0.000126
1882	1.8716e+02	-5.0678	-31.402860	0.000385	3.851553	1.304941	0.000154
1883	1.8726e+02	-5.0212	-31.237338	0.000416	4.155623	1.407963	0.000166
1884	1.8736e+02	-4.9795	-31.031444	0.000517	5.169189	1.751369	0.000207
1885	1.8746e+02	-4.9555	-30.910330	0.000304	3.040699	1.030217	0.000122
1886	1.8756e+02	-4.9090	-30.773067	0.000345	3.446126	1.167579	0.000138
1887	1.8766e+02	-4.8753	-30.599470	0.000436	4.358336	1.476644	0.000174
1888	1.8776e+02	-4.8336	-30.462208	0.000345	3.446126	1.167579	0.000138
1889	1.8786e+02	-4.7918	-30.260351	0.000507	5.067832	1.717028	0.000203
1890	1.8796e+02	-4.7533	-30.127125	0.000334	3.344769	1.133239	0.000134
1891	1.8806e+02	-4.7068	-30.010049	0.000294	2.939343	0.995876	0.000118
1892	1.8815e+02	-4.6619	-29.828377	0.000456	4.561049	1.545325	0.000183
1893	1.8825e+02	-4.6218	-29.670929	0.000395	3.952909	1.339282	0.000158
1894	1.8835e+02	-4.5945	-29.493295	0.000446	4.459693	1.510985	0.000179
1895	1.8845e+02	-4.5448	-29.356033	0.000345	3.446126	1.167579	0.000138
1896	1.8855e+02	-4.5031	-29.174361	0.000456	4.561049	1.545325	0.000183
1897	1.8865e+02	-4.4710	-29.049210	0.000314	3.142056	1.064557	0.000126
1898	1.8875e+02	-4.4229	-28.895799	0.000385	3.851553	1.304941	0.000154
1899	1.8885e+02	-4.3844	-28.681831	0.000537	5.371902	1.820050	0.000215
1900	1.8895e+02	-4.3523	-28.552643	0.000324	3.243413	1.098898	0.000130
1901	1.8905e+02	-4.3058	-28.358860	0.000487	4.865119	1.648347	0.000195
1902	1.8915e+02	-4.2753	-28.221597	0.000345	3.446126	1.167579	0.000138
1903	1.8925e+02	-4.2272	-28.048001	0.000436	4.358336	1.476644	0.000174
1904	1.8935e+02	-4.1790	-27.890552	0.000395	3.952909	1.339282	0.000158
1905	1.8945e+02	-4.1534	-27.725030	0.000416	4.155623	1.407963	0.000166
1906	1.8955e+02	-4.1133	-27.531247	0.000487	4.865119	1.648347	0.000195
1907	1.8965e+02	-4.0651	-27.345539	0.000466	4.662406	1.579666	0.000187
1908	1.8975e+02	-4.0330	-27.184053	0.000405	4.054266	1.373622	0.000162
1909	1.8985e+02	-3.9961	-27.034679	0.000375	3.750196	1.270601	0.000150
1910	1.8995e+02	-3.9496	-26.840897	0.000487	4.865119	1.648347	0.000195
1911	1.9004e+02	-3.9111	-26.659226	0.000456	4.561049	1.545325	0.000183
1912	1.9014e+02	-3.8598	-26.505815	0.000385	3.851553	1.304941	0.000154
1913	1.9024e+02	-3.8341	-26.307995	0.000497	4.966476	1.682688	0.000199
1914	1.9034e+02	-3.7924	-26.186881	0.000304	3.040699	1.030217	0.000122
1915	1.9044e+02	-3.7411	-25.980987	0.000517	5.169189	1.751369	0.000207
1916	1.9054e+02	-3.7106	-25.839687	0.000355	3.547483	1.201920	0.000142
1917	1.9064e+02	-3.6657	-25.682239	0.000395	3.952909	1.339282	0.000158
1918	1.9074e+02	-3.6400	-25.516716	0.000416	4.155623	1.407963	0.000166
1919	1.9084e+02	-3.5839	-25.310823	0.000517	5.169189	1.751369	0.000207
1920	1.9094e+02	-3.5486	-25.133189	0.000446	4.459693	1.510985	0.000179
1921	1.9104e+02	-3.5101	-24.935369	0.000497	4.966476	1.682688	0.000199
1922	1.9114e+02	-3.4844	-24.785995	0.000375	3.750196	1.270601	0.000150
1923	1.9124e+02	-3.4331	-24.644695	0.000355	3.547483	1.201920	0.000142
1924	1.9134e+02	-3.3913	-24.454950	0.000476	4.763762	1.614006	0.000191
1925	1.9144e+02	-3.3545	-24.257130	0.000497	4.966476	1.682688	0.000199
1926	1.9154e+02	-3.3159	-24.083533	0.000436	4.358336	1.476644	0.000174
1927	1.9164e+02	-3.2774	-23.926085	0.000395	3.952909	1.339282	0.000158
1928	1.9174e+02	-3.2325	-23.744414	0.000456	4.561049	1.545325	0.000183
1929	1.9184e+02	-3.1908	-23.570817	0.000436	4.358336	1.476644	0.000174
1930	1.9194e+02	-3.1587	-23.437592	0.000334	3.344769	1.133239	0.000134
1931	1.9203e+02	-3.1058	-23.219586	0.000547	5.473259	1.854390	0.000219
1932	1.9213e+02	-3.0737	-23.029841	0.000476	4.763762	1.614006	0.000191
1933	1.9223e+02	-3.0400	-22.836058	0.000487	4.865119	1.648347	0.000195
1934	1.9233e+02	-2.9823	-22.674573	0.000405	4.054266	1.373622	0.000162
1935	1.9243e+02	-2.9518	-22.533273	0.000355	3.547483	1.201920	0.000142
1936	1.9253e+02	-2.9165	-22.303156	0.000578	5.777329	1.957412	0.000231
1937	1.9263e+02	-2.8732	-22.097262	0.000517	5.169189	1.751369	0.000207
1938	1.9273e+02	-2.8315	-21.939814	0.000395	3.952909	1.339282	0.000158
1939	1.9283e+02	-2.7914	-21.786403	0.000385	3.851553	1.304941	0.000154
1940	1.9293e+02	-2.7497	-21.596658	0.000476	4.763762	1.614006	0.000191
1941	1.9303e+02	-2.7176	-21.414987	0.000456	4.561049	1.545325	0.000183
1942	1.9313e+02	-2.6807	-21.233315	0.000456	4.561049	1.545325	0.000183
1943	1.9323e+02	-2.6390	-21.003199	0.000578	5.777329	1.957412	0.000231
1944	1.9333e+02	-2.5924	-20.861899	0.000355	3.547483	1.201920	0.000142
1945	1.9343e+02	-2.5588	-20.712525	0.000375	3.750196	1.270601	0.000150
1946	1.9353e+02	-2.5138	-20.498557	0.000537	5.371902	1.820050	0.000215
1947	1.9363e+02	-2.4753	-20.276514	0.000557	5.574616	1.888731	0.000223
1948	1.9373e+02	-2.4320	-20.119066	0.000395	3.952909	1.339282	0.000158
1949	1.9383e+02	-2.3935	-19.913172	0.000517	5.169189	1.751369	0.000207
1950	1.9393e+02	-2.3582	-19.735538	0.000446	4.459693	1.510985	0.000179
1951	1.9403e+02	-2.3117	-19.533681	0.000507	5.067832	1.717028	0.000203
1952	1.9412e+02	-2.2780	-19.364122	0.000426	4.256979	1.442304	0.000170
1953	1.9422e+02	-2.2299	-19.142079	0.000557	5.574616	1.888731	0.000223
1954	1.9432e+02	-2.1850	-18.984631	0.000395	3.952909	1.339282	0.000158
1955	1.9442e+02	-2.1609	-18.802960	0.000456	4.561049	1.545325	0.000183
1956	1.9452e+02	-2.1240	-18.588992	0.000537	5.371902	1.820050	0.000215
1957	1.9462e+02	-2.0759	-18.399246	0.000476	4.763762	1.614006	0.000191
1958	1.9472e+02	-2.0310	-18.213538	0.000466	4.662406	1.579666	0.000187
1959	1.9482e+02	-1.9941	-18.056090	0.000395	3.952909	1.339282	0.000158
1960	1.9492e+02	-1.9572	-17.846159	0.000527	5.270546	1.785709	0.000211
1961	1.9502e+02	-1.9187	-17.648339	0.000497	4.966476	1.682688	0.000199
1962	1.9512e+02	-1.8753	-17.462631	0.000466	4.662406	1.579666	0.000187
1963	1.9522e+02	-1.8401	-17.244625	0.000547	5.473259	1.854390	0.000219
1964	1.9532e+02	-1.7967	-17.026620	0.000547	5.473259	1.854390	0.000219
1965	1.9542e+02	-1.7534	-16.865135	0.000405	4.054266	1.373622	0.000162
1966	1.9552e+02	-1.7085	-16.667315	0.000497	4.966476	1.682688	0.000199
1967	1.9562e+02	-1.6812	-16.449310	0.000547	5.473259	1.854390	0.000219
1968	1.9572e+02	-1.6363	-16.199007	0.000628	6.284112	2.129115	0.000252
1969	1.9582e+02	-1.5914	-16.065782	0.000334	3.344769	1.133239	0.000134
1970	1.9592e+02	-1.5609	-15.827591	0.000598	5.980042	2.026093	0.000239
1971	1.9601e+02	-1.5176	-15.674180	0.000385	3.851553	1.304941	0.000154
1972	1.9611e+02	-1.4727	-15.464248	0.000527	5.270546	1.785709	0.000211
1973	1.9621e+02	-1.4422	-15.242206	0.000557	5.574616	1.888731	0.000223
1974	1.9631e+02	-1.4037	-15.076683	0.000416	4.155623	1.407963	0.000166
1975	1.9641e+02	-1.3604	-14.826381	0.000628	6.284112	2.129115	0.000252
1976	1.9651e+02	-1.3203	-14.616450	0.000527	5.270546	1.785709	0.000211
1977	1.9661e+02	-1.2850	-14.414593	0.000507	5.067832	1.717028	0.000203
1978	1.9671e+02	-1.2385	-14.212736	0.000507	5.067832	1.717028	0.000203
1979	1.9681e+02	-1.1984	-14.010880	0.000507	5.067832	1.717028	0.000203
1980	1.9691e+02	-1.1615	-13.800949	0.000527	5.270546	1.785709	0.000211
1981	1.9701e+02	-1.1198	-13.599092	0.000507	5.067832	1.717028	0.000203
1982	1.9711e+02	-1.0845	-13.413383	0.000466	4.662406	1.579666	0.000187
1983	1.9721e+02	-1.0460	-13.207490	0.000517	5.169189	1.751369	0.000207
1984	1.9731e+02	-1.0059	-12.989484	0.000547	5.473259	1.854390	0.000219
1985	1.9741e+02	-0.9657	-12.791665	0.000497	4.966476	1.682688	0.000199
1986	1.9751e+02	-0.9240	-12.573659	0.000547	5.473259	1.854390	0.000219
1987	1.9761e+02	-0.8791	-12.379877	0.000487	4.865119	1.648347	0.000195
1988	1.9771e+02	-0.8406	-12.149760	0.000578	5.777329	1.957412	0.000231
1989	1.9781e+02	-0.8053	-11.927718	0.000557	5.574616	1.888731	0.000223
1990	1.9791e+02	-0.7588	-11.770269	0.000395	3.952909	1.339282	0.000158
1991	1.9800e+02	-0.7187	-11.519967	0.000628	6.284112	2.129115	0.000252
1992	1.9810e+02	-0.6786	-11.305999	0.000537	5.371902	1.820050	0.000215
1993	1.9820e+02	-0.6385	-11.100105	0.000517	5.169189	1.751369	0.000207
1994	1.9830e+02	-0.5920	-10.910359	0.000476	4.763762	1.614006	0.000191
1995	1.9840e+02	-0.5615	-10.696391	0.000537	5.371902	1.820050	0.000215
1996	1.9850e+02	-0.5246	-10.474349	0.000557	5.574616	1.888731	0.000223
1997	1.9860e+02	-0.4732	-10.252306	0.000557	5.574616	1.888731	0.000223
1998	1.9870e+02	-0.4444	-10.034301	0.000547	5.473259	1.854390	0.000219
1999	1.9880e+02	-0.4059	-9.872815	0.000405	4.054266	1.373622	0.000162
2000	1.9890e+02	-0.3626	-9.634624	0.000598	5.980042	2.026093	0.000239
2001	1.9900e+02	-0.3241	-9.404508	0.000578	5.777329	1.957412	0.000231
2002	1.9910e+02	-0.2775	-9.190540	0.000537	5.371902	1.820050	0.000215
2003	1.9920e+02	-0.2438	-8.984646	0.000517	5.169189	1.751369	0.000207
2004	1.9930e+02	-0.2053	-8.774715	0.000527	5.270546	1.785709	0.000211
2005	1.9940e+02	-0.1620	-8.540561	0.000588	5.878686	1.991753	0.000235
2006	1.9950e+02	-0.1315	-8.362927	0.000446	4.459693	1.510985	0.000179
2007	1.9960e+02	-0.0738	-8.104550	0.000649	6.486825	2.197796	0.000260
2008	1.9970e+02	-0.0449	-7.886545	0.000547	5.473259	1.854390	0.000219
2009	1.9980e+02	-0.0032	-7.684688	0.000547	5.473259	1.854390	0.000203

Center data before PMax,+/-Pr and +/-Vc Calc.

PMax (uC/cm2):	7.31e+01
Pr (uC/cm2):	2.99e+00
-Pr (uC/cm2):	-7.68e+00
PLoss (uC/cm2):	-3.10e+00
Vc:	8.74e-01
-Vc:	-5.54e-01
C (Max-Eff) (nF):	3.65e-01
K (Eff):	1.24e+03
Vert. (+/-Pr) Shift (uC/cm2):	-2.35e+00
Horiz. Shift (+/-Vc):	1.60e-01
Offset (uC/cm2):	4.56e+00

A (Loop Area - uC/cm2·Volts):	2.44e-02



Hysteresis Version: 5.48.1 - Radiant Technologies, Inc., 1999 - 9/12/24

