»»»»»»»»»»»»»»»»»»»»»»»»»»»»»»»»»»»» Hysteresis ««««««««««««««««««««««««««««««««««««
»»»  Executed Version:	5.48.1
»»»  Vision Version:	5.48.4 (R)
»»»  Vision Compiled:	9/18/24
»»»  Driver Version:	5.47.0
»»»  Windows Version:	Windows 8 or 8.1
»»»  Processor Information:	x86 (AMD or Intel) - 32 Processors
»»»  Tester Name:	PMF21124-494 (100V)
»»»  Tester S/N:	PMF21124-494
»»»  Internal Amp Type:	100V RevK 270k
»»»  Internal Amp S/N:	iAB2-596/K     
»»»  Execution Count:	1
»»»»»»»»»»»»»»»»»»»»»»»»»»»»»»»»»»»»»»»»»»««««««««««««««««««««««««««««««««««««««««««

Stored:	6/12/2025 - 10:28:35
Configured:	06/12/25 10:06:17 AM
Executed:	06/12/25 10:28:03 AM

»»»»»»»»»»»»»»»»»»»»»»»»»»»»»»»»»»» Sample Info ««««««««««««««««««««««««««««««««««««
Sample Name:	
Lot Name:	
Wafer Name:	
Die Row/Column:	0/0
Capacitor Number:	0
Sample Area (cm2):	1.00e-04
Sample Thickness (microns):	3.00e-01

Amplifier:	Internal

»»»»»»»»»»»»»»»»»»»»»»»»»»»»»»»»»»» Tester Info «««««««««««««««««««««««««««««««««««
Tester Name:	PMF21124-494 (100V)
Tester Serial Number:	PMF21124-494
Return Signal Amp. Level:	1.9 [Index: 2]

»»»»»»»»»»»»»»»»»»»»»»»»»»»»»»»» Hysteresis Info ««««««««««««««««««««««««««««««««««
Task Name:	Hyst-1390
Volts:	20.00
Field:	666.67 (kV/cm)
DCBias:	0.00
DCField:	0.00 (kV/cm)
Hysteresis Period (ms):	2.00e+02
Preset:	Enabled
Preset Delay (ms):	1.00e+03
Profile:	Standard Bipolar

»»»»»»»»»»»»»»»»»»»»»»»»»»»»»»»»»»»»»» Data «««««««««««««««««««««««««««««««««««««««
Points:	2009

Valid Data

Point	Time (ms)	Drive Voltage	Measured Polarization (uC/cm2)	Capacitance (uF)	Normalized Capacitance (uF/cm2)	Dielectric Constant	Instantaneous Current (mA)
   1	0.0000e+00	-0.0032	-1.635480	0.000137	1.368042	0.463505	0.000056
   2	9.9500e-02	0.0529	-1.579674	0.000137	1.368042	0.463505	0.000056
   3	1.9900e-01	0.0882	-1.493725	0.000211	2.106985	0.713866	0.000086
   4	2.9850e-01	0.1380	-1.410627	0.000204	2.037085	0.690183	0.000084
   5	3.9800e-01	0.1717	-1.320605	0.000221	2.206842	0.747698	0.000090
   6	4.9750e-01	0.2118	-1.237507	0.000204	2.037085	0.690183	0.000084
   7	5.9700e-01	0.2487	-1.145855	0.000225	2.246785	0.761231	0.000092
   8	6.9650e-01	0.2679	-1.058276	0.000215	2.146928	0.727399	0.000088
   9	7.9600e-01	0.3577	-0.972327	0.000211	2.106985	0.713866	0.000086
  10	8.9550e-01	0.3866	-0.888007	0.000207	2.067042	0.700333	0.000085
  11	9.9500e-01	0.4011	-0.802872	0.000209	2.087014	0.707099	0.000086
  12	1.0945e+00	0.4636	-0.714071	0.000218	2.176885	0.737549	0.000089
  13	1.1940e+00	0.4588	-0.626900	-0.000214	-2.136942	-0.724016	0.000088
  14	1.2935e+00	0.5134	-0.536877	0.000221	2.206842	0.747698	0.000090
  15	1.3930e+00	0.5486	-0.458260	0.000193	1.927242	0.652967	0.000079
  16	1.4925e+00	0.6305	-0.369460	0.000218	2.176885	0.737549	0.000089
  17	1.5920e+00	0.6144	-0.279437	-0.000221	-2.206842	-0.747698	0.000090
  18	1.6915e+00	0.6674	-0.193080	0.000212	2.116971	0.717249	0.000087
  19	1.7910e+00	0.6914	-0.110390	0.000203	2.027099	0.686800	0.000083
  20	1.8905e+00	0.7781	-0.023626	0.000213	2.126956	0.720632	0.000087
  21	1.9900e+00	0.8246	0.060694	0.000207	2.067042	0.700333	0.000085
  22	2.0895e+00	0.8486	0.150309	0.000220	2.196856	0.744315	0.000090
  23	2.1890e+00	0.9240	0.230556	0.000197	1.967185	0.666500	0.000081
  24	2.2885e+00	0.9337	0.313246	0.000203	2.027099	0.686800	0.000083
  25	2.3880e+00	0.9641	0.396344	0.000204	2.037085	0.690183	0.000084
  26	2.4875e+00	0.9850	0.483516	0.000214	2.136942	0.724016	0.000088
  27	2.5870e+00	1.0379	0.568243	0.000208	2.077028	0.703716	0.000085
  28	2.6865e+00	1.0861	0.648489	0.000197	1.967185	0.666500	0.000081
  29	2.7860e+00	1.1374	0.730773	0.000202	2.017114	0.683417	0.000083
  30	2.8855e+00	1.1727	0.816314	0.000210	2.096999	0.710483	0.000086
  31	2.9850e+00	1.1887	0.900227	0.000206	2.057056	0.696950	0.000084
  32	3.0845e+00	1.2240	0.983325	0.000204	2.037085	0.690183	0.000084
  33	3.1840e+00	1.3091	1.067645	0.000207	2.067042	0.700333	0.000085
  34	3.2835e+00	1.3315	1.149928	0.000202	2.017114	0.683417	0.000083
  35	3.3830e+00	1.3780	1.231397	0.000200	1.997142	0.676650	0.000082
  36	3.4825e+00	1.4085	1.316124	0.000208	2.077028	0.703716	0.000085
  37	3.5820e+00	1.4246	1.397185	0.000199	1.987156	0.673267	0.000081
  38	3.6815e+00	1.4550	1.477839	0.000198	1.977171	0.669884	0.000081
  39	3.7810e+00	1.5385	1.564195	0.000212	2.116971	0.717249	0.000087
  40	3.8805e+00	1.5561	1.648108	0.000206	2.057056	0.696950	0.000084
  41	3.9800e+00	1.5770	1.726725	0.000193	1.927242	0.652967	0.000079
  42	4.0795e+00	1.6315	1.806157	0.000195	1.947214	0.659734	0.000080
  43	4.1790e+00	1.6684	1.896180	0.000221	2.206842	0.747698	0.000090
  44	4.2785e+00	1.7053	1.970316	0.000182	1.817399	0.615752	0.000075
  45	4.3780e+00	1.7486	2.054636	0.000207	2.067042	0.700333	0.000085
  46	4.4775e+00	1.8016	2.134475	0.000196	1.957199	0.663117	0.000080
  47	4.5770e+00	1.8417	2.216758	0.000202	2.017114	0.683417	0.000083
  48	4.6765e+00	1.8946	2.300671	0.000206	2.057056	0.696950	0.000084
  49	4.7760e+00	1.9507	2.376436	0.000186	1.857342	0.629285	0.000076
  50	4.8755e+00	1.9363	2.452610	-0.000187	-1.867328	-0.632668	0.000077
  51	4.9750e+00	1.9844	2.536929	0.000207	2.067042	0.700333	0.000085
  52	5.0745e+00	2.0454	2.618398	0.000200	1.997142	0.676650	0.000082
  53	5.1740e+00	2.1031	2.701088	0.000203	2.027099	0.686800	0.000083
  54	5.2735e+00	2.1384	2.771966	0.000174	1.737514	0.588686	0.000071
  55	5.3730e+00	2.1625	2.855879	0.000206	2.057056	0.696950	0.000084
  56	5.4725e+00	2.2427	2.937754	0.000201	2.007128	0.680033	0.000082
  57	5.5720e+00	2.2459	3.016779	0.000194	1.937228	0.656351	0.000079
  58	5.6715e+00	2.2588	3.097840	0.000199	1.987156	0.673267	0.000081
  59	5.7710e+00	2.3165	3.169532	0.000176	1.757485	0.595452	0.000072
  60	5.8705e+00	2.3470	3.252223	0.000203	2.027099	0.686800	0.000083
  61	5.9700e+00	2.3935	3.327989	0.000186	1.857342	0.629285	0.000076
  62	6.0695e+00	2.4641	3.406606	0.000193	1.927242	0.652967	0.000079
  63	6.1690e+00	2.4834	3.486038	0.000195	1.947214	0.659734	0.000080
  64	6.2685e+00	2.5331	3.565877	0.000196	1.957199	0.663117	0.000080
  65	6.3680e+00	2.5748	3.642864	0.000189	1.887299	0.639434	0.000077
  66	6.4675e+00	2.5716	3.721889	-0.000194	-1.937228	-0.656351	0.000079
  67	6.5670e+00	2.6069	3.799284	0.000190	1.897285	0.642818	0.000078
  68	6.6665e+00	2.6823	3.877901	0.000193	1.927242	0.652967	0.000079
  69	6.7660e+00	2.7176	3.954889	0.000189	1.887299	0.639434	0.000077
  70	6.8655e+00	2.7561	4.033506	0.000193	1.927242	0.652967	0.000079
  71	6.9650e+00	2.7833	4.111308	0.000191	1.907271	0.646201	0.000078
  72	7.0645e+00	2.8074	4.187481	0.000187	1.867328	0.632668	0.000077
  73	7.1640e+00	2.8876	4.259174	0.000176	1.757485	0.595452	0.000072
  74	7.2635e+00	2.9245	4.339828	0.000198	1.977171	0.669884	0.000081
  75	7.3630e+00	2.9951	4.417223	0.000190	1.897285	0.642818	0.000078
  76	7.4625e+00	3.0144	4.491766	0.000183	1.827385	0.619135	0.000075
  77	7.5620e+00	3.0192	4.566310	0.000183	1.827385	0.619135	0.000075
  78	7.6615e+00	3.0801	4.642076	0.000186	1.857342	0.629285	0.000076
  79	7.7610e+00	3.1186	4.720285	0.000192	1.917256	0.649584	0.000079
  80	7.8605e+00	3.1523	4.797273	0.000189	1.887299	0.639434	0.000077
  81	7.9600e+00	3.2020	4.867336	0.000172	1.717542	0.581919	0.000070
  82	8.0595e+00	3.2518	4.936992	0.000171	1.707557	0.578536	0.000070
  83	8.1590e+00	3.2694	5.016016	0.000194	1.937228	0.656351	0.000079
  84	8.2585e+00	3.2935	5.082413	0.000163	1.627671	0.551470	0.000067
  85	8.3580e+00	3.3368	5.152069	0.000171	1.707557	0.578536	0.000070
  86	8.4575e+00	3.4106	5.228242	0.000187	1.867328	0.632668	0.000077
  87	8.5570e+00	3.4122	5.303600	0.000185	1.847357	0.625901	0.000076
  88	8.6565e+00	3.5085	5.369590	0.000162	1.617685	0.548087	0.000066
  89	8.7560e+00	3.4988	5.444541	-0.000184	-1.837371	-0.622518	0.000075
  90	8.8555e+00	3.5438	5.512974	0.000168	1.677599	0.568386	0.000069
  91	8.9550e+00	3.5871	5.579778	0.000164	1.637657	0.554853	0.000067
  92	9.0545e+00	3.6400	5.654729	0.000184	1.837371	0.622518	0.000075
  93	9.1540e+00	3.6641	5.728866	0.000182	1.817399	0.615752	0.000075
  94	9.2535e+00	3.7379	5.794448	0.000161	1.607699	0.544703	0.000066
  95	9.3530e+00	3.7651	5.864103	0.000171	1.707557	0.578536	0.000070
  96	9.4525e+00	3.8084	5.940276	0.000187	1.867328	0.632668	0.000077
  97	9.5520e+00	3.8373	6.011154	0.000174	1.737514	0.588686	0.000071
  98	9.6515e+00	3.8582	6.075514	0.000158	1.577742	0.534554	0.000065
  99	9.7510e+00	3.9159	6.149243	0.000181	1.807414	0.612368	0.000074
 100	9.8505e+00	3.9528	6.220121	0.000174	1.737514	0.588686	0.000071
 101	9.9500e+00	3.9994	6.288962	0.000169	1.687585	0.571769	0.000069
 102	1.0050e+01	4.0507	6.361061	0.000177	1.767471	0.598835	0.000072
 103	1.0149e+01	4.0748	6.431124	0.000172	1.717542	0.581919	0.000070
 104	1.0248e+01	4.1213	6.503224	0.000177	1.767471	0.598835	0.000072
 105	1.0348e+01	4.1566	6.579804	0.000188	1.877314	0.636051	0.000077
 106	1.0447e+01	4.1967	6.648238	0.000168	1.677599	0.568386	0.000069
 107	1.0547e+01	4.2159	6.723189	0.000184	1.837371	0.622518	0.000075
 108	1.0646e+01	4.3058	6.795288	0.000177	1.767471	0.598835	0.000072
 109	1.0746e+01	4.3009	6.870647	-0.000185	-1.847357	-0.625901	0.000076
 110	1.0845e+01	4.3539	6.943968	0.000180	1.797428	0.608985	0.000074
 111	1.0945e+01	4.4213	7.012809	0.000169	1.687585	0.571769	0.000069
 112	1.1044e+01	4.4213	7.082465	-0.000171	-1.707557	-0.578536	0.000070
 113	1.1144e+01	4.4838	7.155787	0.000180	1.797428	0.608985	0.000074
 114	1.1243e+01	4.5175	7.228294	0.000178	1.777457	0.602219	0.000073
 115	1.1343e+01	4.5544	7.300801	0.000178	1.777457	0.602219	0.000073
 116	1.1443e+01	4.5737	7.371271	0.000173	1.727528	0.585302	0.000071
 117	1.1542e+01	4.6250	7.441334	0.000172	1.717542	0.581919	0.000070
 118	1.1642e+01	4.6667	7.515063	0.000181	1.807414	0.612368	0.000074
 119	1.1741e+01	4.7036	7.586348	0.000175	1.747499	0.592069	0.000072
 120	1.1841e+01	4.7325	7.654374	0.000167	1.667614	0.565003	0.000068
 121	1.1940e+01	4.7742	7.728510	0.000182	1.817399	0.615752	0.000075
 122	1.2040e+01	4.8239	7.797351	0.000169	1.687585	0.571769	0.000069
 123	1.2139e+01	4.8945	7.871080	0.000181	1.807414	0.612368	0.000074
 124	1.2239e+01	4.9170	7.942365	0.000175	1.747499	0.592069	0.000072
 125	1.2338e+01	4.9523	8.012021	0.000171	1.707557	0.578536	0.000070
 126	1.2438e+01	5.0293	8.085342	0.000180	1.797428	0.608985	0.000074
 127	1.2537e+01	5.0341	8.150517	0.000160	1.597714	0.541320	0.000066
 128	1.2636e+01	5.0646	8.226283	0.000186	1.857342	0.629285	0.000076
 129	1.2736e+01	5.0934	8.296753	0.000173	1.727528	0.585302	0.000071
 130	1.2835e+01	5.1688	8.365594	0.000169	1.687585	0.571769	0.000069
 131	1.2935e+01	5.1993	8.436879	0.000175	1.747499	0.592069	0.000072
 132	1.3034e+01	5.2234	8.508571	0.000176	1.757485	0.595452	0.000072
 133	1.3134e+01	5.2651	8.581078	0.000178	1.777457	0.602219	0.000073
 134	1.3233e+01	5.3116	8.647475	0.000163	1.627671	0.551470	0.000067
 135	1.3333e+01	5.3485	8.720797	0.000180	1.797428	0.608985	0.000074
 136	1.3432e+01	5.3966	8.790452	0.000171	1.707557	0.578536	0.000070
 137	1.3532e+01	5.4400	8.858886	0.000168	1.677599	0.568386	0.000069
 138	1.3632e+01	5.4688	8.929763	0.000174	1.737514	0.588686	0.000071
 139	1.3731e+01	5.5073	8.999012	0.000170	1.697571	0.575153	0.000070
 140	1.3831e+01	5.5506	9.069482	0.000173	1.727528	0.585302	0.000071
 141	1.3930e+01	5.5763	9.140767	0.000175	1.747499	0.592069	0.000072
 142	1.4030e+01	5.6276	9.208793	0.000167	1.667614	0.565003	0.000068
 143	1.4129e+01	5.6501	9.280485	0.000176	1.757485	0.595452	0.000072
 144	1.4229e+01	5.7496	9.346475	0.000162	1.617685	0.548087	0.000066
 145	1.4328e+01	5.7672	9.418982	0.000178	1.777457	0.602219	0.000073
 146	1.4428e+01	5.7801	9.491896	0.000179	1.787442	0.605602	0.000073
 147	1.4527e+01	5.8186	9.556664	0.000159	1.587728	0.537937	0.000065
 148	1.4627e+01	5.8667	9.628356	0.000176	1.757485	0.595452	0.000072
 149	1.4726e+01	5.9196	9.695975	0.000166	1.657628	0.561620	0.000068
 150	1.4825e+01	5.9373	9.762372	0.000163	1.627671	0.551470	0.000067
 151	1.4925e+01	5.9661	9.828361	0.000162	1.617685	0.548087	0.000066
 152	1.5024e+01	6.0415	9.898424	0.000172	1.717542	0.581919	0.000070
 153	1.5124e+01	6.0640	9.968894	0.000173	1.727528	0.585302	0.000071
 154	1.5223e+01	6.1234	10.035698	0.000164	1.637657	0.554853	0.000067
 155	1.5323e+01	6.1426	10.104132	0.000168	1.677599	0.568386	0.000069
 156	1.5422e+01	6.1988	10.166455	0.000153	1.527814	0.517637	0.000063
 157	1.5522e+01	6.2276	10.243850	0.000190	1.897285	0.642818	0.000078
 158	1.5621e+01	6.2886	10.311062	0.000165	1.647642	0.558236	0.000068
 159	1.5721e+01	6.2998	10.377051	0.000162	1.617685	0.548087	0.000066
 160	1.5820e+01	6.3367	10.445892	0.000169	1.687585	0.571769	0.000069
 161	1.5920e+01	6.3736	10.512697	0.000164	1.637657	0.554853	0.000067
 162	1.6020e+01	6.4298	10.582352	0.000171	1.707557	0.578536	0.000070
 163	1.6119e+01	6.4795	10.647120	0.000159	1.587728	0.537937	0.000065
 164	1.6218e+01	6.5116	10.713109	0.000162	1.617685	0.548087	0.000066
 165	1.6318e+01	6.5565	10.781135	0.000167	1.667614	0.565003	0.000068
 166	1.6418e+01	6.6014	10.852828	0.000176	1.757485	0.595452	0.000072
 167	1.6517e+01	6.5886	10.922891	-0.000172	-1.717542	-0.581919	0.000070
 168	1.6616e+01	6.6672	10.990509	0.000166	1.657628	0.561620	0.000068
 169	1.6716e+01	6.6913	11.056092	0.000161	1.607699	0.544703	0.000066
 170	1.6816e+01	6.7362	11.131043	0.000184	1.837371	0.622518	0.000075
 171	1.6915e+01	6.7747	11.198661	0.000166	1.657628	0.561620	0.000068
 172	1.7015e+01	6.8324	11.267502	0.000169	1.687585	0.571769	0.000069
 173	1.7114e+01	6.8485	11.331048	0.000156	1.557771	0.527787	0.000064
 174	1.7213e+01	6.9207	11.405999	0.000184	1.837371	0.622518	0.000075
 175	1.7313e+01	6.9608	11.475654	0.000171	1.707557	0.578536	0.000070
 176	1.7413e+01	7.0009	11.548569	0.000179	1.787442	0.605602	0.000073
 177	1.7512e+01	7.0362	11.614151	0.000161	1.607699	0.544703	0.000066
 178	1.7611e+01	7.0378	11.685843	0.000176	1.757485	0.595452	0.000072
 179	1.7711e+01	7.0827	11.749796	0.000157	1.567757	0.531170	0.000064
 180	1.7811e+01	7.1276	11.820674	0.000174	1.737514	0.588686	0.000071
 181	1.7910e+01	7.1453	11.885848	0.000160	1.597714	0.541320	0.000066
 182	1.8009e+01	7.2190	11.953060	0.000165	1.647642	0.558236	0.000068
 183	1.8109e+01	7.2688	12.022715	0.000171	1.707557	0.578536	0.000070
 184	1.8209e+01	7.2704	12.088298	0.000161	1.607699	0.544703	0.000066
 185	1.8308e+01	7.3185	12.153880	0.000161	1.607699	0.544703	0.000066
 186	1.8407e+01	7.3763	12.214166	0.000148	1.477885	0.500721	0.000061
 187	1.8507e+01	7.4533	12.286673	0.000178	1.777457	0.602219	0.000073
 188	1.8607e+01	7.4420	12.349811	-0.000155	-1.547785	-0.524404	0.000063
 189	1.8706e+01	7.4934	12.415394	0.000161	1.607699	0.544703	0.000066
 190	1.8805e+01	7.5415	12.480568	0.000160	1.597714	0.541320	0.000066
 191	1.8905e+01	7.5736	12.541670	0.000150	1.497857	0.507488	0.000061
 192	1.9005e+01	7.6345	12.603993	0.000153	1.527814	0.517637	0.000063
 193	1.9104e+01	7.6730	12.669168	0.000160	1.597714	0.541320	0.000066
 194	1.9203e+01	7.7003	12.731084	0.000152	1.517828	0.514254	0.000062
 195	1.9303e+01	7.7388	12.795852	0.000159	1.587728	0.537937	0.000065
 196	1.9402e+01	7.7821	12.856546	0.000149	1.487871	0.504104	0.000061
 197	1.9502e+01	7.8319	12.920091	0.000156	1.557771	0.527787	0.000064
 198	1.9602e+01	7.8688	12.983636	0.000156	1.557771	0.527787	0.000064
 199	1.9701e+01	7.8896	13.045145	0.000151	1.507842	0.510871	0.000062
 200	1.9800e+01	7.9442	13.106247	0.000150	1.497857	0.507488	0.000061
 201	1.9900e+01	7.9778	13.170607	0.000158	1.577742	0.534554	0.000065
 202	2.0000e+01	8.0196	13.228449	0.000142	1.417971	0.480422	0.000058
 203	2.0099e+01	8.0565	13.294439	0.000162	1.617685	0.548087	0.000066
 204	2.0198e+01	8.0805	13.352689	0.000143	1.427957	0.483805	0.000059
 205	2.0298e+01	8.1351	13.415420	0.000154	1.537799	0.521021	0.000063
 206	2.0398e+01	8.1784	13.475706	0.000148	1.477885	0.500721	0.000061
 207	2.0497e+01	8.1880	13.538844	0.000155	1.547785	0.524404	0.000063
 208	2.0596e+01	8.2490	13.595058	0.000138	1.378028	0.466889	0.000056
 209	2.0696e+01	8.3051	13.659825	0.000159	1.587728	0.537937	0.000065
 210	2.0796e+01	8.3564	13.720927	0.000150	1.497857	0.507488	0.000061
 211	2.0895e+01	8.3532	13.784879	-0.000157	-1.567757	-0.531170	0.000064
 212	2.0994e+01	8.4270	13.845573	0.000149	1.487871	0.504104	0.000061
 213	2.1094e+01	8.4527	13.899343	0.000132	1.318114	0.446589	0.000054
 214	2.1194e+01	8.4848	13.962888	0.000156	1.557771	0.527787	0.000064
 215	2.1293e+01	8.5329	14.021545	0.000144	1.437942	0.487188	0.000059
 216	2.1392e+01	8.5746	14.083461	0.000152	1.517828	0.514254	0.000062
 217	2.1492e+01	8.6083	14.139267	0.000137	1.368042	0.463505	0.000056
 218	2.1591e+01	8.6548	14.200369	0.000150	1.497857	0.507488	0.000061
 219	2.1691e+01	8.6949	14.259841	0.000146	1.457914	0.493955	0.000060
 220	2.1791e+01	8.7415	14.319720	0.000147	1.467900	0.497338	0.000060
 221	2.1890e+01	8.7719	14.377563	0.000142	1.417971	0.480422	0.000058
 222	2.1989e+01	8.8425	14.438257	0.000149	1.487871	0.504104	0.000061
 223	2.2089e+01	8.8586	14.494877	0.000139	1.388014	0.470272	0.000057
 224	2.2189e+01	8.9067	14.556386	0.000151	1.507842	0.510871	0.000062
 225	2.2288e+01	8.9420	14.614636	0.000143	1.427957	0.483805	0.000059
 226	2.2387e+01	9.0094	14.671664	0.000140	1.398000	0.473655	0.000057
 227	2.2487e+01	9.0350	14.729099	0.000141	1.407985	0.477038	0.000058
 228	2.2587e+01	9.0639	14.788979	0.000147	1.467900	0.497338	0.000060
 229	2.2686e+01	9.0816	14.847636	0.000144	1.437942	0.487188	0.000059
 230	2.2785e+01	9.1201	14.905071	0.000141	1.407985	0.477038	0.000058
 231	2.2885e+01	9.1714	14.961285	0.000138	1.378028	0.466889	0.000056
 232	2.2985e+01	9.2308	15.020757	0.000146	1.457914	0.493955	0.000060
 233	2.3084e+01	9.2580	15.078599	0.000142	1.417971	0.480422	0.000058
 234	2.3183e+01	9.3062	15.138479	0.000147	1.467900	0.497338	0.000060
 235	2.3283e+01	9.3398	15.195507	0.000140	1.398000	0.473655	0.000057
 236	2.3383e+01	9.3735	15.252942	0.000141	1.407985	0.477038	0.000058
 237	2.3482e+01	9.4297	15.314043	0.000150	1.497857	0.507488	0.000061
 238	2.3581e+01	9.4489	15.368627	0.000134	1.338085	0.453356	0.000055
 239	2.3681e+01	9.4922	15.424433	0.000137	1.368042	0.463505	0.000056
 240	2.3780e+01	9.5243	15.484312	0.000147	1.467900	0.497338	0.000060
 241	2.3880e+01	9.5885	15.542970	0.000144	1.437942	0.487188	0.000059
 242	2.3980e+01	9.6270	15.597146	0.000133	1.328100	0.449972	0.000054
 243	2.4079e+01	9.6575	15.657026	0.000147	1.467900	0.497338	0.000060
 244	2.4178e+01	9.7136	15.709573	0.000129	1.288157	0.436439	0.000053
 245	2.4278e+01	9.7072	15.768638	-0.000145	-1.447928	-0.490571	0.000059
 246	2.4378e+01	9.7810	15.822407	0.000132	1.318114	0.446589	0.000054
 247	2.4477e+01	9.8147	15.883101	0.000149	1.487871	0.504104	0.000061
 248	2.4576e+01	9.8356	15.936055	0.000130	1.298142	0.439823	0.000053
 249	2.4676e+01	9.8949	15.989825	0.000132	1.318114	0.446589	0.000054
 250	2.4776e+01	9.9126	16.045630	0.000137	1.368042	0.463505	0.000056
 251	2.4875e+01	9.9719	16.098992	0.000131	1.308128	0.443206	0.000054
 252	2.4974e+01	10.0040	16.149503	0.000124	1.238228	0.419523	0.000051
 253	2.5074e+01	10.0425	16.208567	0.000145	1.447928	0.490571	0.000059
 254	2.5174e+01	10.0938	16.261929	0.000131	1.308128	0.443206	0.000054
 255	2.5273e+01	10.1500	16.315699	0.000132	1.318114	0.446589	0.000054
 256	2.5372e+01	10.1965	16.367024	0.000126	1.258200	0.426290	0.000052
 257	2.5472e+01	10.2174	16.421200	0.000133	1.328100	0.449972	0.000054
 258	2.5572e+01	10.2863	16.472525	0.000126	1.258200	0.426290	0.000052
 259	2.5671e+01	10.2912	16.525073	0.000129	1.288157	0.436439	0.000053
 260	2.5770e+01	10.3281	16.576398	0.000126	1.258200	0.426290	0.000052
 261	2.5870e+01	10.3569	16.631796	0.000136	1.358057	0.460122	0.000056
 262	2.5970e+01	10.4179	16.689639	0.000142	1.417971	0.480422	0.000058
 263	2.6069e+01	10.4516	16.738927	0.000121	1.208271	0.409373	0.000050
 264	2.6169e+01	10.4885	16.794326	0.000136	1.358057	0.460122	0.000056
 265	2.6268e+01	10.5334	16.849725	0.000136	1.358057	0.460122	0.000056
 266	2.6367e+01	10.5799	16.899420	0.000122	1.218257	0.412757	0.000050
 267	2.6467e+01	10.6120	16.953190	0.000132	1.318114	0.446589	0.000054
 268	2.6567e+01	10.6649	17.008181	0.000135	1.348071	0.456739	0.000055
 269	2.6666e+01	10.6970	17.060321	0.000128	1.278171	0.433056	0.000052
 270	2.6765e+01	10.7195	17.117349	0.000140	1.398000	0.473655	0.000057
 271	2.6865e+01	10.7788	17.169081	0.000127	1.268185	0.429673	0.000052
 272	2.6965e+01	10.8157	17.224887	0.000137	1.368042	0.463505	0.000056
 273	2.7064e+01	10.8574	17.283544	0.000144	1.437942	0.487188	0.000059
 274	2.7163e+01	10.8992	17.336906	0.000131	1.308128	0.443206	0.000054
 275	2.7263e+01	10.9328	17.396378	0.000146	1.457914	0.493955	0.000060
 276	2.7363e+01	10.9858	17.454221	0.000142	1.417971	0.480422	0.000058
 277	2.7462e+01	11.0339	17.505953	0.000127	1.268185	0.429673	0.000052
 278	2.7561e+01	11.0484	17.565018	0.000145	1.447928	0.490571	0.000059
 279	2.7661e+01	11.1045	17.617565	0.000129	1.288157	0.436439	0.000053
 280	2.7761e+01	11.1542	17.676223	0.000144	1.437942	0.487188	0.000059
 281	2.7860e+01	11.1799	17.732436	0.000138	1.378028	0.466889	0.000056
 282	2.7959e+01	11.2136	17.790279	0.000142	1.417971	0.480422	0.000058
 283	2.8059e+01	11.2473	17.840382	0.000123	1.228242	0.416140	0.000050
 284	2.8159e+01	11.2633	17.898632	0.000143	1.427957	0.483805	0.000059
 285	2.8258e+01	11.3644	17.954845	0.000138	1.378028	0.466889	0.000056
 286	2.8358e+01	11.3660	18.008614	0.000132	1.318114	0.446589	0.000054
 287	2.8457e+01	11.4350	18.069716	0.000150	1.497857	0.507488	0.000061
 288	2.8556e+01	11.4398	18.126336	0.000139	1.388014	0.470272	0.000057
 289	2.8656e+01	11.5120	18.182549	0.000138	1.378028	0.466889	0.000056
 290	2.8756e+01	11.5072	18.235504	-0.000130	-1.298142	-0.439823	0.000053
 291	2.8855e+01	11.5633	18.292939	0.000141	1.407985	0.477038	0.000058
 292	2.8954e+01	11.5954	18.346301	0.000131	1.308128	0.443206	0.000054
 293	2.9054e+01	11.6371	18.404144	0.000142	1.417971	0.480422	0.000058
 294	2.9154e+01	11.6660	18.458320	0.000133	1.328100	0.449972	0.000054
 295	2.9253e+01	11.7125	18.514126	0.000137	1.368042	0.463505	0.000056
 296	2.9352e+01	11.7157	18.570340	0.000138	1.378028	0.466889	0.000056
 297	2.9452e+01	11.7895	18.624923	0.000134	1.338085	0.453356	0.000055
 298	2.9552e+01	11.8424	18.678693	0.000132	1.318114	0.446589	0.000054
 299	2.9651e+01	11.8890	18.738979	0.000148	1.477885	0.500721	0.000061
 300	2.9750e+01	11.9291	18.796822	0.000142	1.417971	0.480422	0.000058
 301	2.9850e+01	11.9836	18.848962	0.000128	1.278171	0.433056	0.000052
 302	2.9950e+01	12.0301	18.903953	0.000135	1.348071	0.456739	0.000055
 303	3.0049e+01	12.0414	18.968313	0.000158	1.577742	0.534554	0.000065
 304	3.0148e+01	12.0751	19.021268	0.000130	1.298142	0.439823	0.000053
 305	3.0248e+01	12.1296	19.077481	0.000138	1.378028	0.466889	0.000056
 306	3.0348e+01	12.1569	19.130436	0.000130	1.298142	0.439823	0.000053
 307	3.0447e+01	12.2002	19.193574	0.000155	1.547785	0.524404	0.000063
 308	3.0547e+01	12.2756	19.247750	0.000133	1.328100	0.449972	0.000054
 309	3.0646e+01	12.2884	19.307222	0.000146	1.457914	0.493955	0.000060
 310	3.0745e+01	12.3253	19.359362	0.000128	1.278171	0.433056	0.000052
 311	3.0845e+01	12.3734	19.413946	0.000134	1.338085	0.453356	0.000055
 312	3.0945e+01	12.4039	19.470567	0.000139	1.388014	0.470272	0.000057
 313	3.1044e+01	12.4392	19.527187	0.000139	1.388014	0.470272	0.000057
 314	3.1143e+01	12.4633	19.582178	0.000135	1.348071	0.456739	0.000055
 315	3.1243e+01	12.5226	19.635133	0.000130	1.298142	0.439823	0.000053
 316	3.1343e+01	12.5836	19.692568	0.000141	1.407985	0.477038	0.000058
 317	3.1442e+01	12.6510	19.748374	0.000137	1.368042	0.463505	0.000056
 318	3.1541e+01	12.6590	19.801736	0.000131	1.308128	0.443206	0.000054
 319	3.1641e+01	12.6670	19.857542	0.000137	1.368042	0.463505	0.000056
 320	3.1741e+01	12.7103	19.914977	0.000141	1.407985	0.477038	0.000058
 321	3.1840e+01	12.7456	19.969154	0.000133	1.328100	0.449972	0.000054
 322	3.1939e+01	12.8307	20.028219	0.000145	1.447928	0.490571	0.000059
 323	3.2039e+01	12.8387	20.081580	0.000131	1.308128	0.443206	0.000054
 324	3.2139e+01	12.8643	20.138608	0.000140	1.398000	0.473655	0.000057
 325	3.2238e+01	12.9686	20.188712	0.000123	1.228242	0.416140	0.000050
 326	3.2337e+01	12.9654	20.244517	-0.000137	-1.368042	-0.463505	0.000056
 327	3.2437e+01	12.9782	20.294621	0.000123	1.228242	0.416140	0.000050
 328	3.2536e+01	13.0424	20.352463	0.000142	1.417971	0.480422	0.000058
 329	3.2636e+01	13.0857	20.406640	0.000133	1.328100	0.449972	0.000054
 330	3.2736e+01	13.1226	20.463260	0.000139	1.388014	0.470272	0.000057
 331	3.2835e+01	13.1611	20.519474	0.000138	1.378028	0.466889	0.000056
 332	3.2934e+01	13.2044	20.576909	0.000141	1.407985	0.477038	0.000058
 333	3.3034e+01	13.2510	20.629864	0.000130	1.298142	0.439823	0.000053
 334	3.3133e+01	13.2911	20.687706	0.000142	1.417971	0.480422	0.000058
 335	3.3233e+01	13.3248	20.747993	0.000148	1.477885	0.500721	0.000061
 336	3.3333e+01	13.3681	20.802577	0.000134	1.338085	0.453356	0.000055
 337	3.3432e+01	13.4034	20.857568	0.000135	1.348071	0.456739	0.000055
 338	3.3532e+01	13.4403	20.917855	0.000148	1.477885	0.500721	0.000061
 339	3.3631e+01	13.4868	20.975697	0.000142	1.417971	0.480422	0.000058
 340	3.3730e+01	13.5108	21.029059	0.000131	1.308128	0.443206	0.000054
 341	3.3830e+01	13.5477	21.091383	0.000153	1.527814	0.517637	0.000063
 342	3.3929e+01	13.5927	21.148818	0.000141	1.407985	0.477038	0.000058
 343	3.4029e+01	13.6360	21.210734	0.000152	1.517828	0.514254	0.000062
 344	3.4129e+01	13.7001	21.266133	0.000136	1.358057	0.460122	0.000056
 345	3.4228e+01	13.7258	21.319902	0.000132	1.318114	0.446589	0.000054
 346	3.4328e+01	13.7515	21.376522	0.000139	1.388014	0.470272	0.000057
 347	3.4427e+01	13.7948	21.432736	0.000138	1.378028	0.466889	0.000056
 348	3.4526e+01	13.8397	21.488542	0.000137	1.368042	0.463505	0.000056
 349	3.4626e+01	13.8943	21.543126	0.000134	1.338085	0.453356	0.000055
 350	3.4725e+01	13.9135	21.598117	0.000135	1.348071	0.456739	0.000055
 351	3.4825e+01	13.9424	21.661255	0.000155	1.547785	0.524404	0.000063
 352	3.4925e+01	14.0114	21.710951	0.000122	1.218257	0.412757	0.000050
 353	3.5024e+01	14.0194	21.766757	0.000137	1.368042	0.463505	0.000056
 354	3.5123e+01	14.0820	21.816860	0.000123	1.228242	0.416140	0.000050
 355	3.5223e+01	14.1124	21.872258	0.000136	1.358057	0.460122	0.000056
 356	3.5322e+01	14.1493	21.927250	0.000135	1.348071	0.456739	0.000055
 357	3.5422e+01	14.2199	21.985092	0.000142	1.417971	0.480422	0.000058
 358	3.5522e+01	14.2311	22.032344	0.000116	1.158342	0.392457	0.000047
 359	3.5621e+01	14.2697	22.086520	0.000133	1.328100	0.449972	0.000054
 360	3.5721e+01	14.3146	22.134587	0.000118	1.178314	0.399224	0.000048
 361	3.5820e+01	14.3675	22.191208	0.000139	1.388014	0.470272	0.000057
 362	3.5919e+01	14.3868	22.242125	0.000125	1.248214	0.422906	0.000051
 363	3.6019e+01	14.4333	22.295487	0.000131	1.308128	0.443206	0.000054
 364	3.6118e+01	14.5007	22.346405	0.000125	1.248214	0.422906	0.000051
 365	3.6218e+01	14.5167	22.398952	0.000129	1.288157	0.436439	0.000053
 366	3.6318e+01	14.5440	22.446611	0.000117	1.168328	0.395840	0.000048
 367	3.6417e+01	14.5969	22.498344	0.000127	1.268185	0.429673	0.000052
 368	3.6517e+01	14.6563	22.548447	0.000123	1.228242	0.416140	0.000050
 369	3.6616e+01	14.6611	22.600587	0.000128	1.278171	0.433056	0.000052
 370	3.6715e+01	14.7253	22.653949	0.000131	1.308128	0.443206	0.000054
 371	3.6815e+01	14.7333	22.704459	0.000124	1.238228	0.419523	0.000051
 372	3.6914e+01	14.7958	22.754970	0.000124	1.238228	0.419523	0.000051
 373	3.7014e+01	14.8664	22.804665	0.000122	1.218257	0.412757	0.000050
 374	3.7114e+01	14.8905	22.861286	0.000139	1.388014	0.470272	0.000057
 375	3.7213e+01	14.8969	22.909760	0.000119	1.188300	0.402607	0.000049
 376	3.7313e+01	14.9739	22.956197	0.000114	1.138371	0.385691	0.000047
 377	3.7412e+01	15.0012	23.007929	0.000127	1.268185	0.429673	0.000052
 378	3.7511e+01	15.0429	23.060477	0.000129	1.288157	0.436439	0.000053
 379	3.7611e+01	15.0894	23.110172	0.000122	1.218257	0.412757	0.000050
 380	3.7711e+01	15.1247	23.157017	0.000115	1.148357	0.389074	0.000047
 381	3.7810e+01	15.1664	23.208749	0.000127	1.268185	0.429673	0.000052
 382	3.7910e+01	15.1969	23.258445	0.000122	1.218257	0.412757	0.000050
 383	3.8009e+01	15.2579	23.306919	0.000119	1.188300	0.402607	0.000049
 384	3.8108e+01	15.2530	23.353763	-0.000115	-1.148357	-0.389074	0.000047
 385	3.8208e+01	15.3140	23.405903	0.000128	1.278171	0.433056	0.000052
 386	3.8307e+01	15.3718	23.455191	0.000121	1.208271	0.409373	0.000050
 387	3.8407e+01	15.3669	23.504480	-0.000121	-1.208271	-0.409373	0.000050
 388	3.8507e+01	15.4343	23.552954	0.000119	1.188300	0.402607	0.000049
 389	3.8606e+01	15.4648	23.603464	0.000124	1.238228	0.419523	0.000051
 390	3.8706e+01	15.5290	23.648272	0.000110	1.098428	0.372158	0.000045
 391	3.8805e+01	15.5450	23.702041	0.000132	1.318114	0.446589	0.000054
 392	3.8904e+01	15.5835	23.747256	0.000111	1.108414	0.375541	0.000045
 393	3.9004e+01	15.6316	23.794915	0.000117	1.168328	0.395840	0.000048
 394	3.9103e+01	15.6605	23.845426	0.000124	1.238228	0.419523	0.000051
 395	3.9203e+01	15.6862	23.896343	0.000125	1.248214	0.422906	0.000051
 396	3.9303e+01	15.7119	23.944817	0.000119	1.188300	0.402607	0.000049
 397	3.9402e+01	15.7937	23.994920	0.000123	1.228242	0.416140	0.000050
 398	3.9502e+01	15.8242	24.039728	0.000110	1.098428	0.372158	0.000045
 399	3.9601e+01	15.8755	24.088202	0.000119	1.188300	0.402607	0.000049
 400	3.9700e+01	15.9220	24.133417	0.000111	1.108414	0.375541	0.000045
 401	3.9800e+01	15.9733	24.183520	0.000123	1.228242	0.416140	0.000050
 402	3.9900e+01	15.9958	24.232401	0.000120	1.198285	0.405990	0.000049
 403	3.9999e+01	16.0439	24.281689	0.000121	1.208271	0.409373	0.000050
 404	4.0099e+01	16.0808	24.328127	0.000114	1.138371	0.385691	0.000047
 405	4.0198e+01	16.1161	24.380266	0.000128	1.278171	0.433056	0.000052
 406	4.0297e+01	16.1466	24.427518	0.000116	1.158342	0.392457	0.000047
 407	4.0397e+01	16.1723	24.473548	0.000113	1.128385	0.382307	0.000046
 408	4.0496e+01	16.2076	24.518763	0.000111	1.108414	0.375541	0.000045
 409	4.0596e+01	16.2942	24.571310	0.000129	1.288157	0.436439	0.000053
 410	4.0696e+01	16.3086	24.616932	0.000112	1.118400	0.378924	0.000046
 411	4.0795e+01	16.3455	24.664999	0.000118	1.178314	0.399224	0.000048
 412	4.0895e+01	16.3856	24.711029	0.000113	1.128385	0.382307	0.000046
 413	4.0994e+01	16.4145	24.763168	0.000128	1.278171	0.433056	0.000052
 414	4.1093e+01	16.4530	24.808383	0.000111	1.108414	0.375541	0.000045
 415	4.1193e+01	16.4995	24.853191	0.000110	1.098428	0.372158	0.000045
 416	4.1292e+01	16.5428	24.897591	0.000109	1.088442	0.368774	0.000045
 417	4.1392e+01	16.6086	24.941584	0.000108	1.078457	0.365391	0.000044
 418	4.1492e+01	16.6279	24.987614	0.000113	1.128385	0.382307	0.000046
 419	4.1591e+01	16.6535	25.032829	0.000111	1.108414	0.375541	0.000045
 420	4.1691e+01	16.7257	25.082525	0.000122	1.218257	0.412757	0.000050
 421	4.1790e+01	16.7546	25.126518	0.000108	1.078457	0.365391	0.000044
 422	4.1889e+01	16.7626	25.172955	0.000114	1.138371	0.385691	0.000047
 423	4.1989e+01	16.8444	25.212875	0.000098	0.978600	0.331559	0.000040
 424	4.2089e+01	16.8525	25.258090	0.000111	1.108414	0.375541	0.000045
 425	4.2188e+01	16.9022	25.298009	0.000098	0.978600	0.331559	0.000040
 426	4.2288e+01	16.9247	25.344039	0.000113	1.128385	0.382307	0.000046
 427	4.2387e+01	17.0033	25.390476	0.000114	1.138371	0.385691	0.000047
 428	4.2486e+01	17.0193	25.433654	0.000106	1.058485	0.358625	0.000043
 429	4.2586e+01	17.0642	25.480906	0.000116	1.158342	0.392457	0.000047
 430	4.2685e+01	17.1476	25.523677	0.000105	1.048500	0.355241	0.000043
 431	4.2785e+01	17.0947	25.570114	-0.000114	-1.138371	-0.385691	0.000047
 432	4.2885e+01	17.1894	25.614107	0.000108	1.078457	0.365391	0.000044
 433	4.2984e+01	17.2198	25.653619	0.000097	0.968614	0.328175	0.000040
 434	4.3084e+01	17.2583	25.701686	0.000118	1.178314	0.399224	0.000048
 435	4.3183e+01	17.3177	25.749345	0.000117	1.168328	0.395840	0.000048
 436	4.3282e+01	17.3514	25.794560	0.000111	1.108414	0.375541	0.000045
 437	4.3382e+01	17.3754	25.836516	0.000103	1.028528	0.348475	0.000042
 438	4.3481e+01	17.4284	25.883360	0.000115	1.148357	0.389074	0.000047
 439	4.3581e+01	17.4557	25.929390	0.000113	1.128385	0.382307	0.000046
 440	4.3681e+01	17.5150	25.979493	0.000123	1.228242	0.416140	0.000050
 441	4.3780e+01	17.5455	26.028782	0.000121	1.208271	0.409373	0.000050
 442	4.3880e+01	17.5776	26.070331	0.000102	1.018543	0.345092	0.000042
 443	4.3979e+01	17.6305	26.119212	0.000120	1.198285	0.405990	0.000049
 444	4.4078e+01	17.6690	26.170537	0.000126	1.258200	0.426290	0.000052
 445	4.4178e+01	17.7027	26.212901	0.000104	1.038514	0.351858	0.000043
 446	4.4278e+01	17.7444	26.261782	0.000120	1.198285	0.405990	0.000049
 447	4.4377e+01	17.7942	26.314736	0.000130	1.298142	0.439823	0.000053
 448	4.4477e+01	17.8198	26.361581	0.000115	1.148357	0.389074	0.000047
 449	4.4576e+01	17.8679	26.408018	0.000114	1.138371	0.385691	0.000047
 450	4.4675e+01	17.8984	26.452011	0.000108	1.078457	0.365391	0.000044
 451	4.4775e+01	17.9433	26.502114	0.000123	1.228242	0.416140	0.000050
 452	4.4874e+01	17.9883	26.548143	0.000113	1.128385	0.382307	0.000046
 453	4.4974e+01	18.0348	26.596617	0.000119	1.188300	0.402607	0.000049
 454	4.5074e+01	18.0877	26.647128	0.000124	1.238228	0.419523	0.000051
 455	4.5173e+01	18.1294	26.694379	0.000116	1.158342	0.392457	0.000047
 456	4.5273e+01	18.1214	26.739187	-0.000110	-1.098428	-0.372158	0.000045
 457	4.5372e+01	18.2161	26.790920	0.000127	1.268185	0.429673	0.000052
 458	4.5471e+01	18.2161	26.838986	-0.000118	-1.178314	-0.399224	0.000048
 459	4.5571e+01	18.2321	26.887867	0.000120	1.198285	0.405990	0.000049
 460	4.5670e+01	18.2850	26.933490	0.000112	1.118400	0.378924	0.000046
 461	4.5770e+01	18.3348	26.982778	0.000121	1.208271	0.409373	0.000050
 462	4.5870e+01	18.3877	27.029622	0.000115	1.148357	0.389074	0.000047
 463	4.5969e+01	18.4439	27.076059	0.000114	1.138371	0.385691	0.000047
 464	4.6069e+01	18.4535	27.129014	0.000130	1.298142	0.439823	0.000053
 465	4.6168e+01	18.4808	27.177895	0.000120	1.198285	0.405990	0.000049
 466	4.6267e+01	18.5481	27.226776	0.000120	1.198285	0.405990	0.000049
 467	4.6367e+01	18.5963	27.272806	0.000113	1.128385	0.382307	0.000046
 468	4.6467e+01	18.6219	27.320872	0.000118	1.178314	0.399224	0.000048
 469	4.6566e+01	18.6669	27.373012	0.000128	1.278171	0.433056	0.000052
 470	4.6666e+01	18.7102	27.420671	0.000117	1.168328	0.395840	0.000048
 471	4.6765e+01	18.7599	27.467516	0.000115	1.148357	0.389074	0.000047
 472	4.6864e+01	18.7872	27.519248	0.000127	1.268185	0.429673	0.000052
 473	4.6964e+01	18.8193	27.566907	0.000117	1.168328	0.395840	0.000048
 474	4.7063e+01	18.8545	27.614566	0.000117	1.168328	0.395840	0.000048
 475	4.7163e+01	18.8802	27.661818	0.000116	1.158342	0.392457	0.000047
 476	4.7263e+01	18.9283	27.713550	0.000127	1.268185	0.429673	0.000052
 477	4.7362e+01	18.9845	27.763654	0.000123	1.228242	0.416140	0.000050
 478	4.7462e+01	19.0102	27.809276	0.000112	1.118400	0.378924	0.000046
 479	4.7561e+01	19.0438	27.858157	0.000120	1.198285	0.405990	0.000049
 480	4.7660e+01	19.0759	27.909075	0.000125	1.248214	0.422906	0.000051
 481	4.7760e+01	19.1273	27.954290	0.000111	1.108414	0.375541	0.000045
 482	4.7859e+01	19.1914	28.001949	0.000117	1.168328	0.395840	0.000048
 483	4.7959e+01	19.2059	28.051645	0.000122	1.218257	0.412757	0.000050
 484	4.8059e+01	19.2588	28.102155	0.000124	1.238228	0.419523	0.000051
 485	4.8158e+01	19.2877	28.149407	0.000116	1.158342	0.392457	0.000047
 486	4.8258e+01	19.3342	28.197881	0.000119	1.188300	0.402607	0.000049
 487	4.8357e+01	19.3839	28.247169	0.000121	1.208271	0.409373	0.000050
 488	4.8456e+01	19.4224	28.296050	0.000120	1.198285	0.405990	0.000049
 489	4.8556e+01	19.4593	28.342895	0.000115	1.148357	0.389074	0.000047
 490	4.8656e+01	19.4866	28.388924	0.000113	1.128385	0.382307	0.000046
 491	4.8755e+01	19.5283	28.436991	0.000118	1.178314	0.399224	0.000048
 492	4.8855e+01	19.5460	28.488316	0.000126	1.258200	0.426290	0.000052
 493	4.8954e+01	19.6101	28.535975	0.000117	1.168328	0.395840	0.000048
 494	4.9053e+01	19.6358	28.581190	0.000111	1.108414	0.375541	0.000045
 495	4.9153e+01	19.6920	28.634145	0.000130	1.298142	0.439823	0.000053
 496	4.9252e+01	19.7353	28.683026	0.000120	1.198285	0.405990	0.000049
 497	4.9352e+01	19.7658	28.731907	0.000120	1.198285	0.405990	0.000049
 498	4.9452e+01	19.8139	28.784047	0.000128	1.278171	0.433056	0.000052
 499	4.9551e+01	19.8636	28.828040	0.000108	1.078457	0.365391	0.000044
 500	4.9651e+01	19.8797	28.878958	0.000125	1.248214	0.422906	0.000051
 501	4.9750e+01	19.9182	28.929061	0.000123	1.228242	0.416140	0.000050
 502	4.9849e+01	19.9807	28.981201	0.000128	1.278171	0.433056	0.000052
 503	4.9949e+01	20.0176	29.033340	0.000128	1.278171	0.433056	0.000052
 504	5.0048e+01	19.9583	29.001568	0.000078	0.778885	0.263894	-0.000032
 505	5.0148e+01	19.9342	28.975090	0.000065	0.649071	0.219911	-0.000027
 506	5.0248e+01	19.9005	28.938022	0.000091	0.908700	0.307876	-0.000037
 507	5.0347e+01	19.8476	28.911138	0.000066	0.659057	0.223295	-0.000027
 508	5.0447e+01	19.8412	28.877736	0.000082	0.818828	0.277427	-0.000034
 509	5.0546e+01	19.7914	28.847999	0.000073	0.728957	0.246977	-0.000030
 510	5.0645e+01	19.7321	28.815412	0.000080	0.798857	0.270660	-0.000033
 511	5.0745e+01	19.7000	28.787713	0.000068	0.679028	0.230061	-0.000028
 512	5.0844e+01	19.6454	28.752274	0.000087	0.868757	0.294343	-0.000036
 513	5.0944e+01	19.6134	28.725389	0.000066	0.659057	0.223295	-0.000027
 514	5.1044e+01	19.5973	28.685877	0.000097	0.968614	0.328175	-0.000040
 515	5.1143e+01	19.5380	28.654104	0.000078	0.778885	0.263894	-0.000032
 516	5.1242e+01	19.4770	28.616629	0.000092	0.918685	0.311259	-0.000038
 517	5.1342e+01	19.4561	28.586486	0.000074	0.738943	0.250361	-0.000030
 518	5.1441e+01	19.3936	28.548195	0.000094	0.938657	0.318026	-0.000038
 519	5.1541e+01	19.3759	28.516423	0.000078	0.778885	0.263894	-0.000032
 520	5.1641e+01	19.3503	28.480169	0.000089	0.888728	0.301109	-0.000036
 521	5.1740e+01	19.3069	28.447582	0.000080	0.798857	0.270660	-0.000033
 522	5.1840e+01	19.2861	28.408070	0.000097	0.968614	0.328175	-0.000040
 523	5.1939e+01	19.2364	28.373853	0.000084	0.838800	0.284193	-0.000034
 524	5.2038e+01	19.1754	28.336377	0.000092	0.918685	0.311259	-0.000038
 525	5.2138e+01	19.1561	28.298087	0.000094	0.938657	0.318026	-0.000038
 526	5.2237e+01	19.0968	28.259797	0.000094	0.938657	0.318026	-0.000038
 527	5.2337e+01	19.0471	28.222321	0.000092	0.918685	0.311259	-0.000038
 528	5.2437e+01	19.0214	28.179550	0.000105	1.048500	0.355241	-0.000043
 529	5.2536e+01	18.9813	28.140445	0.000096	0.958628	0.324792	-0.000039
 530	5.2636e+01	18.9508	28.099304	0.000101	1.008557	0.341708	-0.000041
 531	5.2735e+01	18.9203	28.057348	0.000103	1.028528	0.348475	-0.000042
 532	5.2834e+01	18.8529	28.021094	0.000089	0.888728	0.301109	-0.000036
 533	5.2934e+01	18.8337	27.982804	0.000094	0.938657	0.318026	-0.000038
 534	5.3033e+01	18.7791	27.945328	0.000092	0.918685	0.311259	-0.000038
 535	5.3133e+01	18.7583	27.900521	0.000110	1.098428	0.372158	-0.000045
 536	5.3233e+01	18.7166	27.863045	0.000092	0.918685	0.311259	-0.000038
 537	5.3332e+01	18.6781	27.821089	0.000103	1.028528	0.348475	-0.000042
 538	5.3431e+01	18.5931	27.780355	0.000100	0.998571	0.338325	-0.000041
 539	5.3531e+01	18.5915	27.736362	0.000108	1.078457	0.365391	-0.000044
 540	5.3630e+01	18.5241	27.697664	0.000095	0.948643	0.321409	-0.000039
 541	5.3730e+01	18.5225	27.657745	0.000098	0.978600	0.331559	-0.000040
 542	5.3830e+01	18.4423	27.614566	0.000106	1.058485	0.358625	-0.000043
 543	5.3929e+01	18.4278	27.574239	0.000099	0.988585	0.334942	-0.000041
 544	5.4029e+01	18.3973	27.534727	0.000097	0.968614	0.328175	-0.000040
 545	5.4128e+01	18.3412	27.496844	0.000093	0.928671	0.314642	-0.000038
 546	5.4227e+01	18.3203	27.450407	0.000114	1.138371	0.385691	-0.000047
 547	5.4327e+01	18.2802	27.408044	0.000104	1.038514	0.351858	-0.000043
 548	5.4426e+01	18.2032	27.365680	0.000104	1.038514	0.351858	-0.000043
 549	5.4526e+01	18.1679	27.328612	0.000091	0.908700	0.307876	-0.000037
 550	5.4626e+01	18.1439	27.284211	0.000109	1.088442	0.368774	-0.000045
 551	5.4725e+01	18.0877	27.240218	0.000108	1.078457	0.365391	-0.000044
 552	5.4825e+01	18.0797	27.191337	0.000120	1.198285	0.405990	-0.000049
 553	5.4924e+01	18.0123	27.155491	0.000088	0.878743	0.297726	-0.000036
 554	5.5023e+01	17.9498	27.112720	0.000105	1.048500	0.355241	-0.000043
 555	5.5123e+01	17.9241	27.068727	0.000108	1.078457	0.365391	-0.000044
 556	5.5222e+01	17.9193	27.021883	0.000115	1.148357	0.389074	-0.000047
 557	5.5322e+01	17.8712	26.984000	0.000093	0.928671	0.314642	-0.000038
 558	5.5422e+01	17.8246	26.938378	0.000112	1.118400	0.378924	-0.000046
 559	5.5521e+01	17.7781	26.895199	0.000106	1.058485	0.358625	-0.000043
 560	5.5620e+01	17.7444	26.856502	0.000095	0.948643	0.321409	-0.000039
 561	5.5720e+01	17.6947	26.812101	0.000109	1.088442	0.368774	-0.000045
 562	5.5819e+01	17.6899	26.764035	0.000118	1.178314	0.399224	-0.000048
 563	5.5919e+01	17.6225	26.723301	0.000100	0.998571	0.338325	-0.000041
 564	5.6019e+01	17.5663	26.677271	0.000113	1.128385	0.382307	-0.000046
 565	5.6118e+01	17.5359	26.635722	0.000102	1.018543	0.345092	-0.000042
 566	5.6218e+01	17.5246	26.590914	0.000110	1.098428	0.372158	-0.000045
 567	5.6317e+01	17.4316	26.545292	0.000112	1.118400	0.378924	-0.000046
 568	5.6416e+01	17.4139	26.501299	0.000108	1.078457	0.365391	-0.000044
 569	5.6516e+01	17.3770	26.455677	0.000112	1.118400	0.378924	-0.000046
 570	5.6615e+01	17.3321	26.412906	0.000105	1.048500	0.355241	-0.000043
 571	5.6715e+01	17.2968	26.367691	0.000111	1.108414	0.375541	-0.000045
 572	5.6815e+01	17.2487	26.322883	0.000110	1.098428	0.372158	-0.000045
 573	5.6914e+01	17.2102	26.278483	0.000109	1.088442	0.368774	-0.000045
 574	5.7014e+01	17.1765	26.235712	0.000105	1.048500	0.355241	-0.000043
 575	5.7113e+01	17.1525	26.191719	0.000108	1.078457	0.365391	-0.000044
 576	5.7212e+01	17.1107	26.148948	0.000105	1.048500	0.355241	-0.000043
 577	5.7312e+01	17.0546	26.098845	0.000123	1.228242	0.416140	-0.000050
 578	5.7411e+01	17.0097	26.057703	0.000101	1.008557	0.341708	-0.000041
 579	5.7511e+01	16.9904	26.012895	0.000110	1.098428	0.372158	-0.000045
 580	5.7611e+01	16.9166	25.970532	0.000104	1.038514	0.351858	-0.000043
 581	5.7710e+01	16.9086	25.921651	0.000120	1.198285	0.405990	-0.000049
 582	5.7809e+01	16.8749	25.872362	0.000121	1.208271	0.409373	-0.000050
 583	5.7909e+01	16.8493	25.828369	0.000108	1.078457	0.365391	-0.000044
 584	5.8008e+01	16.7979	25.781932	0.000114	1.138371	0.385691	-0.000047
 585	5.8108e+01	16.7482	25.734273	0.000117	1.168328	0.395840	-0.000048
 586	5.8208e+01	16.7161	25.684170	0.000123	1.228242	0.416140	-0.000050
 587	5.8307e+01	16.6776	25.640177	0.000108	1.078457	0.365391	-0.000044
 588	5.8407e+01	16.6279	25.594147	0.000113	1.128385	0.382307	-0.000046
 589	5.8506e+01	16.6022	25.543229	0.000125	1.248214	0.422906	-0.000051
 590	5.8605e+01	16.5525	25.496792	0.000114	1.138371	0.385691	-0.000047
 591	5.8705e+01	16.4931	25.448726	0.000118	1.178314	0.399224	-0.000048
 592	5.8804e+01	16.4771	25.399845	0.000120	1.198285	0.405990	-0.000049
 593	5.8904e+01	16.4257	25.348927	0.000125	1.248214	0.422906	-0.000051
 594	5.9004e+01	16.4017	25.297602	0.000126	1.258200	0.426290	-0.000052
 595	5.9103e+01	16.3712	25.248721	0.000120	1.198285	0.405990	-0.000049
 596	5.9203e+01	16.3022	25.203913	0.000110	1.098428	0.372158	-0.000045
 597	5.9302e+01	16.2798	25.157069	0.000115	1.148357	0.389074	-0.000047
 598	5.9401e+01	16.2188	25.104929	0.000128	1.278171	0.433056	-0.000052
 599	5.9501e+01	16.1835	25.057677	0.000116	1.158342	0.392457	-0.000047
 600	5.9600e+01	16.1691	25.007167	0.000124	1.238228	0.419523	-0.000051
 601	5.9700e+01	16.1129	24.962359	0.000110	1.098428	0.372158	-0.000045
 602	5.9800e+01	16.0728	24.914292	0.000118	1.178314	0.399224	-0.000048
 603	5.9899e+01	16.0086	24.866633	0.000117	1.168328	0.395840	-0.000048
 604	5.9998e+01	16.0215	24.816123	-0.000124	-1.238228	-0.419523	-0.000051
 605	6.0098e+01	15.9637	24.772130	0.000108	1.078457	0.365391	-0.000044
 606	6.0197e+01	15.9108	24.724471	0.000117	1.168328	0.395840	-0.000048
 607	6.0297e+01	15.8883	24.679663	0.000110	1.098428	0.372158	-0.000045
 608	6.0397e+01	15.8402	24.633226	0.000114	1.138371	0.385691	-0.000047
 609	6.0496e+01	15.7648	24.589233	0.000108	1.078457	0.365391	-0.000044
 610	6.0596e+01	15.7391	24.542389	0.000115	1.148357	0.389074	-0.000047
 611	6.0695e+01	15.6958	24.496766	0.000112	1.118400	0.378924	-0.000046
 612	6.0794e+01	15.6637	24.452773	0.000108	1.078457	0.365391	-0.000044
 613	6.0894e+01	15.6589	24.404707	0.000118	1.178314	0.399224	-0.000048
 614	6.0993e+01	15.5931	24.361529	0.000106	1.058485	0.358625	-0.000043
 615	6.1093e+01	15.5562	24.318350	0.000106	1.058485	0.358625	-0.000043
 616	6.1193e+01	15.5274	24.268247	0.000123	1.228242	0.416140	-0.000050
 617	6.1292e+01	15.4825	24.224254	0.000108	1.078457	0.365391	-0.000044
 618	6.1392e+01	15.4327	24.177817	0.000114	1.138371	0.385691	-0.000047
 619	6.1491e+01	15.3814	24.132602	0.000111	1.108414	0.375541	-0.000045
 620	6.1590e+01	15.3686	24.089424	0.000106	1.058485	0.358625	-0.000043
 621	6.1690e+01	15.2964	24.038506	0.000125	1.248214	0.422906	-0.000051
 622	6.1789e+01	15.2530	23.994513	0.000108	1.078457	0.365391	-0.000044
 623	6.1889e+01	15.2386	23.949705	0.000110	1.098428	0.372158	-0.000045
 624	6.1989e+01	15.1776	23.906934	0.000105	1.048500	0.355241	-0.000043
 625	6.2088e+01	15.1456	23.858868	0.000118	1.178314	0.399224	-0.000048
 626	6.2188e+01	15.1103	23.812838	0.000113	1.128385	0.382307	-0.000046
 627	6.2287e+01	15.0734	23.765586	0.000116	1.158342	0.392457	-0.000047
 628	6.2386e+01	15.0140	23.722408	0.000106	1.058485	0.358625	-0.000043
 629	6.2486e+01	15.0124	23.674342	0.000118	1.178314	0.399224	-0.000048
 630	6.2586e+01	14.9611	23.631163	0.000106	1.058485	0.358625	-0.000043
 631	6.2685e+01	14.9338	23.587985	0.000106	1.058485	0.358625	-0.000043
 632	6.2785e+01	14.8777	23.542363	0.000112	1.118400	0.378924	-0.000046
 633	6.2884e+01	14.8311	23.495111	0.000116	1.158342	0.392457	-0.000047
 634	6.2983e+01	14.7974	23.452340	0.000105	1.048500	0.355241	-0.000043
 635	6.3083e+01	14.7445	23.401422	0.000125	1.248214	0.422906	-0.000051
 636	6.3182e+01	14.7236	23.360281	0.000101	1.008557	0.341708	-0.000041
 637	6.3282e+01	14.6627	23.313436	0.000115	1.148357	0.389074	-0.000047
 638	6.3382e+01	14.6290	23.271887	0.000102	1.018543	0.345092	-0.000042
 639	6.3481e+01	14.6001	23.224636	0.000116	1.158342	0.392457	-0.000047
 640	6.3581e+01	14.5568	23.183494	0.000101	1.008557	0.341708	-0.000041
 641	6.3680e+01	14.4766	23.135835	0.000117	1.168328	0.395840	-0.000048
 642	6.3779e+01	14.4702	23.087768	0.000118	1.178314	0.399224	-0.000048
 643	6.3879e+01	14.4509	23.043368	0.000109	1.088442	0.368774	-0.000045
 644	6.3978e+01	14.3803	22.996931	0.000114	1.138371	0.385691	-0.000047
 645	6.4078e+01	14.3531	22.952123	0.000110	1.098428	0.372158	-0.000045
 646	6.4177e+01	14.3434	22.908538	0.000107	1.068471	0.362008	-0.000044
 647	6.4277e+01	14.2664	22.859249	0.000121	1.208271	0.409373	-0.000050
 648	6.4376e+01	14.2456	22.815256	0.000108	1.078457	0.365391	-0.000044
 649	6.4476e+01	14.1910	22.773707	0.000102	1.018543	0.345092	-0.000042
 650	6.4576e+01	14.1782	22.725234	0.000119	1.188300	0.402607	-0.000049
 651	6.4675e+01	14.0948	22.678389	0.000115	1.148357	0.389074	-0.000047
 652	6.4775e+01	14.0900	22.630323	0.000118	1.178314	0.399224	-0.000048
 653	6.4874e+01	14.0515	22.590811	0.000097	0.968614	0.328175	-0.000040
 654	6.4974e+01	13.9616	22.536227	0.000134	1.338085	0.453356	-0.000055
 655	6.5073e+01	13.9279	22.493048	0.000106	1.058485	0.358625	-0.000043
 656	6.5172e+01	13.9103	22.448241	0.000110	1.098428	0.372158	-0.000045
 657	6.5272e+01	13.9023	22.398545	0.000122	1.218257	0.412757	-0.000050
 658	6.5371e+01	13.8461	22.353330	0.000111	1.108414	0.375541	-0.000045
 659	6.5471e+01	13.8173	22.310559	0.000105	1.048500	0.355241	-0.000043
 660	6.5570e+01	13.7547	22.261678	0.000120	1.198285	0.405990	-0.000049
 661	6.5670e+01	13.7194	22.213204	0.000119	1.188300	0.402607	-0.000049
 662	6.5769e+01	13.7210	22.168396	-0.000110	-1.098428	-0.372158	-0.000045
 663	6.5869e+01	13.6312	22.126440	0.000103	1.028528	0.348475	-0.000042
 664	6.5969e+01	13.5943	22.077152	0.000121	1.208271	0.409373	-0.000050
 665	6.6068e+01	13.5285	22.029900	0.000116	1.158342	0.392457	-0.000047
 666	6.6168e+01	13.4884	21.985092	0.000110	1.098428	0.372158	-0.000045
 667	6.6267e+01	13.4611	21.943543	0.000102	1.018543	0.345092	-0.000042
 668	6.6367e+01	13.4403	21.900365	0.000106	1.058485	0.358625	-0.000043
 669	6.6466e+01	13.4050	21.853521	0.000115	1.148357	0.389074	-0.000047
 670	6.6566e+01	13.3713	21.807898	0.000112	1.118400	0.378924	-0.000046
 671	6.6665e+01	13.3151	21.764720	0.000106	1.058485	0.358625	-0.000043
 672	6.6764e+01	13.2975	21.720320	0.000109	1.088442	0.368774	-0.000045
 673	6.6864e+01	13.2125	21.673882	0.000114	1.138371	0.385691	-0.000047
 674	6.6963e+01	13.1804	21.627445	0.000114	1.138371	0.385691	-0.000047
 675	6.7063e+01	13.1675	21.586711	0.000100	0.998571	0.338325	-0.000041
 676	6.7162e+01	13.1290	21.543533	0.000106	1.058485	0.358625	-0.000043
 677	6.7262e+01	13.0857	21.496281	0.000116	1.158342	0.392457	-0.000047
 678	6.7362e+01	13.0408	21.454325	0.000103	1.028528	0.348475	-0.000042
 679	6.7461e+01	13.0007	21.407073	0.000116	1.158342	0.392457	-0.000047
 680	6.7561e+01	12.9526	21.367154	0.000098	0.978600	0.331559	-0.000040
 681	6.7660e+01	12.9221	21.329271	0.000093	0.928671	0.314642	-0.000038
 682	6.7760e+01	12.8772	21.280797	0.000119	1.188300	0.402607	-0.000049
 683	6.7859e+01	12.8563	21.233138	0.000117	1.168328	0.395840	-0.000048
 684	6.7959e+01	12.8242	21.189145	0.000108	1.078457	0.365391	-0.000044
 685	6.8058e+01	12.7424	21.143115	0.000113	1.128385	0.382307	-0.000046
 686	6.8157e+01	12.7376	21.098307	0.000110	1.098428	0.372158	-0.000045
 687	6.8257e+01	12.6783	21.048204	0.000123	1.228242	0.416140	-0.000050
 688	6.8356e+01	12.6494	21.003397	0.000110	1.098428	0.372158	-0.000045
 689	6.8456e+01	12.6045	20.954923	0.000119	1.188300	0.402607	-0.000049
 690	6.8555e+01	12.5531	20.908893	0.000113	1.128385	0.382307	-0.000046
 691	6.8655e+01	12.5130	20.862049	0.000115	1.148357	0.389074	-0.000047
 692	6.8754e+01	12.5018	20.813168	0.000120	1.198285	0.405990	-0.000049
 693	6.8854e+01	12.4745	20.765509	0.000117	1.168328	0.395840	-0.000048
 694	6.8954e+01	12.4103	20.713369	0.000128	1.278171	0.433056	-0.000052
 695	6.9053e+01	12.3734	20.666524	0.000115	1.148357	0.389074	-0.000047
 696	6.9153e+01	12.3430	20.616421	0.000123	1.228242	0.416140	-0.000050
 697	6.9252e+01	12.2692	20.569984	0.000114	1.138371	0.385691	-0.000047
 698	6.9352e+01	12.2788	20.517844	-0.000128	-1.278171	-0.433056	-0.000052
 699	6.9451e+01	12.2018	20.466519	0.000126	1.258200	0.426290	-0.000052
 700	6.9550e+01	12.1505	20.416416	0.000123	1.228242	0.416140	-0.000050
 701	6.9650e+01	12.1328	20.365498	0.000125	1.248214	0.422906	-0.000051
 702	6.9749e+01	12.0895	20.313358	0.000128	1.278171	0.433056	-0.000052
 703	6.9849e+01	12.0317	20.264477	0.000120	1.198285	0.405990	-0.000049
 704	6.9948e+01	12.0237	20.211930	0.000129	1.288157	0.436439	-0.000053
 705	7.0048e+01	11.9612	20.163864	0.000118	1.178314	0.399224	-0.000048
 706	7.0147e+01	11.9323	20.112131	0.000127	1.268185	0.429673	-0.000052
 707	7.0247e+01	11.8761	20.062843	0.000121	1.208271	0.409373	-0.000050
 708	7.0347e+01	11.8344	20.011110	0.000127	1.268185	0.429673	-0.000052
 709	7.0446e+01	11.8248	19.961414	0.000122	1.218257	0.412757	-0.000050
 710	7.0546e+01	11.7767	19.909275	0.000128	1.278171	0.433056	-0.000052
 711	7.0645e+01	11.7157	19.859171	0.000123	1.228242	0.416140	-0.000050
 712	7.0745e+01	11.6644	19.809068	0.000123	1.228242	0.416140	-0.000050
 713	7.0844e+01	11.6419	19.757336	0.000127	1.268185	0.429673	-0.000052
 714	7.0944e+01	11.6066	19.703974	0.000131	1.308128	0.443206	-0.000054
 715	7.1043e+01	11.5874	19.654278	0.000122	1.218257	0.412757	-0.000050
 716	7.1142e+01	11.5376	19.598065	0.000138	1.378028	0.466889	-0.000056
 717	7.1242e+01	11.5007	19.547962	0.000123	1.228242	0.416140	-0.000050
 718	7.1341e+01	11.4221	19.495007	0.000130	1.298142	0.439823	-0.000053
 719	7.1441e+01	11.4173	19.443275	0.000127	1.268185	0.429673	-0.000052
 720	7.1540e+01	11.3644	19.391950	0.000126	1.258200	0.426290	-0.000052
 721	7.1640e+01	11.3179	19.338995	0.000130	1.298142	0.439823	-0.000053
 722	7.1740e+01	11.2858	19.285226	0.000132	1.318114	0.446589	-0.000054
 723	7.1839e+01	11.2344	19.231049	0.000133	1.328100	0.449972	-0.000054
 724	7.1939e+01	11.2024	19.183390	0.000117	1.168328	0.395840	-0.000048
 725	7.2038e+01	11.1831	19.126362	0.000140	1.398000	0.473655	-0.000057
 726	7.2138e+01	11.1382	19.073408	0.000130	1.298142	0.439823	-0.000053
 727	7.2237e+01	11.0885	19.017194	0.000138	1.378028	0.466889	-0.000056
 728	7.2337e+01	11.0628	18.969943	0.000116	1.158342	0.392457	-0.000047
 729	7.2436e+01	10.9954	18.912100	0.000142	1.417971	0.480422	-0.000058
 730	7.2535e+01	10.9681	18.858738	0.000131	1.308128	0.443206	-0.000054
 731	7.2635e+01	10.9136	18.806598	0.000128	1.278171	0.433056	-0.000052
 732	7.2734e+01	10.8959	18.751607	0.000135	1.348071	0.456739	-0.000055
 733	7.2834e+01	10.8526	18.697838	0.000132	1.318114	0.446589	-0.000054
 734	7.2933e+01	10.8109	18.643661	0.000133	1.328100	0.449972	-0.000054
 735	7.3033e+01	10.7532	18.589485	0.000133	1.328100	0.449972	-0.000054
 736	7.3132e+01	10.7484	18.533679	0.000137	1.368042	0.463505	-0.000056
 737	7.3232e+01	10.6906	18.481946	0.000127	1.268185	0.429673	-0.000052
 738	7.3332e+01	10.6714	18.428992	0.000130	1.298142	0.439823	-0.000053
 739	7.3431e+01	10.6296	18.370334	0.000144	1.437942	0.487188	-0.000059
 740	7.3531e+01	10.5430	18.318195	0.000128	1.278171	0.433056	-0.000052
 741	7.3630e+01	10.5430	18.267684	0.000124	1.238228	0.419523	-0.000051
 742	7.3730e+01	10.4772	18.210656	0.000140	1.398000	0.473655	-0.000057
 743	7.3829e+01	10.4564	18.157702	0.000130	1.298142	0.439823	-0.000053
 744	7.3928e+01	10.3874	18.099452	0.000143	1.427957	0.483805	-0.000059
 745	7.4028e+01	10.3714	18.047312	0.000128	1.278171	0.433056	-0.000052
 746	7.4127e+01	10.3281	17.992320	0.000135	1.348071	0.456739	-0.000055
 747	7.4227e+01	10.2944	17.934885	0.000141	1.407985	0.477038	-0.000058
 748	7.4326e+01	10.2767	17.882338	0.000129	1.288157	0.436439	-0.000053
 749	7.4426e+01	10.2174	17.824088	0.000143	1.427957	0.483805	-0.000059
 750	7.4525e+01	10.1564	17.770319	0.000132	1.318114	0.446589	-0.000054
 751	7.4625e+01	10.1484	17.711254	0.000145	1.447928	0.490571	-0.000059
 752	7.4725e+01	10.0746	17.651782	0.000146	1.457914	0.493955	-0.000060
 753	7.4824e+01	10.0730	17.595162	0.000139	1.388014	0.470272	-0.000057
 754	7.4924e+01	10.0152	17.534467	0.000149	1.487871	0.504104	-0.000061
 755	7.5023e+01	9.9591	17.480698	0.000132	1.318114	0.446589	-0.000054
 756	7.5123e+01	9.9334	17.425300	0.000136	1.358057	0.460122	-0.000056
 757	7.5222e+01	9.8821	17.366235	0.000145	1.447928	0.490571	-0.000059
 758	7.5322e+01	9.8741	17.304726	0.000151	1.507842	0.510871	-0.000062
 759	7.5421e+01	9.7922	17.248920	0.000137	1.368042	0.463505	-0.000056
 760	7.5520e+01	9.7746	17.190670	0.000143	1.427957	0.483805	-0.000059
 761	7.5620e+01	9.7361	17.131198	0.000146	1.457914	0.493955	-0.000060
 762	7.5719e+01	9.7168	17.066838	0.000158	1.577742	0.534554	-0.000065
 763	7.5819e+01	9.6735	17.009810	0.000140	1.398000	0.473655	-0.000057
 764	7.5918e+01	9.5981	16.954004	0.000137	1.368042	0.463505	-0.000056
 765	7.6018e+01	9.5837	16.894125	0.000147	1.467900	0.497338	-0.000060
 766	7.6118e+01	9.5195	16.837912	0.000138	1.378028	0.466889	-0.000056
 767	7.6217e+01	9.5067	16.773144	0.000159	1.587728	0.537937	-0.000065
 768	7.6317e+01	9.4810	16.721412	0.000127	1.268185	0.429673	-0.000052
 769	7.6416e+01	9.4120	16.659088	0.000153	1.527814	0.517637	-0.000063
 770	7.6516e+01	9.3944	16.601246	0.000142	1.417971	0.480422	-0.000058
 771	7.6615e+01	9.3463	16.546662	0.000134	1.338085	0.453356	-0.000055
 772	7.6715e+01	9.2741	16.488412	0.000143	1.427957	0.483805	-0.000059
 773	7.6814e+01	9.2436	16.432199	0.000138	1.378028	0.466889	-0.000056
 774	7.6913e+01	9.2003	16.370282	0.000152	1.517828	0.514254	-0.000062
 775	7.7013e+01	9.1987	16.312440	0.000142	1.417971	0.480422	-0.000058
 776	7.7112e+01	9.1136	16.256634	0.000137	1.368042	0.463505	-0.000056
 777	7.7212e+01	9.1169	16.203679	-0.000130	-1.298142	-0.439823	-0.000053
 778	7.7311e+01	9.0463	16.145022	0.000144	1.437942	0.487188	-0.000059
 779	7.7411e+01	9.0254	16.090845	0.000133	1.328100	0.449972	-0.000054
 780	7.7510e+01	8.9741	16.035854	0.000135	1.348071	0.456739	-0.000055
 781	7.7610e+01	8.9388	15.978826	0.000140	1.398000	0.473655	-0.000057
 782	7.7710e+01	8.8971	15.924650	0.000133	1.328100	0.449972	-0.000054
 783	7.7809e+01	8.8650	15.866400	0.000143	1.427957	0.483805	-0.000059
 784	7.7909e+01	8.8201	15.813038	0.000131	1.308128	0.443206	-0.000054
 785	7.8008e+01	8.7752	15.753973	0.000145	1.447928	0.490571	-0.000059
 786	7.8108e+01	8.7559	15.701019	0.000130	1.298142	0.439823	-0.000053
 787	7.8207e+01	8.6821	15.639103	0.000152	1.517828	0.514254	-0.000062
 788	7.8306e+01	8.6147	15.586148	0.000130	1.298142	0.439823	-0.000053
 789	7.8406e+01	8.6324	15.529120	-0.000140	-1.398000	-0.473655	-0.000057
 790	7.8505e+01	8.6035	15.473722	0.000136	1.358057	0.460122	-0.000056
 791	7.8605e+01	8.5297	15.416286	0.000141	1.407985	0.477038	-0.000058
 792	7.8704e+01	8.4992	15.359258	0.000140	1.398000	0.473655	-0.000057
 793	7.8804e+01	8.4367	15.302638	0.000139	1.388014	0.470272	-0.000057
 794	7.8903e+01	8.4190	15.245610	0.000140	1.398000	0.473655	-0.000057
 795	7.9003e+01	8.3869	15.191840	0.000132	1.318114	0.446589	-0.000054
 796	7.9103e+01	8.3420	15.132368	0.000146	1.457914	0.493955	-0.000060
 797	7.9202e+01	8.2778	15.075748	0.000139	1.388014	0.470272	-0.000057
 798	7.9302e+01	8.2490	15.019535	0.000138	1.378028	0.466889	-0.000056
 799	7.9401e+01	8.2329	14.965358	0.000133	1.328100	0.449972	-0.000054
 800	7.9501e+01	8.1688	14.908737	0.000139	1.388014	0.470272	-0.000057
 801	7.9600e+01	8.1319	14.850895	0.000142	1.417971	0.480422	-0.000058
 802	7.9700e+01	8.1206	14.792645	0.000143	1.427957	0.483805	-0.000059
 803	7.9799e+01	8.0500	14.740505	0.000128	1.278171	0.433056	-0.000052
 804	7.9898e+01	8.0051	14.679811	0.000149	1.487871	0.504104	-0.000061
 805	7.9998e+01	7.9923	14.627671	0.000128	1.278171	0.433056	-0.000052
 806	8.0097e+01	7.9313	14.571050	0.000139	1.388014	0.470272	-0.000057
 807	8.0197e+01	7.9121	14.516874	0.000133	1.328100	0.449972	-0.000054
 808	8.0296e+01	7.8543	14.458217	0.000144	1.437942	0.487188	-0.000059
 809	8.0396e+01	7.8303	14.401189	0.000140	1.398000	0.473655	-0.000057
 810	8.0496e+01	7.7773	14.341309	0.000147	1.467900	0.497338	-0.000060
 811	8.0595e+01	7.7356	14.285503	0.000137	1.368042	0.463505	-0.000056
 812	8.0695e+01	7.6795	14.230512	0.000135	1.348071	0.456739	-0.000055
 813	8.0794e+01	7.6827	14.175521	-0.000135	-1.348071	-0.456739	-0.000055
 814	8.0894e+01	7.6297	14.114419	0.000150	1.497857	0.507488	-0.000061
 815	8.0993e+01	7.5736	14.057391	0.000140	1.398000	0.473655	-0.000057
 816	8.1093e+01	7.5415	13.999549	0.000142	1.417971	0.480422	-0.000058
 817	8.1192e+01	7.5110	13.945372	0.000133	1.328100	0.449972	-0.000054
 818	8.1291e+01	7.4597	13.886308	0.000145	1.447928	0.490571	-0.000059
 819	8.1391e+01	7.4196	13.831316	0.000135	1.348071	0.456739	-0.000055
 820	8.1490e+01	7.3714	13.768993	0.000153	1.527814	0.517637	-0.000063
 821	8.1590e+01	7.3634	13.714409	0.000134	1.338085	0.453356	-0.000055
 822	8.1689e+01	7.3169	13.653715	0.000149	1.487871	0.504104	-0.000061
 823	8.1789e+01	7.2559	13.596687	0.000140	1.398000	0.473655	-0.000057
 824	8.1888e+01	7.2094	13.538844	0.000142	1.417971	0.480422	-0.000058
 825	8.1988e+01	7.1629	13.482631	0.000138	1.378028	0.466889	-0.000056
 826	8.2088e+01	7.1533	13.423974	0.000144	1.437942	0.487188	-0.000059
 827	8.2187e+01	7.1132	13.363687	0.000148	1.477885	0.500721	-0.000061
 828	8.2287e+01	7.0474	13.304622	0.000145	1.447928	0.490571	-0.000059
 829	8.2386e+01	7.0281	13.246780	0.000142	1.417971	0.480422	-0.000058
 830	8.2486e+01	6.9688	13.192603	0.000133	1.328100	0.449972	-0.000054
 831	8.2585e+01	6.9319	13.131909	0.000149	1.487871	0.504104	-0.000061
 832	8.2684e+01	6.8934	13.073659	0.000143	1.427957	0.483805	-0.000059
 833	8.2784e+01	6.8565	13.014187	0.000146	1.457914	0.493955	-0.000060
 834	8.2883e+01	6.8421	12.962455	0.000127	1.268185	0.429673	-0.000052
 835	8.2983e+01	6.7586	12.902168	0.000148	1.477885	0.500721	-0.000061
 836	8.3082e+01	6.7442	12.845955	0.000138	1.378028	0.466889	-0.000056
 837	8.3182e+01	6.6848	12.788927	0.000140	1.398000	0.473655	-0.000057
 838	8.3281e+01	6.6560	12.732306	0.000139	1.388014	0.470272	-0.000057
 839	8.3381e+01	6.6431	12.674871	0.000141	1.407985	0.477038	-0.000058
 840	8.3481e+01	6.5758	12.617843	0.000140	1.398000	0.473655	-0.000057
 841	8.3580e+01	6.5356	12.560000	0.000142	1.417971	0.480422	-0.000058
 842	8.3680e+01	6.5068	12.500121	0.000147	1.467900	0.497338	-0.000060
 843	8.3779e+01	6.4635	12.453276	0.000115	1.148357	0.389074	-0.000047
 844	8.3879e+01	6.4217	12.395841	0.000141	1.407985	0.477038	-0.000058
 845	8.3978e+01	6.3720	12.337999	0.000142	1.417971	0.480422	-0.000058
 846	8.4078e+01	6.3800	12.282193	-0.000137	-1.368042	-0.463505	-0.000056
 847	8.4177e+01	6.3078	12.223535	0.000144	1.437942	0.487188	-0.000059
 848	8.4276e+01	6.2581	12.170173	0.000131	1.308128	0.443206	-0.000054
 849	8.4376e+01	6.2260	12.111109	0.000145	1.447928	0.490571	-0.000059
 850	8.4475e+01	6.2068	12.050415	0.000149	1.487871	0.504104	-0.000061
 851	8.4575e+01	6.1554	11.993794	0.000139	1.388014	0.470272	-0.000057
 852	8.4674e+01	6.1089	11.933100	0.000149	1.487871	0.504104	-0.000061
 853	8.4774e+01	6.0720	11.876887	0.000138	1.378028	0.466889	-0.000056
 854	8.4874e+01	6.0271	11.817007	0.000147	1.467900	0.497338	-0.000060
 855	8.4973e+01	5.9485	11.757943	0.000145	1.447928	0.490571	-0.000059
 856	8.5073e+01	5.9405	11.698878	0.000145	1.447928	0.490571	-0.000059
 857	8.5172e+01	5.9244	11.637777	0.000150	1.497857	0.507488	-0.000061
 858	8.5272e+01	5.8795	11.574639	0.000155	1.547785	0.524404	-0.000063
 859	8.5371e+01	5.8025	11.515574	0.000145	1.447928	0.490571	-0.000059
 860	8.5471e+01	5.7897	11.452436	0.000155	1.547785	0.524404	-0.000063
 861	8.5570e+01	5.7079	11.388483	0.000157	1.567757	0.531170	-0.000064
 862	8.5669e+01	5.7303	11.326974	-0.000151	-1.507842	-0.510871	-0.000062
 863	8.5769e+01	5.6662	11.269539	0.000141	1.407985	0.477038	-0.000058
 864	8.5868e+01	5.6260	11.199883	0.000171	1.707557	0.578536	-0.000070
 865	8.5968e+01	5.5924	11.139597	0.000148	1.477885	0.500721	-0.000061
 866	8.6067e+01	5.5330	11.074015	0.000161	1.607699	0.544703	-0.000066
 867	8.6167e+01	5.4961	11.012099	0.000152	1.517828	0.514254	-0.000062
 868	8.6266e+01	5.4929	10.949368	0.000154	1.537799	0.521021	-0.000063
 869	8.6366e+01	5.4448	10.886637	0.000154	1.537799	0.521021	-0.000063
 870	8.6466e+01	5.3966	10.816574	0.000172	1.717542	0.581919	-0.000070
 871	8.6565e+01	5.3565	10.755880	0.000149	1.487871	0.504104	-0.000061
 872	8.6665e+01	5.3068	10.691927	0.000157	1.567757	0.531170	-0.000064
 873	8.6764e+01	5.2715	10.627975	0.000157	1.567757	0.531170	-0.000064
 874	8.6864e+01	5.2298	10.561985	0.000162	1.617685	0.548087	-0.000066
 875	8.6963e+01	5.1945	10.496810	0.000160	1.597714	0.541320	-0.000066
 876	8.7063e+01	5.1271	10.428377	0.000168	1.677599	0.568386	-0.000069
 877	8.7162e+01	5.0999	10.362795	0.000161	1.607699	0.544703	-0.000066
 878	8.7261e+01	5.0870	10.299249	0.000156	1.557771	0.527787	-0.000064
 879	8.7361e+01	5.0020	10.235704	0.000156	1.557771	0.527787	-0.000064
 880	8.7460e+01	4.9940	10.169714	0.000162	1.617685	0.548087	-0.000066
 881	8.7560e+01	4.9619	10.103317	0.000163	1.627671	0.551470	-0.000067
 882	8.7659e+01	4.9410	10.039772	0.000156	1.557771	0.527787	-0.000064
 883	8.7759e+01	4.8672	9.968487	0.000175	1.747499	0.592069	-0.000072
 884	8.7859e+01	4.8031	9.908200	0.000148	1.477885	0.500721	-0.000061
 885	8.7958e+01	4.7951	9.836508	0.000176	1.757485	0.595452	-0.000072
 886	8.8058e+01	4.7646	9.768889	0.000166	1.657628	0.561620	-0.000068
 887	8.8157e+01	4.7261	9.703307	0.000161	1.607699	0.544703	-0.000066
 888	8.8257e+01	4.6667	9.640169	0.000155	1.547785	0.524404	-0.000063
 889	8.8356e+01	4.6362	9.570106	0.000172	1.717542	0.581919	-0.000070
 890	8.8456e+01	4.5881	9.503709	0.000163	1.627671	0.551470	-0.000067
 891	8.8555e+01	4.5817	9.435276	0.000168	1.677599	0.568386	-0.000069
 892	8.8654e+01	4.5191	9.362769	0.000178	1.777457	0.602219	-0.000073
 893	8.8754e+01	4.4902	9.293520	0.000170	1.697571	0.575153	-0.000070
 894	8.8853e+01	4.4100	9.227938	0.000161	1.607699	0.544703	-0.000066
 895	8.8953e+01	4.3876	9.160727	0.000165	1.647642	0.558236	-0.000068
 896	8.9052e+01	4.3475	9.093922	0.000164	1.637657	0.554853	-0.000067
 897	8.9152e+01	4.3186	9.020193	0.000181	1.807414	0.612368	-0.000074
 898	8.9251e+01	4.2641	8.954204	0.000162	1.617685	0.548087	-0.000066
 899	8.9351e+01	4.2368	8.886992	0.000165	1.647642	0.558236	-0.000068
 900	8.9451e+01	4.1919	8.814893	0.000177	1.767471	0.598835	-0.000072
 901	8.9550e+01	4.1453	8.745645	0.000170	1.697571	0.575153	-0.000070
 902	8.9650e+01	4.1405	8.673545	0.000177	1.767471	0.598835	-0.000072
 903	8.9749e+01	4.0908	8.605926	0.000166	1.657628	0.561620	-0.000068
 904	8.9849e+01	4.0090	8.536271	0.000171	1.707557	0.578536	-0.000070
 905	8.9948e+01	3.9994	8.468652	0.000166	1.657628	0.561620	-0.000068
 906	9.0047e+01	3.9673	8.397774	0.000174	1.737514	0.588686	-0.000071
 907	9.0147e+01	3.9143	8.326896	0.000174	1.737514	0.588686	-0.000071
 908	9.0246e+01	3.8967	8.257241	0.000171	1.707557	0.578536	-0.000070
 909	9.0346e+01	3.8662	8.190437	0.000164	1.637657	0.554853	-0.000067
 910	9.0445e+01	3.8181	8.116300	0.000182	1.817399	0.615752	-0.000075
 911	9.0545e+01	3.7507	8.045015	0.000175	1.747499	0.592069	-0.000072
 912	9.0644e+01	3.6897	7.972916	0.000177	1.767471	0.598835	-0.000072
 913	9.0744e+01	3.6945	7.905704	-0.000165	-1.647642	-0.558236	-0.000068
 914	9.0844e+01	3.6384	7.830346	0.000185	1.847357	0.625901	-0.000076
 915	9.0943e+01	3.5726	7.763134	0.000165	1.647642	0.558236	-0.000068
 916	9.1043e+01	3.5630	7.687776	0.000185	1.847357	0.625901	-0.000076
 917	9.1142e+01	3.5309	7.618120	0.000171	1.707557	0.578536	-0.000070
 918	9.1242e+01	3.4908	7.538281	0.000196	1.957199	0.663117	-0.000080
 919	9.1341e+01	3.4331	7.470255	0.000167	1.667614	0.565003	-0.000068
 920	9.1441e+01	3.3785	7.391231	0.000194	1.937228	0.656351	-0.000079
 921	9.1540e+01	3.3528	7.317502	0.000181	1.807414	0.612368	-0.000074
 922	9.1639e+01	3.3079	7.242551	0.000184	1.837371	0.622518	-0.000075
 923	9.1739e+01	3.2630	7.167600	0.000184	1.837371	0.622518	-0.000075
 924	9.1838e+01	3.2293	7.095500	0.000177	1.767471	0.598835	-0.000072
 925	9.1938e+01	3.2020	7.018512	0.000189	1.887299	0.639434	-0.000077
 926	9.2037e+01	3.1635	6.944783	0.000181	1.807414	0.612368	-0.000074
 927	9.2137e+01	3.1331	6.866981	0.000191	1.907271	0.646201	-0.000078
 928	9.2237e+01	3.0609	6.787956	0.000194	1.937228	0.656351	-0.000079
 929	9.2336e+01	3.0224	6.710969	0.000189	1.887299	0.639434	-0.000077
 930	9.2436e+01	2.9775	6.633981	0.000189	1.887299	0.639434	-0.000077
 931	9.2535e+01	2.9791	6.557808	-0.000187	-1.867328	-0.632668	-0.000077
 932	9.2635e+01	2.9085	6.484486	0.000180	1.797428	0.608985	-0.000074
 933	9.2734e+01	2.8636	6.403425	0.000199	1.987156	0.673267	-0.000081
 934	9.2834e+01	2.8379	6.327659	0.000186	1.857342	0.629285	-0.000076
 935	9.2933e+01	2.8058	6.251893	0.000186	1.857342	0.629285	-0.000076
 936	9.3032e+01	2.7400	6.176942	0.000184	1.837371	0.622518	-0.000075
 937	9.3132e+01	2.7368	6.098733	0.000192	1.917256	0.649584	-0.000079
 938	9.3231e+01	2.6823	6.020116	0.000193	1.927242	0.652967	-0.000079
 939	9.3331e+01	2.6630	5.947201	0.000179	1.787442	0.605602	-0.000073
 940	9.3430e+01	2.6149	5.867769	0.000195	1.947214	0.659734	-0.000080
 941	9.3530e+01	2.5571	5.789967	0.000191	1.907271	0.646201	-0.000078
 942	9.3629e+01	2.5315	5.718275	0.000176	1.757485	0.595452	-0.000072
 943	9.3729e+01	2.4625	5.640065	0.000192	1.917256	0.649584	-0.000079
 944	9.3829e+01	2.4384	5.568373	0.000176	1.757485	0.595452	-0.000072
 945	9.3928e+01	2.4047	5.488126	0.000197	1.967185	0.666500	-0.000081
 946	9.4028e+01	2.3598	5.417249	0.000174	1.737514	0.588686	-0.000071
 947	9.4127e+01	2.3342	5.337409	0.000196	1.957199	0.663117	-0.000080
 948	9.4227e+01	2.2764	5.266939	0.000173	1.727528	0.585302	-0.000071
 949	9.4326e+01	2.2395	5.190766	0.000187	1.867328	0.632668	-0.000077
 950	9.4425e+01	2.2090	5.111742	0.000194	1.937228	0.656351	-0.000079
 951	9.4525e+01	2.1577	5.039235	0.000178	1.777457	0.602219	-0.000073
 952	9.4624e+01	2.0759	4.960210	0.000194	1.937228	0.656351	-0.000079
 953	9.4724e+01	2.0422	4.882815	0.000190	1.897285	0.642818	-0.000078
 954	9.4823e+01	2.0310	4.811123	0.000176	1.757485	0.595452	-0.000072
 955	9.4923e+01	1.9909	4.730062	0.000199	1.987156	0.673267	-0.000081
 956	9.5022e+01	1.9572	4.653074	0.000189	1.887299	0.639434	-0.000077
 957	9.5122e+01	1.9203	4.576901	0.000187	1.867328	0.632668	-0.000077
 958	9.5222e+01	1.8914	4.501950	0.000184	1.837371	0.622518	-0.000075
 959	9.5321e+01	1.8449	4.424147	0.000191	1.907271	0.646201	-0.000078
 960	9.5421e+01	1.7983	4.347567	0.000188	1.877314	0.636051	-0.000077
 961	9.5520e+01	1.7775	4.277097	0.000173	1.727528	0.585302	-0.000071
 962	9.5620e+01	1.7213	4.192777	0.000207	2.067042	0.700333	-0.000085
 963	9.5719e+01	1.6780	4.117011	0.000186	1.857342	0.629285	-0.000076
 964	9.5819e+01	1.6283	4.037172	0.000196	1.957199	0.663117	-0.000080
 965	9.5918e+01	1.6010	3.961406	0.000186	1.857342	0.629285	-0.000076
 966	9.6017e+01	1.5545	3.884011	0.000190	1.897285	0.642818	-0.000078
 967	9.6117e+01	1.5449	3.807431	0.000188	1.877314	0.636051	-0.000077
 968	9.6216e+01	1.4663	3.727184	0.000197	1.967185	0.666500	-0.000081
 969	9.6316e+01	1.4358	3.651826	0.000185	1.847357	0.625901	-0.000076
 970	9.6415e+01	1.3909	3.577690	0.000182	1.817399	0.615752	-0.000075
 971	9.6515e+01	1.3732	3.494592	0.000204	2.037085	0.690183	-0.000084
 972	9.6615e+01	1.3219	3.419641	0.000184	1.837371	0.622518	-0.000075
 973	9.6714e+01	1.2994	3.335728	0.000206	2.057056	0.696950	-0.000084
 974	9.6814e+01	1.2609	3.255889	0.000196	1.957199	0.663117	-0.000080
 975	9.6913e+01	1.1919	3.178901	0.000189	1.887299	0.639434	-0.000077
 976	9.7013e+01	1.1631	3.101506	0.000190	1.897285	0.642818	-0.000078
 977	9.7112e+01	1.1422	3.022074	0.000195	1.947214	0.659734	-0.000080
 978	9.7212e+01	1.0829	2.945494	0.000188	1.877314	0.636051	-0.000077
 979	9.7311e+01	1.0572	2.859952	0.000210	2.096999	0.710483	-0.000086
 980	9.7410e+01	0.9770	2.785408	0.000183	1.827385	0.619135	-0.000075
 981	9.7510e+01	0.9770	2.706384	0.000194	1.937228	0.656351	-0.000079
 982	9.7609e+01	0.9321	2.624915	0.000200	1.997142	0.676650	-0.000082
 983	9.7709e+01	0.8518	2.546298	0.000193	1.927242	0.652967	-0.000079
 984	9.7808e+01	0.8551	2.468089	-0.000192	-1.917256	-0.649584	-0.000079
 985	9.7908e+01	0.8262	2.384176	0.000206	2.057056	0.696950	-0.000084
 986	9.8007e+01	0.7299	2.301078	0.000204	2.037085	0.690183	-0.000084
 987	9.8107e+01	0.7299	2.219610	0.000200	1.997142	0.676650	-0.000082
 988	9.8207e+01	0.6962	2.145066	0.000183	1.827385	0.619135	-0.000075
 989	9.8306e+01	0.6401	2.060339	0.000208	2.077028	0.703716	-0.000085
 990	9.8406e+01	0.6273	1.978870	0.000200	1.997142	0.676650	-0.000082
 991	9.8505e+01	0.5454	1.900660	0.000192	1.917256	0.649584	-0.000079
 992	9.8605e+01	0.5294	1.819192	0.000200	1.997142	0.676650	-0.000082
 993	9.8704e+01	0.4957	1.735279	0.000206	2.057056	0.696950	-0.000084
 994	9.8803e+01	0.4540	1.656662	0.000193	1.927242	0.652967	-0.000079
 995	9.8903e+01	0.4315	1.571528	0.000209	2.087014	0.707099	-0.000086
 996	9.9002e+01	0.3497	1.491688	0.000196	1.957199	0.663117	-0.000080
 997	9.9102e+01	0.3144	1.413479	0.000192	1.917256	0.649584	-0.000079
 998	9.9201e+01	0.3048	1.331603	0.000201	2.007128	0.680033	-0.000082
 999	9.9301e+01	0.2695	1.246876	0.000208	2.077028	0.703716	-0.000085
1000	9.9400e+01	0.1861	1.162556	0.000207	2.067042	0.700333	-0.000085
1001	9.9500e+01	0.1396	1.084346	0.000192	1.917256	0.649584	-0.000079
1002	9.9600e+01	0.1332	1.002877	0.000200	1.997142	0.676650	-0.000082
1003	9.9699e+01	0.0802	0.919779	0.000204	2.037085	0.690183	-0.000084
1004	9.9799e+01	0.0449	0.839533	0.000197	1.967185	0.666500	-0.000081
1005	9.9898e+01	0.0289	0.778432	0.000150	1.497857	0.507488	-0.000061
1006	9.9998e+01	-0.0449	0.695334	0.000204	2.037085	0.690183	-0.000084
1007	1.0010e+02	-0.0690	0.614273	0.000199	1.987156	0.673267	-0.000081
1008	1.0020e+02	-0.0722	0.530767	0.000205	2.047071	0.693566	-0.000084
1009	1.0030e+02	-0.1444	0.454594	0.000187	1.867328	0.632668	-0.000077
1010	1.0040e+02	-0.1765	0.373940	0.000198	1.977171	0.669884	-0.000081
1011	1.0050e+02	-0.2118	0.297767	0.000187	1.867328	0.632668	-0.000077
1012	1.0059e+02	-0.2374	0.211818	0.000211	2.106985	0.713866	-0.000086
1013	1.0069e+02	-0.3016	0.139718	0.000177	1.767471	0.598835	-0.000072
1014	1.0079e+02	-0.3385	0.056213	0.000205	2.047071	0.693566	-0.000084
1015	1.0089e+02	-0.3690	-0.024441	0.000198	1.977171	0.669884	-0.000081
1016	1.0099e+02	-0.4283	-0.109982	0.000210	2.096999	0.710483	-0.000086
1017	1.0109e+02	-0.4700	-0.189414	0.000195	1.947214	0.659734	-0.000080
1018	1.0119e+02	-0.4813	-0.273327	0.000206	2.057056	0.696950	-0.000084
1019	1.0129e+02	-0.4973	-0.349907	0.000188	1.877314	0.636051	-0.000077
1020	1.0139e+02	-0.5791	-0.434227	0.000207	2.067042	0.700333	-0.000085
1021	1.0149e+02	-0.6064	-0.519769	0.000210	2.096999	0.710483	-0.000086
1022	1.0159e+02	-0.6433	-0.600423	0.000198	1.977171	0.669884	-0.000081
1023	1.0169e+02	-0.6770	-0.681484	0.000199	1.987156	0.673267	-0.000081
1024	1.0179e+02	-0.7492	-0.767026	0.000210	2.096999	0.710483	-0.000086
1025	1.0189e+02	-0.7797	-0.851753	0.000208	2.077028	0.703716	-0.000085
1026	1.0199e+02	-0.8133	-0.932814	0.000199	1.987156	0.673267	-0.000081
1027	1.0209e+02	-0.8695	-1.013876	0.000199	1.987156	0.673267	-0.000081
1028	1.0219e+02	-0.9096	-1.103491	0.000220	2.196856	0.744315	-0.000090
1029	1.0229e+02	-0.9289	-1.191884	0.000217	2.166899	0.734165	-0.000089
1030	1.0239e+02	-0.9722	-1.272945	0.000199	1.987156	0.673267	-0.000081
1031	1.0248e+02	-1.0010	-1.362561	0.000220	2.196856	0.744315	-0.000090
1032	1.0258e+02	-1.0444	-1.441178	0.000193	1.927242	0.652967	-0.000079
1033	1.0268e+02	-1.0893	-1.529164	0.000216	2.156914	0.730782	-0.000088
1034	1.0278e+02	-1.1550	-1.617965	0.000218	2.176885	0.737549	-0.000089
1035	1.0288e+02	-1.1647	-1.701470	0.000205	2.047071	0.693566	-0.000084
1036	1.0298e+02	-1.1919	-1.779272	0.000191	1.907271	0.646201	-0.000078
1037	1.0308e+02	-1.2689	-1.868073	0.000218	2.176885	0.737549	-0.000089
1038	1.0318e+02	-1.2914	-1.949949	0.000201	2.007128	0.680033	-0.000082
1039	1.0328e+02	-1.3395	-2.038749	0.000218	2.176885	0.737549	-0.000089
1040	1.0338e+02	-1.4085	-2.123477	0.000208	2.077028	0.703716	-0.000085
1041	1.0348e+02	-1.4165	-2.203723	0.000197	1.967185	0.666500	-0.000081
1042	1.0358e+02	-1.4887	-2.288858	0.000209	2.087014	0.707099	-0.000086
1043	1.0368e+02	-1.5032	-2.373992	0.000209	2.087014	0.707099	-0.000086
1044	1.0378e+02	-1.5256	-2.458720	0.000208	2.077028	0.703716	-0.000085
1045	1.0388e+02	-1.5882	-2.541410	0.000203	2.027099	0.686800	-0.000083
1046	1.0398e+02	-1.6155	-2.624508	0.000204	2.037085	0.690183	-0.000084
1047	1.0408e+02	-1.6427	-2.713309	0.000218	2.176885	0.737549	-0.000089
1048	1.0418e+02	-1.7294	-2.793963	0.000198	1.977171	0.669884	-0.000081
1049	1.0428e+02	-1.7246	-2.879504	-0.000210	-2.096999	-0.710483	-0.000086
1050	1.0438e+02	-1.7823	-2.962602	0.000204	2.037085	0.690183	-0.000084
1051	1.0447e+02	-1.8304	-3.044478	0.000201	2.007128	0.680033	-0.000082
1052	1.0457e+02	-1.8850	-3.128391	0.000206	2.057056	0.696950	-0.000084
1053	1.0467e+02	-1.9010	-3.214747	0.000212	2.116971	0.717249	-0.000087
1054	1.0477e+02	-1.9475	-3.300289	0.000210	2.096999	0.710483	-0.000086
1055	1.0487e+02	-1.9780	-3.383795	0.000205	2.047071	0.693566	-0.000084
1056	1.0497e+02	-2.0245	-3.467707	0.000206	2.057056	0.696950	-0.000084
1057	1.0507e+02	-2.0245	-3.551212	0.000205	2.047071	0.693566	-0.000084
1058	1.0517e+02	-2.0711	-3.635532	0.000207	2.067042	0.700333	-0.000085
1059	1.0527e+02	-2.1352	-3.717815	0.000202	2.017114	0.683417	-0.000083
1060	1.0537e+02	-2.1609	-3.796433	0.000193	1.927242	0.652967	-0.000079
1061	1.0547e+02	-2.2042	-3.882382	0.000211	2.106985	0.713866	-0.000086
1062	1.0557e+02	-2.2716	-3.966294	0.000206	2.057056	0.696950	-0.000084
1063	1.0567e+02	-2.2908	-4.043282	0.000189	1.887299	0.639434	-0.000077
1064	1.0577e+02	-2.3149	-4.130046	0.000213	2.126956	0.720632	-0.000087
1065	1.0587e+02	-2.3823	-4.209885	0.000196	1.957199	0.663117	-0.000080
1066	1.0597e+02	-2.4080	-4.290539	0.000198	1.977171	0.669884	-0.000081
1067	1.0607e+02	-2.4593	-4.364675	0.000182	1.817399	0.615752	-0.000075
1068	1.0617e+02	-2.5122	-4.452254	0.000215	2.146928	0.727399	-0.000088
1069	1.0627e+02	-2.5219	-4.533315	0.000199	1.987156	0.673267	-0.000081
1070	1.0637e+02	-2.5748	-4.613969	0.000198	1.977171	0.669884	-0.000081
1071	1.0647e+02	-2.6374	-4.693401	0.000195	1.947214	0.659734	-0.000080
1072	1.0656e+02	-2.6534	-4.769981	0.000188	1.877314	0.636051	-0.000077
1073	1.0666e+02	-2.6983	-4.848598	0.000193	1.927242	0.652967	-0.000079
1074	1.0676e+02	-2.7079	-4.932918	0.000207	2.067042	0.700333	-0.000085
1075	1.0686e+02	-2.7994	-5.011943	0.000194	1.937228	0.656351	-0.000079
1076	1.0696e+02	-2.7962	-5.088930	-0.000189	-1.887299	-0.639434	-0.000077
1077	1.0706e+02	-2.8796	-5.165918	0.000189	1.887299	0.639434	-0.000077
1078	1.0716e+02	-2.8796	-5.245757	0.000196	1.957199	0.663117	-0.000080
1079	1.0726e+02	-2.9390	-5.329263	0.000205	2.047071	0.693566	-0.000084
1080	1.0736e+02	-2.9197	-5.402992	-0.000181	-1.807414	-0.612368	-0.000074
1081	1.0746e+02	-3.0352	-5.485682	0.000203	2.027099	0.686800	-0.000083
1082	1.0756e+02	-3.0320	-5.563892	-0.000192	-1.917256	-0.649584	-0.000079
1083	1.0766e+02	-3.1010	-5.638843	0.000184	1.837371	0.622518	-0.000075
1084	1.0776e+02	-3.1202	-5.715016	0.000187	1.867328	0.632668	-0.000077
1085	1.0786e+02	-3.1748	-5.794448	0.000195	1.947214	0.659734	-0.000080
1086	1.0796e+02	-3.2020	-5.872250	0.000191	1.907271	0.646201	-0.000078
1087	1.0806e+02	-3.2694	-5.957385	0.000209	2.087014	0.707099	-0.000086
1088	1.0816e+02	-3.2935	-6.033965	0.000188	1.877314	0.636051	-0.000077
1089	1.0826e+02	-3.3159	-6.112990	0.000194	1.937228	0.656351	-0.000079
1090	1.0836e+02	-3.3817	-6.187533	0.000183	1.827385	0.619135	-0.000075
1091	1.0845e+02	-3.3946	-6.268187	0.000198	1.977171	0.669884	-0.000081
1092	1.0855e+02	-3.4764	-6.345175	0.000189	1.887299	0.639434	-0.000077
1093	1.0865e+02	-3.5357	-6.421755	0.000188	1.877314	0.636051	-0.000077
1094	1.0875e+02	-3.5085	-6.501187	-0.000195	-1.947214	-0.659734	-0.000080
1095	1.0885e+02	-3.5823	-6.580619	0.000195	1.947214	0.659734	-0.000080
1096	1.0895e+02	-3.5951	-6.659236	0.000193	1.927242	0.652967	-0.000079
1097	1.0905e+02	-3.6544	-6.741927	0.000203	2.027099	0.686800	-0.000083
1098	1.0915e+02	-3.6833	-6.814026	0.000177	1.767471	0.598835	-0.000072
1099	1.0925e+02	-3.7330	-6.898346	0.000207	2.067042	0.700333	-0.000085
1100	1.0935e+02	-3.7459	-6.961892	0.000156	1.557771	0.527787	-0.000064
1101	1.0945e+02	-3.7892	-7.043767	0.000201	2.007128	0.680033	-0.000082
1102	1.0955e+02	-3.8550	-7.114645	0.000174	1.737514	0.588686	-0.000071
1103	1.0965e+02	-3.8887	-7.196521	0.000201	2.007128	0.680033	-0.000082
1104	1.0975e+02	-3.9111	-7.272287	0.000186	1.857342	0.629285	-0.000076
1105	1.0985e+02	-3.9464	-7.348052	0.000186	1.857342	0.629285	-0.000076
1106	1.0995e+02	-4.0282	-7.416893	0.000169	1.687585	0.571769	-0.000069
1107	1.1005e+02	-4.0603	-7.497140	0.000197	1.967185	0.666500	-0.000081
1108	1.1015e+02	-4.0876	-7.566388	0.000170	1.697571	0.575153	-0.000070
1109	1.1025e+02	-4.1469	-7.640117	0.000181	1.807414	0.612368	-0.000074
1110	1.1035e+02	-4.1614	-7.710180	0.000172	1.717542	0.581919	-0.000070
1111	1.1044e+02	-4.1903	-7.779021	0.000169	1.687585	0.571769	-0.000069
1112	1.1054e+02	-4.2432	-7.853157	0.000182	1.817399	0.615752	-0.000075
1113	1.1064e+02	-4.2785	-7.925257	0.000177	1.767471	0.598835	-0.000072
1114	1.1074e+02	-4.3362	-7.994098	0.000169	1.687585	0.571769	-0.000069
1115	1.1084e+02	-4.3346	-8.062938	-0.000169	-1.687585	-0.571769	-0.000069
1116	1.1094e+02	-4.3892	-8.133001	0.000172	1.717542	0.581919	-0.000070
1117	1.1104e+02	-4.4213	-8.203472	0.000173	1.727528	0.585302	-0.000071
1118	1.1114e+02	-4.4935	-8.275571	0.000177	1.767471	0.598835	-0.000072
1119	1.1124e+02	-4.5368	-8.341968	0.000163	1.627671	0.551470	-0.000067
1120	1.1134e+02	-4.5689	-8.407143	0.000160	1.597714	0.541320	-0.000066
1121	1.1144e+02	-4.6186	-8.473947	0.000164	1.637657	0.554853	-0.000067
1122	1.1154e+02	-4.6603	-8.551342	0.000190	1.897285	0.642818	-0.000078
1123	1.1164e+02	-4.6924	-8.616110	0.000159	1.587728	0.537937	-0.000065
1124	1.1174e+02	-4.7213	-8.679655	0.000156	1.557771	0.527787	-0.000064
1125	1.1184e+02	-4.7501	-8.750940	0.000175	1.747499	0.592069	-0.000072
1126	1.1194e+02	-4.7806	-8.814485	0.000156	1.557771	0.527787	-0.000064
1127	1.1204e+02	-4.8512	-8.884548	0.000172	1.717542	0.581919	-0.000070
1128	1.1214e+02	-4.8945	-8.954611	0.000172	1.717542	0.581919	-0.000070
1129	1.1224e+02	-4.9106	-9.016120	0.000151	1.507842	0.510871	-0.000062
1130	1.1234e+02	-4.9603	-9.084554	0.000168	1.677599	0.568386	-0.000069
1131	1.1244e+02	-5.0116	-9.156246	0.000176	1.757485	0.595452	-0.000072
1132	1.1253e+02	-5.0485	-9.221421	0.000160	1.597714	0.541320	-0.000066
1133	1.1263e+02	-5.0838	-9.288632	0.000165	1.647642	0.558236	-0.000068
1134	1.1273e+02	-5.1079	-9.347290	0.000144	1.437942	0.487188	-0.000059
1135	1.1283e+02	-5.1865	-9.419389	0.000177	1.767471	0.598835	-0.000072
1136	1.1293e+02	-5.1945	-9.479676	0.000148	1.477885	0.500721	-0.000061
1137	1.1303e+02	-5.2266	-9.546887	0.000165	1.647642	0.558236	-0.000068
1138	1.1313e+02	-5.2667	-9.608396	0.000151	1.507842	0.510871	-0.000062
1139	1.1323e+02	-5.3469	-9.676422	0.000167	1.667614	0.565003	-0.000068
1140	1.1333e+02	-5.3934	-9.738746	0.000153	1.527814	0.517637	-0.000063
1141	1.1343e+02	-5.3982	-9.805957	0.000165	1.647642	0.558236	-0.000068
1142	1.1353e+02	-5.4239	-9.862985	0.000140	1.398000	0.473655	-0.000057
1143	1.1363e+02	-5.4945	-9.933455	0.000173	1.727528	0.585302	-0.000071
1144	1.1373e+02	-5.5298	-9.995372	0.000152	1.517828	0.514254	-0.000062
1145	1.1383e+02	-5.5506	-10.060546	0.000160	1.597714	0.541320	-0.000066
1146	1.1393e+02	-5.6020	-10.120426	0.000147	1.467900	0.497338	-0.000060
1147	1.1403e+02	-5.6405	-10.183971	0.000156	1.557771	0.527787	-0.000064
1148	1.1413e+02	-5.6678	-10.245887	0.000152	1.517828	0.514254	-0.000062
1149	1.1423e+02	-5.7319	-10.310247	0.000158	1.577742	0.534554	-0.000065
1150	1.1433e+02	-5.7480	-10.378681	0.000168	1.677599	0.568386	-0.000069
1151	1.1442e+02	-5.7977	-10.435301	0.000139	1.388014	0.470272	-0.000057
1152	1.1452e+02	-5.8458	-10.497625	0.000153	1.527814	0.517637	-0.000063
1153	1.1462e+02	-5.8923	-10.565244	0.000166	1.657628	0.561620	-0.000068
1154	1.1472e+02	-5.9308	-10.621050	0.000137	1.368042	0.463505	-0.000056
1155	1.1482e+02	-5.9613	-10.683780	0.000154	1.537799	0.521021	-0.000063
1156	1.1492e+02	-5.9806	-10.747326	0.000156	1.557771	0.527787	-0.000064
1157	1.1502e+02	-6.0640	-10.812093	0.000159	1.587728	0.537937	-0.000065
1158	1.1512e+02	-6.0929	-10.873602	0.000151	1.507842	0.510871	-0.000062
1159	1.1522e+02	-6.1234	-10.934296	0.000149	1.487871	0.504104	-0.000061
1160	1.1532e+02	-6.1731	-10.994583	0.000148	1.477885	0.500721	-0.000061
1161	1.1542e+02	-6.1811	-11.058536	0.000157	1.567757	0.531170	-0.000064
1162	1.1552e+02	-6.2453	-11.121674	0.000155	1.547785	0.524404	-0.000063
1163	1.1562e+02	-6.2645	-11.179109	0.000141	1.407985	0.477038	-0.000058
1164	1.1572e+02	-6.3239	-11.241432	0.000153	1.527814	0.517637	-0.000063
1165	1.1582e+02	-6.3704	-11.298460	0.000140	1.398000	0.473655	-0.000057
1166	1.1592e+02	-6.3720	-11.364043	0.000161	1.607699	0.544703	-0.000066
1167	1.1602e+02	-6.4137	-11.418219	0.000133	1.328100	0.449972	-0.000054
1168	1.1612e+02	-6.4763	-11.474840	0.000139	1.388014	0.470272	-0.000057
1169	1.1622e+02	-6.5164	-11.532275	0.000141	1.407985	0.477038	-0.000058
1170	1.1632e+02	-6.5741	-11.592562	0.000148	1.477885	0.500721	-0.000061
1171	1.1642e+02	-6.5902	-11.649182	0.000139	1.388014	0.470272	-0.000057
1172	1.1651e+02	-6.6624	-11.710691	0.000151	1.507842	0.510871	-0.000062
1173	1.1661e+02	-6.6752	-11.766904	0.000138	1.378028	0.466889	-0.000056
1174	1.1671e+02	-6.6929	-11.827191	0.000148	1.477885	0.500721	-0.000061
1175	1.1681e+02	-6.7474	-11.881775	0.000134	1.338085	0.453356	-0.000055
1176	1.1691e+02	-6.7955	-11.940840	0.000145	1.447928	0.490571	-0.000059
1177	1.1701e+02	-6.8437	-11.996645	0.000137	1.368042	0.463505	-0.000056
1178	1.1711e+02	-6.8757	-12.051637	0.000135	1.348071	0.456739	-0.000055
1179	1.1721e+02	-6.9319	-12.108257	0.000139	1.388014	0.470272	-0.000057
1180	1.1731e+02	-6.9415	-12.162841	0.000134	1.338085	0.453356	-0.000055
1181	1.1741e+02	-7.0025	-12.221091	0.000143	1.427957	0.483805	-0.000059
1182	1.1751e+02	-7.0297	-12.274860	0.000132	1.318114	0.446589	-0.000054
1183	1.1761e+02	-7.0682	-12.330666	0.000137	1.368042	0.463505	-0.000056
1184	1.1771e+02	-7.0795	-12.388102	0.000141	1.407985	0.477038	-0.000058
1185	1.1781e+02	-7.1276	-12.445537	0.000141	1.407985	0.477038	-0.000058
1186	1.1791e+02	-7.1934	-12.497677	0.000128	1.278171	0.433056	-0.000052
1187	1.1801e+02	-7.2351	-12.555927	0.000143	1.427957	0.483805	-0.000059
1188	1.1811e+02	-7.2559	-12.617436	0.000151	1.507842	0.510871	-0.000062
1189	1.1821e+02	-7.3105	-12.671205	0.000132	1.318114	0.446589	-0.000054
1190	1.1831e+02	-7.3346	-12.729047	0.000142	1.417971	0.480422	-0.000058
1191	1.1841e+02	-7.3891	-12.784446	0.000136	1.358057	0.460122	-0.000056
1192	1.1850e+02	-7.4292	-12.845547	0.000150	1.497857	0.507488	-0.000061
1193	1.1860e+02	-7.4725	-12.905834	0.000148	1.477885	0.500721	-0.000061
1194	1.1870e+02	-7.5255	-12.958789	0.000130	1.298142	0.439823	-0.000053
1195	1.1880e+02	-7.5431	-13.018261	0.000146	1.457914	0.493955	-0.000060
1196	1.1890e+02	-7.5768	-13.077733	0.000146	1.457914	0.493955	-0.000060
1197	1.1900e+02	-7.6057	-13.135168	0.000141	1.407985	0.477038	-0.000058
1198	1.1910e+02	-7.6442	-13.195047	0.000147	1.467900	0.497338	-0.000060
1199	1.1920e+02	-7.7276	-13.253705	0.000144	1.437942	0.487188	-0.000059
1200	1.1930e+02	-7.7436	-13.311140	0.000141	1.407985	0.477038	-0.000058
1201	1.1940e+02	-7.7629	-13.375500	0.000158	1.577742	0.534554	-0.000065
1202	1.1950e+02	-7.8399	-13.423566	0.000118	1.178314	0.399224	-0.000048
1203	1.1960e+02	-7.8816	-13.483038	0.000146	1.457914	0.493955	-0.000060
1204	1.1970e+02	-7.8912	-13.544140	0.000150	1.497857	0.507488	-0.000061
1205	1.1980e+02	-7.9426	-13.607685	0.000156	1.557771	0.527787	-0.000064
1206	1.1990e+02	-7.9811	-13.663899	0.000138	1.378028	0.466889	-0.000056
1207	1.2000e+02	-8.0484	-13.720519	0.000139	1.388014	0.470272	-0.000057
1208	1.2010e+02	-8.0869	-13.777140	0.000139	1.388014	0.470272	-0.000057
1209	1.2020e+02	-8.1303	-13.836204	0.000145	1.447928	0.490571	-0.000059
1210	1.2030e+02	-8.1463	-13.898528	0.000153	1.527814	0.517637	-0.000063
1211	1.2039e+02	-8.1880	-13.953519	0.000135	1.348071	0.456739	-0.000055
1212	1.2049e+02	-8.1880	-14.012176	0.000144	1.437942	0.487188	-0.000059
1213	1.2059e+02	-8.2794	-14.068390	0.000138	1.378028	0.466889	-0.000056
1214	1.2069e+02	-8.3179	-14.127454	0.000145	1.447928	0.490571	-0.000059
1215	1.2079e+02	-8.3276	-14.188963	0.000151	1.507842	0.510871	-0.000062
1216	1.2089e+02	-8.3885	-14.248028	0.000145	1.447928	0.490571	-0.000059
1217	1.2099e+02	-8.4591	-14.302612	0.000134	1.338085	0.453356	-0.000055
1218	1.2109e+02	-8.4479	-14.358418	-0.000137	-1.368042	-0.463505	-0.000056
1219	1.2119e+02	-8.5121	-14.422370	0.000157	1.567757	0.531170	-0.000064
1220	1.2129e+02	-8.5650	-14.476954	0.000134	1.338085	0.453356	-0.000055
1221	1.2139e+02	-8.5666	-14.536834	0.000147	1.467900	0.497338	-0.000060
1222	1.2149e+02	-8.6516	-14.597935	0.000150	1.497857	0.507488	-0.000061
1223	1.2159e+02	-8.6789	-14.654556	0.000139	1.388014	0.470272	-0.000057
1224	1.2169e+02	-8.6998	-14.713620	0.000145	1.447928	0.490571	-0.000059
1225	1.2179e+02	-8.7415	-14.767390	0.000132	1.318114	0.446589	-0.000054
1226	1.2189e+02	-8.7703	-14.828491	0.000150	1.497857	0.507488	-0.000061
1227	1.2199e+02	-8.8169	-14.883889	0.000136	1.358057	0.460122	-0.000056
1228	1.2209e+02	-8.8730	-14.945806	0.000152	1.517828	0.514254	-0.000062
1229	1.2219e+02	-8.8971	-15.005685	0.000147	1.467900	0.497338	-0.000060
1230	1.2229e+02	-8.9580	-15.058232	0.000129	1.288157	0.436439	-0.000053
1231	1.2239e+02	-8.9917	-15.117297	0.000145	1.447928	0.490571	-0.000059
1232	1.2248e+02	-9.0479	-15.177176	0.000147	1.467900	0.497338	-0.000060
1233	1.2258e+02	-9.0784	-15.236241	0.000145	1.447928	0.490571	-0.000059
1234	1.2268e+02	-9.0960	-15.291232	0.000135	1.348071	0.456739	-0.000055
1235	1.2278e+02	-9.1538	-15.351926	0.000149	1.487871	0.504104	-0.000061
1236	1.2288e+02	-9.1939	-15.408954	0.000140	1.398000	0.473655	-0.000057
1237	1.2298e+02	-9.2243	-15.470055	0.000150	1.497857	0.507488	-0.000061
1238	1.2308e+02	-9.2757	-15.523010	0.000130	1.298142	0.439823	-0.000053
1239	1.2318e+02	-9.3078	-15.581260	0.000143	1.427957	0.483805	-0.000059
1240	1.2328e+02	-9.3302	-15.639510	0.000143	1.427957	0.483805	-0.000059
1241	1.2338e+02	-9.3751	-15.695316	0.000137	1.368042	0.463505	-0.000056
1242	1.2348e+02	-9.4281	-15.753566	0.000143	1.427957	0.483805	-0.000059
1243	1.2358e+02	-9.4698	-15.810594	0.000140	1.398000	0.473655	-0.000057
1244	1.2368e+02	-9.5035	-15.865178	0.000134	1.338085	0.453356	-0.000055
1245	1.2378e+02	-9.5500	-15.925464	0.000148	1.477885	0.500721	-0.000061
1246	1.2388e+02	-9.5981	-15.980048	0.000134	1.338085	0.453356	-0.000055
1247	1.2398e+02	-9.6495	-16.036669	0.000139	1.388014	0.470272	-0.000057
1248	1.2408e+02	-9.6511	-16.092882	0.000138	1.378028	0.466889	-0.000056
1249	1.2418e+02	-9.7281	-16.150317	0.000141	1.407985	0.477038	-0.000058
1250	1.2428e+02	-9.7409	-16.206531	0.000138	1.378028	0.466889	-0.000056
1251	1.2438e+02	-9.7746	-16.266817	0.000148	1.477885	0.500721	-0.000061
1252	1.2447e+02	-9.8083	-16.321401	0.000134	1.338085	0.453356	-0.000055
1253	1.2457e+02	-9.8660	-16.382095	0.000149	1.487871	0.504104	-0.000061
1254	1.2467e+02	-9.9158	-16.439938	0.000142	1.417971	0.480422	-0.000058
1255	1.2477e+02	-9.9222	-16.503483	0.000156	1.557771	0.527787	-0.000064
1256	1.2487e+02	-9.9751	-16.556845	0.000131	1.308128	0.443206	-0.000054
1257	1.2497e+02	-9.9960	-16.616317	0.000146	1.457914	0.493955	-0.000060
1258	1.2507e+02	-10.0746	-16.674975	0.000144	1.437942	0.487188	-0.000059
1259	1.2517e+02	-10.1243	-16.735261	0.000148	1.477885	0.500721	-0.000061
1260	1.2527e+02	-10.1500	-16.793104	0.000142	1.417971	0.480422	-0.000058
1261	1.2537e+02	-10.1740	-16.851354	0.000143	1.427957	0.483805	-0.000059
1262	1.2547e+02	-10.2254	-16.914492	0.000155	1.547785	0.524404	-0.000063
1263	1.2557e+02	-10.2543	-16.969891	0.000136	1.358057	0.460122	-0.000056
1264	1.2567e+02	-10.3457	-17.033843	0.000157	1.567757	0.531170	-0.000064
1265	1.2577e+02	-10.3425	-17.085983	-0.000128	-1.278171	-0.433056	-0.000052
1266	1.2587e+02	-10.3714	-17.147085	0.000150	1.497857	0.507488	-0.000061
1267	1.2597e+02	-10.4163	-17.208593	0.000151	1.507842	0.510871	-0.000062
1268	1.2607e+02	-10.4580	-17.266843	0.000143	1.427957	0.483805	-0.000059
1269	1.2617e+02	-10.4917	-17.319391	0.000129	1.288157	0.436439	-0.000053
1270	1.2627e+02	-10.5446	-17.378048	0.000144	1.437942	0.487188	-0.000059
1271	1.2636e+02	-10.5623	-17.437113	0.000145	1.447928	0.490571	-0.000059
1272	1.2646e+02	-10.6200	-17.497399	0.000148	1.477885	0.500721	-0.000061
1273	1.2656e+02	-10.6649	-17.549946	0.000129	1.288157	0.436439	-0.000053
1274	1.2666e+02	-10.6986	-17.604123	0.000133	1.328100	0.449972	-0.000054
1275	1.2676e+02	-10.7227	-17.660744	0.000139	1.388014	0.470272	-0.000057
1276	1.2686e+02	-10.7724	-17.721030	0.000148	1.477885	0.500721	-0.000061
1277	1.2696e+02	-10.8254	-17.775614	0.000134	1.338085	0.453356	-0.000055
1278	1.2706e+02	-10.8735	-17.824903	0.000121	1.208271	0.409373	-0.000050
1279	1.2716e+02	-10.9248	-17.883560	0.000144	1.437942	0.487188	-0.000059
1280	1.2726e+02	-10.9649	-17.936515	0.000130	1.298142	0.439823	-0.000053
1281	1.2736e+02	-10.9697	-17.991913	0.000136	1.358057	0.460122	-0.000056
1282	1.2746e+02	-11.0339	-18.048941	0.000140	1.398000	0.473655	-0.000057
1283	1.2756e+02	-11.0355	-18.099044	0.000123	1.228242	0.416140	-0.000050
1284	1.2766e+02	-11.1045	-18.151999	0.000130	1.298142	0.439823	-0.000053
1285	1.2776e+02	-11.1382	-18.204953	0.000130	1.298142	0.439823	-0.000053
1286	1.2786e+02	-11.1927	-18.258723	0.000132	1.318114	0.446589	-0.000054
1287	1.2796e+02	-11.2232	-18.313714	0.000135	1.348071	0.456739	-0.000055
1288	1.2806e+02	-11.2601	-18.366261	0.000129	1.288157	0.436439	-0.000053
1289	1.2816e+02	-11.2938	-18.417179	0.000125	1.248214	0.422906	-0.000051
1290	1.2826e+02	-11.3435	-18.472170	0.000135	1.348071	0.456739	-0.000055
1291	1.2835e+02	-11.3917	-18.523903	0.000127	1.268185	0.429673	-0.000052
1292	1.2845e+02	-11.4302	-18.580930	0.000140	1.398000	0.473655	-0.000057
1293	1.2855e+02	-11.4703	-18.630626	0.000122	1.218257	0.412757	-0.000050
1294	1.2865e+02	-11.5056	-18.681137	0.000124	1.238228	0.419523	-0.000051
1295	1.2875e+02	-11.5521	-18.733684	0.000129	1.288157	0.436439	-0.000053
1296	1.2885e+02	-11.6018	-18.786231	0.000129	1.288157	0.436439	-0.000053
1297	1.2895e+02	-11.6211	-18.835520	0.000121	1.208271	0.409373	-0.000050
1298	1.2905e+02	-11.6628	-18.888881	0.000131	1.308128	0.443206	-0.000054
1299	1.2915e+02	-11.6900	-18.943465	0.000134	1.338085	0.453356	-0.000055
1300	1.2925e+02	-11.7173	-18.991532	0.000118	1.178314	0.399224	-0.000048
1301	1.2935e+02	-11.7719	-19.045708	0.000133	1.328100	0.449972	-0.000054
1302	1.2945e+02	-11.8392	-19.101514	0.000137	1.368042	0.463505	-0.000056
1303	1.2955e+02	-11.8473	-19.155283	0.000132	1.318114	0.446589	-0.000054
1304	1.2965e+02	-11.8858	-19.198054	0.000105	1.048500	0.355241	-0.000043
1305	1.2975e+02	-11.9211	-19.253453	0.000136	1.358057	0.460122	-0.000056
1306	1.2985e+02	-11.9852	-19.301112	0.000117	1.168328	0.395840	-0.000048
1307	1.2995e+02	-12.0334	-19.351623	0.000124	1.238228	0.419523	-0.000051
1308	1.3005e+02	-12.0654	-19.404170	0.000129	1.288157	0.436439	-0.000053
1309	1.3015e+02	-12.0783	-19.455088	0.000125	1.248214	0.422906	-0.000051
1310	1.3025e+02	-12.1392	-19.508449	0.000131	1.308128	0.443206	-0.000054
1311	1.3034e+02	-12.1633	-19.553257	0.000110	1.098428	0.372158	-0.000045
1312	1.3044e+02	-12.2194	-19.609470	0.000138	1.378028	0.466889	-0.000056
1313	1.3054e+02	-12.2612	-19.658352	0.000120	1.198285	0.405990	-0.000049
1314	1.3064e+02	-12.3125	-19.707640	0.000121	1.208271	0.409373	-0.000050
1315	1.3074e+02	-12.3221	-19.759372	0.000127	1.268185	0.429673	-0.000052
1316	1.3084e+02	-12.3815	-19.806217	0.000115	1.148357	0.389074	-0.000047
1317	1.3094e+02	-12.4119	-19.858357	0.000128	1.278171	0.433056	-0.000052
1318	1.3104e+02	-12.4713	-19.913348	0.000135	1.348071	0.456739	-0.000055
1319	1.3114e+02	-12.4906	-19.955304	0.000103	1.028528	0.348475	-0.000042
1320	1.3124e+02	-12.5403	-20.007851	0.000129	1.288157	0.436439	-0.000053
1321	1.3134e+02	-12.5708	-20.057140	0.000121	1.208271	0.409373	-0.000050
1322	1.3144e+02	-12.6093	-20.105614	0.000119	1.188300	0.402607	-0.000049
1323	1.3154e+02	-12.6750	-20.157754	0.000128	1.278171	0.433056	-0.000052
1324	1.3164e+02	-12.7248	-20.206635	0.000120	1.198285	0.405990	-0.000049
1325	1.3174e+02	-12.7424	-20.254701	0.000118	1.178314	0.399224	-0.000048
1326	1.3184e+02	-12.7328	-20.312136	-0.000141	-1.407985	-0.477038	-0.000058
1327	1.3194e+02	-12.7713	-20.354907	0.000105	1.048500	0.355241	-0.000043
1328	1.3204e+02	-12.8515	-20.401752	0.000115	1.148357	0.389074	-0.000047
1329	1.3214e+02	-12.8788	-20.451040	0.000121	1.208271	0.409373	-0.000050
1330	1.3224e+02	-12.9253	-20.499921	0.000120	1.198285	0.405990	-0.000049
1331	1.3234e+02	-12.9911	-20.545136	0.000111	1.108414	0.375541	-0.000045
1332	1.3243e+02	-13.0055	-20.600942	0.000137	1.368042	0.463505	-0.000056
1333	1.3253e+02	-13.0745	-20.648194	0.000116	1.158342	0.392457	-0.000047
1334	1.3263e+02	-13.0681	-20.700334	-0.000128	-1.278171	-0.433056	-0.000052
1335	1.3273e+02	-13.1098	-20.747178	0.000115	1.148357	0.389074	-0.000047
1336	1.3283e+02	-13.1691	-20.796874	0.000122	1.218257	0.412757	-0.000050
1337	1.3293e+02	-13.1675	-20.840052	-0.000106	-1.058485	-0.358625	-0.000043
1338	1.3303e+02	-13.2445	-20.887304	0.000116	1.158342	0.392457	-0.000047
1339	1.3313e+02	-13.2863	-20.937814	0.000124	1.238228	0.419523	-0.000051
1340	1.3323e+02	-13.3312	-20.979771	0.000103	1.028528	0.348475	-0.000042
1341	1.3333e+02	-13.3761	-21.028652	0.000120	1.198285	0.405990	-0.000049
1342	1.3343e+02	-13.4098	-21.076311	0.000117	1.168328	0.395840	-0.000048
1343	1.3353e+02	-13.4387	-21.124377	0.000118	1.178314	0.399224	-0.000048
1344	1.3363e+02	-13.4611	-21.167556	0.000106	1.058485	0.358625	-0.000043
1345	1.3373e+02	-13.5028	-21.211141	0.000107	1.068471	0.362008	-0.000044
1346	1.3383e+02	-13.5461	-21.259615	0.000119	1.188300	0.402607	-0.000049
1347	1.3393e+02	-13.6264	-21.304830	0.000111	1.108414	0.375541	-0.000045
1348	1.3403e+02	-13.6408	-21.344342	0.000097	0.968614	0.328175	-0.000040
1349	1.3413e+02	-13.6953	-21.391594	0.000116	1.158342	0.392457	-0.000047
1350	1.3423e+02	-13.7274	-21.442105	0.000124	1.238228	0.419523	-0.000051
1351	1.3432e+02	-13.7386	-21.483654	0.000102	1.018543	0.345092	-0.000042
1352	1.3442e+02	-13.8429	-21.532942	0.000121	1.208271	0.409373	-0.000050
1353	1.3452e+02	-13.9039	-21.576120	0.000106	1.058485	0.358625	-0.000043
1354	1.3462e+02	-13.8686	-21.622557	-0.000114	-1.138371	-0.385691	-0.000047
1355	1.3472e+02	-13.9392	-21.669809	0.000116	1.158342	0.392457	-0.000047
1356	1.3482e+02	-13.9392	-21.712173	0.000104	1.038514	0.351858	-0.000043
1357	1.3492e+02	-14.0130	-21.762276	0.000123	1.228242	0.416140	-0.000050
1358	1.3502e+02	-14.0017	-21.805861	-0.000107	-1.068471	-0.362008	-0.000044
1359	1.3512e+02	-14.1237	-21.857187	0.000126	1.258200	0.426290	-0.000052
1360	1.3522e+02	-14.1076	-21.907290	-0.000123	-1.228242	-0.416140	-0.000050
1361	1.3532e+02	-14.1734	-21.952505	0.000111	1.108414	0.375541	-0.000045
1362	1.3542e+02	-14.2215	-22.005459	0.000130	1.298142	0.439823	-0.000053
1363	1.3552e+02	-14.2456	-22.050674	0.000111	1.108414	0.375541	-0.000045
1364	1.3562e+02	-14.2841	-22.100370	0.000122	1.218257	0.412757	-0.000050
1365	1.3572e+02	-14.3338	-22.145585	0.000111	1.108414	0.375541	-0.000045
1366	1.3582e+02	-14.3467	-22.196910	0.000126	1.258200	0.426290	-0.000052
1367	1.3592e+02	-14.3980	-22.245791	0.000120	1.198285	0.405990	-0.000049
1368	1.3602e+02	-14.4349	-22.293451	0.000117	1.168328	0.395840	-0.000048
1369	1.3612e+02	-14.4718	-22.341517	0.000118	1.178314	0.399224	-0.000048
1370	1.3622e+02	-14.5327	-22.393657	0.000128	1.278171	0.433056	-0.000052
1371	1.3631e+02	-14.5536	-22.439686	0.000113	1.128385	0.382307	-0.000046
1372	1.3641e+02	-14.6450	-22.488160	0.000119	1.188300	0.402607	-0.000049
1373	1.3651e+02	-14.6146	-22.543151	-0.000135	-1.348071	-0.456739	-0.000055
1374	1.3661e+02	-14.6803	-22.589589	0.000114	1.138371	0.385691	-0.000047
1375	1.3671e+02	-14.7301	-22.635211	0.000112	1.118400	0.378924	-0.000046
1376	1.3681e+02	-14.7381	-22.682463	0.000116	1.158342	0.392457	-0.000047
1377	1.3691e+02	-14.8007	-22.736639	0.000133	1.328100	0.449972	-0.000054
1378	1.3701e+02	-14.8712	-22.787150	0.000124	1.238228	0.419523	-0.000051
1379	1.3711e+02	-14.8825	-22.832365	0.000111	1.108414	0.375541	-0.000045
1380	1.3721e+02	-14.9402	-22.881246	0.000120	1.198285	0.405990	-0.000049
1381	1.3731e+02	-14.9691	-22.931349	0.000123	1.228242	0.416140	-0.000050
1382	1.3741e+02	-15.0044	-22.983489	0.000128	1.278171	0.433056	-0.000052
1383	1.3751e+02	-15.0381	-23.026667	0.000106	1.058485	0.358625	-0.000043
1384	1.3761e+02	-15.0830	-23.081658	0.000135	1.348071	0.456739	-0.000055
1385	1.3771e+02	-15.1215	-23.134206	0.000129	1.288157	0.436439	-0.000053
1386	1.3781e+02	-15.1600	-23.179828	0.000112	1.118400	0.378924	-0.000046
1387	1.3791e+02	-15.1857	-23.228709	0.000120	1.198285	0.405990	-0.000049
1388	1.3801e+02	-15.2049	-23.276775	0.000118	1.178314	0.399224	-0.000048
1389	1.3811e+02	-15.2771	-23.324434	0.000117	1.168328	0.395840	-0.000048
1390	1.3821e+02	-15.3076	-23.375352	0.000125	1.248214	0.422906	-0.000051
1391	1.3831e+02	-15.3686	-23.427085	0.000127	1.268185	0.429673	-0.000052
1392	1.3840e+02	-15.3958	-23.478410	0.000126	1.258200	0.426290	-0.000052
1393	1.3850e+02	-15.4616	-23.525254	0.000115	1.148357	0.389074	-0.000047
1394	1.3860e+02	-15.4905	-23.575765	0.000124	1.238228	0.419523	-0.000051
1395	1.3870e+02	-15.5514	-23.624646	0.000120	1.198285	0.405990	-0.000049
1396	1.3880e+02	-15.5787	-23.676786	0.000128	1.278171	0.433056	-0.000052
1397	1.3890e+02	-15.6092	-23.727296	0.000124	1.238228	0.419523	-0.000051
1398	1.3900e+02	-15.6316	-23.775363	0.000118	1.178314	0.399224	-0.000048
1399	1.3910e+02	-15.6990	-23.825466	0.000123	1.228242	0.416140	-0.000050
1400	1.3920e+02	-15.7183	-23.875162	0.000122	1.218257	0.412757	-0.000050
1401	1.3930e+02	-15.7504	-23.922413	0.000116	1.158342	0.392457	-0.000047
1402	1.3940e+02	-15.8097	-23.973331	0.000125	1.248214	0.422906	-0.000051
1403	1.3950e+02	-15.8883	-24.020176	0.000115	1.148357	0.389074	-0.000047
1404	1.3960e+02	-15.8771	-24.071093	-0.000125	-1.248214	-0.422906	-0.000051
1405	1.3970e+02	-15.9348	-24.124863	0.000132	1.318114	0.446589	-0.000054
1406	1.3980e+02	-15.9429	-24.169263	0.000109	1.088442	0.368774	-0.000045
1407	1.3990e+02	-16.0135	-24.219366	0.000123	1.228242	0.416140	-0.000050
1408	1.4000e+02	-16.0471	-24.267840	0.000119	1.188300	0.402607	-0.000049
1409	1.4010e+02	-16.0696	-24.318758	0.000125	1.248214	0.422906	-0.000051
1410	1.4020e+02	-16.1113	-24.367231	0.000119	1.188300	0.402607	-0.000049
1411	1.4029e+02	-16.1594	-24.416520	0.000121	1.208271	0.409373	-0.000050
1412	1.4039e+02	-16.2300	-24.462142	0.000112	1.118400	0.378924	-0.000046
1413	1.4049e+02	-16.2525	-24.517541	0.000136	1.358057	0.460122	-0.000056
1414	1.4059e+02	-16.2621	-24.564385	0.000115	1.148357	0.389074	-0.000047
1415	1.4069e+02	-16.3199	-24.613674	0.000121	1.208271	0.409373	-0.000050
1416	1.4079e+02	-16.3744	-24.668665	0.000135	1.348071	0.456739	-0.000055
1417	1.4089e+02	-16.4113	-24.707770	0.000096	0.958628	0.324792	-0.000039
1418	1.4099e+02	-16.4434	-24.759502	0.000127	1.268185	0.429673	-0.000052
1419	1.4109e+02	-16.5188	-24.812457	0.000130	1.298142	0.439823	-0.000053
1420	1.4119e+02	-16.5412	-24.861338	0.000120	1.198285	0.405990	-0.000049
1421	1.4129e+02	-16.5268	-24.912663	-0.000126	-1.258200	-0.426290	-0.000052
1422	1.4139e+02	-16.6231	-24.963581	0.000125	1.248214	0.422906	-0.000051
1423	1.4149e+02	-16.6054	-25.017350	-0.000132	-1.318114	-0.446589	-0.000054
1424	1.4159e+02	-16.6760	-25.069897	0.000129	1.288157	0.436439	-0.000053
1425	1.4169e+02	-16.7193	-25.115112	0.000111	1.108414	0.375541	-0.000045
1426	1.4179e+02	-16.7530	-25.173770	0.000144	1.437942	0.487188	-0.000059
1427	1.4189e+02	-16.8075	-25.225502	0.000127	1.268185	0.429673	-0.000052
1428	1.4199e+02	-16.8444	-25.270717	0.000111	1.108414	0.375541	-0.000045
1429	1.4209e+02	-16.8878	-25.326116	0.000136	1.358057	0.460122	-0.000056
1430	1.4219e+02	-16.9006	-25.379885	0.000132	1.318114	0.446589	-0.000054
1431	1.4228e+02	-16.9375	-25.434876	0.000135	1.348071	0.456739	-0.000055
1432	1.4238e+02	-16.9936	-25.486201	0.000126	1.258200	0.426290	-0.000052
1433	1.4248e+02	-17.0819	-25.533453	0.000116	1.158342	0.392457	-0.000047
1434	1.4258e+02	-17.0803	-25.588852	-0.000136	-1.358057	-0.460122	-0.000056
1435	1.4268e+02	-17.0979	-25.638955	0.000123	1.228242	0.416140	-0.000050
1436	1.4278e+02	-17.1717	-25.684577	0.000112	1.118400	0.378924	-0.000046
1437	1.4288e+02	-17.2038	-25.737939	0.000131	1.308128	0.443206	-0.000054
1438	1.4298e+02	-17.2359	-25.796596	0.000144	1.437942	0.487188	-0.000059
1439	1.4308e+02	-17.2343	-25.841811	-0.000111	-1.108414	-0.375541	-0.000045
1440	1.4318e+02	-17.2968	-25.893951	0.000128	1.278171	0.433056	-0.000052
1441	1.4328e+02	-17.3578	-25.942425	0.000119	1.188300	0.402607	-0.000049
1442	1.4338e+02	-17.3498	-25.996194	-0.000132	-1.318114	-0.446589	-0.000054
1443	1.4348e+02	-17.4300	-26.043039	0.000115	1.148357	0.389074	-0.000047
1444	1.4358e+02	-17.4717	-26.090698	0.000117	1.168328	0.395840	-0.000048
1445	1.4368e+02	-17.5006	-26.144467	0.000132	1.318114	0.446589	-0.000054
1446	1.4378e+02	-17.5567	-26.190497	0.000113	1.128385	0.382307	-0.000046
1447	1.4388e+02	-17.6225	-26.236934	0.000114	1.138371	0.385691	-0.000047
1448	1.4398e+02	-17.6417	-26.285815	0.000120	1.198285	0.405990	-0.000049
1449	1.4408e+02	-17.6658	-26.333881	0.000118	1.178314	0.399224	-0.000048
1450	1.4418e+02	-17.6899	-26.377060	0.000106	1.058485	0.358625	-0.000043
1451	1.4428e+02	-17.7524	-26.421053	0.000108	1.078457	0.365391	-0.000044
1452	1.4437e+02	-17.7942	-26.471563	0.000124	1.238228	0.419523	-0.000051
1453	1.4447e+02	-17.8006	-26.520444	0.000120	1.198285	0.405990	-0.000049
1454	1.4457e+02	-17.8856	-26.569325	0.000120	1.198285	0.405990	-0.000049
1455	1.4467e+02	-17.9032	-26.614948	0.000112	1.118400	0.378924	-0.000046
1456	1.4477e+02	-17.9305	-26.662607	0.000117	1.168328	0.395840	-0.000048
1457	1.4487e+02	-17.9867	-26.713932	0.000126	1.258200	0.426290	-0.000052
1458	1.4497e+02	-18.0508	-26.758740	0.000110	1.098428	0.372158	-0.000045
1459	1.4507e+02	-18.1006	-26.807621	0.000120	1.198285	0.405990	-0.000049
1460	1.4517e+02	-18.0813	-26.852836	-0.000111	-1.108414	-0.375541	-0.000045
1461	1.4527e+02	-18.1776	-26.898458	0.000112	1.118400	0.378924	-0.000046
1462	1.4537e+02	-18.1776	-26.946524	0.000118	1.178314	0.399224	-0.000048
1463	1.4547e+02	-18.2209	-26.992962	0.000114	1.138371	0.385691	-0.000047
1464	1.4557e+02	-18.2963	-27.042250	0.000121	1.208271	0.409373	-0.000050
1465	1.4567e+02	-18.3444	-27.087058	0.000110	1.098428	0.372158	-0.000045
1466	1.4577e+02	-18.3476	-27.133902	0.000115	1.148357	0.389074	-0.000047
1467	1.4587e+02	-18.3717	-27.179117	0.000111	1.108414	0.375541	-0.000045
1468	1.4597e+02	-18.4342	-27.227183	0.000118	1.178314	0.399224	-0.000048
1469	1.4607e+02	-18.4840	-27.276065	0.000120	1.198285	0.405990	-0.000049
1470	1.4617e+02	-18.5481	-27.323724	0.000117	1.168328	0.395840	-0.000048
1471	1.4626e+02	-18.5594	-27.370568	0.000115	1.148357	0.389074	-0.000047
1472	1.4636e+02	-18.5915	-27.414154	0.000107	1.068471	0.362008	-0.000044
1473	1.4646e+02	-18.6508	-27.455703	0.000102	1.018543	0.345092	-0.000042
1474	1.4656e+02	-18.6604	-27.509472	0.000132	1.318114	0.446589	-0.000054
1475	1.4666e+02	-18.7118	-27.553058	0.000107	1.068471	0.362008	-0.000044
1476	1.4676e+02	-18.7310	-27.595014	0.000103	1.028528	0.348475	-0.000042
1477	1.4686e+02	-18.7984	-27.643080	0.000118	1.178314	0.399224	-0.000048
1478	1.4696e+02	-18.8465	-27.690332	0.000116	1.158342	0.392457	-0.000047
1479	1.4706e+02	-18.8786	-27.738398	0.000118	1.178314	0.399224	-0.000048
1480	1.4716e+02	-18.9187	-27.786872	0.000119	1.188300	0.402607	-0.000049
1481	1.4726e+02	-18.9203	-27.828828	0.000103	1.028528	0.348475	-0.000042
1482	1.4736e+02	-18.9797	-27.877302	0.000119	1.188300	0.402607	-0.000049
1483	1.4746e+02	-19.0070	-27.924554	0.000116	1.158342	0.392457	-0.000047
1484	1.4756e+02	-19.0807	-27.966510	0.000103	1.028528	0.348475	-0.000042
1485	1.4766e+02	-19.1176	-28.011318	0.000110	1.098428	0.372158	-0.000045
1486	1.4776e+02	-19.1481	-28.063050	0.000127	1.268185	0.429673	-0.000052
1487	1.4786e+02	-19.1786	-28.106229	0.000106	1.058485	0.358625	-0.000043
1488	1.4796e+02	-19.2444	-28.152258	0.000113	1.128385	0.382307	-0.000046
1489	1.4806e+02	-19.2700	-28.198288	0.000113	1.128385	0.382307	-0.000046
1490	1.4816e+02	-19.3021	-28.246762	0.000119	1.188300	0.402607	-0.000049
1491	1.4825e+02	-19.3342	-28.290755	0.000108	1.078457	0.365391	-0.000044
1492	1.4835e+02	-19.3920	-28.341673	0.000125	1.248214	0.422906	-0.000051
1493	1.4845e+02	-19.4096	-28.384851	0.000106	1.058485	0.358625	-0.000043
1494	1.4855e+02	-19.4658	-28.431288	0.000114	1.138371	0.385691	-0.000047
1495	1.4865e+02	-19.5251	-28.476096	0.000110	1.098428	0.372158	-0.000045
1496	1.4875e+02	-19.5604	-28.522940	0.000115	1.148357	0.389074	-0.000047
1497	1.4885e+02	-19.5845	-28.567340	0.000109	1.088442	0.368774	-0.000045
1498	1.4895e+02	-19.6406	-28.616629	0.000121	1.208271	0.409373	-0.000050
1499	1.4905e+02	-19.6631	-28.662251	0.000112	1.118400	0.378924	-0.000046
1500	1.4915e+02	-19.6775	-28.709910	0.000117	1.168328	0.395840	-0.000048
1501	1.4925e+02	-19.7289	-28.756755	0.000115	1.148357	0.389074	-0.000047
1502	1.4935e+02	-19.8219	-28.804007	0.000116	1.158342	0.392457	-0.000047
1503	1.4945e+02	-19.8155	-28.845555	-0.000102	-1.018543	-0.345092	-0.000042
1504	1.4955e+02	-19.9005	-28.894844	0.000121	1.208271	0.409373	-0.000050
1505	1.4965e+02	-19.9101	-28.944947	0.000123	1.228242	0.416140	-0.000050
1506	1.4975e+02	-19.9759	-28.984459	0.000097	0.968614	0.328175	-0.000040
1507	1.4985e+02	-19.9968	-29.033340	0.000120	1.198285	0.405990	-0.000049
1508	1.4995e+02	-19.9037	-28.993828	0.000097	0.968614	0.328175	0.000040
1509	1.5005e+02	-19.9037	-28.966129	-0.000068	-0.679028	-0.230061	0.000028
1510	1.5015e+02	-19.8556	-28.936393	0.000073	0.728957	0.246977	0.000030
1511	1.5025e+02	-19.8412	-28.901361	0.000086	0.858771	0.290960	0.000035
1512	1.5034e+02	-19.7802	-28.867145	0.000084	0.838800	0.284193	0.000034
1513	1.5044e+02	-19.7369	-28.833335	0.000083	0.828814	0.280810	0.000034
1514	1.5054e+02	-19.7032	-28.790564	0.000105	1.048500	0.355241	0.000043
1515	1.5064e+02	-19.6839	-28.760828	0.000073	0.728957	0.246977	0.000030
1516	1.5074e+02	-19.6005	-28.721316	0.000097	0.968614	0.328175	0.000040
1517	1.5084e+02	-19.6134	-28.689136	-0.000079	-0.788871	-0.267277	0.000032
1518	1.5094e+02	-19.5781	-28.650846	0.000094	0.938657	0.318026	0.000038
1519	1.5104e+02	-19.4978	-28.616222	0.000085	0.848785	0.287576	0.000035
1520	1.5114e+02	-19.4545	-28.574673	0.000102	1.018543	0.345092	0.000042
1521	1.5124e+02	-19.4144	-28.539234	0.000087	0.868757	0.294343	0.000036
1522	1.5134e+02	-19.3727	-28.505424	0.000083	0.828814	0.280810	0.000034
1523	1.5144e+02	-19.3230	-28.470800	0.000085	0.848785	0.287576	0.000035
1524	1.5154e+02	-19.3085	-28.434547	0.000089	0.888728	0.301109	0.000036
1525	1.5164e+02	-19.2700	-28.395035	0.000097	0.968614	0.328175	0.000040
1526	1.5174e+02	-19.2444	-28.359188	0.000088	0.878743	0.297726	0.000036
1527	1.5184e+02	-19.2091	-28.326194	0.000081	0.808843	0.274043	0.000033
1528	1.5194e+02	-19.1417	-28.289533	0.000090	0.898714	0.304493	0.000037
1529	1.5204e+02	-19.1144	-28.249206	0.000099	0.988585	0.334942	0.000041
1530	1.5214e+02	-19.0615	-28.217026	0.000079	0.788871	0.267277	0.000032
1531	1.5224e+02	-19.0262	-28.183216	0.000083	0.828814	0.280810	0.000034
1532	1.5233e+02	-18.9813	-28.146148	0.000091	0.908700	0.307876	0.000037
1533	1.5243e+02	-18.9652	-28.110709	0.000087	0.868757	0.294343	0.000036
1534	1.5253e+02	-18.9203	-28.075271	0.000087	0.868757	0.294343	0.000036
1535	1.5263e+02	-18.8594	-28.035758	0.000097	0.968614	0.328175	0.000040
1536	1.5273e+02	-18.8545	-28.006022	0.000073	0.728957	0.246977	0.000030
1537	1.5283e+02	-18.7791	-27.970991	0.000086	0.858771	0.290960	0.000035
1538	1.5293e+02	-18.7487	-27.930664	0.000099	0.988585	0.334942	0.000041
1539	1.5303e+02	-18.7038	-27.901743	0.000071	0.708985	0.240211	0.000029
1540	1.5313e+02	-18.6829	-27.862638	0.000096	0.958628	0.324792	0.000039
1541	1.5323e+02	-18.6428	-27.825570	0.000091	0.908700	0.307876	0.000037
1542	1.5333e+02	-18.5786	-27.790946	0.000085	0.848785	0.287576	0.000035
1543	1.5343e+02	-18.5594	-27.751433	0.000097	0.968614	0.328175	0.000040
1544	1.5353e+02	-18.5401	-27.719661	0.000078	0.778885	0.263894	0.000032
1545	1.5363e+02	-18.4759	-27.680148	0.000097	0.968614	0.328175	0.000040
1546	1.5373e+02	-18.4310	-27.644302	0.000088	0.878743	0.297726	0.000036
1547	1.5383e+02	-18.4134	-27.603161	0.000101	1.008557	0.341708	0.000041
1548	1.5393e+02	-18.3235	-27.570981	0.000079	0.788871	0.267277	0.000032
1549	1.5403e+02	-18.2995	-27.538393	0.000080	0.798857	0.270660	0.000033
1550	1.5413e+02	-18.2770	-27.500918	0.000092	0.918685	0.311259	0.000038
1551	1.5422e+02	-18.2257	-27.458961	0.000103	1.028528	0.348475	0.000042
1552	1.5432e+02	-18.2000	-27.424337	0.000085	0.848785	0.287576	0.000035
1553	1.5442e+02	-18.1615	-27.389306	0.000086	0.858771	0.290960	0.000035
1554	1.5452e+02	-18.1326	-27.354682	0.000085	0.848785	0.287576	0.000035
1555	1.5462e+02	-18.0749	-27.314355	0.000099	0.988585	0.334942	0.000041
1556	1.5472e+02	-18.0412	-27.278509	0.000088	0.878743	0.297726	0.000036
1557	1.5482e+02	-17.9754	-27.241033	0.000092	0.918685	0.311259	0.000038
1558	1.5492e+02	-17.9594	-27.204780	0.000089	0.888728	0.301109	0.000036
1559	1.5502e+02	-17.9257	-27.168119	0.000090	0.898714	0.304493	0.000037
1560	1.5512e+02	-17.8535	-27.130236	0.000093	0.928671	0.314642	0.000038
1561	1.5522e+02	-17.8327	-27.096834	0.000082	0.818828	0.277427	0.000034
1562	1.5532e+02	-17.8182	-27.055692	0.000101	1.008557	0.341708	0.000041
1563	1.5542e+02	-17.7460	-27.024734	0.000076	0.758914	0.257127	0.000031
1564	1.5552e+02	-17.7171	-26.983185	0.000102	1.018543	0.345092	0.000042
1565	1.5562e+02	-17.6754	-26.948969	0.000084	0.838800	0.284193	0.000034
1566	1.5572e+02	-17.6498	-26.911900	0.000091	0.908700	0.307876	0.000037
1567	1.5582e+02	-17.6177	-26.878498	0.000082	0.818828	0.277427	0.000034
1568	1.5592e+02	-17.5214	-26.837764	0.000100	0.998571	0.338325	0.000041
1569	1.5602e+02	-17.5327	-26.804769	-0.000081	-0.808843	-0.274043	0.000033
1570	1.5612e+02	-17.5022	-26.764442	0.000099	0.988585	0.334942	0.000041
1571	1.5622e+02	-17.4685	-26.729818	0.000085	0.848785	0.287576	0.000035
1572	1.5631e+02	-17.3835	-26.691528	0.000094	0.938657	0.318026	0.000038
1573	1.5641e+02	-17.3498	-26.653238	0.000094	0.938657	0.318026	0.000038
1574	1.5651e+02	-17.3065	-26.616577	0.000090	0.898714	0.304493	0.000037
1575	1.5661e+02	-17.2888	-26.581138	0.000087	0.868757	0.294343	0.000036
1576	1.5671e+02	-17.2535	-26.538367	0.000105	1.048500	0.355241	0.000043
1577	1.5681e+02	-17.2134	-26.504150	0.000084	0.838800	0.284193	0.000034
1578	1.5691e+02	-17.1284	-26.463416	0.000100	0.998571	0.338325	0.000041
1579	1.5701e+02	-17.1059	-26.423904	0.000097	0.968614	0.328175	0.000040
1580	1.5711e+02	-17.0610	-26.388465	0.000087	0.868757	0.294343	0.000036
1581	1.5721e+02	-17.0402	-26.348546	0.000098	0.978600	0.331559	0.000040
1582	1.5731e+02	-16.9856	-26.309033	0.000097	0.968614	0.328175	0.000040
1583	1.5741e+02	-16.9616	-26.277261	0.000078	0.778885	0.263894	0.000032
1584	1.5751e+02	-16.9086	-26.234082	0.000106	1.058485	0.358625	0.000043
1585	1.5761e+02	-16.8509	-26.199458	0.000085	0.848785	0.287576	0.000035
1586	1.5771e+02	-16.8075	-26.159131	0.000099	0.988585	0.334942	0.000041
1587	1.5781e+02	-16.8220	-26.122878	-0.000089	-0.888728	-0.301109	0.000036
1588	1.5791e+02	-16.7546	-26.087846	0.000086	0.858771	0.290960	0.000035
1589	1.5801e+02	-16.7241	-26.049556	0.000094	0.938657	0.318026	0.000038
1590	1.5811e+02	-16.6792	-26.014525	0.000086	0.858771	0.290960	0.000035
1591	1.5821e+02	-16.6471	-25.976642	0.000093	0.928671	0.314642	0.000038
1592	1.5830e+02	-16.5894	-25.945276	0.000077	0.768900	0.260510	0.000032
1593	1.5840e+02	-16.5525	-25.902098	0.000106	1.058485	0.358625	0.000043
1594	1.5850e+02	-16.5396	-25.868289	0.000083	0.828814	0.280810	0.000034
1595	1.5860e+02	-16.5092	-25.830813	0.000092	0.918685	0.311259	0.000038
1596	1.5870e+02	-16.4338	-25.798226	0.000080	0.798857	0.270660	0.000033
1597	1.5880e+02	-16.3904	-25.759528	0.000095	0.948643	0.321409	0.000039
1598	1.5890e+02	-16.3648	-25.727756	0.000078	0.778885	0.263894	0.000032
1599	1.5900e+02	-16.3263	-25.689873	0.000093	0.928671	0.314642	0.000038
1600	1.5910e+02	-16.2749	-25.655656	0.000084	0.838800	0.284193	0.000034
1601	1.5920e+02	-16.2348	-25.617366	0.000094	0.938657	0.318026	0.000038
1602	1.5930e+02	-16.1723	-25.579890	0.000092	0.918685	0.311259	0.000038
1603	1.5940e+02	-16.1659	-25.544451	0.000087	0.868757	0.294343	0.000036
1604	1.5950e+02	-16.1209	-25.506569	0.000093	0.928671	0.314642	0.000038
1605	1.5960e+02	-16.1097	-25.473166	0.000082	0.818828	0.277427	0.000034
1606	1.5970e+02	-16.0648	-25.431210	0.000103	1.028528	0.348475	0.000042
1607	1.5980e+02	-16.0118	-25.396179	0.000086	0.858771	0.290960	0.000035
1608	1.5990e+02	-15.9573	-25.353408	0.000105	1.048500	0.355241	0.000043
1609	1.6000e+02	-15.9124	-25.321635	0.000078	0.778885	0.263894	0.000032
1610	1.6010e+02	-15.9220	-25.276420	-0.000111	-1.108414	-0.375541	0.000045
1611	1.6019e+02	-15.8482	-25.240981	0.000087	0.868757	0.294343	0.000036
1612	1.6029e+02	-15.8049	-25.204320	0.000090	0.898714	0.304493	0.000037
1613	1.6039e+02	-15.7552	-25.159513	0.000110	1.098428	0.372158	0.000045
1614	1.6049e+02	-15.7311	-25.117149	0.000104	1.038514	0.351858	0.000043
1615	1.6059e+02	-15.7086	-25.079674	0.000092	0.918685	0.311259	0.000038
1616	1.6069e+02	-15.6268	-25.039347	0.000099	0.988585	0.334942	0.000041
1617	1.6079e+02	-15.5835	-24.994132	0.000111	1.108414	0.375541	0.000045
1618	1.6089e+02	-15.5578	-24.958693	0.000087	0.868757	0.294343	0.000036
1619	1.6099e+02	-15.5193	-24.917551	0.000101	1.008557	0.341708	0.000041
1620	1.6109e+02	-15.4841	-24.873151	0.000109	1.088442	0.368774	0.000045
1621	1.6119e+02	-15.4520	-24.828751	0.000109	1.088442	0.368774	0.000045
1622	1.6129e+02	-15.4103	-24.790868	0.000093	0.928671	0.314642	0.000038
1623	1.6139e+02	-15.3477	-24.746875	0.000108	1.078457	0.365391	0.000044
1624	1.6149e+02	-15.3381	-24.704511	0.000104	1.038514	0.351858	0.000043
1625	1.6159e+02	-15.2659	-24.661740	0.000105	1.048500	0.355241	0.000043
1626	1.6169e+02	-15.2386	-24.619784	0.000103	1.028528	0.348475	0.000042
1627	1.6179e+02	-15.2017	-24.579457	0.000099	0.988585	0.334942	0.000041
1628	1.6189e+02	-15.1424	-24.538315	0.000101	1.008557	0.341708	0.000041
1629	1.6199e+02	-15.1407	-24.494322	0.000108	1.078457	0.365391	0.000044
1630	1.6209e+02	-15.0958	-24.447071	0.000116	1.158342	0.392457	0.000047
1631	1.6219e+02	-15.0317	-24.407966	0.000096	0.958628	0.324792	0.000039
1632	1.6228e+02	-14.9964	-24.363158	0.000110	1.098428	0.372158	0.000045
1633	1.6238e+02	-14.9482	-24.322016	0.000101	1.008557	0.341708	0.000041
1634	1.6248e+02	-14.9370	-24.280467	0.000102	1.018543	0.345092	0.000042
1635	1.6258e+02	-14.8728	-24.234438	0.000113	1.128385	0.382307	0.000046
1636	1.6268e+02	-14.8311	-24.190037	0.000109	1.088442	0.368774	0.000045
1637	1.6278e+02	-14.7974	-24.148896	0.000101	1.008557	0.341708	0.000041
1638	1.6288e+02	-14.7509	-24.105310	0.000107	1.068471	0.362008	0.000044
1639	1.6298e+02	-14.7204	-24.058058	0.000116	1.158342	0.392457	0.000047
1640	1.6308e+02	-14.6964	-24.017732	0.000099	0.988585	0.334942	0.000041
1641	1.6318e+02	-14.6499	-23.971294	0.000114	1.138371	0.385691	0.000047
1642	1.6328e+02	-14.6001	-23.929338	0.000103	1.028528	0.348475	0.000042
1643	1.6338e+02	-14.5520	-23.884938	0.000109	1.088442	0.368774	0.000045
1644	1.6348e+02	-14.5087	-23.842574	0.000104	1.038514	0.351858	0.000043
1645	1.6358e+02	-14.4622	-23.794100	0.000119	1.188300	0.402607	0.000049
1646	1.6368e+02	-14.4606	-23.753366	0.000100	0.998571	0.338325	0.000041
1647	1.6378e+02	-14.4012	-23.699190	0.000133	1.328100	0.449972	0.000054
1648	1.6388e+02	-14.3948	-23.661714	0.000092	0.918685	0.311259	0.000038
1649	1.6398e+02	-14.3065	-23.617721	0.000108	1.078457	0.365391	0.000044
1650	1.6408e+02	-14.2953	-23.572099	0.000112	1.118400	0.378924	0.000046
1651	1.6418e+02	-14.2376	-23.526069	0.000113	1.128385	0.382307	0.000046
1652	1.6427e+02	-14.2215	-23.477188	0.000120	1.198285	0.405990	0.000049
1653	1.6437e+02	-14.1541	-23.435232	0.000103	1.028528	0.348475	0.000042
1654	1.6447e+02	-14.1445	-23.392868	0.000104	1.038514	0.351858	0.000043
1655	1.6457e+02	-14.0900	-23.350097	0.000105	1.048500	0.355241	0.000043
1656	1.6467e+02	-14.0627	-23.299994	0.000123	1.228242	0.416140	0.000050
1657	1.6477e+02	-13.9969	-23.251520	0.000119	1.188300	0.402607	0.000049
1658	1.6487e+02	-13.9697	-23.208749	0.000105	1.048500	0.355241	0.000043
1659	1.6497e+02	-13.9071	-23.159461	0.000121	1.208271	0.409373	0.000050
1660	1.6507e+02	-13.8927	-23.114653	0.000110	1.098428	0.372158	0.000045
1661	1.6517e+02	-13.8622	-23.072289	0.000104	1.038514	0.351858	0.000043
1662	1.6527e+02	-13.8124	-23.027074	0.000111	1.108414	0.375541	0.000045
1663	1.6537e+02	-13.7547	-22.981859	0.000111	1.108414	0.375541	0.000045
1664	1.6547e+02	-13.7226	-22.933386	0.000119	1.188300	0.402607	0.000049
1665	1.6557e+02	-13.6841	-22.887356	0.000113	1.128385	0.382307	0.000046
1666	1.6567e+02	-13.6536	-22.844992	0.000104	1.038514	0.351858	0.000043
1667	1.6577e+02	-13.5927	-22.800592	0.000109	1.088442	0.368774	0.000045
1668	1.6587e+02	-13.5766	-22.746415	0.000133	1.328100	0.449972	0.000054
1669	1.6597e+02	-13.5221	-22.699978	0.000114	1.138371	0.385691	0.000047
1670	1.6607e+02	-13.4611	-22.660059	0.000098	0.978600	0.331559	0.000040
1671	1.6616e+02	-13.4435	-22.615251	0.000110	1.098428	0.372158	0.000045
1672	1.6626e+02	-13.4034	-22.558631	0.000139	1.388014	0.470272	0.000057
1673	1.6636e+02	-13.3777	-22.511379	0.000116	1.158342	0.392457	0.000047
1674	1.6646e+02	-13.3248	-22.464127	0.000116	1.158342	0.392457	0.000047
1675	1.6656e+02	-13.2686	-22.416875	0.000116	1.158342	0.392457	0.000047
1676	1.6666e+02	-13.2221	-22.363921	0.000130	1.298142	0.439823	0.000053
1677	1.6676e+02	-13.1980	-22.319520	0.000109	1.088442	0.368774	0.000045
1678	1.6686e+02	-13.1579	-22.271047	0.000119	1.188300	0.402607	0.000049
1679	1.6696e+02	-13.1322	-22.218499	0.000129	1.288157	0.436439	0.000053
1680	1.6706e+02	-13.0954	-22.176136	0.000104	1.038514	0.351858	0.000043
1681	1.6716e+02	-13.0376	-22.119515	0.000139	1.388014	0.470272	0.000057
1682	1.6726e+02	-13.0087	-22.066561	0.000130	1.298142	0.439823	0.000053
1683	1.6736e+02	-12.9702	-22.017680	0.000120	1.198285	0.405990	0.000049
1684	1.6746e+02	-12.9205	-21.965132	0.000129	1.288157	0.436439	0.000053
1685	1.6756e+02	-12.9173	-21.917881	0.000116	1.158342	0.392457	0.000047
1686	1.6766e+02	-12.8595	-21.869407	0.000119	1.188300	0.402607	0.000049
1687	1.6776e+02	-12.8242	-21.823377	0.000113	1.128385	0.382307	0.000046
1688	1.6786e+02	-12.7585	-21.776125	0.000116	1.158342	0.392457	0.000047
1689	1.6796e+02	-12.7216	-21.722764	0.000131	1.308128	0.443206	0.000054
1690	1.6806e+02	-12.7007	-21.673068	0.000122	1.218257	0.412757	0.000050
1691	1.6816e+02	-12.6462	-21.627853	0.000111	1.108414	0.375541	0.000045
1692	1.6825e+02	-12.6157	-21.575713	0.000128	1.278171	0.433056	0.000052
1693	1.6835e+02	-12.5611	-21.530091	0.000112	1.118400	0.378924	0.000046
1694	1.6845e+02	-12.5531	-21.478358	0.000127	1.268185	0.429673	0.000052
1695	1.6855e+02	-12.4681	-21.426218	0.000128	1.278171	0.433056	0.000052
1696	1.6865e+02	-12.4456	-21.378559	0.000117	1.168328	0.395840	0.000048
1697	1.6875e+02	-12.4328	-21.334973	0.000107	1.068471	0.362008	0.000044
1698	1.6885e+02	-12.3751	-21.288944	0.000113	1.128385	0.382307	0.000046
1699	1.6895e+02	-12.3430	-21.239248	0.000122	1.218257	0.412757	0.000050
1700	1.6905e+02	-12.2804	-21.193626	0.000112	1.118400	0.378924	0.000046
1701	1.6915e+02	-12.2387	-21.145967	0.000117	1.168328	0.395840	0.000048
1702	1.6925e+02	-12.2018	-21.100752	0.000111	1.108414	0.375541	0.000045
1703	1.6935e+02	-12.1713	-21.049834	0.000125	1.248214	0.422906	0.000051
1704	1.6945e+02	-12.1408	-21.009099	0.000100	0.998571	0.338325	0.000041
1705	1.6955e+02	-12.0895	-20.956960	0.000128	1.278171	0.433056	0.000052
1706	1.6965e+02	-12.0622	-20.912559	0.000109	1.088442	0.368774	0.000045
1707	1.6975e+02	-11.9884	-20.863271	0.000121	1.208271	0.409373	0.000050
1708	1.6985e+02	-11.9740	-20.815612	0.000117	1.168328	0.395840	0.000048
1709	1.6995e+02	-11.9515	-20.768767	0.000115	1.148357	0.389074	0.000047
1710	1.7005e+02	-11.8489	-20.721923	0.000115	1.148357	0.389074	0.000047
1711	1.7015e+02	-11.8633	-20.677930	-0.000108	-1.078457	-0.365391	0.000044
1712	1.7024e+02	-11.8168	-20.637603	0.000099	0.988585	0.334942	0.000041
1713	1.7034e+02	-11.7767	-20.588722	0.000120	1.198285	0.405990	0.000049
1714	1.7044e+02	-11.7638	-20.535360	0.000131	1.308128	0.443206	0.000054
1715	1.7054e+02	-11.7253	-20.488923	0.000114	1.138371	0.385691	0.000047
1716	1.7064e+02	-11.6660	-20.441264	0.000117	1.168328	0.395840	0.000048
1717	1.7074e+02	-11.6114	-20.392790	0.000119	1.188300	0.402607	0.000049
1718	1.7084e+02	-11.6050	-20.344724	0.000118	1.178314	0.399224	0.000048
1719	1.7094e+02	-11.5184	-20.298287	0.000114	1.138371	0.385691	0.000047
1720	1.7104e+02	-11.5184	-20.250628	-0.000117	-1.168328	-0.395840	0.000048
1721	1.7114e+02	-11.4783	-20.206227	0.000109	1.088442	0.368774	0.000045
1722	1.7124e+02	-11.4109	-20.158161	0.000118	1.178314	0.399224	0.000048
1723	1.7134e+02	-11.3756	-20.113353	0.000110	1.098428	0.372158	0.000045
1724	1.7144e+02	-11.3323	-20.060399	0.000130	1.298142	0.439823	0.000053
1725	1.7154e+02	-11.2826	-20.017628	0.000105	1.048500	0.355241	0.000043
1726	1.7164e+02	-11.2601	-19.972413	0.000111	1.108414	0.375541	0.000045
1727	1.7174e+02	-11.2312	-19.923124	0.000121	1.208271	0.409373	0.000050
1728	1.7184e+02	-11.1735	-19.877502	0.000112	1.118400	0.378924	0.000046
1729	1.7194e+02	-11.1526	-19.832694	0.000110	1.098428	0.372158	0.000045
1730	1.7204e+02	-11.1125	-19.789108	0.000107	1.068471	0.362008	0.000044
1731	1.7213e+02	-11.0965	-19.737376	0.000127	1.268185	0.429673	0.000052
1732	1.7223e+02	-11.0403	-19.693383	0.000108	1.078457	0.365391	0.000044
1733	1.7233e+02	-10.9842	-19.646539	0.000115	1.148357	0.389074	0.000047
1734	1.7243e+02	-10.9393	-19.598065	0.000119	1.188300	0.402607	0.000049
1735	1.7253e+02	-10.9040	-19.549184	0.000120	1.198285	0.405990	0.000049
1736	1.7263e+02	-10.8574	-19.498673	0.000124	1.238228	0.419523	0.000051
1737	1.7273e+02	-10.8125	-19.452644	0.000113	1.128385	0.382307	0.000046
1738	1.7283e+02	-10.7532	-19.404170	0.000119	1.188300	0.402607	0.000049
1739	1.7293e+02	-10.6954	-19.356918	0.000116	1.158342	0.392457	0.000047
1740	1.7303e+02	-10.6954	-19.308444	-0.000119	-1.188300	-0.402607	0.000049
1741	1.7313e+02	-10.6681	-19.263637	0.000110	1.098428	0.372158	0.000045
1742	1.7323e+02	-10.6008	-19.218422	0.000111	1.108414	0.375541	0.000045
1743	1.7333e+02	-10.6088	-19.169133	-0.000121	-1.208271	-0.409373	0.000050
1744	1.7343e+02	-10.5462	-19.123918	0.000111	1.108414	0.375541	0.000045
1745	1.7353e+02	-10.5157	-19.073000	0.000125	1.248214	0.422906	0.000051
1746	1.7363e+02	-10.4580	-19.026563	0.000114	1.138371	0.385691	0.000047
1747	1.7373e+02	-10.4307	-18.975238	0.000126	1.258200	0.426290	0.000052
1748	1.7383e+02	-10.3922	-18.930023	0.000111	1.108414	0.375541	0.000045
1749	1.7393e+02	-10.3698	-18.881142	0.000120	1.198285	0.405990	0.000049
1750	1.7403e+02	-10.2992	-18.835112	0.000113	1.128385	0.382307	0.000046
1751	1.7413e+02	-10.2847	-18.782158	0.000130	1.298142	0.439823	0.000053
1752	1.7422e+02	-10.2206	-18.737757	0.000109	1.088442	0.368774	0.000045
1753	1.7432e+02	-10.1596	-18.687247	0.000124	1.238228	0.419523	0.000051
1754	1.7442e+02	-10.1227	-18.641217	0.000113	1.128385	0.382307	0.000046
1755	1.7452e+02	-10.0986	-18.592336	0.000120	1.198285	0.405990	0.000049
1756	1.7462e+02	-10.0441	-18.544677	0.000117	1.168328	0.395840	0.000048
1757	1.7472e+02	-10.0329	-18.501906	0.000105	1.048500	0.355241	0.000043
1758	1.7482e+02	-9.9960	-18.451803	0.000123	1.228242	0.416140	0.000050
1759	1.7492e+02	-9.9302	-18.406995	0.000110	1.098428	0.372158	0.000045
1760	1.7502e+02	-9.8821	-18.359743	0.000116	1.158342	0.392457	0.000047
1761	1.7512e+02	-9.8869	-18.313306	-0.000114	-1.138371	-0.385691	0.000047
1762	1.7522e+02	-9.8339	-18.267684	0.000112	1.118400	0.378924	0.000046
1763	1.7532e+02	-9.7826	-18.220432	0.000116	1.158342	0.392457	0.000047
1764	1.7542e+02	-9.7730	-18.176847	0.000107	1.068471	0.362008	0.000044
1765	1.7552e+02	-9.6783	-18.131632	0.000111	1.108414	0.375541	0.000045
1766	1.7562e+02	-9.6976	-18.085195	-0.000114	-1.138371	-0.385691	0.000047
1767	1.7572e+02	-9.6350	-18.039572	0.000112	1.118400	0.378924	0.000046
1768	1.7582e+02	-9.5965	-17.993950	0.000112	1.118400	0.378924	0.000046
1769	1.7592e+02	-9.5420	-17.945883	0.000118	1.178314	0.399224	0.000048
1770	1.7602e+02	-9.5131	-17.897410	0.000119	1.188300	0.402607	0.000049
1771	1.7612e+02	-9.4826	-17.851787	0.000112	1.118400	0.378924	0.000046
1772	1.7621e+02	-9.4265	-17.801684	0.000123	1.228242	0.416140	0.000050
1773	1.7631e+02	-9.4088	-17.758099	0.000107	1.068471	0.362008	0.000044
1774	1.7641e+02	-9.3238	-17.708403	0.000122	1.218257	0.412757	0.000050
1775	1.7651e+02	-9.3158	-17.660336	0.000118	1.178314	0.399224	0.000048
1776	1.7661e+02	-9.2644	-17.614307	0.000113	1.128385	0.382307	0.000046
1777	1.7671e+02	-9.2275	-17.568277	0.000113	1.128385	0.382307	0.000046
1778	1.7681e+02	-9.1538	-17.515730	0.000129	1.288157	0.436439	0.000053
1779	1.7691e+02	-9.1393	-17.466441	0.000121	1.208271	0.409373	0.000050
1780	1.7701e+02	-9.1185	-17.414301	0.000128	1.278171	0.433056	0.000052
1781	1.7711e+02	-9.0864	-17.364606	0.000122	1.218257	0.412757	0.000050
1782	1.7721e+02	-9.0543	-17.313688	0.000125	1.248214	0.422906	0.000051
1783	1.7731e+02	-8.9580	-17.255438	0.000143	1.427957	0.483805	0.000059
1784	1.7741e+02	-8.9276	-17.203705	0.000127	1.268185	0.429673	0.000052
1785	1.7751e+02	-8.8955	-17.154417	0.000121	1.208271	0.409373	0.000050
1786	1.7761e+02	-8.9019	-17.107165	-0.000116	-1.158342	-0.392457	0.000047
1787	1.7771e+02	-8.8137	-17.051359	0.000137	1.368042	0.463505	0.000056
1788	1.7781e+02	-8.8185	-16.997997	-0.000131	-1.308128	-0.443206	0.000054
1789	1.7791e+02	-8.7495	-16.945450	0.000129	1.288157	0.436439	0.000053
1790	1.7801e+02	-8.7206	-16.890052	0.000136	1.358057	0.460122	0.000056
1791	1.7810e+02	-8.6645	-16.841170	0.000120	1.198285	0.405990	0.000049
1792	1.7820e+02	-8.6260	-16.789845	0.000126	1.258200	0.426290	0.000052
1793	1.7830e+02	-8.5778	-16.734039	0.000137	1.368042	0.463505	0.000056
1794	1.7840e+02	-8.5730	-16.684751	0.000121	1.208271	0.409373	0.000050
1795	1.7850e+02	-8.5008	-16.625686	0.000145	1.447928	0.490571	0.000059
1796	1.7860e+02	-8.4463	-16.576398	0.000121	1.208271	0.409373	0.000050
1797	1.7870e+02	-8.4062	-16.516518	0.000147	1.467900	0.497338	0.000060
1798	1.7880e+02	-8.4238	-16.472525	-0.000108	-1.078457	-0.365391	0.000044
1799	1.7890e+02	-8.3131	-16.417127	0.000136	1.358057	0.460122	0.000056
1800	1.7900e+02	-8.3035	-16.364172	0.000130	1.298142	0.439823	0.000053
1801	1.7910e+02	-8.2746	-16.305922	0.000143	1.427957	0.483805	0.000059
1802	1.7920e+02	-8.2409	-16.253375	0.000129	1.288157	0.436439	0.000053
1803	1.7930e+02	-8.1832	-16.198791	0.000134	1.338085	0.453356	0.000055
1804	1.7940e+02	-8.1415	-16.142985	0.000137	1.368042	0.463505	0.000056
1805	1.7950e+02	-8.1142	-16.085957	0.000140	1.398000	0.473655	0.000057
1806	1.7960e+02	-8.0869	-16.035854	0.000123	1.228242	0.416140	0.000050
1807	1.7970e+02	-8.0115	-15.978419	0.000141	1.407985	0.477038	0.000058
1808	1.7980e+02	-8.0035	-15.927094	0.000126	1.258200	0.426290	0.000052
1809	1.7990e+02	-7.9907	-15.870473	0.000139	1.388014	0.470272	0.000057
1810	1.8000e+02	-7.9265	-15.807742	0.000154	1.537799	0.521021	0.000063
1811	1.8009e+02	-7.8720	-15.759269	0.000119	1.188300	0.402607	0.000049
1812	1.8019e+02	-7.8319	-15.702241	0.000140	1.398000	0.473655	0.000057
1813	1.8029e+02	-7.8078	-15.649693	0.000129	1.288157	0.436439	0.000053
1814	1.8039e+02	-7.7484	-15.594295	0.000136	1.358057	0.460122	0.000056
1815	1.8049e+02	-7.6923	-15.533601	0.000149	1.487871	0.504104	0.000061
1816	1.8059e+02	-7.6618	-15.475351	0.000143	1.427957	0.483805	0.000059
1817	1.8069e+02	-7.6265	-15.425248	0.000123	1.228242	0.416140	0.000050
1818	1.8079e+02	-7.6137	-15.367405	0.000142	1.417971	0.480422	0.000058
1819	1.8089e+02	-7.5912	-15.305896	0.000151	1.507842	0.510871	0.000062
1820	1.8099e+02	-7.5222	-15.248868	0.000140	1.398000	0.473655	0.000057
1821	1.8109e+02	-7.4870	-15.197951	0.000125	1.248214	0.422906	0.000051
1822	1.8119e+02	-7.4501	-15.140923	0.000140	1.398000	0.473655	0.000057
1823	1.8129e+02	-7.3907	-15.079007	0.000152	1.517828	0.514254	0.000062
1824	1.8139e+02	-7.3538	-15.024423	0.000134	1.338085	0.453356	0.000055
1825	1.8149e+02	-7.3041	-14.967395	0.000140	1.398000	0.473655	0.000057
1826	1.8159e+02	-7.2832	-14.912403	0.000135	1.348071	0.456739	0.000055
1827	1.8169e+02	-7.2158	-14.852117	0.000148	1.477885	0.500721	0.000061
1828	1.8179e+02	-7.2014	-14.790608	0.000151	1.507842	0.510871	0.000062
1829	1.8189e+02	-7.1501	-14.737246	0.000131	1.308128	0.443206	0.000054
1830	1.8199e+02	-7.1164	-14.683070	0.000133	1.328100	0.449972	0.000054
1831	1.8209e+02	-7.0602	-14.626856	0.000138	1.378028	0.466889	0.000056
1832	1.8218e+02	-7.0281	-14.562904	0.000157	1.567757	0.531170	0.000064
1833	1.8228e+02	-7.0105	-14.507098	0.000137	1.368042	0.463505	0.000056
1834	1.8238e+02	-6.9303	-14.448033	0.000145	1.447928	0.490571	0.000059
1835	1.8248e+02	-6.9255	-14.386932	0.000150	1.497857	0.507488	0.000061
1836	1.8258e+02	-6.8773	-14.332755	0.000133	1.328100	0.449972	0.000054
1837	1.8268e+02	-6.8629	-14.270839	0.000152	1.517828	0.514254	0.000062
1838	1.8278e+02	-6.8212	-14.214626	0.000138	1.378028	0.466889	0.000056
1839	1.8288e+02	-6.7458	-14.153932	0.000149	1.487871	0.504104	0.000061
1840	1.8298e+02	-6.7249	-14.096089	0.000142	1.417971	0.480422	0.000058
1841	1.8308e+02	-6.6704	-14.030100	0.000162	1.617685	0.548087	0.000066
1842	1.8318e+02	-6.6030	-13.972664	0.000141	1.407985	0.477038	0.000058
1843	1.8328e+02	-6.5934	-13.907489	0.000160	1.597714	0.541320	0.000066
1844	1.8338e+02	-6.5549	-13.849647	0.000142	1.417971	0.480422	0.000058
1845	1.8348e+02	-6.5132	-13.784472	0.000160	1.597714	0.541320	0.000066
1846	1.8358e+02	-6.4474	-13.730703	0.000132	1.318114	0.446589	0.000054
1847	1.8368e+02	-6.4442	-13.665121	0.000161	1.607699	0.544703	0.000066
1848	1.8378e+02	-6.3881	-13.605241	0.000147	1.467900	0.497338	0.000060
1849	1.8388e+02	-6.3865	-13.543325	0.000152	1.517828	0.514254	0.000062
1850	1.8398e+02	-6.3335	-13.480594	0.000154	1.537799	0.521021	0.000063
1851	1.8407e+02	-6.3271	-13.417049	0.000156	1.557771	0.527787	0.000064
1852	1.8417e+02	-6.2036	-13.357577	0.000146	1.457914	0.493955	0.000060
1853	1.8427e+02	-6.2164	-13.290365	-0.000165	-1.647642	-0.558236	0.000068
1854	1.8437e+02	-6.1458	-13.230079	0.000148	1.477885	0.500721	0.000061
1855	1.8447e+02	-6.1121	-13.165311	0.000159	1.587728	0.537937	0.000065
1856	1.8457e+02	-6.0624	-13.105839	0.000146	1.457914	0.493955	0.000060
1857	1.8467e+02	-6.0447	-13.041072	0.000159	1.587728	0.537937	0.000065
1858	1.8477e+02	-5.9677	-12.978748	0.000153	1.527814	0.517637	0.000063
1859	1.8487e+02	-5.9597	-12.916425	0.000153	1.527814	0.517637	0.000063
1860	1.8497e+02	-5.9325	-12.852065	0.000158	1.577742	0.534554	0.000065
1861	1.8507e+02	-5.8811	-12.793000	0.000145	1.447928	0.490571	0.000059
1862	1.8517e+02	-5.8458	-12.731491	0.000151	1.507842	0.510871	0.000062
1863	1.8527e+02	-5.7801	-12.665095	0.000163	1.627671	0.551470	0.000067
1864	1.8537e+02	-5.7752	-12.608067	0.000140	1.398000	0.473655	0.000057
1865	1.8547e+02	-5.7175	-12.548187	0.000147	1.467900	0.497338	0.000060
1866	1.8557e+02	-5.6822	-12.487901	0.000148	1.477885	0.500721	0.000061
1867	1.8567e+02	-5.6597	-12.425170	0.000154	1.537799	0.521021	0.000063
1868	1.8577e+02	-5.6180	-12.361217	0.000157	1.567757	0.531170	0.000064
1869	1.8587e+02	-5.5667	-12.305004	0.000138	1.378028	0.466889	0.000056
1870	1.8597e+02	-5.5105	-12.241458	0.000156	1.557771	0.527787	0.000064
1871	1.8606e+02	-5.4977	-12.181579	0.000147	1.467900	0.497338	0.000060
1872	1.8616e+02	-5.4255	-12.124144	0.000141	1.407985	0.477038	0.000058
1873	1.8626e+02	-5.4175	-12.060598	0.000156	1.557771	0.527787	0.000064
1874	1.8636e+02	-5.3726	-11.999497	0.000150	1.497857	0.507488	0.000061
1875	1.8646e+02	-5.3517	-11.939618	0.000147	1.467900	0.497338	0.000060
1876	1.8656e+02	-5.2619	-11.871999	0.000166	1.657628	0.561620	0.000068
1877	1.8666e+02	-5.2587	-11.815785	0.000138	1.378028	0.466889	0.000056
1878	1.8676e+02	-5.2009	-11.756313	0.000146	1.457914	0.493955	0.000060
1879	1.8686e+02	-5.1592	-11.691953	0.000158	1.577742	0.534554	0.000065
1880	1.8696e+02	-5.1159	-11.630852	0.000150	1.497857	0.507488	0.000061
1881	1.8706e+02	-5.0678	-11.572602	0.000143	1.427957	0.483805	0.000059
1882	1.8716e+02	-5.0004	-11.510686	0.000152	1.517828	0.514254	0.000062
1883	1.8726e+02	-4.9924	-11.449177	0.000151	1.507842	0.510871	0.000062
1884	1.8736e+02	-5.0004	-11.383188	-0.000162	-1.617685	-0.548087	0.000066
1885	1.8746e+02	-4.9218	-11.317198	0.000162	1.617685	0.548087	0.000066
1886	1.8756e+02	-4.8753	-11.264244	0.000130	1.298142	0.439823	0.000053
1887	1.8766e+02	-4.8432	-11.196625	0.000166	1.657628	0.561620	0.000068
1888	1.8776e+02	-4.7758	-11.137560	0.000145	1.447928	0.490571	0.000059
1889	1.8786e+02	-4.7437	-11.072793	0.000159	1.587728	0.537937	0.000065
1890	1.8796e+02	-4.6988	-11.011691	0.000150	1.497857	0.507488	0.000061
1891	1.8806e+02	-4.6956	-10.955071	0.000139	1.388014	0.470272	0.000057
1892	1.8815e+02	-4.6539	-10.886637	0.000168	1.677599	0.568386	0.000069
1893	1.8825e+02	-4.6122	-10.820240	0.000163	1.627671	0.551470	0.000067
1894	1.8835e+02	-4.5865	-10.764842	0.000136	1.358057	0.460122	0.000056
1895	1.8845e+02	-4.5336	-10.701704	0.000155	1.547785	0.524404	0.000063
1896	1.8855e+02	-4.4951	-10.640195	0.000151	1.507842	0.510871	0.000062
1897	1.8865e+02	-4.4437	-10.575020	0.000160	1.597714	0.541320	0.000066
1898	1.8875e+02	-4.4004	-10.509845	0.000160	1.597714	0.541320	0.000066
1899	1.8885e+02	-4.3715	-10.450781	0.000145	1.447928	0.490571	0.000059
1900	1.8895e+02	-4.3394	-10.389272	0.000151	1.507842	0.510871	0.000062
1901	1.8905e+02	-4.2865	-10.325319	0.000157	1.567757	0.531170	0.000064
1902	1.8915e+02	-4.2255	-10.262996	0.000153	1.527814	0.517637	0.000063
1903	1.8925e+02	-4.2047	-10.197821	0.000160	1.597714	0.541320	0.000066
1904	1.8935e+02	-4.1469	-10.139978	0.000142	1.417971	0.480422	0.000058
1905	1.8945e+02	-4.1389	-10.069101	0.000174	1.737514	0.588686	0.000071
1906	1.8955e+02	-4.0892	-10.008406	0.000149	1.487871	0.504104	0.000061
1907	1.8965e+02	-4.0651	-9.937122	0.000175	1.747499	0.592069	0.000072
1908	1.8975e+02	-3.9897	-9.878872	0.000143	1.427957	0.483805	0.000059
1909	1.8985e+02	-3.9769	-9.815733	0.000155	1.547785	0.524404	0.000063
1910	1.8995e+02	-3.9288	-9.747707	0.000167	1.667614	0.565003	0.000068
1911	1.9004e+02	-3.8887	-9.680088	0.000166	1.657628	0.561620	0.000068
1912	1.9014e+02	-3.8389	-9.619802	0.000148	1.477885	0.500721	0.000061
1913	1.9024e+02	-3.8453	-9.552998	-0.000164	-1.637657	-0.554853	0.000067
1914	1.9034e+02	-3.7748	-9.485379	0.000166	1.657628	0.561620	0.000068
1915	1.9044e+02	-3.7619	-9.418574	0.000164	1.637657	0.554853	0.000067
1916	1.9054e+02	-3.6897	-9.354622	0.000157	1.567757	0.531170	0.000064
1917	1.9064e+02	-3.6272	-9.289447	0.000160	1.597714	0.541320	0.000066
1918	1.9074e+02	-3.5951	-9.223457	0.000162	1.617685	0.548087	0.000066
1919	1.9084e+02	-3.5582	-9.152987	0.000173	1.727528	0.585302	0.000071
1920	1.9094e+02	-3.5245	-9.086590	0.000163	1.627671	0.551470	0.000067
1921	1.9104e+02	-3.4940	-9.020601	0.000162	1.617685	0.548087	0.000066
1922	1.9114e+02	-3.4507	-8.957463	0.000155	1.547785	0.524404	0.000063
1923	1.9124e+02	-3.4090	-8.896769	0.000149	1.487871	0.504104	0.000061
1924	1.9134e+02	-3.3753	-8.829964	0.000164	1.637657	0.554853	0.000067
1925	1.9144e+02	-3.3416	-8.761531	0.000168	1.677599	0.568386	0.000069
1926	1.9154e+02	-3.2887	-8.699208	0.000153	1.527814	0.517637	0.000063
1927	1.9164e+02	-3.2710	-8.633218	0.000162	1.617685	0.548087	0.000066
1928	1.9174e+02	-3.2085	-8.564784	0.000168	1.677599	0.568386	0.000069
1929	1.9184e+02	-3.1635	-8.500832	0.000157	1.567757	0.531170	0.000064
1930	1.9194e+02	-3.1283	-8.432806	0.000167	1.667614	0.565003	0.000068
1931	1.9203e+02	-3.0753	-8.372111	0.000149	1.487871	0.504104	0.000061
1932	1.9213e+02	-3.0513	-8.301234	0.000174	1.737514	0.588686	0.000071
1933	1.9223e+02	-3.0063	-8.245428	0.000137	1.368042	0.463505	0.000056
1934	1.9233e+02	-2.9726	-8.177809	0.000166	1.657628	0.561620	0.000068
1935	1.9243e+02	-2.9357	-8.108968	0.000169	1.687585	0.571769	0.000069
1936	1.9253e+02	-2.9117	-8.042571	0.000163	1.627671	0.551470	0.000067
1937	1.9263e+02	-2.8652	-7.972916	0.000171	1.707557	0.578536	0.000070
1938	1.9273e+02	-2.8170	-7.911000	0.000152	1.517828	0.514254	0.000062
1939	1.9283e+02	-2.7705	-7.834012	0.000189	1.887299	0.639434	0.000077
1940	1.9293e+02	-2.7304	-7.770467	0.000156	1.557771	0.527787	0.000064
1941	1.9303e+02	-2.6662	-7.701218	0.000170	1.697571	0.575153	0.000070
1942	1.9313e+02	-2.6502	-7.632377	0.000169	1.687585	0.571769	0.000069
1943	1.9323e+02	-2.6342	-7.561092	0.000175	1.747499	0.592069	0.000072
1944	1.9333e+02	-2.5620	-7.494696	0.000163	1.627671	0.551470	0.000067
1945	1.9343e+02	-2.5411	-7.423818	0.000174	1.737514	0.588686	0.000071
1946	1.9353e+02	-2.4785	-7.347645	0.000187	1.867328	0.632668	0.000077
1947	1.9363e+02	-2.4432	-7.277582	0.000172	1.717542	0.581919	0.000070
1948	1.9373e+02	-2.4272	-7.212000	0.000161	1.607699	0.544703	0.000066
1949	1.9383e+02	-2.3711	-7.134605	0.000190	1.897285	0.642818	0.000078
1950	1.9393e+02	-2.3438	-7.059654	0.000184	1.837371	0.622518	0.000075
1951	1.9403e+02	-2.2844	-6.983073	0.000188	1.877314	0.636051	0.000077
1952	1.9412e+02	-2.2523	-6.914640	0.000168	1.677599	0.568386	0.000069
1953	1.9422e+02	-2.2187	-6.835615	0.000194	1.937228	0.656351	0.000079
1954	1.9432e+02	-2.1737	-6.764330	0.000175	1.747499	0.592069	0.000072
1955	1.9442e+02	-2.1240	-6.687750	0.000188	1.877314	0.636051	0.000077
1956	1.9452e+02	-2.0823	-6.615243	0.000178	1.777457	0.602219	0.000073
1957	1.9462e+02	-2.0711	-6.537848	0.000190	1.897285	0.642818	0.000078
1958	1.9472e+02	-2.0197	-6.459231	0.000193	1.927242	0.652967	0.000079
1959	1.9482e+02	-1.9636	-6.383058	0.000187	1.867328	0.632668	0.000077
1960	1.9492e+02	-1.9572	-6.308107	0.000184	1.837371	0.622518	0.000075
1961	1.9502e+02	-1.8978	-6.227860	0.000197	1.967185	0.666500	0.000081
1962	1.9512e+02	-1.8657	-6.153317	0.000183	1.827385	0.619135	0.000075
1963	1.9522e+02	-1.7951	-6.075107	0.000192	1.917256	0.649584	0.000079
1964	1.9532e+02	-1.7631	-5.995268	0.000196	1.957199	0.663117	0.000080
1965	1.9542e+02	-1.7486	-5.915429	0.000196	1.957199	0.663117	0.000080
1966	1.9552e+02	-1.7053	-5.840070	0.000185	1.847357	0.625901	0.000076
1967	1.9562e+02	-1.6251	-5.763082	0.000189	1.887299	0.639434	0.000077
1968	1.9572e+02	-1.6235	-5.679170	0.000206	2.057056	0.696950	0.000084
1969	1.9582e+02	-1.5882	-5.603404	0.000186	1.857342	0.629285	0.000076
1970	1.9592e+02	-1.5465	-5.524787	0.000193	1.927242	0.652967	0.000079
1971	1.9601e+02	-1.4967	-5.446170	0.000193	1.927242	0.652967	0.000079
1972	1.9611e+02	-1.4615	-5.361850	0.000207	2.067042	0.700333	0.000085
1973	1.9621e+02	-1.3989	-5.282826	0.000194	1.937228	0.656351	0.000079
1974	1.9631e+02	-1.3957	-5.199728	0.000204	2.037085	0.690183	0.000084
1975	1.9641e+02	-1.3363	-5.119889	0.000196	1.957199	0.663117	0.000080
1976	1.9651e+02	-1.3171	-5.036383	0.000205	2.047071	0.693566	0.000084
1977	1.9661e+02	-1.2722	-4.956952	0.000195	1.947214	0.659734	0.000080
1978	1.9671e+02	-1.2353	-4.869780	0.000214	2.136942	0.724016	0.000088
1979	1.9681e+02	-1.1823	-4.790756	0.000194	1.937228	0.656351	0.000079
1980	1.9691e+02	-1.1406	-4.708065	0.000203	2.027099	0.686800	0.000083
1981	1.9701e+02	-1.1037	-4.624153	0.000206	2.057056	0.696950	0.000084
1982	1.9711e+02	-1.0588	-4.538611	0.000210	2.096999	0.710483	0.000086
1983	1.9721e+02	-1.0171	-4.461216	0.000190	1.897285	0.642818	0.000078
1984	1.9731e+02	-0.9545	-4.371193	0.000221	2.206842	0.747698	0.000090
1985	1.9741e+02	-0.9529	-4.284022	0.000214	2.136942	0.724016	0.000088
1986	1.9751e+02	-0.9192	-4.198480	0.000210	2.096999	0.710483	0.000086
1987	1.9761e+02	-0.8759	-4.110901	0.000215	2.146928	0.727399	0.000088
1988	1.9771e+02	-0.7989	-4.034728	0.000187	1.867328	0.632668	0.000077
1989	1.9781e+02	-0.7540	-3.943483	0.000224	2.236799	0.757848	0.000092
1990	1.9791e+02	-0.7203	-3.859163	0.000207	2.067042	0.700333	0.000085
1991	1.9800e+02	-0.7155	-3.771992	0.000214	2.136942	0.724016	0.000088
1992	1.9810e+02	-0.6369	-3.691746	0.000197	1.967185	0.666500	0.000081
1993	1.9820e+02	-0.6337	-3.599686	0.000226	2.256771	0.764615	0.000093
1994	1.9830e+02	-0.5823	-3.516588	0.000204	2.037085	0.690183	0.000084
1995	1.9840e+02	-0.5422	-3.425751	0.000223	2.226814	0.754465	0.000091
1996	1.9850e+02	-0.5037	-3.342246	0.000205	2.047071	0.693566	0.000084
1997	1.9860e+02	-0.4668	-3.256296	0.000211	2.106985	0.713866	0.000086
1998	1.9870e+02	-0.4251	-3.164237	0.000226	2.256771	0.764615	0.000093
1999	1.9880e+02	-0.4027	-3.077880	0.000212	2.116971	0.717249	0.000087
2000	1.9890e+02	-0.3529	-2.993560	0.000207	2.067042	0.700333	0.000085
2001	1.9900e+02	-0.3064	-2.908018	0.000210	2.096999	0.710483	0.000086
2002	1.9910e+02	-0.2438	-2.817181	0.000223	2.226814	0.754465	0.000091
2003	1.9920e+02	-0.2294	-2.722270	0.000233	2.326671	0.788297	0.000095
2004	1.9930e+02	-0.1733	-2.642431	0.000196	1.957199	0.663117	0.000080
2005	1.9940e+02	-0.1396	-2.554445	0.000216	2.156914	0.730782	0.000088
2006	1.9950e+02	-0.0914	-2.465237	0.000219	2.186871	0.740932	0.000090
2007	1.9960e+02	-0.0481	-2.368697	0.000237	2.366613	0.801830	0.000097
2008	1.9970e+02	-0.0209	-2.281118	0.000215	2.146928	0.727399	0.000088
2009	1.9980e+02	0.0112	-2.187837	0.000215	2.146928	0.727399	0.000094

Center data before PMax,+/-Pr and +/-Vc Calc.

PMax (uC/cm2):	2.90e+01
Pr (uC/cm2):	7.46e-01
-Pr (uC/cm2):	-2.19e+00
PLoss (uC/cm2):	-5.52e-01
Vc:	7.91e-01
-Vc:	-3.60e-01
C (Max-Eff) (nF):	1.45e-01
K (Eff):	4.91e+02
Vert. (+/-Pr) Shift (uC/cm2):	-7.21e-01
Horiz. Shift (+/-Vc):	2.16e-01
Offset (uC/cm2):	1.66e+00

A (Loop Area - uC/cm2·Volts):	1.52e-03



Hysteresis Version: 5.48.1 - Radiant Technologies, Inc., 1999 - 9/12/24

