»»»»»»»»»»»»»»»»»»»»»»»»»»»»»»»»»»»» Hysteresis ««««««««««««««««««««««««««««««««««««
»»»  Executed Version:	5.48.1
»»»  Vision Version:	5.48.4 (R)
»»»  Vision Compiled:	9/18/24
»»»  Driver Version:	5.47.0
»»»  Windows Version:	Windows 8 or 8.1
»»»  Processor Information:	x86 (AMD or Intel) - 32 Processors
»»»  Tester Name:	PMF21124-494 (100V)
»»»  Tester S/N:	PMF21124-494
»»»  Internal Amp Type:	100V RevK 270k
»»»  Internal Amp S/N:	iAB2-596/K     
»»»  Execution Count:	1
»»»»»»»»»»»»»»»»»»»»»»»»»»»»»»»»»»»»»»»»»»««««««««««««««««««««««««««««««««««««««««««

Stored:	6/12/2025 - 10:27:51
Configured:	06/12/25 10:06:17 AM
Executed:	06/12/25 10:27:18 AM

»»»»»»»»»»»»»»»»»»»»»»»»»»»»»»»»»»» Sample Info ««««««««««««««««««««««««««««««««««««
Sample Name:	
Lot Name:	
Wafer Name:	
Die Row/Column:	0/0
Capacitor Number:	0
Sample Area (cm2):	1.00e-04
Sample Thickness (microns):	3.00e-01

Amplifier:	Internal

»»»»»»»»»»»»»»»»»»»»»»»»»»»»»»»»»»» Tester Info «««««««««««««««««««««««««««««««««««
Tester Name:	PMF21124-494 (100V)
Tester Serial Number:	PMF21124-494
Return Signal Amp. Level:	1.79 [Index: 2]

»»»»»»»»»»»»»»»»»»»»»»»»»»»»»»»» Hysteresis Info ««««««««««««««««««««««««««««««««««
Task Name:	Hyst-1390
Volts:	20.00
Field:	666.67 (kV/cm)
DCBias:	0.00
DCField:	0.00 (kV/cm)
Hysteresis Period (ms):	1.00e+00
Preset:	Enabled
Preset Delay (ms):	1.00e+03
Profile:	Standard Bipolar

»»»»»»»»»»»»»»»»»»»»»»»»»»»»»»»»»»»»»» Data «««««««««««««««««««««««««««««««««««««««
Points:	2001

Valid Data

Point	Time (ms)	Drive Voltage	Measured Polarization (uC/cm2)	Capacitance (uF)	Normalized Capacitance (uF/cm2)	Dielectric Constant	Instantaneous Current (mA)
   1	0.0000e+00	0.0497	-0.973703	-0.000121	-1.208277	-0.409375	0.009835
   2	5.0000e-04	0.0449	-0.924526	-0.000121	-1.208277	-0.409375	0.009835
   3	1.0000e-03	0.1396	-0.916401	0.000020	0.199628	0.067636	0.001625
   4	1.5000e-03	0.1364	-0.825317	-0.000224	-2.237938	-0.758234	0.018217
   5	2.0000e-03	0.1925	-0.739364	0.000211	2.111857	0.715517	0.017191
   6	2.5000e-03	0.2310	-0.657688	0.000201	2.006790	0.679919	0.016335
   7	3.0000e-03	0.2759	-0.596537	0.000150	1.502466	0.509049	0.012230
   8	3.5000e-03	0.3417	-0.521275	0.000185	1.849189	0.626522	0.015052
   9	4.0000e-03	0.3513	-0.421211	0.000246	2.458580	0.832990	0.020013
  10	4.5000e-03	0.3545	-0.339534	0.000201	2.006790	0.679919	0.016335
  11	5.0000e-03	0.4315	-0.262562	0.000189	1.891216	0.640761	0.015395
  12	5.5000e-03	0.4668	-0.143254	0.000293	2.931384	0.993180	0.023861
  13	6.0000e-03	0.5246	-0.069275	0.000182	1.817668	0.615843	0.014796
  14	6.5000e-03	0.5631	0.008980	0.000192	1.922736	0.651441	0.015651
  15	7.0000e-03	0.6016	0.082532	0.000181	1.807162	0.612283	0.014710
  16	7.5000e-03	0.6192	0.165491	0.000204	2.038310	0.690598	0.016592
  17	8.0000e-03	0.6786	0.227497	0.000152	1.523479	0.516169	0.012401
  18	8.5000e-03	0.7075	0.329699	0.000251	2.511114	0.850788	0.020440
  19	9.0000e-03	0.7524	0.413514	0.000206	2.059324	0.697718	0.016763
  20	9.5000e-03	0.7861	0.485355	0.000177	1.765135	0.598044	0.014368
  21	1.0000e-02	0.8374	0.576011	0.000223	2.227432	0.754674	0.018131
  22	1.0500e-02	0.8663	0.660681	0.000208	2.080337	0.704837	0.016934
  23	1.1000e-02	0.9224	0.743640	0.000204	2.038310	0.690598	0.016592
  24	1.1500e-02	0.9208	0.824034	-0.000198	-1.975270	-0.669239	0.016079
  25	1.2000e-02	0.9834	0.912125	0.000216	2.164391	0.733316	0.017618
  26	1.2500e-02	1.0203	1.011334	0.000244	2.437567	0.825870	0.019842
  27	1.3000e-02	1.0411	1.060511	0.000121	1.208277	0.409375	0.009835
  28	1.3500e-02	1.1198	1.161003	0.000247	2.469087	0.836549	0.020098
  29	1.4000e-02	1.1791	1.219587	0.000144	1.439425	0.487690	0.011717
  30	1.4500e-02	1.2208	1.305540	0.000211	2.111857	0.715517	0.017191
  31	1.5000e-02	1.2304	1.391493	0.000211	2.111857	0.715517	0.017191
  32	1.5500e-02	1.2754	1.469748	0.000192	1.922736	0.651441	0.015651
  33	1.6000e-02	1.2978	1.541589	0.000177	1.765135	0.598044	0.014368
  34	1.6500e-02	1.3379	1.629680	0.000216	2.164391	0.733316	0.017618
  35	1.7000e-02	1.3732	1.726323	0.000237	2.374526	0.804511	0.019329
  36	1.7500e-02	1.4374	1.787046	0.000149	1.491959	0.505489	0.012145
  37	1.8000e-02	1.4759	1.882406	0.000234	2.343006	0.793832	0.019072
  38	1.8500e-02	1.4951	1.957669	0.000185	1.849189	0.626522	0.015052
  39	1.9000e-02	1.5529	2.052601	0.000233	2.332499	0.790272	0.018987
  40	1.9500e-02	1.5866	2.128291	0.000186	1.859695	0.630082	0.015138
  41	2.0000e-02	1.6331	2.196283	0.000167	1.670574	0.566006	0.013598
  42	2.0500e-02	1.6636	2.295065	0.000243	2.427060	0.822310	0.019756
  43	2.1000e-02	1.7037	2.375031	0.000196	1.964763	0.665680	0.015993
  44	2.1500e-02	1.7374	2.469108	0.000231	2.311486	0.783153	0.018816
  45	2.2000e-02	1.8224	2.509733	0.000100	0.998142	0.338180	0.008125
  46	2.2500e-02	1.8352	2.614073	0.000256	2.563648	0.868587	0.020868
  47	2.3000e-02	1.8818	2.694894	0.000199	1.985776	0.672799	0.016164
  48	2.3500e-02	1.9138	2.772295	0.000190	1.901722	0.644321	0.015480
  49	2.4000e-02	1.9459	2.845419	0.000180	1.796655	0.608723	0.014625
  50	2.4500e-02	1.9941	2.918115	0.000179	1.786148	0.605163	0.014539
  51	2.5000e-02	2.0261	3.010054	0.000226	2.258952	0.765354	0.018388
  52	2.5500e-02	2.0582	3.076764	0.000164	1.639054	0.555326	0.013342
  53	2.6000e-02	2.1048	3.169131	0.000227	2.269459	0.768913	0.018473
  54	2.6500e-02	2.1336	3.235840	0.000164	1.639054	0.555326	0.013342
  55	2.7000e-02	2.1545	3.324787	0.000219	2.185405	0.740435	0.017789
  56	2.7500e-02	2.2363	3.399621	0.000184	1.838682	0.622962	0.014967
  57	2.8000e-02	2.2796	3.480870	0.000200	1.996283	0.676359	0.016250
  58	2.8500e-02	2.3390	3.531330	0.000124	1.239797	0.420055	0.010092
  59	2.9000e-02	2.3630	3.632249	0.000248	2.479594	0.840109	0.020184
  60	2.9500e-02	2.3855	3.688268	0.000138	1.376385	0.466332	0.011204
  61	3.0000e-02	2.4368	3.769517	0.000200	1.996283	0.676359	0.016250
  62	3.0500e-02	2.4609	3.857180	0.000215	2.153884	0.729756	0.017533
  63	3.1000e-02	2.5170	3.918758	0.000151	1.512972	0.512609	0.012316
  64	3.1500e-02	2.5395	3.997441	0.000193	1.933243	0.655000	0.015737
  65	3.2000e-02	2.5828	4.101782	0.000256	2.563648	0.868587	0.020868
  66	3.2500e-02	2.6133	4.174478	0.000179	1.786148	0.605163	0.014539
  67	3.3000e-02	2.6678	4.248885	0.000183	1.828175	0.619402	0.014881
  68	3.3500e-02	2.6967	4.322436	0.000181	1.807162	0.612283	0.014710
  69	3.4000e-02	2.7753	4.383587	0.000150	1.502466	0.509049	0.012230
  70	3.4500e-02	2.7994	4.464408	0.000199	1.985776	0.672799	0.016164
  71	3.5000e-02	2.8122	4.552071	0.000215	2.153884	0.729756	0.017533
  72	3.5500e-02	2.8892	4.610656	0.000144	1.439425	0.487690	0.011717
  73	3.6000e-02	2.9293	4.681642	0.000174	1.744121	0.590924	0.014197
  74	3.6500e-02	2.9454	4.775719	0.000231	2.311486	0.783153	0.018816
  75	3.7000e-02	2.9951	4.828317	0.000129	1.292331	0.437853	0.010520
  76	3.7500e-02	3.0480	4.892033	0.000157	1.565506	0.530408	0.012743
  77	3.8000e-02	3.0737	4.970716	0.000193	1.933243	0.655000	0.015737
  78	3.8500e-02	3.1266	5.063511	0.000228	2.279965	0.772473	0.018559
  79	3.9000e-02	3.1603	5.140056	0.000188	1.880709	0.637201	0.015309
  80	3.9500e-02	3.1908	5.209331	0.000170	1.702094	0.576685	0.013855
  81	4.0000e-02	3.2550	5.271764	0.000153	1.533986	0.519729	0.012487
  82	4.0500e-02	3.2389	5.398341	-0.000311	-3.109999	-1.053696	0.025315
  83	4.1000e-02	3.3192	5.421861	0.000058	0.577871	0.195788	0.004704
  84	4.1500e-02	3.3528	5.506958	0.000209	2.090844	0.708397	0.017019
  85	4.2000e-02	3.3994	5.578372	0.000175	1.754628	0.594484	0.014283
  86	4.2500e-02	3.4523	5.630114	0.000127	1.271317	0.430734	0.010349
  87	4.3000e-02	3.4748	5.705376	0.000185	1.849189	0.626522	0.015052
  88	4.3500e-02	3.5117	5.788336	0.000204	2.038310	0.690598	0.016592
  89	4.4000e-02	3.5774	5.854190	0.000162	1.618040	0.548207	0.013171
  90	4.4500e-02	3.5951	5.926459	0.000178	1.775641	0.601604	0.014454
  91	4.5000e-02	3.6320	6.005997	0.000195	1.954256	0.662120	0.015908
  92	4.5500e-02	3.6737	6.070141	0.000158	1.576013	0.533968	0.012829
  93	4.6000e-02	3.7090	6.144975	0.000184	1.838682	0.622962	0.014967
  94	4.6500e-02	3.7459	6.222803	0.000191	1.912229	0.647881	0.015566
  95	4.7000e-02	3.8133	6.289085	0.000163	1.628547	0.551767	0.013256
  96	4.7500e-02	3.8101	6.368196	-0.000194	-1.943749	-0.658560	0.015822
  97	4.8000e-02	3.8566	6.437899	0.000171	1.712601	0.580245	0.013941
  98	4.8500e-02	3.9352	6.524279	0.000212	2.122364	0.719076	0.017276
  99	4.9000e-02	3.9576	6.577304	0.000130	1.302837	0.441413	0.010605
 100	4.9500e-02	3.9994	6.660691	0.000205	2.048817	0.694158	0.016677
 101	5.0000e-02	4.0491	6.724407	0.000157	1.565506	0.530408	0.012743
 102	5.0500e-02	4.0571	6.794538	0.000172	1.723108	0.583805	0.014026
 103	5.1000e-02	4.1068	6.866807	0.000178	1.775641	0.601604	0.014454
 104	5.1500e-02	4.1437	6.937365	0.000173	1.733614	0.587364	0.014112
 105	5.2000e-02	4.2079	7.030160	0.000228	2.279965	0.772473	0.018559
 106	5.2500e-02	4.2624	7.065652	0.000087	0.872061	0.295462	0.007099
 107	5.3000e-02	4.2528	7.132790	-0.000165	-1.649560	-0.558886	0.013427
 108	5.3500e-02	4.3090	7.223446	0.000223	2.227432	0.754674	0.018131
 109	5.4000e-02	4.3378	7.294004	0.000173	1.733614	0.587364	0.014112
 110	5.4500e-02	4.3972	7.366701	0.000179	1.786148	0.605163	0.014539
 111	5.5000e-02	4.4325	7.446239	0.000195	1.954256	0.662120	0.015908
 112	5.5500e-02	4.4902	7.488574	0.000104	1.040169	0.352419	0.008467
 113	5.6000e-02	4.5320	7.547586	0.000145	1.449932	0.491250	0.011802
 114	5.6500e-02	4.5592	7.629690	0.000202	2.017297	0.683479	0.016421
 115	5.7000e-02	4.5721	7.697683	0.000167	1.670574	0.566006	0.013598
 116	5.7500e-02	4.6475	7.777648	0.000196	1.964763	0.665680	0.015993
 117	5.8000e-02	4.6587	7.852055	0.000183	1.828175	0.619402	0.014881
 118	5.8500e-02	4.7068	7.912350	0.000148	1.481452	0.501930	0.012059
 119	5.9000e-02	4.7726	7.968369	0.000138	1.376385	0.466332	0.011204
 120	5.9500e-02	4.7886	8.047480	0.000194	1.943749	0.658560	0.015822
 121	6.0000e-02	4.8384	8.126163	0.000193	1.933243	0.655000	0.015737
 122	6.0500e-02	4.8496	8.180472	0.000133	1.334358	0.452093	0.010862
 123	6.1000e-02	4.9330	8.252740	0.000178	1.775641	0.601604	0.014454
 124	6.1500e-02	4.9795	8.301489	0.000120	1.197770	0.405815	0.009750
 125	6.2000e-02	5.0068	8.369482	0.000167	1.670574	0.566006	0.013598
 126	6.2500e-02	5.0325	8.454579	0.000209	2.090844	0.708397	0.017019
 127	6.3000e-02	5.0646	8.518295	0.000157	1.565506	0.530408	0.012743
 128	6.3500e-02	5.0966	8.605531	0.000214	2.143378	0.726196	0.017447
 129	6.4000e-02	5.1384	8.660695	0.000136	1.355371	0.459212	0.011033
 130	6.4500e-02	5.2234	8.715858	0.000136	1.355371	0.459212	0.011033
 131	6.5000e-02	5.2362	8.799673	0.000206	2.059324	0.697718	0.016763
 132	6.5500e-02	5.2731	8.854837	0.000136	1.355371	0.459212	0.011033
 133	6.6000e-02	5.3036	8.933520	0.000193	1.933243	0.655000	0.015737
 134	6.6500e-02	5.3549	8.994242	0.000149	1.491959	0.505489	0.012145
 135	6.7000e-02	5.3902	9.066083	0.000177	1.765135	0.598044	0.014368
 136	6.7500e-02	5.4432	9.116116	0.000123	1.229290	0.416495	0.010006
 137	6.8000e-02	5.4608	9.196082	0.000196	1.964763	0.665680	0.015993
 138	6.8500e-02	5.5186	9.246541	0.000124	1.239797	0.420055	0.010092
 139	6.9000e-02	5.5651	9.327790	0.000200	1.996283	0.676359	0.016250
 140	6.9500e-02	5.6212	9.380388	0.000129	1.292331	0.437853	0.010520
 141	7.0000e-02	5.6260	9.477459	0.000239	2.385033	0.808071	0.019414
 142	7.0500e-02	5.6822	9.530912	0.000131	1.313344	0.444973	0.010691
 143	7.1000e-02	5.6838	9.607029	0.000187	1.870202	0.633642	0.015223
 144	7.1500e-02	5.7383	9.654068	0.000116	1.155743	0.391576	0.009408
 145	7.2000e-02	5.7865	9.726337	0.000178	1.775641	0.601604	0.014454
 146	7.2500e-02	5.8250	9.825118	0.000243	2.427060	0.822310	0.019756
 147	7.3000e-02	5.8554	9.851203	0.000064	0.640912	0.217147	0.005217
 148	7.3500e-02	5.9357	9.906795	0.000137	1.365878	0.462772	0.011118
 149	7.4000e-02	5.9533	9.973932	0.000165	1.649560	0.558886	0.013427
 150	7.4500e-02	6.0111	10.042780	0.000169	1.691587	0.573125	0.013770
 151	7.5000e-02	6.0431	10.116759	0.000182	1.817668	0.615843	0.014796
 152	7.5500e-02	6.0833	10.162515	0.000112	1.124223	0.380897	0.009151
 153	7.6000e-02	6.1458	10.232645	0.000172	1.723108	0.583805	0.014026
 154	7.6500e-02	6.1603	10.312611	0.000196	1.964763	0.665680	0.015993
 155	7.7000e-02	6.2340	10.364354	0.000127	1.271317	0.430734	0.010349
 156	7.7500e-02	6.2276	10.451589	-0.000214	-2.143378	-0.726196	0.017447
 157	7.8000e-02	6.2854	10.510602	0.000145	1.449932	0.491250	0.011802
 158	7.8500e-02	6.3319	10.545239	0.000085	0.851047	0.288343	0.006928
 159	7.9000e-02	6.3560	10.626060	0.000199	1.985776	0.672799	0.016164
 160	7.9500e-02	6.3865	10.703888	0.000191	1.912229	0.647881	0.015566
 161	8.0000e-02	6.4105	10.756914	0.000130	1.302837	0.441413	0.010605
 162	8.0500e-02	6.4651	10.840301	0.000205	2.048817	0.694158	0.016677
 163	8.1000e-02	6.4811	10.925826	0.000210	2.101351	0.711957	0.017105
 164	8.1500e-02	6.5693	10.951483	0.000063	0.630405	0.213587	0.005132
 165	8.2000e-02	6.6351	10.989970	0.000095	0.945608	0.320381	0.007697
 166	8.2500e-02	6.6335	11.063521	-0.000181	-1.807162	-0.612283	0.014710
 167	8.3000e-02	6.6736	11.135362	0.000177	1.765135	0.598044	0.014368
 168	8.3500e-02	6.7282	11.204637	0.000170	1.702094	0.576685	0.013855
 169	8.4000e-02	6.7811	11.253387	0.000120	1.197770	0.405815	0.009750
 170	8.4500e-02	6.7955	11.320096	0.000164	1.639054	0.555326	0.013342
 171	8.5000e-02	6.8356	11.410325	0.000222	2.216925	0.751114	0.018046
 172	8.5500e-02	6.8773	11.450522	0.000099	0.987635	0.334620	0.008039
 173	8.6000e-02	6.9030	11.516376	0.000162	1.618040	0.548207	0.013171
 174	8.6500e-02	6.9608	11.569829	0.000131	1.313344	0.444973	0.010691
 175	8.7000e-02	6.9961	11.650223	0.000198	1.975270	0.669239	0.016079
 176	8.7500e-02	7.0522	11.713084	0.000154	1.544493	0.523288	0.012572
 177	8.8000e-02	7.0795	11.756702	0.000107	1.071689	0.363098	0.008724
 178	8.8500e-02	7.1132	11.854628	0.000241	2.406046	0.815191	0.019585
 179	8.9000e-02	7.1693	11.879858	0.000062	0.619898	0.210027	0.005046
 180	8.9500e-02	7.2110	11.940153	0.000148	1.481452	0.501930	0.012059
 181	9.0000e-02	7.2720	12.010711	0.000173	1.733614	0.587364	0.014112
 182	9.0500e-02	7.2768	12.075283	0.000159	1.586520	0.537527	0.012914
 183	9.1000e-02	7.3121	12.135150	0.000147	1.470945	0.498370	0.011974
 184	9.1500e-02	7.3426	12.208702	0.000181	1.807162	0.612283	0.014710
 185	9.2000e-02	7.3714	12.286957	0.000192	1.922736	0.651441	0.015651
 186	9.2500e-02	7.4388	12.324588	0.000092	0.924594	0.313261	0.007526
 187	9.3000e-02	7.4757	12.394291	0.000171	1.712601	0.580245	0.013941
 188	9.3500e-02	7.5206	12.456297	0.000152	1.523479	0.516169	0.012401
 189	9.4000e-02	7.5656	12.507184	0.000125	1.250304	0.423614	0.010177
 190	9.4500e-02	7.5928	12.579453	0.000178	1.775641	0.601604	0.014454
 191	9.5000e-02	7.6442	12.635899	0.000139	1.386891	0.469892	0.011289
 192	9.5500e-02	7.6811	12.716293	0.000198	1.975270	0.669239	0.016079
 193	9.6000e-02	7.7244	12.767608	0.000126	1.260810	0.427174	0.010263
 194	9.6500e-02	7.7372	12.830469	0.000154	1.544493	0.523288	0.012572
 195	9.7000e-02	7.7709	12.887343	0.000140	1.397398	0.473451	0.011375
 196	9.7500e-02	7.8479	12.946355	0.000145	1.449932	0.491250	0.011802
 197	9.8000e-02	7.8784	13.009216	0.000154	1.544493	0.523288	0.012572
 198	9.8500e-02	7.9153	13.061386	0.000128	1.281824	0.434294	0.010434
 199	9.9000e-02	7.9522	13.126385	0.000160	1.597026	0.541087	0.013000
 200	9.9500e-02	8.0147	13.172141	0.000112	1.124223	0.380897	0.009151
 201	1.0000e-01	8.0356	13.235858	0.000157	1.565506	0.530408	0.012743
 202	1.0050e-01	8.0741	13.302567	0.000164	1.639054	0.555326	0.013342
 203	1.0100e-01	8.1078	13.381678	0.000194	1.943749	0.658560	0.015822
 204	1.0150e-01	8.1704	13.413322	0.000078	0.777500	0.263424	0.006329
 205	1.0200e-01	8.1575	13.499275	-0.000211	-2.111857	-0.715517	0.017191
 206	1.0250e-01	8.2265	13.569833	0.000173	1.733614	0.587364	0.014112
 207	1.0300e-01	8.2907	13.581379	0.000028	0.283682	0.096114	0.002309
 208	1.0350e-01	8.2923	13.677594	0.000236	2.364019	0.800951	0.019243
 209	1.0400e-01	8.3388	13.731903	0.000133	1.334358	0.452093	0.010862
 210	1.0450e-01	8.3869	13.795619	0.000157	1.565506	0.530408	0.012743
 211	1.0500e-01	8.4623	13.843085	0.000117	1.166250	0.395136	0.009493
 212	1.0550e-01	8.4752	13.893545	0.000124	1.239797	0.420055	0.010092
 213	1.0600e-01	8.5233	13.963676	0.000172	1.723108	0.583805	0.014026
 214	1.0650e-01	8.5313	14.046207	0.000203	2.027803	0.687038	0.016506
 215	1.0700e-01	8.5778	14.113772	0.000166	1.660067	0.562446	0.013513
 216	1.0750e-01	8.6115	14.165942	0.000128	1.281824	0.434294	0.010434
 217	1.0800e-01	8.7014	14.189034	0.000057	0.567365	0.192228	0.004618
 218	1.0850e-01	8.7126	14.243343	0.000133	1.334358	0.452093	0.010862
 219	1.0900e-01	8.7671	14.328440	0.000209	2.090844	0.708397	0.017019
 220	1.0950e-01	8.8265	14.362650	0.000084	0.840540	0.284783	0.006842
 221	1.1000e-01	8.8361	14.451169	0.000217	2.174898	0.736875	0.017704
 222	1.1050e-01	8.8842	14.504622	0.000131	1.313344	0.444973	0.010691
 223	1.1100e-01	8.9324	14.544391	0.000098	0.977128	0.331060	0.007954
 224	1.1150e-01	8.9468	14.630771	0.000212	2.122364	0.719076	0.017276
 225	1.1200e-01	8.9757	14.683797	0.000130	1.302837	0.441413	0.010605
 226	1.1250e-01	9.0190	14.751361	0.000166	1.660067	0.562446	0.013513
 227	1.1300e-01	9.0607	14.803532	0.000128	1.281824	0.434294	0.010434
 228	1.1350e-01	9.1313	14.866393	0.000154	1.544493	0.523288	0.012572
 229	1.1400e-01	9.1586	14.912576	0.000113	1.134729	0.384457	0.009237
 230	1.1450e-01	9.2035	14.978858	0.000163	1.628547	0.551767	0.013256
 231	1.1500e-01	9.2195	15.018200	0.000097	0.966621	0.327500	0.007868
 232	1.1550e-01	9.2773	15.105008	0.000213	2.132871	0.722636	0.017362
 233	1.1600e-01	9.3013	15.153329	0.000119	1.187263	0.402256	0.009664
 234	1.1650e-01	9.3655	15.201651	0.000119	1.187263	0.402256	0.009664
 235	1.1700e-01	9.3976	15.287604	0.000211	2.111857	0.715517	0.017191
 236	1.1750e-01	9.4489	15.320958	0.000082	0.819527	0.277663	0.006671
 237	1.1800e-01	9.4874	15.365004	0.000108	1.082196	0.366658	0.008809
 238	1.1850e-01	9.5532	15.432996	0.000167	1.670574	0.566006	0.013598
 239	1.1900e-01	9.5452	15.496712	-0.000157	-1.565506	-0.530408	0.012743
 240	1.1950e-01	9.5949	15.570264	0.000181	1.807162	0.612283	0.014710
 241	1.2000e-01	9.6270	15.636973	0.000164	1.639054	0.555326	0.013342
 242	1.2050e-01	9.6864	15.688716	0.000127	1.271317	0.430734	0.010349
 243	1.2100e-01	9.7072	15.736182	0.000117	1.166250	0.395136	0.009493
 244	1.2150e-01	9.7393	15.792201	0.000138	1.376385	0.466332	0.011204
 245	1.2200e-01	9.8243	15.837530	0.000111	1.113716	0.377337	0.009066
 246	1.2250e-01	9.8291	15.887562	0.000123	1.229290	0.416495	0.010006
 247	1.2300e-01	9.8805	15.968811	0.000200	1.996283	0.676359	0.016250
 248	1.2350e-01	9.9286	16.013711	0.000110	1.103209	0.373777	0.008980
 249	1.2400e-01	9.9511	16.060322	0.000115	1.145236	0.388016	0.009322
 250	1.2450e-01	10.0008	16.116341	0.000138	1.376385	0.466332	0.011204
 251	1.2500e-01	10.0281	16.178347	0.000152	1.523479	0.516169	0.012401
 252	1.2550e-01	10.0842	16.240353	0.000152	1.523479	0.516169	0.012401
 253	1.2600e-01	10.1243	16.304069	0.000157	1.565506	0.530408	0.012743
 254	1.2650e-01	10.1516	16.360088	0.000138	1.376385	0.466332	0.011204
 255	1.2700e-01	10.2109	16.413113	0.000130	1.302837	0.441413	0.010605
 256	1.2750e-01	10.2398	16.453310	0.000099	0.987635	0.334620	0.008039
 257	1.2800e-01	10.2815	16.556795	0.000254	2.542634	0.861468	0.020697
 258	1.2850e-01	10.2944	16.585446	0.000070	0.703952	0.238506	0.005730
 259	1.2900e-01	10.3473	16.626071	0.000100	0.998142	0.338180	0.008125
 260	1.2950e-01	10.3938	16.703898	0.000191	1.912229	0.647881	0.015566
 261	1.3000e-01	10.4596	16.728273	0.000060	0.598885	0.202908	0.004875
 262	1.3050e-01	10.4805	16.797976	0.000171	1.712601	0.580245	0.013941
 263	1.3100e-01	10.5238	16.868107	0.000172	1.723108	0.583805	0.014026
 264	1.3150e-01	10.5655	16.926691	0.000144	1.439425	0.487690	0.011717
 265	1.3200e-01	10.6056	16.967316	0.000100	0.998142	0.338180	0.008125
 266	1.3250e-01	10.6264	17.026756	0.000146	1.460439	0.494810	0.011888
 267	1.3300e-01	10.6601	17.087478	0.000149	1.491959	0.505489	0.012145
 268	1.3350e-01	10.6954	17.144780	0.000141	1.407905	0.477011	0.011460
 269	1.3400e-01	10.7532	17.194385	0.000122	1.218783	0.412935	0.009921
 270	1.3450e-01	10.8045	17.270930	0.000188	1.880709	0.637201	0.015309
 271	1.3500e-01	10.8382	17.303001	0.000079	0.788006	0.266984	0.006414
 272	1.3550e-01	10.8671	17.380402	0.000190	1.901722	0.644321	0.015480
 273	1.3600e-01	10.9280	17.411618	0.000077	0.766993	0.259864	0.006243
 274	1.3650e-01	10.9746	17.477900	0.000163	1.628547	0.551767	0.013256
 275	1.3700e-01	10.9970	17.534347	0.000139	1.386891	0.469892	0.011289
 276	1.3750e-01	11.0339	17.597635	0.000155	1.554999	0.526848	0.012658
 277	1.3800e-01	11.0740	17.636122	0.000095	0.945608	0.320381	0.007697
 278	1.3850e-01	11.1494	17.701548	0.000161	1.607533	0.544647	0.013085
 279	1.3900e-01	11.1590	17.766975	0.000161	1.607533	0.544647	0.013085
 280	1.3950e-01	11.1799	17.812731	0.000112	1.124223	0.380897	0.009151
 281	1.4000e-01	11.2280	17.856776	0.000108	1.082196	0.366658	0.008809
 282	1.4050e-01	11.3050	17.906808	0.000123	1.229290	0.416495	0.010006
 283	1.4100e-01	11.3259	17.961117	0.000133	1.334358	0.452093	0.010862
 284	1.4150e-01	11.3532	18.037234	0.000187	1.870202	0.633642	0.015223
 285	1.4200e-01	11.4253	18.077858	0.000100	0.998142	0.338180	0.008125
 286	1.4250e-01	11.4542	18.136871	0.000145	1.449932	0.491250	0.011802
 287	1.4300e-01	11.4831	18.180916	0.000108	1.082196	0.366658	0.008809
 288	1.4350e-01	11.5007	18.237363	0.000139	1.386891	0.469892	0.011289
 289	1.4400e-01	11.5745	18.306638	0.000170	1.702094	0.576685	0.013855
 290	1.4450e-01	11.6130	18.346835	0.000099	0.987635	0.334620	0.008039
 291	1.4500e-01	11.6467	18.421669	0.000184	1.838682	0.622962	0.014967
 292	1.4550e-01	11.6965	18.457590	0.000088	0.882567	0.299022	0.007184
 293	1.4600e-01	11.7141	18.510188	0.000129	1.292331	0.437853	0.010520
 294	1.4650e-01	11.7703	18.568772	0.000144	1.439425	0.487690	0.011717
 295	1.4700e-01	11.7863	18.631206	0.000153	1.533986	0.519729	0.012487
 296	1.4750e-01	11.8104	18.673540	0.000104	1.040169	0.352419	0.008467
 297	1.4800e-01	11.8826	18.721862	0.000119	1.187263	0.402256	0.009664
 298	1.4850e-01	11.9483	18.788144	0.000163	1.628547	0.551767	0.013256
 299	1.4900e-01	11.9708	18.829196	0.000101	1.008648	0.341739	0.008210
 300	1.4950e-01	11.9997	18.885643	0.000139	1.386891	0.469892	0.011289
 301	1.5000e-01	12.0382	18.952780	0.000165	1.649560	0.558886	0.013427
 302	1.5050e-01	12.0767	19.008371	0.000137	1.365878	0.462772	0.011118
 303	1.5100e-01	12.1248	19.067383	0.000145	1.449932	0.491250	0.011802
 304	1.5150e-01	12.1440	19.116988	0.000122	1.218783	0.412935	0.009921
 305	1.5200e-01	12.2114	19.182415	0.000161	1.607533	0.544647	0.013085
 306	1.5250e-01	12.2355	19.205506	0.000057	0.567365	0.192228	0.004618
 307	1.5300e-01	12.2836	19.283762	0.000192	1.922736	0.651441	0.015651
 308	1.5350e-01	12.3173	19.320538	0.000090	0.903581	0.306141	0.007355
 309	1.5400e-01	12.3526	19.373563	0.000130	1.302837	0.441413	0.010605
 310	1.5450e-01	12.3831	19.431720	0.000143	1.428918	0.484131	0.011631
 311	1.5500e-01	12.4376	19.489877	0.000143	1.428918	0.484131	0.011631
 312	1.5550e-01	12.4890	19.522377	0.000080	0.798513	0.270544	0.006500
 313	1.5600e-01	12.5307	19.583527	0.000150	1.502466	0.509049	0.012230
 314	1.5650e-01	12.5483	19.646816	0.000155	1.554999	0.526848	0.012658
 315	1.5700e-01	12.5916	19.701124	0.000133	1.334358	0.452093	0.010862
 316	1.5750e-01	12.6333	19.746025	0.000110	1.103209	0.373777	0.008980
 317	1.5800e-01	12.6815	19.796057	0.000123	1.229290	0.416495	0.010006
 318	1.5850e-01	12.7248	19.848655	0.000129	1.292331	0.437853	0.010520
 319	1.5900e-01	12.7456	19.893983	0.000111	1.113716	0.377337	0.009066
 320	1.5950e-01	12.8034	19.959410	0.000161	1.607533	0.544647	0.013085
 321	1.6000e-01	12.8274	20.019277	0.000147	1.470945	0.498370	0.011974
 322	1.6050e-01	12.8900	20.040658	0.000053	0.525338	0.177989	0.004276
 323	1.6100e-01	12.9365	20.112072	0.000175	1.754628	0.594484	0.014283
 324	1.6150e-01	12.9237	20.207005	-0.000233	-2.332499	-0.790272	0.018987
 325	1.6200e-01	12.9927	20.229669	0.000056	0.556858	0.188669	0.004533
 326	1.6250e-01	13.0183	20.270721	0.000101	1.008648	0.341739	0.008210
 327	1.6300e-01	13.0745	20.333582	0.000154	1.544493	0.523288	0.012572
 328	1.6350e-01	13.0905	20.375061	0.000102	1.019155	0.345299	0.008296
 329	1.6400e-01	13.1916	20.406706	0.000078	0.777500	0.263424	0.006329
 330	1.6450e-01	13.1932	20.454600	0.000118	1.176756	0.398696	0.009579
 331	1.6500e-01	13.2285	20.533710	0.000194	1.943749	0.658560	0.015822
 332	1.6550e-01	13.2750	20.579466	0.000112	1.124223	0.380897	0.009151
 333	1.6600e-01	13.3007	20.637196	0.000142	1.418412	0.480571	0.011546
 334	1.6650e-01	13.3633	20.672261	0.000086	0.861554	0.291902	0.007013
 335	1.6700e-01	13.3921	20.717589	0.000111	1.113716	0.377337	0.009066
 336	1.6750e-01	13.4258	20.791996	0.000183	1.828175	0.619402	0.014881
 337	1.6800e-01	13.4756	20.836469	0.000109	1.092702	0.370218	0.008895
 338	1.6850e-01	13.5397	20.865120	0.000070	0.703952	0.238506	0.005730
 339	1.6900e-01	13.5622	20.948507	0.000205	2.048817	0.694158	0.016677
 340	1.6950e-01	13.6087	20.994263	0.000112	1.124223	0.380897	0.009151
 341	1.7000e-01	13.6360	21.031039	0.000090	0.903581	0.306141	0.007355
 342	1.7050e-01	13.6761	21.105018	0.000182	1.817668	0.615843	0.014796
 343	1.7100e-01	13.6889	21.151201	0.000113	1.134729	0.384457	0.009237
 344	1.7150e-01	13.7435	21.197385	0.000113	1.134729	0.384457	0.009237
 345	1.7200e-01	13.8044	21.237582	0.000099	0.987635	0.334620	0.008039
 346	1.7250e-01	13.8237	21.295311	0.000142	1.418412	0.480571	0.011546
 347	1.7300e-01	13.8526	21.366724	0.000175	1.754628	0.594484	0.014283
 348	1.7350e-01	13.8991	21.407349	0.000100	0.998142	0.338180	0.008125
 349	1.7400e-01	13.9969	21.434717	0.000067	0.672432	0.227826	0.005474
 350	1.7450e-01	13.9969	21.515538	-0.000199	-1.985776	-0.672799	0.016164
 351	1.7500e-01	14.0066	21.563432	0.000118	1.176756	0.398696	0.009579
 352	1.7550e-01	14.0627	21.602774	0.000097	0.966621	0.327500	0.007868
 353	1.7600e-01	14.0852	21.656654	0.000132	1.323851	0.448533	0.010776
 354	1.7650e-01	14.1622	21.710108	0.000131	1.313344	0.444973	0.010691
 355	1.7700e-01	14.1991	21.755008	0.000110	1.103209	0.373777	0.008980
 356	1.7750e-01	14.2151	21.826422	0.000175	1.754628	0.594484	0.014283
 357	1.7800e-01	14.2664	21.865763	0.000097	0.966621	0.327500	0.007868
 358	1.7850e-01	14.3274	21.905105	0.000097	0.966621	0.327500	0.007868
 359	1.7900e-01	14.3627	21.948722	0.000107	1.071689	0.363098	0.008724
 360	1.7950e-01	14.3964	21.997899	0.000121	1.208277	0.409375	0.009835
 361	1.8000e-01	14.4204	22.063754	0.000162	1.618040	0.548207	0.013171
 362	1.8050e-01	14.4750	22.105661	0.000103	1.029662	0.348859	0.008381
 363	1.8100e-01	14.5392	22.143292	0.000092	0.924594	0.313261	0.007526
 364	1.8150e-01	14.5552	22.195462	0.000128	1.281824	0.434294	0.010434
 365	1.8200e-01	14.5905	22.264738	0.000170	1.702094	0.576685	0.013855
 366	1.8250e-01	14.6242	22.304079	0.000097	0.966621	0.327500	0.007868
 367	1.8300e-01	14.6739	22.352828	0.000120	1.197770	0.405815	0.009750
 368	1.8350e-01	14.7429	22.393025	0.000099	0.987635	0.334620	0.008039
 369	1.8400e-01	14.7525	22.448616	0.000137	1.365878	0.462772	0.011118
 370	1.8450e-01	14.7702	22.505918	0.000141	1.407905	0.477011	0.011460
 371	1.8500e-01	14.8392	22.532431	0.000065	0.651419	0.220707	0.005303
 372	1.8550e-01	14.8841	22.602989	0.000173	1.733614	0.587364	0.014112
 373	1.8600e-01	14.9322	22.654304	0.000126	1.260810	0.427174	0.010263
 374	1.8650e-01	14.9579	22.691935	0.000092	0.924594	0.313261	0.007526
 375	1.8700e-01	14.9900	22.757789	0.000162	1.618040	0.548207	0.013171
 376	1.8750e-01	15.0317	22.792855	0.000086	0.861554	0.291902	0.007013
 377	1.8800e-01	15.0766	22.842887	0.000123	1.229290	0.416495	0.010006
 378	1.8850e-01	15.1071	22.910024	0.000165	1.649560	0.558886	0.013427
 379	1.8900e-01	15.1520	22.951504	0.000102	1.019155	0.345299	0.008296
 380	1.8950e-01	15.2065	22.996404	0.000110	1.103209	0.373777	0.008980
 381	1.9000e-01	15.2274	23.057555	0.000150	1.502466	0.509049	0.012230
 382	1.9050e-01	15.2819	23.092192	0.000085	0.851047	0.288343	0.006928
 383	1.9100e-01	15.3044	23.135383	0.000106	1.061182	0.359538	0.008638
 384	1.9150e-01	15.3782	23.173014	0.000092	0.924594	0.313261	0.007526
 385	1.9200e-01	15.4038	23.224756	0.000127	1.271317	0.430734	0.010349
 386	1.9250e-01	15.4343	23.309854	0.000209	2.090844	0.708397	0.017019
 387	1.9300e-01	15.5017	23.328242	0.000045	0.451790	0.153071	0.003678
 388	1.9350e-01	15.5145	23.395806	0.000166	1.660067	0.562446	0.013513
 389	1.9400e-01	15.5322	23.444556	0.000120	1.197770	0.405815	0.009750
 390	1.9450e-01	15.5819	23.505706	0.000150	1.502466	0.509049	0.012230
 391	1.9500e-01	15.6397	23.532646	0.000066	0.661925	0.224266	0.005388
 392	1.9550e-01	15.6750	23.591231	0.000144	1.439425	0.487690	0.011717
 393	1.9600e-01	15.7151	23.631856	0.000100	0.998142	0.338180	0.008125
 394	1.9650e-01	15.7375	23.690013	0.000143	1.428918	0.484131	0.011631
 395	1.9700e-01	15.8033	23.713960	0.000059	0.588378	0.199348	0.004789
 396	1.9750e-01	15.8546	23.764847	0.000125	1.250304	0.423614	0.010177
 397	1.9800e-01	15.8723	23.820011	0.000136	1.355371	0.459212	0.011033
 398	1.9850e-01	15.9332	23.863201	0.000106	1.061182	0.359538	0.008638
 399	1.9900e-01	15.9429	23.927772	0.000159	1.586520	0.537527	0.012914
 400	1.9950e-01	15.9862	23.970535	0.000105	1.050675	0.355978	0.008553
 401	2.0000e-01	16.0215	24.026981	0.000139	1.386891	0.469892	0.011289
 402	2.0050e-01	16.0760	24.051356	0.000060	0.598885	0.202908	0.004875
 403	2.0100e-01	16.1017	24.097112	0.000112	1.124223	0.380897	0.009151
 404	2.0150e-01	16.1546	24.163821	0.000164	1.639054	0.555326	0.013342
 405	2.0200e-01	16.1947	24.197604	0.000083	0.830034	0.281223	0.006756
 406	2.0250e-01	16.2300	24.244643	0.000116	1.155743	0.391576	0.009408
 407	2.0300e-01	16.2814	24.282701	0.000094	0.935101	0.316821	0.007612
 408	2.0350e-01	16.3167	24.347700	0.000160	1.597026	0.541087	0.013000
 409	2.0400e-01	16.3118	24.396877	-0.000121	-1.208277	-0.409375	0.009835
 410	2.0450e-01	16.3760	24.443061	0.000113	1.134729	0.384457	0.009237
 411	2.0500e-01	16.4241	24.504639	0.000151	1.512972	0.512609	0.012316
 412	2.0550e-01	16.4739	24.550395	0.000112	1.124223	0.380897	0.009151
 413	2.0600e-01	16.5188	24.585032	0.000085	0.851047	0.288343	0.006928
 414	2.0650e-01	16.5396	24.611117	0.000064	0.640912	0.217147	0.005217
 415	2.0700e-01	16.5797	24.686807	0.000186	1.859695	0.630082	0.015138
 416	2.0750e-01	16.6263	24.732991	0.000113	1.134729	0.384457	0.009237
 417	2.0800e-01	16.6696	24.780885	0.000118	1.176756	0.398696	0.009579
 418	2.0850e-01	16.7033	24.815522	0.000085	0.851047	0.288343	0.006928
 419	2.0900e-01	16.7530	24.857857	0.000104	1.040169	0.352419	0.008467
 420	2.0950e-01	16.8027	24.907034	0.000121	1.208277	0.409375	0.009835
 421	2.1000e-01	16.8380	24.961770	0.000134	1.344864	0.455652	0.010947
 422	2.1050e-01	16.8605	25.024631	0.000154	1.544493	0.523288	0.012572
 423	2.1100e-01	16.9182	25.063545	0.000096	0.956115	0.323940	0.007783
 424	2.1150e-01	16.9632	25.097755	0.000084	0.840540	0.284783	0.006842
 425	2.1200e-01	16.9599	25.164465	-0.000164	-1.639054	-0.555326	0.013342
 426	2.1250e-01	17.0658	25.201240	0.000090	0.903581	0.306141	0.007355
 427	2.1300e-01	17.0690	25.226470	0.000062	0.619898	0.210027	0.005046
 428	2.1350e-01	17.1091	25.288048	0.000151	1.512972	0.512609	0.012316
 429	2.1400e-01	17.1525	25.336370	0.000119	1.187263	0.402256	0.009664
 430	2.1450e-01	17.1685	25.391961	0.000137	1.365878	0.462772	0.011118
 431	2.1500e-01	17.2295	25.424888	0.000081	0.809020	0.274103	0.006585
 432	2.1550e-01	17.2728	25.474065	0.000121	1.208277	0.409375	0.009835
 433	2.1600e-01	17.2760	25.535216	0.000150	1.502466	0.509049	0.012230
 434	2.1650e-01	17.3305	25.562156	0.000066	0.661925	0.224266	0.005388
 435	2.1700e-01	17.4156	25.618175	0.000138	1.376385	0.466332	0.011204
 436	2.1750e-01	17.4412	25.656234	0.000094	0.935101	0.316821	0.007612
 437	2.1800e-01	17.5102	25.702845	0.000115	1.145236	0.388016	0.009322
 438	2.1850e-01	17.5278	25.751594	0.000120	1.197770	0.405815	0.009750
 439	2.1900e-01	17.5615	25.787515	0.000088	0.882567	0.299022	0.007184
 440	2.1950e-01	17.6000	25.845672	0.000143	1.428918	0.484131	0.011631
 441	2.2000e-01	17.6337	25.876033	0.000075	0.745979	0.252745	0.006072
 442	2.2050e-01	17.6610	25.935473	0.000146	1.460439	0.494810	0.011888
 443	2.2100e-01	17.6835	26.006031	0.000173	1.733614	0.587364	0.014112
 444	2.2150e-01	17.7492	26.044090	0.000094	0.935101	0.316821	0.007612
 445	2.2200e-01	17.7925	26.065471	0.000053	0.525338	0.177989	0.004276
 446	2.2250e-01	17.8423	26.140733	0.000185	1.849189	0.626522	0.015052
 447	2.2300e-01	17.8760	26.170667	0.000074	0.735473	0.249185	0.005987
 448	2.2350e-01	17.9193	26.204877	0.000084	0.840540	0.284783	0.006842
 449	2.2400e-01	17.9770	26.250205	0.000111	1.113716	0.377337	0.009066
 450	2.2450e-01	17.9947	26.291257	0.000101	1.008648	0.341739	0.008210
 451	2.2500e-01	18.0252	26.351125	0.000147	1.470945	0.498370	0.011974
 452	2.2550e-01	18.0990	26.386190	0.000086	0.861554	0.291902	0.007013
 453	2.2600e-01	18.1118	26.420400	0.000084	0.840540	0.284783	0.006842
 454	2.2650e-01	18.1711	26.480268	0.000147	1.470945	0.498370	0.011974
 455	2.2700e-01	18.1904	26.529444	0.000121	1.208277	0.409375	0.009835
 456	2.2750e-01	18.2145	26.591022	0.000151	1.512972	0.512609	0.012316
 457	2.2800e-01	18.2690	26.630364	0.000097	0.966621	0.327500	0.007868
 458	2.2850e-01	18.3235	26.659442	0.000071	0.714459	0.242065	0.005816
 459	2.2900e-01	18.3396	26.733422	0.000182	1.817668	0.615843	0.014796
 460	2.2950e-01	18.3637	26.776184	0.000105	1.050675	0.355978	0.008553
 461	2.3000e-01	18.4230	26.804407	0.000069	0.693446	0.234946	0.005645
 462	2.3050e-01	18.4519	26.860426	0.000138	1.376385	0.466332	0.011204
 463	2.3100e-01	18.5000	26.901906	0.000102	1.019155	0.345299	0.008296
 464	2.3150e-01	18.5449	26.951083	0.000121	1.208277	0.409375	0.009835
 465	2.3200e-01	18.5802	26.987003	0.000088	0.882567	0.299022	0.007184
 466	2.3250e-01	18.6348	27.042167	0.000136	1.355371	0.459212	0.011033
 467	2.3300e-01	18.6813	27.077660	0.000087	0.872061	0.295462	0.007099
 468	2.3350e-01	18.7118	27.131541	0.000132	1.323851	0.448533	0.010776
 469	2.3400e-01	18.7663	27.166178	0.000085	0.851047	0.288343	0.006928
 470	2.3450e-01	18.7920	27.223908	0.000142	1.418412	0.480571	0.011546
 471	2.3500e-01	18.8144	27.261539	0.000092	0.924594	0.313261	0.007526
 472	2.3550e-01	18.8818	27.306867	0.000111	1.113716	0.377337	0.009066
 473	2.3600e-01	18.9219	27.372294	0.000161	1.607533	0.544647	0.013085
 474	2.3650e-01	18.9396	27.370583	-0.000004	-0.042027	-0.014239	-0.000342
 475	2.3700e-01	18.9973	27.439431	0.000169	1.691587	0.573125	0.013770
 476	2.3750e-01	19.0294	27.486042	0.000115	1.145236	0.388016	0.009322
 477	2.3800e-01	19.0856	27.508706	0.000056	0.556858	0.188669	0.004533
 478	2.3850e-01	19.1176	27.560877	0.000128	1.281824	0.434294	0.010434
 479	2.3900e-01	19.1529	27.615613	0.000134	1.344864	0.455652	0.010947
 480	2.3950e-01	19.2155	27.645119	0.000072	0.724966	0.245625	0.005901
 481	2.4000e-01	19.2444	27.691730	0.000115	1.145236	0.388016	0.009322
 482	2.4050e-01	19.2492	27.757584	0.000162	1.618040	0.548207	0.013171
 483	2.4100e-01	19.3005	27.808899	0.000126	1.260810	0.427174	0.010263
 484	2.4150e-01	19.3583	27.835412	0.000065	0.651419	0.220707	0.005303
 485	2.4200e-01	19.3936	27.873471	0.000094	0.935101	0.316821	0.007612
 486	2.4250e-01	19.4016	27.953437	0.000196	1.964763	0.665680	0.015993
 487	2.4300e-01	19.4738	27.953009	-0.000001	-0.010507	-0.003560	-0.000086
 488	2.4350e-01	19.5075	28.021001	0.000167	1.670574	0.566006	0.013598
 489	2.4400e-01	19.5508	28.069323	0.000119	1.187263	0.402256	0.009664
 490	2.4450e-01	19.5829	28.109947	0.000100	0.998142	0.338180	0.008125
 491	2.4500e-01	19.6310	28.154848	0.000110	1.103209	0.373777	0.008980
 492	2.4550e-01	19.6839	28.190769	0.000088	0.882567	0.299022	0.007184
 493	2.4600e-01	19.7096	28.236525	0.000112	1.124223	0.380897	0.009151
 494	2.4650e-01	19.7433	28.257051	0.000050	0.504324	0.170870	0.004105
 495	2.4700e-01	19.7946	28.322905	0.000162	1.618040	0.548207	0.013171
 496	2.4750e-01	19.8444	28.356687	0.000083	0.830034	0.281223	0.006756
 497	2.4800e-01	19.8829	28.397739	0.000101	1.008648	0.341739	0.008210
 498	2.4850e-01	19.9069	28.450765	0.000130	1.302837	0.441413	0.010605
 499	2.4900e-01	19.9551	28.511488	0.000149	1.491959	0.505489	0.012145
 500	2.4950e-01	19.9919	28.543559	0.000079	0.788006	0.266984	0.006414
 501	2.5000e-01	20.0048	28.575631	0.000079	0.788006	0.266984	0.006414
 502	2.5050e-01	19.9887	28.590598	-0.000037	-0.367736	-0.124592	0.002993
 503	2.5100e-01	19.9454	28.535862	0.000134	1.344864	0.455652	-0.010947
 504	2.5150e-01	19.9021	28.505501	0.000075	0.745979	0.252745	-0.006072
 505	2.5200e-01	19.8845	28.456752	0.000120	1.197770	0.405815	-0.009750
 506	2.5250e-01	19.8283	28.425107	0.000078	0.777500	0.263424	-0.006329
 507	2.5300e-01	19.7513	28.405009	0.000049	0.493817	0.167310	-0.004020
 508	2.5350e-01	19.7112	28.370799	0.000084	0.840540	0.284783	-0.006842
 509	2.5400e-01	19.6839	28.321194	0.000122	1.218783	0.412935	-0.009921
 510	2.5450e-01	19.6567	28.272873	0.000119	1.187263	0.402256	-0.009664
 511	2.5500e-01	19.6150	28.214716	0.000143	1.428918	0.484131	-0.011631
 512	2.5550e-01	19.5893	28.215998	-0.000003	-0.031520	-0.010679	0.000257
 513	2.5600e-01	19.5315	28.146723	0.000170	1.702094	0.576685	-0.013855
 514	2.5650e-01	19.4609	28.119783	0.000066	0.661925	0.224266	-0.005388
 515	2.5700e-01	19.4593	28.073172	0.000115	1.145236	0.388016	-0.009322
 516	2.5750e-01	19.4064	28.044093	0.000071	0.714459	0.242065	-0.005816
 517	2.5800e-01	19.4128	27.989785	-0.000133	-1.334358	-0.452093	-0.010862
 518	2.5850e-01	19.3102	27.975245	0.000036	0.357230	0.121033	-0.002908
 519	2.5900e-01	19.2957	27.933338	0.000103	1.029662	0.348859	-0.008381
 520	2.5950e-01	19.2733	27.870050	0.000155	1.554999	0.526848	-0.012658
 521	2.6000e-01	19.2187	27.847813	0.000055	0.546351	0.185109	-0.004447
 522	2.6050e-01	19.1802	27.802485	0.000111	1.113716	0.377337	-0.009066
 523	2.6100e-01	19.1513	27.767420	0.000086	0.861554	0.291902	-0.007013
 524	2.6150e-01	19.1257	27.703703	0.000157	1.565506	0.530408	-0.012743
 525	2.6200e-01	19.0615	27.683177	0.000050	0.504324	0.170870	-0.004105
 526	2.6250e-01	19.0262	27.648112	0.000086	0.861554	0.291902	-0.007013
 527	2.6300e-01	18.9684	27.614330	0.000083	0.830034	0.281223	-0.006756
 528	2.6350e-01	18.9332	27.562159	0.000128	1.281824	0.434294	-0.010434
 529	2.6400e-01	18.8947	27.522390	0.000098	0.977128	0.331060	-0.007954
 530	2.6450e-01	18.8706	27.470648	0.000127	1.271317	0.430734	-0.010349
 531	2.6500e-01	18.8112	27.434299	0.000089	0.893074	0.302582	-0.007270
 532	2.6550e-01	18.7695	27.406504	0.000068	0.682939	0.231386	-0.005559
 533	2.6600e-01	18.7150	27.361603	0.000110	1.103209	0.373777	-0.008980
 534	2.6650e-01	18.6797	27.301736	0.000147	1.470945	0.498370	-0.011974
 535	2.6700e-01	18.6380	27.268381	0.000082	0.819527	0.277663	-0.006671
 536	2.6750e-01	18.6267	27.221342	0.000116	1.155743	0.391576	-0.009408
 537	2.6800e-01	18.5690	27.203809	0.000043	0.430777	0.145951	-0.003507
 538	2.6850e-01	18.5401	27.134534	0.000170	1.702094	0.576685	-0.013855
 539	2.6900e-01	18.4647	27.084502	0.000123	1.229290	0.416495	-0.010006
 540	2.6950e-01	18.4358	27.072956	0.000028	0.283682	0.096114	-0.002309
 541	2.7000e-01	18.4439	27.029766	-0.000106	-1.061182	-0.359538	-0.008638
 542	2.7050e-01	18.3829	26.961346	0.000168	1.681081	0.569565	-0.013684
 543	2.7100e-01	18.3460	26.930129	0.000077	0.766993	0.259864	-0.006243
 544	2.7150e-01	18.2883	26.899340	0.000076	0.756486	0.256304	-0.006158
 545	2.7200e-01	18.2385	26.869407	0.000074	0.735473	0.249185	-0.005987
 546	2.7250e-01	18.2129	26.831348	0.000094	0.935101	0.316821	-0.007612
 547	2.7300e-01	18.1808	26.769342	0.000152	1.523479	0.516169	-0.012401
 548	2.7350e-01	18.1294	26.734705	0.000085	0.851047	0.288343	-0.006928
 549	2.7400e-01	18.0781	26.688093	0.000115	1.145236	0.388016	-0.009322
 550	2.7450e-01	18.0444	26.659870	0.000069	0.693446	0.234946	-0.005645
 551	2.7500e-01	18.0027	26.601713	0.000143	1.428918	0.484131	-0.011631
 552	2.7550e-01	17.9802	26.556812	0.000110	1.103209	0.373777	-0.008980
 553	2.7600e-01	17.9401	26.506353	0.000124	1.239797	0.420055	-0.010092
 554	2.7650e-01	17.8904	26.484116	0.000055	0.546351	0.185109	-0.004447
 555	2.7700e-01	17.8535	26.436650	0.000117	1.166250	0.395136	-0.009493
 556	2.7750e-01	17.8086	26.390466	0.000113	1.134729	0.384457	-0.009237
 557	2.7800e-01	17.7605	26.358822	0.000078	0.777500	0.263424	-0.006329
 558	2.7850e-01	17.7444	26.298954	0.000147	1.470945	0.498370	-0.011974
 559	2.7900e-01	17.6899	26.288691	0.000025	0.252162	0.085435	-0.002053
 560	2.7950e-01	17.6337	26.208298	0.000198	1.975270	0.669239	-0.016079
 561	2.8000e-01	17.6113	26.169812	0.000095	0.945608	0.320381	-0.007697
 562	2.8050e-01	17.5696	26.139878	0.000074	0.735473	0.249185	-0.005987
 563	2.8100e-01	17.5198	26.094977	0.000110	1.103209	0.373777	-0.008980
 564	2.8150e-01	17.5118	26.033399	0.000151	1.512972	0.512609	-0.012316
 565	2.8200e-01	17.4589	25.994913	0.000095	0.945608	0.320381	-0.007697
 566	2.8250e-01	17.4091	25.951723	0.000106	1.061182	0.359538	-0.008638
 567	2.8300e-01	17.3674	25.923927	0.000068	0.682939	0.231386	-0.005559
 568	2.8350e-01	17.3369	25.887151	0.000090	0.903581	0.306141	-0.007355
 569	2.8400e-01	17.3033	25.830705	0.000139	1.386891	0.469892	-0.011289
 570	2.8450e-01	17.2567	25.790508	0.000099	0.987635	0.334620	-0.008039
 571	2.8500e-01	17.1990	25.735772	0.000134	1.344864	0.455652	-0.010947
 572	2.8550e-01	17.1781	25.710970	0.000061	0.609392	0.206467	-0.004960
 573	2.8600e-01	17.1525	25.671200	0.000098	0.977128	0.331060	-0.007954
 574	2.8650e-01	17.0674	25.625872	0.000111	1.113716	0.377337	-0.009066
 575	2.8700e-01	17.0498	25.579689	0.000113	1.134729	0.384457	-0.009237
 576	2.8750e-01	17.0193	25.534788	0.000110	1.103209	0.373777	-0.008980
 577	2.8800e-01	16.9648	25.483901	0.000125	1.250304	0.423614	-0.010177
 578	2.8850e-01	16.9439	25.433868	0.000123	1.229290	0.416495	-0.010006
 579	2.8900e-01	16.8958	25.390678	0.000106	1.061182	0.359538	-0.008638
 580	2.8950e-01	16.8717	25.356896	0.000083	0.830034	0.281223	-0.006756
 581	2.9000e-01	16.8027	25.323969	0.000081	0.809020	0.274103	-0.006585
 582	2.9050e-01	16.7626	25.261535	0.000153	1.533986	0.519729	-0.012487
 583	2.9100e-01	16.7450	25.217918	0.000107	1.071689	0.363098	-0.008724
 584	2.9150e-01	16.6872	25.167886	0.000123	1.229290	0.416495	-0.010006
 585	2.9200e-01	16.6279	25.143083	0.000061	0.609392	0.206467	-0.004960
 586	2.9250e-01	16.5926	25.093906	0.000121	1.208277	0.409375	-0.009835
 587	2.9300e-01	16.5653	25.043019	0.000125	1.250304	0.423614	-0.010177
 588	2.9350e-01	16.5509	24.989138	0.000132	1.323851	0.448533	-0.010776
 589	2.9400e-01	16.4979	24.947231	0.000103	1.029662	0.348859	-0.008381
 590	2.9450e-01	16.4257	24.926705	0.000050	0.504324	0.170870	-0.004105
 591	2.9500e-01	16.4081	24.871541	0.000136	1.355371	0.459212	-0.011033
 592	2.9550e-01	16.3712	24.828351	0.000106	1.061182	0.359538	-0.008638
 593	2.9600e-01	16.3183	24.796279	0.000079	0.788006	0.266984	-0.006414
 594	2.9650e-01	16.3231	24.719307	-0.000189	-1.891216	-0.640761	-0.015395
 595	2.9700e-01	16.2413	24.712465	0.000017	0.168108	0.056957	-0.001368
 596	2.9750e-01	16.1883	24.638913	0.000181	1.807162	0.612283	-0.014710
 597	2.9800e-01	16.1610	24.609835	0.000071	0.714459	0.242065	-0.005816
 598	2.9850e-01	16.1514	24.549112	0.000149	1.491959	0.505489	-0.012145
 599	2.9900e-01	16.0905	24.521316	0.000068	0.682939	0.231386	-0.005559
 600	2.9950e-01	16.0520	24.461021	0.000148	1.481452	0.501930	-0.012059
 601	3.0000e-01	16.0054	24.428094	0.000081	0.809020	0.274103	-0.006585
 602	3.0050e-01	15.9669	24.375924	0.000128	1.281824	0.434294	-0.010434
 603	3.0100e-01	15.9076	24.339148	0.000090	0.903581	0.306141	-0.007355
 604	3.0150e-01	15.8819	24.298096	0.000101	1.008648	0.341739	-0.008210
 605	3.0200e-01	15.8739	24.245498	0.000129	1.292331	0.437853	-0.010520
 606	3.0250e-01	15.7985	24.189907	0.000137	1.365878	0.462772	-0.011118
 607	3.0300e-01	15.7808	24.150993	0.000096	0.956115	0.323940	-0.007783
 608	3.0350e-01	15.7407	24.096257	0.000134	1.344864	0.455652	-0.010947
 609	3.0400e-01	15.6701	24.051784	0.000109	1.092702	0.370218	-0.008895
 610	3.0450e-01	15.6557	24.003034	0.000120	1.197770	0.405815	-0.009750
 611	3.0500e-01	15.5915	23.958134	0.000110	1.103209	0.373777	-0.008980
 612	3.0550e-01	15.5595	23.923924	0.000084	0.840540	0.284783	-0.006842
 613	3.0600e-01	15.5354	23.878595	0.000111	1.113716	0.377337	-0.009066
 614	3.0650e-01	15.4808	23.828563	0.000123	1.229290	0.416495	-0.010006
 615	3.0700e-01	15.4504	23.787939	0.000100	0.998142	0.338180	-0.008125
 616	3.0750e-01	15.3974	23.757577	0.000075	0.745979	0.252745	-0.006072
 617	3.0800e-01	15.3669	23.696855	0.000149	1.491959	0.505489	-0.012145
 618	3.0850e-01	15.3236	23.632711	0.000158	1.576013	0.533968	-0.012829
 619	3.0900e-01	15.3156	23.623731	0.000022	0.220642	0.074755	-0.001796
 620	3.0950e-01	15.2418	23.553173	0.000173	1.733614	0.587364	-0.014112
 621	3.1000e-01	15.2097	23.535212	0.000044	0.441284	0.149511	-0.003592
 622	3.1050e-01	15.1616	23.476200	0.000145	1.449932	0.491250	-0.011802
 623	3.1100e-01	15.1440	23.432582	0.000107	1.071689	0.363098	-0.008724
 624	3.1150e-01	15.1022	23.355182	0.000190	1.901722	0.644321	-0.015480
 625	3.1200e-01	15.0445	23.328669	0.000065	0.651419	0.220707	-0.005303
 626	3.1250e-01	14.9996	23.258539	0.000172	1.723108	0.583805	-0.014026
 627	3.1300e-01	14.9611	23.238868	0.000048	0.483311	0.163750	-0.003934
 628	3.1350e-01	14.9354	23.173869	0.000160	1.597026	0.541087	-0.013000
 629	3.1400e-01	14.8905	23.149494	0.000060	0.598885	0.202908	-0.004875
 630	3.1450e-01	14.8552	23.089199	0.000148	1.481452	0.501930	-0.012059
 631	3.1500e-01	14.8023	23.037029	0.000128	1.281824	0.434294	-0.010434
 632	3.1550e-01	14.7894	22.985714	0.000126	1.260810	0.427174	-0.010263
 633	3.1600e-01	14.7413	22.949793	0.000088	0.882567	0.299022	-0.007184
 634	3.1650e-01	14.6868	22.905320	0.000109	1.092702	0.370218	-0.008895
 635	3.1700e-01	14.6563	22.863413	0.000103	1.029662	0.348859	-0.008381
 636	3.1750e-01	14.6354	22.800552	0.000154	1.544493	0.523288	-0.012572
 637	3.1800e-01	14.5520	22.767197	0.000082	0.819527	0.277663	-0.006671
 638	3.1850e-01	14.5151	22.706047	0.000150	1.502466	0.509049	-0.012230
 639	3.1900e-01	14.4750	22.674403	0.000078	0.777500	0.263424	-0.006329
 640	3.1950e-01	14.4702	22.625226	0.000121	1.208277	0.409375	-0.009835
 641	3.2000e-01	14.4108	22.580753	0.000109	1.092702	0.370218	-0.008895
 642	3.2050e-01	14.3467	22.545260	0.000087	0.872061	0.295462	-0.007099
 643	3.2100e-01	14.3306	22.480688	0.000159	1.586520	0.537527	-0.012914
 644	3.2150e-01	14.3033	22.440919	0.000098	0.977128	0.331060	-0.007954
 645	3.2200e-01	14.2215	22.401578	0.000097	0.966621	0.327500	-0.007868
 646	3.2250e-01	14.1894	22.331875	0.000171	1.712601	0.580245	-0.013941
 647	3.2300e-01	14.1638	22.300658	0.000077	0.766993	0.259864	-0.006243
 648	3.2350e-01	14.1349	22.260889	0.000098	0.977128	0.331060	-0.007954
 649	3.2400e-01	14.0980	22.196318	0.000159	1.586520	0.537527	-0.012914
 650	3.2450e-01	14.0547	22.159542	0.000090	0.903581	0.306141	-0.007355
 651	3.2500e-01	14.0306	22.105233	0.000133	1.334358	0.452093	-0.010862
 652	3.2550e-01	13.9729	22.040234	0.000160	1.597026	0.541087	-0.013000
 653	3.2600e-01	13.9408	22.008590	0.000078	0.777500	0.263424	-0.006329
 654	3.2650e-01	13.8766	21.955137	0.000131	1.313344	0.444973	-0.010691
 655	3.2700e-01	13.8413	21.914512	0.000100	0.998142	0.338180	-0.008125
 656	3.2750e-01	13.8060	21.873888	0.000100	0.998142	0.338180	-0.008125
 657	3.2800e-01	13.7868	21.835402	0.000095	0.945608	0.320381	-0.007697
 658	3.2850e-01	13.7082	21.754153	0.000200	1.996283	0.676359	-0.016250
 659	3.2900e-01	13.6937	21.726785	0.000067	0.672432	0.227826	-0.005474
 660	3.2950e-01	13.6392	21.686161	0.000100	0.998142	0.338180	-0.008125
 661	3.3000e-01	13.5927	21.633563	0.000129	1.292331	0.437853	-0.010520
 662	3.3050e-01	13.5670	21.593366	0.000099	0.987635	0.334620	-0.008039
 663	3.3100e-01	13.5590	21.508696	0.000208	2.080337	0.704837	-0.016934
 664	3.3150e-01	13.4980	21.479618	0.000071	0.714459	0.242065	-0.005816
 665	3.3200e-01	13.4836	21.429158	0.000124	1.239797	0.420055	-0.010092
 666	3.3250e-01	13.4098	21.359027	0.000172	1.723108	0.583805	-0.014026
 667	3.3300e-01	13.3633	21.345343	0.000034	0.336216	0.113913	-0.002737
 668	3.3350e-01	13.3215	21.290607	0.000134	1.344864	0.455652	-0.010947
 669	3.3400e-01	13.2991	21.220904	0.000171	1.712601	0.580245	-0.013941
 670	3.3450e-01	13.2526	21.186267	0.000085	0.851047	0.288343	-0.006928
 671	3.3500e-01	13.2028	21.155478	0.000076	0.756486	0.256304	-0.006158
 672	3.3550e-01	13.1964	21.089623	0.000162	1.618040	0.548207	-0.013171
 673	3.3600e-01	13.1451	21.047716	0.000103	1.029662	0.348859	-0.008381
 674	3.3650e-01	13.1034	20.993835	0.000132	1.323851	0.448533	-0.010776
 675	3.3700e-01	13.0585	20.960480	0.000082	0.819527	0.277663	-0.006671
 676	3.3750e-01	12.9831	20.907883	0.000129	1.292331	0.437853	-0.010520
 677	3.3800e-01	12.9702	20.848015	0.000147	1.470945	0.498370	-0.011974
 678	3.3850e-01	12.9221	20.794134	0.000132	1.323851	0.448533	-0.010776
 679	3.3900e-01	12.9157	20.723148	0.000174	1.744121	0.590924	-0.014197
 680	3.3950e-01	12.8579	20.707754	0.000038	0.378243	0.128152	-0.003079
 681	3.4000e-01	12.8339	20.632492	0.000185	1.849189	0.626522	-0.015052
 682	3.4050e-01	12.7617	20.613676	0.000046	0.462297	0.156631	-0.003763
 683	3.4100e-01	12.7151	20.561078	0.000129	1.292331	0.437853	-0.010520
 684	3.4150e-01	12.6847	20.502066	0.000145	1.449932	0.491250	-0.011802
 685	3.4200e-01	12.6205	20.462725	0.000097	0.966621	0.327500	-0.007868
 686	3.4250e-01	12.6077	20.399008	0.000157	1.565506	0.530408	-0.012743
 687	3.4300e-01	12.5916	20.345128	0.000132	1.323851	0.448533	-0.010776
 688	3.4350e-01	12.5258	20.303220	0.000103	1.029662	0.348859	-0.008381
 689	3.4400e-01	12.4938	20.266017	0.000091	0.914088	0.309701	-0.007441
 690	3.4450e-01	12.4633	20.218551	0.000117	1.166250	0.395136	-0.009493
 691	3.4500e-01	12.4216	20.139012	0.000195	1.954256	0.662120	-0.015908
 692	3.4550e-01	12.3590	20.103947	0.000086	0.861554	0.291902	-0.007013
 693	3.4600e-01	12.3285	20.062895	0.000101	1.008648	0.341739	-0.008210
 694	3.4650e-01	12.3013	20.004738	0.000143	1.428918	0.484131	-0.011631
 695	3.4700e-01	12.2467	19.951285	0.000131	1.313344	0.444973	-0.010691
 696	3.4750e-01	12.2194	19.896976	0.000133	1.334358	0.452093	-0.010862
 697	3.4800e-01	12.1553	19.856352	0.000100	0.998142	0.338180	-0.008125
 698	3.4850e-01	12.1296	19.791781	0.000159	1.586520	0.537527	-0.012914
 699	3.4900e-01	12.1087	19.737045	0.000134	1.344864	0.455652	-0.010947
 700	3.4950e-01	12.1023	19.698131	0.000096	0.956115	0.323940	-0.007783
 701	3.5000e-01	11.9997	19.631849	0.000163	1.628547	0.551767	-0.013256
 702	3.5050e-01	11.9868	19.593362	0.000095	0.945608	0.320381	-0.007697
 703	3.5100e-01	11.9211	19.564284	0.000071	0.714459	0.242065	-0.005816
 704	3.5150e-01	11.9034	19.494581	0.000171	1.712601	0.580245	-0.013941
 705	3.5200e-01	11.8553	19.444121	0.000124	1.239797	0.420055	-0.010092
 706	3.5250e-01	11.8312	19.400076	0.000108	1.082196	0.366658	-0.008809
 707	3.5300e-01	11.7783	19.343202	0.000140	1.397398	0.473451	-0.011375
 708	3.5350e-01	11.7558	19.281624	0.000151	1.512972	0.512609	-0.012316
 709	3.5400e-01	11.6997	19.243137	0.000095	0.945608	0.320381	-0.007697
 710	3.5450e-01	11.6804	19.181132	0.000152	1.523479	0.516169	-0.012401
 711	3.5500e-01	11.6179	19.159750	0.000053	0.525338	0.177989	-0.004276
 712	3.5550e-01	11.5713	19.089192	0.000173	1.733614	0.587364	-0.014112
 713	3.5600e-01	11.5585	19.040871	0.000119	1.187263	0.402256	-0.009664
 714	3.5650e-01	11.5120	18.991266	0.000122	1.218783	0.412935	-0.009921
 715	3.5700e-01	11.4767	18.923701	0.000166	1.660067	0.562446	-0.013513
 716	3.5750e-01	11.3981	18.877945	0.000112	1.124223	0.380897	-0.009151
 717	3.5800e-01	11.3580	18.824920	0.000130	1.302837	0.441413	-0.010605
 718	3.5850e-01	11.3018	18.800973	0.000059	0.588378	0.199348	-0.004789
 719	3.5900e-01	11.2842	18.732980	0.000167	1.670574	0.566006	-0.013598
 720	3.5950e-01	11.2473	18.667981	0.000160	1.597026	0.541087	-0.013000
 721	3.6000e-01	11.2184	18.624791	0.000106	1.061182	0.359538	-0.008638
 722	3.6050e-01	11.1687	18.580746	0.000108	1.082196	0.366658	-0.008809
 723	3.6100e-01	11.1430	18.506767	0.000182	1.817668	0.615843	-0.014796
 724	3.6150e-01	11.0869	18.472129	0.000085	0.851047	0.288343	-0.006928
 725	3.6200e-01	11.0307	18.413544	0.000144	1.439425	0.487690	-0.011717
 726	3.6250e-01	11.0211	18.363085	0.000124	1.239797	0.420055	-0.010092
 727	3.6300e-01	10.9810	18.293382	0.000171	1.712601	0.580245	-0.013941
 728	3.6350e-01	10.9264	18.263020	0.000075	0.745979	0.252745	-0.006072
 729	3.6400e-01	10.8863	18.217264	0.000112	1.124223	0.380897	-0.009151
 730	3.6450e-01	10.8366	18.153548	0.000157	1.565506	0.530408	-0.012743
 731	3.6500e-01	10.8141	18.100523	0.000130	1.302837	0.441413	-0.010605
 732	3.6550e-01	10.7692	18.046642	0.000132	1.323851	0.448533	-0.010776
 733	3.6600e-01	10.7259	17.989768	0.000140	1.397398	0.473451	-0.011375
 734	3.6650e-01	10.6858	17.943157	0.000115	1.145236	0.388016	-0.009322
 735	3.6700e-01	10.6489	17.891841	0.000126	1.260810	0.427174	-0.010263
 736	3.6750e-01	10.6184	17.822139	0.000171	1.712601	0.580245	-0.013941
 737	3.6800e-01	10.5735	17.766120	0.000138	1.376385	0.466332	-0.011204
 738	3.6850e-01	10.5414	17.713094	0.000130	1.302837	0.441413	-0.010605
 739	3.6900e-01	10.4821	17.680167	0.000081	0.809020	0.274103	-0.006585
 740	3.6950e-01	10.4516	17.633556	0.000115	1.145236	0.388016	-0.009322
 741	3.7000e-01	10.4131	17.549741	0.000206	2.059324	0.697718	-0.016763
 742	3.7050e-01	10.3746	17.513821	0.000088	0.882567	0.299022	-0.007184
 743	3.7100e-01	10.2992	17.466782	0.000116	1.155743	0.391576	-0.009408
 744	3.7150e-01	10.2719	17.415895	0.000125	1.250304	0.423614	-0.010177
 745	3.7200e-01	10.2559	17.339777	0.000187	1.870202	0.633642	-0.015223
 746	3.7250e-01	10.2125	17.295304	0.000109	1.092702	0.370218	-0.008895
 747	3.7300e-01	10.1564	17.265798	0.000072	0.724966	0.245625	-0.005901
 748	3.7350e-01	10.1420	17.176424	0.000220	2.195911	0.743995	-0.017875
 749	3.7400e-01	10.0842	17.151622	0.000061	0.609392	0.206467	-0.004960
 750	3.7450e-01	10.0393	17.096031	0.000137	1.365878	0.462772	-0.011118
 751	3.7500e-01	9.9815	17.044288	0.000127	1.271317	0.430734	-0.010349
 752	3.7550e-01	9.9960	16.966460	-0.000191	-1.912229	-0.647881	-0.015566
 753	3.7600e-01	9.9478	16.924125	0.000104	1.040169	0.352419	-0.008467
 754	3.7650e-01	9.8789	16.875804	0.000119	1.187263	0.402256	-0.009664
 755	3.7700e-01	9.8307	16.820640	0.000136	1.355371	0.459212	-0.011033
 756	3.7750e-01	9.8195	16.765477	0.000136	1.355371	0.459212	-0.011033
 757	3.7800e-01	9.7650	16.700905	0.000159	1.586520	0.537527	-0.012914
 758	3.7850e-01	9.7666	16.651728	-0.000121	-1.208277	-0.409375	-0.009835
 759	3.7900e-01	9.6944	16.578604	0.000180	1.796655	0.608723	-0.014625
 760	3.7950e-01	9.6366	16.551664	0.000066	0.661925	0.224266	-0.005388
 761	3.8000e-01	9.6190	16.485382	0.000163	1.628547	0.551767	-0.013256
 762	3.8050e-01	9.6045	16.442192	0.000106	1.061182	0.359538	-0.008638
 763	3.8100e-01	9.5035	16.393015	0.000121	1.208277	0.409375	-0.009835
 764	3.8150e-01	9.5035	16.310056	0.000204	2.038310	0.690598	-0.016592
 765	3.8200e-01	9.4570	16.257458	0.000129	1.292331	0.437853	-0.010520
 766	3.8250e-01	9.4265	16.221965	0.000087	0.872061	0.295462	-0.007099
 767	3.8300e-01	9.3623	16.165091	0.000140	1.397398	0.473451	-0.011375
 768	3.8350e-01	9.3350	16.080421	0.000208	2.080337	0.704837	-0.016934
 769	3.8400e-01	9.2917	16.059467	0.000051	0.514831	0.174429	-0.004191
 770	3.8450e-01	9.2949	15.977791	-0.000201	-2.006790	-0.679919	-0.016335
 771	3.8500e-01	9.2051	15.944008	0.000083	0.830034	0.281223	-0.006756
 772	3.8550e-01	9.1554	15.902101	0.000103	1.029662	0.348859	-0.008381
 773	3.8600e-01	9.1265	15.819997	0.000202	2.017297	0.683479	-0.016421
 774	3.8650e-01	9.1104	15.757136	0.000154	1.544493	0.523288	-0.012572
 775	3.8700e-01	9.0334	15.713091	0.000108	1.082196	0.366658	-0.008809
 776	3.8750e-01	8.9901	15.664769	0.000119	1.187263	0.402256	-0.009664
 777	3.8800e-01	8.9500	15.627566	0.000091	0.914088	0.309701	-0.007441
 778	3.8850e-01	8.9147	15.545889	0.000201	2.006790	0.679919	-0.016335
 779	3.8900e-01	8.8778	15.491581	0.000133	1.334358	0.452093	-0.010862
 780	3.8950e-01	8.8762	15.432569	0.000145	1.449932	0.491250	-0.011802
 781	3.9000e-01	8.8056	15.371846	0.000149	1.491959	0.505489	-0.012145
 782	3.9050e-01	8.7832	15.320103	0.000127	1.271317	0.430734	-0.010349
 783	3.9100e-01	8.7334	15.277341	0.000105	1.050675	0.355978	-0.008553
 784	3.9150e-01	8.6661	15.235006	0.000104	1.040169	0.352419	-0.008467
 785	3.9200e-01	8.6516	15.152046	0.000204	2.038310	0.690598	-0.016592
 786	3.9250e-01	8.5810	15.095172	0.000140	1.397398	0.473451	-0.011375
 787	3.9300e-01	8.5971	15.026752	-0.000168	-1.681081	-0.569565	-0.013684
 788	3.9350e-01	8.5361	15.002378	0.000060	0.598885	0.202908	-0.004875
 789	3.9400e-01	8.4784	14.945076	0.000141	1.407905	0.477011	-0.011460
 790	3.9450e-01	8.4639	14.871952	0.000180	1.796655	0.608723	-0.014625
 791	3.9500e-01	8.3966	14.813795	0.000143	1.428918	0.484131	-0.011631
 792	3.9550e-01	8.3645	14.761197	0.000129	1.292331	0.437853	-0.010520
 793	3.9600e-01	8.3212	14.703895	0.000141	1.407905	0.477011	-0.011460
 794	3.9650e-01	8.2923	14.663698	0.000099	0.987635	0.334620	-0.008039
 795	3.9700e-01	8.2345	14.596133	0.000166	1.660067	0.562446	-0.013513
 796	3.9750e-01	8.1928	14.542680	0.000131	1.313344	0.444973	-0.010691
 797	3.9800e-01	8.1944	14.475971	-0.000164	-1.639054	-0.555326	-0.013342
 798	3.9850e-01	8.1479	14.414820	0.000150	1.502466	0.509049	-0.012230
 799	3.9900e-01	8.1238	14.356236	0.000144	1.439425	0.487690	-0.011717
 800	3.9950e-01	8.0613	14.294230	0.000152	1.523479	0.516169	-0.012401
 801	4.0000e-01	8.0131	14.247191	0.000116	1.155743	0.391576	-0.009408
 802	4.0050e-01	7.9650	14.168508	0.000193	1.933243	0.655000	-0.015737
 803	4.0100e-01	7.9442	14.109496	0.000145	1.449932	0.491250	-0.011802
 804	4.0150e-01	7.8864	14.079990	0.000072	0.724966	0.245625	-0.005901
 805	4.0200e-01	7.8639	14.011997	0.000167	1.670574	0.566006	-0.013598
 806	4.0250e-01	7.8367	13.956834	0.000136	1.355371	0.459212	-0.011033
 807	4.0300e-01	7.7613	13.901670	0.000136	1.355371	0.459212	-0.011033
 808	4.0350e-01	7.7115	13.849500	0.000128	1.281824	0.434294	-0.010434
 809	4.0400e-01	7.7067	13.771244	0.000192	1.922736	0.651441	-0.015651
 810	4.0450e-01	7.6394	13.716508	0.000134	1.344864	0.455652	-0.010947
 811	4.0500e-01	7.5912	13.679733	0.000090	0.903581	0.306141	-0.007355
 812	4.0550e-01	7.5704	13.602332	0.000190	1.901722	0.644321	-0.015480
 813	4.0600e-01	7.5255	13.540327	0.000152	1.523479	0.516169	-0.012401
 814	4.0650e-01	7.4837	13.495426	0.000110	1.103209	0.373777	-0.008980
 815	4.0700e-01	7.4485	13.433848	0.000151	1.512972	0.512609	-0.012316
 816	4.0750e-01	7.4116	13.373125	0.000149	1.491959	0.505489	-0.012145
 817	4.0800e-01	7.3666	13.333356	0.000098	0.977128	0.331060	-0.007954
 818	4.0850e-01	7.3249	13.269640	0.000157	1.565506	0.530408	-0.012743
 819	4.0900e-01	7.3041	13.205068	0.000159	1.586520	0.537527	-0.012914
 820	4.0950e-01	7.2543	13.133655	0.000175	1.754628	0.594484	-0.014283
 821	4.1000e-01	7.2399	13.065663	0.000167	1.670574	0.566006	-0.013598
 822	4.1050e-01	7.1789	12.999381	0.000163	1.628547	0.551767	-0.013256
 823	4.1100e-01	7.0955	12.955763	0.000107	1.071689	0.363098	-0.008724
 824	4.1150e-01	7.0955	12.868955	0.000213	2.132871	0.722636	-0.017362
 825	4.1200e-01	7.0426	12.835600	0.000082	0.819527	0.277663	-0.006671
 826	4.1250e-01	7.0394	12.768891	0.000164	1.639054	0.555326	-0.013342
 827	4.1300e-01	6.9752	12.706030	0.000154	1.544493	0.523288	-0.012572
 828	4.1350e-01	6.9142	12.663695	0.000104	1.040169	0.352419	-0.008467
 829	4.1400e-01	6.9126	12.590571	0.000180	1.796655	0.608723	-0.014625
 830	4.1450e-01	6.8934	12.522151	0.000168	1.681081	0.569565	-0.013684
 831	4.1500e-01	6.8244	12.459290	0.000154	1.544493	0.523288	-0.012572
 832	4.1550e-01	6.7490	12.412251	0.000116	1.155743	0.391576	-0.009408
 833	4.1600e-01	6.7233	12.363074	0.000121	1.208277	0.409375	-0.009835
 834	4.1650e-01	6.6736	12.278832	0.000207	2.069830	0.701278	-0.016848
 835	4.1700e-01	6.6608	12.223668	0.000136	1.355371	0.459212	-0.011033
 836	4.1750e-01	6.6110	12.181334	0.000104	1.040169	0.352419	-0.008467
 837	4.1800e-01	6.5758	12.112058	0.000170	1.702094	0.576685	-0.013855
 838	4.1850e-01	6.5292	12.043211	0.000169	1.691587	0.573125	-0.013770
 839	4.1900e-01	6.5004	11.977356	0.000162	1.618040	0.548207	-0.013171
 840	4.1950e-01	6.4891	11.904232	0.000180	1.796655	0.608723	-0.014625
 841	4.2000e-01	6.3945	11.854628	0.000122	1.218783	0.412935	-0.009921
 842	4.2050e-01	6.3816	11.808444	0.000113	1.134729	0.384457	-0.009237
 843	4.2100e-01	6.3528	11.746011	0.000153	1.533986	0.519729	-0.012487
 844	4.2150e-01	6.2950	11.676736	0.000170	1.702094	0.576685	-0.013855
 845	4.2200e-01	6.2533	11.610454	0.000163	1.628547	0.551767	-0.013256
 846	4.2250e-01	6.2180	11.561705	0.000120	1.197770	0.405815	-0.009750
 847	4.2300e-01	6.1715	11.496278	0.000161	1.607533	0.544647	-0.013085
 848	4.2350e-01	6.1201	11.445818	0.000124	1.239797	0.420055	-0.010092
 849	4.2400e-01	6.0849	11.391937	0.000132	1.323851	0.448533	-0.010776
 850	4.2450e-01	6.0528	11.318813	0.000180	1.796655	0.608723	-0.014625
 851	4.2500e-01	6.0046	11.256380	0.000153	1.533986	0.519729	-0.012487
 852	4.2550e-01	5.9485	11.209769	0.000115	1.145236	0.388016	-0.009322
 853	4.2600e-01	5.9485	11.122106	0.000215	2.153884	0.729756	-0.017533
 854	4.2650e-01	5.8972	11.064376	0.000142	1.418412	0.480571	-0.011546
 855	4.2700e-01	5.8667	10.982700	0.000201	2.006790	0.679919	-0.016335
 856	4.2750e-01	5.8073	10.936516	0.000113	1.134729	0.384457	-0.009237
 857	4.2800e-01	5.7512	10.877504	0.000145	1.449932	0.491250	-0.011802
 858	4.2850e-01	5.7303	10.809939	0.000166	1.660067	0.562446	-0.013513
 859	4.2900e-01	5.6854	10.759480	0.000124	1.239797	0.420055	-0.010092
 860	4.2950e-01	5.6886	10.670533	-0.000219	-2.185405	-0.740435	-0.017789
 861	4.3000e-01	5.6148	10.626916	0.000107	1.071689	0.363098	-0.008724
 862	4.3050e-01	5.5619	10.571324	0.000137	1.365878	0.462772	-0.011118
 863	4.3100e-01	5.5330	10.503760	0.000166	1.660067	0.562446	-0.013513
 864	4.3150e-01	5.5105	10.446885	0.000140	1.397398	0.473451	-0.011375
 865	4.3200e-01	5.4255	10.374617	0.000178	1.775641	0.601604	-0.014454
 866	4.3250e-01	5.3854	10.313466	0.000150	1.502466	0.509049	-0.012230
 867	4.3300e-01	5.3421	10.252316	0.000150	1.502466	0.509049	-0.012230
 868	4.3350e-01	5.3341	10.177482	0.000184	1.838682	0.622962	-0.014967
 869	4.3400e-01	5.2924	10.127449	0.000123	1.229290	0.416495	-0.010006
 870	4.3450e-01	5.2555	10.061595	0.000162	1.618040	0.548207	-0.013171
 871	4.3500e-01	5.1961	10.008142	0.000131	1.313344	0.444973	-0.010691
 872	4.3550e-01	5.1961	9.919623	0.000217	2.174898	0.736875	-0.017704
 873	4.3600e-01	5.1319	9.851631	0.000167	1.670574	0.566006	-0.013598
 874	4.3650e-01	5.0742	9.786204	0.000161	1.607533	0.544647	-0.013085
 875	4.3700e-01	5.0357	9.732751	0.000131	1.313344	0.444973	-0.010691
 876	4.3750e-01	5.0293	9.667752	0.000160	1.597026	0.541087	-0.013000
 877	4.3800e-01	4.9844	9.586931	0.000199	1.985776	0.672799	-0.016164
 878	4.3850e-01	4.9218	9.524925	0.000152	1.523479	0.516169	-0.012401
 879	4.3900e-01	4.8945	9.480452	0.000109	1.092702	0.370218	-0.008895
 880	4.3950e-01	4.8624	9.396638	0.000206	2.059324	0.697718	-0.016763
 881	4.4000e-01	4.8271	9.337198	0.000146	1.460439	0.494810	-0.011888
 882	4.4050e-01	4.7967	9.266640	0.000173	1.733614	0.587364	-0.014112
 883	4.4100e-01	4.7261	9.202924	0.000157	1.565506	0.530408	-0.012743
 884	4.4150e-01	4.7068	9.149898	0.000130	1.302837	0.441413	-0.010605
 885	4.4200e-01	4.6426	9.078912	0.000174	1.744121	0.590924	-0.014197
 886	4.4250e-01	4.6426	8.992104	0.000213	2.132871	0.722636	-0.017362
 887	4.4300e-01	4.5705	8.956184	0.000088	0.882567	0.299022	-0.007184
 888	4.4350e-01	4.5448	8.869803	0.000212	2.122364	0.719076	-0.017276
 889	4.4400e-01	4.4854	8.824048	0.000112	1.124223	0.380897	-0.009151
 890	4.4450e-01	4.4566	8.746647	0.000190	1.901722	0.644321	-0.015480
 891	4.4500e-01	4.4405	8.660267	0.000212	2.122364	0.719076	-0.017276
 892	4.4550e-01	4.3812	8.602110	0.000143	1.428918	0.484131	-0.011631
 893	4.4600e-01	4.3475	8.551650	0.000124	1.239797	0.420055	-0.010092
 894	4.4650e-01	4.2945	8.466980	0.000208	2.080337	0.704837	-0.016934
 895	4.4700e-01	4.2448	8.415665	0.000126	1.260810	0.427174	-0.010263
 896	4.4750e-01	4.2079	8.354087	0.000151	1.512972	0.512609	-0.012316
 897	4.4800e-01	4.1534	8.281391	0.000179	1.786148	0.605163	-0.014539
 898	4.4850e-01	4.1229	8.212116	0.000170	1.702094	0.576685	-0.013855
 899	4.4900e-01	4.1020	8.130439	0.000201	2.006790	0.679919	-0.016335
 900	4.4950e-01	4.0571	8.072710	0.000142	1.418412	0.480571	-0.011546
 901	4.5000e-01	4.0122	7.996165	0.000188	1.880709	0.637201	-0.015309
 902	4.5050e-01	3.9705	7.903798	0.000227	2.269459	0.768913	-0.018473
 903	4.5100e-01	3.9159	7.869588	0.000084	0.840540	0.284783	-0.006842
 904	4.5150e-01	3.8871	7.794754	0.000184	1.838682	0.622962	-0.014967
 905	4.5200e-01	3.8149	7.721630	0.000180	1.796655	0.608723	-0.014625
 906	4.5250e-01	3.8117	7.664755	0.000140	1.397398	0.473451	-0.011375
 907	4.5300e-01	3.7732	7.598901	0.000162	1.618040	0.548207	-0.013171
 908	4.5350e-01	3.7314	7.506106	0.000228	2.279965	0.772473	-0.018559
 909	4.5400e-01	3.6994	7.436404	0.000171	1.712601	0.580245	-0.013941
 910	4.5450e-01	3.6496	7.376964	0.000146	1.460439	0.494810	-0.011888
 911	4.5500e-01	3.6368	7.307261	0.000171	1.712601	0.580245	-0.013941
 912	4.5550e-01	3.5919	7.229861	0.000190	1.901722	0.644321	-0.015480
 913	4.5600e-01	3.5261	7.168282	0.000151	1.512972	0.512609	-0.012316
 914	4.5650e-01	3.5020	7.070784	0.000240	2.395540	0.811631	-0.019500
 915	4.5700e-01	3.4459	7.037857	0.000081	0.809020	0.274103	-0.006585
 916	4.5750e-01	3.4122	6.966443	0.000175	1.754628	0.594484	-0.014283
 917	4.5800e-01	3.3480	6.886477	0.000196	1.964763	0.665680	-0.015993
 918	4.5850e-01	3.3272	6.812071	0.000183	1.828175	0.619402	-0.014881
 919	4.5900e-01	3.2983	6.735526	0.000188	1.880709	0.637201	-0.015309
 920	4.5950e-01	3.2678	6.677369	0.000143	1.428918	0.484131	-0.011631
 921	4.6000e-01	3.2261	6.584146	0.000229	2.290472	0.776033	-0.018644
 922	4.6050e-01	3.1635	6.529838	0.000133	1.334358	0.452093	-0.010862
 923	4.6100e-01	3.1283	6.469115	0.000149	1.491959	0.505489	-0.012145
 924	4.6150e-01	3.1010	6.392998	0.000187	1.870202	0.633642	-0.015223
 925	4.6200e-01	3.0625	6.325861	0.000165	1.649560	0.558886	-0.013427
 926	4.6250e-01	3.0288	6.220237	0.000260	2.595168	0.879267	-0.021125
 927	4.6300e-01	2.9582	6.159514	0.000149	1.491959	0.505489	-0.012145
 928	4.6350e-01	2.9534	6.085963	0.000181	1.807162	0.612283	-0.014710
 929	4.6400e-01	2.8844	6.033793	0.000128	1.281824	0.434294	-0.010434
 930	4.6450e-01	2.8571	5.936294	0.000240	2.395540	0.811631	-0.019500
 931	4.6500e-01	2.8026	5.885407	0.000125	1.250304	0.423614	-0.010177
 932	4.6550e-01	2.7593	5.819125	0.000163	1.628547	0.551767	-0.013256
 933	4.6600e-01	2.7320	5.728041	0.000224	2.237938	0.758234	-0.018217
 934	4.6650e-01	2.6807	5.651068	0.000189	1.891216	0.640761	-0.015395
 935	4.6700e-01	2.6293	5.600608	0.000124	1.239797	0.420055	-0.010092
 936	4.6750e-01	2.6101	5.502682	0.000241	2.406046	0.815191	-0.019585
 937	4.6800e-01	2.5828	5.430841	0.000177	1.765135	0.598044	-0.014368
 938	4.6850e-01	2.5443	5.332915	0.000241	2.406046	0.815191	-0.019585
 939	4.6900e-01	2.5058	5.290152	0.000105	1.050675	0.355978	-0.008553
 940	4.6950e-01	2.4545	5.204200	0.000211	2.111857	0.715517	-0.017191
 941	4.7000e-01	2.4128	5.128082	0.000187	1.870202	0.633642	-0.015223
 942	4.7050e-01	2.3486	5.064794	0.000155	1.554999	0.526848	-0.012658
 943	4.7100e-01	2.2973	4.991670	0.000180	1.796655	0.608723	-0.014625
 944	4.7150e-01	2.2973	4.917263	0.000183	1.828175	0.619402	-0.014881
 945	4.7200e-01	2.2203	4.850981	0.000163	1.628547	0.551767	-0.013256
 946	4.7250e-01	2.1962	4.752627	0.000242	2.416553	0.818750	-0.019671
 947	4.7300e-01	2.1529	4.701312	0.000126	1.260810	0.427174	-0.010263
 948	4.7350e-01	2.1304	4.609373	0.000226	2.258952	0.765354	-0.018388
 949	4.7400e-01	2.1048	4.512302	0.000239	2.385033	0.808071	-0.019414
 950	4.7450e-01	2.0245	4.467401	0.000110	1.103209	0.373777	-0.008980
 951	4.7500e-01	2.0294	4.365199	-0.000251	-2.511114	-0.850788	-0.020440
 952	4.7550e-01	1.9411	4.298489	0.000164	1.639054	0.555326	-0.013342
 953	4.7600e-01	1.9074	4.256154	0.000104	1.040169	0.352419	-0.008467
 954	4.7650e-01	1.8946	4.135564	0.000296	2.962904	1.003859	-0.024118
 955	4.7700e-01	1.8625	4.060302	0.000185	1.849189	0.626522	-0.015052
 956	4.7750e-01	1.7983	3.990171	0.000172	1.723108	0.583805	-0.014026
 957	4.7800e-01	1.7598	3.905929	0.000207	2.069830	0.701278	-0.016848
 958	4.7850e-01	1.7310	3.828101	0.000191	1.912229	0.647881	-0.015566
 959	4.7900e-01	1.7053	3.756260	0.000177	1.765135	0.598044	-0.014368
 960	4.7950e-01	1.6299	3.671591	0.000208	2.080337	0.704837	-0.016934
 961	4.8000e-01	1.6203	3.575375	0.000236	2.364019	0.800951	-0.019243
 962	4.8050e-01	1.5946	3.503534	0.000177	1.765135	0.598044	-0.014368
 963	4.8100e-01	1.5385	3.428272	0.000185	1.849189	0.626522	-0.015052
 964	4.8150e-01	1.4951	3.348306	0.000196	1.964763	0.665680	-0.015993
 965	4.8200e-01	1.4454	3.259787	0.000217	2.174898	0.736875	-0.017704
 966	4.8250e-01	1.4085	3.181532	0.000192	1.922736	0.651441	-0.015651
 967	4.8300e-01	1.3764	3.106270	0.000185	1.849189	0.626522	-0.015052
 968	4.8350e-01	1.3411	3.005350	0.000248	2.479594	0.840109	-0.020184
 969	4.8400e-01	1.3074	2.943772	0.000151	1.512972	0.512609	-0.012316
 970	4.8450e-01	1.2738	2.844563	0.000244	2.437567	0.825870	-0.019842
 971	4.8500e-01	1.2144	2.782985	0.000151	1.512972	0.512609	-0.012316
 972	4.8550e-01	1.1711	2.690618	0.000227	2.269459	0.768913	-0.018473
 973	4.8600e-01	1.1374	2.623053	0.000166	1.660067	0.562446	-0.013513
 974	4.8650e-01	1.0909	2.525127	0.000241	2.406046	0.815191	-0.019585
 975	4.8700e-01	1.0460	2.447727	0.000190	1.901722	0.644321	-0.015480
 976	4.8750e-01	1.0091	2.359209	0.000217	2.174898	0.736875	-0.017704
 977	4.8800e-01	0.9433	2.301052	0.000143	1.428918	0.484131	-0.011631
 978	4.8850e-01	0.9096	2.212533	0.000217	2.174898	0.736875	-0.017704
 979	4.8900e-01	0.9112	2.117600	-0.000233	-2.332499	-0.790272	-0.018987
 980	4.8950e-01	0.8310	2.042338	0.000185	1.849189	0.626522	-0.015052
 981	4.9000e-01	0.8230	1.946123	0.000236	2.364019	0.800951	-0.019243
 982	4.9050e-01	0.7781	1.870861	0.000185	1.849189	0.626522	-0.015052
 983	4.9100e-01	0.7283	1.762244	0.000267	2.668715	0.904185	-0.021723
 984	4.9150e-01	0.6754	1.705797	0.000139	1.386891	0.469892	-0.011289
 985	4.9200e-01	0.6513	1.620272	0.000210	2.101351	0.711957	-0.017105
 986	4.9250e-01	0.6273	1.544155	0.000187	1.870202	0.633642	-0.015223
 987	4.9300e-01	0.6096	1.422282	0.000299	2.994425	1.014539	-0.024375
 988	4.9350e-01	0.5438	1.340178	0.000202	2.017297	0.683479	-0.016421
 989	4.9400e-01	0.4925	1.270902	0.000170	1.702094	0.576685	-0.013855
 990	4.9450e-01	0.4540	1.183239	0.000215	2.153884	0.729756	-0.017533
 991	4.9500e-01	0.4011	1.107122	0.000187	1.870202	0.633642	-0.015223
 992	4.9550e-01	0.3866	0.986959	0.000295	2.952398	1.000299	-0.024033
 993	4.9600e-01	0.3337	0.923671	0.000155	1.554999	0.526848	-0.012658
 994	4.9650e-01	0.2872	0.828738	0.000233	2.332499	0.790272	-0.018987
 995	4.9700e-01	0.2326	0.739792	0.000219	2.185405	0.740435	-0.017789
 996	4.9750e-01	0.1973	0.654694	0.000209	2.090844	0.708397	-0.017019
 997	4.9800e-01	0.1620	0.575584	0.000194	1.943749	0.658560	-0.015822
 998	4.9850e-01	0.1540	0.471243	0.000256	2.563648	0.868587	-0.020868
 999	4.9900e-01	0.0626	0.403251	0.000167	1.670574	0.566006	-0.013598
1000	4.9950e-01	0.0545	0.296772	0.000262	2.616182	0.886386	-0.021296
1001	5.0000e-01	0.0497	0.201839	0.000233	2.332499	0.790272	-0.018987
1002	5.0050e-01	-0.0433	0.157366	0.000109	1.092702	0.370218	-0.008895
1003	5.0100e-01	-0.0561	0.056447	0.000248	2.479594	0.840109	-0.020184
1004	5.0150e-01	-0.1139	-0.025230	0.000201	2.006790	0.679919	-0.016335
1005	5.0200e-01	-0.1267	-0.123156	0.000241	2.406046	0.815191	-0.019585
1006	5.0250e-01	-0.1941	-0.202694	0.000195	1.954256	0.662120	-0.015908
1007	5.0300e-01	-0.2326	-0.284798	0.000202	2.017297	0.683479	-0.016421
1008	5.0350e-01	-0.2920	-0.348942	0.000158	1.576013	0.533968	-0.012829
1009	5.0400e-01	-0.2904	-0.468677	-0.000294	-2.941891	-0.996740	-0.023947
1010	5.0450e-01	-0.3337	-0.567031	0.000242	2.416553	0.818750	-0.019671
1011	5.0500e-01	-0.3834	-0.637162	0.000172	1.723108	0.583805	-0.014026
1012	5.0550e-01	-0.4283	-0.733805	0.000237	2.374526	0.804511	-0.019329
1013	5.0600e-01	-0.4684	-0.831731	0.000241	2.406046	0.815191	-0.019585
1014	5.0650e-01	-0.4973	-0.912125	0.000198	1.975270	0.669239	-0.016079
1015	5.0700e-01	-0.5326	-0.991663	0.000195	1.954256	0.662120	-0.015908
1016	5.0750e-01	-0.5775	-1.100707	0.000268	2.679222	0.907745	-0.021809
1017	5.0800e-01	-0.6289	-1.198634	0.000241	2.406046	0.815191	-0.019585
1018	5.0850e-01	-0.6642	-1.275606	0.000189	1.891216	0.640761	-0.015395
1019	5.0900e-01	-0.7155	-1.354289	0.000193	1.933243	0.655000	-0.015737
1020	5.0950e-01	-0.7396	-1.447084	0.000228	2.279965	0.772473	-0.018559
1021	5.1000e-01	-0.7893	-1.522346	0.000185	1.849189	0.626522	-0.015052
1022	5.1050e-01	-0.8214	-1.629680	0.000264	2.637195	0.893506	-0.021467
1023	5.1100e-01	-0.8903	-1.717771	0.000216	2.164391	0.733316	-0.017618
1024	5.1150e-01	-0.9112	-1.808000	0.000222	2.216925	0.751114	-0.018046
1025	5.1200e-01	-0.9449	-1.888393	0.000198	1.975270	0.669239	-0.016079
1026	5.1250e-01	-0.9722	-1.970070	0.000201	2.006790	0.679919	-0.016335
1027	5.1300e-01	-1.0155	-2.078686	0.000267	2.668715	0.904185	-0.021723
1028	5.1350e-01	-1.0524	-2.161218	0.000203	2.027803	0.687038	-0.016506
1029	5.1400e-01	-1.1117	-2.245033	0.000206	2.059324	0.697718	-0.016763
1030	5.1450e-01	-1.1502	-2.331413	0.000212	2.122364	0.719076	-0.017276
1031	5.1500e-01	-1.1567	-2.435326	0.000255	2.553141	0.865028	-0.020783
1032	5.1550e-01	-1.2144	-2.540094	0.000257	2.574155	0.872147	-0.020954
1033	5.1600e-01	-1.2738	-2.598251	0.000143	1.428918	0.484131	-0.011631
1034	5.1650e-01	-1.3074	-2.666671	0.000168	1.681081	0.569565	-0.013684
1035	5.1700e-01	-1.3267	-2.789400	0.000302	3.015438	1.021658	-0.024546
1036	5.1750e-01	-1.3716	-2.864662	0.000185	1.849189	0.626522	-0.015052
1037	5.1800e-01	-1.4230	-2.944628	0.000196	1.964763	0.665680	-0.015993
1038	5.1850e-01	-1.4663	-3.055383	0.000272	2.721249	0.921984	-0.022151
1039	5.1900e-01	-1.4984	-3.139197	0.000206	2.059324	0.697718	-0.016763
1040	5.1950e-01	-1.5529	-3.211038	0.000177	1.765135	0.598044	-0.014368
1041	5.2000e-01	-1.5754	-3.296563	0.000210	2.101351	0.711957	-0.017105
1042	5.2050e-01	-1.6139	-3.397910	0.000249	2.490101	0.843669	-0.020269
1043	5.2100e-01	-1.6796	-3.464192	0.000163	1.628547	0.551767	-0.013256
1044	5.2150e-01	-1.7326	-3.535178	0.000174	1.744121	0.590924	-0.014197
1045	5.2200e-01	-1.7197	-3.633104	-0.000241	-2.406046	-0.815191	-0.019585
1046	5.2250e-01	-1.7951	-3.725044	0.000226	2.258952	0.765354	-0.018388
1047	5.2300e-01	-1.8465	-3.804582	0.000195	1.954256	0.662120	-0.015908
1048	5.2350e-01	-1.8577	-3.913199	0.000267	2.668715	0.904185	-0.021723
1049	5.2400e-01	-1.9187	-3.960665	0.000117	1.166250	0.395136	-0.009493
1050	5.2450e-01	-1.9331	-4.082111	0.000298	2.983918	1.010979	-0.024289
1051	5.2500e-01	-1.9909	-4.139413	0.000141	1.407905	0.477011	-0.011460
1052	5.2550e-01	-2.0502	-4.215958	0.000188	1.880709	0.637201	-0.015309
1053	5.2600e-01	-2.0695	-4.305331	0.000220	2.195911	0.743995	-0.017875
1054	5.2650e-01	-2.1015	-4.410099	0.000257	2.574155	0.872147	-0.020954
1055	5.2700e-01	-2.1561	-4.472960	0.000154	1.544493	0.523288	-0.012572
1056	5.2750e-01	-2.1898	-4.549078	0.000187	1.870202	0.633642	-0.015223
1057	5.2800e-01	-2.2299	-4.648714	0.000245	2.448074	0.829430	-0.019927
1058	5.2850e-01	-2.2908	-4.709437	0.000149	1.491959	0.505489	-0.012145
1059	5.2900e-01	-2.3310	-4.797956	0.000217	2.174898	0.736875	-0.017704
1060	5.2950e-01	-2.3005	-4.912559	-0.000282	-2.815810	-0.954022	-0.022921
1061	5.3000e-01	-2.3903	-4.976703	0.000158	1.576013	0.533968	-0.012829
1062	5.3050e-01	-2.4368	-5.057952	0.000200	1.996283	0.676359	-0.016250
1063	5.3100e-01	-2.4192	-5.135352	-0.000190	-1.901722	-0.644321	-0.015480
1064	5.3150e-01	-2.5010	-5.196075	0.000149	1.491959	0.505489	-0.012145
1065	5.3200e-01	-2.5299	-5.288442	0.000227	2.269459	0.768913	-0.018473
1066	5.3250e-01	-2.5828	-5.360710	0.000178	1.775641	0.601604	-0.014454
1067	5.3300e-01	-2.6342	-5.439821	0.000194	1.943749	0.658560	-0.015822
1068	5.3350e-01	-2.6678	-5.517221	0.000190	1.901722	0.644321	-0.015480
1069	5.3400e-01	-2.7192	-5.566826	0.000122	1.218783	0.412935	-0.009921
1070	5.3450e-01	-2.7400	-5.657055	0.000222	2.216925	0.751114	-0.018046
1071	5.3500e-01	-2.7866	-5.747711	0.000223	2.227432	0.754674	-0.018131
1072	5.3550e-01	-2.8026	-5.824684	0.000189	1.891216	0.640761	-0.015395
1073	5.3600e-01	-2.8587	-5.892676	0.000167	1.670574	0.566006	-0.013598
1074	5.3650e-01	-2.9005	-5.972642	0.000196	1.964763	0.665680	-0.015993
1075	5.3700e-01	-2.9422	-6.073562	0.000248	2.479594	0.840109	-0.020184
1076	5.3750e-01	-2.9807	-6.141982	0.000168	1.681081	0.569565	-0.013684
1077	5.3800e-01	-3.0256	-6.207836	0.000162	1.618040	0.548207	-0.013171
1078	5.3850e-01	-3.0721	-6.283098	0.000185	1.849189	0.626522	-0.015052
1079	5.3900e-01	-3.0994	-6.342538	0.000146	1.460439	0.494810	-0.011888
1080	5.3950e-01	-3.1395	-6.443030	0.000247	2.469087	0.836549	-0.020098
1081	5.4000e-01	-3.1988	-6.506746	0.000157	1.565506	0.530408	-0.012743
1082	5.4050e-01	-3.1876	-6.601679	-0.000233	-2.332499	-0.790272	-0.018987
1083	5.4100e-01	-3.2470	-6.681217	0.000195	1.954256	0.662120	-0.015908
1084	5.4150e-01	-3.3047	-6.732532	0.000126	1.260810	0.427174	-0.010263
1085	5.4200e-01	-3.3705	-6.786413	0.000132	1.323851	0.448533	-0.010776
1086	5.4250e-01	-3.3962	-6.880491	0.000231	2.311486	0.783153	-0.018816
1087	5.4300e-01	-3.4266	-6.960884	0.000198	1.975270	0.669239	-0.016079
1088	5.4350e-01	-3.4684	-7.046837	0.000211	2.111857	0.715517	-0.017191
1089	5.4400e-01	-3.5085	-7.118678	0.000177	1.765135	0.598044	-0.014368
1090	5.4450e-01	-3.5598	-7.166572	0.000118	1.176756	0.398696	-0.009579
1091	5.4500e-01	-3.5839	-7.245683	0.000194	1.943749	0.658560	-0.015822
1092	5.4550e-01	-3.6031	-7.325221	0.000195	1.954256	0.662120	-0.015908
1093	5.4600e-01	-3.6448	-7.400055	0.000184	1.838682	0.622962	-0.014967
1094	5.4650e-01	-3.6641	-7.478738	0.000193	1.933243	0.655000	-0.015737
1095	5.4700e-01	-3.7459	-7.531336	0.000129	1.292331	0.437853	-0.010520
1096	5.4750e-01	-3.7924	-7.606171	0.000184	1.838682	0.622962	-0.014967
1097	5.4800e-01	-3.8084	-7.670742	0.000159	1.586520	0.537527	-0.012914
1098	5.4850e-01	-3.8710	-7.738735	0.000167	1.670574	0.566006	-0.013598
1099	5.4900e-01	-3.9143	-7.814424	0.000186	1.859695	0.630082	-0.015138
1100	5.4950e-01	-3.9400	-7.885410	0.000174	1.744121	0.590924	-0.014197
1101	5.5000e-01	-3.9737	-7.948699	0.000155	1.554999	0.526848	-0.012658
1102	5.5050e-01	-4.0298	-8.028237	0.000195	1.954256	0.662120	-0.015908
1103	5.5100e-01	-4.0603	-8.099650	0.000175	1.754628	0.594484	-0.014283
1104	5.5150e-01	-4.1309	-8.155242	0.000137	1.365878	0.462772	-0.011118
1105	5.5200e-01	-4.1550	-8.251030	0.000235	2.353513	0.797392	-0.019158
1106	5.5250e-01	-4.2111	-8.289088	0.000094	0.935101	0.316821	-0.007612
1107	5.5300e-01	-4.1983	-8.384449	-0.000234	-2.343006	-0.793832	-0.019072
1108	5.5350e-01	-4.2673	-8.417376	0.000081	0.809020	0.274103	-0.006585
1109	5.5400e-01	-4.3250	-8.495631	0.000192	1.922736	0.651441	-0.015651
1110	5.5450e-01	-4.3539	-8.571321	0.000186	1.859695	0.630082	-0.015138
1111	5.5500e-01	-4.4036	-8.646155	0.000184	1.838682	0.622962	-0.014967
1112	5.5550e-01	-4.4566	-8.700891	0.000134	1.344864	0.455652	-0.010947
1113	5.5600e-01	-4.4694	-8.777436	0.000188	1.880709	0.637201	-0.015309
1114	5.5650e-01	-4.5159	-8.849277	0.000177	1.765135	0.598044	-0.014368
1115	5.5700e-01	-4.5480	-8.930526	0.000200	1.996283	0.676359	-0.016250
1116	5.5750e-01	-4.5656	-8.961743	0.000077	0.766993	0.259864	-0.006243
1117	5.5800e-01	-4.6443	-9.053255	0.000225	2.248445	0.761794	-0.018302
1118	5.5850e-01	-4.6908	-9.124240	0.000174	1.744121	0.590924	-0.014197
1119	5.5900e-01	-4.7293	-9.166575	0.000104	1.040169	0.352419	-0.008467
1120	5.5950e-01	-4.7213	-9.254239	-0.000215	-2.153884	-0.729756	-0.017533
1121	5.6000e-01	-4.8079	-9.302988	0.000120	1.197770	0.405815	-0.009750
1122	5.6050e-01	-4.8416	-9.362855	0.000147	1.470945	0.498370	-0.011974
1123	5.6100e-01	-4.8544	-9.455222	0.000227	2.269459	0.768913	-0.018473
1124	5.6150e-01	-4.9234	-9.498840	0.000107	1.071689	0.363098	-0.008724
1125	5.6200e-01	-4.9747	-9.565550	0.000164	1.639054	0.555326	-0.013342
1126	5.6250e-01	-5.0004	-9.627983	0.000153	1.533986	0.519729	-0.012487
1127	5.6300e-01	-5.0373	-9.695548	0.000166	1.660067	0.562446	-0.013513
1128	5.6350e-01	-5.0598	-9.769527	0.000182	1.817668	0.615843	-0.014796
1129	5.6400e-01	-5.1079	-9.828539	0.000145	1.449932	0.491250	-0.011802
1130	5.6450e-01	-5.1704	-9.896532	0.000167	1.670574	0.566006	-0.013598
1131	5.6500e-01	-5.2089	-9.951695	0.000136	1.355371	0.459212	-0.011033
1132	5.6550e-01	-5.2186	-10.040641	0.000219	2.185405	0.740435	-0.017789
1133	5.6600e-01	-5.2474	-10.097943	0.000141	1.407905	0.477011	-0.011460
1134	5.6650e-01	-5.3084	-10.184324	0.000212	2.122364	0.719076	-0.017276
1135	5.6700e-01	-5.3613	-10.218534	0.000084	0.840540	0.284783	-0.006842
1136	5.6750e-01	-5.3854	-10.273270	0.000134	1.344864	0.455652	-0.010947
1137	5.6800e-01	-5.4624	-10.347676	0.000183	1.828175	0.619402	-0.014881
1138	5.6850e-01	-5.4897	-10.407972	0.000148	1.481452	0.501930	-0.012059
1139	5.6900e-01	-5.5121	-10.481095	0.000180	1.796655	0.608723	-0.014625
1140	5.6950e-01	-5.5218	-10.544384	0.000155	1.554999	0.526848	-0.012658
1141	5.7000e-01	-5.5779	-10.610238	0.000162	1.618040	0.548207	-0.013171
1142	5.7050e-01	-5.6068	-10.660270	0.000123	1.229290	0.416495	-0.010006
1143	5.7100e-01	-5.6838	-10.725270	0.000160	1.597026	0.541087	-0.013000
1144	5.7150e-01	-5.7014	-10.803525	0.000192	1.922736	0.651441	-0.015651
1145	5.7200e-01	-5.7656	-10.845860	0.000104	1.040169	0.352419	-0.008467
1146	5.7250e-01	-5.7736	-10.923260	0.000190	1.901722	0.644321	-0.015480
1147	5.7300e-01	-5.8202	-10.972437	0.000121	1.208277	0.409375	-0.009835
1148	5.7350e-01	-5.8875	-11.029311	0.000140	1.397398	0.473451	-0.011375
1149	5.7400e-01	-5.9068	-11.097304	0.000167	1.670574	0.566006	-0.013598
1150	5.7450e-01	-5.9405	-11.173848	0.000188	1.880709	0.637201	-0.015309
1151	5.7500e-01	-5.9902	-11.209341	0.000087	0.872061	0.295462	-0.007099
1152	5.7550e-01	-6.0383	-11.288880	0.000195	1.954256	0.662120	-0.015908
1153	5.7600e-01	-6.0784	-11.367990	0.000194	1.943749	0.658560	-0.015822
1154	5.7650e-01	-6.0881	-11.416312	0.000119	1.187263	0.402256	-0.009664
1155	5.7700e-01	-6.1570	-11.464206	0.000118	1.176756	0.398696	-0.009579
1156	5.7750e-01	-6.1795	-11.539896	0.000186	1.859695	0.630082	-0.015138
1157	5.7800e-01	-6.2164	-11.592921	0.000130	1.302837	0.441413	-0.010605
1158	5.7850e-01	-6.2613	-11.666473	0.000181	1.807162	0.612283	-0.014710
1159	5.7900e-01	-6.3094	-11.720354	0.000132	1.323851	0.448533	-0.010776
1160	5.7950e-01	-6.3431	-11.761406	0.000101	1.008648	0.341739	-0.008210
1161	5.8000e-01	-6.3977	-11.832819	0.000175	1.754628	0.594484	-0.014283
1162	5.8050e-01	-6.4073	-11.894825	0.000152	1.523479	0.516169	-0.012401
1163	5.8100e-01	-6.4362	-12.003441	0.000267	2.668715	0.904185	-0.021723
1164	5.8150e-01	-6.5180	-12.032948	0.000072	0.724966	0.245625	-0.005901
1165	5.8200e-01	-6.5501	-12.068868	0.000088	0.882567	0.299022	-0.007184
1166	5.8250e-01	-6.5790	-12.144130	0.000185	1.849189	0.626522	-0.015052
1167	5.8300e-01	-6.6223	-12.211695	0.000166	1.660067	0.562446	-0.013513
1168	5.8350e-01	-6.6864	-12.240773	0.000071	0.714459	0.242065	-0.005816
1169	5.8400e-01	-6.7249	-12.292516	0.000127	1.271317	0.430734	-0.010349
1170	5.8450e-01	-6.7490	-12.393863	0.000249	2.490101	0.843669	-0.020269
1171	5.8500e-01	-6.8003	-12.432777	0.000096	0.956115	0.323940	-0.007783
1172	5.8550e-01	-6.8132	-12.488796	0.000138	1.376385	0.466332	-0.011204
1173	5.8600e-01	-6.8597	-12.541394	0.000129	1.292331	0.437853	-0.010520
1174	5.8650e-01	-6.9158	-12.608104	0.000164	1.639054	0.555326	-0.013342
1175	5.8700e-01	-6.9495	-12.654287	0.000113	1.134729	0.384457	-0.009237
1176	5.8750e-01	-6.9977	-12.720569	0.000163	1.628547	0.551767	-0.013256
1177	5.8800e-01	-7.0426	-12.794121	0.000181	1.807162	0.612283	-0.014710
1178	5.8850e-01	-7.0699	-12.833034	0.000096	0.956115	0.323940	-0.007783
1179	5.8900e-01	-7.0923	-12.923691	0.000223	2.227432	0.754674	-0.018131
1180	5.8950e-01	-7.1148	-12.963460	0.000098	0.977128	0.331060	-0.007954
1181	5.9000e-01	-7.1581	-13.013920	0.000124	1.239797	0.420055	-0.010092
1182	5.9050e-01	-7.2255	-13.102011	0.000216	2.164391	0.733316	-0.017618
1183	5.9100e-01	-7.2688	-13.156747	0.000134	1.344864	0.455652	-0.010947
1184	5.9150e-01	-7.3185	-13.202075	0.000111	1.113716	0.377337	-0.009066
1185	5.9200e-01	-7.3458	-13.250397	0.000119	1.187263	0.402256	-0.009664
1186	5.9250e-01	-7.3698	-13.319672	0.000170	1.702094	0.576685	-0.013855
1187	5.9300e-01	-7.4212	-13.379967	0.000148	1.481452	0.501930	-0.012059
1188	5.9350e-01	-7.4533	-13.434703	0.000134	1.344864	0.455652	-0.010947
1189	5.9400e-01	-7.5078	-13.485591	0.000125	1.250304	0.423614	-0.010177
1190	5.9450e-01	-7.5351	-13.538616	0.000130	1.302837	0.441413	-0.010605
1191	5.9500e-01	-7.6121	-13.599339	0.000149	1.491959	0.505489	-0.012145
1192	5.9550e-01	-7.6313	-13.666476	0.000165	1.649560	0.558886	-0.013427
1193	5.9600e-01	-7.6602	-13.710522	0.000108	1.082196	0.366658	-0.008809
1194	5.9650e-01	-7.7132	-13.780652	0.000172	1.723108	0.583805	-0.014026
1195	5.9700e-01	-7.7565	-13.830684	0.000123	1.229290	0.416495	-0.010006
1196	5.9750e-01	-7.7821	-13.894400	0.000157	1.565506	0.530408	-0.012743
1197	5.9800e-01	-7.8094	-13.957689	0.000155	1.554999	0.526848	-0.012658
1198	5.9850e-01	-7.8784	-13.994465	0.000090	0.903581	0.306141	-0.007355
1199	5.9900e-01	-7.8976	-14.063312	0.000169	1.691587	0.573125	-0.013770
1200	5.9950e-01	-7.9393	-14.122752	0.000146	1.460439	0.494810	-0.011888
1201	6.0000e-01	-7.9971	-14.168936	0.000113	1.134729	0.384457	-0.009237
1202	6.0050e-01	-8.0244	-14.233080	0.000158	1.576013	0.533968	-0.012829
1203	6.0100e-01	-8.0725	-14.289526	0.000139	1.386891	0.469892	-0.011289
1204	6.0150e-01	-8.1110	-14.349821	0.000148	1.481452	0.501930	-0.012059
1205	6.0200e-01	-8.1591	-14.390446	0.000100	0.998142	0.338180	-0.008125
1206	6.0250e-01	-8.1960	-14.459721	0.000170	1.702094	0.576685	-0.013855
1207	6.0300e-01	-8.2313	-14.528996	0.000170	1.702094	0.576685	-0.013855
1208	6.0350e-01	-8.2714	-14.552088	0.000057	0.567365	0.192228	-0.004618
1209	6.0400e-01	-8.3308	-14.614949	0.000154	1.544493	0.523288	-0.012572
1210	6.0450e-01	-8.3420	-14.665409	0.000124	1.239797	0.420055	-0.010092
1211	6.0500e-01	-8.3789	-14.737250	0.000177	1.765135	0.598044	-0.014368
1212	6.0550e-01	-8.4174	-14.799683	0.000153	1.533986	0.519729	-0.012487
1213	6.0600e-01	-8.4655	-14.848005	0.000119	1.187263	0.402256	-0.009664
1214	6.0650e-01	-8.5040	-14.891623	0.000107	1.071689	0.363098	-0.008724
1215	6.0700e-01	-8.5441	-14.952345	0.000149	1.491959	0.505489	-0.012145
1216	6.0750e-01	-8.5650	-15.015206	0.000154	1.544493	0.523288	-0.012572
1217	6.0800e-01	-8.6179	-15.073363	0.000143	1.428918	0.484131	-0.011631
1218	6.0850e-01	-8.6645	-15.116981	0.000107	1.071689	0.363098	-0.008724
1219	6.0900e-01	-8.6901	-15.164875	0.000118	1.176756	0.398696	-0.009579
1220	6.0950e-01	-8.7575	-15.216190	0.000126	1.260810	0.427174	-0.010263
1221	6.1000e-01	-8.8040	-15.299149	0.000204	2.038310	0.690598	-0.016592
1222	6.1050e-01	-8.8281	-15.350037	0.000125	1.250304	0.423614	-0.010177
1223	6.1100e-01	-8.8714	-15.391517	0.000102	1.019155	0.345299	-0.008296
1224	6.1150e-01	-8.8874	-15.447963	0.000139	1.386891	0.469892	-0.011289
1225	6.1200e-01	-8.9709	-15.497995	0.000123	1.229290	0.416495	-0.010006
1226	6.1250e-01	-9.0222	-15.558718	0.000149	1.491959	0.505489	-0.012145
1227	6.1300e-01	-9.0431	-15.605329	0.000115	1.145236	0.388016	-0.009322
1228	6.1350e-01	-9.0447	-15.665624	0.000148	1.481452	0.501930	-0.012059
1229	6.1400e-01	-9.1120	-15.738748	0.000180	1.796655	0.608723	-0.014625
1230	6.1450e-01	-9.1762	-15.774241	0.000087	0.872061	0.295462	-0.007099
1231	6.1500e-01	-9.1650	-15.836247	-0.000152	-1.523479	-0.516169	-0.012401
1232	6.1550e-01	-9.2227	-15.884996	0.000120	1.197770	0.405815	-0.009750
1233	6.1600e-01	-9.2564	-15.941870	0.000140	1.397398	0.473451	-0.011375
1234	6.1650e-01	-9.3254	-15.979074	0.000091	0.914088	0.309701	-0.007441
1235	6.1700e-01	-9.3639	-16.033382	0.000133	1.334358	0.452093	-0.010862
1236	6.1750e-01	-9.3960	-16.100519	0.000165	1.649560	0.558886	-0.013427
1237	6.1800e-01	-9.4409	-16.138578	0.000094	0.935101	0.316821	-0.007612
1238	6.1850e-01	-9.4698	-16.202722	0.000158	1.576013	0.533968	-0.012829
1239	6.1900e-01	-9.5051	-16.268148	0.000161	1.607533	0.544647	-0.013085
1240	6.1950e-01	-9.5628	-16.321601	0.000131	1.313344	0.444973	-0.010691
1241	6.2000e-01	-9.6045	-16.356667	0.000086	0.861554	0.291902	-0.007013
1242	6.2050e-01	-9.6623	-16.430646	0.000182	1.817668	0.615843	-0.014796
1243	6.2100e-01	-9.6511	-16.500776	-0.000172	-1.723108	-0.583805	-0.014026
1244	6.2150e-01	-9.7024	-16.550809	0.000123	1.229290	0.416495	-0.010006
1245	6.2200e-01	-9.7297	-16.590150	0.000097	0.966621	0.327500	-0.007868
1246	6.2250e-01	-9.7874	-16.629919	0.000098	0.977128	0.331060	-0.007954
1247	6.2300e-01	-9.8356	-16.688504	0.000144	1.439425	0.487690	-0.011717
1248	6.2350e-01	-9.8532	-16.732977	0.000109	1.092702	0.370218	-0.008895
1249	6.2400e-01	-9.9029	-16.790706	0.000142	1.418412	0.480571	-0.011546
1250	6.2450e-01	-9.9478	-16.854423	0.000157	1.565506	0.530408	-0.012743
1251	6.2500e-01	-10.0040	-16.897185	0.000105	1.050675	0.355978	-0.008553
1252	6.2550e-01	-10.0457	-16.937810	0.000100	0.998142	0.338180	-0.008125
1253	6.2600e-01	-10.0714	-16.997677	0.000147	1.470945	0.498370	-0.011974
1254	6.2650e-01	-10.1307	-17.052413	0.000134	1.344864	0.455652	-0.010947
1255	6.2700e-01	-10.1756	-17.099024	0.000115	1.145236	0.388016	-0.009322
1256	6.2750e-01	-10.2013	-17.165734	0.000164	1.639054	0.555326	-0.013342
1257	6.2800e-01	-10.2302	-17.210207	0.000109	1.092702	0.370218	-0.008895
1258	6.2850e-01	-10.2799	-17.270930	0.000149	1.491959	0.505489	-0.012145
1259	6.2900e-01	-10.3136	-17.296159	0.000062	0.619898	0.210027	-0.005046
1260	6.2950e-01	-10.3521	-17.380402	0.000207	2.069830	0.701278	-0.016848
1261	6.3000e-01	-10.4002	-17.413329	0.000081	0.809020	0.274103	-0.006585
1262	6.3050e-01	-10.4131	-17.480894	0.000166	1.660067	0.562446	-0.013513
1263	6.3100e-01	-10.4708	-17.542472	0.000151	1.512972	0.512609	-0.012316
1264	6.3150e-01	-10.5174	-17.568557	0.000064	0.640912	0.217147	-0.005217
1265	6.3200e-01	-10.5559	-17.628424	0.000147	1.470945	0.498370	-0.011974
1266	6.3250e-01	-10.5863	-17.667766	0.000097	0.966621	0.327500	-0.007868
1267	6.3300e-01	-10.6280	-17.719936	0.000128	1.281824	0.434294	-0.010434
1268	6.3350e-01	-10.6810	-17.788784	0.000169	1.691587	0.573125	-0.013770
1269	6.3400e-01	-10.7500	-17.843092	0.000133	1.334358	0.452093	-0.010862
1270	6.3450e-01	-10.7516	-17.893552	0.000124	1.239797	0.420055	-0.010092
1271	6.3500e-01	-10.7949	-17.935032	0.000102	1.019155	0.345299	-0.008296
1272	6.3550e-01	-10.8109	-17.996610	0.000151	1.512972	0.512609	-0.012316
1273	6.3600e-01	-10.8799	-18.038517	0.000103	1.029662	0.348859	-0.008381
1274	6.3650e-01	-10.9232	-18.080424	0.000103	1.029662	0.348859	-0.008381
1275	6.3700e-01	-10.9361	-18.136443	0.000138	1.376385	0.466332	-0.011204
1276	6.3750e-01	-10.9842	-18.196311	0.000147	1.470945	0.498370	-0.011974
1277	6.3800e-01	-11.0275	-18.239501	0.000106	1.061182	0.359538	-0.008638
1278	6.3850e-01	-11.0772	-18.295092	0.000137	1.365878	0.462772	-0.011118
1279	6.3900e-01	-11.1077	-18.361802	0.000164	1.639054	0.555326	-0.013342
1280	6.3950e-01	-11.1398	-18.424235	0.000153	1.533986	0.519729	-0.012487
1281	6.4000e-01	-11.1927	-18.440485	0.000040	0.399257	0.135272	-0.003250
1282	6.4050e-01	-11.2312	-18.474267	0.000083	0.830034	0.281223	-0.006756
1283	6.4100e-01	-11.2473	-18.555088	0.000199	1.985776	0.672799	-0.016164
1284	6.4150e-01	-11.3066	-18.613673	0.000144	1.439425	0.487690	-0.011717
1285	6.4200e-01	-11.3403	-18.651304	0.000092	0.924594	0.313261	-0.007526
1286	6.4250e-01	-11.3917	-18.718014	0.000164	1.639054	0.555326	-0.013342
1287	6.4300e-01	-11.4334	-18.743243	0.000062	0.619898	0.210027	-0.005046
1288	6.4350e-01	-11.4574	-18.783440	0.000099	0.987635	0.334620	-0.008039
1289	6.4400e-01	-11.4943	-18.852288	0.000169	1.691587	0.573125	-0.013770
1290	6.4450e-01	-11.5441	-18.905741	0.000131	1.313344	0.444973	-0.010691
1291	6.4500e-01	-11.5858	-18.968174	0.000153	1.533986	0.519729	-0.012487
1292	6.4550e-01	-11.6259	-19.011792	0.000107	1.071689	0.363098	-0.008724
1293	6.4600e-01	-11.6836	-19.054555	0.000105	1.050675	0.355978	-0.008553
1294	6.4650e-01	-11.6965	-19.095179	0.000100	0.998142	0.338180	-0.008125
1295	6.4700e-01	-11.7462	-19.174290	0.000194	1.943749	0.658560	-0.015822
1296	6.4750e-01	-11.7959	-19.206789	0.000080	0.798513	0.270544	-0.006500
1297	6.4800e-01	-11.8569	-19.243993	0.000091	0.914088	0.309701	-0.007441
1298	6.4850e-01	-11.8633	-19.312840	0.000169	1.691587	0.573125	-0.013770
1299	6.4900e-01	-11.9114	-19.338925	0.000064	0.640912	0.217147	-0.005217
1300	6.4950e-01	-11.9612	-19.392379	0.000131	1.313344	0.444973	-0.010691
1301	6.5000e-01	-12.0045	-19.451818	0.000146	1.460439	0.494810	-0.011888
1302	6.5050e-01	-12.0350	-19.517245	0.000161	1.607533	0.544647	-0.013085
1303	6.5100e-01	-12.0863	-19.547607	0.000075	0.745979	0.252745	-0.006072
1304	6.5150e-01	-12.0863	-19.613033	0.000161	1.607533	0.544647	-0.013085
1305	6.5200e-01	-12.1264	-19.659217	0.000113	1.134729	0.384457	-0.009237
1306	6.5250e-01	-12.1713	-19.697703	0.000095	0.945608	0.320381	-0.007697
1307	6.5300e-01	-12.2034	-19.737045	0.000097	0.966621	0.327500	-0.007868
1308	6.5350e-01	-12.2804	-19.790070	0.000130	1.302837	0.441413	-0.010605
1309	6.5400e-01	-12.3125	-19.848227	0.000143	1.428918	0.484131	-0.011631
1310	6.5450e-01	-12.3269	-19.901253	0.000130	1.302837	0.441413	-0.010605
1311	6.5500e-01	-12.4039	-19.943160	0.000103	1.029662	0.348859	-0.008381
1312	6.5550e-01	-12.4152	-19.995330	0.000128	1.281824	0.434294	-0.010434
1313	6.5600e-01	-12.4665	-20.036382	0.000101	1.008648	0.341739	-0.008210
1314	6.5650e-01	-12.5050	-20.085559	0.000121	1.208277	0.409375	-0.009835
1315	6.5700e-01	-12.5387	-20.147565	0.000152	1.523479	0.516169	-0.012401
1316	6.5750e-01	-12.5980	-20.199307	0.000127	1.271317	0.430734	-0.010349
1317	6.5800e-01	-12.6253	-20.248057	0.000120	1.197770	0.405815	-0.009750
1318	6.5850e-01	-12.6622	-20.302365	0.000133	1.334358	0.452093	-0.010862
1319	6.5900e-01	-12.7151	-20.340851	0.000095	0.945608	0.320381	-0.007697
1320	6.5950e-01	-12.7665	-20.376344	0.000087	0.872061	0.295462	-0.007099
1321	6.6000e-01	-12.7857	-20.435357	0.000145	1.449932	0.491250	-0.011802
1322	6.6050e-01	-12.8226	-20.468711	0.000082	0.819527	0.277663	-0.006671
1323	6.6100e-01	-12.8515	-20.532000	0.000155	1.554999	0.526848	-0.012658
1324	6.6150e-01	-12.8515	-20.620946	0.000219	2.185405	0.740435	-0.017789
1325	6.6200e-01	-12.9061	-20.627360	0.000016	0.157601	0.053397	-0.001283
1326	6.6250e-01	-12.9766	-20.685945	0.000144	1.439425	0.487690	-0.011717
1327	6.6300e-01	-13.0216	-20.724431	0.000095	0.945608	0.320381	-0.007697
1328	6.6350e-01	-13.0601	-20.791141	0.000164	1.639054	0.555326	-0.013342
1329	6.6400e-01	-13.1018	-20.827061	0.000088	0.882567	0.299022	-0.007184
1330	6.6450e-01	-13.1355	-20.869396	0.000104	1.040169	0.352419	-0.008467
1331	6.6500e-01	-13.1820	-20.916435	0.000116	1.155743	0.391576	-0.009408
1332	6.6550e-01	-13.2205	-20.968605	0.000128	1.281824	0.434294	-0.010434
1333	6.6600e-01	-13.2734	-21.023769	0.000136	1.355371	0.459212	-0.011033
1334	6.6650e-01	-13.3408	-21.056696	0.000081	0.809020	0.274103	-0.006585
1335	6.6700e-01	-13.3408	-21.105018	0.000119	1.187263	0.402256	-0.009664
1336	6.6750e-01	-13.3969	-21.140938	0.000088	0.882567	0.299022	-0.007184
1337	6.6800e-01	-13.4403	-21.186694	0.000112	1.124223	0.380897	-0.009151
1338	6.6850e-01	-13.4852	-21.249128	0.000153	1.533986	0.519729	-0.012487
1339	6.6900e-01	-13.5028	-21.306002	0.000140	1.397398	0.473451	-0.011375
1340	6.6950e-01	-13.5429	-21.357317	0.000126	1.260810	0.427174	-0.010263
1341	6.7000e-01	-13.5702	-21.391527	0.000084	0.840540	0.284783	-0.006842
1342	6.7050e-01	-13.6296	-21.443697	0.000128	1.281824	0.434294	-0.010434
1343	6.7100e-01	-13.6665	-21.485604	0.000103	1.029662	0.348859	-0.008381
1344	6.7150e-01	-13.7018	-21.531788	0.000113	1.134729	0.384457	-0.009237
1345	6.7200e-01	-13.7563	-21.581392	0.000122	1.218783	0.412935	-0.009921
1346	6.7250e-01	-13.7884	-21.636128	0.000134	1.344864	0.455652	-0.010947
1347	6.7300e-01	-13.8493	-21.677180	0.000101	1.008648	0.341739	-0.008210
1348	6.7350e-01	-13.8509	-21.740469	0.000155	1.554999	0.526848	-0.012658
1349	6.7400e-01	-13.8991	-21.787080	0.000115	1.145236	0.388016	-0.009322
1350	6.7450e-01	-13.9520	-21.815303	0.000069	0.693446	0.234946	-0.005645
1351	6.7500e-01	-13.9729	-21.868329	0.000130	1.302837	0.441413	-0.010605
1352	6.7550e-01	-14.0418	-21.903394	0.000086	0.861554	0.291902	-0.007013
1353	6.7600e-01	-14.1140	-21.958985	0.000137	1.365878	0.462772	-0.011118
1354	6.7650e-01	-14.1189	-22.023129	0.000158	1.576013	0.533968	-0.012829
1355	6.7700e-01	-14.1525	-22.048359	0.000062	0.619898	0.210027	-0.005046
1356	6.7750e-01	-14.1959	-22.105661	0.000141	1.407905	0.477011	-0.011460
1357	6.7800e-01	-14.1959	-22.164246	0.000144	1.439425	0.487690	-0.011717
1358	6.7850e-01	-14.2440	-22.191614	0.000067	0.672432	0.227826	-0.005474
1359	6.7900e-01	-14.2841	-22.249771	0.000143	1.428918	0.484131	-0.011631
1360	6.7950e-01	-14.3595	-22.294671	0.000110	1.103209	0.373777	-0.008980
1361	6.8000e-01	-14.3819	-22.338289	0.000107	1.071689	0.363098	-0.008724
1362	6.8050e-01	-14.4317	-22.380624	0.000104	1.040169	0.352419	-0.008467
1363	6.8100e-01	-14.4702	-22.414834	0.000084	0.840540	0.284783	-0.006842
1364	6.8150e-01	-14.5231	-22.481116	0.000163	1.628547	0.551767	-0.013256
1365	6.8200e-01	-14.5215	-22.525161	-0.000108	-1.082196	-0.366658	-0.008809
1366	6.8250e-01	-14.5568	-22.570062	0.000110	1.103209	0.373777	-0.008980
1367	6.8300e-01	-14.6338	-22.616246	0.000113	1.134729	0.384457	-0.009237
1368	6.8350e-01	-14.6611	-22.653021	0.000090	0.903581	0.306141	-0.007355
1369	6.8400e-01	-14.7108	-22.696639	0.000107	1.071689	0.363098	-0.008724
1370	6.8450e-01	-14.7670	-22.742395	0.000112	1.124223	0.380897	-0.009151
1371	6.8500e-01	-14.7734	-22.801407	0.000145	1.449932	0.491250	-0.011802
1372	6.8550e-01	-14.7910	-22.860847	0.000146	1.460439	0.494810	-0.011888
1373	6.8600e-01	-14.8504	-22.890353	0.000072	0.724966	0.245625	-0.005901
1374	6.8650e-01	-14.9258	-22.941241	0.000125	1.250304	0.423614	-0.010177
1375	6.8700e-01	-14.9675	-22.986997	0.000112	1.124223	0.380897	-0.009151
1376	6.8750e-01	-15.0012	-23.020779	0.000083	0.830034	0.281223	-0.006756
1377	6.8800e-01	-15.0381	-23.069956	0.000121	1.208277	0.409375	-0.009835
1378	6.8850e-01	-15.0766	-23.119988	0.000123	1.229290	0.416495	-0.010006
1379	6.8900e-01	-15.1183	-23.167882	0.000118	1.176756	0.398696	-0.009579
1380	6.8950e-01	-15.1263	-23.201237	0.000082	0.819527	0.277663	-0.006671
1381	6.9000e-01	-15.1985	-23.266664	0.000161	1.607533	0.544647	-0.013085
1382	6.9050e-01	-15.2129	-23.281630	0.000037	0.367736	0.124592	-0.002993
1383	6.9100e-01	-15.2707	-23.338932	0.000141	1.407905	0.477011	-0.011460
1384	6.9150e-01	-15.2932	-23.393241	0.000133	1.334358	0.452093	-0.010862
1385	6.9200e-01	-15.3525	-23.450970	0.000142	1.418412	0.480571	-0.011546
1386	6.9250e-01	-15.4119	-23.488601	0.000092	0.924594	0.313261	-0.007526
1387	6.9300e-01	-15.4536	-23.515541	0.000066	0.661925	0.224266	-0.005388
1388	6.9350e-01	-15.4584	-23.570705	0.000136	1.355371	0.459212	-0.011033
1389	6.9400e-01	-15.5001	-23.613040	0.000104	1.040169	0.352419	-0.008467
1390	6.9450e-01	-15.5643	-23.648961	0.000088	0.882567	0.299022	-0.007184
1391	6.9500e-01	-15.5803	-23.717381	0.000168	1.681081	0.569565	-0.013684
1392	6.9550e-01	-15.6284	-23.750735	0.000082	0.819527	0.277663	-0.006671
1393	6.9600e-01	-15.6734	-23.801195	0.000124	1.239797	0.420055	-0.010092
1394	6.9650e-01	-15.6958	-23.843102	0.000103	1.029662	0.348859	-0.008381
1395	6.9700e-01	-15.7439	-23.891424	0.000119	1.187263	0.402256	-0.009664
1396	6.9750e-01	-15.7824	-23.940173	0.000120	1.197770	0.405815	-0.009750
1397	6.9800e-01	-15.8514	-23.980798	0.000100	0.998142	0.338180	-0.008125
1398	6.9850e-01	-15.8867	-24.032540	0.000127	1.271317	0.430734	-0.010349
1399	6.9900e-01	-15.9108	-24.071454	0.000096	0.956115	0.323940	-0.007783
1400	6.9950e-01	-15.9557	-24.127046	0.000137	1.365878	0.462772	-0.011118
1401	7.0000e-01	-15.9445	-24.167242	-0.000099	-0.987635	-0.334620	-0.008039
1402	7.0050e-01	-16.0327	-24.211288	0.000108	1.082196	0.366658	-0.008809
1403	7.0100e-01	-16.0520	-24.260892	0.000122	1.218783	0.412935	-0.009921
1404	7.0150e-01	-16.1145	-24.315201	0.000133	1.334358	0.452093	-0.010862
1405	7.0200e-01	-16.1338	-24.342141	0.000066	0.661925	0.224266	-0.005388
1406	7.0250e-01	-16.1594	-24.384048	0.000103	1.029662	0.348859	-0.008381
1407	7.0300e-01	-16.2332	-24.447765	0.000157	1.565506	0.530408	-0.012743
1408	7.0350e-01	-16.2910	-24.467008	0.000047	0.472804	0.160190	-0.003849
1409	7.0400e-01	-16.3006	-24.525165	0.000143	1.428918	0.484131	-0.011631
1410	7.0450e-01	-16.3327	-24.576480	0.000126	1.260810	0.427174	-0.010263
1411	7.0500e-01	-16.3760	-24.599144	0.000056	0.556858	0.188669	-0.004533
1412	7.0550e-01	-16.4065	-24.665426	0.000163	1.628547	0.551767	-0.013256
1413	7.0600e-01	-16.4241	-24.701346	0.000088	0.882567	0.299022	-0.007184
1414	7.0650e-01	-16.4995	-24.742826	0.000102	1.019155	0.345299	-0.008296
1415	7.0700e-01	-16.5364	-24.783450	0.000100	0.998142	0.338180	-0.008125
1416	7.0750e-01	-16.5830	-24.838614	0.000136	1.355371	0.459212	-0.011033
1417	7.0800e-01	-16.6199	-24.891640	0.000130	1.302837	0.441413	-0.010605
1418	7.0850e-01	-16.6632	-24.922001	0.000075	0.745979	0.252745	-0.006072
1419	7.0900e-01	-16.6808	-24.963481	0.000102	1.019155	0.345299	-0.008296
1420	7.0950e-01	-16.7498	-25.019927	0.000139	1.386891	0.469892	-0.011289
1421	7.1000e-01	-16.7867	-25.066111	0.000113	1.134729	0.384457	-0.009237
1422	7.1050e-01	-16.8348	-25.099038	0.000081	0.809020	0.274103	-0.006585
1423	7.1100e-01	-16.8509	-25.146932	0.000118	1.176756	0.398696	-0.009579
1424	7.1150e-01	-16.9214	-25.181570	0.000085	0.851047	0.288343	-0.006928
1425	7.1200e-01	-16.9279	-25.249990	0.000168	1.681081	0.569565	-0.013684
1426	7.1250e-01	-16.9792	-25.278640	0.000070	0.703952	0.238506	-0.005730
1427	7.1300e-01	-17.0209	-25.330383	0.000127	1.271317	0.430734	-0.010349
1428	7.1350e-01	-17.0642	-25.341074	0.000026	0.262669	0.088995	-0.002138
1429	7.1400e-01	-17.1156	-25.388968	0.000118	1.176756	0.398696	-0.009579
1430	7.1450e-01	-17.1124	-25.445414	-0.000139	-1.386891	-0.469892	-0.011289
1431	7.1500e-01	-17.1910	-25.493308	0.000118	1.176756	0.398696	-0.009579
1432	7.1550e-01	-17.2263	-25.526663	0.000082	0.819527	0.277663	-0.006671
1433	7.1600e-01	-17.2551	-25.597649	0.000174	1.744121	0.590924	-0.014197
1434	7.1650e-01	-17.3033	-25.605774	0.000020	0.199628	0.067636	-0.001625
1435	7.1700e-01	-17.3594	-25.672483	0.000164	1.639054	0.555326	-0.013342
1436	7.1750e-01	-17.3642	-25.722088	0.000122	1.218783	0.412935	-0.009921
1437	7.1800e-01	-17.4139	-25.776396	0.000133	1.334358	0.452093	-0.010862
1438	7.1850e-01	-17.4781	-25.820442	0.000108	1.082196	0.366658	-0.008809
1439	7.1900e-01	-17.5198	-25.837547	0.000042	0.420270	0.142391	-0.003421
1440	7.1950e-01	-17.5615	-25.893566	0.000138	1.376385	0.466332	-0.011204
1441	7.2000e-01	-17.6081	-25.939749	0.000113	1.134729	0.384457	-0.009237
1442	7.2050e-01	-17.6113	-25.994913	0.000136	1.355371	0.459212	-0.011033
1443	7.2100e-01	-17.6610	-26.032116	0.000091	0.914088	0.309701	-0.007441
1444	7.2150e-01	-17.7075	-26.072741	0.000100	0.998142	0.338180	-0.008125
1445	7.2200e-01	-17.7556	-26.127904	0.000136	1.355371	0.459212	-0.011033
1446	7.2250e-01	-17.8054	-26.162970	0.000086	0.861554	0.291902	-0.007013
1447	7.2300e-01	-17.8070	-26.208298	0.000111	1.113716	0.377337	-0.009066
1448	7.2350e-01	-17.8647	-26.233100	0.000061	0.609392	0.206467	-0.004960
1449	7.2400e-01	-17.9081	-26.298527	0.000161	1.607533	0.544647	-0.013085
1450	7.2450e-01	-17.9273	-26.331454	0.000081	0.809020	0.274103	-0.006585
1451	7.2500e-01	-17.9786	-26.383624	0.000128	1.281824	0.434294	-0.010434
1452	7.2550e-01	-18.0123	-26.432373	0.000120	1.197770	0.405815	-0.009750
1453	7.2600e-01	-18.0621	-26.464445	0.000079	0.788006	0.266984	-0.006414
1454	7.2650e-01	-18.1054	-26.514905	0.000124	1.239797	0.420055	-0.010092
1455	7.2700e-01	-18.1583	-26.556385	0.000102	1.019155	0.345299	-0.008296
1456	7.2750e-01	-18.1936	-26.588884	0.000080	0.798513	0.270544	-0.006500
1457	7.2800e-01	-18.2353	-26.668850	0.000196	1.964763	0.665680	-0.015993
1458	7.2850e-01	-18.2738	-26.684245	0.000038	0.378243	0.128152	-0.003079
1459	7.2900e-01	-18.3171	-26.735560	0.000126	1.260810	0.427174	-0.010263
1460	7.2950e-01	-18.3604	-26.783026	0.000117	1.166250	0.395136	-0.009493
1461	7.3000e-01	-18.3797	-26.823223	0.000099	0.987635	0.334620	-0.008039
1462	7.3050e-01	-18.4134	-26.871117	0.000118	1.176756	0.398696	-0.009579
1463	7.3100e-01	-18.4567	-26.905755	0.000085	0.851047	0.288343	-0.006928
1464	7.3150e-01	-18.5177	-26.949372	0.000107	1.071689	0.363098	-0.008724
1465	7.3200e-01	-18.5658	-26.979306	0.000074	0.735473	0.249185	-0.005987
1466	7.3250e-01	-18.6187	-27.040884	0.000151	1.512972	0.512609	-0.012316
1467	7.3300e-01	-18.6476	-27.075522	0.000085	0.851047	0.288343	-0.006928
1468	7.3350e-01	-18.6701	-27.132396	0.000140	1.397398	0.473451	-0.011375
1469	7.3400e-01	-18.6957	-27.166606	0.000084	0.840540	0.284783	-0.006842
1470	7.3450e-01	-18.7374	-27.209369	0.000105	1.050675	0.355978	-0.008553
1471	7.3500e-01	-18.8096	-27.242296	0.000081	0.809020	0.274103	-0.006585
1472	7.3550e-01	-18.8016	-27.322689	-0.000198	-1.975270	-0.669239	-0.016079
1473	7.3600e-01	-18.8674	-27.364169	0.000102	1.019155	0.345299	-0.008296
1474	7.3650e-01	-18.9075	-27.387261	0.000057	0.567365	0.192228	-0.004618
1475	7.3700e-01	-18.9572	-27.429596	0.000104	1.040169	0.352419	-0.008467
1476	7.3750e-01	-18.9829	-27.488608	0.000145	1.449932	0.491250	-0.011802
1477	7.3800e-01	-18.9909	-27.540351	0.000127	1.271317	0.430734	-0.010349
1478	7.3850e-01	-19.0679	-27.574988	0.000085	0.851047	0.288343	-0.006928
1479	7.3900e-01	-19.1273	-27.598935	0.000059	0.588378	0.199348	-0.004789
1480	7.3950e-01	-19.1433	-27.661796	0.000154	1.544493	0.523288	-0.012572
1481	7.4000e-01	-19.1914	-27.698144	0.000089	0.893074	0.302582	-0.007270
1482	7.4050e-01	-19.2348	-27.746466	0.000119	1.187263	0.402256	-0.009664
1483	7.4100e-01	-19.2556	-27.802485	0.000138	1.376385	0.466332	-0.011204
1484	7.4150e-01	-19.3150	-27.833702	0.000077	0.766993	0.259864	-0.006243
1485	7.4200e-01	-19.2989	-27.893569	-0.000147	-1.470945	-0.498370	-0.011974
1486	7.4250e-01	-19.3743	-27.908536	0.000037	0.367736	0.124592	-0.002993
1487	7.4300e-01	-19.4128	-27.973963	0.000161	1.607533	0.544647	-0.013085
1488	7.4350e-01	-19.4577	-28.015870	0.000103	1.029662	0.348859	-0.008381
1489	7.4400e-01	-19.5155	-28.034258	0.000045	0.451790	0.153071	-0.003678
1490	7.4450e-01	-19.5540	-28.113796	0.000195	1.954256	0.662120	-0.015908
1491	7.4500e-01	-19.6021	-28.149289	0.000087	0.872061	0.295462	-0.007099
1492	7.4550e-01	-19.6326	-28.167677	0.000045	0.451790	0.153071	-0.003678
1493	7.4600e-01	-19.6855	-28.226262	0.000144	1.439425	0.487690	-0.011717
1494	7.4650e-01	-19.6984	-28.263893	0.000092	0.924594	0.313261	-0.007526
1495	7.4700e-01	-19.7433	-28.316918	0.000130	1.302837	0.441413	-0.010605
1496	7.4750e-01	-19.7802	-28.351983	0.000086	0.861554	0.291902	-0.007013
1497	7.4800e-01	-19.8363	-28.405864	0.000132	1.323851	0.448533	-0.010776
1498	7.4850e-01	-19.8460	-28.446916	0.000101	1.008648	0.341739	-0.008210
1499	7.4900e-01	-19.9294	-28.489679	0.000105	1.050675	0.355978	-0.008553
1500	7.4950e-01	-19.9390	-28.543132	0.000131	1.313344	0.444973	-0.010691
1501	7.5000e-01	-20.0000	-28.578625	0.000087	0.872061	0.295462	-0.007099
1502	7.5050e-01	-19.9085	-28.590598	-0.000029	-0.294189	-0.099674	-0.002395
1503	7.5100e-01	-19.8813	-28.553822	0.000090	0.903581	0.306141	0.007355
1504	7.5150e-01	-19.8636	-28.508067	0.000112	1.124223	0.380897	0.009151
1505	7.5200e-01	-19.8235	-28.470008	0.000094	0.935101	0.316821	0.007612
1506	7.5250e-01	-19.7834	-28.454186	0.000039	0.388750	0.131712	0.003164
1507	7.5300e-01	-19.7337	-28.428101	0.000064	0.640912	0.217147	0.005217
1508	7.5350e-01	-19.6791	-28.399877	0.000069	0.693446	0.234946	0.005645
1509	7.5400e-01	-19.6326	-28.362246	0.000092	0.924594	0.313261	0.007526
1510	7.5450e-01	-19.5877	-28.338727	0.000058	0.577871	0.195788	0.004704
1511	7.5500e-01	-19.5748	-28.285274	0.000131	1.313344	0.444973	0.010691
1512	7.5550e-01	-19.5155	-28.255340	0.000074	0.735473	0.249185	0.005987
1513	7.5600e-01	-19.4962	-28.220702	0.000085	0.851047	0.288343	0.006928
1514	7.5650e-01	-19.4561	-28.188203	0.000080	0.798513	0.270544	0.006500
1515	7.5700e-01	-19.3872	-28.144585	0.000107	1.071689	0.363098	0.008724
1516	7.5750e-01	-19.3422	-28.121493	0.000057	0.567365	0.192228	0.004618
1517	7.5800e-01	-19.3374	-28.072316	0.000121	1.208277	0.409375	0.009835
1518	7.5850e-01	-19.3503	-28.006462	-0.000162	-1.618040	-0.548207	0.013171
1519	7.5900e-01	-19.2524	-28.002613	0.000009	0.094561	0.032038	0.000770
1520	7.5950e-01	-19.2027	-27.962844	0.000098	0.977128	0.331060	0.007954
1521	7.6000e-01	-19.1898	-27.939325	0.000058	0.577871	0.195788	0.004704
1522	7.6050e-01	-19.1273	-27.883734	0.000137	1.365878	0.462772	0.011118
1523	7.6100e-01	-19.0920	-27.869622	0.000035	0.346723	0.117473	0.002822
1524	7.6150e-01	-19.0422	-27.828142	0.000102	1.019155	0.345299	0.008296
1525	7.6200e-01	-19.0005	-27.787518	0.000100	0.998142	0.338180	0.008125
1526	7.6250e-01	-18.9492	-27.744755	0.000105	1.050675	0.355978	0.008553
1527	7.6300e-01	-18.9316	-27.701993	0.000105	1.050675	0.355978	0.008553
1528	7.6350e-01	-18.9059	-27.655809	0.000113	1.134729	0.384457	0.009237
1529	7.6400e-01	-18.8529	-27.637422	0.000045	0.451790	0.153071	0.003678
1530	7.6450e-01	-18.8112	-27.591238	0.000113	1.134729	0.384457	0.009237
1531	7.6500e-01	-18.7791	-27.552752	0.000095	0.945608	0.320381	0.007697
1532	7.6550e-01	-18.7294	-27.512983	0.000098	0.977128	0.331060	0.007954
1533	7.6600e-01	-18.7102	-27.479200	0.000083	0.830034	0.281223	0.006756
1534	7.6650e-01	-18.6187	-27.450122	0.000071	0.714459	0.242065	0.005816
1535	7.6700e-01	-18.5947	-27.393247	0.000140	1.397398	0.473451	0.011375
1536	7.6750e-01	-18.5915	-27.368018	0.000062	0.619898	0.210027	0.005046
1537	7.6800e-01	-18.5369	-27.329959	0.000094	0.935101	0.316821	0.007612
1538	7.6850e-01	-18.4808	-27.286769	0.000106	1.061182	0.359538	0.008638
1539	7.6900e-01	-18.4278	-27.262394	0.000060	0.598885	0.202908	0.004875
1540	7.6950e-01	-18.4134	-27.234598	0.000068	0.682939	0.231386	0.005559
1541	7.7000e-01	-18.3492	-27.176441	0.000143	1.428918	0.484131	0.011631
1542	7.7050e-01	-18.3219	-27.143942	0.000080	0.798513	0.270544	0.006500
1543	7.7100e-01	-18.2674	-27.105883	0.000094	0.935101	0.316821	0.007612
1544	7.7150e-01	-18.2481	-27.062693	0.000106	1.061182	0.359538	0.008638
1545	7.7200e-01	-18.1760	-27.030194	0.000080	0.798513	0.270544	0.006500
1546	7.7250e-01	-18.1487	-26.994701	0.000087	0.872061	0.295462	0.007099
1547	7.7300e-01	-18.1423	-26.945951	0.000120	1.197770	0.405815	0.009750
1548	7.7350e-01	-18.0909	-26.901478	0.000109	1.092702	0.370218	0.008895
1549	7.7400e-01	-18.0380	-26.876676	0.000061	0.609392	0.206467	0.004960
1550	7.7450e-01	-18.0107	-26.815526	0.000150	1.502466	0.509049	0.012230
1551	7.7500e-01	-17.9786	-26.800559	0.000037	0.367736	0.124592	0.002993
1552	7.7550e-01	-17.9385	-26.733849	0.000164	1.639054	0.555326	0.013342
1553	7.7600e-01	-17.9048	-26.702205	0.000078	0.777500	0.263424	0.006329
1554	7.7650e-01	-17.8327	-26.652173	0.000123	1.229290	0.416495	0.010006
1555	7.7700e-01	-17.7893	-26.620101	0.000079	0.788006	0.266984	0.006414
1556	7.7750e-01	-17.7701	-26.587174	0.000081	0.809020	0.274103	0.006585
1557	7.7800e-01	-17.7107	-26.555102	0.000079	0.788006	0.266984	0.006414
1558	7.7850e-01	-17.6706	-26.506353	0.000120	1.197770	0.405815	0.009750
1559	7.7900e-01	-17.6658	-26.470005	0.000089	0.893074	0.302582	0.007270
1560	7.7950e-01	-17.5840	-26.430235	0.000098	0.977128	0.331060	0.007954
1561	7.8000e-01	-17.5712	-26.385335	0.000110	1.103209	0.373777	0.008980
1562	7.8050e-01	-17.5455	-26.349842	0.000087	0.872061	0.295462	0.007099
1563	7.8100e-01	-17.4797	-26.298527	0.000126	1.260810	0.427174	0.010263
1564	7.8150e-01	-17.4669	-26.286553	0.000029	0.294189	0.099674	0.002395
1565	7.8200e-01	-17.3915	-26.242508	0.000108	1.082196	0.366658	0.008809
1566	7.8250e-01	-17.3578	-26.199318	0.000106	1.061182	0.359538	0.008638
1567	7.8300e-01	-17.3000	-26.160831	0.000095	0.945608	0.320381	0.007697
1568	7.8350e-01	-17.2952	-26.125766	0.000086	0.861554	0.291902	0.007013
1569	7.8400e-01	-17.2230	-26.090701	0.000086	0.861554	0.291902	0.007013
1570	7.8450e-01	-17.2263	-26.040241	-0.000124	-1.239797	-0.420055	0.010092
1571	7.8500e-01	-17.1637	-25.998334	0.000103	1.029662	0.348859	0.008381
1572	7.8550e-01	-17.0963	-25.947874	0.000124	1.239797	0.420055	0.010092
1573	7.8600e-01	-17.0931	-25.898270	0.000122	1.218783	0.412935	0.009921
1574	7.8650e-01	-17.0370	-25.871757	0.000065	0.651419	0.220707	0.005303
1575	7.8700e-01	-17.0033	-25.833270	0.000095	0.945608	0.320381	0.007697
1576	7.8750e-01	-16.9792	-25.795639	0.000092	0.924594	0.313261	0.007526
1577	7.8800e-01	-16.9327	-25.740048	0.000137	1.365878	0.462772	0.011118
1578	7.8850e-01	-16.8669	-25.710970	0.000071	0.714459	0.242065	0.005816
1579	7.8900e-01	-16.8348	-25.666497	0.000109	1.092702	0.370218	0.008895
1580	7.8950e-01	-16.8092	-25.625017	0.000102	1.019155	0.345299	0.008296
1581	7.9000e-01	-16.7867	-25.592945	0.000079	0.788006	0.266984	0.006414
1582	7.9050e-01	-16.7370	-25.546334	0.000115	1.145236	0.388016	0.009322
1583	7.9100e-01	-16.6600	-25.491598	0.000134	1.344864	0.455652	0.010947
1584	7.9150e-01	-16.6600	-25.447125	-0.000109	-1.092702	-0.370218	0.008895
1585	7.9200e-01	-16.5926	-25.439855	0.000018	0.178615	0.060516	0.001454
1586	7.9250e-01	-16.5188	-25.395810	0.000108	1.082196	0.366658	0.008809
1587	7.9300e-01	-16.5252	-25.337225	-0.000144	-1.439425	-0.487690	0.011717
1588	7.9350e-01	-16.4707	-25.306436	0.000076	0.756486	0.256304	0.006158
1589	7.9400e-01	-16.4514	-25.246141	0.000148	1.481452	0.501930	0.012059
1590	7.9450e-01	-16.4001	-25.225615	0.000050	0.504324	0.170870	0.004105
1591	7.9500e-01	-16.3728	-25.173872	0.000127	1.271317	0.430734	0.010349
1592	7.9550e-01	-16.3263	-25.130682	0.000106	1.061182	0.359538	0.008638
1593	7.9600e-01	-16.2749	-25.095617	0.000086	0.861554	0.291902	0.007013
1594	7.9650e-01	-16.2300	-25.055420	0.000099	0.987635	0.334620	0.008039
1595	7.9700e-01	-16.2028	-25.003677	0.000127	1.271317	0.430734	0.010349
1596	7.9750e-01	-16.1402	-24.978448	0.000062	0.619898	0.210027	0.005046
1597	7.9800e-01	-16.1274	-24.920718	0.000142	1.418412	0.480571	0.011546
1598	7.9850e-01	-16.1257	-24.864699	0.000138	1.376385	0.466332	0.011204
1599	7.9900e-01	-16.0439	-24.853581	0.000027	0.273176	0.092554	0.002224
1600	7.9950e-01	-16.0022	-24.791148	0.000153	1.533986	0.519729	0.012487
1601	8.0000e-01	-15.9910	-24.753944	0.000091	0.914088	0.309701	0.007441
1602	8.0050e-01	-15.9252	-24.715458	0.000095	0.945608	0.320381	0.007697
1603	8.0100e-01	-15.8819	-24.675689	0.000098	0.977128	0.331060	0.007954
1604	8.0150e-01	-15.8578	-24.613683	0.000152	1.523479	0.516169	0.012401
1605	8.0200e-01	-15.8145	-24.591874	0.000054	0.535844	0.181549	0.004362
1606	8.0250e-01	-15.7744	-24.556381	0.000087	0.872061	0.295462	0.007099
1607	8.0300e-01	-15.7022	-24.515757	0.000100	0.998142	0.338180	0.008125
1608	8.0350e-01	-15.6750	-24.458883	0.000140	1.397398	0.473451	0.011375
1609	8.0400e-01	-15.6525	-24.431515	0.000067	0.672432	0.227826	0.005474
1610	8.0450e-01	-15.5883	-24.391746	0.000098	0.977128	0.331060	0.007954
1611	8.0500e-01	-15.5723	-24.340431	0.000126	1.260810	0.427174	0.010263
1612	8.0550e-01	-15.5161	-24.304082	0.000089	0.893074	0.302582	0.007270
1613	8.0600e-01	-15.4969	-24.247636	0.000139	1.386891	0.469892	0.011289
1614	8.0650e-01	-15.4568	-24.212143	0.000087	0.872061	0.295462	0.007099
1615	8.0700e-01	-15.3766	-24.162111	0.000123	1.229290	0.416495	0.010006
1616	8.0750e-01	-15.3669	-24.115072	0.000116	1.155743	0.391576	0.009408
1617	8.0800e-01	-15.3333	-24.077869	0.000091	0.914088	0.309701	0.007441
1618	8.0850e-01	-15.2996	-24.044514	0.000082	0.819527	0.277663	0.006671
1619	8.0900e-01	-15.2274	-24.001751	0.000105	1.050675	0.355978	0.008553
1620	8.0950e-01	-15.2017	-23.954713	0.000116	1.155743	0.391576	0.009408
1621	8.1000e-01	-15.1696	-23.911950	0.000105	1.050675	0.355978	0.008553
1622	8.1050e-01	-15.1247	-23.863201	0.000120	1.197770	0.405815	0.009750
1623	8.1100e-01	-15.0862	-23.825997	0.000091	0.914088	0.309701	0.007441
1624	8.1150e-01	-15.0429	-23.779386	0.000115	1.145236	0.388016	0.009322
1625	8.1200e-01	-14.9835	-23.728499	0.000125	1.250304	0.423614	0.010177
1626	8.1250e-01	-14.9563	-23.703269	0.000062	0.619898	0.210027	0.005046
1627	8.1300e-01	-14.9081	-23.647678	0.000137	1.365878	0.462772	0.011118
1628	8.1350e-01	-14.8728	-23.617316	0.000075	0.745979	0.252745	0.006072
1629	8.1400e-01	-14.8456	-23.562580	0.000134	1.344864	0.455652	0.010947
1630	8.1450e-01	-14.8087	-23.518962	0.000107	1.071689	0.363098	0.008724
1631	8.1500e-01	-14.7220	-23.479621	0.000097	0.966621	0.327500	0.007868
1632	8.1550e-01	-14.6900	-23.450542	0.000071	0.714459	0.242065	0.005816
1633	8.1600e-01	-14.6739	-23.400938	0.000122	1.218783	0.412935	0.009921
1634	8.1650e-01	-14.6499	-23.350906	0.000123	1.229290	0.416495	0.010006
1635	8.1700e-01	-14.5985	-23.298735	0.000128	1.281824	0.434294	0.010434
1636	8.1750e-01	-14.5327	-23.276927	0.000054	0.535844	0.181549	0.004362
1637	8.1800e-01	-14.5279	-23.227322	0.000122	1.218783	0.412935	0.009921
1638	8.1850e-01	-14.4942	-23.189691	0.000092	0.924594	0.313261	0.007526
1639	8.1900e-01	-14.4397	-23.134955	0.000134	1.344864	0.455652	0.010947
1640	8.1950e-01	-14.4044	-23.078936	0.000138	1.376385	0.466332	0.011204
1641	8.2000e-01	-14.3563	-23.029332	0.000122	1.218783	0.412935	0.009921
1642	8.2050e-01	-14.3274	-22.987852	0.000102	1.019155	0.345299	0.008296
1643	8.2100e-01	-14.2889	-22.957490	0.000075	0.745979	0.252745	0.006072
1644	8.2150e-01	-14.2520	-22.902327	0.000136	1.355371	0.459212	0.011033
1645	8.2200e-01	-14.1959	-22.892064	0.000025	0.252162	0.085435	0.002053
1646	8.2250e-01	-14.1574	-22.830058	0.000152	1.523479	0.516169	0.012401
1647	8.2300e-01	-14.1044	-22.786013	0.000108	1.082196	0.366658	0.008809
1648	8.2350e-01	-14.0435	-22.759072	0.000066	0.661925	0.224266	0.005388
1649	8.2400e-01	-14.0499	-22.693646	-0.000161	-1.607533	-0.544647	0.013085
1650	8.2450e-01	-14.0162	-22.635489	0.000143	1.428918	0.484131	0.011631
1651	8.2500e-01	-13.9456	-22.609831	0.000063	0.630405	0.213587	0.005132
1652	8.2550e-01	-13.9360	-22.564503	0.000111	1.113716	0.377337	0.009066
1653	8.2600e-01	-13.8862	-22.504208	0.000148	1.481452	0.501930	0.012059
1654	8.2650e-01	-13.8477	-22.451182	0.000130	1.302837	0.441413	0.010605
1655	8.2700e-01	-13.8028	-22.427663	0.000058	0.577871	0.195788	0.004704
1656	8.2750e-01	-13.7788	-22.393025	0.000085	0.851047	0.288343	0.006928
1657	8.2800e-01	-13.7451	-22.319474	0.000181	1.807162	0.612283	0.014710
1658	8.2850e-01	-13.7001	-22.284836	0.000085	0.851047	0.288343	0.006928
1659	8.2900e-01	-13.6344	-22.235659	0.000121	1.208277	0.409375	0.009835
1660	8.2950e-01	-13.6231	-22.183061	0.000129	1.292331	0.437853	0.010520
1661	8.3000e-01	-13.5574	-22.158259	0.000061	0.609392	0.206467	0.004960
1662	8.3050e-01	-13.5189	-22.109937	0.000119	1.187263	0.402256	0.009664
1663	8.3100e-01	-13.4627	-22.071023	0.000096	0.956115	0.323940	0.007783
1664	8.3150e-01	-13.4627	-22.029544	-0.000102	-1.019155	-0.345299	0.008296
1665	8.3200e-01	-13.3793	-21.981222	0.000119	1.187263	0.402256	0.009664
1666	8.3250e-01	-13.3584	-21.920499	0.000149	1.491959	0.505489	0.012145
1667	8.3300e-01	-13.3151	-21.882868	0.000092	0.924594	0.313261	0.007526
1668	8.3350e-01	-13.2895	-21.854645	0.000069	0.693446	0.234946	0.005645
1669	8.3400e-01	-13.2237	-21.825139	0.000072	0.724966	0.245625	0.005901
1670	8.3450e-01	-13.1868	-21.742607	0.000203	2.027803	0.687038	0.016506
1671	8.3500e-01	-13.1691	-21.726357	0.000040	0.399257	0.135272	0.003250
1672	8.3550e-01	-13.1339	-21.666917	0.000146	1.460439	0.494810	0.011888
1673	8.3600e-01	-13.0745	-21.613892	0.000130	1.302837	0.441413	0.010605
1674	8.3650e-01	-13.0408	-21.566425	0.000117	1.166250	0.395136	0.009493
1675	8.3700e-01	-13.0071	-21.521097	0.000111	1.113716	0.377337	0.009066
1676	8.3750e-01	-12.9205	-21.493302	0.000068	0.682939	0.231386	0.005559
1677	8.3800e-01	-12.9093	-21.421461	0.000177	1.765135	0.598044	0.014368
1678	8.3850e-01	-12.8659	-21.405211	0.000040	0.399257	0.135272	0.003250
1679	8.3900e-01	-12.8515	-21.333370	0.000177	1.765135	0.598044	0.014368
1680	8.3950e-01	-12.8018	-21.279489	0.000132	1.323851	0.448533	0.010776
1681	8.4000e-01	-12.7617	-21.265377	0.000035	0.346723	0.117473	0.002822
1682	8.4050e-01	-12.7360	-21.207220	0.000143	1.428918	0.484131	0.011631
1683	8.4100e-01	-12.6718	-21.155905	0.000126	1.260810	0.427174	0.010263
1684	8.4150e-01	-12.6574	-21.096893	0.000145	1.449932	0.491250	0.011802
1685	8.4200e-01	-12.6093	-21.078077	0.000046	0.462297	0.156631	0.003763
1686	8.4250e-01	-12.5483	-21.029756	0.000119	1.187263	0.402256	0.009664
1687	8.4300e-01	-12.5258	-20.985710	0.000108	1.082196	0.366658	0.008809
1688	8.4350e-01	-12.4922	-20.925843	0.000147	1.470945	0.498370	0.011974
1689	8.4400e-01	-12.4424	-20.882653	0.000106	1.061182	0.359538	0.008638
1690	8.4450e-01	-12.4168	-20.841173	0.000102	1.019155	0.345299	0.008296
1691	8.4500e-01	-12.3895	-20.780023	0.000150	1.502466	0.509049	0.012230
1692	8.4550e-01	-12.3029	-20.756076	0.000059	0.588378	0.199348	0.004789
1693	8.4600e-01	-12.2676	-20.718872	0.000091	0.914088	0.309701	0.007441
1694	8.4650e-01	-12.2355	-20.655156	0.000157	1.565506	0.530408	0.012743
1695	8.4700e-01	-12.1906	-20.618380	0.000090	0.903581	0.306141	0.007355
1696	8.4750e-01	-12.1809	-20.572624	0.000112	1.124223	0.380897	0.009151
1697	8.4800e-01	-12.1023	-20.516605	0.000138	1.376385	0.466332	0.011204
1698	8.4850e-01	-12.0831	-20.472560	0.000108	1.082196	0.366658	0.008809
1699	8.4900e-01	-12.0350	-20.399436	0.000180	1.796655	0.608723	0.014625
1700	8.4950e-01	-11.9660	-20.372923	0.000065	0.651419	0.220707	0.005303
1701	8.5000e-01	-11.9708	-20.329306	-0.000107	-1.071689	-0.363098	0.008724
1702	8.5050e-01	-11.9403	-20.275425	0.000132	1.323851	0.448533	0.010776
1703	8.5100e-01	-11.8793	-20.246346	0.000071	0.714459	0.242065	0.005816
1704	8.5150e-01	-11.8360	-20.188189	0.000143	1.428918	0.484131	0.011631
1705	8.5200e-01	-11.7719	-20.145854	0.000104	1.040169	0.352419	0.008467
1706	8.5250e-01	-11.7751	-20.086414	-0.000146	-1.460439	-0.494810	0.011888
1707	8.5300e-01	-11.7125	-20.032106	0.000133	1.334358	0.452093	0.010862
1708	8.5350e-01	-11.6884	-19.979936	0.000128	1.281824	0.434294	0.010434
1709	8.5400e-01	-11.6612	-19.937601	0.000104	1.040169	0.352419	0.008467
1710	8.5450e-01	-11.6034	-19.892273	0.000111	1.113716	0.377337	0.009066
1711	8.5500e-01	-11.5810	-19.843523	0.000120	1.197770	0.405815	0.009750
1712	8.5550e-01	-11.5264	-19.793063	0.000124	1.239797	0.420055	0.010092
1713	8.5600e-01	-11.4735	-19.776386	0.000041	0.409763	0.138832	0.003335
1714	8.5650e-01	-11.4478	-19.690861	0.000210	2.101351	0.711957	0.017105
1715	8.5700e-01	-11.4221	-19.645960	0.000110	1.103209	0.373777	0.008980
1716	8.5750e-01	-11.3516	-19.615599	0.000075	0.745979	0.252745	0.006072
1717	8.5800e-01	-11.2938	-19.570271	0.000111	1.113716	0.377337	0.009066
1718	8.5850e-01	-11.2858	-19.519383	0.000125	1.250304	0.423614	0.010177
1719	8.5900e-01	-11.2569	-19.464647	0.000134	1.344864	0.455652	0.010947
1720	8.5950e-01	-11.1991	-19.416753	0.000118	1.176756	0.398696	0.009579
1721	8.6000e-01	-11.1494	-19.380405	0.000089	0.893074	0.302582	0.007270
1722	8.6050e-01	-11.1045	-19.329945	0.000124	1.239797	0.420055	0.010092
1723	8.6100e-01	-11.0740	-19.287183	0.000105	1.050675	0.355978	0.008553
1724	8.6150e-01	-11.0339	-19.234157	0.000130	1.302837	0.441413	0.010605
1725	8.6200e-01	-10.9986	-19.183270	0.000125	1.250304	0.423614	0.010177
1726	8.6250e-01	-10.9601	-19.134521	0.000120	1.197770	0.405815	0.009750
1727	8.6300e-01	-10.9104	-19.079785	0.000134	1.344864	0.455652	0.010947
1728	8.6350e-01	-10.8959	-19.019489	0.000148	1.481452	0.501930	0.012059
1729	8.6400e-01	-10.8542	-18.975444	0.000108	1.082196	0.366658	0.008809
1730	8.6450e-01	-10.8206	-18.923274	0.000128	1.281824	0.434294	0.010434
1731	8.6500e-01	-10.7596	-18.892057	0.000077	0.766993	0.259864	0.006243
1732	8.6550e-01	-10.6986	-18.835610	0.000139	1.386891	0.469892	0.011289
1733	8.6600e-01	-10.6922	-18.780019	0.000137	1.365878	0.462772	0.011118
1734	8.6650e-01	-10.6633	-18.740250	0.000098	0.977128	0.331060	0.007954
1735	8.6700e-01	-10.5895	-18.693639	0.000115	1.145236	0.388016	0.009322
1736	8.6750e-01	-10.5639	-18.646172	0.000117	1.166250	0.395136	0.009493
1737	8.6800e-01	-10.5174	-18.585877	0.000148	1.481452	0.501930	0.012059
1738	8.6850e-01	-10.4756	-18.562786	0.000057	0.567365	0.192228	0.004618
1739	8.6900e-01	-10.4403	-18.488806	0.000182	1.817668	0.615843	0.014796
1740	8.6950e-01	-10.3970	-18.437491	0.000126	1.260810	0.427174	0.010263
1741	8.7000e-01	-10.3537	-18.394729	0.000105	1.050675	0.355978	0.008553
1742	8.7050e-01	-10.3088	-18.344269	0.000124	1.239797	0.420055	0.010092
1743	8.7100e-01	-10.2831	-18.287822	0.000139	1.386891	0.469892	0.011289
1744	8.7150e-01	-10.2174	-18.253612	0.000084	0.840540	0.284783	0.006842
1745	8.7200e-01	-10.1789	-18.200159	0.000131	1.313344	0.444973	0.010691
1746	8.7250e-01	-10.1339	-18.154403	0.000112	1.124223	0.380897	0.009151
1747	8.7300e-01	-10.1355	-18.099240	-0.000136	-1.355371	-0.459212	0.011033
1748	8.7350e-01	-10.0874	-18.039372	0.000147	1.470945	0.498370	0.011974
1749	8.7400e-01	-10.0698	-17.995327	0.000108	1.082196	0.366658	0.008809
1750	8.7450e-01	-10.0072	-17.938453	0.000140	1.397398	0.473451	0.011375
1751	8.7500e-01	-9.9639	-17.901249	0.000091	0.914088	0.309701	0.007441
1752	8.7550e-01	-9.9350	-17.830691	0.000173	1.733614	0.587364	0.014112
1753	8.7600e-01	-9.8981	-17.793060	0.000092	0.924594	0.313261	0.007526
1754	8.7650e-01	-9.8484	-17.744738	0.000119	1.187263	0.402256	0.009664
1755	8.7700e-01	-9.8003	-17.698982	0.000112	1.124223	0.380897	0.009151
1756	8.7750e-01	-9.7553	-17.660496	0.000095	0.945608	0.320381	0.007697
1757	8.7800e-01	-9.7024	-17.597635	0.000154	1.544493	0.523288	0.012572
1758	8.7850e-01	-9.6928	-17.529643	0.000167	1.670574	0.566006	0.013598
1759	8.7900e-01	-9.5917	-17.499709	0.000074	0.735473	0.249185	0.005987
1760	8.7950e-01	-9.6110	-17.424447	-0.000185	-1.849189	-0.626522	0.015052
1761	8.8000e-01	-9.5452	-17.418033	0.000016	0.157601	0.053397	0.001283
1762	8.8050e-01	-9.5147	-17.341488	0.000188	1.880709	0.637201	0.015309
1763	8.8100e-01	-9.4682	-17.308561	0.000081	0.809020	0.274103	0.006585
1764	8.8150e-01	-9.4618	-17.246127	0.000153	1.533986	0.519729	0.012487
1765	8.8200e-01	-9.3960	-17.186260	0.000147	1.470945	0.498370	0.011974
1766	8.8250e-01	-9.3511	-17.135372	0.000125	1.250304	0.423614	0.010177
1767	8.8300e-01	-9.3206	-17.087906	0.000117	1.166250	0.395136	0.009493
1768	8.8350e-01	-9.2965	-17.023762	0.000158	1.576013	0.533968	0.012829
1769	8.8400e-01	-9.2308	-16.998105	0.000063	0.630405	0.213587	0.005132
1770	8.8450e-01	-9.2083	-16.917283	0.000199	1.985776	0.672799	0.016164
1771	8.8500e-01	-9.1586	-16.886922	0.000075	0.745979	0.252745	0.006072
1772	8.8550e-01	-9.1072	-16.832614	0.000133	1.334358	0.452093	0.010862
1773	8.8600e-01	-9.0639	-16.791562	0.000101	1.008648	0.341739	0.008210
1774	8.8650e-01	-9.0350	-16.718010	0.000181	1.807162	0.612283	0.014710
1775	8.8700e-01	-9.0302	-16.676958	0.000101	1.008648	0.341739	0.008210
1776	8.8750e-01	-8.9596	-16.617946	0.000145	1.449932	0.491250	0.011802
1777	8.8800e-01	-8.8939	-16.583736	0.000084	0.840540	0.284783	0.006842
1778	8.8850e-01	-8.8874	-16.520875	0.000154	1.544493	0.523288	0.012572
1779	8.8900e-01	-8.8441	-16.472553	0.000119	1.187263	0.402256	0.009664
1780	8.8950e-01	-8.8040	-16.415679	0.000140	1.397398	0.473451	0.011375
1781	8.9000e-01	-8.7543	-16.366502	0.000121	1.208277	0.409375	0.009835
1782	8.9050e-01	-8.7479	-16.299365	0.000165	1.649560	0.558886	0.013427
1783	8.9100e-01	-8.7190	-16.235649	0.000157	1.565506	0.530408	0.012743
1784	8.9150e-01	-8.6260	-16.210419	0.000062	0.619898	0.210027	0.005046
1785	8.9200e-01	-8.5826	-16.165518	0.000110	1.103209	0.373777	0.008980
1786	8.9250e-01	-8.5650	-16.106078	0.000146	1.460439	0.494810	0.011888
1787	8.9300e-01	-8.5361	-16.050915	0.000136	1.355371	0.459212	0.011033
1788	8.9350e-01	-8.4687	-15.999600	0.000126	1.260810	0.427174	0.010263
1789	8.9400e-01	-8.4511	-15.927331	0.000178	1.775641	0.601604	0.014454
1790	8.9450e-01	-8.3661	-15.901246	0.000064	0.640912	0.217147	0.005217
1791	8.9500e-01	-8.3452	-15.834964	0.000163	1.628547	0.551767	0.013256
1792	8.9550e-01	-8.3308	-15.764406	0.000173	1.733614	0.587364	0.014112
1793	8.9600e-01	-8.2650	-15.743452	0.000051	0.514831	0.174429	0.004191
1794	8.9650e-01	-8.2361	-15.683585	0.000147	1.470945	0.498370	0.011974
1795	8.9700e-01	-8.2024	-15.642105	0.000102	1.019155	0.345299	0.008296
1796	8.9750e-01	-8.1367	-15.571119	0.000174	1.744121	0.590924	0.014197
1797	8.9800e-01	-8.1110	-15.541185	0.000074	0.735473	0.249185	0.005987
1798	8.9850e-01	-8.0885	-15.468061	0.000180	1.796655	0.608723	0.014625
1799	8.9900e-01	-8.0196	-15.432569	0.000087	0.872061	0.295462	0.007099
1800	8.9950e-01	-8.0212	-15.340201	-0.000227	-2.269459	-0.768913	0.018473
1801	9.0000e-01	-7.9634	-15.308130	0.000079	0.788006	0.266984	0.006414
1802	9.0050e-01	-7.9249	-15.243558	0.000159	1.586520	0.537527	0.012914
1803	9.0100e-01	-7.8495	-15.209348	0.000084	0.840540	0.284783	0.006842
1804	9.0150e-01	-7.8319	-15.154612	0.000134	1.344864	0.455652	0.010947
1805	9.0200e-01	-7.8110	-15.099448	0.000136	1.355371	0.459212	0.011033
1806	9.0250e-01	-7.7484	-15.026752	0.000179	1.786148	0.605163	0.014539
1807	9.0300e-01	-7.7212	-14.975009	0.000127	1.271317	0.430734	0.010349
1808	9.0350e-01	-7.7051	-14.915142	0.000147	1.470945	0.498370	0.011974
1809	9.0400e-01	-7.6506	-14.866820	0.000119	1.187263	0.402256	0.009664
1810	9.0450e-01	-7.6057	-14.811657	0.000136	1.355371	0.459212	0.011033
1811	9.0500e-01	-7.5383	-14.771887	0.000098	0.977128	0.331060	0.007954
1812	9.0550e-01	-7.5110	-14.721000	0.000125	1.250304	0.423614	0.010177
1813	9.0600e-01	-7.4645	-14.660277	0.000149	1.491959	0.505489	0.012145
1814	9.0650e-01	-7.4436	-14.590147	0.000172	1.723108	0.583805	0.014026
1815	9.0700e-01	-7.3875	-14.534983	0.000136	1.355371	0.459212	0.011033
1816	9.0750e-01	-7.3378	-14.482385	0.000129	1.292331	0.437853	0.010520
1817	9.0800e-01	-7.3073	-14.434491	0.000118	1.176756	0.398696	0.009579
1818	9.0850e-01	-7.2720	-14.380183	0.000133	1.334358	0.452093	0.010862
1819	9.0900e-01	-7.2511	-14.319032	0.000150	1.502466	0.509049	0.012230
1820	9.0950e-01	-7.1934	-14.255316	0.000157	1.565506	0.530408	0.012743
1821	9.1000e-01	-7.1453	-14.221961	0.000082	0.819527	0.277663	0.006671
1822	9.1050e-01	-7.1212	-14.146699	0.000185	1.849189	0.626522	0.015052
1823	9.1100e-01	-7.0955	-14.077424	0.000170	1.702094	0.576685	0.013855
1824	9.1150e-01	-7.0233	-14.044497	0.000081	0.809020	0.274103	0.006585
1825	9.1200e-01	-6.9784	-13.988050	0.000139	1.386891	0.469892	0.011289
1826	9.1250e-01	-6.9832	-13.929893	-0.000143	-1.428918	-0.484131	0.011631
1827	9.1300e-01	-6.9142	-13.873019	0.000140	1.397398	0.473451	0.011375
1828	9.1350e-01	-6.8886	-13.813579	0.000146	1.460439	0.494810	0.011888
1829	9.1400e-01	-6.8421	-13.770389	0.000106	1.061182	0.359538	0.008638
1830	9.1450e-01	-6.8084	-13.698120	0.000178	1.775641	0.601604	0.014454
1831	9.1500e-01	-6.7570	-13.639963	0.000143	1.428918	0.484131	0.011631
1832	9.1550e-01	-6.7025	-13.586510	0.000131	1.313344	0.444973	0.010691
1833	9.1600e-01	-6.6736	-13.544603	0.000103	1.029662	0.348859	0.008381
1834	9.1650e-01	-6.6223	-13.489439	0.000136	1.355371	0.459212	0.011033
1835	9.1700e-01	-6.5918	-13.420592	0.000169	1.691587	0.573125	0.013770
1836	9.1750e-01	-6.5645	-13.366283	0.000133	1.334358	0.452093	0.010862
1837	9.1800e-01	-6.4955	-13.323521	0.000105	1.050675	0.355978	0.008553
1838	9.1850e-01	-6.4811	-13.249969	0.000181	1.807162	0.612283	0.014710
1839	9.1900e-01	-6.4554	-13.190102	0.000147	1.470945	0.498370	0.011974
1840	9.1950e-01	-6.4426	-13.111419	0.000193	1.933243	0.655000	0.015737
1841	9.2000e-01	-6.3704	-13.091748	0.000048	0.483311	0.163750	0.003934
1842	9.2050e-01	-6.3399	-13.034446	0.000141	1.407905	0.477011	0.011460
1843	9.2100e-01	-6.3255	-12.972868	0.000151	1.512972	0.512609	0.012316
1844	9.2150e-01	-6.2421	-12.910007	0.000154	1.544493	0.523288	0.012572
1845	9.2200e-01	-6.1763	-12.869383	0.000100	0.998142	0.338180	0.008125
1846	9.2250e-01	-6.1554	-12.808660	0.000149	1.491959	0.505489	0.012145
1847	9.2300e-01	-6.1362	-12.720997	0.000215	2.153884	0.729756	0.017533
1848	9.2350e-01	-6.1073	-12.679089	0.000103	1.029662	0.348859	0.008381
1849	9.2400e-01	-6.0271	-12.616228	0.000154	1.544493	0.523288	0.012572
1850	9.2450e-01	-6.0175	-12.566624	0.000122	1.218783	0.412935	0.009921
1851	9.2500e-01	-5.9453	-12.511888	0.000134	1.344864	0.455652	0.010947
1852	9.2550e-01	-5.9421	-12.455014	0.000140	1.397398	0.473451	0.011375
1853	9.2600e-01	-5.8875	-12.380607	0.000183	1.828175	0.619402	0.014881
1854	9.2650e-01	-5.8474	-12.329720	0.000125	1.250304	0.423614	0.010177
1855	9.2700e-01	-5.7688	-12.283108	0.000115	1.145236	0.388016	0.009322
1856	9.2750e-01	-5.7592	-12.223241	0.000147	1.470945	0.498370	0.011974
1857	9.2800e-01	-5.7608	-12.130874	-0.000227	-2.269459	-0.768913	0.018473
1858	9.2850e-01	-5.6790	-12.106072	0.000061	0.609392	0.206467	0.004960
1859	9.2900e-01	-5.6485	-12.046632	0.000146	1.460439	0.494810	0.011888
1860	9.2950e-01	-5.6260	-11.961962	0.000208	2.080337	0.704837	0.016934
1861	9.3000e-01	-5.5571	-11.897818	0.000158	1.576013	0.533968	0.012829
1862	9.3050e-01	-5.5121	-11.858049	0.000098	0.977128	0.331060	0.007954
1863	9.3100e-01	-5.4849	-11.810582	0.000117	1.166250	0.395136	0.009493
1864	9.3150e-01	-5.4383	-11.754136	0.000139	1.386891	0.469892	0.011289
1865	9.3200e-01	-5.4223	-11.653644	0.000247	2.469087	0.836549	0.020098
1866	9.3250e-01	-5.3228	-11.622000	0.000078	0.777500	0.263424	0.006329
1867	9.3300e-01	-5.3244	-11.558284	-0.000157	-1.565506	-0.530408	0.012743
1868	9.3350e-01	-5.3068	-11.483449	0.000184	1.838682	0.622962	0.014967
1869	9.3400e-01	-5.2250	-11.427430	0.000138	1.376385	0.466332	0.011204
1870	9.3450e-01	-5.1993	-11.385523	0.000103	1.029662	0.348859	0.008381
1871	9.3500e-01	-5.1704	-11.320952	0.000159	1.586520	0.537527	0.012914
1872	9.3550e-01	-5.1496	-11.268781	0.000128	1.281824	0.434294	0.010434
1873	9.3600e-01	-5.0870	-11.190953	0.000191	1.912229	0.647881	0.015566
1874	9.3650e-01	-5.0164	-11.128948	0.000152	1.523479	0.516169	0.012401
1875	9.3700e-01	-4.9763	-11.087896	0.000101	1.008648	0.341739	0.008210
1876	9.3750e-01	-4.9844	-10.996384	-0.000225	-2.248445	-0.761794	0.018302
1877	9.3800e-01	-4.9154	-10.942503	0.000132	1.323851	0.448533	0.010776
1878	9.3850e-01	-4.8416	-10.886484	0.000138	1.376385	0.466332	0.011204
1879	9.3900e-01	-4.8496	-10.804808	-0.000201	-2.006790	-0.679919	0.016335
1880	9.3950e-01	-4.8207	-10.753493	0.000126	1.260810	0.427174	0.010263
1881	9.4000e-01	-4.7790	-10.676520	0.000189	1.891216	0.640761	0.015395
1882	9.4050e-01	-4.7293	-10.647442	0.000071	0.714459	0.242065	0.005816
1883	9.4100e-01	-4.6892	-10.574318	0.000180	1.796655	0.608723	0.014625
1884	9.4150e-01	-4.6507	-10.513595	0.000149	1.491959	0.505489	0.012145
1885	9.4200e-01	-4.6074	-10.426787	0.000213	2.132871	0.722636	0.017362
1886	9.4250e-01	-4.5673	-10.377183	0.000122	1.218783	0.412935	0.009921
1887	9.4300e-01	-4.5207	-10.310473	0.000164	1.639054	0.555326	0.013342
1888	9.4350e-01	-4.4742	-10.259586	0.000125	1.250304	0.423614	0.010177
1889	9.4400e-01	-4.4357	-10.190738	0.000169	1.691587	0.573125	0.013770
1890	9.4450e-01	-4.3940	-10.116331	0.000183	1.828175	0.619402	0.014881
1891	9.4500e-01	-4.3699	-10.072286	0.000108	1.082196	0.366658	0.008809
1892	9.4550e-01	-4.3427	-9.985050	0.000214	2.143378	0.726196	0.017447
1893	9.4600e-01	-4.3106	-9.925183	0.000147	1.470945	0.498370	0.011974
1894	9.4650e-01	-4.2592	-9.877716	0.000117	1.166250	0.395136	0.009493
1895	9.4700e-01	-4.1935	-9.809296	0.000168	1.681081	0.569565	0.013684
1896	9.4750e-01	-4.1790	-9.737028	0.000178	1.775641	0.601604	0.014454
1897	9.4800e-01	-4.1277	-9.671173	0.000162	1.618040	0.548207	0.013171
1898	9.4850e-01	-4.1084	-9.611733	0.000146	1.460439	0.494810	0.011888
1899	9.4900e-01	-4.0475	-9.531767	0.000196	1.964763	0.665680	0.015993
1900	9.4950e-01	-4.0106	-9.480452	0.000126	1.260810	0.427174	0.010263
1901	9.5000e-01	-3.9673	-9.399631	0.000199	1.985776	0.672799	0.016164
1902	9.5050e-01	-3.9175	-9.348744	0.000125	1.250304	0.423614	0.010177
1903	9.5100e-01	-3.8838	-9.299139	0.000122	1.218783	0.412935	0.009921
1904	9.5150e-01	-3.8486	-9.218318	0.000199	1.985776	0.672799	0.016164
1905	9.5200e-01	-3.8084	-9.165293	0.000130	1.302837	0.441413	0.010605
1906	9.5250e-01	-3.7812	-9.077629	0.000215	2.153884	0.729756	0.017533
1907	9.5300e-01	-3.7282	-9.029735	0.000118	1.176756	0.398696	0.009579
1908	9.5350e-01	-3.6721	-8.942500	0.000214	2.143378	0.726196	0.017447
1909	9.5400e-01	-3.6304	-8.891612	0.000125	1.250304	0.423614	0.010177
1910	9.5450e-01	-3.6031	-8.815923	0.000186	1.859695	0.630082	0.015138
1911	9.5500e-01	-3.5582	-8.753489	0.000153	1.533986	0.519729	0.012487
1912	9.5550e-01	-3.4908	-8.689346	0.000158	1.576013	0.533968	0.012829
1913	9.5600e-01	-3.4956	-8.611945	-0.000190	-1.901722	-0.644321	0.015480
1914	9.5650e-01	-3.4507	-8.555926	0.000138	1.376385	0.466332	0.011204
1915	9.5700e-01	-3.3962	-8.489645	0.000163	1.628547	0.551767	0.013256
1916	9.5750e-01	-3.3432	-8.417804	0.000177	1.765135	0.598044	0.014368
1917	9.5800e-01	-3.3063	-8.363923	0.000132	1.323851	0.448533	0.010776
1918	9.5850e-01	-3.2903	-8.280536	0.000205	2.048817	0.694158	0.016677
1919	9.5900e-01	-3.2229	-8.198004	0.000203	2.027803	0.687038	0.016506
1920	9.5950e-01	-3.1764	-8.159518	0.000095	0.945608	0.320381	0.007697
1921	9.6000e-01	-3.1796	-8.055177	-0.000256	-2.563648	-0.868587	0.020868
1922	9.6050e-01	-3.1090	-7.990178	0.000160	1.597026	0.541087	0.013000
1923	9.6100e-01	-3.0737	-7.925179	0.000160	1.597026	0.541087	0.013000
1924	9.6150e-01	-3.0288	-7.851628	0.000181	1.807162	0.612283	0.014710
1925	9.6200e-01	-3.0063	-7.803734	0.000118	1.176756	0.398696	0.009579
1926	9.6250e-01	-2.9662	-7.710084	0.000230	2.300979	0.779593	0.018730
1927	9.6300e-01	-2.9213	-7.653210	0.000140	1.397398	0.473451	0.011375
1928	9.6350e-01	-2.8924	-7.578803	0.000183	1.828175	0.619402	0.014881
1929	9.6400e-01	-2.8411	-7.509527	0.000170	1.702094	0.576685	0.013855
1930	9.6450e-01	-2.7882	-7.453936	0.000137	1.365878	0.462772	0.011118
1931	9.6500e-01	-2.7320	-7.385516	0.000168	1.681081	0.569565	0.013684
1932	9.6550e-01	-2.7368	-7.305123	-0.000198	-1.975270	-0.669239	0.016079
1933	9.6600e-01	-2.6919	-7.211900	0.000229	2.290472	0.776033	0.018644
1934	9.6650e-01	-2.6245	-7.158875	0.000130	1.302837	0.441413	0.010605
1935	9.6700e-01	-2.5700	-7.078054	0.000199	1.985776	0.672799	0.016164
1936	9.6750e-01	-2.5571	-7.013482	0.000159	1.586520	0.537527	0.012914
1937	9.6800e-01	-2.4994	-6.926674	0.000213	2.132871	0.722636	0.017362
1938	9.6850e-01	-2.4737	-6.857399	0.000170	1.702094	0.576685	0.013855
1939	9.6900e-01	-2.4400	-6.791972	0.000161	1.607533	0.544647	0.013085
1940	9.6950e-01	-2.3887	-6.718848	0.000180	1.796655	0.608723	0.014625
1941	9.7000e-01	-2.3662	-6.632468	0.000212	2.122364	0.719076	0.017276
1942	9.7050e-01	-2.3438	-6.551219	0.000200	1.996283	0.676359	0.016250
1943	9.7100e-01	-2.2556	-6.490924	0.000148	1.481452	0.501930	0.012059
1944	9.7150e-01	-2.2187	-6.422932	0.000167	1.670574	0.566006	0.013598
1945	9.7200e-01	-2.2251	-6.304907	-0.000290	-2.899864	-0.982500	0.023605
1946	9.7250e-01	-2.1609	-6.266848	0.000094	0.935101	0.316821	0.007612
1947	9.7300e-01	-2.1481	-6.176192	0.000223	2.227432	0.754674	0.018131
1948	9.7350e-01	-2.1031	-6.103068	0.000180	1.796655	0.608723	0.014625
1949	9.7400e-01	-2.0438	-6.021391	0.000201	2.006790	0.679919	0.016335
1950	9.7450e-01	-1.9796	-5.955110	0.000163	1.628547	0.551767	0.013256
1951	9.7500e-01	-1.9668	-5.879420	0.000186	1.859695	0.630082	0.015138
1952	9.7550e-01	-1.9235	-5.799026	0.000198	1.975270	0.669239	0.016079
1953	9.7600e-01	-1.8914	-5.729323	0.000171	1.712601	0.580245	0.013941
1954	9.7650e-01	-1.8529	-5.636529	0.000228	2.279965	0.772473	0.018559
1955	9.7700e-01	-1.7983	-5.578372	0.000143	1.428918	0.484131	0.011631
1956	9.7750e-01	-1.7486	-5.491136	0.000214	2.143378	0.726196	0.017447
1957	9.7800e-01	-1.7342	-5.391927	0.000244	2.437567	0.825870	0.019842
1958	9.7850e-01	-1.6492	-5.342323	0.000122	1.218783	0.412935	0.009921
1959	9.7900e-01	-1.6395	-5.241403	0.000248	2.479594	0.840109	0.020184
1960	9.7950e-01	-1.5898	-5.190516	0.000125	1.250304	0.423614	0.010177
1961	9.8000e-01	-1.5818	-5.081044	0.000269	2.689729	0.911305	0.021894
1962	9.8050e-01	-1.5192	-5.010058	0.000174	1.744121	0.590924	0.014197
1963	9.8100e-01	-1.4695	-4.939500	0.000173	1.733614	0.587364	0.014112
1964	9.8150e-01	-1.4438	-4.853547	0.000211	2.111857	0.715517	0.017191
1965	9.8200e-01	-1.4117	-4.762035	0.000225	2.248445	0.761794	0.018302
1966	9.8250e-01	-1.3716	-4.698319	0.000157	1.565506	0.530408	0.012743
1967	9.8300e-01	-1.3379	-4.609800	0.000217	2.174898	0.736875	0.017704
1968	9.8350e-01	-1.2898	-4.539670	0.000172	1.723108	0.583805	0.014026
1969	9.8400e-01	-1.2401	-4.447730	0.000226	2.258952	0.765354	0.018388
1970	9.8450e-01	-1.1871	-4.376745	0.000174	1.744121	0.590924	0.014197
1971	9.8500e-01	-1.1599	-4.291220	0.000210	2.101351	0.711957	0.017105
1972	9.8550e-01	-1.1390	-4.180465	0.000272	2.721249	0.921984	0.022151
1973	9.8600e-01	-1.0604	-4.130860	0.000122	1.218783	0.412935	0.009921
1974	9.8650e-01	-1.0524	-4.045335	0.000210	2.101351	0.711957	0.017105
1975	9.8700e-01	-0.9962	-3.952540	0.000228	2.279965	0.772473	0.018559
1976	9.8750e-01	-0.9738	-3.852476	0.000246	2.458580	0.832990	0.020013
1977	9.8800e-01	-0.9096	-3.763530	0.000219	2.185405	0.740435	0.017789
1978	9.8850e-01	-0.8807	-3.682281	0.000200	1.996283	0.676359	0.016250
1979	9.8900e-01	-0.8631	-3.609157	0.000180	1.796655	0.608723	0.014625
1980	9.8950e-01	-0.8037	-3.518073	0.000224	2.237938	0.758234	0.018217
1981	9.9000e-01	-0.7781	-3.429555	0.000217	2.174898	0.736875	0.017704
1982	9.9050e-01	-0.7331	-3.343174	0.000212	2.122364	0.719076	0.017276
1983	9.9100e-01	-0.7123	-3.255084	0.000216	2.164391	0.733316	0.017618
1984	9.9150e-01	-0.6112	-3.185381	0.000171	1.712601	0.580245	0.013941
1985	9.9200e-01	-0.5839	-3.110974	0.000183	1.828175	0.619402	0.014881
1986	9.9250e-01	-0.5503	-3.013475	0.000240	2.395540	0.811631	0.019500
1987	9.9300e-01	-0.5214	-2.934365	0.000194	1.943749	0.658560	0.015822
1988	9.9350e-01	-0.4973	-2.819761	0.000282	2.815810	0.954022	0.022921
1989	9.9400e-01	-0.4380	-2.736374	0.000205	2.048817	0.694158	0.016677
1990	9.9450e-01	-0.4027	-2.655553	0.000199	1.985776	0.672799	0.016164
1991	9.9500e-01	-0.3642	-2.561903	0.000230	2.300979	0.779593	0.018730
1992	9.9550e-01	-0.3561	-2.475095	0.000213	2.132871	0.722636	0.017362
1993	9.9600e-01	-0.2839	-2.396840	0.000192	1.922736	0.651441	0.015651
1994	9.9650e-01	-0.2262	-2.320295	0.000188	1.880709	0.637201	0.015309
1995	9.9700e-01	-0.2086	-2.216809	0.000254	2.542634	0.861468	0.020697
1996	9.9750e-01	-0.1219	-2.153949	0.000154	1.544493	0.523288	0.012572
1997	9.9800e-01	-0.1283	-2.052601	-0.000249	-2.490101	-0.843669	0.020269
1998	9.9850e-01	-0.0882	-1.961945	0.000223	2.227432	0.754674	0.018131
1999	9.9900e-01	-0.0417	-1.861453	0.000247	2.469087	0.836549	0.020098
2000	9.9950e-01	0.0433	-1.786618	0.000184	1.838682	0.622962	0.014967
2001	1.0000e+00	0.0160	-1.687409	0.000184	1.838682	0.622962	0.019842

Center data before PMax,+/-Pr and +/-Vc Calc.

PMax (uC/cm2):	2.86e+01
Pr (uC/cm2):	1.78e-01
-Pr (uC/cm2):	-1.69e+00
PLoss (uC/cm2):	-7.14e-01
Vc:	5.59e-01
-Vc:	-9.61e-02
C (Max-Eff) (nF):	1.43e-01
K (Eff):	4.84e+02
Vert. (+/-Pr) Shift (uC/cm2):	-7.55e-01
Horiz. Shift (+/-Vc):	2.31e-01
Offset (uC/cm2):	9.65e-01

A (Loop Area - uC/cm2·Volts):	2.78e-02



Hysteresis Version: 5.48.1 - Radiant Technologies, Inc., 1999 - 9/12/24

