»»»»»»»»»»»»»»»»»»»»»»»»»»»»»»»»»»»» Hysteresis ««««««««««««««««««««««««««««««««««««
»»»  Executed Version:	5.48.1
»»»  Vision Version:	5.48.4 (R)
»»»  Vision Compiled:	9/18/24
»»»  Driver Version:	5.47.0
»»»  Windows Version:	Windows 8 or 8.1
»»»  Processor Information:	x86 (AMD or Intel) - 32 Processors
»»»  Tester Name:	PMF21124-494 (100V)
»»»  Tester S/N:	PMF21124-494
»»»  Internal Amp Type:	100V RevK 270k
»»»  Internal Amp S/N:	iAB2-596/K     
»»»  Execution Count:	1
»»»»»»»»»»»»»»»»»»»»»»»»»»»»»»»»»»»»»»»»»»««««««««««««««««««««««««««««««««««««««««««

Stored:	6/12/2025 - 12:6:9
Configured:	06/12/25 10:06:17 AM
Executed:	06/12/25 12:05:37 PM

»»»»»»»»»»»»»»»»»»»»»»»»»»»»»»»»»»» Sample Info ««««««««««««««««««««««««««««««««««««
Sample Name:	
Lot Name:	
Wafer Name:	
Die Row/Column:	0/0
Capacitor Number:	0
Sample Area (cm2):	1.00e-04
Sample Thickness (microns):	3.00e-01

Amplifier:	Internal

»»»»»»»»»»»»»»»»»»»»»»»»»»»»»»»»»»» Tester Info «««««««««««««««««««««««««««««««««««
Tester Name:	PMF21124-494 (100V)
Tester Serial Number:	PMF21124-494
Return Signal Amp. Level:	1.79 [Index: 2]

»»»»»»»»»»»»»»»»»»»»»»»»»»»»»»»» Hysteresis Info ««««««««««««««««««««««««««««««««««
Task Name:	Hyst-1390
Volts:	20.00
Field:	666.67 (kV/cm)
DCBias:	0.00
DCField:	0.00 (kV/cm)
Hysteresis Period (ms):	1.00e+00
Preset:	Enabled
Preset Delay (ms):	1.00e+03
Profile:	Standard Bipolar

»»»»»»»»»»»»»»»»»»»»»»»»»»»»»»»»»»»»»» Data «««««««««««««««««««««««««««««««««««««««
Points:	2001

Valid Data

Point	Time (ms)	Drive Voltage	Measured Polarization (uC/cm2)	Capacitance (uF)	Normalized Capacitance (uF/cm2)	Dielectric Constant	Instantaneous Current (mA)
   1	0.0000e+00	0.0561	-1.158223	-0.000157	-1.570670	-0.532157	0.012743
   2	5.0000e-04	0.0545	-1.094507	-0.000157	-1.570670	-0.532157	0.012743
   3	1.0000e-03	0.1235	-1.058159	0.000090	0.896020	0.303580	0.007270
   4	1.5000e-03	0.1492	-0.935858	0.000301	3.014842	1.021456	0.024460
   5	2.0000e-03	0.1973	-0.852043	0.000207	2.066116	0.700019	0.016763
   6	2.5000e-03	0.2166	-0.708789	0.000353	3.531371	1.196461	0.028651
   7	3.0000e-03	0.2743	-0.604448	0.000257	2.572103	0.871452	0.020868
   8	3.5000e-03	0.3208	-0.492411	0.000276	2.761849	0.935740	0.022408
   9	4.0000e-03	0.3497	-0.374814	0.000290	2.898887	0.982170	0.023519
  10	4.5000e-03	0.3770	-0.256361	0.000292	2.919970	0.989313	0.023690
  11	5.0000e-03	0.4396	-0.137054	0.000294	2.941053	0.996456	0.023861
  12	5.5000e-03	0.4829	-0.023733	0.000279	2.793473	0.946454	0.022664
  13	6.0000e-03	0.5583	0.074193	0.000241	2.413982	0.817879	0.019585
  14	6.5000e-03	0.5567	0.204619	-0.000322	-3.215129	-1.089315	0.026085
  15	7.0000e-03	0.5952	0.344025	0.000344	3.436499	1.164317	0.027881
  16	7.5000e-03	0.6449	0.442806	0.000244	2.435065	0.825022	0.019756
  17	8.0000e-03	0.6674	0.574942	0.000326	3.257295	1.103601	0.026427
  18	8.5000e-03	0.7171	0.689546	0.000283	2.825097	0.957169	0.022921
  19	9.0000e-03	0.7444	0.800728	0.000274	2.740766	0.928597	0.022237
  20	9.5000e-03	0.8069	0.903358	0.000253	2.529938	0.857166	0.020526
  21	1.0000e-02	0.8438	1.044475	0.000348	3.478664	1.178603	0.028223
  22	1.0500e-02	0.8631	1.162072	0.000290	2.898887	0.982170	0.023519
  23	1.1000e-02	0.9240	1.258715	0.000238	2.382358	0.807165	0.019329
  24	1.1500e-02	0.9465	1.394700	0.000335	3.352168	1.135745	0.027197
  25	1.2000e-02	0.9850	1.519994	0.000309	3.088632	1.046457	0.025059
  26	1.2500e-02	1.0684	1.610651	0.000223	2.234778	0.757163	0.018131
  27	1.3000e-02	1.0796	1.742787	0.000326	3.257295	1.103601	0.026427
  28	1.3500e-02	1.1133	1.865088	0.000301	3.014842	1.021456	0.024460
  29	1.4000e-02	1.1727	1.983540	0.000292	2.919970	0.989313	0.023690
  30	1.4500e-02	1.1855	2.114393	0.000323	3.225671	1.092887	0.026171
  31	1.5000e-02	1.2256	2.223438	0.000269	2.688059	0.910739	0.021809
  32	1.5500e-02	1.2818	2.338469	0.000284	2.835639	0.960740	0.023006
  33	1.6000e-02	1.3331	2.453500	0.000284	2.835639	0.960740	0.023006
  34	1.6500e-02	1.3684	2.556558	0.000254	2.540479	0.860738	0.020612
  35	1.7000e-02	1.3973	2.682280	0.000310	3.099174	1.050028	0.025144
  36	1.7500e-02	1.4550	2.799021	0.000288	2.877804	0.975026	0.023348
  37	1.8000e-02	1.4951	2.912342	0.000279	2.793473	0.946454	0.022664
  38	1.8500e-02	1.5144	3.032077	0.000295	2.951594	1.000027	0.023947
  39	1.9000e-02	1.5625	3.149674	0.000290	2.898887	0.982170	0.023519
  40	1.9500e-02	1.5930	3.265133	0.000285	2.846180	0.964312	0.023092
  41	2.0000e-02	1.6572	3.380164	0.000284	2.835639	0.960740	0.023006
  42	2.0500e-02	1.6893	3.500327	0.000296	2.962135	1.003599	0.024033
  43	2.1000e-02	1.7021	3.614930	0.000283	2.825097	0.957169	0.022921
  44	2.1500e-02	1.7743	3.725685	0.000273	2.730224	0.925025	0.022151
  45	2.2000e-02	1.7807	3.846276	0.000297	2.972677	1.007170	0.024118
  46	2.2500e-02	1.8577	3.960879	0.000283	2.825097	0.957169	0.022921
  47	2.3000e-02	1.9155	4.058805	0.000241	2.413982	0.817879	0.019585
  48	2.3500e-02	1.8946	4.182389	-0.000305	-3.046467	-1.032171	0.024717
  49	2.4000e-02	1.9828	4.310249	0.000315	3.151881	1.067886	0.025572
  50	2.4500e-02	2.0326	4.407748	0.000240	2.403441	0.814308	0.019500
  51	2.5000e-02	2.0278	4.548009	-0.000346	-3.457582	-1.171460	0.028052
  52	2.5500e-02	2.0935	4.633961	0.000212	2.118823	0.717877	0.017191
  53	2.6000e-02	2.1160	4.765242	0.000324	3.236212	1.096458	0.026256
  54	2.6500e-02	2.1465	4.874714	0.000270	2.698600	0.914311	0.021894
  55	2.7000e-02	2.1914	4.993594	0.000293	2.930511	0.992884	0.023776
  56	2.7500e-02	2.2395	5.091520	0.000241	2.413982	0.817879	0.019585
  57	2.8000e-02	2.2844	5.219380	0.000315	3.151881	1.067886	0.025572
  58	2.8500e-02	2.3342	5.307899	0.000218	2.182071	0.739306	0.017704
  59	2.9000e-02	2.3534	5.417371	0.000270	2.698600	0.914311	0.021894
  60	2.9500e-02	2.4031	5.547369	0.000320	3.204588	1.085744	0.026000
  61	3.0000e-02	2.4304	5.664538	0.000289	2.888346	0.978598	0.023434
  62	3.0500e-02	2.4753	5.768024	0.000255	2.551021	0.864309	0.020697
  63	3.1000e-02	2.5154	5.895456	0.000314	3.141339	1.064315	0.025486
  64	3.1500e-02	2.5780	5.977988	0.000203	2.034492	0.689304	0.016506
  65	3.2000e-02	2.6181	6.107130	0.000318	3.183505	1.078601	0.025829
  66	3.2500e-02	2.6197	6.211899	0.000258	2.582645	0.875024	0.020954
  67	3.3000e-02	2.6919	6.311108	0.000245	2.445606	0.828594	0.019842
  68	3.3500e-02	2.7208	6.426994	0.000286	2.856721	0.967883	0.023177
  69	3.4000e-02	2.7609	6.546302	0.000294	2.941053	0.996456	0.023861
  70	3.4500e-02	2.7930	6.655774	0.000270	2.698600	0.914311	0.021894
  71	3.5000e-02	2.8636	6.760114	0.000257	2.572103	0.871452	0.020868
  72	3.5500e-02	2.8732	6.887119	0.000313	3.130798	1.060743	0.025401
  73	3.6000e-02	2.9293	6.968368	0.000200	2.002867	0.678590	0.016250
  74	3.6500e-02	2.9486	7.100931	0.000327	3.267836	1.107173	0.026513
  75	3.7000e-02	2.9983	7.215107	0.000281	2.814556	0.953597	0.022835
  76	3.7500e-02	3.0224	7.313889	0.000244	2.435065	0.825022	0.019756
  77	3.8000e-02	3.0833	7.424216	0.000272	2.719683	0.921454	0.022065
  78	3.8500e-02	3.1379	7.519149	0.000234	2.340192	0.792879	0.018987
  79	3.9000e-02	3.1603	7.625200	0.000261	2.614269	0.885738	0.021210
  80	3.9500e-02	3.1972	7.732106	0.000264	2.635352	0.892881	0.021381
  81	4.0000e-02	3.2422	7.864670	0.000327	3.267836	1.107173	0.026513
  82	4.0500e-02	3.2967	7.977563	0.000278	2.782932	0.942883	0.022579
  83	4.1000e-02	3.3127	8.075917	0.000242	2.424524	0.821451	0.019671
  84	4.1500e-02	3.3673	8.186672	0.000273	2.730224	0.925025	0.022151
  85	4.2000e-02	3.4074	8.278612	0.000227	2.266403	0.767878	0.018388
  86	4.2500e-02	3.4186	8.396208	0.000290	2.898887	0.982170	0.023519
  87	4.3000e-02	3.4619	8.515516	0.000294	2.941053	0.996456	0.023861
  88	4.3500e-02	3.5325	8.600613	0.000210	2.097740	0.710734	0.017019
  89	4.4000e-02	3.5566	8.706664	0.000261	2.614269	0.885738	0.021210
  90	4.4500e-02	3.6127	8.808439	0.000251	2.508855	0.850023	0.020355
  91	4.5000e-02	3.6320	8.929885	0.000299	2.993760	1.014313	0.024289
  92	4.5500e-02	3.6833	9.040212	0.000272	2.719683	0.921454	0.022065
  93	4.6000e-02	3.7298	9.148401	0.000267	2.666976	0.903596	0.021638
  94	4.6500e-02	3.7603	9.228795	0.000198	1.981785	0.671447	0.016079
  95	4.7000e-02	3.7908	9.351951	0.000304	3.035925	1.028599	0.024631
  96	4.7500e-02	3.8357	9.433627	0.000201	2.013409	0.682161	0.016335
  97	4.8000e-02	3.8582	9.558494	0.000308	3.078091	1.042885	0.024973
  98	4.8500e-02	3.9159	9.658986	0.000248	2.477231	0.839308	0.020098
  99	4.9000e-02	3.9464	9.759050	0.000247	2.466689	0.835737	0.020013
 100	4.9500e-02	4.0074	9.867667	0.000268	2.677517	0.907167	0.021723
 101	5.0000e-02	4.0250	9.978850	0.000274	2.740766	0.928597	0.022237
 102	5.0500e-02	4.0796	10.083190	0.000257	2.572103	0.871452	0.020868
 103	5.1000e-02	4.1293	10.168288	0.000210	2.097740	0.710734	0.017019
 104	5.1500e-02	4.1550	10.286312	0.000291	2.909428	0.985741	0.023605
 105	5.2000e-02	4.2047	10.393646	0.000265	2.645893	0.896453	0.021467
 106	5.2500e-02	4.2496	10.488151	0.000233	2.329651	0.789307	0.018901
 107	5.3000e-02	4.2833	10.600617	0.000277	2.772390	0.939311	0.022493
 108	5.3500e-02	4.3362	10.689135	0.000218	2.182071	0.739306	0.017704
 109	5.4000e-02	4.3683	10.804166	0.000284	2.835639	0.960740	0.023006
 110	5.4500e-02	4.4084	10.905941	0.000251	2.508855	0.850023	0.020355
 111	5.5000e-02	4.4662	11.009854	0.000256	2.561562	0.867881	0.020783
 112	5.5500e-02	4.4726	11.092813	0.000205	2.045033	0.692876	0.016592
 113	5.6000e-02	4.4983	11.227088	0.000331	3.310002	1.121459	0.026855
 114	5.6500e-02	4.5769	11.311330	0.000208	2.076657	0.703591	0.016848
 115	5.7000e-02	4.5769	11.422513	-0.000274	-2.740766	-0.928597	0.022237
 116	5.7500e-02	4.6459	11.537544	0.000284	2.835639	0.960740	0.023006
 117	5.8000e-02	4.6972	11.634615	0.000239	2.392899	0.810736	0.019414
 118	5.8500e-02	4.6876	11.753922	-0.000294	-2.941053	-0.996456	0.023861
 119	5.9000e-02	4.7678	11.841158	0.000215	2.150447	0.728591	0.017447
 120	5.9500e-02	4.7983	11.930104	0.000219	2.192613	0.742877	0.017789
 121	6.0000e-02	4.8496	12.026747	0.000238	2.382358	0.807165	0.019329
 122	6.0500e-02	4.8865	12.133226	0.000262	2.624810	0.889310	0.021296
 123	6.1000e-02	4.9314	12.242698	0.000270	2.698600	0.914311	0.021894
 124	6.1500e-02	4.9346	12.344473	0.000251	2.508855	0.850023	0.020355
 125	6.2000e-02	4.9860	12.430425	0.000212	2.118823	0.717877	0.017191
 126	6.2500e-02	5.0437	12.547595	0.000289	2.888346	0.978598	0.023434
 127	6.3000e-02	5.0694	12.635685	0.000217	2.171530	0.735734	0.017618
 128	6.3500e-02	5.1127	12.740881	0.000259	2.593186	0.878595	0.021039
 129	6.4000e-02	5.1656	12.836242	0.000235	2.350734	0.796450	0.019072
 130	6.4500e-02	5.1865	12.940582	0.000257	2.572103	0.871452	0.020868
 131	6.5000e-02	5.2362	13.047489	0.000264	2.635352	0.892881	0.021381
 132	6.5500e-02	5.2892	13.141566	0.000232	2.319110	0.785736	0.018816
 133	6.6000e-02	5.3293	13.235216	0.000231	2.308568	0.782164	0.018730
 134	6.6500e-02	5.3581	13.327155	0.000227	2.266403	0.767878	0.018388
 135	6.7000e-02	5.3774	13.442614	0.000285	2.846180	0.964312	0.023092
 136	6.7500e-02	5.4175	13.529850	0.000215	2.150447	0.728591	0.017447
 137	6.8000e-02	5.4640	13.637611	0.000266	2.656435	0.900024	0.021552
 138	6.8500e-02	5.5170	13.743663	0.000261	2.614269	0.885738	0.021210
 139	6.9000e-02	5.5346	13.841161	0.000240	2.403441	0.814308	0.019500
 140	6.9500e-02	5.5956	13.940370	0.000245	2.445606	0.828594	0.019842
 141	7.0000e-02	5.6469	14.031027	0.000223	2.234778	0.757163	0.018131
 142	7.0500e-02	5.6742	14.153755	0.000303	3.025384	1.025028	0.024546
 143	7.1000e-02	5.7287	14.233721	0.000197	1.971243	0.667875	0.015993
 144	7.1500e-02	5.7191	14.350035	-0.000287	-2.867263	-0.971455	0.023263
 145	7.2000e-02	5.8137	14.428718	0.000194	1.939619	0.657161	0.015737
 146	7.2500e-02	5.8378	14.528783	0.000247	2.466689	0.835737	0.020013
 147	7.3000e-02	5.8651	14.628847	0.000247	2.466689	0.835737	0.020013
 148	7.3500e-02	5.9341	14.713517	0.000209	2.087199	0.707162	0.016934
 149	7.4000e-02	5.9694	14.813153	0.000246	2.456148	0.832165	0.019927
 150	7.4500e-02	5.9790	14.926046	0.000278	2.782932	0.942883	0.022579
 151	7.5000e-02	6.0351	15.028249	0.000252	2.519396	0.853595	0.020440
 152	7.5500e-02	6.0849	15.112919	0.000209	2.087199	0.707162	0.016934
 153	7.6000e-02	6.0881	15.236930	0.000306	3.057008	1.035742	0.024802
 154	7.6500e-02	6.1715	15.304495	0.000167	1.665542	0.564301	0.013513
 155	7.7000e-02	6.1988	15.386171	0.000201	2.013409	0.682161	0.016335
 156	7.7500e-02	6.2421	15.493933	0.000266	2.656435	0.900024	0.021552
 157	7.8000e-02	6.2790	15.599984	0.000261	2.614269	0.885738	0.021210
 158	7.8500e-02	6.2950	15.703042	0.000254	2.540479	0.860738	0.020612
 159	7.9000e-02	6.3544	15.796691	0.000231	2.308568	0.782164	0.018730
 160	7.9500e-02	6.4089	15.881361	0.000209	2.087199	0.707162	0.016934
 161	8.0000e-02	6.4651	15.965176	0.000207	2.066116	0.700019	0.016763
 162	8.0500e-02	6.4683	16.083628	0.000292	2.919970	0.989313	0.023690
 163	8.1000e-02	6.4795	16.229021	0.000358	3.584078	1.214319	0.029079
 164	8.1500e-02	6.5725	16.258527	0.000073	0.727357	0.246435	0.005901
 165	8.2000e-02	6.6094	16.377407	0.000293	2.930511	0.992884	0.023776
 166	8.2500e-02	6.6287	16.459938	0.000203	2.034492	0.689304	0.016506
 167	8.3000e-02	6.6897	16.561285	0.000250	2.498314	0.846452	0.020269
 168	8.3500e-02	6.7233	16.644672	0.000206	2.055574	0.696447	0.016677
 169	8.4000e-02	6.7650	16.740888	0.000237	2.371817	0.803593	0.019243
 170	8.4500e-02	6.8340	16.825130	0.000208	2.076657	0.703591	0.016848
 171	8.5000e-02	6.8292	16.932892	-0.000266	-2.656435	-0.900024	0.021552
 172	8.5500e-02	6.8773	17.030390	0.000240	2.403441	0.814308	0.019500
 173	8.6000e-02	6.9191	17.124896	0.000233	2.329651	0.789307	0.018901
 174	8.6500e-02	6.9511	17.223677	0.000244	2.435065	0.825022	0.019756
 175	8.7000e-02	7.0169	17.304926	0.000200	2.002867	0.678590	0.016250
 176	8.7500e-02	7.0265	17.419957	0.000284	2.835639	0.960740	0.023006
 177	8.8000e-02	7.0715	17.508048	0.000217	2.171530	0.735734	0.017618
 178	8.8500e-02	7.1100	17.603836	0.000236	2.361275	0.800022	0.019158
 179	8.9000e-02	7.1645	17.686795	0.000205	2.045033	0.692876	0.016592
 180	8.9500e-02	7.2158	17.779162	0.000228	2.276944	0.771449	0.018473
 181	9.0000e-02	7.2399	17.877944	0.000244	2.435065	0.825022	0.019756
 182	9.0500e-02	7.2656	17.980146	0.000252	2.519396	0.853595	0.020440
 183	9.1000e-02	7.3201	18.079783	0.000246	2.456148	0.832165	0.019927
 184	9.1500e-02	7.3763	18.160604	0.000199	1.992326	0.675018	0.016164
 185	9.2000e-02	7.3891	18.269221	0.000268	2.677517	0.907167	0.021723
 186	9.2500e-02	7.4228	18.346621	0.000191	1.907995	0.646446	0.015480
 187	9.3000e-02	7.4870	18.444975	0.000242	2.424524	0.821451	0.019671
 188	9.3500e-02	7.5447	18.523230	0.000193	1.929078	0.653589	0.015651
 189	9.4000e-02	7.5704	18.631419	0.000267	2.666976	0.903596	0.021638
 190	9.4500e-02	7.6057	18.722931	0.000226	2.255861	0.764306	0.018302
 191	9.5000e-02	7.6442	18.806318	0.000206	2.055574	0.696447	0.016677
 192	9.5500e-02	7.6634	18.922632	0.000287	2.867263	0.971455	0.023263
 193	9.6000e-02	7.7148	19.009868	0.000215	2.150447	0.728591	0.017447
 194	9.6500e-02	7.7661	19.096248	0.000213	2.129364	0.721448	0.017276
 195	9.7000e-02	7.8062	19.185194	0.000219	2.192613	0.742877	0.017789
 196	9.7500e-02	7.8495	19.294666	0.000270	2.698600	0.914311	0.021894
 197	9.8000e-02	7.8768	19.386178	0.000226	2.255861	0.764306	0.018302
 198	9.8500e-02	7.9137	19.470420	0.000208	2.076657	0.703591	0.016848
 199	9.9000e-02	7.9458	19.557656	0.000215	2.150447	0.728591	0.017447
 200	9.9500e-02	7.9923	19.662852	0.000259	2.593186	0.878595	0.021039
 201	1.0000e-01	8.0725	19.726140	0.000156	1.560128	0.528586	0.012658
 202	1.0050e-01	8.0885	19.834329	0.000267	2.666976	0.903596	0.021638
 203	1.0100e-01	8.1094	19.917716	0.000206	2.055574	0.696447	0.016677
 204	1.0150e-01	8.1527	20.028471	0.000273	2.730224	0.925025	0.022151
 205	1.0200e-01	8.1992	20.110148	0.000201	2.013409	0.682161	0.016335
 206	1.0250e-01	8.2393	20.207219	0.000239	2.392899	0.810736	0.019414
 207	1.0300e-01	8.2794	20.302579	0.000235	2.350734	0.796450	0.019072
 208	1.0350e-01	8.3292	20.378269	0.000187	1.865829	0.632160	0.015138
 209	1.0400e-01	8.3821	20.461656	0.000206	2.055574	0.696447	0.016677
 210	1.0450e-01	8.4062	20.575404	0.000280	2.804014	0.950026	0.022750
 211	1.0500e-01	8.4399	20.664350	0.000219	2.192613	0.742877	0.017789
 212	1.0550e-01	8.4800	20.749447	0.000210	2.097740	0.710734	0.017019
 213	1.0600e-01	8.5377	20.837111	0.000216	2.160988	0.732163	0.017533
 214	1.0650e-01	8.5698	20.928195	0.000225	2.245320	0.760735	0.018217
 215	1.0700e-01	8.6195	21.015858	0.000216	2.160988	0.732163	0.017533
 216	1.0750e-01	8.6500	21.110363	0.000233	2.329651	0.789307	0.018901
 217	1.0800e-01	8.6693	21.216414	0.000261	2.614269	0.885738	0.021210
 218	1.0850e-01	8.7094	21.295525	0.000195	1.950160	0.660732	0.015822
 219	1.0900e-01	8.7463	21.400721	0.000259	2.593186	0.878595	0.021039
 220	1.0950e-01	8.8137	21.467858	0.000166	1.655001	0.560729	0.013427
 221	1.1000e-01	8.8489	21.561080	0.000230	2.298027	0.778593	0.018644
 222	1.1050e-01	8.8554	21.651309	0.000222	2.224237	0.753592	0.018046
 223	1.1100e-01	8.9083	21.762919	0.000275	2.751307	0.932168	0.022322
 224	1.1150e-01	8.9709	21.852293	0.000220	2.203154	0.746449	0.017875
 225	1.1200e-01	8.9869	21.945943	0.000231	2.308568	0.782164	0.018730
 226	1.1250e-01	9.0607	22.011797	0.000162	1.623377	0.550015	0.013171
 227	1.1300e-01	9.0687	22.108868	0.000239	2.392899	0.810736	0.019414
 228	1.1350e-01	9.1265	22.192255	0.000206	2.055574	0.696447	0.016677
 229	1.1400e-01	9.1602	22.288043	0.000236	2.361275	0.800022	0.019158
 230	1.1450e-01	9.2067	22.371430	0.000206	2.055574	0.696447	0.016677
 231	1.1500e-01	9.2340	22.477053	0.000260	2.603728	0.882167	0.021125
 232	1.1550e-01	9.2917	22.551460	0.000183	1.834205	0.621445	0.014881
 233	1.1600e-01	9.3479	22.625439	0.000182	1.823663	0.617874	0.014796
 234	1.1650e-01	9.3607	22.738333	0.000278	2.782932	0.942883	0.022579
 235	1.1700e-01	9.4104	22.816160	0.000192	1.918536	0.650018	0.015566
 236	1.1750e-01	9.4136	22.918363	0.000252	2.519396	0.853595	0.020440
 237	1.1800e-01	9.4746	23.008592	0.000222	2.224237	0.753592	0.018046
 238	1.1850e-01	9.5307	23.082999	0.000183	1.834205	0.621445	0.014881
 239	1.1900e-01	9.5709	23.170662	0.000216	2.160988	0.732163	0.017533
 240	1.1950e-01	9.5789	23.263456	0.000229	2.287485	0.775021	0.018559
 241	1.2000e-01	9.6318	23.370790	0.000265	2.645893	0.896453	0.021467
 242	1.2050e-01	9.6976	23.437927	0.000166	1.655001	0.560729	0.013427
 243	1.2100e-01	9.7265	23.529439	0.000226	2.255861	0.764306	0.018302
 244	1.2150e-01	9.7553	23.632497	0.000254	2.540479	0.860738	0.020612
 245	1.2200e-01	9.8083	23.702628	0.000173	1.728791	0.585730	0.014026
 246	1.2250e-01	9.8211	23.788153	0.000211	2.108281	0.714305	0.017105
 247	1.2300e-01	9.8805	23.880947	0.000229	2.287485	0.775021	0.018559
 248	1.2350e-01	9.9190	23.965189	0.000208	2.076657	0.703591	0.016848
 249	1.2400e-01	9.9495	24.063116	0.000241	2.413982	0.817879	0.019585
 250	1.2450e-01	10.0056	24.146503	0.000206	2.055574	0.696447	0.016677
 251	1.2500e-01	10.0281	24.236732	0.000222	2.224237	0.753592	0.018046
 252	1.2550e-01	10.0794	24.323539	0.000214	2.139906	0.725020	0.017362
 253	1.2600e-01	10.1115	24.409492	0.000212	2.118823	0.717877	0.017191
 254	1.2650e-01	10.1420	24.513405	0.000256	2.561562	0.867881	0.020783
 255	1.2700e-01	10.2109	24.576694	0.000156	1.560128	0.528586	0.012658
 256	1.2750e-01	10.2414	24.678896	0.000252	2.519396	0.853595	0.020440
 257	1.2800e-01	10.2799	24.754586	0.000187	1.865829	0.632160	0.015138
 258	1.2850e-01	10.3168	24.852512	0.000241	2.413982	0.817879	0.019585
 259	1.2900e-01	10.3633	24.924781	0.000178	1.781498	0.603588	0.014454
 260	1.2950e-01	10.4131	25.011161	0.000213	2.129364	0.721448	0.017276
 261	1.3000e-01	10.4468	25.103100	0.000227	2.266403	0.767878	0.018388
 262	1.3050e-01	10.4772	25.191191	0.000217	2.171530	0.735734	0.017618
 263	1.3100e-01	10.5141	25.264743	0.000181	1.813122	0.614302	0.014710
 264	1.3150e-01	10.5607	25.376780	0.000276	2.761849	0.935740	0.022408
 265	1.3200e-01	10.5927	25.452898	0.000188	1.876370	0.635732	0.015223
 266	1.3250e-01	10.6296	25.537140	0.000208	2.076657	0.703591	0.016848
 267	1.3300e-01	10.6714	25.626514	0.000220	2.203154	0.746449	0.017875
 268	1.3350e-01	10.7243	25.697072	0.000174	1.739332	0.589302	0.014112
 269	1.3400e-01	10.7564	25.794143	0.000239	2.392899	0.810736	0.019414
 270	1.3450e-01	10.7981	25.876674	0.000203	2.034492	0.689304	0.016506
 271	1.3500e-01	10.8719	25.951081	0.000183	1.834205	0.621445	0.014881
 272	1.3550e-01	10.8799	26.064402	0.000279	2.793473	0.946454	0.022664
 273	1.3600e-01	10.9312	26.143085	0.000194	1.939619	0.657161	0.015737
 274	1.3650e-01	10.9697	26.215781	0.000179	1.792039	0.607159	0.014539
 275	1.3700e-01	11.0082	26.301734	0.000212	2.118823	0.717877	0.017191
 276	1.3750e-01	11.0580	26.390680	0.000219	2.192613	0.742877	0.017789
 277	1.3800e-01	11.0949	26.468508	0.000192	1.918536	0.650018	0.015566
 278	1.3850e-01	11.1125	26.571566	0.000254	2.540479	0.860738	0.020612
 279	1.3900e-01	11.1542	26.646400	0.000184	1.844746	0.625017	0.014967
 280	1.3950e-01	11.2088	26.734063	0.000216	2.160988	0.732163	0.017533
 281	1.4000e-01	11.2425	26.825147	0.000225	2.245320	0.760735	0.018217
 282	1.4050e-01	11.2906	26.896988	0.000177	1.770956	0.600016	0.014368
 283	1.4100e-01	11.3227	26.992776	0.000236	2.361275	0.800022	0.019158
 284	1.4150e-01	11.3644	27.085999	0.000230	2.298027	0.778593	0.018644
 285	1.4200e-01	11.4189	27.154846	0.000170	1.697167	0.575016	0.013770
 286	1.4250e-01	11.4655	27.227543	0.000179	1.792039	0.607159	0.014539
 287	1.4300e-01	11.4751	27.319054	0.000226	2.255861	0.764306	0.018302
 288	1.4350e-01	11.5312	27.401159	0.000202	2.023950	0.685733	0.016421
 289	1.4400e-01	11.5665	27.500368	0.000245	2.445606	0.828594	0.019842
 290	1.4450e-01	11.5986	27.582044	0.000201	2.013409	0.682161	0.016335
 291	1.4500e-01	11.6307	27.665003	0.000205	2.045033	0.692876	0.016592
 292	1.4550e-01	11.6916	27.737700	0.000179	1.792039	0.607159	0.014539
 293	1.4600e-01	11.7125	27.831777	0.000232	2.319110	0.785736	0.018816
 294	1.4650e-01	11.7991	27.892072	0.000149	1.486338	0.503585	0.012059
 295	1.4700e-01	11.8088	27.993847	0.000251	2.508855	0.850023	0.020355
 296	1.4750e-01	11.8424	28.077234	0.000206	2.055574	0.696447	0.016677
 297	1.4800e-01	11.8826	28.166180	0.000219	2.192613	0.742877	0.017789
 298	1.4850e-01	11.9114	28.237166	0.000175	1.749874	0.592873	0.014197
 299	1.4900e-01	11.9563	28.339368	0.000252	2.519396	0.853595	0.020440
 300	1.4950e-01	11.9997	28.417196	0.000192	1.918536	0.650018	0.015566
 301	1.5000e-01	12.0317	28.504004	0.000214	2.139906	0.725020	0.017362
 302	1.5050e-01	12.0767	28.569858	0.000162	1.623377	0.550015	0.013171
 303	1.5100e-01	12.1087	28.668212	0.000242	2.424524	0.821451	0.019671
 304	1.5150e-01	12.1585	28.752454	0.000208	2.076657	0.703591	0.016848
 305	1.5200e-01	12.1858	28.828999	0.000189	1.886912	0.639303	0.015309
 306	1.5250e-01	12.2098	28.903834	0.000184	1.844746	0.625017	0.014967
 307	1.5300e-01	12.2708	28.999622	0.000236	2.361275	0.800022	0.019158
 308	1.5350e-01	12.3301	29.061200	0.000152	1.517963	0.514300	0.012316
 309	1.5400e-01	12.3317	29.168106	0.000264	2.635352	0.892881	0.021381
 310	1.5450e-01	12.4087	29.236954	0.000170	1.697167	0.575016	0.013770
 311	1.5500e-01	12.4376	29.332742	0.000236	2.361275	0.800022	0.019158
 312	1.5550e-01	12.5307	29.392609	0.000148	1.475797	0.500014	0.011974
 313	1.5600e-01	12.5018	29.494812	-0.000252	-2.519396	-0.853595	0.020440
 314	1.5650e-01	12.5868	29.561521	0.000164	1.644460	0.557158	0.013342
 315	1.5700e-01	12.6173	29.659875	0.000242	2.424524	0.821451	0.019671
 316	1.5750e-01	12.6414	29.736420	0.000189	1.886912	0.639303	0.015309
 317	1.5800e-01	12.6750	29.829642	0.000230	2.298027	0.778593	0.018644
 318	1.5850e-01	12.7376	29.887800	0.000143	1.433631	0.485727	0.011631
 319	1.5900e-01	12.7665	29.981022	0.000230	2.298027	0.778593	0.018644
 320	1.5950e-01	12.8098	30.056284	0.000186	1.855288	0.628588	0.015052
 321	1.6000e-01	12.8403	30.138388	0.000202	2.023950	0.685733	0.016421
 322	1.6050e-01	12.9205	30.188420	0.000123	1.233345	0.417868	0.010006
 323	1.6100e-01	12.9237	30.309866	0.000299	2.993760	1.014313	0.024289
 324	1.6150e-01	12.9237	30.431739	-0.000300	-3.004301	-1.017885	0.024375
 325	1.6200e-01	12.9911	30.462100	0.000075	0.748440	0.253578	0.006072
 326	1.6250e-01	13.0472	30.543349	0.000200	2.002867	0.678590	0.016250
 327	1.6300e-01	13.0905	30.624598	0.000200	2.002867	0.678590	0.016250
 328	1.6350e-01	13.1114	30.706274	0.000201	2.013409	0.682161	0.016335
 329	1.6400e-01	13.1708	30.782392	0.000188	1.876370	0.635732	0.015223
 330	1.6450e-01	13.2093	30.863640	0.000200	2.002867	0.678590	0.016250
 331	1.6500e-01	13.2510	30.947883	0.000208	2.076657	0.703591	0.016848
 332	1.6550e-01	13.2975	31.014592	0.000164	1.644460	0.557158	0.013342
 333	1.6600e-01	13.3248	31.108242	0.000231	2.308568	0.782164	0.018730
 334	1.6650e-01	13.3568	31.194195	0.000212	2.118823	0.717877	0.017191
 335	1.6700e-01	13.4098	31.264325	0.000173	1.728791	0.585730	0.014026
 336	1.6750e-01	13.4338	31.348140	0.000207	2.066116	0.700019	0.016763
 337	1.6800e-01	13.4627	31.424257	0.000188	1.876370	0.635732	0.015223
 338	1.6850e-01	13.5060	31.497381	0.000180	1.802581	0.610731	0.014625
 339	1.6900e-01	13.5558	31.603004	0.000260	2.603728	0.882167	0.021125
 340	1.6950e-01	13.5830	31.674846	0.000177	1.770956	0.600016	0.014368
 341	1.7000e-01	13.6568	31.742410	0.000167	1.665542	0.564301	0.013513
 342	1.7050e-01	13.6873	31.825797	0.000206	2.055574	0.696447	0.016677
 343	1.7100e-01	13.7226	31.907474	0.000201	2.013409	0.682161	0.016335
 344	1.7150e-01	13.7515	31.984019	0.000189	1.886912	0.639303	0.015309
 345	1.7200e-01	13.7836	32.061419	0.000191	1.907995	0.646446	0.015480
 346	1.7250e-01	13.8092	32.151220	0.000221	2.213696	0.750020	0.017960
 347	1.7300e-01	13.8750	32.241021	0.000221	2.213696	0.750020	0.017960
 348	1.7350e-01	13.9263	32.303882	0.000155	1.549587	0.525014	0.012572
 349	1.7400e-01	13.9616	32.386414	0.000203	2.034492	0.689304	0.016506
 350	1.7450e-01	14.0130	32.462959	0.000189	1.886912	0.639303	0.015309
 351	1.7500e-01	14.0804	32.520261	0.000141	1.412549	0.478584	0.011460
 352	1.7550e-01	14.0884	32.613911	0.000231	2.308568	0.782164	0.018730
 353	1.7600e-01	14.1060	32.697725	0.000207	2.066116	0.700019	0.016763
 354	1.7650e-01	14.1670	32.778119	0.000198	1.981785	0.671447	0.016079
 355	1.7700e-01	14.1910	32.852526	0.000183	1.834205	0.621445	0.014881
 356	1.7750e-01	14.2680	32.925222	0.000179	1.792039	0.607159	0.014539
 357	1.7800e-01	14.3130	32.988510	0.000156	1.560128	0.528586	0.012658
 358	1.7850e-01	14.3402	33.075318	0.000214	2.139906	0.725020	0.017362
 359	1.7900e-01	14.3531	33.169396	0.000232	2.319110	0.785736	0.018816
 360	1.7950e-01	14.3803	33.251072	0.000201	2.013409	0.682161	0.016335
 361	1.8000e-01	14.4317	33.328900	0.000192	1.918536	0.650018	0.015566
 362	1.8050e-01	14.4638	33.399031	0.000173	1.728791	0.585730	0.014026
 363	1.8100e-01	14.5119	33.480707	0.000201	2.013409	0.682161	0.016335
 364	1.8150e-01	14.5777	33.544423	0.000157	1.570670	0.532157	0.012743
 365	1.8200e-01	14.5969	33.648764	0.000257	2.572103	0.871452	0.020868
 366	1.8250e-01	14.6515	33.707348	0.000144	1.444173	0.489299	0.011717
 367	1.8300e-01	14.6787	33.784749	0.000191	1.907995	0.646446	0.015480
 368	1.8350e-01	14.7285	33.865570	0.000199	1.992326	0.675018	0.016164
 369	1.8400e-01	14.7734	33.939549	0.000182	1.823663	0.617874	0.014796
 370	1.8450e-01	14.8103	34.004548	0.000160	1.602294	0.542872	0.013000
 371	1.8500e-01	14.8295	34.102047	0.000240	2.403441	0.814308	0.019500
 372	1.8550e-01	14.8953	34.178592	0.000189	1.886912	0.639303	0.015309
 373	1.8600e-01	14.9418	34.245301	0.000164	1.644460	0.557158	0.013342
 374	1.8650e-01	14.9531	34.330826	0.000211	2.108281	0.714305	0.017105
 375	1.8700e-01	14.9932	34.406943	0.000188	1.876370	0.635732	0.015223
 376	1.8750e-01	15.0413	34.491186	0.000208	2.076657	0.703591	0.016848
 377	1.8800e-01	15.0782	34.574145	0.000205	2.045033	0.692876	0.016592
 378	1.8850e-01	15.1167	34.637006	0.000155	1.549587	0.525014	0.012572
 379	1.8900e-01	15.1760	34.715689	0.000194	1.939619	0.657161	0.015737
 380	1.8950e-01	15.1937	34.785392	0.000172	1.718249	0.582159	0.013941
 381	1.9000e-01	15.2274	34.886739	0.000250	2.498314	0.846452	0.020269
 382	1.9050e-01	15.2980	34.937626	0.000125	1.254427	0.425012	0.010177
 383	1.9100e-01	15.3381	35.009467	0.000177	1.770956	0.600016	0.014368
 384	1.9150e-01	15.3637	35.087295	0.000192	1.918536	0.650018	0.015566
 385	1.9200e-01	15.4343	35.162557	0.000186	1.855288	0.628588	0.015052
 386	1.9250e-01	15.4488	35.236109	0.000181	1.813122	0.614302	0.014710
 387	1.9300e-01	15.4921	35.325910	0.000221	2.213696	0.750020	0.017960
 388	1.9350e-01	15.5306	35.405021	0.000195	1.950160	0.660732	0.015822
 389	1.9400e-01	15.5659	35.479000	0.000182	1.823663	0.617874	0.014796
 390	1.9450e-01	15.6156	35.552124	0.000180	1.802581	0.610731	0.014625
 391	1.9500e-01	15.6397	35.636366	0.000208	2.076657	0.703591	0.016848
 392	1.9550e-01	15.6766	35.713339	0.000190	1.897453	0.642875	0.015395
 393	1.9600e-01	15.7327	35.777055	0.000157	1.570670	0.532157	0.012743
 394	1.9650e-01	15.7552	35.860869	0.000207	2.066116	0.700019	0.016763
 395	1.9700e-01	15.8017	35.924586	0.000157	1.570670	0.532157	0.012743
 396	1.9750e-01	15.8306	36.022084	0.000240	2.403441	0.814308	0.019500
 397	1.9800e-01	15.8707	36.094780	0.000179	1.792039	0.607159	0.014539
 398	1.9850e-01	15.9252	36.155931	0.000151	1.507421	0.510728	0.012230
 399	1.9900e-01	15.9653	36.235897	0.000197	1.971243	0.667875	0.015993
 400	1.9950e-01	16.0199	36.293626	0.000142	1.423090	0.482156	0.011546
 401	2.0000e-01	16.0295	36.383855	0.000222	2.224237	0.753592	0.018046
 402	2.0050e-01	16.0792	36.453558	0.000172	1.718249	0.582159	0.013941
 403	2.0100e-01	16.1338	36.532669	0.000195	1.950160	0.660732	0.015822
 404	2.0150e-01	16.1867	36.599378	0.000164	1.644460	0.557158	0.013342
 405	2.0200e-01	16.1787	36.707995	-0.000268	-2.677517	-0.907167	0.021723
 406	2.0250e-01	16.2220	36.779836	0.000177	1.770956	0.600016	0.014368
 407	2.0300e-01	16.2782	36.840559	0.000150	1.496880	0.507157	0.012145
 408	2.0350e-01	16.3407	36.908979	0.000169	1.686625	0.571444	0.013684
 409	2.0400e-01	16.3808	36.975688	0.000164	1.644460	0.557158	0.013342
 410	2.0450e-01	16.3776	37.060786	-0.000210	-2.097740	-0.710734	0.017019
 411	2.0500e-01	16.4370	37.136048	0.000186	1.855288	0.628588	0.015052
 412	2.0550e-01	16.4819	37.194633	0.000144	1.444173	0.489299	0.011717
 413	2.0600e-01	16.5092	37.287427	0.000229	2.287485	0.775021	0.018559
 414	2.0650e-01	16.5477	37.357985	0.000174	1.739332	0.589302	0.014112
 415	2.0700e-01	16.6150	37.416142	0.000143	1.433631	0.485727	0.011631
 416	2.0750e-01	16.6551	37.485845	0.000172	1.718249	0.582159	0.013941
 417	2.0800e-01	16.6664	37.590186	0.000257	2.572103	0.871452	0.020868
 418	2.0850e-01	16.7049	37.645350	0.000136	1.359842	0.460727	0.011033
 419	2.0900e-01	16.7546	37.742421	0.000239	2.392899	0.810736	0.019414
 420	2.0950e-01	16.7963	37.806564	0.000158	1.581211	0.535729	0.012829
 421	2.1000e-01	16.8621	37.875412	0.000170	1.697167	0.575016	0.013770
 422	2.1050e-01	16.8894	37.947253	0.000177	1.770956	0.600016	0.014368
 423	2.1100e-01	16.9118	38.028502	0.000200	2.002867	0.678590	0.016250
 424	2.1150e-01	16.9712	38.086659	0.000143	1.433631	0.485727	0.011631
 425	2.1200e-01	16.9985	38.168335	0.000201	2.013409	0.682161	0.016335
 426	2.1250e-01	17.0402	38.241887	0.000181	1.813122	0.614302	0.014710
 427	2.1300e-01	17.0690	38.324846	0.000205	2.045033	0.692876	0.016592
 428	2.1350e-01	17.1236	38.380437	0.000137	1.370383	0.464298	0.011118
 429	2.1400e-01	17.1380	38.462114	0.000201	2.013409	0.682161	0.016335
 430	2.1450e-01	17.1861	38.543363	0.000200	2.002867	0.678590	0.016250
 431	2.1500e-01	17.2198	38.617769	0.000183	1.834205	0.621445	0.014881
 432	2.1550e-01	17.2631	38.680203	0.000154	1.539045	0.521443	0.012487
 433	2.1600e-01	17.3193	38.755465	0.000186	1.855288	0.628588	0.015052
 434	2.1650e-01	17.3674	38.831582	0.000188	1.876370	0.635732	0.015223
 435	2.1700e-01	17.4156	38.891022	0.000147	1.465256	0.496442	0.011888
 436	2.1750e-01	17.4284	38.983817	0.000229	2.287485	0.775021	0.018559
 437	2.1800e-01	17.4781	39.048388	0.000159	1.591752	0.539300	0.012914
 438	2.1850e-01	17.5311	39.113815	0.000161	1.612835	0.546443	0.013085
 439	2.1900e-01	17.5567	39.196774	0.000205	2.045033	0.692876	0.016592
 440	2.1950e-01	17.5936	39.270326	0.000181	1.813122	0.614302	0.014710
 441	2.2000e-01	17.6305	39.339173	0.000170	1.697167	0.575016	0.013770
 442	2.2050e-01	17.6738	39.406738	0.000167	1.665542	0.564301	0.013513
 443	2.2100e-01	17.7188	39.473448	0.000164	1.644460	0.557158	0.013342
 444	2.2150e-01	17.7524	39.558117	0.000209	2.087199	0.707162	0.016934
 445	2.2200e-01	17.8166	39.627393	0.000171	1.707708	0.578587	0.013855
 446	2.2250e-01	17.8439	39.702655	0.000186	1.855288	0.628588	0.015052
 447	2.2300e-01	17.8615	39.779200	0.000189	1.886912	0.639303	0.015309
 448	2.2350e-01	17.9097	39.851041	0.000177	1.770956	0.600016	0.014368
 449	2.2400e-01	17.9610	39.919888	0.000170	1.697167	0.575016	0.013770
 450	2.2450e-01	18.0043	39.990019	0.000173	1.728791	0.585730	0.014026
 451	2.2500e-01	18.0492	40.050314	0.000149	1.486338	0.503585	0.012059
 452	2.2550e-01	18.0685	40.136694	0.000213	2.129364	0.721448	0.017276
 453	2.2600e-01	18.0941	40.208108	0.000176	1.760415	0.596445	0.014283
 454	2.2650e-01	18.1792	40.260706	0.000130	1.296593	0.439298	0.010520
 455	2.2700e-01	18.1968	40.349224	0.000218	2.182071	0.739306	0.017704
 456	2.2750e-01	18.2594	40.413796	0.000159	1.591752	0.539300	0.012914
 457	2.2800e-01	18.2658	40.485637	0.000177	1.770956	0.600016	0.014368
 458	2.2850e-01	18.3187	40.560899	0.000186	1.855288	0.628588	0.015052
 459	2.2900e-01	18.3620	40.622049	0.000151	1.507421	0.510728	0.012230
 460	2.2950e-01	18.4006	40.700732	0.000194	1.939619	0.657161	0.015737
 461	2.3000e-01	18.4583	40.779415	0.000194	1.939619	0.657161	0.015737
 462	2.3050e-01	18.4856	40.833296	0.000133	1.328217	0.450012	0.010776
 463	2.3100e-01	18.5128	40.912834	0.000196	1.960702	0.664304	0.015908
 464	2.3150e-01	18.5722	40.975695	0.000155	1.549587	0.525014	0.012572
 465	2.3200e-01	18.5979	41.065069	0.000220	2.203154	0.746449	0.017875
 466	2.3250e-01	18.6572	41.119805	0.000135	1.349300	0.457155	0.010947
 467	2.3300e-01	18.6861	41.196350	0.000189	1.886912	0.639303	0.015309
 468	2.3350e-01	18.7150	41.275461	0.000195	1.950160	0.660732	0.015822
 469	2.3400e-01	18.7551	41.335328	0.000148	1.475797	0.500014	0.011974
 470	2.3450e-01	18.7936	41.415294	0.000197	1.971243	0.667875	0.015993
 471	2.3500e-01	18.8449	41.472596	0.000141	1.412549	0.478584	0.011460
 472	2.3550e-01	18.8850	41.549568	0.000190	1.897453	0.642875	0.015395
 473	2.3600e-01	18.9348	41.611146	0.000152	1.517963	0.514300	0.012316
 474	2.3650e-01	18.9588	41.694533	0.000206	2.055574	0.696447	0.016677
 475	2.3700e-01	18.9829	41.762526	0.000168	1.676084	0.567873	0.013598
 476	2.3750e-01	19.0326	41.840781	0.000193	1.929078	0.653589	0.015651
 477	2.3800e-01	19.0872	41.902787	0.000153	1.528504	0.517871	0.012401
 478	2.3850e-01	19.1369	41.966931	0.000158	1.581211	0.535729	0.012829
 479	2.3900e-01	19.1722	42.036634	0.000172	1.718249	0.582159	0.013941
 480	2.3950e-01	19.1946	42.113606	0.000190	1.897453	0.642875	0.015395
 481	2.4000e-01	19.2684	42.175612	0.000153	1.528504	0.517871	0.012401
 482	2.4050e-01	19.2668	42.254722	-0.000195	-1.950160	-0.660732	0.015822
 483	2.4100e-01	19.3198	42.323998	0.000171	1.707708	0.578587	0.013855
 484	2.4150e-01	19.3775	42.389424	0.000161	1.612835	0.546443	0.013085
 485	2.4200e-01	19.4048	42.456562	0.000166	1.655001	0.560729	0.013427
 486	2.4250e-01	19.4064	42.572448	0.000286	2.856721	0.967883	0.023177
 487	2.4300e-01	19.4818	42.597250	0.000061	0.611402	0.207148	0.004960
 488	2.4350e-01	19.5363	42.661822	0.000159	1.591752	0.539300	0.012914
 489	2.4400e-01	19.5700	42.725966	0.000158	1.581211	0.535729	0.012829
 490	2.4450e-01	19.5716	42.799945	0.000182	1.823663	0.617874	0.014796
 491	2.4500e-01	19.6230	42.888463	0.000218	2.182071	0.739306	0.017704
 492	2.4550e-01	19.6936	42.948331	0.000148	1.475797	0.500014	0.011974
 493	2.4600e-01	19.7000	43.014185	0.000162	1.623377	0.550015	0.013171
 494	2.4650e-01	19.7641	43.086881	0.000179	1.792039	0.607159	0.014539
 495	2.4700e-01	19.7946	43.157439	0.000174	1.739332	0.589302	0.014112
 496	2.4750e-01	19.8492	43.215169	0.000142	1.423090	0.482156	0.011546
 497	2.4800e-01	19.8829	43.287010	0.000177	1.770956	0.600016	0.014368
 498	2.4850e-01	19.9310	43.350726	0.000157	1.570670	0.532157	0.012743
 499	2.4900e-01	19.9615	43.440527	0.000221	2.213696	0.750020	0.017960
 500	2.4950e-01	19.9903	43.519210	0.000194	1.939619	0.657161	0.015737
 501	2.5000e-01	20.0449	43.561118	0.000103	1.033058	0.350009	0.008381
 502	2.5050e-01	19.9839	43.568387	-0.000018	-0.179204	-0.060716	0.001454
 503	2.5100e-01	19.9422	43.520921	0.000117	1.170096	0.396439	-0.009493
 504	2.5150e-01	19.8909	43.478586	0.000104	1.043599	0.353581	-0.008467
 505	2.5200e-01	19.8476	43.423422	0.000136	1.359842	0.460727	-0.011033
 506	2.5250e-01	19.8283	43.346877	0.000189	1.886912	0.639303	-0.015309
 507	2.5300e-01	19.7802	43.291286	0.000137	1.370383	0.464298	-0.011118
 508	2.5350e-01	19.7449	43.230136	0.000151	1.507421	0.510728	-0.012230
 509	2.5400e-01	19.7000	43.162999	0.000166	1.655001	0.560729	-0.013427
 510	2.5450e-01	19.6775	43.102276	0.000150	1.496880	0.507157	-0.012145
 511	2.5500e-01	19.6037	43.054382	0.000118	1.180638	0.400011	-0.009579
 512	2.5550e-01	19.5652	42.993231	0.000151	1.507421	0.510728	-0.012230
 513	2.5600e-01	19.5187	42.932081	0.000151	1.507421	0.510728	-0.012230
 514	2.5650e-01	19.4962	42.860240	0.000177	1.770956	0.600016	-0.014368
 515	2.5700e-01	19.4433	42.794386	0.000162	1.623377	0.550015	-0.013171
 516	2.5750e-01	19.4032	42.734946	0.000147	1.465256	0.496442	-0.011888
 517	2.5800e-01	19.4241	42.647710	-0.000215	-2.150447	-0.728591	-0.017447
 518	2.5850e-01	19.3454	42.610507	0.000092	0.917102	0.310723	-0.007441
 519	2.5900e-01	19.2861	42.563468	0.000116	1.159555	0.392868	-0.009408
 520	2.5950e-01	19.2508	42.497186	0.000163	1.633918	0.553586	-0.013256
 521	2.6000e-01	19.2139	42.425345	0.000177	1.770956	0.600016	-0.014368
 522	2.6050e-01	19.1834	42.359491	0.000162	1.623377	0.550015	-0.013171
 523	2.6100e-01	19.1225	42.298340	0.000151	1.507421	0.510728	-0.012230
 524	2.6150e-01	19.1048	42.232914	0.000161	1.612835	0.546443	-0.013085
 525	2.6200e-01	19.0438	42.169197	0.000157	1.570670	0.532157	-0.012743
 526	2.6250e-01	19.0230	42.100777	0.000169	1.686625	0.571444	-0.013684
 527	2.6300e-01	18.9909	42.037489	0.000156	1.560128	0.528586	-0.012658
 528	2.6350e-01	18.9348	41.969924	0.000167	1.665542	0.564301	-0.013513
 529	2.6400e-01	18.9171	41.907491	0.000154	1.539045	0.521443	-0.012487
 530	2.6450e-01	18.8578	41.850189	0.000141	1.412549	0.478584	-0.011460
 531	2.6500e-01	18.8209	41.770223	0.000197	1.971243	0.667875	-0.015993
 532	2.6550e-01	18.7647	41.718053	0.000129	1.286052	0.435726	-0.010434
 533	2.6600e-01	18.7503	41.657330	0.000150	1.496880	0.507157	-0.012145
 534	2.6650e-01	18.6797	41.573943	0.000206	2.055574	0.696447	-0.016677
 535	2.6700e-01	18.6572	41.518779	0.000136	1.359842	0.460727	-0.011033
 536	2.6750e-01	18.6187	41.452070	0.000164	1.644460	0.557158	-0.013342
 537	2.6800e-01	18.5818	41.393913	0.000143	1.433631	0.485727	-0.011631
 538	2.6850e-01	18.5321	41.326776	0.000166	1.655001	0.560729	-0.013427
 539	2.6900e-01	18.5289	41.254507	0.000178	1.781498	0.603588	-0.014454
 540	2.6950e-01	18.4663	41.184376	0.000173	1.728791	0.585730	-0.014026
 541	2.7000e-01	18.4310	41.132634	0.000128	1.275510	0.432155	-0.010349
 542	2.7050e-01	18.3925	41.056944	0.000187	1.865829	0.632160	-0.015138
 543	2.7100e-01	18.3364	40.993656	0.000156	1.560128	0.528586	-0.012658
 544	2.7150e-01	18.3075	40.920532	0.000180	1.802581	0.610731	-0.014625
 545	2.7200e-01	18.2674	40.855533	0.000160	1.602294	0.542872	-0.013000
 546	2.7250e-01	18.2273	40.787113	0.000169	1.686625	0.571444	-0.013684
 547	2.7300e-01	18.1856	40.707574	0.000196	1.960702	0.664304	-0.015908
 548	2.7350e-01	18.1375	40.663956	0.000108	1.075224	0.364296	-0.008724
 549	2.7400e-01	18.0717	40.604944	0.000145	1.454714	0.492871	-0.011802
 550	2.7450e-01	18.0749	40.518136	-0.000214	-2.139906	-0.725020	-0.017362
 551	2.7500e-01	18.0444	40.459124	0.000145	1.454714	0.492871	-0.011802
 552	2.7550e-01	17.9931	40.393270	0.000162	1.623377	0.550015	-0.013171
 553	2.7600e-01	17.9209	40.335540	0.000142	1.423090	0.482156	-0.011546
 554	2.7650e-01	17.9129	40.263699	0.000177	1.770956	0.600016	-0.014368
 555	2.7700e-01	17.8407	40.206397	0.000141	1.412549	0.478584	-0.011460
 556	2.7750e-01	17.8359	40.125149	0.000200	2.002867	0.678590	-0.016250
 557	2.7800e-01	17.7877	40.056301	0.000170	1.697167	0.575016	-0.013770
 558	2.7850e-01	17.7396	39.995151	0.000151	1.507421	0.510728	-0.012230
 559	2.7900e-01	17.7220	39.919888	0.000186	1.855288	0.628588	-0.015052
 560	2.7950e-01	17.6626	39.855745	0.000158	1.581211	0.535729	-0.012829
 561	2.8000e-01	17.6081	39.792456	0.000156	1.560128	0.528586	-0.012658
 562	2.8050e-01	17.6032	39.719332	0.000180	1.802581	0.610731	-0.014625
 563	2.8100e-01	17.5696	39.638939	0.000198	1.981785	0.671447	-0.016079
 564	2.8150e-01	17.5022	39.592327	0.000115	1.149013	0.389296	-0.009322
 565	2.8200e-01	17.4669	39.526046	0.000163	1.633918	0.553586	-0.013256
 566	2.8250e-01	17.4284	39.452494	0.000181	1.813122	0.614302	-0.014710
 567	2.8300e-01	17.3835	39.387495	0.000160	1.602294	0.542872	-0.013000
 568	2.8350e-01	17.3337	39.328910	0.000144	1.444173	0.489299	-0.011717
 569	2.8400e-01	17.3000	39.261346	0.000167	1.665542	0.564301	-0.013513
 570	2.8450e-01	17.2712	39.193353	0.000168	1.676084	0.567873	-0.013598
 571	2.8500e-01	17.2359	39.113815	0.000196	1.960702	0.664304	-0.015908
 572	2.8550e-01	17.1701	39.046678	0.000166	1.655001	0.560729	-0.013427
 573	2.8600e-01	17.1509	38.971416	0.000186	1.855288	0.628588	-0.015052
 574	2.8650e-01	17.0915	38.903423	0.000168	1.676084	0.567873	-0.013598
 575	2.8700e-01	17.0546	38.850398	0.000131	1.307134	0.442869	-0.010605
 576	2.8750e-01	17.0081	38.780695	0.000172	1.718249	0.582159	-0.013941
 577	2.8800e-01	16.9648	38.714413	0.000163	1.633918	0.553586	-0.013256
 578	2.8850e-01	16.9359	38.628888	0.000211	2.108281	0.714305	-0.017105
 579	2.8900e-01	16.9006	38.562606	0.000163	1.633918	0.553586	-0.013256
 580	2.8950e-01	16.8669	38.495469	0.000166	1.655001	0.560729	-0.013427
 581	2.9000e-01	16.7851	38.436884	0.000144	1.444173	0.489299	-0.011717
 582	2.9050e-01	16.7787	38.359056	0.000192	1.918536	0.650018	-0.015566
 583	2.9100e-01	16.7514	38.280801	0.000193	1.929078	0.653589	-0.015651
 584	2.9150e-01	16.7097	38.223927	0.000140	1.402007	0.475013	-0.011375
 585	2.9200e-01	16.6600	38.149520	0.000183	1.834205	0.621445	-0.014881
 586	2.9250e-01	16.6263	38.071264	0.000193	1.929078	0.653589	-0.015651
 587	2.9300e-01	16.5974	37.993009	0.000193	1.929078	0.653589	-0.015651
 588	2.9350e-01	16.5717	37.931431	0.000152	1.517963	0.514300	-0.012316
 589	2.9400e-01	16.4963	37.873702	0.000142	1.423090	0.482156	-0.011546
 590	2.9450e-01	16.4707	37.785183	0.000218	2.182071	0.739306	-0.017704
 591	2.9500e-01	16.4193	37.731730	0.000132	1.317676	0.446441	-0.010691
 592	2.9550e-01	16.3808	37.662455	0.000171	1.707708	0.578587	-0.013855
 593	2.9600e-01	16.3359	37.597456	0.000160	1.602294	0.542872	-0.013000
 594	2.9650e-01	16.3054	37.525615	0.000177	1.770956	0.600016	-0.014368
 595	2.9700e-01	16.2573	37.464037	0.000152	1.517963	0.514300	-0.012316
 596	2.9750e-01	16.2060	37.394334	0.000172	1.718249	0.582159	-0.013941
 597	2.9800e-01	16.1530	37.323348	0.000175	1.749874	0.592873	-0.014197
 598	2.9850e-01	16.1578	37.230553	-0.000229	-2.287485	-0.775021	-0.018559
 599	2.9900e-01	16.0824	37.171968	0.000144	1.444173	0.489299	-0.011717
 600	2.9950e-01	16.0455	37.097989	0.000182	1.823663	0.617874	-0.014796
 601	3.0000e-01	16.0327	37.017596	0.000198	1.981785	0.671447	-0.016079
 602	3.0050e-01	15.9605	36.968419	0.000121	1.212262	0.410725	-0.009835
 603	3.0100e-01	15.9701	36.885887	-0.000203	-2.034492	-0.689304	-0.016506
 604	3.0150e-01	15.9044	36.823881	0.000153	1.528504	0.517871	-0.012401
 605	3.0200e-01	15.8643	36.743916	0.000197	1.971243	0.667875	-0.015993
 606	3.0250e-01	15.8274	36.677634	0.000163	1.633918	0.553586	-0.013256
 607	3.0300e-01	15.7696	36.609641	0.000168	1.676084	0.567873	-0.013598
 608	3.0350e-01	15.7455	36.523689	0.000212	2.118823	0.717877	-0.017191
 609	3.0400e-01	15.7038	36.462966	0.000150	1.496880	0.507157	-0.012145
 610	3.0450e-01	15.6445	36.388987	0.000182	1.823663	0.617874	-0.014796
 611	3.0500e-01	15.5835	36.335533	0.000132	1.317676	0.446441	-0.010691
 612	3.0550e-01	15.5755	36.257278	0.000193	1.929078	0.653589	-0.015651
 613	3.0600e-01	15.5498	36.184154	0.000180	1.802581	0.610731	-0.014625
 614	3.0650e-01	15.5226	36.099057	0.000210	2.097740	0.710734	-0.017019
 615	3.0700e-01	15.4664	36.032347	0.000164	1.644460	0.557158	-0.013342
 616	3.0750e-01	15.4119	35.970341	0.000153	1.528504	0.517871	-0.012401
 617	3.0800e-01	15.3766	35.892514	0.000192	1.918536	0.650018	-0.015566
 618	3.0850e-01	15.3605	35.794160	0.000242	2.424524	0.821451	-0.019671
 619	3.0900e-01	15.2867	35.760377	0.000083	0.832771	0.282151	-0.006756
 620	3.0950e-01	15.2723	35.687253	0.000180	1.802581	0.610731	-0.014625
 621	3.1000e-01	15.2370	35.588900	0.000242	2.424524	0.821451	-0.019671
 622	3.1050e-01	15.1841	35.522618	0.000163	1.633918	0.553586	-0.013256
 623	3.1100e-01	15.1263	35.472158	0.000124	1.243886	0.421440	-0.010092
 624	3.1150e-01	15.0974	35.392620	0.000196	1.960702	0.664304	-0.015908
 625	3.1200e-01	15.0509	35.307950	0.000209	2.087199	0.707162	-0.016934
 626	3.1250e-01	15.0188	35.245517	0.000154	1.539045	0.521443	-0.012487
 627	3.1300e-01	14.9627	35.169827	0.000187	1.865829	0.632160	-0.015138
 628	3.1350e-01	14.9434	35.093710	0.000188	1.876370	0.635732	-0.015223
 629	3.1400e-01	14.9194	35.025717	0.000168	1.676084	0.567873	-0.013598
 630	3.1450e-01	14.8488	34.953021	0.000179	1.792039	0.607159	-0.014539
 631	3.1500e-01	14.8408	34.873910	0.000195	1.950160	0.660732	-0.015822
 632	3.1550e-01	14.7734	34.806773	0.000166	1.655001	0.560729	-0.013427
 633	3.1600e-01	14.7236	34.737925	0.000170	1.697167	0.575016	-0.013770
 634	3.1650e-01	14.6851	34.674637	0.000156	1.560128	0.528586	-0.012658
 635	3.1700e-01	14.6499	34.591678	0.000205	2.045033	0.692876	-0.016592
 636	3.1750e-01	14.6338	34.515560	0.000188	1.876370	0.635732	-0.015223
 637	3.1800e-01	14.5857	34.443719	0.000177	1.770956	0.600016	-0.014368
 638	3.1850e-01	14.5648	34.349642	0.000232	2.319110	0.785736	-0.018816
 639	3.1900e-01	14.4862	34.310300	0.000097	0.969809	0.328580	-0.007868
 640	3.1950e-01	14.4397	34.236321	0.000182	1.823663	0.617874	-0.014796
 641	3.2000e-01	14.4156	34.142243	0.000232	2.319110	0.785736	-0.018816
 642	3.2050e-01	14.3787	34.083231	0.000145	1.454714	0.492871	-0.011802
 643	3.2100e-01	14.3483	34.009680	0.000181	1.813122	0.614302	-0.014710
 644	3.2150e-01	14.3001	33.930569	0.000195	1.950160	0.660732	-0.015822
 645	3.2200e-01	14.2584	33.855734	0.000184	1.844746	0.625017	-0.014967
 646	3.2250e-01	14.2263	33.786887	0.000170	1.697167	0.575016	-0.013770
 647	3.2300e-01	14.1862	33.712052	0.000184	1.844746	0.625017	-0.014967
 648	3.2350e-01	14.1509	33.634652	0.000191	1.907995	0.646446	-0.015480
 649	3.2400e-01	14.1140	33.547417	0.000215	2.150447	0.728591	-0.017447
 650	3.2450e-01	14.0595	33.482845	0.000159	1.591752	0.539300	-0.012914
 651	3.2500e-01	14.0226	33.420840	0.000153	1.528504	0.517871	-0.012401
 652	3.2550e-01	13.9857	33.327190	0.000231	2.308568	0.782164	-0.018730
 653	3.2600e-01	13.9552	33.262191	0.000160	1.602294	0.542872	-0.013000
 654	3.2650e-01	13.9087	33.178804	0.000206	2.055574	0.696447	-0.016677
 655	3.2700e-01	13.8606	33.111666	0.000166	1.655001	0.560729	-0.013427
 656	3.2750e-01	13.8157	33.043246	0.000169	1.686625	0.571444	-0.013684
 657	3.2800e-01	13.8124	32.946603	0.000238	2.382358	0.807165	-0.019329
 658	3.2850e-01	13.7483	32.873907	0.000179	1.792039	0.607159	-0.014539
 659	3.2900e-01	13.7066	32.796507	0.000191	1.907995	0.646446	-0.015480
 660	3.2950e-01	13.6424	32.745192	0.000126	1.264969	0.428583	-0.010263
 661	3.3000e-01	13.6247	32.660949	0.000208	2.076657	0.703591	-0.016848
 662	3.3050e-01	13.5606	32.592529	0.000169	1.686625	0.571444	-0.013684
 663	3.3100e-01	13.5173	32.511281	0.000200	2.002867	0.678590	-0.016250
 664	3.3150e-01	13.5141	32.420624	0.000223	2.234778	0.757163	-0.018131
 665	3.3200e-01	13.4595	32.356908	0.000157	1.570670	0.532157	-0.012743
 666	3.3250e-01	13.4226	32.278225	0.000194	1.939619	0.657161	-0.015737
 667	3.3300e-01	13.3568	32.208094	0.000173	1.728791	0.585730	-0.014026
 668	3.3350e-01	13.3376	32.125563	0.000203	2.034492	0.689304	-0.016506
 669	3.3400e-01	13.3087	32.037472	0.000217	2.171530	0.735734	-0.017618
 670	3.3450e-01	13.2686	31.979315	0.000143	1.433631	0.485727	-0.011631
 671	3.3500e-01	13.2429	31.886520	0.000229	2.287485	0.775021	-0.018559
 672	3.3550e-01	13.1740	31.820238	0.000163	1.633918	0.553586	-0.013256
 673	3.3600e-01	13.1371	31.746687	0.000181	1.813122	0.614302	-0.014710
 674	3.3650e-01	13.0825	31.679122	0.000167	1.665542	0.564301	-0.013513
 675	3.3700e-01	13.0585	31.601294	0.000192	1.918536	0.650018	-0.015566
 676	3.3750e-01	13.0023	31.534157	0.000166	1.655001	0.560729	-0.013427
 677	3.3800e-01	12.9943	31.431527	0.000253	2.529938	0.857166	-0.020526
 678	3.3850e-01	12.9413	31.369949	0.000152	1.517963	0.514300	-0.012316
 679	3.3900e-01	12.9044	31.254062	0.000286	2.856721	0.967883	-0.023177
 680	3.3950e-01	12.8692	31.213010	0.000101	1.011975	0.342866	-0.008210
 681	3.4000e-01	12.8082	31.136893	0.000188	1.876370	0.635732	-0.015223
 682	3.4050e-01	12.7841	31.067190	0.000172	1.718249	0.582159	-0.013941
 683	3.4100e-01	12.7665	30.984658	0.000203	2.034492	0.689304	-0.016506
 684	3.4150e-01	12.6975	30.906831	0.000192	1.918536	0.650018	-0.015566
 685	3.4200e-01	12.6686	30.821733	0.000210	2.097740	0.710734	-0.017019
 686	3.4250e-01	12.6173	30.742195	0.000196	1.960702	0.664304	-0.015908
 687	3.4300e-01	12.6045	30.669926	0.000178	1.781498	0.603588	-0.014454
 688	3.4350e-01	12.5515	30.594236	0.000187	1.865829	0.632160	-0.015138
 689	3.4400e-01	12.4890	30.520685	0.000181	1.813122	0.614302	-0.014710
 690	3.4450e-01	12.4745	30.445850	0.000184	1.844746	0.625017	-0.014967
 691	3.4500e-01	12.4248	30.362036	0.000207	2.066116	0.700019	-0.016763
 692	3.4550e-01	12.3863	30.294471	0.000167	1.665542	0.564301	-0.013513
 693	3.4600e-01	12.3382	30.208091	0.000213	2.129364	0.721448	-0.017276
 694	3.4650e-01	12.2884	30.130691	0.000191	1.907995	0.646446	-0.015480
 695	3.4700e-01	12.2499	30.049869	0.000199	1.992326	0.675018	-0.016164
 696	3.4750e-01	12.2194	29.989147	0.000150	1.496880	0.507157	-0.012145
 697	3.4800e-01	12.1890	29.892076	0.000239	2.392899	0.810736	-0.019414
 698	3.4850e-01	12.1344	29.823228	0.000170	1.697167	0.575016	-0.013770
 699	3.4900e-01	12.0831	29.734710	0.000218	2.182071	0.739306	-0.017704
 700	3.4950e-01	12.0638	29.653461	0.000200	2.002867	0.678590	-0.016250
 701	3.5000e-01	12.0173	29.586751	0.000164	1.644460	0.557158	-0.013342
 702	3.5050e-01	11.9772	29.490536	0.000237	2.371817	0.803593	-0.019243
 703	3.5100e-01	11.9403	29.420405	0.000173	1.728791	0.585730	-0.014026
 704	3.5150e-01	11.9098	29.342577	0.000192	1.918536	0.650018	-0.015566
 705	3.5200e-01	11.8745	29.260473	0.000202	2.023950	0.685733	-0.016421
 706	3.5250e-01	11.8007	29.189915	0.000174	1.739332	0.589302	-0.014112
 707	3.5300e-01	11.7991	29.095838	0.000232	2.319110	0.785736	-0.018816
 708	3.5350e-01	11.7334	29.026135	0.000172	1.718249	0.582159	-0.013941
 709	3.5400e-01	11.6900	28.944458	0.000201	2.013409	0.682161	-0.016335
 710	3.5450e-01	11.6419	28.870907	0.000181	1.813122	0.614302	-0.014710
 711	3.5500e-01	11.6162	28.788803	0.000202	2.023950	0.685733	-0.016421
 712	3.5550e-01	11.5922	28.693870	0.000234	2.340192	0.792879	-0.018987
 713	3.5600e-01	11.5441	28.633147	0.000150	1.496880	0.507157	-0.012145
 714	3.5650e-01	11.5088	28.537787	0.000235	2.350734	0.796450	-0.019072
 715	3.5700e-01	11.4847	28.452261	0.000211	2.108281	0.714305	-0.017105
 716	3.5750e-01	11.4173	28.391539	0.000150	1.496880	0.507157	-0.012145
 717	3.5800e-01	11.3804	28.304303	0.000215	2.150447	0.728591	-0.017447
 718	3.5850e-01	11.3499	28.223482	0.000199	1.992326	0.675018	-0.016164
 719	3.5900e-01	11.3050	28.137102	0.000213	2.129364	0.721448	-0.017276
 720	3.5950e-01	11.2601	28.065261	0.000177	1.770956	0.600016	-0.014368
 721	3.6000e-01	11.2200	27.983584	0.000201	2.013409	0.682161	-0.016335
 722	3.6050e-01	11.1847	27.896776	0.000214	2.139906	0.725020	-0.017362
 723	3.6100e-01	11.1382	27.829639	0.000166	1.655001	0.560729	-0.013427
 724	3.6150e-01	11.0965	27.741548	0.000217	2.171530	0.735734	-0.017618
 725	3.6200e-01	11.0740	27.661582	0.000197	1.971243	0.667875	-0.015993
 726	3.6250e-01	11.0291	27.578195	0.000206	2.055574	0.696447	-0.016677
 727	3.6300e-01	10.9762	27.504216	0.000182	1.823663	0.617874	-0.014796
 728	3.6350e-01	10.9537	27.410566	0.000231	2.308568	0.782164	-0.018730
 729	3.6400e-01	10.8751	27.338725	0.000177	1.770956	0.600016	-0.014368
 730	3.6450e-01	10.8478	27.257476	0.000200	2.002867	0.678590	-0.016250
 731	3.6500e-01	10.8414	27.166820	0.000223	2.234778	0.757163	-0.018131
 732	3.6550e-01	10.7788	27.083861	0.000205	2.045033	0.692876	-0.016592
 733	3.6600e-01	10.7580	27.006033	0.000192	1.918536	0.650018	-0.015566
 734	3.6650e-01	10.7066	26.933336	0.000179	1.792039	0.607159	-0.014539
 735	3.6700e-01	10.6730	26.843963	0.000220	2.203154	0.746449	-0.017875
 736	3.6750e-01	10.6329	26.781957	0.000153	1.528504	0.517871	-0.012401
 737	3.6800e-01	10.6104	26.678899	0.000254	2.540479	0.860738	-0.020612
 738	3.6850e-01	10.5350	26.609624	0.000171	1.707708	0.578587	-0.013855
 739	3.6900e-01	10.4901	26.523671	0.000212	2.118823	0.717877	-0.017191
 740	3.6950e-01	10.4564	26.434298	0.000220	2.203154	0.746449	-0.017875
 741	3.7000e-01	10.4115	26.362884	0.000176	1.760415	0.596445	-0.014283
 742	3.7050e-01	10.3730	26.275221	0.000216	2.160988	0.732163	-0.017533
 743	3.7100e-01	10.3457	26.175157	0.000247	2.466689	0.835737	-0.020013
 744	3.7150e-01	10.3281	26.077658	0.000240	2.403441	0.814308	-0.019500
 745	3.7200e-01	10.2655	26.016508	0.000151	1.507421	0.510728	-0.012230
 746	3.7250e-01	10.2109	25.938680	0.000192	1.918536	0.650018	-0.015566
 747	3.7300e-01	10.1628	25.865556	0.000180	1.802581	0.610731	-0.014625
 748	3.7350e-01	10.1500	25.760788	0.000258	2.582645	0.875024	-0.020954
 749	3.7400e-01	10.1163	25.694506	0.000163	1.633918	0.553586	-0.013256
 750	3.7450e-01	10.0778	25.602994	0.000226	2.255861	0.764306	-0.018302
 751	3.7500e-01	10.0409	25.512765	0.000222	2.224237	0.753592	-0.018046
 752	3.7550e-01	9.9799	25.447339	0.000161	1.612835	0.546443	-0.013085
 753	3.7600e-01	9.9366	25.356682	0.000223	2.234778	0.757163	-0.018131
 754	3.7650e-01	9.8997	25.272868	0.000207	2.066116	0.700019	-0.016763
 755	3.7700e-01	9.8468	25.195040	0.000192	1.918536	0.650018	-0.015566
 756	3.7750e-01	9.8227	25.108232	0.000214	2.139906	0.725020	-0.017362
 757	3.7800e-01	9.7890	25.018431	0.000221	2.213696	0.750020	-0.017960
 758	3.7850e-01	9.7457	24.935044	0.000206	2.055574	0.696447	-0.016677
 759	3.7900e-01	9.7040	24.831986	0.000254	2.540479	0.860738	-0.020612
 760	3.7950e-01	9.6880	24.751165	0.000199	1.992326	0.675018	-0.016164
 761	3.8000e-01	9.6094	24.673765	0.000191	1.907995	0.646446	-0.015480
 762	3.8050e-01	9.5580	24.619884	0.000133	1.328217	0.450012	-0.010776
 763	3.8100e-01	9.5404	24.506135	0.000280	2.804014	0.950026	-0.022750
 764	3.8150e-01	9.5051	24.424031	0.000202	2.023950	0.685733	-0.016421
 765	3.8200e-01	9.4682	24.352190	0.000177	1.770956	0.600016	-0.014368
 766	3.8250e-01	9.4056	24.284198	0.000168	1.676084	0.567873	-0.013598
 767	3.8300e-01	9.3687	24.185844	0.000242	2.424524	0.821451	-0.019671
 768	3.8350e-01	9.3238	24.104168	0.000201	2.013409	0.682161	-0.016335
 769	3.8400e-01	9.3013	24.007952	0.000237	2.371817	0.803593	-0.019243
 770	3.8450e-01	9.2757	23.931407	0.000189	1.886912	0.639303	-0.015309
 771	3.8500e-01	9.2324	23.839468	0.000227	2.266403	0.767878	-0.018388
 772	3.8550e-01	9.1746	23.751377	0.000217	2.171530	0.735734	-0.017618
 773	3.8600e-01	9.1489	23.656872	0.000233	2.329651	0.789307	-0.018901
 774	3.8650e-01	9.0960	23.582465	0.000183	1.834205	0.621445	-0.014881
 775	3.8700e-01	9.0767	23.482828	0.000246	2.456148	0.832165	-0.019927
 776	3.8750e-01	9.0078	23.415263	0.000167	1.665542	0.564301	-0.013513
 777	3.8800e-01	8.9677	23.336153	0.000195	1.950160	0.660732	-0.015822
 778	3.8850e-01	8.9516	23.241647	0.000233	2.329651	0.789307	-0.018901
 779	3.8900e-01	8.9019	23.138590	0.000254	2.540479	0.860738	-0.020612
 780	3.8950e-01	8.8489	23.073163	0.000161	1.612835	0.546443	-0.013085
 781	3.9000e-01	8.8169	22.981651	0.000226	2.255861	0.764306	-0.018302
 782	3.9050e-01	8.8104	22.882870	0.000244	2.435065	0.825022	-0.019756
 783	3.9100e-01	8.7334	22.806325	0.000189	1.886912	0.639303	-0.015309
 784	3.9150e-01	8.6933	22.710965	0.000235	2.350734	0.796450	-0.019072
 785	3.9200e-01	8.6484	22.638696	0.000178	1.781498	0.603588	-0.014454
 786	3.9250e-01	8.6163	22.537776	0.000249	2.487772	0.842880	-0.020184
 787	3.9300e-01	8.5778	22.451396	0.000213	2.129364	0.721448	-0.017276
 788	3.9350e-01	8.5522	22.365871	0.000211	2.108281	0.714305	-0.017105
 789	3.9400e-01	8.4960	22.288898	0.000190	1.897453	0.642875	-0.015395
 790	3.9450e-01	8.4254	22.202518	0.000213	2.129364	0.721448	-0.017276
 791	3.9500e-01	8.4174	22.114000	0.000218	2.182071	0.739306	-0.017704
 792	3.9550e-01	8.3372	22.030185	0.000207	2.066116	0.700019	-0.016763
 793	3.9600e-01	8.3292	21.936963	0.000230	2.298027	0.778593	-0.018644
 794	3.9650e-01	8.3051	21.850582	0.000213	2.129364	0.721448	-0.017276
 795	3.9700e-01	8.2666	21.749663	0.000249	2.487772	0.842880	-0.020184
 796	3.9750e-01	8.2361	21.671835	0.000192	1.918536	0.650018	-0.015566
 797	3.9800e-01	8.1912	21.578613	0.000230	2.298027	0.778593	-0.018644
 798	3.9850e-01	8.1607	21.493515	0.000210	2.097740	0.710734	-0.017019
 799	3.9900e-01	8.1014	21.395589	0.000241	2.413982	0.817879	-0.019585
 800	3.9950e-01	8.0549	21.319900	0.000187	1.865829	0.632160	-0.015138
 801	4.0000e-01	8.0436	21.219408	0.000248	2.477231	0.839308	-0.020098
 802	4.0050e-01	7.9602	21.137731	0.000201	2.013409	0.682161	-0.016335
 803	4.0100e-01	7.9217	21.062041	0.000187	1.865829	0.632160	-0.015138
 804	4.0150e-01	7.8848	20.968392	0.000231	2.308568	0.782164	-0.018730
 805	4.0200e-01	7.8639	20.870465	0.000241	2.413982	0.817879	-0.019585
 806	4.0250e-01	7.8335	20.777243	0.000230	2.298027	0.778593	-0.018644
 807	4.0300e-01	7.8078	20.695994	0.000200	2.002867	0.678590	-0.016250
 808	4.0350e-01	7.7292	20.612607	0.000206	2.055574	0.696447	-0.016677
 809	4.0400e-01	7.7260	20.510832	0.000251	2.508855	0.850023	-0.020355
 810	4.0450e-01	7.6570	20.421031	0.000221	2.213696	0.750020	-0.017960
 811	4.0500e-01	7.6265	20.336361	0.000209	2.087199	0.707162	-0.016934
 812	4.0550e-01	7.5543	20.259389	0.000190	1.897453	0.642875	-0.015395
 813	4.0600e-01	7.5351	20.161035	0.000242	2.424524	0.821451	-0.019671
 814	4.0650e-01	7.5014	20.065675	0.000235	2.350734	0.796450	-0.019072
 815	4.0700e-01	7.4501	19.986564	0.000195	1.950160	0.660732	-0.015822
 816	4.0750e-01	7.4292	19.870677	0.000286	2.856721	0.967883	-0.023177
 817	4.0800e-01	7.3811	19.797981	0.000179	1.792039	0.607159	-0.014539
 818	4.0850e-01	7.3329	19.712028	0.000212	2.118823	0.717877	-0.017191
 819	4.0900e-01	7.2896	19.614958	0.000239	2.392899	0.810736	-0.019414
 820	4.0950e-01	7.2415	19.526011	0.000219	2.192613	0.742877	-0.017789
 821	4.1000e-01	7.2271	19.428085	0.000241	2.413982	0.817879	-0.019585
 822	4.1050e-01	7.2078	19.322889	0.000259	2.593186	0.878595	-0.021039
 823	4.1100e-01	7.1388	19.253187	0.000172	1.718249	0.582159	-0.013941
 824	4.1150e-01	7.0666	19.176214	0.000190	1.897453	0.642875	-0.015395
 825	4.1200e-01	7.0458	19.071873	0.000257	2.572103	0.871452	-0.020868
 826	4.1250e-01	7.0217	18.985066	0.000214	2.139906	0.725020	-0.017362
 827	4.1300e-01	6.9736	18.899113	0.000212	2.118823	0.717877	-0.017191
 828	4.1350e-01	6.9287	18.816154	0.000205	2.045033	0.692876	-0.016592
 829	4.1400e-01	6.8998	18.705826	0.000272	2.719683	0.921454	-0.022065
 830	4.1450e-01	6.8629	18.627998	0.000192	1.918536	0.650018	-0.015566
 831	4.1500e-01	6.8036	18.524941	0.000254	2.540479	0.860738	-0.020612
 832	4.1550e-01	6.7763	18.433429	0.000226	2.255861	0.764306	-0.018302
 833	4.1600e-01	6.7249	18.339779	0.000231	2.308568	0.782164	-0.018730
 834	4.1650e-01	6.6913	18.255537	0.000208	2.076657	0.703591	-0.016848
 835	4.1700e-01	6.6640	18.147775	0.000266	2.656435	0.900024	-0.021552
 836	4.1750e-01	6.5966	18.077645	0.000173	1.728791	0.585730	-0.014026
 837	4.1800e-01	6.5613	17.973304	0.000257	2.572103	0.871452	-0.020868
 838	4.1850e-01	6.5501	17.879227	0.000232	2.319110	0.785736	-0.018816
 839	4.1900e-01	6.5004	17.788570	0.000223	2.234778	0.757163	-0.018131
 840	4.1950e-01	6.4731	17.653013	0.000334	3.341626	1.132174	-0.027111
 841	4.2000e-01	6.4025	17.602553	0.000124	1.243886	0.421440	-0.010092
 842	4.2050e-01	6.3881	17.525153	0.000191	1.907995	0.646446	-0.015480
 843	4.2100e-01	6.3383	17.426371	0.000244	2.435065	0.825022	-0.019756
 844	4.2150e-01	6.2742	17.338281	0.000217	2.171530	0.735734	-0.017618
 845	4.2200e-01	6.2421	17.229664	0.000268	2.677517	0.907167	-0.021723
 846	4.2250e-01	6.2100	17.151836	0.000192	1.918536	0.650018	-0.015566
 847	4.2300e-01	6.2004	17.041081	0.000273	2.730224	0.925025	-0.022151
 848	4.2350e-01	6.1330	16.965391	0.000187	1.865829	0.632160	-0.015138
 849	4.2400e-01	6.0881	16.863189	0.000252	2.519396	0.853595	-0.020440
 850	4.2450e-01	6.0464	16.757993	0.000259	2.593186	0.878595	-0.021039
 851	4.2500e-01	6.0207	16.659639	0.000242	2.424524	0.821451	-0.019671
 852	4.2550e-01	5.9806	16.572831	0.000214	2.139906	0.725020	-0.017362
 853	4.2600e-01	5.9325	16.480892	0.000227	2.266403	0.767878	-0.018388
 854	4.2650e-01	5.9052	16.382538	0.000242	2.424524	0.821451	-0.019671
 855	4.2700e-01	5.8554	16.284184	0.000242	2.424524	0.821451	-0.019671
 856	4.2750e-01	5.8250	16.186686	0.000240	2.403441	0.814308	-0.019500
 857	4.2800e-01	5.7560	16.096029	0.000223	2.234778	0.757163	-0.018131
 858	4.2850e-01	5.7432	16.010504	0.000211	2.108281	0.714305	-0.017105
 859	4.2900e-01	5.6966	15.904025	0.000262	2.624810	0.889310	-0.021296
 860	4.2950e-01	5.6469	15.823632	0.000198	1.981785	0.671447	-0.016079
 861	4.3000e-01	5.6244	15.716298	0.000265	2.645893	0.896453	-0.021467
 862	4.3050e-01	5.5731	15.624786	0.000226	2.255861	0.764306	-0.018302
 863	4.3100e-01	5.5218	15.517880	0.000264	2.635352	0.892881	-0.021381
 864	4.3150e-01	5.4833	15.431072	0.000214	2.139906	0.725020	-0.017362
 865	4.3200e-01	5.4271	15.341271	0.000221	2.213696	0.750020	-0.017960
 866	4.3250e-01	5.4047	15.244200	0.000239	2.392899	0.810736	-0.019414
 867	4.3300e-01	5.3758	15.151405	0.000229	2.287485	0.775021	-0.018559
 868	4.3350e-01	5.3581	15.022690	0.000317	3.172964	1.075029	-0.025743
 869	4.3400e-01	5.2908	14.949138	0.000181	1.813122	0.614302	-0.014710
 870	4.3450e-01	5.2715	14.833679	0.000285	2.846180	0.964312	-0.023092
 871	4.3500e-01	5.1897	14.772101	0.000152	1.517963	0.514300	-0.012316
 872	4.3550e-01	5.1688	14.648518	0.000305	3.046467	1.032171	-0.024717
 873	4.3600e-01	5.1255	14.565131	0.000206	2.055574	0.696447	-0.016677
 874	4.3650e-01	5.1047	14.468915	0.000237	2.371817	0.803593	-0.019243
 875	4.3700e-01	5.0581	14.360726	0.000267	2.666976	0.903596	-0.021638
 876	4.3750e-01	5.0164	14.270497	0.000222	2.224237	0.753592	-0.018046
 877	4.3800e-01	4.9731	14.170433	0.000247	2.466689	0.835737	-0.020013
 878	4.3850e-01	4.9667	14.056684	0.000280	2.804014	0.950026	-0.022750
 879	4.3900e-01	4.9090	13.962607	0.000232	2.319110	0.785736	-0.018816
 880	4.3950e-01	4.8913	13.852279	0.000272	2.719683	0.921454	-0.022065
 881	4.4000e-01	4.8191	13.774879	0.000191	1.907995	0.646446	-0.015480
 882	4.4050e-01	4.7758	13.669256	0.000260	2.603728	0.882167	-0.021125
 883	4.4100e-01	4.7197	13.594849	0.000183	1.834205	0.621445	-0.014881
 884	4.4150e-01	4.7052	13.477252	0.000290	2.898887	0.982170	-0.023519
 885	4.4200e-01	4.6523	13.377188	0.000247	2.466689	0.835737	-0.020013
 886	4.4250e-01	4.6138	13.272847	0.000257	2.572103	0.871452	-0.020868
 887	4.4300e-01	4.5480	13.187322	0.000211	2.108281	0.714305	-0.017105
 888	4.4350e-01	4.5560	13.066304	-0.000298	-2.983218	-1.010742	-0.024204
 889	4.4400e-01	4.4886	12.986338	0.000197	1.971243	0.667875	-0.015993
 890	4.4450e-01	4.4517	12.881570	0.000258	2.582645	0.875024	-0.020954
 891	4.4500e-01	4.4116	12.768677	0.000278	2.782932	0.942883	-0.022579
 892	4.4550e-01	4.3908	12.675027	0.000231	2.308568	0.782164	-0.018730
 893	4.4600e-01	4.3411	12.558285	0.000288	2.877804	0.975026	-0.023348
 894	4.4650e-01	4.2849	12.483023	0.000186	1.855288	0.628588	-0.015052
 895	4.4700e-01	4.2496	12.376545	0.000262	2.624810	0.889310	-0.021296
 896	4.4750e-01	4.2063	12.270921	0.000260	2.603728	0.882167	-0.021125
 897	4.4800e-01	4.1903	12.167436	0.000255	2.551021	0.864309	-0.020697
 898	4.4850e-01	4.1213	12.063523	0.000256	2.561562	0.867881	-0.020783
 899	4.4900e-01	4.0892	11.974149	0.000220	2.203154	0.746449	-0.017875
 900	4.4950e-01	4.0860	11.850565	0.000305	3.046467	1.032171	-0.024717
 901	4.5000e-01	4.0106	11.757343	0.000230	2.298027	0.778593	-0.018644
 902	4.5050e-01	3.9785	11.669680	0.000216	2.160988	0.732163	-0.017533
 903	4.5100e-01	3.9641	11.538827	0.000323	3.225671	1.092887	-0.026171
 904	4.5150e-01	3.8822	11.442183	0.000238	2.382358	0.807165	-0.019329
 905	4.5200e-01	3.8726	11.343829	0.000242	2.424524	0.821451	-0.019671
 906	4.5250e-01	3.8421	11.230936	0.000278	2.782932	0.942883	-0.022579
 907	4.5300e-01	3.7619	11.135576	0.000235	2.350734	0.796450	-0.019072
 908	4.5350e-01	3.7090	11.047485	0.000217	2.171530	0.735734	-0.017618
 909	4.5400e-01	3.6994	10.934592	0.000278	2.782932	0.942883	-0.022579
 910	4.5450e-01	3.6673	10.828541	0.000261	2.614269	0.885738	-0.021210
 911	4.5500e-01	3.6111	10.728477	0.000247	2.466689	0.835737	-0.020013
 912	4.5550e-01	3.5726	10.629268	0.000245	2.445606	0.828594	-0.019842
 913	4.5600e-01	3.5389	10.527065	0.000252	2.519396	0.853595	-0.020440
 914	4.5650e-01	3.4764	10.422725	0.000257	2.572103	0.871452	-0.020868
 915	4.5700e-01	3.4844	10.295720	-0.000313	-3.130798	-1.060743	-0.025401
 916	4.5750e-01	3.4074	10.217892	0.000192	1.918536	0.650018	-0.015566
 917	4.5800e-01	3.4010	10.103289	0.000283	2.825097	0.957169	-0.022921
 918	4.5850e-01	3.3496	10.006645	0.000238	2.382358	0.807165	-0.019329
 919	4.5900e-01	3.2967	9.882634	0.000306	3.057008	1.035742	-0.024802
 920	4.5950e-01	3.2598	9.794543	0.000217	2.171530	0.735734	-0.017618
 921	4.6000e-01	3.2245	9.679940	0.000283	2.825097	0.957169	-0.022921
 922	4.6050e-01	3.1475	9.587145	0.000229	2.287485	0.775021	-0.018559
 923	4.6100e-01	3.1379	9.483660	0.000255	2.551021	0.864309	-0.020697
 924	4.6150e-01	3.1026	9.344681	0.000343	3.425957	1.160746	-0.027796
 925	4.6200e-01	3.0480	9.251031	0.000231	2.308568	0.782164	-0.018730
 926	4.6250e-01	3.0368	9.142415	0.000268	2.677517	0.907167	-0.021723
 927	4.6300e-01	2.9951	9.036791	0.000260	2.603728	0.882167	-0.021125
 928	4.6350e-01	2.9502	8.923043	0.000280	2.804014	0.950026	-0.022750
 929	4.6400e-01	2.8796	8.839656	0.000206	2.055574	0.696447	-0.016677
 930	4.6450e-01	2.8347	8.726763	0.000278	2.782932	0.942883	-0.022579
 931	4.6500e-01	2.8331	8.598048	0.000317	3.172964	1.075029	-0.025743
 932	4.6550e-01	2.7753	8.507819	0.000222	2.224237	0.753592	-0.018046
 933	4.6600e-01	2.7240	8.401768	0.000261	2.614269	0.885738	-0.021210
 934	4.6650e-01	2.6855	8.291868	0.000271	2.709142	0.917882	-0.021980
 935	4.6700e-01	2.6759	8.154173	0.000339	3.394333	1.150031	-0.027539
 936	4.6750e-01	2.6149	8.063944	0.000222	2.224237	0.753592	-0.018046
 937	4.6800e-01	2.5668	7.945064	0.000293	2.930511	0.992884	-0.023776
 938	4.6850e-01	2.5315	7.846282	0.000244	2.435065	0.825022	-0.019756
 939	4.6900e-01	2.5058	7.725264	0.000298	2.983218	1.010742	-0.024204
 940	4.6950e-01	2.4400	7.623490	0.000251	2.508855	0.850023	-0.020355
 941	4.7000e-01	2.4176	7.509314	0.000281	2.814556	0.953597	-0.022835
 942	4.7050e-01	2.3791	7.394282	0.000284	2.835639	0.960740	-0.023006
 943	4.7100e-01	2.3374	7.288231	0.000261	2.614269	0.885738	-0.021210
 944	4.7150e-01	2.3069	7.182608	0.000260	2.603728	0.882167	-0.021125
 945	4.7200e-01	2.2299	7.066294	0.000287	2.867263	0.971455	-0.023263
 946	4.7250e-01	2.2154	6.960670	0.000260	2.603728	0.882167	-0.021125
 947	4.7300e-01	2.1802	6.837942	0.000303	3.025384	1.025028	-0.024546
 948	4.7350e-01	2.1048	6.741299	0.000238	2.382358	0.807165	-0.019329
 949	4.7400e-01	2.0823	6.618143	0.000304	3.035925	1.028599	-0.024631
 950	4.7450e-01	2.0630	6.512947	0.000259	2.593186	0.878595	-0.021039
 951	4.7500e-01	2.0021	6.387653	0.000309	3.088632	1.046457	-0.025059
 952	4.7550e-01	1.9716	6.288443	0.000245	2.445606	0.828594	-0.019842
 953	4.7600e-01	1.9427	6.159728	0.000317	3.172964	1.075029	-0.025743
 954	4.7650e-01	1.8994	6.049829	0.000271	2.709142	0.917882	-0.021980
 955	4.7700e-01	1.8625	5.943350	0.000262	2.624810	0.889310	-0.021296
 956	4.7750e-01	1.8144	5.804799	0.000342	3.415416	1.157174	-0.027710
 957	4.7800e-01	1.7566	5.701742	0.000254	2.540479	0.860738	-0.020612
 958	4.7850e-01	1.7390	5.587138	0.000283	2.825097	0.957169	-0.022921
 959	4.7900e-01	1.6877	5.469969	0.000289	2.888346	0.978598	-0.023434
 960	4.7950e-01	1.6299	5.369904	0.000247	2.466689	0.835737	-0.020013
 961	4.8000e-01	1.6058	5.245893	0.000306	3.057008	1.035742	-0.024802
 962	4.8050e-01	1.5770	5.124020	0.000300	3.004301	1.017885	-0.024375
 963	4.8100e-01	1.5561	4.999153	0.000308	3.078091	1.042885	-0.024973
 964	4.8150e-01	1.4951	4.890964	0.000267	2.666976	0.903596	-0.021638
 965	4.8200e-01	1.4663	4.776361	0.000283	2.825097	0.957169	-0.022921
 966	4.8250e-01	1.4294	4.659191	0.000289	2.888346	0.978598	-0.023434
 967	4.8300e-01	1.3812	4.536035	0.000304	3.035925	1.028599	-0.024631
 968	4.8350e-01	1.3492	4.415872	0.000296	2.962135	1.003599	-0.024033
 969	4.8400e-01	1.2898	4.304690	0.000274	2.740766	0.928597	-0.022237
 970	4.8450e-01	1.2385	4.191797	0.000278	2.782932	0.942883	-0.022579
 971	4.8500e-01	1.2288	4.062226	0.000319	3.194046	1.082172	-0.025914
 972	4.8550e-01	1.1615	3.941636	0.000297	2.972677	1.007170	-0.024118
 973	4.8600e-01	1.1454	3.833447	0.000267	2.666976	0.903596	-0.021638
 974	4.8650e-01	1.0893	3.708580	0.000308	3.078091	1.042885	-0.024973
 975	4.8700e-01	1.0476	3.597398	0.000274	2.740766	0.928597	-0.022237
 976	4.8750e-01	1.0219	3.472103	0.000309	3.088632	1.046457	-0.025059
 977	4.8800e-01	0.9690	3.348092	0.000306	3.057008	1.035742	-0.024802
 978	4.8850e-01	0.9481	3.220660	0.000314	3.141339	1.064315	-0.025486
 979	4.8900e-01	0.8823	3.127010	0.000231	2.308568	0.782164	-0.018730
 980	4.8950e-01	0.8599	2.982472	0.000356	3.562996	1.207176	-0.028907
 981	4.9000e-01	0.8310	2.875139	0.000265	2.645893	0.896453	-0.021467
 982	4.9050e-01	0.7684	2.745568	0.000319	3.194046	1.082172	-0.025914
 983	4.9100e-01	0.7155	2.630537	0.000284	2.835639	0.960740	-0.023006
 984	4.9150e-01	0.6930	2.504815	0.000310	3.099174	1.050028	-0.025144
 985	4.9200e-01	0.6529	2.379093	0.000310	3.099174	1.050028	-0.025144
 986	4.9250e-01	0.6257	2.253799	0.000309	3.088632	1.046457	-0.025059
 987	4.9300e-01	0.5743	2.120808	0.000328	3.278378	1.110744	-0.026598
 988	4.9350e-01	0.5390	2.013901	0.000264	2.635352	0.892881	-0.021381
 989	4.9400e-01	0.4989	1.894166	0.000295	2.951594	1.000027	-0.023947
 990	4.9450e-01	0.4765	1.761175	0.000328	3.278378	1.110744	-0.026598
 991	4.9500e-01	0.4299	1.631177	0.000320	3.204588	1.085744	-0.026000
 992	4.9550e-01	0.3802	1.516573	0.000283	2.825097	0.957169	-0.022921
 993	4.9600e-01	0.3016	1.403252	0.000279	2.793473	0.946454	-0.022664
 994	4.9650e-01	0.2856	1.285655	0.000290	2.898887	0.982170	-0.023519
 995	4.9700e-01	0.2807	1.123585	0.000400	3.995193	1.353608	-0.032414
 996	4.9750e-01	0.2037	1.015824	0.000266	2.656435	0.900024	-0.021552
 997	4.9800e-01	0.2069	0.857175	-0.000391	-3.910862	-1.325036	-0.031730
 998	4.9850e-01	0.1187	0.762670	0.000233	2.329651	0.789307	-0.018901
 999	4.9900e-01	0.0818	0.660040	0.000253	2.529938	0.857166	-0.020526
1000	4.9950e-01	0.0449	0.529614	0.000322	3.215129	1.089315	-0.026085
1001	5.0000e-01	0.0658	0.354288	-0.000432	-4.321977	-1.464325	-0.035065
1002	5.0050e-01	-0.0273	0.283729	0.000174	1.739332	0.589302	-0.014112
1003	5.0100e-01	-0.0529	0.158008	0.000310	3.099174	1.050028	-0.025144
1004	5.0150e-01	-0.1011	0.038272	0.000295	2.951594	1.000027	-0.023947
1005	5.0200e-01	-0.1396	-0.107975	0.000361	3.605161	1.221462	-0.029250
1006	5.0250e-01	-0.1829	-0.217447	0.000270	2.698600	0.914311	-0.021894
1007	5.0300e-01	-0.2246	-0.335900	0.000292	2.919970	0.989313	-0.023690
1008	5.0350e-01	-0.2487	-0.476588	0.000347	3.468123	1.175032	-0.028138
1009	5.0400e-01	-0.3064	-0.580074	0.000255	2.551021	0.864309	-0.020697
1010	5.0450e-01	-0.3369	-0.726749	0.000362	3.615703	1.225033	-0.029335
1011	5.0500e-01	-0.3658	-0.856747	0.000320	3.204588	1.085744	-0.026000
1012	5.0550e-01	-0.4059	-0.970496	0.000280	2.804014	0.950026	-0.022750
1013	5.0600e-01	-0.4588	-1.100066	0.000319	3.194046	1.082172	-0.025914
1014	5.0650e-01	-0.5085	-1.222794	0.000303	3.025384	1.025028	-0.024546
1015	5.0700e-01	-0.5599	-1.334405	0.000275	2.751307	0.932168	-0.022322
1016	5.0750e-01	-0.5807	-1.473383	0.000343	3.425957	1.160746	-0.027796
1017	5.0800e-01	-0.6305	-1.600815	0.000314	3.141339	1.064315	-0.025486
1018	5.0850e-01	-0.6545	-1.730813	0.000320	3.204588	1.085744	-0.026000
1019	5.0900e-01	-0.6930	-1.850548	0.000295	2.951594	1.000027	-0.023947
1020	5.0950e-01	-0.7331	-1.992948	0.000351	3.510289	1.189318	-0.028480
1021	5.1000e-01	-0.8150	-2.085315	0.000228	2.276944	0.771449	-0.018473
1022	5.1050e-01	-0.8069	-2.223438	-0.000340	-3.404875	-1.153603	-0.027625
1023	5.1100e-01	-0.8952	-2.348304	0.000308	3.078091	1.042885	-0.024973
1024	5.1150e-01	-0.9032	-2.480440	0.000326	3.257295	1.103601	-0.026427
1025	5.1200e-01	-0.9449	-2.601886	0.000299	2.993760	1.014313	-0.024289
1026	5.1250e-01	-0.9657	-2.727180	0.000309	3.088632	1.046457	-0.025059
1027	5.1300e-01	-1.0235	-2.860172	0.000328	3.278378	1.110744	-0.026598
1028	5.1350e-01	-1.0540	-2.983755	0.000305	3.046467	1.032171	-0.024717
1029	5.1400e-01	-1.0780	-3.117174	0.000329	3.288919	1.114316	-0.026684
1030	5.1450e-01	-1.1246	-3.235199	0.000291	2.909428	0.985741	-0.023605
1031	5.1500e-01	-1.1775	-3.350658	0.000285	2.846180	0.964312	-0.023092
1032	5.1550e-01	-1.2064	-3.492629	0.000350	3.499747	1.185746	-0.028394
1033	5.1600e-01	-1.2337	-3.624766	0.000326	3.257295	1.103601	-0.026427
1034	5.1650e-01	-1.2850	-3.736376	0.000275	2.751307	0.932168	-0.022322
1035	5.1700e-01	-1.3123	-3.871933	0.000334	3.341626	1.132174	-0.027111
1036	5.1750e-01	-1.3668	-3.986537	0.000283	2.825097	0.957169	-0.022921
1037	5.1800e-01	-1.4294	-4.086601	0.000247	2.466689	0.835737	-0.020013
1038	5.1850e-01	-1.4823	-4.202060	0.000285	2.846180	0.964312	-0.023092
1039	5.1900e-01	-1.5032	-4.339755	0.000339	3.394333	1.150031	-0.027539
1040	5.1950e-01	-1.5096	-4.470181	0.000322	3.215129	1.089315	-0.026085
1041	5.2000e-01	-1.5513	-4.610442	0.000346	3.457582	1.171460	-0.028052
1042	5.2050e-01	-1.6299	-4.715210	0.000258	2.582645	0.875024	-0.020954
1043	5.2100e-01	-1.7005	-4.821261	0.000261	2.614269	0.885738	-0.021210
1044	5.2150e-01	-1.6941	-4.955535	-0.000331	-3.310002	-1.121459	-0.026855
1045	5.2200e-01	-1.7229	-5.085961	0.000322	3.215129	1.089315	-0.026085
1046	5.2250e-01	-1.7663	-5.205696	0.000295	2.951594	1.000027	-0.023947
1047	5.2300e-01	-1.8401	-5.315168	0.000270	2.698600	0.914311	-0.021894
1048	5.2350e-01	-1.8240	-5.449870	-0.000332	-3.320543	-1.125031	-0.026940
1049	5.2400e-01	-1.9010	-5.558060	0.000267	2.666976	0.903596	-0.021638
1050	5.2450e-01	-1.9219	-5.679505	0.000299	2.993760	1.014313	-0.024289
1051	5.2500e-01	-1.9860	-5.788550	0.000269	2.688059	0.910739	-0.021809
1052	5.2550e-01	-2.0294	-5.925817	0.000338	3.383792	1.146460	-0.027454
1053	5.2600e-01	-2.0775	-6.032296	0.000262	2.624810	0.889310	-0.021296
1054	5.2650e-01	-2.1128	-6.153742	0.000299	2.993760	1.014313	-0.024289
1055	5.2700e-01	-2.1384	-6.273904	0.000296	2.962135	1.003599	-0.024033
1056	5.2750e-01	-2.1577	-6.395777	0.000300	3.004301	1.017885	-0.024375
1057	5.2800e-01	-2.2379	-6.519789	0.000306	3.057008	1.035742	-0.024802
1058	5.2850e-01	-2.2620	-6.616432	0.000238	2.382358	0.807165	-0.019329
1059	5.2900e-01	-2.2620	-6.763108	0.000362	3.615703	1.225033	-0.029335
1060	5.2950e-01	-2.3293	-6.861889	0.000244	2.435065	0.825022	-0.019756
1061	5.3000e-01	-2.3807	-6.972216	0.000272	2.719683	0.921454	-0.022065
1062	5.3050e-01	-2.3999	-7.109912	0.000339	3.394333	1.150031	-0.027539
1063	5.3100e-01	-2.4529	-7.213397	0.000255	2.551021	0.864309	-0.020697
1064	5.3150e-01	-2.5090	-7.313034	0.000246	2.456148	0.832165	-0.019927
1065	5.3200e-01	-2.5588	-7.440038	0.000313	3.130798	1.060743	-0.025401
1066	5.3250e-01	-2.5571	-7.558491	-0.000292	-2.919970	-0.989313	-0.023690
1067	5.3300e-01	-2.6213	-7.674377	0.000286	2.856721	0.967883	-0.023177
1068	5.3350e-01	-2.6358	-7.789836	0.000285	2.846180	0.964312	-0.023092
1069	5.3400e-01	-2.6967	-7.903157	0.000279	2.793473	0.946454	-0.022664
1070	5.3450e-01	-2.7497	-8.005359	0.000252	2.519396	0.853595	-0.020440
1071	5.3500e-01	-2.7657	-8.131936	0.000312	3.120257	1.057172	-0.025315
1072	5.3550e-01	-2.8267	-8.237132	0.000259	2.593186	0.878595	-0.021039
1073	5.3600e-01	-2.8443	-8.364137	0.000313	3.130798	1.060743	-0.025401
1074	5.3650e-01	-2.8892	-8.468477	0.000257	2.572103	0.871452	-0.020868
1075	5.3700e-01	-2.9213	-8.587785	0.000294	2.941053	0.996456	-0.023861
1076	5.3750e-01	-2.9887	-8.693408	0.000260	2.603728	0.882167	-0.021125
1077	5.3800e-01	-2.9839	-8.821268	-0.000315	-3.151881	-1.067886	-0.025572
1078	5.3850e-01	-3.0625	-8.905510	0.000208	2.076657	0.703591	-0.016848
1079	5.3900e-01	-3.1010	-9.021397	0.000286	2.856721	0.967883	-0.023177
1080	5.3950e-01	-3.1315	-9.128731	0.000265	2.645893	0.896453	-0.021467
1081	5.4000e-01	-3.1940	-9.236492	0.000266	2.656435	0.900024	-0.021552
1082	5.4050e-01	-3.2197	-9.356227	0.000295	2.951594	1.000027	-0.023947
1083	5.4100e-01	-3.2646	-9.454581	0.000242	2.424524	0.821451	-0.019671
1084	5.4150e-01	-3.2967	-9.576454	0.000300	3.004301	1.017885	-0.024375
1085	5.4200e-01	-3.3577	-9.675236	0.000244	2.435065	0.825022	-0.019756
1086	5.4250e-01	-3.3609	-9.784280	0.000269	2.688059	0.910739	-0.021809
1087	5.4300e-01	-3.4074	-9.889048	0.000258	2.582645	0.875024	-0.020954
1088	5.4350e-01	-3.4443	-9.998093	0.000269	2.688059	0.910739	-0.021809
1089	5.4400e-01	-3.4956	-10.110558	0.000277	2.772390	0.939311	-0.022493
1090	5.4450e-01	-3.5518	-10.214899	0.000257	2.572103	0.871452	-0.020868
1091	5.4500e-01	-3.5790	-10.314108	0.000245	2.445606	0.828594	-0.019842
1092	5.4550e-01	-3.6224	-10.438119	0.000306	3.057008	1.035742	-0.024802
1093	5.4600e-01	-3.6689	-10.530059	0.000227	2.266403	0.767878	-0.018388
1094	5.4650e-01	-3.7010	-10.630978	0.000249	2.487772	0.842880	-0.020184
1095	5.4700e-01	-3.7491	-10.754989	0.000306	3.057008	1.035742	-0.024802
1096	5.4750e-01	-3.7812	-10.841797	0.000214	2.139906	0.725020	-0.017362
1097	5.4800e-01	-3.8341	-10.958967	0.000289	2.888346	0.978598	-0.023434
1098	5.4850e-01	-3.8373	-11.068011	0.000269	2.688059	0.910739	-0.021809
1099	5.4900e-01	-3.9207	-11.162089	0.000232	2.319110	0.785736	-0.018816
1100	5.4950e-01	-3.9560	-11.283534	0.000299	2.993760	1.014313	-0.024289
1101	5.5000e-01	-3.9865	-11.379322	0.000236	2.361275	0.800022	-0.019158
1102	5.5050e-01	-4.0090	-11.491360	0.000276	2.761849	0.935740	-0.022408
1103	5.5100e-01	-4.0507	-11.589286	0.000241	2.413982	0.817879	-0.019585
1104	5.5150e-01	-4.0972	-11.683364	0.000232	2.319110	0.785736	-0.018816
1105	5.5200e-01	-4.1309	-11.806092	0.000303	3.025384	1.025028	-0.024546
1106	5.5250e-01	-4.1870	-11.886914	0.000199	1.992326	0.675018	-0.016164
1107	5.5300e-01	-4.2207	-11.998524	0.000275	2.751307	0.932168	-0.022322
1108	5.5350e-01	-4.2448	-12.105002	0.000262	2.624810	0.889310	-0.021296
1109	5.5400e-01	-4.2929	-12.199935	0.000234	2.340192	0.792879	-0.018987
1110	5.5450e-01	-4.3459	-12.310690	0.000273	2.730224	0.925025	-0.022151
1111	5.5500e-01	-4.3988	-12.403913	0.000230	2.298027	0.778593	-0.018644
1112	5.5550e-01	-4.4116	-12.520654	0.000288	2.877804	0.975026	-0.023348
1113	5.5600e-01	-4.4726	-12.601475	0.000199	1.992326	0.675018	-0.016164
1114	5.5650e-01	-4.5111	-12.722493	0.000298	2.983218	1.010742	-0.024204
1115	5.5700e-01	-4.5207	-12.833248	0.000273	2.730224	0.925025	-0.022151
1116	5.5750e-01	-4.5560	-12.930747	0.000240	2.403441	0.814308	-0.019500
1117	5.5800e-01	-4.6266	-13.017982	0.000215	2.150447	0.728591	-0.017447
1118	5.5850e-01	-4.6619	-13.117619	0.000246	2.456148	0.832165	-0.019927
1119	5.5900e-01	-4.6683	-13.238209	0.000297	2.972677	1.007170	-0.024118
1120	5.5950e-01	-4.7437	-13.317320	0.000195	1.950160	0.660732	-0.015822
1121	5.6000e-01	-4.7726	-13.432779	0.000285	2.846180	0.964312	-0.023092
1122	5.6050e-01	-4.8352	-13.511890	0.000195	1.950160	0.660732	-0.015822
1123	5.6100e-01	-4.8464	-13.629914	0.000291	2.909428	0.985741	-0.023605
1124	5.6150e-01	-4.9138	-13.706031	0.000188	1.876370	0.635732	-0.015223
1125	5.6200e-01	-4.9218	-13.820207	0.000281	2.814556	0.953597	-0.022835
1126	5.6250e-01	-4.9795	-13.918989	0.000244	2.435065	0.825022	-0.019756
1127	5.6300e-01	-5.0148	-14.007935	0.000219	2.192613	0.742877	-0.017789
1128	5.6350e-01	-5.0325	-14.126815	0.000293	2.930511	0.992884	-0.023776
1129	5.6400e-01	-5.0902	-14.215333	0.000218	2.182071	0.739306	-0.017704
1130	5.6450e-01	-5.1255	-14.313687	0.000242	2.424524	0.821451	-0.019671
1131	5.6500e-01	-5.1785	-14.417600	0.000256	2.561562	0.867881	-0.020783
1132	5.6550e-01	-5.2025	-14.516381	0.000244	2.435065	0.825022	-0.019756
1133	5.6600e-01	-5.2298	-14.621150	0.000258	2.582645	0.875024	-0.020954
1134	5.6650e-01	-5.3004	-14.693418	0.000178	1.781498	0.603588	-0.014454
1135	5.6700e-01	-5.3581	-14.792200	0.000244	2.435065	0.825022	-0.019756
1136	5.6750e-01	-5.3838	-14.901672	0.000270	2.698600	0.914311	-0.021894
1137	5.6800e-01	-5.4031	-14.998315	0.000238	2.382358	0.807165	-0.019329
1138	5.6850e-01	-5.4704	-15.084268	0.000212	2.118823	0.717877	-0.017191
1139	5.6900e-01	-5.4929	-15.186898	0.000253	2.529938	0.857166	-0.020526
1140	5.6950e-01	-5.5186	-15.280548	0.000231	2.308568	0.782164	-0.018730
1141	5.7000e-01	-5.5891	-15.367783	0.000215	2.150447	0.728591	-0.017447
1142	5.7050e-01	-5.6405	-15.465709	0.000241	2.413982	0.817879	-0.019585
1143	5.7100e-01	-5.6662	-15.573899	0.000267	2.666976	0.903596	-0.021638
1144	5.7150e-01	-5.7095	-15.673963	0.000247	2.466689	0.835737	-0.020013
1145	5.7200e-01	-5.7512	-15.754784	0.000199	1.992326	0.675018	-0.016164
1146	5.7250e-01	-5.7656	-15.861263	0.000262	2.624810	0.889310	-0.021296
1147	5.7300e-01	-5.8041	-15.955340	0.000232	2.319110	0.785736	-0.018816
1148	5.7350e-01	-5.8571	-16.049418	0.000232	2.319110	0.785736	-0.018816
1149	5.7400e-01	-5.9276	-16.119121	0.000172	1.718249	0.582159	-0.013941
1150	5.7450e-01	-5.9244	-16.240139	-0.000298	-2.983218	-1.010742	-0.024204
1151	5.7500e-01	-5.9806	-16.332506	0.000228	2.276944	0.771449	-0.018473
1152	5.7550e-01	-6.0303	-16.420169	0.000216	2.160988	0.732163	-0.017533
1153	5.7600e-01	-6.0560	-16.527075	0.000264	2.635352	0.892881	-0.021381
1154	5.7650e-01	-6.0945	-16.621581	0.000233	2.329651	0.789307	-0.018901
1155	5.7700e-01	-6.1619	-16.691284	0.000172	1.718249	0.582159	-0.013941
1156	5.7750e-01	-6.2116	-16.795196	0.000256	2.561562	0.867881	-0.020783
1157	5.7800e-01	-6.2389	-16.884998	0.000221	2.213696	0.750020	-0.017960
1158	5.7850e-01	-6.2774	-16.970950	0.000212	2.118823	0.717877	-0.017191
1159	5.7900e-01	-6.2902	-17.082133	0.000274	2.740766	0.928597	-0.022237
1160	5.7950e-01	-6.3479	-17.165520	0.000206	2.055574	0.696447	-0.016677
1161	5.8000e-01	-6.3512	-17.268150	0.000253	2.529938	0.857166	-0.020526
1162	5.8050e-01	-6.4474	-17.346405	0.000193	1.929078	0.653589	-0.015651
1163	5.8100e-01	-6.4282	-17.487522	-0.000348	-3.478664	-1.178603	-0.028223
1164	5.8150e-01	-6.5100	-17.540120	0.000130	1.296593	0.439298	-0.010520
1165	5.8200e-01	-6.5340	-17.624790	0.000209	2.087199	0.707162	-0.016934
1166	5.8250e-01	-6.5870	-17.725709	0.000249	2.487772	0.842880	-0.020184
1167	5.8300e-01	-6.5838	-17.827484	-0.000251	-2.508855	-0.850023	-0.020355
1168	5.8350e-01	-6.6624	-17.905739	0.000193	1.929078	0.653589	-0.015651
1169	5.8400e-01	-6.7137	-17.991264	0.000211	2.108281	0.714305	-0.017105
1170	5.8450e-01	-6.7233	-18.084059	0.000229	2.287485	0.775021	-0.018559
1171	5.8500e-01	-6.7650	-18.181985	0.000241	2.413982	0.817879	-0.019585
1172	5.8550e-01	-6.8116	-18.273069	0.000225	2.245320	0.760735	-0.018217
1173	5.8600e-01	-6.8453	-18.368002	0.000234	2.340192	0.792879	-0.018987
1174	5.8650e-01	-6.9094	-18.448396	0.000198	1.981785	0.671447	-0.016079
1175	5.8700e-01	-6.9415	-18.539908	0.000226	2.255861	0.764306	-0.018302
1176	5.8750e-01	-6.9784	-18.636123	0.000237	2.371817	0.803593	-0.019243
1177	5.8800e-01	-7.0330	-18.713951	0.000192	1.918536	0.650018	-0.015566
1178	5.8850e-01	-7.0682	-18.803752	0.000221	2.213696	0.750020	-0.017960
1179	5.8900e-01	-7.0907	-18.914080	0.000272	2.719683	0.921454	-0.022065
1180	5.8950e-01	-7.1404	-19.004736	0.000223	2.234778	0.757163	-0.018131
1181	5.9000e-01	-7.1805	-19.089834	0.000210	2.097740	0.710734	-0.017019
1182	5.9050e-01	-7.2287	-19.173648	0.000207	2.066116	0.700019	-0.016763
1183	5.9100e-01	-7.2367	-19.289107	0.000285	2.846180	0.964312	-0.023092
1184	5.9150e-01	-7.2880	-19.357527	0.000169	1.686625	0.571444	-0.013684
1185	5.9200e-01	-7.3362	-19.452460	0.000234	2.340192	0.792879	-0.018987
1186	5.9250e-01	-7.3747	-19.547393	0.000234	2.340192	0.792879	-0.018987
1187	5.9300e-01	-7.3875	-19.632063	0.000209	2.087199	0.707162	-0.016934
1188	5.9350e-01	-7.4645	-19.715877	0.000207	2.066116	0.700019	-0.016763
1189	5.9400e-01	-7.4854	-19.806961	0.000225	2.245320	0.760735	-0.018217
1190	5.9450e-01	-7.5463	-19.885644	0.000194	1.939619	0.657161	-0.015737
1191	5.9500e-01	-7.5736	-19.977156	0.000226	2.255861	0.764306	-0.018302
1192	5.9550e-01	-7.6137	-20.065675	0.000218	2.182071	0.739306	-0.017704
1193	5.9600e-01	-7.6698	-20.165739	0.000247	2.466689	0.835737	-0.020013
1194	5.9650e-01	-7.7051	-20.240146	0.000183	1.834205	0.621445	-0.014881
1195	5.9700e-01	-7.7484	-20.346624	0.000262	2.624810	0.889310	-0.021296
1196	5.9750e-01	-7.7918	-20.423597	0.000190	1.897453	0.642875	-0.015395
1197	5.9800e-01	-7.8190	-20.521951	0.000242	2.424524	0.821451	-0.019671
1198	5.9850e-01	-7.8623	-20.601061	0.000195	1.950160	0.660732	-0.015822
1199	5.9900e-01	-7.8992	-20.695567	0.000233	2.329651	0.789307	-0.018901
1200	5.9950e-01	-7.9570	-20.779809	0.000208	2.076657	0.703591	-0.016848
1201	6.0000e-01	-7.9570	-20.881584	0.000251	2.508855	0.850023	-0.020355
1202	6.0050e-01	-8.0115	-20.958556	0.000190	1.897453	0.642875	-0.015395
1203	6.0100e-01	-8.0308	-21.059048	0.000248	2.477231	0.839308	-0.020098
1204	6.0150e-01	-8.0869	-21.124902	0.000162	1.623377	0.550015	-0.013171
1205	6.0200e-01	-8.1335	-21.215559	0.000223	2.234778	0.757163	-0.018131
1206	6.0250e-01	-8.1655	-21.301939	0.000213	2.129364	0.721448	-0.017276
1207	6.0300e-01	-8.2169	-21.387464	0.000211	2.108281	0.714305	-0.017105
1208	6.0350e-01	-8.2522	-21.475983	0.000218	2.182071	0.739306	-0.017704
1209	6.0400e-01	-8.3244	-21.545686	0.000172	1.718249	0.582159	-0.013941
1210	6.0450e-01	-8.3308	-21.643612	0.000241	2.413982	0.817879	-0.019585
1211	6.0500e-01	-8.3917	-21.748380	0.000258	2.582645	0.875024	-0.020954
1212	6.0550e-01	-8.4286	-21.816372	0.000168	1.676084	0.567873	-0.013598
1213	6.0600e-01	-8.4591	-21.908312	0.000227	2.266403	0.767878	-0.018388
1214	6.0650e-01	-8.4784	-21.995975	0.000216	2.160988	0.732163	-0.017533
1215	6.0700e-01	-8.5425	-22.073375	0.000191	1.907995	0.646446	-0.015480
1216	6.0750e-01	-8.5810	-22.158045	0.000209	2.087199	0.707162	-0.016934
1217	6.0800e-01	-8.6099	-22.254261	0.000237	2.371817	0.803593	-0.019243
1218	6.0850e-01	-8.6645	-22.335510	0.000200	2.002867	0.678590	-0.016250
1219	6.0900e-01	-8.6564	-22.459093	-0.000305	-3.046467	-1.032171	-0.024717
1220	6.0950e-01	-8.7334	-22.515967	0.000140	1.402007	0.475013	-0.011375
1221	6.1000e-01	-8.7703	-22.601920	0.000212	2.118823	0.717877	-0.017191
1222	6.1050e-01	-8.8393	-22.676327	0.000183	1.834205	0.621445	-0.014881
1223	6.1100e-01	-8.8554	-22.752017	0.000187	1.865829	0.632160	-0.015138
1224	6.1150e-01	-8.8810	-22.858923	0.000264	2.635352	0.892881	-0.021381
1225	6.1200e-01	-8.9340	-22.941455	0.000203	2.034492	0.689304	-0.016506
1226	6.1250e-01	-8.9532	-23.027407	0.000212	2.118823	0.717877	-0.017191
1227	6.1300e-01	-9.0142	-23.115498	0.000217	2.171530	0.735734	-0.017618
1228	6.1350e-01	-9.0623	-23.179642	0.000158	1.581211	0.535729	-0.012829
1229	6.1400e-01	-9.1040	-23.277996	0.000242	2.424524	0.821451	-0.019671
1230	6.1450e-01	-9.1425	-23.356251	0.000193	1.929078	0.653589	-0.015651
1231	6.1500e-01	-9.1714	-23.443914	0.000216	2.160988	0.732163	-0.017533
1232	6.1550e-01	-9.2131	-23.527729	0.000207	2.066116	0.700019	-0.016763
1233	6.1600e-01	-9.2805	-23.607695	0.000197	1.971243	0.667875	-0.015993
1234	6.1650e-01	-9.2901	-23.692792	0.000210	2.097740	0.710734	-0.017019
1235	6.1700e-01	-9.3382	-23.776607	0.000207	2.066116	0.700019	-0.016763
1236	6.1750e-01	-9.3639	-23.860849	0.000208	2.076657	0.703591	-0.016848
1237	6.1800e-01	-9.4008	-23.957492	0.000238	2.382358	0.807165	-0.019329
1238	6.1850e-01	-9.4666	-24.035748	0.000193	1.929078	0.653589	-0.015651
1239	6.1900e-01	-9.4938	-24.121700	0.000212	2.118823	0.717877	-0.017191
1240	6.1950e-01	-9.5484	-24.181995	0.000149	1.486338	0.503585	-0.012059
1241	6.2000e-01	-9.5612	-24.285908	0.000256	2.561562	0.867881	-0.020783
1242	6.2050e-01	-9.6222	-24.360743	0.000184	1.844746	0.625017	-0.014967
1243	6.2100e-01	-9.6414	-24.463373	0.000253	2.529938	0.857166	-0.020526
1244	6.2150e-01	-9.7024	-24.523668	0.000149	1.486338	0.503585	-0.012059
1245	6.2200e-01	-9.7457	-24.605344	0.000201	2.013409	0.682161	-0.016335
1246	6.2250e-01	-9.7714	-24.702415	0.000239	2.392899	0.810736	-0.019414
1247	6.2300e-01	-9.8275	-24.759717	0.000141	1.412549	0.478584	-0.011460
1248	6.2350e-01	-9.8532	-24.858071	0.000242	2.424524	0.821451	-0.019671
1249	6.2400e-01	-9.9110	-24.941886	0.000207	2.066116	0.700019	-0.016763
1250	6.2450e-01	-9.9222	-25.021852	0.000197	1.971243	0.667875	-0.015993
1251	6.2500e-01	-9.9799	-25.109087	0.000215	2.150447	0.728591	-0.017447
1252	6.2550e-01	-10.0024	-25.197178	0.000217	2.171530	0.735734	-0.017618
1253	6.2600e-01	-10.0345	-25.289973	0.000229	2.287485	0.775021	-0.018559
1254	6.2650e-01	-10.1131	-25.363096	0.000180	1.802581	0.610731	-0.014625
1255	6.2700e-01	-10.1612	-25.427240	0.000158	1.581211	0.535729	-0.012829
1256	6.2750e-01	-10.1981	-25.502930	0.000187	1.865829	0.632160	-0.015138
1257	6.2800e-01	-10.2158	-25.605132	0.000252	2.519396	0.853595	-0.020440
1258	6.2850e-01	-10.2767	-25.676546	0.000176	1.760415	0.596445	-0.014283
1259	6.2900e-01	-10.3008	-25.769340	0.000229	2.287485	0.775021	-0.018559
1260	6.2950e-01	-10.3457	-25.846741	0.000191	1.907995	0.646446	-0.015480
1261	6.3000e-01	-10.3393	-25.942956	-0.000237	-2.371817	-0.803593	-0.019243
1262	6.3050e-01	-10.4115	-26.010094	0.000166	1.655001	0.560729	-0.013427
1263	6.3100e-01	-10.4436	-26.102033	0.000227	2.266403	0.767878	-0.018388
1264	6.3150e-01	-10.5061	-26.178578	0.000189	1.886912	0.639303	-0.015309
1265	6.3200e-01	-10.5382	-26.255550	0.000190	1.897453	0.642875	-0.015395
1266	6.3250e-01	-10.5847	-26.339365	0.000207	2.066116	0.700019	-0.016763
1267	6.3300e-01	-10.6425	-26.401371	0.000153	1.528504	0.517871	-0.012401
1268	6.3350e-01	-10.6409	-26.500580	-0.000245	-2.445606	-0.828594	-0.019842
1269	6.3400e-01	-10.7050	-26.569855	0.000171	1.707708	0.578587	-0.013855
1270	6.3450e-01	-10.7371	-26.661794	0.000227	2.266403	0.767878	-0.018388
1271	6.3500e-01	-10.7740	-26.734063	0.000178	1.781498	0.603588	-0.014454
1272	6.3550e-01	-10.8222	-26.825147	0.000225	2.245320	0.760735	-0.018217
1273	6.3600e-01	-10.8494	-26.904686	0.000196	1.960702	0.664304	-0.015908
1274	6.3650e-01	-10.8863	-26.978665	0.000182	1.823663	0.617874	-0.014796
1275	6.3700e-01	-10.9441	-27.059058	0.000198	1.981785	0.671447	-0.016079
1276	6.3750e-01	-10.9858	-27.143300	0.000208	2.076657	0.703591	-0.016848
1277	6.3800e-01	-11.0211	-27.211721	0.000169	1.686625	0.571444	-0.013684
1278	6.3850e-01	-11.0451	-27.298956	0.000215	2.150447	0.728591	-0.017447
1279	6.3900e-01	-11.0965	-27.384909	0.000212	2.118823	0.717877	-0.017191
1280	6.3950e-01	-11.1494	-27.445632	0.000150	1.496880	0.507157	-0.012145
1281	6.4000e-01	-11.1735	-27.550400	0.000258	2.582645	0.875024	-0.020954
1282	6.4050e-01	-11.2489	-27.602998	0.000130	1.296593	0.439298	-0.010520
1283	6.4100e-01	-11.2489	-27.700069	0.000239	2.392899	0.810736	-0.019414
1284	6.4150e-01	-11.2858	-27.790298	0.000222	2.224237	0.753592	-0.018046
1285	6.4200e-01	-11.3307	-27.858718	0.000169	1.686625	0.571444	-0.013684
1286	6.4250e-01	-11.3708	-27.934835	0.000188	1.876370	0.635732	-0.015223
1287	6.4300e-01	-11.4414	-28.010525	0.000187	1.865829	0.632160	-0.015138
1288	6.4350e-01	-11.4302	-28.102892	-0.000228	-2.276944	-0.771449	-0.018473
1289	6.4400e-01	-11.4671	-28.174305	0.000176	1.760415	0.596445	-0.014283
1290	6.4450e-01	-11.5248	-28.249567	0.000186	1.855288	0.628588	-0.015052
1291	6.4500e-01	-11.5649	-28.333382	0.000207	2.066116	0.700019	-0.016763
1292	6.4550e-01	-11.6339	-28.399236	0.000162	1.623377	0.550015	-0.013171
1293	6.4600e-01	-11.6483	-28.503576	0.000257	2.572103	0.871452	-0.020868
1294	6.4650e-01	-11.7366	-28.564727	0.000151	1.507421	0.510728	-0.012230
1295	6.4700e-01	-11.7414	-28.638278	0.000181	1.813122	0.614302	-0.014710
1296	6.4750e-01	-11.7863	-28.719100	0.000199	1.992326	0.675018	-0.016164
1297	6.4800e-01	-11.8184	-28.797783	0.000194	1.939619	0.657161	-0.015737
1298	6.4850e-01	-11.8793	-28.871334	0.000181	1.813122	0.614302	-0.014710
1299	6.4900e-01	-11.9034	-28.952155	0.000199	1.992326	0.675018	-0.016164
1300	6.4950e-01	-11.9419	-29.033404	0.000200	2.002867	0.678590	-0.016250
1301	6.5000e-01	-11.9820	-29.122350	0.000219	2.192613	0.742877	-0.017789
1302	6.5050e-01	-11.9997	-29.206592	0.000208	2.076657	0.703591	-0.016848
1303	6.5100e-01	-12.0301	-29.282282	0.000187	1.865829	0.632160	-0.015138
1304	6.5150e-01	-12.0959	-29.353696	0.000176	1.760415	0.596445	-0.014283
1305	6.5200e-01	-12.1424	-29.420405	0.000164	1.644460	0.557158	-0.013342
1306	6.5250e-01	-12.1986	-29.505075	0.000209	2.087199	0.707162	-0.016934
1307	6.5300e-01	-12.2371	-29.571357	0.000163	1.633918	0.553586	-0.013256
1308	6.5350e-01	-12.2435	-29.651323	0.000197	1.971243	0.667875	-0.015993
1309	6.5400e-01	-12.2483	-29.756519	0.000259	2.593186	0.878595	-0.021039
1310	6.5450e-01	-12.3462	-29.811682	0.000136	1.359842	0.460727	-0.011033
1311	6.5500e-01	-12.3847	-29.891648	0.000197	1.971243	0.667875	-0.015993
1312	6.5550e-01	-12.4184	-29.967765	0.000188	1.876370	0.635732	-0.015223
1313	6.5600e-01	-12.4569	-30.049869	0.000202	2.023950	0.685733	-0.016421
1314	6.5650e-01	-12.5002	-30.117434	0.000167	1.665542	0.564301	-0.013513
1315	6.5700e-01	-12.5451	-30.192696	0.000186	1.855288	0.628588	-0.015052
1316	6.5750e-01	-12.5932	-30.267958	0.000186	1.855288	0.628588	-0.015052
1317	6.5800e-01	-12.6173	-30.359043	0.000225	2.245320	0.760735	-0.018217
1318	6.5850e-01	-12.6510	-30.433022	0.000182	1.823663	0.617874	-0.014796
1319	6.5900e-01	-12.6943	-30.491606	0.000144	1.444173	0.489299	-0.011717
1320	6.5950e-01	-12.7248	-30.597657	0.000261	2.614269	0.885738	-0.021210
1321	6.6000e-01	-12.7841	-30.648972	0.000126	1.264969	0.428583	-0.010263
1322	6.6050e-01	-12.8018	-30.737491	0.000218	2.182071	0.739306	-0.017704
1323	6.6100e-01	-12.8435	-30.820023	0.000203	2.034492	0.689304	-0.016506
1324	6.6150e-01	-12.8595	-30.929922	0.000271	2.709142	0.917882	-0.021980
1325	6.6200e-01	-12.9494	-30.959001	0.000072	0.716816	0.242864	-0.005816
1326	6.6250e-01	-12.9542	-31.033835	0.000184	1.844746	0.625017	-0.014967
1327	6.6300e-01	-13.0328	-31.114656	0.000199	1.992326	0.675018	-0.016164
1328	6.6350e-01	-13.0456	-31.186070	0.000176	1.760415	0.596445	-0.014283
1329	6.6400e-01	-13.1210	-31.262615	0.000189	1.886912	0.639303	-0.015309
1330	6.6450e-01	-13.1419	-31.345574	0.000205	2.045033	0.692876	-0.016592
1331	6.6500e-01	-13.1948	-31.411001	0.000161	1.612835	0.546443	-0.013085
1332	6.6550e-01	-13.2173	-31.497381	0.000213	2.129364	0.721448	-0.017276
1333	6.6600e-01	-13.2638	-31.566229	0.000170	1.697167	0.575016	-0.013770
1334	6.6650e-01	-13.3039	-31.653037	0.000214	2.139906	0.725020	-0.017362
1335	6.6700e-01	-13.3296	-31.720601	0.000167	1.665542	0.564301	-0.013513
1336	6.6750e-01	-13.3568	-31.798857	0.000193	1.929078	0.653589	-0.015651
1337	6.6800e-01	-13.4226	-31.856586	0.000142	1.423090	0.482156	-0.011546
1338	6.6850e-01	-13.4419	-31.957933	0.000250	2.498314	0.846452	-0.020269
1339	6.6900e-01	-13.4916	-32.015235	0.000141	1.412549	0.478584	-0.011460
1340	6.6950e-01	-13.5381	-32.088359	0.000180	1.802581	0.610731	-0.014625
1341	6.7000e-01	-13.5574	-32.167897	0.000196	1.960702	0.664304	-0.015908
1342	6.7050e-01	-13.6167	-32.247436	0.000196	1.960702	0.664304	-0.015908
1343	6.7100e-01	-13.6456	-32.332961	0.000211	2.108281	0.714305	-0.017105
1344	6.7150e-01	-13.7082	-32.392828	0.000148	1.475797	0.500014	-0.011974
1345	6.7200e-01	-13.7531	-32.469373	0.000189	1.886912	0.639303	-0.015309
1346	6.7250e-01	-13.7643	-32.558747	0.000220	2.203154	0.746449	-0.017875
1347	6.7300e-01	-13.8140	-32.622036	0.000156	1.560128	0.528586	-0.012658
1348	6.7350e-01	-13.8542	-32.691311	0.000171	1.707708	0.578587	-0.013855
1349	6.7400e-01	-13.9087	-32.765718	0.000183	1.834205	0.621445	-0.014881
1350	6.7450e-01	-13.9328	-32.852526	0.000214	2.139906	0.725020	-0.017362
1351	6.7500e-01	-13.9729	-32.933774	0.000200	2.002867	0.678590	-0.016250
1352	6.7550e-01	-14.0178	-32.990221	0.000139	1.391466	0.471441	-0.011289
1353	6.7600e-01	-14.0707	-33.071470	0.000200	2.002867	0.678590	-0.016250
1354	6.7650e-01	-14.1076	-33.143311	0.000177	1.770956	0.600016	-0.014368
1355	6.7700e-01	-14.1349	-33.212158	0.000170	1.697167	0.575016	-0.013770
1356	6.7750e-01	-14.1702	-33.291269	0.000195	1.950160	0.660732	-0.015822
1357	6.7800e-01	-14.2007	-33.356696	0.000161	1.612835	0.546443	-0.013085
1358	6.7850e-01	-14.2424	-33.439227	0.000203	2.034492	0.689304	-0.016506
1359	6.7900e-01	-14.2857	-33.516200	0.000190	1.897453	0.642875	-0.015395
1360	6.7950e-01	-14.2889	-33.597021	0.000199	1.992326	0.675018	-0.016164
1361	6.8000e-01	-14.3771	-33.669290	0.000178	1.781498	0.603588	-0.014454
1362	6.8050e-01	-14.4092	-33.727874	0.000144	1.444173	0.489299	-0.011717
1363	6.8100e-01	-14.4846	-33.802281	0.000183	1.834205	0.621445	-0.014881
1364	6.8150e-01	-14.4814	-33.906622	-0.000257	-2.572103	-0.871452	-0.020868
1365	6.8200e-01	-14.5600	-33.948957	0.000104	1.043599	0.353581	-0.008467
1366	6.8250e-01	-14.5584	-34.026785	-0.000192	-1.918536	-0.650018	-0.015566
1367	6.8300e-01	-14.6386	-34.091784	0.000160	1.602294	0.542872	-0.013000
1368	6.8350e-01	-14.6450	-34.167046	0.000186	1.855288	0.628588	-0.015052
1369	6.8400e-01	-14.7028	-34.250860	0.000207	2.066116	0.700019	-0.016763
1370	6.8450e-01	-14.7429	-34.303886	0.000131	1.307134	0.442869	-0.010605
1371	6.8500e-01	-14.7846	-34.369312	0.000161	1.612835	0.546443	-0.013085
1372	6.8550e-01	-14.8007	-34.456120	0.000214	2.139906	0.725020	-0.017362
1373	6.8600e-01	-14.8777	-34.520264	0.000158	1.581211	0.535729	-0.012829
1374	6.8650e-01	-14.8825	-34.605789	0.000211	2.108281	0.714305	-0.017105
1375	6.8700e-01	-14.9290	-34.687038	0.000200	2.002867	0.678590	-0.016250
1376	6.8750e-01	-14.9691	-34.753748	0.000164	1.644460	0.557158	-0.013342
1377	6.8800e-01	-15.0429	-34.809766	0.000138	1.380924	0.467870	-0.011204
1378	6.8850e-01	-15.0670	-34.898285	0.000218	2.182071	0.739306	-0.017704
1379	6.8900e-01	-15.0974	-34.973975	0.000187	1.865829	0.632160	-0.015138
1380	6.8950e-01	-15.1295	-35.041539	0.000167	1.665542	0.564301	-0.013513
1381	6.9000e-01	-15.1857	-35.104828	0.000156	1.560128	0.528586	-0.012658
1382	6.9050e-01	-15.2418	-35.182228	0.000191	1.907995	0.646446	-0.015480
1383	6.9100e-01	-15.2755	-35.241240	0.000145	1.454714	0.492871	-0.011802
1384	6.9150e-01	-15.2579	-35.341305	-0.000247	-2.466689	-0.835737	-0.020013
1385	6.9200e-01	-15.3429	-35.400317	0.000145	1.454714	0.492871	-0.011802
1386	6.9250e-01	-15.3766	-35.477717	0.000191	1.907995	0.646446	-0.015480
1387	6.9300e-01	-15.4103	-35.539295	0.000152	1.517963	0.514300	-0.012316
1388	6.9350e-01	-15.4456	-35.628241	0.000219	2.192613	0.742877	-0.017789
1389	6.9400e-01	-15.4921	-35.692385	0.000158	1.581211	0.535729	-0.012829
1390	6.9450e-01	-15.5290	-35.764226	0.000177	1.770956	0.600016	-0.014368
1391	6.9500e-01	-15.5530	-35.844620	0.000198	1.981785	0.671447	-0.016079
1392	6.9550e-01	-15.6076	-35.914323	0.000172	1.718249	0.582159	-0.013941
1393	6.9600e-01	-15.6653	-35.976756	0.000154	1.539045	0.521443	-0.012487
1394	6.9650e-01	-15.6878	-36.052018	0.000186	1.855288	0.628588	-0.015052
1395	6.9700e-01	-15.7343	-36.123431	0.000176	1.760415	0.596445	-0.014283
1396	6.9750e-01	-15.7760	-36.186292	0.000155	1.549587	0.525014	-0.012572
1397	6.9800e-01	-15.8209	-36.266258	0.000197	1.971243	0.667875	-0.015993
1398	6.9850e-01	-15.8514	-36.347935	0.000201	2.013409	0.682161	-0.016335
1399	6.9900e-01	-15.8996	-36.407802	0.000148	1.475797	0.500014	-0.011974
1400	6.9950e-01	-15.9364	-36.471946	0.000158	1.581211	0.535729	-0.012829
1401	7.0000e-01	-16.0118	-36.530103	0.000143	1.433631	0.485727	-0.011631
1402	7.0050e-01	-16.0118	-36.619049	0.000219	2.192613	0.742877	-0.017789
1403	7.0100e-01	-16.0520	-36.703291	0.000208	2.076657	0.703591	-0.016848
1404	7.0150e-01	-16.1274	-36.758027	0.000135	1.349300	0.457155	-0.010947
1405	7.0200e-01	-16.1306	-36.848684	0.000223	2.234778	0.757163	-0.018131
1406	7.0250e-01	-16.1979	-36.898288	0.000122	1.222803	0.414297	-0.009921
1407	7.0300e-01	-16.2380	-36.965425	0.000166	1.655001	0.560729	-0.013427
1408	7.0350e-01	-16.2525	-37.046247	0.000199	1.992326	0.675018	-0.016164
1409	7.0400e-01	-16.2685	-37.130061	0.000207	2.066116	0.700019	-0.016763
1410	7.0450e-01	-16.3407	-37.183514	0.000132	1.317676	0.446441	-0.010691
1411	7.0500e-01	-16.3969	-37.245092	0.000152	1.517963	0.514300	-0.012316
1412	7.0550e-01	-16.4289	-37.313085	0.000168	1.676084	0.567873	-0.013598
1413	7.0600e-01	-16.4578	-37.394334	0.000200	2.002867	0.678590	-0.016250
1414	7.0650e-01	-16.5060	-37.467885	0.000181	1.813122	0.614302	-0.014710
1415	7.0700e-01	-16.5557	-37.548279	0.000198	1.981785	0.671447	-0.016079
1416	7.0750e-01	-16.5846	-37.602159	0.000133	1.328217	0.450012	-0.010776
1417	7.0800e-01	-16.6199	-37.690678	0.000218	2.182071	0.739306	-0.017704
1418	7.0850e-01	-16.6535	-37.756532	0.000162	1.623377	0.550015	-0.013171
1419	7.0900e-01	-16.7017	-37.831794	0.000186	1.855288	0.628588	-0.015052
1420	7.0950e-01	-16.7273	-37.904918	0.000180	1.802581	0.610731	-0.014625
1421	7.1000e-01	-16.7626	-37.977187	0.000178	1.781498	0.603588	-0.014454
1422	7.1050e-01	-16.8059	-38.039620	0.000154	1.539045	0.521443	-0.012487
1423	7.1100e-01	-16.8477	-38.110178	0.000174	1.739332	0.589302	-0.014112
1424	7.1150e-01	-16.9150	-38.173039	0.000155	1.549587	0.525014	-0.012572
1425	7.1200e-01	-16.9391	-38.247018	0.000182	1.823663	0.617874	-0.014796
1426	7.1250e-01	-16.9712	-38.313728	0.000164	1.644460	0.557158	-0.013342
1427	7.1300e-01	-16.9968	-38.386424	0.000179	1.792039	0.607159	-0.014539
1428	7.1350e-01	-17.0450	-38.458265	0.000177	1.770956	0.600016	-0.014368
1429	7.1400e-01	-17.0947	-38.527968	0.000172	1.718249	0.582159	-0.013941
1430	7.1450e-01	-17.1476	-38.593822	0.000162	1.623377	0.550015	-0.013171
1431	7.1500e-01	-17.1749	-38.670367	0.000189	1.886912	0.639303	-0.015309
1432	7.1550e-01	-17.2246	-38.735794	0.000161	1.612835	0.546443	-0.013085
1433	7.1600e-01	-17.2567	-38.814477	0.000194	1.939619	0.657161	-0.015737
1434	7.1650e-01	-17.3129	-38.875200	0.000150	1.496880	0.507157	-0.012145
1435	7.1700e-01	-17.3482	-38.951317	0.000188	1.876370	0.635732	-0.015223
1436	7.1750e-01	-17.3642	-39.017171	0.000162	1.623377	0.550015	-0.013171
1437	7.1800e-01	-17.4316	-39.084736	0.000167	1.665542	0.564301	-0.013513
1438	7.1850e-01	-17.4476	-39.158288	0.000181	1.813122	0.614302	-0.014710
1439	7.1900e-01	-17.5038	-39.226280	0.000168	1.676084	0.567873	-0.013598
1440	7.1950e-01	-17.5182	-39.306674	0.000198	1.981785	0.671447	-0.016079
1441	7.2000e-01	-17.5904	-39.362265	0.000137	1.370383	0.464298	-0.011118
1442	7.2050e-01	-17.6145	-39.431540	0.000171	1.707708	0.578587	-0.013855
1443	7.2100e-01	-17.6594	-39.503809	0.000178	1.781498	0.603588	-0.014454
1444	7.2150e-01	-17.6995	-39.584203	0.000198	1.981785	0.671447	-0.016079
1445	7.2200e-01	-17.7573	-39.644070	0.000148	1.475797	0.500014	-0.011974
1446	7.2250e-01	-17.7412	-39.721043	-0.000190	-1.897453	-0.642875	-0.015395
1447	7.2300e-01	-17.8118	-39.794167	0.000180	1.802581	0.610731	-0.014625
1448	7.2350e-01	-17.8551	-39.848047	0.000133	1.328217	0.450012	-0.010776
1449	7.2400e-01	-17.8920	-39.925448	0.000191	1.907995	0.646446	-0.015480
1450	7.2450e-01	-17.9369	-39.991302	0.000162	1.623377	0.550015	-0.013171
1451	7.2500e-01	-17.9722	-40.076827	0.000211	2.108281	0.714305	-0.017105
1452	7.2550e-01	-18.0027	-40.131135	0.000134	1.338759	0.453584	-0.010862
1453	7.2600e-01	-18.0845	-40.204259	0.000180	1.802581	0.610731	-0.014625
1454	7.2650e-01	-18.0957	-40.276956	0.000179	1.792039	0.607159	-0.014539
1455	7.2700e-01	-18.1567	-40.333402	0.000139	1.391466	0.471441	-0.011289
1456	7.2750e-01	-18.1711	-40.419782	0.000213	2.129364	0.721448	-0.017276
1457	7.2800e-01	-18.2193	-40.471953	0.000129	1.286052	0.435726	-0.010434
1458	7.2850e-01	-18.2305	-40.557905	0.000212	2.118823	0.717877	-0.017191
1459	7.2900e-01	-18.3027	-40.618201	0.000149	1.486338	0.503585	-0.012059
1460	7.2950e-01	-18.3444	-40.690469	0.000178	1.781498	0.603588	-0.014454
1461	7.3000e-01	-18.4038	-40.750764	0.000149	1.486338	0.503585	-0.012059
1462	7.3050e-01	-18.4150	-40.819612	0.000170	1.697167	0.575016	-0.013770
1463	7.3100e-01	-18.4487	-40.911124	0.000226	2.255861	0.764306	-0.018302
1464	7.3150e-01	-18.5145	-40.971847	0.000150	1.496880	0.507157	-0.012145
1465	7.3200e-01	-18.5241	-41.047109	0.000186	1.855288	0.628588	-0.015052
1466	7.3250e-01	-18.5770	-41.104838	0.000142	1.423090	0.482156	-0.011546
1467	7.3300e-01	-18.6219	-41.179673	0.000184	1.844746	0.625017	-0.014967
1468	7.3350e-01	-18.6829	-41.246382	0.000164	1.644460	0.557158	-0.013342
1469	7.3400e-01	-18.7182	-41.316513	0.000173	1.728791	0.585730	-0.014026
1470	7.3450e-01	-18.7423	-41.391775	0.000186	1.855288	0.628588	-0.015052
1471	7.3500e-01	-18.7679	-41.467464	0.000187	1.865829	0.632160	-0.015138
1472	7.3550e-01	-18.8128	-41.534174	0.000164	1.644460	0.557158	-0.013342
1473	7.3600e-01	-18.8786	-41.594469	0.000149	1.486338	0.503585	-0.012059
1474	7.3650e-01	-18.8834	-41.674435	0.000197	1.971243	0.667875	-0.015993
1475	7.3700e-01	-18.9332	-41.740289	0.000162	1.623377	0.550015	-0.013171
1476	7.3750e-01	-18.9877	-41.811703	0.000176	1.760415	0.596445	-0.014283
1477	7.3800e-01	-19.0070	-41.895517	0.000207	2.066116	0.700019	-0.016763
1478	7.3850e-01	-19.0599	-41.948543	0.000131	1.307134	0.442869	-0.010605
1479	7.3900e-01	-19.0647	-42.031502	0.000205	2.045033	0.692876	-0.016592
1480	7.3950e-01	-19.1241	-42.104626	0.000180	1.802581	0.610731	-0.014625
1481	7.4000e-01	-19.1754	-42.157224	0.000130	1.296593	0.439298	-0.010520
1482	7.4050e-01	-19.2155	-42.232914	0.000187	1.865829	0.632160	-0.015138
1483	7.4100e-01	-19.2460	-42.306465	0.000181	1.813122	0.614302	-0.014710
1484	7.4150e-01	-19.3166	-42.362056	0.000137	1.370383	0.464298	-0.011118
1485	7.4200e-01	-19.3021	-42.480509	-0.000292	-2.919970	-0.989313	-0.023690
1486	7.4250e-01	-19.3759	-42.515146	0.000085	0.853854	0.289294	-0.006928
1487	7.4300e-01	-19.4224	-42.573731	0.000144	1.444173	0.489299	-0.011717
1488	7.4350e-01	-19.4802	-42.649421	0.000187	1.865829	0.632160	-0.015138
1489	7.4400e-01	-19.5027	-42.718696	0.000171	1.707708	0.578587	-0.013855
1490	7.4450e-01	-19.5540	-42.778991	0.000149	1.486338	0.503585	-0.012059
1491	7.4500e-01	-19.5797	-42.854681	0.000187	1.865829	0.632160	-0.015138
1492	7.4550e-01	-19.5909	-42.926949	0.000178	1.781498	0.603588	-0.014454
1493	7.4600e-01	-19.6583	-43.003922	0.000190	1.897453	0.642875	-0.015395
1494	7.4650e-01	-19.6839	-43.071914	0.000168	1.676084	0.567873	-0.013598
1495	7.4700e-01	-19.7321	-43.147604	0.000187	1.865829	0.632160	-0.015138
1496	7.4750e-01	-19.7770	-43.214314	0.000164	1.644460	0.557158	-0.013342
1497	7.4800e-01	-19.8043	-43.283161	0.000170	1.697167	0.575016	-0.013770
1498	7.4850e-01	-19.8716	-43.348588	0.000161	1.612835	0.546443	-0.013085
1499	7.4900e-01	-19.9053	-43.418291	0.000172	1.718249	0.582159	-0.013941
1500	7.4950e-01	-19.9133	-43.498257	0.000197	1.971243	0.667875	-0.015993
1501	7.5000e-01	-19.9615	-43.565822	0.000167	1.665542	0.564301	-0.013513
1502	7.5050e-01	-19.9230	-43.568387	-0.000006	-0.063248	-0.021429	-0.000513
1503	7.5100e-01	-19.8941	-43.529046	0.000097	0.969809	0.328580	0.007868
1504	7.5150e-01	-19.7914	-43.493553	0.000087	0.874937	0.296437	0.007099
1505	7.5200e-01	-19.7898	-43.432830	0.000150	1.496880	0.507157	0.012145
1506	7.5250e-01	-19.7433	-43.373818	0.000145	1.454714	0.492871	0.011802
1507	7.5300e-01	-19.7176	-43.325496	0.000119	1.191179	0.403582	0.009664
1508	7.5350e-01	-19.6823	-43.262635	0.000155	1.549587	0.525014	0.012572
1509	7.5400e-01	-19.6117	-43.223294	0.000097	0.969809	0.328580	0.007868
1510	7.5450e-01	-19.5925	-43.162999	0.000149	1.486338	0.503585	0.012059
1511	7.5500e-01	-19.5412	-43.109973	0.000131	1.307134	0.442869	0.010605
1512	7.5550e-01	-19.5155	-43.053954	0.000138	1.380924	0.467870	0.011204
1513	7.5600e-01	-19.4706	-42.997935	0.000138	1.380924	0.467870	0.011204
1514	7.5650e-01	-19.4642	-42.929943	0.000168	1.676084	0.567873	0.013598
1515	7.5700e-01	-19.3807	-42.885042	0.000111	1.106848	0.375010	0.008980
1516	7.5750e-01	-19.3759	-42.823464	0.000152	1.517963	0.514300	0.012316
1517	7.5800e-01	-19.3069	-42.767018	0.000139	1.391466	0.471441	0.011289
1518	7.5850e-01	-19.3134	-42.676361	-0.000223	-2.234778	-0.757163	0.018131
1519	7.5900e-01	-19.2267	-42.656690	0.000048	0.484905	0.164290	0.003934
1520	7.5950e-01	-19.1962	-42.591691	0.000160	1.602294	0.542872	0.013000
1521	7.6000e-01	-19.1401	-42.549784	0.000103	1.033058	0.350009	0.008381
1522	7.6050e-01	-19.0984	-42.489061	0.000150	1.496880	0.507157	0.012145
1523	7.6100e-01	-19.0840	-42.418503	0.000174	1.739332	0.589302	0.014112
1524	7.6150e-01	-19.0727	-42.353932	0.000159	1.591752	0.539300	0.012914
1525	7.6200e-01	-19.0102	-42.289788	0.000158	1.581211	0.535729	0.012829
1526	7.6250e-01	-18.9540	-42.247880	0.000103	1.033058	0.350009	0.008381
1527	7.6300e-01	-18.9091	-42.194855	0.000131	1.307134	0.442869	0.010605
1528	7.6350e-01	-18.8642	-42.126435	0.000169	1.686625	0.571444	0.013684
1529	7.6400e-01	-18.8417	-42.062291	0.000158	1.581211	0.535729	0.012829
1530	7.6450e-01	-18.7968	-42.002851	0.000147	1.465256	0.496442	0.011888
1531	7.6500e-01	-18.7342	-41.942984	0.000148	1.475797	0.500014	0.011974
1532	7.6550e-01	-18.6957	-41.899366	0.000108	1.075224	0.364296	0.008724
1533	7.6600e-01	-18.6989	-41.813413	-0.000212	-2.118823	-0.717877	0.017191
1534	7.6650e-01	-18.6251	-41.752690	0.000150	1.496880	0.507157	0.012145
1535	7.6700e-01	-18.6011	-41.701375	0.000126	1.264969	0.428583	0.010263
1536	7.6750e-01	-18.5241	-41.651771	0.000122	1.222803	0.414297	0.009921
1537	7.6800e-01	-18.5273	-41.588055	-0.000157	-1.570670	-0.532157	0.012743
1538	7.6850e-01	-18.4984	-41.504668	0.000206	2.055574	0.696447	0.016677
1539	7.6900e-01	-18.4102	-41.472168	0.000080	0.801147	0.271436	0.006500
1540	7.6950e-01	-18.4054	-41.402893	0.000171	1.707708	0.578587	0.013855
1541	7.7000e-01	-18.3556	-41.343025	0.000148	1.475797	0.500014	0.011974
1542	7.7050e-01	-18.3268	-41.267763	0.000186	1.855288	0.628588	0.015052
1543	7.7100e-01	-18.2802	-41.209606	0.000143	1.433631	0.485727	0.011631
1544	7.7150e-01	-18.2305	-41.141186	0.000169	1.686625	0.571444	0.013684
1545	7.7200e-01	-18.1952	-41.087305	0.000133	1.328217	0.450012	0.010776
1546	7.7250e-01	-18.1439	-41.034280	0.000131	1.307134	0.442869	0.010605
1547	7.7300e-01	-18.0877	-40.978689	0.000137	1.370383	0.464298	0.011118
1548	7.7350e-01	-18.0733	-40.907275	0.000176	1.760415	0.596445	0.014283
1549	7.7400e-01	-18.0236	-40.838855	0.000169	1.686625	0.571444	0.013684
1550	7.7450e-01	-17.9851	-40.783264	0.000137	1.370383	0.464298	0.011118
1551	7.7500e-01	-17.9498	-40.725107	0.000143	1.433631	0.485727	0.011631
1552	7.7550e-01	-17.9161	-40.653266	0.000177	1.770956	0.600016	0.014368
1553	7.7600e-01	-17.8712	-40.589122	0.000158	1.581211	0.535729	0.012829
1554	7.7650e-01	-17.8535	-40.523268	0.000162	1.623377	0.550015	0.013171
1555	7.7700e-01	-17.8086	-40.460834	0.000154	1.539045	0.521443	0.012487
1556	7.7750e-01	-17.7284	-40.413368	0.000117	1.170096	0.396439	0.009493
1557	7.7800e-01	-17.7107	-40.338534	0.000184	1.844746	0.625017	0.014967
1558	7.7850e-01	-17.6883	-40.267975	0.000174	1.739332	0.589302	0.014112
1559	7.7900e-01	-17.6273	-40.210246	0.000142	1.423090	0.482156	0.011546
1560	7.7950e-01	-17.5952	-40.151234	0.000145	1.454714	0.492871	0.011802
1561	7.8000e-01	-17.5439	-40.087090	0.000158	1.581211	0.535729	0.012829
1562	7.8050e-01	-17.5022	-40.024657	0.000154	1.539045	0.521443	0.012487
1563	7.8100e-01	-17.4701	-39.950677	0.000182	1.823663	0.617874	0.014796
1564	7.8150e-01	-17.4557	-39.891238	0.000147	1.465256	0.496442	0.011888
1565	7.8200e-01	-17.3899	-39.837357	0.000133	1.328217	0.450012	0.010776
1566	7.8250e-01	-17.3610	-39.762522	0.000184	1.844746	0.625017	0.014967
1567	7.8300e-01	-17.3321	-39.692819	0.000172	1.718249	0.582159	0.013941
1568	7.8350e-01	-17.2744	-39.634235	0.000144	1.444173	0.489299	0.011717
1569	7.8400e-01	-17.2471	-39.583347	0.000125	1.254427	0.425012	0.010177
1570	7.8450e-01	-17.1781	-39.510223	0.000180	1.802581	0.610731	0.014625
1571	7.8500e-01	-17.1268	-39.451639	0.000144	1.444173	0.489299	0.011717
1572	7.8550e-01	-17.1156	-39.389633	0.000153	1.528504	0.517871	0.012401
1573	7.8600e-01	-17.0722	-39.331904	0.000142	1.423090	0.482156	0.011546
1574	7.8650e-01	-17.0353	-39.262201	0.000172	1.718249	0.582159	0.013941
1575	7.8700e-01	-17.0209	-39.176248	0.000212	2.118823	0.717877	0.017191
1576	7.8750e-01	-16.9712	-39.115098	0.000151	1.507421	0.510728	0.012230
1577	7.8800e-01	-16.9263	-39.059506	0.000137	1.370383	0.464298	0.011118
1578	7.8850e-01	-16.8829	-38.985527	0.000182	1.823663	0.617874	0.014796
1579	7.8900e-01	-16.8477	-38.920528	0.000160	1.602294	0.542872	0.013000
1580	7.8950e-01	-16.8124	-38.861944	0.000144	1.444173	0.489299	0.011717
1581	7.9000e-01	-16.7642	-38.794379	0.000167	1.665542	0.564301	0.013513
1582	7.9050e-01	-16.6808	-38.740498	0.000133	1.328217	0.450012	0.010776
1583	7.9100e-01	-16.6792	-38.668657	0.000177	1.770956	0.600016	0.014368
1584	7.9150e-01	-16.6263	-38.599382	0.000171	1.707708	0.578587	0.013855
1585	7.9200e-01	-16.5765	-38.551060	0.000119	1.191179	0.403582	0.009664
1586	7.9250e-01	-16.5428	-38.475370	0.000187	1.865829	0.632160	0.015138
1587	7.9300e-01	-16.5300	-38.400536	0.000184	1.844746	0.625017	0.014967
1588	7.9350e-01	-16.4739	-38.329550	0.000175	1.749874	0.592873	0.014197
1589	7.9400e-01	-16.4338	-38.268400	0.000151	1.507421	0.510728	0.012230
1590	7.9450e-01	-16.3953	-38.214091	0.000134	1.338759	0.453584	0.010862
1591	7.9500e-01	-16.3535	-38.137546	0.000189	1.886912	0.639303	0.015309
1592	7.9550e-01	-16.3247	-38.070409	0.000166	1.655001	0.560729	0.013427
1593	7.9600e-01	-16.2669	-37.998996	0.000176	1.760415	0.596445	0.014283
1594	7.9650e-01	-16.2332	-37.942122	0.000140	1.402007	0.475013	0.011375
1595	7.9700e-01	-16.1931	-37.879688	0.000154	1.539045	0.521443	0.012487
1596	7.9750e-01	-16.1642	-37.802716	0.000190	1.897453	0.642875	0.015395
1597	7.9800e-01	-16.1402	-37.733440	0.000171	1.707708	0.578587	0.013855
1598	7.9850e-01	-16.0696	-37.671435	0.000153	1.528504	0.517871	0.012401
1599	7.9900e-01	-16.0215	-37.617126	0.000134	1.338759	0.453584	0.010862
1600	7.9950e-01	-15.9733	-37.570515	0.000115	1.149013	0.389296	0.009322
1601	8.0000e-01	-15.9525	-37.480286	0.000222	2.224237	0.753592	0.018046
1602	8.0050e-01	-15.8931	-37.423840	0.000139	1.391466	0.471441	0.011289
1603	8.0100e-01	-15.8578	-37.354564	0.000171	1.707708	0.578587	0.013855
1604	8.0150e-01	-15.8402	-37.278875	0.000187	1.865829	0.632160	0.015138
1605	8.0200e-01	-15.7889	-37.223283	0.000137	1.370383	0.464298	0.011118
1606	8.0250e-01	-15.7552	-37.145028	0.000193	1.929078	0.653589	0.015651
1607	8.0300e-01	-15.7199	-37.080457	0.000159	1.591752	0.539300	0.012914
1608	8.0350e-01	-15.6814	-37.012892	0.000167	1.665542	0.564301	0.013513
1609	8.0400e-01	-15.6589	-36.936775	0.000188	1.876370	0.635732	0.015223
1610	8.0450e-01	-15.5915	-36.884177	0.000130	1.296593	0.439298	0.010520
1611	8.0500e-01	-15.5659	-36.807632	0.000189	1.886912	0.639303	0.015309
1612	8.0550e-01	-15.4937	-36.749047	0.000144	1.444173	0.489299	0.011717
1613	8.0600e-01	-15.4568	-36.683193	0.000162	1.623377	0.550015	0.013171
1614	8.0650e-01	-15.4391	-36.616056	0.000166	1.655001	0.560729	0.013427
1615	8.0700e-01	-15.4006	-36.533524	0.000203	2.034492	0.689304	0.016506
1616	8.0750e-01	-15.3605	-36.476650	0.000140	1.402007	0.475013	0.011375
1617	8.0800e-01	-15.3156	-36.415927	0.000150	1.496880	0.507157	0.012145
1618	8.0850e-01	-15.2675	-36.342803	0.000180	1.802581	0.610731	0.014625
1619	8.0900e-01	-15.2194	-36.275238	0.000167	1.665542	0.564301	0.013513
1620	8.0950e-01	-15.1760	-36.211522	0.000157	1.570670	0.532157	0.012743
1621	8.1000e-01	-15.1488	-36.138398	0.000180	1.802581	0.610731	0.014625
1622	8.1050e-01	-15.0798	-36.068695	0.000172	1.718249	0.582159	0.013941
1623	8.1100e-01	-15.0493	-36.012249	0.000139	1.391466	0.471441	0.011289
1624	8.1150e-01	-15.0365	-35.916033	0.000237	2.371817	0.803593	0.019243
1625	8.1200e-01	-14.9579	-35.877119	0.000096	0.959268	0.325009	0.007783
1626	8.1250e-01	-14.9723	-35.779621	-0.000240	-2.403441	-0.814308	0.019500
1627	8.1300e-01	-14.8921	-35.737713	0.000103	1.033058	0.350009	0.008381
1628	8.1350e-01	-14.8777	-35.657320	0.000198	1.981785	0.671447	0.016079
1629	8.1400e-01	-14.8199	-35.579492	0.000192	1.918536	0.650018	0.015566
1630	8.1450e-01	-14.7622	-35.523473	0.000138	1.380924	0.467870	0.011204
1631	8.1500e-01	-14.7413	-35.452915	0.000174	1.739332	0.589302	0.014112
1632	8.1550e-01	-14.7188	-35.376798	0.000188	1.876370	0.635732	0.015223
1633	8.1600e-01	-14.6835	-35.307950	0.000170	1.697167	0.575016	0.013770
1634	8.1650e-01	-14.6290	-35.235254	0.000179	1.792039	0.607159	0.014539
1635	8.1700e-01	-14.5680	-35.181800	0.000132	1.317676	0.446441	0.010691
1636	8.1750e-01	-14.5311	-35.109532	0.000178	1.781498	0.603588	0.014454
1637	8.1800e-01	-14.4878	-35.034697	0.000184	1.844746	0.625017	0.014967
1638	8.1850e-01	-14.4702	-34.956442	0.000193	1.929078	0.653589	0.015651
1639	8.1900e-01	-14.4397	-34.896574	0.000148	1.475797	0.500014	0.011974
1640	8.1950e-01	-14.3755	-34.836279	0.000149	1.486338	0.503585	0.012059
1641	8.2000e-01	-14.3434	-34.768714	0.000167	1.665542	0.564301	0.013513
1642	8.2050e-01	-14.3210	-34.685755	0.000205	2.045033	0.692876	0.016592
1643	8.2100e-01	-14.2664	-34.622894	0.000155	1.549587	0.525014	0.012572
1644	8.2150e-01	-14.2151	-34.558323	0.000159	1.591752	0.539300	0.012914
1645	8.2200e-01	-14.1894	-34.476219	0.000202	2.023950	0.685733	0.016421
1646	8.2250e-01	-14.1381	-34.412503	0.000157	1.570670	0.532157	0.012743
1647	8.2300e-01	-14.1060	-34.338951	0.000181	1.813122	0.614302	0.014710
1648	8.2350e-01	-14.0804	-34.262834	0.000188	1.876370	0.635732	0.015223
1649	8.2400e-01	-14.0386	-34.185434	0.000191	1.907995	0.646446	0.015480
1650	8.2450e-01	-13.9809	-34.137112	0.000119	1.191179	0.403582	0.009664
1651	8.2500e-01	-13.9648	-34.053297	0.000207	2.066116	0.700019	0.016763
1652	8.2550e-01	-13.8959	-33.990009	0.000156	1.560128	0.528586	0.012658
1653	8.2600e-01	-13.8718	-33.929286	0.000150	1.496880	0.507157	0.012145
1654	8.2650e-01	-13.8124	-33.854024	0.000186	1.855288	0.628588	0.015052
1655	8.2700e-01	-13.7723	-33.784321	0.000172	1.718249	0.582159	0.013941
1656	8.2750e-01	-13.7579	-33.710769	0.000181	1.813122	0.614302	0.014710
1657	8.2800e-01	-13.6969	-33.649191	0.000152	1.517963	0.514300	0.012316
1658	8.2850e-01	-13.6520	-33.583765	0.000161	1.612835	0.546443	0.013085
1659	8.2900e-01	-13.6360	-33.488832	0.000234	2.340192	0.792879	0.018987
1660	8.2950e-01	-13.5895	-33.414425	0.000183	1.834205	0.621445	0.014881
1661	8.3000e-01	-13.5381	-33.367814	0.000115	1.149013	0.389296	0.009322
1662	8.3050e-01	-13.5301	-33.281434	0.000213	2.129364	0.721448	0.017276
1663	8.3100e-01	-13.4916	-33.202323	0.000195	1.950160	0.660732	0.015822
1664	8.3150e-01	-13.4178	-33.144166	0.000143	1.433631	0.485727	0.011631
1665	8.3200e-01	-13.3921	-33.065911	0.000193	1.929078	0.653589	0.015651
1666	8.3250e-01	-13.3392	-33.002622	0.000156	1.560128	0.528586	0.012658
1667	8.3300e-01	-13.2927	-32.934202	0.000169	1.686625	0.571444	0.013684
1668	8.3350e-01	-13.2782	-32.853808	0.000198	1.981785	0.671447	0.016079
1669	8.3400e-01	-13.2413	-32.783250	0.000174	1.739332	0.589302	0.014112
1670	8.3450e-01	-13.1996	-32.707988	0.000186	1.855288	0.628588	0.015052
1671	8.3500e-01	-13.1387	-32.641279	0.000164	1.644460	0.557158	0.013342
1672	8.3550e-01	-13.1098	-32.564306	0.000190	1.897453	0.642875	0.015395
1673	8.3600e-01	-13.0585	-32.505294	0.000145	1.454714	0.492871	0.011802
1674	8.3650e-01	-13.0312	-32.422762	0.000203	2.034492	0.689304	0.016506
1675	8.3700e-01	-13.0087	-32.340658	0.000202	2.023950	0.685733	0.016421
1676	8.3750e-01	-12.9253	-32.285922	0.000135	1.349300	0.457155	0.010947
1677	8.3800e-01	-12.8980	-32.213226	0.000179	1.792039	0.607159	0.014539
1678	8.3850e-01	-12.8852	-32.127701	0.000211	2.108281	0.714305	0.017105
1679	8.3900e-01	-12.8435	-32.031057	0.000238	2.382358	0.807165	0.019329
1680	8.3950e-01	-12.7841	-31.988722	0.000104	1.043599	0.353581	0.008467
1681	8.4000e-01	-12.7424	-31.925006	0.000157	1.570670	0.532157	0.012743
1682	8.4050e-01	-12.7232	-31.839481	0.000211	2.108281	0.714305	0.017105
1683	8.4100e-01	-12.6446	-31.779186	0.000149	1.486338	0.503585	0.012059
1684	8.4150e-01	-12.6317	-31.695372	0.000207	2.066116	0.700019	0.016763
1685	8.4200e-01	-12.5916	-31.634649	0.000150	1.496880	0.507157	0.012145
1686	8.4250e-01	-12.5307	-31.563663	0.000175	1.749874	0.592873	0.014197
1687	8.4300e-01	-12.5130	-31.488401	0.000186	1.855288	0.628588	0.015052
1688	8.4350e-01	-12.4890	-31.402021	0.000213	2.129364	0.721448	0.017276
1689	8.4400e-01	-12.4248	-31.347712	0.000134	1.338759	0.453584	0.010862
1690	8.4450e-01	-12.3879	-31.271595	0.000188	1.876370	0.635732	0.015223
1691	8.4500e-01	-12.3574	-31.199326	0.000178	1.781498	0.603588	0.014454
1692	8.4550e-01	-12.3109	-31.121926	0.000191	1.907995	0.646446	0.015480
1693	8.4600e-01	-12.3157	-31.032125	-0.000221	-2.213696	-0.750020	0.017960
1694	8.4650e-01	-12.2419	-30.966270	0.000162	1.623377	0.550015	0.013171
1695	8.4700e-01	-12.1954	-30.894002	0.000178	1.781498	0.603588	0.014454
1696	8.4750e-01	-12.1505	-30.827292	0.000164	1.644460	0.557158	0.013342
1697	8.4800e-01	-12.1232	-30.743478	0.000207	2.066116	0.700019	0.016763
1698	8.4850e-01	-12.0382	-30.687031	0.000139	1.391466	0.471441	0.011289
1699	8.4900e-01	-12.0382	-30.595947	-0.000225	-2.245320	-0.760735	0.018217
1700	8.4950e-01	-12.0077	-30.530948	0.000160	1.602294	0.542872	0.013000
1701	8.5000e-01	-11.9499	-30.439864	0.000225	2.245320	0.760735	0.018217
1702	8.5050e-01	-11.9050	-30.376575	0.000156	1.560128	0.528586	0.012658
1703	8.5100e-01	-11.8633	-30.295326	0.000200	2.002867	0.678590	0.016250
1704	8.5150e-01	-11.8392	-30.226906	0.000169	1.686625	0.571444	0.013684
1705	8.5200e-01	-11.7991	-30.162335	0.000159	1.591752	0.539300	0.012914
1706	8.5250e-01	-11.7446	-30.078948	0.000206	2.055574	0.696447	0.016677
1707	8.5300e-01	-11.7125	-30.008390	0.000174	1.739332	0.589302	0.014112
1708	8.5350e-01	-11.6884	-29.932700	0.000187	1.865829	0.632160	0.015138
1709	8.5400e-01	-11.6323	-29.862570	0.000173	1.728791	0.585730	0.014026
1710	8.5450e-01	-11.5986	-29.781321	0.000200	2.002867	0.678590	0.016250
1711	8.5500e-01	-11.5842	-29.695796	0.000211	2.108281	0.714305	0.017105
1712	8.5550e-01	-11.4991	-29.641915	0.000133	1.328217	0.450012	0.010776
1713	8.5600e-01	-11.4526	-29.556818	0.000210	2.097740	0.710734	0.017019
1714	8.5650e-01	-11.4141	-29.482411	0.000183	1.834205	0.621445	0.014881
1715	8.5700e-01	-11.3724	-29.413135	0.000171	1.707708	0.578587	0.013855
1716	8.5750e-01	-11.3467	-29.330176	0.000205	2.045033	0.692876	0.016592
1717	8.5800e-01	-11.3002	-29.260046	0.000173	1.728791	0.585730	0.014026
1718	8.5850e-01	-11.2794	-29.178369	0.000201	2.013409	0.682161	0.016335
1719	8.5900e-01	-11.2505	-29.102680	0.000187	1.865829	0.632160	0.015138
1720	8.5950e-01	-11.2072	-29.026990	0.000187	1.865829	0.632160	0.015138
1721	8.6000e-01	-11.1639	-28.956859	0.000173	1.728791	0.585730	0.014026
1722	8.6050e-01	-11.1238	-28.888439	0.000169	1.686625	0.571444	0.013684
1723	8.6100e-01	-11.1045	-28.793506	0.000234	2.340192	0.792879	0.018987
1724	8.6150e-01	-10.9906	-28.747323	0.000114	1.138472	0.385725	0.009237
1725	8.6200e-01	-10.9713	-28.670350	0.000190	1.897453	0.642875	0.015395
1726	8.6250e-01	-10.9681	-28.557885	0.000277	2.772390	0.939311	0.022493
1727	8.6300e-01	-10.9168	-28.486044	0.000177	1.770956	0.600016	0.014368
1728	8.6350e-01	-10.8863	-28.411209	0.000184	1.844746	0.625017	0.014967
1729	8.6400e-01	-10.8478	-28.336375	0.000184	1.844746	0.625017	0.014967
1730	8.6450e-01	-10.7965	-28.262396	0.000182	1.823663	0.617874	0.014796
1731	8.6500e-01	-10.7403	-28.196114	0.000163	1.633918	0.553586	0.013256
1732	8.6550e-01	-10.7195	-28.118714	0.000191	1.907995	0.646446	0.015480
1733	8.6600e-01	-10.6746	-28.026774	0.000227	2.266403	0.767878	0.018388
1734	8.6650e-01	-10.6296	-27.961775	0.000160	1.602294	0.542872	0.013000
1735	8.6700e-01	-10.5911	-27.890362	0.000176	1.760415	0.596445	0.014283
1736	8.6750e-01	-10.5462	-27.810396	0.000197	1.971243	0.667875	0.015993
1737	8.6800e-01	-10.5238	-27.726581	0.000207	2.066116	0.700019	0.016763
1738	8.6850e-01	-10.4596	-27.657306	0.000171	1.707708	0.578587	0.013855
1739	8.6900e-01	-10.4243	-27.576913	0.000198	1.981785	0.671447	0.016079
1740	8.6950e-01	-10.3649	-27.503789	0.000180	1.802581	0.610731	0.014625
1741	8.7000e-01	-10.3473	-27.419119	0.000209	2.087199	0.707162	0.016934
1742	8.7050e-01	-10.2992	-27.343857	0.000186	1.855288	0.628588	0.015052
1743	8.7100e-01	-10.2703	-27.255766	0.000217	2.171530	0.735734	0.017618
1744	8.7150e-01	-10.2206	-27.183925	0.000177	1.770956	0.600016	0.014368
1745	8.7200e-01	-10.2029	-27.100966	0.000205	2.045033	0.692876	0.016592
1746	8.7250e-01	-10.1692	-27.023565	0.000191	1.907995	0.646446	0.015480
1747	8.7300e-01	-10.0858	-26.973533	0.000123	1.233345	0.417868	0.010006
1748	8.7350e-01	-10.0794	-26.871758	0.000251	2.508855	0.850023	0.020355
1749	8.7400e-01	-10.0265	-26.805477	0.000163	1.633918	0.553586	0.013256
1750	8.7450e-01	-10.0088	-26.704557	0.000249	2.487772	0.842880	0.020184
1751	8.7500e-01	-9.9302	-26.640413	0.000158	1.581211	0.535729	0.012829
1752	8.7550e-01	-9.9270	-26.548901	0.000226	2.255861	0.764306	0.018302
1753	8.7600e-01	-9.8724	-26.475350	0.000181	1.813122	0.614302	0.014710
1754	8.7650e-01	-9.8388	-26.385121	0.000222	2.224237	0.753592	0.018046
1755	8.7700e-01	-9.7970	-26.310286	0.000184	1.844746	0.625017	0.014967
1756	8.7750e-01	-9.7762	-26.238018	0.000178	1.781498	0.603588	0.014454
1757	8.7800e-01	-9.7377	-26.153348	0.000209	2.087199	0.707162	0.016934
1758	8.7850e-01	-9.6719	-26.087494	0.000162	1.623377	0.550015	0.013171
1759	8.7900e-01	-9.6206	-26.006245	0.000200	2.002867	0.678590	0.016250
1760	8.7950e-01	-9.5853	-25.912167	0.000232	2.319110	0.785736	0.018816
1761	8.8000e-01	-9.5388	-25.845458	0.000164	1.644460	0.557158	0.013342
1762	8.8050e-01	-9.5035	-25.769768	0.000187	1.865829	0.632160	0.015138
1763	8.8100e-01	-9.4553	-25.697499	0.000178	1.781498	0.603588	0.014454
1764	8.8150e-01	-9.4297	-25.613257	0.000208	2.076657	0.703591	0.016848
1765	8.8200e-01	-9.4056	-25.529870	0.000206	2.055574	0.696447	0.016677
1766	8.8250e-01	-9.3447	-25.456746	0.000180	1.802581	0.610731	0.014625
1767	8.8300e-01	-9.3270	-25.374642	0.000202	2.023950	0.685733	0.016421
1768	8.8350e-01	-9.2837	-25.280992	0.000231	2.308568	0.782164	0.018730
1769	8.8400e-01	-9.2420	-25.207869	0.000180	1.802581	0.610731	0.014625
1770	8.8450e-01	-9.1939	-25.122343	0.000211	2.108281	0.714305	0.017105
1771	8.8500e-01	-9.1794	-25.045799	0.000189	1.886912	0.639303	0.015309
1772	8.8550e-01	-9.0816	-24.978661	0.000166	1.655001	0.560729	0.013427
1773	8.8600e-01	-9.0703	-24.878597	0.000247	2.466689	0.835737	0.020013
1774	8.8650e-01	-9.0543	-24.795210	0.000206	2.055574	0.696447	0.016677
1775	8.8700e-01	-8.9757	-24.737481	0.000142	1.423090	0.482156	0.011546
1776	8.8750e-01	-8.9356	-24.638699	0.000244	2.435065	0.825022	0.019756
1777	8.8800e-01	-8.9276	-24.552319	0.000213	2.129364	0.721448	0.017276
1778	8.8850e-01	-8.8457	-24.498438	0.000133	1.328217	0.450012	0.010776
1779	8.8900e-01	-8.8217	-24.401367	0.000239	2.392899	0.810736	0.019414
1780	8.8950e-01	-8.7960	-24.323112	0.000193	1.929078	0.653589	0.015651
1781	8.9000e-01	-8.7511	-24.234593	0.000218	2.182071	0.739306	0.017704
1782	8.9050e-01	-8.7174	-24.147785	0.000214	2.139906	0.725020	0.017362
1783	8.9100e-01	-8.6629	-24.076800	0.000175	1.749874	0.592873	0.014197
1784	8.9150e-01	-8.6051	-24.006669	0.000173	1.728791	0.585730	0.014026
1785	8.9200e-01	-8.5939	-23.918151	0.000218	2.182071	0.739306	0.017704
1786	8.9250e-01	-8.5666	-23.815521	0.000253	2.529938	0.857166	0.020526
1787	8.9300e-01	-8.4976	-23.745818	0.000172	1.718249	0.582159	0.013941
1788	8.9350e-01	-8.4206	-23.672266	0.000181	1.813122	0.614302	0.014710
1789	8.9400e-01	-8.4190	-23.580754	0.000226	2.255861	0.764306	0.018302
1790	8.9450e-01	-8.3966	-23.498223	0.000203	2.034492	0.689304	0.016506
1791	8.9500e-01	-8.3564	-23.409704	0.000218	2.182071	0.739306	0.017704
1792	8.9550e-01	-8.3244	-23.329738	0.000197	1.971243	0.667875	0.015993
1793	8.9600e-01	-8.2634	-23.257042	0.000179	1.792039	0.607159	0.014539
1794	8.9650e-01	-8.2345	-23.167668	0.000220	2.203154	0.746449	0.017875
1795	8.9700e-01	-8.1752	-23.093262	0.000183	1.834205	0.621445	0.014881
1796	8.9750e-01	-8.1591	-23.006026	0.000215	2.150447	0.728591	0.017447
1797	8.9800e-01	-8.1094	-22.914514	0.000226	2.255861	0.764306	0.018302
1798	8.9850e-01	-8.0565	-22.838824	0.000187	1.865829	0.632160	0.015138
1799	8.9900e-01	-8.0035	-22.753727	0.000210	2.097740	0.710734	0.017019
1800	8.9950e-01	-7.9955	-22.651525	0.000252	2.519396	0.853595	0.020440
1801	9.0000e-01	-7.9554	-22.590374	0.000151	1.507421	0.510728	0.012230
1802	9.0050e-01	-7.9201	-22.493731	0.000238	2.382358	0.807165	0.019329
1803	9.0100e-01	-7.8639	-22.410344	0.000206	2.055574	0.696447	0.016677
1804	9.0150e-01	-7.8078	-22.333371	0.000190	1.897453	0.642875	0.015395
1805	9.0200e-01	-7.8303	-22.235445	-0.000241	-2.413982	-0.817879	0.019585
1806	9.0250e-01	-7.7372	-22.164459	0.000175	1.749874	0.592873	0.014197
1807	9.0300e-01	-7.7180	-22.074230	0.000222	2.224237	0.753592	0.018046
1808	9.0350e-01	-7.6634	-21.995547	0.000194	1.939619	0.657161	0.015737
1809	9.0400e-01	-7.6329	-21.907457	0.000217	2.171530	0.735734	0.017618
1810	9.0450e-01	-7.6025	-21.831339	0.000188	1.876370	0.635732	0.015223
1811	9.0500e-01	-7.5415	-21.748380	0.000205	2.045033	0.692876	0.016592
1812	9.0550e-01	-7.5222	-21.657296	0.000225	2.245320	0.760735	0.018217
1813	9.0600e-01	-7.4966	-21.569633	0.000216	2.160988	0.732163	0.017533
1814	9.0650e-01	-7.4260	-21.476410	0.000230	2.298027	0.778593	0.018644
1815	9.0700e-01	-7.3971	-21.399010	0.000191	1.907995	0.646446	0.015480
1816	9.0750e-01	-7.3394	-21.309209	0.000221	2.213696	0.750020	0.017960
1817	9.0800e-01	-7.3281	-21.222401	0.000214	2.139906	0.725020	0.017362
1818	9.0850e-01	-7.2688	-21.135165	0.000215	2.150447	0.728591	0.017447
1819	9.0900e-01	-7.2511	-21.046647	0.000218	2.182071	0.739306	0.017704
1820	9.0950e-01	-7.1934	-20.967109	0.000196	1.960702	0.664304	0.015908
1821	9.1000e-01	-7.1340	-20.888853	0.000193	1.929078	0.653589	0.015651
1822	9.1050e-01	-7.1164	-20.801618	0.000215	2.150447	0.728591	0.017447
1823	9.1100e-01	-7.0666	-20.723790	0.000192	1.918536	0.650018	0.015566
1824	9.1150e-01	-7.0394	-20.616884	0.000264	2.635352	0.892881	0.021381
1825	9.1200e-01	-6.9961	-20.545470	0.000176	1.760415	0.596445	0.014283
1826	9.1250e-01	-6.9383	-20.447972	0.000240	2.403441	0.814308	0.019500
1827	9.1300e-01	-6.9062	-20.359026	0.000219	2.192613	0.742877	0.017789
1828	9.1350e-01	-6.8645	-20.277349	0.000201	2.013409	0.682161	0.016335
1829	9.1400e-01	-6.8148	-20.195245	0.000202	2.023950	0.685733	0.016421
1830	9.1450e-01	-6.7634	-20.109720	0.000211	2.108281	0.714305	0.017105
1831	9.1500e-01	-6.7474	-20.010083	0.000246	2.456148	0.832165	0.019927
1832	9.1550e-01	-6.7041	-19.936959	0.000180	1.802581	0.610731	0.014625
1833	9.1600e-01	-6.6704	-19.842882	0.000232	2.319110	0.785736	0.018816
1834	9.1650e-01	-6.6511	-19.744956	0.000241	2.413982	0.817879	0.019585
1835	9.1700e-01	-6.5886	-19.657720	0.000215	2.150447	0.728591	0.017447
1836	9.1750e-01	-6.5533	-19.579892	0.000192	1.918536	0.650018	0.015566
1837	9.1800e-01	-6.4955	-19.490946	0.000219	2.192613	0.742877	0.017789
1838	9.1850e-01	-6.4570	-19.406704	0.000208	2.076657	0.703591	0.016848
1839	9.1900e-01	-6.4089	-19.328449	0.000193	1.929078	0.653589	0.015651
1840	9.1950e-01	-6.4362	-19.192036	-0.000336	-3.362709	-1.139317	0.027282
1841	9.2000e-01	-6.3239	-19.154405	0.000093	0.927644	0.314294	0.007526
1842	9.2050e-01	-6.3159	-19.062466	0.000227	2.266403	0.767878	0.018388
1843	9.2100e-01	-6.2790	-18.974375	0.000217	2.171530	0.735734	0.017618
1844	9.2150e-01	-6.2116	-18.882435	0.000227	2.266403	0.767878	0.018388
1845	9.2200e-01	-6.1939	-18.786220	0.000237	2.371817	0.803593	0.019243
1846	9.2250e-01	-6.1474	-18.705399	0.000199	1.992326	0.675018	0.016164
1847	9.2300e-01	-6.0977	-18.619874	0.000211	2.108281	0.714305	0.017105
1848	9.2350e-01	-6.0720	-18.513822	0.000261	2.614269	0.885738	0.021210
1849	9.2400e-01	-6.0095	-18.450962	0.000155	1.549587	0.525014	0.012572
1850	9.2450e-01	-5.9758	-18.345338	0.000260	2.603728	0.882167	0.021125
1851	9.2500e-01	-5.9389	-18.252971	0.000228	2.276944	0.771449	0.018473
1852	9.2550e-01	-5.9148	-18.159321	0.000231	2.308568	0.782164	0.018730
1853	9.2600e-01	-5.8731	-18.071230	0.000217	2.171530	0.735734	0.017618
1854	9.2650e-01	-5.8137	-17.989981	0.000200	2.002867	0.678590	0.016250
1855	9.2700e-01	-5.8105	-17.879654	0.000272	2.719683	0.921454	0.022065
1856	9.2750e-01	-5.7560	-17.801826	0.000192	1.918536	0.650018	0.015566
1857	9.2800e-01	-5.7127	-17.713736	0.000217	2.171530	0.735734	0.017618
1858	9.2850e-01	-5.6726	-17.613671	0.000247	2.466689	0.835737	0.020013
1859	9.2900e-01	-5.6276	-17.521732	0.000227	2.266403	0.767878	0.018388
1860	9.2950e-01	-5.5715	-17.442621	0.000195	1.950160	0.660732	0.015822
1861	9.3000e-01	-5.5731	-17.329300	-0.000279	-2.793473	-0.946454	0.022664
1862	9.3050e-01	-5.5121	-17.242493	0.000214	2.139906	0.725020	0.017362
1863	9.3100e-01	-5.4640	-17.151408	0.000225	2.245320	0.760735	0.018217
1864	9.3150e-01	-5.4271	-17.072725	0.000194	1.939619	0.657161	0.015737
1865	9.3200e-01	-5.3742	-16.980786	0.000227	2.266403	0.767878	0.018388
1866	9.3250e-01	-5.3613	-16.876445	0.000257	2.572103	0.871452	0.020868
1867	9.3300e-01	-5.2988	-16.786216	0.000222	2.224237	0.753592	0.018046
1868	9.3350e-01	-5.2539	-16.700264	0.000212	2.118823	0.717877	0.017191
1869	9.3400e-01	-5.2186	-16.597634	0.000253	2.529938	0.857166	0.020526
1870	9.3450e-01	-5.1945	-16.501846	0.000236	2.361275	0.800022	0.019158
1871	9.3500e-01	-5.1464	-16.424445	0.000191	1.907995	0.646446	0.015480
1872	9.3550e-01	-5.1031	-16.330795	0.000231	2.308568	0.782164	0.018730
1873	9.3600e-01	-5.0758	-16.232869	0.000241	2.413982	0.817879	0.019585
1874	9.3650e-01	-5.0245	-16.147344	0.000211	2.108281	0.714305	0.017105
1875	9.3700e-01	-5.0036	-16.031885	0.000285	2.846180	0.964312	0.023092
1876	9.3750e-01	-4.9603	-15.931821	0.000247	2.466689	0.835737	0.020013
1877	9.3800e-01	-4.9154	-15.852710	0.000195	1.950160	0.660732	0.015822
1878	9.3850e-01	-4.8576	-15.766330	0.000213	2.129364	0.721448	0.017276
1879	9.3900e-01	-4.8127	-15.675246	0.000225	2.245320	0.760735	0.018217
1880	9.3950e-01	-4.7710	-15.576892	0.000242	2.424524	0.821451	0.019671
1881	9.4000e-01	-4.7774	-15.458867	-0.000291	-2.909428	-0.985741	0.023605
1882	9.4050e-01	-4.7293	-15.376336	0.000203	2.034492	0.689304	0.016506
1883	9.4100e-01	-4.6844	-15.272850	0.000255	2.551021	0.864309	0.020697
1884	9.4150e-01	-4.6234	-15.195450	0.000191	1.907995	0.646446	0.015480
1885	9.4200e-01	-4.5624	-15.100090	0.000235	2.350734	0.796450	0.019072
1886	9.4250e-01	-4.5576	-14.994039	0.000261	2.614269	0.885738	0.021210
1887	9.4300e-01	-4.5207	-14.904238	0.000221	2.213696	0.750020	0.017960
1888	9.4350e-01	-4.4999	-14.798614	0.000260	2.603728	0.882167	0.021125
1889	9.4400e-01	-4.4405	-14.709240	0.000220	2.203154	0.746449	0.017875
1890	9.4450e-01	-4.3747	-14.623715	0.000211	2.108281	0.714305	0.017105
1891	9.4500e-01	-4.3106	-14.527500	0.000237	2.371817	0.803593	0.019243
1892	9.4550e-01	-4.2961	-14.418883	0.000268	2.677517	0.907167	0.021723
1893	9.4600e-01	-4.2785	-14.319674	0.000245	2.445606	0.828594	0.019842
1894	9.4650e-01	-4.2384	-14.226879	0.000229	2.287485	0.775021	0.018559
1895	9.4700e-01	-4.1469	-14.150334	0.000189	1.886912	0.639303	0.015309
1896	9.4750e-01	-4.1357	-14.032310	0.000291	2.909428	0.985741	0.023605
1897	9.4800e-01	-4.1309	-13.931390	0.000249	2.487772	0.842880	0.020184
1898	9.4850e-01	-4.0860	-13.823201	0.000267	2.666976	0.903596	0.021638
1899	9.4900e-01	-4.0186	-13.733827	0.000220	2.203154	0.746449	0.017875
1900	9.4950e-01	-3.9657	-13.654716	0.000195	1.950160	0.660732	0.015822
1901	9.5000e-01	-3.9576	-13.543962	0.000273	2.730224	0.925025	0.022151
1902	9.5050e-01	-3.9015	-13.454588	0.000220	2.203154	0.746449	0.017875
1903	9.5100e-01	-3.8790	-13.344261	0.000272	2.719683	0.921454	0.022065
1904	9.5150e-01	-3.8534	-13.247617	0.000238	2.382358	0.807165	0.019329
1905	9.5200e-01	-3.7651	-13.159099	0.000218	2.182071	0.739306	0.017704
1906	9.5250e-01	-3.7523	-13.037226	0.000300	3.004301	1.017885	0.024375
1907	9.5300e-01	-3.7058	-12.942293	0.000234	2.340192	0.792879	0.018987
1908	9.5350e-01	-3.6496	-12.853774	0.000218	2.182071	0.739306	0.017704
1909	9.5400e-01	-3.6336	-12.729763	0.000306	3.057008	1.035742	0.024802
1910	9.5450e-01	-3.6015	-12.627133	0.000253	2.529938	0.857166	0.020526
1911	9.5500e-01	-3.5181	-12.552298	0.000184	1.844746	0.625017	0.014967
1912	9.5550e-01	-3.5101	-12.437267	0.000284	2.835639	0.960740	0.023006
1913	9.5600e-01	-3.4924	-12.326085	0.000274	2.740766	0.928597	0.022237
1914	9.5650e-01	-3.4315	-12.257665	0.000169	1.686625	0.571444	0.013684
1915	9.5700e-01	-3.3930	-12.135364	0.000301	3.014842	1.021456	0.024460
1916	9.5750e-01	-3.3609	-12.037865	0.000240	2.403441	0.814308	0.019500
1917	9.5800e-01	-3.3095	-11.942505	0.000235	2.350734	0.796450	0.019072
1918	9.5850e-01	-3.2887	-11.817211	0.000309	3.088632	1.046457	0.025059
1919	9.5900e-01	-3.2566	-11.718002	0.000245	2.445606	0.828594	0.019842
1920	9.5950e-01	-3.1812	-11.626062	0.000227	2.266403	0.767878	0.018388
1921	9.6000e-01	-3.1379	-11.510603	0.000285	2.846180	0.964312	0.023092
1922	9.6050e-01	-3.1042	-11.422085	0.000218	2.182071	0.739306	0.017704
1923	9.6100e-01	-3.0737	-11.308764	0.000279	2.793473	0.946454	0.022664
1924	9.6150e-01	-3.0256	-11.202713	0.000261	2.614269	0.885738	0.021210
1925	9.6200e-01	-3.0127	-11.099228	0.000255	2.551021	0.864309	0.020697
1926	9.6250e-01	-2.9534	-10.991894	0.000265	2.645893	0.896453	0.021467
1927	9.6300e-01	-2.9037	-10.892257	0.000246	2.456148	0.832165	0.019927
1928	9.6350e-01	-2.8507	-10.795614	0.000238	2.382358	0.807165	0.019329
1929	9.6400e-01	-2.8283	-10.690846	0.000258	2.582645	0.875024	0.020954
1930	9.6450e-01	-2.7914	-10.578808	0.000276	2.761849	0.935740	0.022408
1931	9.6500e-01	-2.7737	-10.476178	0.000253	2.529938	0.857166	0.020526
1932	9.6550e-01	-2.7304	-10.355587	0.000297	2.972677	1.007170	0.024118
1933	9.6600e-01	-2.6775	-10.261938	0.000231	2.308568	0.782164	0.018730
1934	9.6650e-01	-2.6325	-10.148617	0.000279	2.793473	0.946454	0.022664
1935	9.6700e-01	-2.5828	-10.052829	0.000236	2.361275	0.800022	0.019158
1936	9.6750e-01	-2.5700	-9.929673	0.000304	3.035925	1.028599	0.024631
1937	9.6800e-01	-2.5186	-9.836023	0.000231	2.308568	0.782164	0.018730
1938	9.6850e-01	-2.4850	-9.701321	0.000332	3.320543	1.125031	0.026940
1939	9.6900e-01	-2.4288	-9.610664	0.000223	2.234778	0.757163	0.018131
1940	9.6950e-01	-2.3855	-9.497771	0.000278	2.782932	0.942883	0.022579
1941	9.7000e-01	-2.3775	-9.378891	0.000293	2.930511	0.992884	0.023776
1942	9.7050e-01	-2.3326	-9.278827	0.000247	2.466689	0.835737	0.020013
1943	9.7100e-01	-2.2668	-9.158237	0.000297	2.972677	1.007170	0.024118
1944	9.7150e-01	-2.2154	-9.067153	0.000225	2.245320	0.760735	0.018217
1945	9.7200e-01	-2.1898	-8.954687	0.000277	2.772390	0.939311	0.022493
1946	9.7250e-01	-2.1497	-8.837518	0.000289	2.888346	0.978598	0.023434
1947	9.7300e-01	-2.1031	-8.730184	0.000265	2.645893	0.896453	0.021467
1948	9.7350e-01	-2.0887	-8.613870	0.000287	2.867263	0.971455	0.023263
1949	9.7400e-01	-2.0422	-8.503542	0.000272	2.719683	0.921454	0.022065
1950	9.7450e-01	-2.0069	-8.390649	0.000278	2.782932	0.942883	0.022579
1951	9.7500e-01	-1.9299	-8.284598	0.000261	2.614269	0.885738	0.021210
1952	9.7550e-01	-1.9283	-8.158449	0.000311	3.109715	1.053600	0.025230
1953	9.7600e-01	-1.8930	-8.048549	0.000271	2.709142	0.917882	0.021980
1954	9.7650e-01	-1.8160	-7.953616	0.000234	2.340192	0.792879	0.018987
1955	9.7700e-01	-1.7967	-7.841578	0.000276	2.761849	0.935740	0.022408
1956	9.7750e-01	-1.7534	-7.715857	0.000310	3.099174	1.050028	0.025144
1957	9.7800e-01	-1.7213	-7.587141	0.000317	3.172964	1.075029	0.025743
1958	9.7850e-01	-1.6620	-7.488788	0.000242	2.424524	0.821451	0.019671
1959	9.7900e-01	-1.6026	-7.391289	0.000240	2.403441	0.814308	0.019500
1960	9.7950e-01	-1.5994	-7.252738	0.000342	3.415416	1.157174	0.027710
1961	9.8000e-01	-1.5625	-7.135997	0.000288	2.877804	0.975026	0.023348
1962	9.8050e-01	-1.5288	-7.026952	0.000269	2.688059	0.910739	0.021809
1963	9.8100e-01	-1.4438	-6.924322	0.000253	2.529938	0.857166	0.020526
1964	9.8150e-01	-1.4422	-6.790048	0.000331	3.310002	1.121459	0.026855
1965	9.8200e-01	-1.3957	-6.672879	0.000289	2.888346	0.978598	0.023434
1966	9.8250e-01	-1.3636	-6.550150	0.000303	3.025384	1.025028	0.024546
1967	9.8300e-01	-1.2882	-6.440250	0.000271	2.709142	0.917882	0.021980
1968	9.8350e-01	-1.2513	-6.327357	0.000278	2.782932	0.942883	0.022579
1969	9.8400e-01	-1.2497	-6.201636	0.000310	3.099174	1.050028	0.025144
1970	9.8450e-01	-1.2048	-6.076769	0.000308	3.078091	1.042885	0.024973
1971	9.8500e-01	-1.1470	-5.960883	0.000286	2.856721	0.967883	0.023177
1972	9.8550e-01	-1.1117	-5.847134	0.000280	2.804014	0.950026	0.022750
1973	9.8600e-01	-1.0508	-5.739800	0.000265	2.645893	0.896453	0.021467
1974	9.8650e-01	-1.0251	-5.621348	0.000292	2.919970	0.989313	0.023690
1975	9.8700e-01	-0.9818	-5.502041	0.000294	2.941053	0.996456	0.023861
1976	9.8750e-01	-0.9369	-5.377602	0.000307	3.067550	1.039314	0.024888
1977	9.8800e-01	-0.9208	-5.261288	0.000287	2.867263	0.971455	0.023263
1978	9.8850e-01	-0.8903	-5.129151	0.000326	3.257295	1.103601	0.026427
1979	9.8900e-01	-0.8422	-5.007706	0.000299	2.993760	1.014313	0.024289
1980	9.8950e-01	-0.8101	-4.882839	0.000308	3.078091	1.042885	0.024973
1981	9.9000e-01	-0.7508	-4.755407	0.000314	3.141339	1.064315	0.025486
1982	9.9050e-01	-0.6898	-4.651066	0.000257	2.572103	0.871452	0.020868
1983	9.9100e-01	-0.6914	-4.508239	-0.000352	-3.520830	-1.192890	0.028565
1984	9.9150e-01	-0.6192	-4.410313	0.000241	2.413982	0.817879	0.019585
1985	9.9200e-01	-0.5855	-4.285019	0.000309	3.088632	1.046457	0.025059
1986	9.9250e-01	-0.5438	-4.149462	0.000334	3.341626	1.132174	0.027111
1987	9.9300e-01	-0.5053	-4.035286	0.000281	2.814556	0.953597	0.022835
1988	9.9350e-01	-0.4588	-3.928380	0.000264	2.635352	0.892881	0.021381
1989	9.9400e-01	-0.4299	-3.783842	0.000356	3.562996	1.207176	0.028907
1990	9.9450e-01	-0.4027	-3.658976	0.000308	3.078091	1.042885	0.024973
1991	9.9500e-01	-0.3930	-3.529833	0.000318	3.183505	1.078601	0.025829
1992	9.9550e-01	-0.3160	-3.410525	0.000294	2.941053	0.996456	0.023861
1993	9.9600e-01	-0.2599	-3.297205	0.000279	2.793473	0.946454	0.022664
1994	9.9650e-01	-0.2294	-3.159509	0.000339	3.394333	1.150031	0.027539
1995	9.9700e-01	-0.1845	-3.043195	0.000287	2.867263	0.971455	0.023263
1996	9.9750e-01	-0.1315	-2.937999	0.000259	2.593186	0.878595	0.021039
1997	9.9800e-01	-0.1267	-2.787475	0.000371	3.710575	1.257177	0.030105
1998	9.9850e-01	-0.0706	-2.667740	0.000295	2.951594	1.000027	0.023947
1999	9.9900e-01	-0.0353	-2.538597	0.000318	3.183505	1.078601	0.025829
2000	9.9950e-01	0.0225	-2.429125	0.000270	2.698600	0.914311	0.021894
2001	1.0000e+00	0.0770	-2.313667	0.000270	2.698600	0.914311	0.023092

Center data before PMax,+/-Pr and +/-Vc Calc.

PMax (uC/cm2):	4.36e+01
Pr (uC/cm2):	3.04e-01
-Pr (uC/cm2):	-2.31e+00
PLoss (uC/cm2):	-1.16e+00
Vc:	5.01e-01
-Vc:	-1.11e-01
C (Max-Eff) (nF):	2.17e-01
K (Eff):	7.36e+02
Vert. (+/-Pr) Shift (uC/cm2):	-1.00e+00
Horiz. Shift (+/-Vc):	1.95e-01
Offset (uC/cm2):	1.15e+00

A (Loop Area - uC/cm2·Volts):	7.34e-02



Hysteresis Version: 5.48.1 - Radiant Technologies, Inc., 1999 - 9/12/24

