»»»»»»»»»»»»»»»»»»»»»»»»»»»»»»»»»»»» Hysteresis ««««««««««««««««««««««««««««««««««««
»»»  Executed Version:	5.48.1
»»»  Vision Version:	5.48.4 (R)
»»»  Vision Compiled:	9/18/24
»»»  Driver Version:	5.47.0
»»»  Windows Version:	Windows 8 or 8.1
»»»  Processor Information:	x86 (AMD or Intel) - 32 Processors
»»»  Tester Name:	PMF21124-494 (100V)
»»»  Tester S/N:	PMF21124-494
»»»  Internal Amp Type:	100V RevK 270k
»»»  Internal Amp S/N:	iAB2-596/K     
»»»  Execution Count:	1
»»»»»»»»»»»»»»»»»»»»»»»»»»»»»»»»»»»»»»»»»»««««««««««««««««««««««««««««««««««««««««««

Stored:	6/12/2025 - 11:10:11
Configured:	06/12/25 10:06:17 AM
Executed:	06/12/25 11:09:45 AM

»»»»»»»»»»»»»»»»»»»»»»»»»»»»»»»»»»» Sample Info ««««««««««««««««««««««««««««««««««««
Sample Name:	
Lot Name:	
Wafer Name:	
Die Row/Column:	0/0
Capacitor Number:	0
Sample Area (cm2):	1.00e-04
Sample Thickness (microns):	3.00e-01

Amplifier:	Internal

»»»»»»»»»»»»»»»»»»»»»»»»»»»»»»»»»»» Tester Info «««««««««««««««««««««««««««««««««««
Tester Name:	PMF21124-494 (100V)
Tester Serial Number:	PMF21124-494
Return Signal Amp. Level:	1.79 [Index: 2]

»»»»»»»»»»»»»»»»»»»»»»»»»»»»»»»» Hysteresis Info ««««««««««««««««««««««««««««««««««
Task Name:	Hyst-1390
Volts:	20.00
Field:	666.67 (kV/cm)
DCBias:	0.00
DCField:	0.00 (kV/cm)
Hysteresis Period (ms):	1.00e+00
Preset:	Enabled
Preset Delay (ms):	1.00e+03
Profile:	Standard Bipolar

»»»»»»»»»»»»»»»»»»»»»»»»»»»»»»»»»»»»»» Data «««««««««««««««««««««««««««««««««««««««
Points:	2001

Valid Data

Point	Time (ms)	Drive Voltage	Measured Polarization (uC/cm2)	Capacitance (uF)	Normalized Capacitance (uF/cm2)	Dielectric Constant	Instantaneous Current (mA)
   1	0.0000e+00	0.0289	1.246741	0.000157	1.570964	0.532257	0.012743
   2	5.0000e-04	0.0337	1.310458	0.000157	1.570964	0.532257	0.012743
   3	1.0000e-03	0.1219	1.308747	-0.000004	-0.042174	-0.014289	-0.000342
   4	1.5000e-03	0.1524	1.386575	0.000192	1.918895	0.650139	0.015566
   5	2.0000e-03	0.2182	1.502889	0.000287	2.867800	0.971637	0.023263
   6	2.5000e-03	0.2438	1.573020	0.000173	1.729115	0.585840	0.014026
   7	3.0000e-03	0.2743	1.653413	0.000198	1.982156	0.671573	0.016079
   8	3.5000e-03	0.3529	1.748346	0.000234	2.340631	0.793027	0.018987
   9	4.0000e-03	0.3658	1.834299	0.000212	2.119220	0.718011	0.017191
  10	4.5000e-03	0.3818	1.915975	0.000201	2.013786	0.682289	0.016335
  11	5.0000e-03	0.4444	2.010480	0.000233	2.330087	0.789455	0.018901
  12	5.5000e-03	0.4684	2.116531	0.000261	2.614759	0.885904	0.021210
  13	6.0000e-03	0.5021	2.189655	0.000180	1.802918	0.610845	0.014625
  14	6.5000e-03	0.5503	2.285871	0.000237	2.372261	0.803744	0.019243
  15	7.0000e-03	0.5871	2.373534	0.000216	2.161393	0.732300	0.017533
  16	7.5000e-03	0.6593	2.456921	0.000206	2.055959	0.696578	0.016677
  17	8.0000e-03	0.6882	2.549288	0.000228	2.277370	0.771594	0.018473
  18	8.5000e-03	0.7219	2.649352	0.000247	2.467151	0.835893	0.020013
  19	9.0000e-03	0.7716	2.735733	0.000213	2.129763	0.721583	0.017276
  20	9.5000e-03	0.7973	2.813133	0.000191	1.908352	0.646567	0.015480
  21	1.0000e-02	0.8342	2.916618	0.000255	2.551498	0.864471	0.020697
  22	1.0500e-02	0.8711	2.982900	0.000163	1.634224	0.553690	0.013256
  23	1.1000e-02	0.8855	3.098787	0.000286	2.857256	0.968065	0.023177
  24	1.1500e-02	0.9561	3.206548	0.000266	2.656932	0.900193	0.021552
  25	1.2000e-02	1.0059	3.270692	0.000158	1.581507	0.535829	0.012829
  26	1.2500e-02	1.0235	3.365197	0.000233	2.330087	0.789455	0.018901
  27	1.3000e-02	1.0652	3.471676	0.000263	2.625302	0.889476	0.021296
  28	1.3500e-02	1.1198	3.537530	0.000162	1.623681	0.550118	0.013171
  29	1.4000e-02	1.1567	3.627759	0.000222	2.224653	0.753733	0.018046
  30	1.4500e-02	1.2321	3.697034	0.000171	1.708028	0.578695	0.013855
  31	1.5000e-02	1.2321	3.798382	-0.000250	-2.498781	-0.846610	0.020269
  32	1.5500e-02	1.3026	3.882624	0.000208	2.077046	0.703722	0.016848
  33	1.6000e-02	1.3074	3.978412	0.000236	2.361717	0.800172	0.019158
  34	1.6500e-02	1.3572	4.084463	0.000261	2.614759	0.885904	0.021210
  35	1.7000e-02	1.4422	4.138344	0.000133	1.328466	0.450096	0.010776
  36	1.7500e-02	1.4679	4.251237	0.000278	2.783453	0.943059	0.022579
  37	1.8000e-02	1.4807	4.335051	0.000207	2.066503	0.700150	0.016763
  38	1.8500e-02	1.4935	4.410313	0.000186	1.855635	0.628706	0.015052
  39	1.9000e-02	1.5577	4.515937	0.000260	2.604215	0.882332	0.021125
  40	1.9500e-02	1.5834	4.601462	0.000211	2.108676	0.714439	0.017105
  41	2.0000e-02	1.6171	4.707085	0.000260	2.604215	0.882332	0.021125
  42	2.0500e-02	1.6540	4.777643	0.000174	1.739658	0.589412	0.014112
  43	2.1000e-02	1.7181	4.860603	0.000205	2.045416	0.693006	0.016592
  44	2.1500e-02	1.7470	4.974351	0.000280	2.804539	0.950204	0.022750
  45	2.2000e-02	1.8016	5.039350	0.000160	1.602594	0.542974	0.013000
  46	2.2500e-02	1.8561	5.125303	0.000212	2.119220	0.718011	0.017191
  47	2.3000e-02	1.8914	5.214676	0.000220	2.203567	0.746589	0.017875
  48	2.3500e-02	1.9315	5.282669	0.000168	1.676398	0.567979	0.013598
  49	2.4000e-02	1.9716	5.398128	0.000285	2.846713	0.964492	0.023092
  50	2.4500e-02	1.9909	5.490922	0.000229	2.287914	0.775166	0.018559
  51	2.5000e-02	2.0310	5.531547	0.000100	1.001621	0.339358	0.008125
  52	2.5500e-02	2.0695	5.636315	0.000258	2.583128	0.875188	0.020954
  53	2.6000e-02	2.1112	5.733386	0.000239	2.393348	0.810888	0.019414
  54	2.6500e-02	2.1818	5.817200	0.000207	2.066503	0.700150	0.016763
  55	2.7000e-02	2.2106	5.900160	0.000205	2.045416	0.693006	0.016592
  56	2.7500e-02	2.2507	5.984830	0.000209	2.087589	0.707294	0.016934
  57	2.8000e-02	2.3037	6.066506	0.000201	2.013786	0.682289	0.016335
  58	2.8500e-02	2.3117	6.172985	0.000263	2.625302	0.889476	0.021296
  59	2.9000e-02	2.3935	6.251668	0.000194	1.939982	0.657284	0.015737
  60	2.9500e-02	2.3903	6.329068	-0.000191	-1.908352	-0.646567	0.015480
  61	3.0000e-02	2.4577	6.416731	0.000216	2.161393	0.732300	0.017533
  62	3.0500e-02	2.4641	6.505249	0.000218	2.182480	0.739444	0.017704
  63	3.1000e-02	2.5202	6.586926	0.000201	2.013786	0.682289	0.016335
  64	3.1500e-02	2.5555	6.710937	0.000306	3.057581	1.035936	0.024802
  65	3.2000e-02	2.6181	6.766101	0.000136	1.360096	0.460813	0.011033
  66	3.2500e-02	2.6325	6.843073	0.000190	1.897809	0.642995	0.015395
  67	3.3000e-02	2.6807	6.915770	0.000179	1.792375	0.607273	0.014539
  68	3.3500e-02	2.7031	7.028663	0.000278	2.783453	0.943059	0.022579
  69	3.4000e-02	2.7320	7.137707	0.000269	2.688562	0.910910	0.021809
  70	3.4500e-02	2.8122	7.173628	0.000089	0.885644	0.300064	0.007184
  71	3.5000e-02	2.8555	7.258725	0.000210	2.098133	0.710867	0.017019
  72	3.5500e-02	2.8812	7.339119	0.000198	1.982156	0.671573	0.016079
  73	3.6000e-02	2.9229	7.467406	0.000316	3.163014	1.071658	0.025658
  74	3.6500e-02	2.9630	7.526846	0.000147	1.465530	0.496535	0.011888
  75	3.7000e-02	3.0288	7.620496	0.000231	2.309000	0.782311	0.018730
  76	3.7500e-02	3.0464	7.691054	0.000174	1.739658	0.589412	0.014112
  77	3.8000e-02	3.0689	7.799244	0.000267	2.667475	0.903765	0.021638
  78	3.8500e-02	3.1170	7.877927	0.000194	1.939982	0.657284	0.015737
  79	3.9000e-02	3.1652	7.950195	0.000178	1.781831	0.603701	0.014454
  80	3.9500e-02	3.1988	8.042135	0.000227	2.266827	0.768022	0.018388
  81	4.0000e-02	3.2550	8.107989	0.000162	1.623681	0.550118	0.013171
  82	4.0500e-02	3.2839	8.202922	0.000234	2.340631	0.793027	0.018987
  83	4.1000e-02	3.3031	8.288019	0.000210	2.098133	0.710867	0.017019
  84	4.1500e-02	3.3528	8.361998	0.000182	1.824005	0.617990	0.014796
  85	4.2000e-02	3.4186	8.443247	0.000200	2.003242	0.678717	0.016250
  86	4.2500e-02	3.4443	8.539891	0.000238	2.382804	0.807316	0.019329
  87	4.3000e-02	3.4748	8.616435	0.000189	1.887265	0.639423	0.015309
  88	4.3500e-02	3.4940	8.727190	0.000273	2.730736	0.925198	0.022151
  89	4.4000e-02	3.5470	8.785775	0.000144	1.444443	0.489391	0.011717
  90	4.4500e-02	3.6095	8.872583	0.000214	2.140306	0.725155	0.017362
  91	4.5000e-02	3.6464	8.944852	0.000178	1.781831	0.603701	0.014454
  92	4.5500e-02	3.6737	9.036791	0.000227	2.266827	0.768022	0.018388
  93	4.6000e-02	3.7218	9.124882	0.000217	2.171937	0.735872	0.017618
  94	4.6500e-02	3.7603	9.190309	0.000161	1.613137	0.546546	0.013085
  95	4.7000e-02	3.8165	9.266854	0.000189	1.887265	0.639423	0.015309
  96	4.7500e-02	3.8437	9.347675	0.000199	1.992699	0.675145	0.016164
  97	4.8000e-02	3.8919	9.437476	0.000221	2.214110	0.750161	0.017960
  98	4.8500e-02	3.9015	9.513166	0.000187	1.866178	0.632278	0.015138
  99	4.9000e-02	3.9368	9.626486	0.000279	2.793996	0.946631	0.022664
 100	4.9500e-02	3.9994	9.684216	0.000142	1.423356	0.482246	0.011546
 101	5.0000e-02	4.0699	9.751353	0.000166	1.655311	0.560834	0.013427
 102	5.0500e-02	4.0860	9.834312	0.000205	2.045416	0.693006	0.016592
 103	5.1000e-02	4.1293	9.950199	0.000286	2.857256	0.968065	0.023177
 104	5.1500e-02	4.1694	9.991678	0.000102	1.022708	0.346503	0.008296
 105	5.2000e-02	4.2384	10.084045	0.000228	2.277370	0.771594	0.018473
 106	5.2500e-02	4.2576	10.163156	0.000195	1.950526	0.660856	0.015822
 107	5.3000e-02	4.2929	10.257661	0.000233	2.330087	0.789455	0.018901
 108	5.3500e-02	4.3378	10.311970	0.000134	1.339009	0.453669	0.010862
 109	5.4000e-02	4.3507	10.419304	0.000265	2.646389	0.896621	0.021467
 110	5.4500e-02	4.3972	10.489434	0.000173	1.729115	0.585840	0.014026
 111	5.5000e-02	4.4405	10.565979	0.000189	1.887265	0.639423	0.015309
 112	5.5500e-02	4.4838	10.650649	0.000209	2.087589	0.707294	0.016934
 113	5.6000e-02	4.5304	10.733608	0.000205	2.045416	0.693006	0.016592
 114	5.6500e-02	4.5576	10.807587	0.000182	1.824005	0.617990	0.014796
 115	5.7000e-02	4.5897	10.889691	0.000202	2.024329	0.685861	0.016421
 116	5.7500e-02	4.6426	10.971368	0.000201	2.013786	0.682289	0.016335
 117	5.8000e-02	4.6812	11.044492	0.000180	1.802918	0.610845	0.014625
 118	5.8500e-02	4.7405	11.119754	0.000186	1.855635	0.628706	0.015052
 119	5.9000e-02	4.7662	11.207845	0.000217	2.171937	0.735872	0.017618
 120	5.9500e-02	4.7886	11.275837	0.000168	1.676398	0.567979	0.013598
 121	6.0000e-02	4.8512	11.386164	0.000272	2.720192	0.921626	0.022065
 122	6.0500e-02	4.8849	11.451591	0.000161	1.613137	0.546546	0.013085
 123	6.1000e-02	4.8913	11.542675	0.000225	2.245740	0.760877	0.018217
 124	6.1500e-02	4.9587	11.611523	0.000170	1.697484	0.575123	0.013770
 125	6.2000e-02	5.0068	11.674384	0.000155	1.549877	0.525113	0.012572
 126	6.2500e-02	5.0437	11.754777	0.000198	1.982156	0.671573	0.016079
 127	6.3000e-02	5.0662	11.842013	0.000215	2.150850	0.728728	0.017447
 128	6.3500e-02	5.1287	11.916420	0.000183	1.834548	0.621562	0.014881
 129	6.4000e-02	5.1432	11.993820	0.000191	1.908352	0.646567	0.015480
 130	6.4500e-02	5.1897	12.067799	0.000182	1.824005	0.617990	0.014796
 131	6.5000e-02	5.2314	12.156317	0.000218	2.182480	0.739444	0.017704
 132	6.5500e-02	5.2683	12.252961	0.000238	2.382804	0.807316	0.019329
 133	6.6000e-02	5.3469	12.296151	0.000106	1.064882	0.360792	0.008638
 134	6.6500e-02	5.3710	12.370558	0.000183	1.834548	0.621562	0.014881
 135	6.7000e-02	5.4079	12.471050	0.000248	2.477695	0.839466	0.020098
 136	6.7500e-02	5.4416	12.535621	0.000159	1.592051	0.539401	0.012914
 137	6.8000e-02	5.4656	12.617298	0.000201	2.013786	0.682289	0.016335
 138	6.8500e-02	5.4961	12.692987	0.000187	1.866178	0.632278	0.015138
 139	6.9000e-02	5.5667	12.759269	0.000163	1.634224	0.553690	0.013256
 140	6.9500e-02	5.6180	12.825979	0.000164	1.644767	0.557262	0.013342
 141	7.0000e-02	5.6341	12.898675	0.000179	1.792375	0.607273	0.014539
 142	7.0500e-02	5.6517	12.994891	0.000237	2.372261	0.803744	0.019243
 143	7.1000e-02	5.7047	13.077422	0.000203	2.034873	0.689433	0.016506
 144	7.1500e-02	5.7512	13.141994	0.000159	1.592051	0.539401	0.012914
 145	7.2000e-02	5.7881	13.217683	0.000187	1.866178	0.632278	0.015138
 146	7.2500e-02	5.8378	13.293373	0.000187	1.866178	0.632278	0.015138
 147	7.3000e-02	5.9020	13.363076	0.000172	1.718571	0.582268	0.013941
 148	7.3500e-02	5.9373	13.443042	0.000197	1.971612	0.668000	0.015993
 149	7.4000e-02	5.9661	13.497778	0.000135	1.349553	0.457241	0.010947
 150	7.4500e-02	6.0079	13.592711	0.000234	2.340631	0.793027	0.018987
 151	7.5000e-02	6.0464	13.691920	0.000245	2.446064	0.828749	0.019842
 152	7.5500e-02	6.0672	13.743663	0.000128	1.275749	0.432236	0.010349
 153	7.6000e-02	6.0913	13.845865	0.000252	2.519868	0.853754	0.020440
 154	7.6500e-02	6.1474	13.928824	0.000205	2.045416	0.693006	0.016592
 155	7.7000e-02	6.2292	13.969449	0.000100	1.001621	0.339358	0.008125
 156	7.7500e-02	6.2501	14.050270	0.000199	1.992699	0.675145	0.016164
 157	7.8000e-02	6.2758	14.114841	0.000159	1.592051	0.539401	0.012914
 158	7.8500e-02	6.2886	14.207208	0.000228	2.277370	0.771594	0.018473
 159	7.9000e-02	6.3816	14.262372	0.000136	1.360096	0.460813	0.011033
 160	7.9500e-02	6.3688	14.349608	-0.000215	-2.150850	-0.728728	0.017447
 161	8.0000e-02	6.4474	14.405626	0.000138	1.381183	0.467957	0.011204
 162	8.0500e-02	6.4683	14.518520	0.000278	2.783453	0.943059	0.022579
 163	8.1000e-02	6.4795	14.586084	0.000167	1.665854	0.564407	0.013513
 164	8.1500e-02	6.5581	14.627992	0.000103	1.033251	0.350075	0.008381
 165	8.2000e-02	6.6319	14.698122	0.000173	1.729115	0.585840	0.014026
 166	8.2500e-02	6.6367	14.800325	0.000252	2.519868	0.853754	0.020440
 167	8.3000e-02	6.6784	14.872166	0.000177	1.771288	0.600129	0.014368
 168	8.3500e-02	6.6977	14.940586	0.000169	1.686941	0.571551	0.013684
 169	8.4000e-02	6.7554	15.017131	0.000189	1.887265	0.639423	0.015309
 170	8.4500e-02	6.8036	15.068446	0.000127	1.265206	0.428663	0.010263
 171	8.5000e-02	6.8421	15.141142	0.000179	1.792375	0.607273	0.014539
 172	8.5500e-02	6.8709	15.209990	0.000170	1.697484	0.575123	0.013770
 173	8.6000e-02	6.9319	15.279693	0.000172	1.718571	0.582268	0.013941
 174	8.6500e-02	6.9511	15.377191	0.000240	2.403891	0.814460	0.019500
 175	8.7000e-02	7.0009	15.447322	0.000173	1.729115	0.585840	0.014026
 176	8.7500e-02	7.0522	15.515742	0.000169	1.686941	0.571551	0.013684
 177	8.8000e-02	7.0811	15.579458	0.000157	1.570964	0.532257	0.012743
 178	8.8500e-02	7.1260	15.665410	0.000212	2.119220	0.718011	0.017191
 179	8.9000e-02	7.1966	15.716298	0.000125	1.254662	0.425091	0.010177
 180	8.9500e-02	7.2142	15.794981	0.000194	1.939982	0.657284	0.015737
 181	9.0000e-02	7.2383	15.868105	0.000180	1.802918	0.610845	0.014625
 182	9.0500e-02	7.2768	15.961755	0.000231	2.309000	0.782311	0.018730
 183	9.1000e-02	7.3169	16.008794	0.000116	1.159772	0.392941	0.009408
 184	9.1500e-02	7.3731	16.091753	0.000205	2.045416	0.693006	0.016592
 185	9.2000e-02	7.3891	16.180699	0.000219	2.193023	0.743016	0.017789
 186	9.2500e-02	7.4404	16.223889	0.000106	1.064882	0.360792	0.008638
 187	9.3000e-02	7.4757	16.303000	0.000195	1.950526	0.660856	0.015822
 188	9.3500e-02	7.5287	16.376124	0.000180	1.802918	0.610845	0.014625
 189	9.4000e-02	7.5784	16.446682	0.000174	1.739658	0.589412	0.014112
 190	9.4500e-02	7.5704	16.512109	-0.000161	-1.613137	-0.546546	0.013085
 191	9.5000e-02	7.6329	16.608752	0.000238	2.382804	0.807316	0.019329
 192	9.5500e-02	7.6875	16.652797	0.000109	1.085968	0.367936	0.008809
 193	9.6000e-02	7.7164	16.731480	0.000194	1.939982	0.657284	0.015737
 194	9.6500e-02	7.7773	16.782368	0.000125	1.254662	0.425091	0.010177
 195	9.7000e-02	7.8062	16.849077	0.000164	1.644767	0.557262	0.013342
 196	9.7500e-02	7.8206	16.939306	0.000222	2.224653	0.753733	0.018046
 197	9.8000e-02	7.8880	16.993615	0.000134	1.339009	0.453669	0.010862
 198	9.8500e-02	7.9426	17.078712	0.000210	2.098133	0.710867	0.017019
 199	9.9000e-02	7.9698	17.160388	0.000201	2.013786	0.682289	0.016335
 200	9.9500e-02	8.0180	17.207000	0.000115	1.149229	0.389369	0.009322
 201	1.0000e-01	8.0244	17.296801	0.000221	2.214110	0.750161	0.017960
 202	1.0050e-01	8.0885	17.348116	0.000127	1.265206	0.428663	0.010263
 203	1.0100e-01	8.1110	17.426371	0.000193	1.929439	0.653712	0.015651
 204	1.0150e-01	8.1415	17.503772	0.000191	1.908352	0.646567	0.015480
 205	1.0200e-01	8.1688	17.591007	0.000215	2.150850	0.728728	0.017447
 206	1.0250e-01	8.2490	17.627783	0.000091	0.906731	0.307209	0.007355
 207	1.0300e-01	8.2843	17.716301	0.000218	2.182480	0.739444	0.017704
 208	1.0350e-01	8.3292	17.747090	0.000076	0.759123	0.257198	0.006158
 209	1.0400e-01	8.3709	17.842878	0.000236	2.361717	0.800172	0.019158
 210	1.0450e-01	8.3837	17.907877	0.000160	1.602594	0.542974	0.013000
 211	1.0500e-01	8.4302	17.982284	0.000183	1.834548	0.621562	0.014881
 212	1.0550e-01	8.4896	18.036165	0.000133	1.328466	0.450096	0.010776
 213	1.0600e-01	8.5089	18.130670	0.000233	2.330087	0.789455	0.018901
 214	1.0650e-01	8.5522	18.194386	0.000157	1.570964	0.532257	0.012743
 215	1.0700e-01	8.5907	18.255537	0.000151	1.507704	0.510824	0.012230
 216	1.0750e-01	8.6372	18.323957	0.000169	1.686941	0.571551	0.013684
 217	1.0800e-01	8.6693	18.374417	0.000124	1.244119	0.421519	0.010092
 218	1.0850e-01	8.7270	18.469777	0.000235	2.351174	0.796599	0.019072
 219	1.0900e-01	8.7511	18.537769	0.000168	1.676398	0.567979	0.013598
 220	1.0950e-01	8.8121	18.584808	0.000116	1.159772	0.392941	0.009408
 221	1.1000e-01	8.8169	18.655794	0.000175	1.750201	0.592984	0.014197
 222	1.1050e-01	8.9035	18.721648	0.000162	1.623681	0.550118	0.013171
 223	1.1100e-01	8.9276	18.796055	0.000183	1.834548	0.621562	0.014881
 224	1.1150e-01	8.9757	18.855923	0.000148	1.476073	0.500107	0.011974
 225	1.1200e-01	8.9981	18.922632	0.000164	1.644767	0.557262	0.013342
 226	1.1250e-01	9.0495	18.995756	0.000180	1.802918	0.610845	0.014625
 227	1.1300e-01	9.0944	19.053913	0.000143	1.433900	0.485818	0.011631
 228	1.1350e-01	9.1329	19.129603	0.000187	1.866178	0.632278	0.015138
 229	1.1400e-01	9.1682	19.203582	0.000182	1.824005	0.617990	0.014796
 230	1.1450e-01	9.2179	19.264305	0.000150	1.497160	0.507252	0.012145
 231	1.1500e-01	9.2548	19.307495	0.000106	1.064882	0.360792	0.008638
 232	1.1550e-01	9.2693	19.418250	0.000273	2.730736	0.925198	0.022151
 233	1.1600e-01	9.3398	19.466144	0.000118	1.180859	0.400086	0.009579
 234	1.1650e-01	9.3655	19.548676	0.000203	2.034873	0.689433	0.016506
 235	1.1700e-01	9.4008	19.583741	0.000086	0.864557	0.292920	0.007013
 236	1.1750e-01	9.4441	19.639332	0.000137	1.370640	0.464385	0.011118
 237	1.1800e-01	9.4874	19.732554	0.000230	2.298457	0.778738	0.018644
 238	1.1850e-01	9.5259	19.797126	0.000159	1.592051	0.539401	0.012914
 239	1.1900e-01	9.5484	19.857849	0.000150	1.497160	0.507252	0.012145
 240	1.1950e-01	9.6029	19.929262	0.000176	1.760745	0.596556	0.014283
 241	1.2000e-01	9.6527	19.989985	0.000150	1.497160	0.507252	0.012145
 242	1.2050e-01	9.6928	20.042583	0.000130	1.296836	0.439380	0.010520
 243	1.2100e-01	9.7249	20.123404	0.000199	1.992699	0.675145	0.016164
 244	1.2150e-01	9.7409	20.205080	0.000201	2.013786	0.682289	0.016335
 245	1.2200e-01	9.7922	20.254257	0.000121	1.212489	0.410802	0.009835
 246	1.2250e-01	9.8612	20.306855	0.000130	1.296836	0.439380	0.010520
 247	1.2300e-01	9.8612	20.378696	-0.000177	-1.771288	-0.600129	0.014368
 248	1.2350e-01	9.9093	20.462511	0.000207	2.066503	0.700150	0.016763
 249	1.2400e-01	9.9575	20.498859	0.000090	0.896187	0.303637	0.007270
 250	1.2450e-01	9.9976	20.583101	0.000208	2.077046	0.703722	0.016848
 251	1.2500e-01	10.0393	20.652376	0.000171	1.708028	0.578695	0.013855
 252	1.2550e-01	10.0922	20.726783	0.000183	1.834548	0.621562	0.014881
 253	1.2600e-01	10.1404	20.760993	0.000084	0.843470	0.285776	0.006842
 254	1.2650e-01	10.1371	20.822571	-0.000152	-1.518247	-0.514396	0.012316
 255	1.2700e-01	10.2013	20.922636	0.000247	2.467151	0.835893	0.020013
 256	1.2750e-01	10.2462	20.959839	0.000092	0.917274	0.310781	0.007441
 257	1.2800e-01	10.2912	21.031680	0.000177	1.771288	0.600129	0.014368
 258	1.2850e-01	10.3313	21.077864	0.000114	1.138685	0.385797	0.009237
 259	1.2900e-01	10.3361	21.167665	0.000221	2.214110	0.750161	0.017960
 260	1.2950e-01	10.4002	21.223684	0.000138	1.381183	0.467957	0.011204
 261	1.3000e-01	10.4580	21.271150	0.000117	1.170315	0.396514	0.009493
 262	1.3050e-01	10.4516	21.360096	-0.000219	-2.193023	-0.743016	0.017789
 263	1.3100e-01	10.5093	21.409701	0.000122	1.223032	0.414375	0.009921
 264	1.3150e-01	10.5559	21.474700	0.000160	1.602594	0.542974	0.013000
 265	1.3200e-01	10.6072	21.540127	0.000161	1.613137	0.546546	0.013085
 266	1.3250e-01	10.6489	21.587165	0.000116	1.159772	0.392941	0.009408
 267	1.3300e-01	10.6730	21.656868	0.000172	1.718571	0.582268	0.013941
 268	1.3350e-01	10.7211	21.737262	0.000198	1.982156	0.671573	0.016079
 269	1.3400e-01	10.7885	21.770189	0.000081	0.811840	0.275059	0.006585
 270	1.3450e-01	10.8093	21.864694	0.000233	2.330087	0.789455	0.018901
 271	1.3500e-01	10.8414	21.916437	0.000128	1.275749	0.432236	0.010349
 272	1.3550e-01	10.8959	21.969890	0.000132	1.317923	0.446524	0.010691
 273	1.3600e-01	10.9152	22.034034	0.000158	1.581507	0.535829	0.012829
 274	1.3650e-01	10.9665	22.118704	0.000209	2.087589	0.707294	0.016934
 275	1.3700e-01	10.9890	22.181992	0.000156	1.560420	0.528685	0.012658
 276	1.3750e-01	11.0387	22.220051	0.000094	0.938361	0.317925	0.007612
 277	1.3800e-01	11.0564	22.311990	0.000227	2.266827	0.768022	0.018388
 278	1.3850e-01	11.1270	22.361595	0.000122	1.223032	0.414375	0.009921
 279	1.3900e-01	11.1494	22.430442	0.000170	1.697484	0.575123	0.013770
 280	1.3950e-01	11.2024	22.471922	0.000102	1.022708	0.346503	0.008296
 281	1.4000e-01	11.2425	22.545474	0.000181	1.813462	0.614417	0.014710
 282	1.4050e-01	11.2842	22.586953	0.000102	1.022708	0.346503	0.008296
 283	1.4100e-01	11.3403	22.672051	0.000210	2.098133	0.710867	0.017019
 284	1.4150e-01	11.3756	22.716096	0.000109	1.085968	0.367936	0.008809
 285	1.4200e-01	11.3981	22.811884	0.000236	2.361717	0.800172	0.019158
 286	1.4250e-01	11.4366	22.842245	0.000075	0.748580	0.253626	0.006072
 287	1.4300e-01	11.4655	22.924777	0.000203	2.034873	0.689433	0.016506
 288	1.4350e-01	11.5200	22.974382	0.000122	1.223032	0.414375	0.009921
 289	1.4400e-01	11.5489	23.044940	0.000174	1.739658	0.589412	0.014112
 290	1.4450e-01	11.6259	23.094117	0.000121	1.212489	0.410802	0.009835
 291	1.4500e-01	11.6467	23.163392	0.000171	1.708028	0.578695	0.013855
 292	1.4550e-01	11.6884	23.224970	0.000152	1.518247	0.514396	0.012316
 293	1.4600e-01	11.7302	23.273292	0.000119	1.191402	0.403658	0.009664
 294	1.4650e-01	11.7414	23.328028	0.000135	1.349553	0.457241	0.010947
 295	1.4700e-01	11.7959	23.415691	0.000216	2.161393	0.732300	0.017533
 296	1.4750e-01	11.8569	23.452039	0.000090	0.896187	0.303637	0.007270
 297	1.4800e-01	11.8617	23.521742	0.000172	1.718571	0.582268	0.013941
 298	1.4850e-01	11.9211	23.594438	0.000179	1.792375	0.607273	0.014539
 299	1.4900e-01	11.9740	23.629076	0.000085	0.854014	0.289348	0.006928
 300	1.4950e-01	12.0077	23.688944	0.000148	1.476073	0.500107	0.011974
 301	1.5000e-01	12.0446	23.759929	0.000175	1.750201	0.592984	0.014197
 302	1.5050e-01	12.0767	23.833053	0.000180	1.802918	0.610845	0.014625
 303	1.5100e-01	12.1473	23.874961	0.000103	1.033251	0.350075	0.008381
 304	1.5150e-01	12.1697	23.945519	0.000174	1.739658	0.589412	0.014112
 305	1.5200e-01	12.1922	23.989564	0.000109	1.085968	0.367936	0.008809
 306	1.5250e-01	12.2916	24.056701	0.000166	1.655311	0.560834	0.013427
 307	1.5300e-01	12.2756	24.111010	-0.000134	-1.339009	-0.453669	0.010862
 308	1.5350e-01	12.3173	24.205942	0.000234	2.340631	0.793027	0.018987
 309	1.5400e-01	12.3590	24.255547	0.000122	1.223032	0.414375	0.009921
 310	1.5450e-01	12.3943	24.299165	0.000108	1.075425	0.364364	0.008724
 311	1.5500e-01	12.4569	24.353473	0.000134	1.339009	0.453669	0.010862
 312	1.5550e-01	12.5082	24.410775	0.000141	1.412813	0.478674	0.011460
 313	1.5600e-01	12.5162	24.479195	0.000169	1.686941	0.571551	0.013684
 314	1.5650e-01	12.5611	24.548470	0.000171	1.708028	0.578695	0.013855
 315	1.5700e-01	12.5948	24.614752	0.000163	1.634224	0.553690	0.013256
 316	1.5750e-01	12.6494	24.671199	0.000139	1.391726	0.471530	0.011289
 317	1.5800e-01	12.6895	24.717810	0.000115	1.149229	0.389369	0.009322
 318	1.5850e-01	12.7216	24.785375	0.000167	1.665854	0.564407	0.013513
 319	1.5900e-01	12.7633	24.812743	0.000067	0.674776	0.228620	0.005474
 320	1.5950e-01	12.8098	24.870900	0.000143	1.433900	0.485818	0.011631
 321	1.6000e-01	12.8339	24.954287	0.000206	2.055959	0.696578	0.016677
 322	1.6050e-01	12.8627	25.005174	0.000125	1.254662	0.425091	0.010177
 323	1.6100e-01	12.9446	25.070173	0.000160	1.602594	0.542974	0.013000
 324	1.6150e-01	12.9333	25.144580	-0.000183	-1.834548	-0.621562	0.014881
 325	1.6200e-01	12.9815	25.179218	0.000085	0.854014	0.289348	0.006928
 326	1.6250e-01	13.0296	25.245500	0.000163	1.634224	0.553690	0.013256
 327	1.6300e-01	13.0713	25.310071	0.000159	1.592051	0.539401	0.012914
 328	1.6350e-01	13.1403	25.336584	0.000065	0.653690	0.221476	0.005303
 329	1.6400e-01	13.1724	25.428096	0.000226	2.256284	0.764450	0.018302
 330	1.6450e-01	13.1772	25.469148	0.000101	1.012165	0.342931	0.008210
 331	1.6500e-01	13.2622	25.541416	0.000178	1.781831	0.603701	0.014454
 332	1.6550e-01	13.3055	25.576054	0.000085	0.854014	0.289348	0.006928
 333	1.6600e-01	13.3023	25.656875	-0.000199	-1.992699	-0.675145	0.016164
 334	1.6650e-01	13.3552	25.718025	0.000151	1.507704	0.510824	0.012230
 335	1.6700e-01	13.3937	25.767202	0.000121	1.212489	0.410802	0.009835
 336	1.6750e-01	13.4627	25.813386	0.000114	1.138685	0.385797	0.009237
 337	1.6800e-01	13.4772	25.865129	0.000128	1.275749	0.432236	0.010349
 338	1.6850e-01	13.5060	25.944239	0.000195	1.950526	0.660856	0.015822
 339	1.6900e-01	13.5590	26.014370	0.000173	1.729115	0.585840	0.014026
 340	1.6950e-01	13.5766	26.055849	0.000102	1.022708	0.346503	0.008296
 341	1.7000e-01	13.6376	26.134105	0.000193	1.929439	0.653712	0.015651
 342	1.7050e-01	13.6665	26.172163	0.000094	0.938361	0.317925	0.007612
 343	1.7100e-01	13.6889	26.264958	0.000229	2.287914	0.775166	0.018559
 344	1.7150e-01	13.7643	26.280780	0.000039	0.390105	0.132171	0.003164
 345	1.7200e-01	13.8012	26.320122	0.000097	0.969991	0.328642	0.007868
 346	1.7250e-01	13.8477	26.393246	0.000180	1.802918	0.610845	0.014625
 347	1.7300e-01	13.8911	26.453541	0.000149	1.486617	0.503679	0.012059
 348	1.7350e-01	13.9199	26.510415	0.000140	1.402270	0.475102	0.011375
 349	1.7400e-01	13.9552	26.572421	0.000153	1.528790	0.517968	0.012401
 350	1.7450e-01	13.9969	26.617749	0.000112	1.117598	0.378653	0.009066
 351	1.7500e-01	14.0338	26.686597	0.000170	1.697484	0.575123	0.013770
 352	1.7550e-01	14.0691	26.740050	0.000132	1.317923	0.446524	0.010691
 353	1.7600e-01	14.1076	26.800345	0.000149	1.486617	0.503679	0.012059
 354	1.7650e-01	14.1590	26.846956	0.000115	1.149229	0.389369	0.009322
 355	1.7700e-01	14.2087	26.914949	0.000168	1.676398	0.567979	0.013598
 356	1.7750e-01	14.2167	26.955573	0.000100	1.001621	0.339358	0.008125
 357	1.7800e-01	14.2680	27.035111	0.000196	1.961069	0.664428	0.015908
 358	1.7850e-01	14.3258	27.068894	0.000083	0.832927	0.282203	0.006756
 359	1.7900e-01	14.3418	27.135176	0.000163	1.634224	0.553690	0.013256
 360	1.7950e-01	14.3980	27.180504	0.000112	1.117598	0.378653	0.009066
 361	1.8000e-01	14.4237	27.247213	0.000164	1.644767	0.557262	0.013342
 362	1.8050e-01	14.4718	27.299384	0.000129	1.286293	0.435808	0.010434
 363	1.8100e-01	14.5279	27.354120	0.000135	1.349553	0.457241	0.010947
 364	1.8150e-01	14.5504	27.404152	0.000123	1.233576	0.417947	0.010006
 365	1.8200e-01	14.5873	27.476848	0.000179	1.792375	0.607273	0.014539
 366	1.8250e-01	14.6242	27.525170	0.000119	1.191402	0.403658	0.009664
 367	1.8300e-01	14.6803	27.570498	0.000112	1.117598	0.378653	0.009066
 368	1.8350e-01	14.7140	27.637208	0.000164	1.644767	0.557262	0.013342
 369	1.8400e-01	14.7702	27.701779	0.000159	1.592051	0.539401	0.012914
 370	1.8450e-01	14.8007	27.724871	0.000057	0.569343	0.192898	0.004618
 371	1.8500e-01	14.8392	27.797140	0.000178	1.781831	0.603701	0.014454
 372	1.8550e-01	14.9049	27.857435	0.000149	1.486617	0.503679	0.012059
 373	1.8600e-01	14.9194	27.892928	0.000088	0.875101	0.296492	0.007099
 374	1.8650e-01	14.9563	27.966907	0.000182	1.824005	0.617990	0.014796
 375	1.8700e-01	14.9916	28.024636	0.000142	1.423356	0.482246	0.011546
 376	1.8750e-01	15.0397	28.072958	0.000119	1.191402	0.403658	0.009664
 377	1.8800e-01	15.0830	28.136674	0.000157	1.570964	0.532257	0.012743
 378	1.8850e-01	15.1552	28.162332	0.000063	0.632603	0.214332	0.005132
 379	1.8900e-01	15.1793	28.229469	0.000166	1.655311	0.560834	0.013427
 380	1.8950e-01	15.2017	28.303875	0.000183	1.834548	0.621562	0.014881
 381	1.9000e-01	15.2274	28.326540	0.000056	0.558799	0.189326	0.004533
 382	1.9050e-01	15.2915	28.385980	0.000147	1.465530	0.496535	0.011888
 383	1.9100e-01	15.3349	28.443281	0.000141	1.412813	0.478674	0.011460
 384	1.9150e-01	15.3814	28.492458	0.000121	1.212489	0.410802	0.009835
 385	1.9200e-01	15.4151	28.547622	0.000136	1.360096	0.460813	0.011033
 386	1.9250e-01	15.4391	28.593805	0.000114	1.138685	0.385797	0.009237
 387	1.9300e-01	15.4760	28.660087	0.000163	1.634224	0.553690	0.013256
 388	1.9350e-01	15.5370	28.727225	0.000166	1.655311	0.560834	0.013427
 389	1.9400e-01	15.5659	28.757158	0.000074	0.738037	0.250054	0.005987
 390	1.9450e-01	15.6028	28.813605	0.000139	1.391726	0.471530	0.011289
 391	1.9500e-01	15.6525	28.893143	0.000196	1.961069	0.664428	0.015908
 392	1.9550e-01	15.6782	28.947452	0.000134	1.339009	0.453669	0.010862
 393	1.9600e-01	15.7103	29.003043	0.000137	1.370640	0.464385	0.011118
 394	1.9650e-01	15.7680	29.047943	0.000111	1.107055	0.375080	0.008980
 395	1.9700e-01	15.8322	29.093272	0.000112	1.117598	0.378653	0.009066
 396	1.9750e-01	15.8290	29.149291	-0.000138	-1.381183	-0.467957	0.011204
 397	1.9800e-01	15.8562	29.201461	0.000129	1.286293	0.435808	0.010434
 398	1.9850e-01	15.9108	29.277151	0.000187	1.866178	0.632278	0.015138
 399	1.9900e-01	15.9814	29.303663	0.000065	0.653690	0.221476	0.005303
 400	1.9950e-01	16.0070	29.357972	0.000134	1.339009	0.453669	0.010862
 401	2.0000e-01	16.0311	29.407149	0.000121	1.212489	0.410802	0.009835
 402	2.0050e-01	16.0680	29.462740	0.000137	1.370640	0.464385	0.011118
 403	2.0100e-01	16.1370	29.498661	0.000089	0.885644	0.300064	0.007184
 404	2.0150e-01	16.1578	29.579482	0.000199	1.992699	0.675145	0.016164
 405	2.0200e-01	16.1803	29.648329	0.000170	1.697484	0.575123	0.013770
 406	2.0250e-01	16.2509	29.681257	0.000081	0.811840	0.275059	0.006585
 407	2.0300e-01	16.2765	29.747111	0.000162	1.623681	0.550118	0.013171
 408	2.0350e-01	16.3391	29.770630	0.000058	0.579886	0.196471	0.004704
 409	2.0400e-01	16.3519	29.850168	0.000196	1.961069	0.664428	0.015908
 410	2.0450e-01	16.4001	29.897635	0.000117	1.170315	0.396514	0.009493
 411	2.0500e-01	16.4402	29.948950	0.000127	1.265206	0.428663	0.010263
 412	2.0550e-01	16.4979	30.001120	0.000129	1.286293	0.435808	0.010434
 413	2.0600e-01	16.5092	30.046021	0.000111	1.107055	0.375080	0.008980
 414	2.0650e-01	16.5733	30.088783	0.000105	1.054338	0.357219	0.008553
 415	2.0700e-01	16.6134	30.155065	0.000163	1.634224	0.553690	0.013256
 416	2.0750e-01	16.6215	30.191841	0.000091	0.906731	0.307209	0.007355
 417	2.0800e-01	16.6632	30.272235	0.000198	1.982156	0.671573	0.016079
 418	2.0850e-01	16.7257	30.323122	0.000125	1.254662	0.425091	0.010177
 419	2.0900e-01	16.7690	30.354766	0.000078	0.780210	0.264342	0.006329
 420	2.0950e-01	16.8156	30.421903	0.000166	1.655311	0.560834	0.013427
 421	2.1000e-01	16.8364	30.474074	0.000129	1.286293	0.435808	0.010434
 422	2.1050e-01	16.9006	30.512560	0.000095	0.948904	0.321497	0.007697
 423	2.1100e-01	16.9295	30.552757	0.000099	0.991078	0.335786	0.008039
 424	2.1150e-01	16.9760	30.622887	0.000173	1.729115	0.585840	0.014026
 425	2.1200e-01	17.0498	30.676341	0.000132	1.317923	0.446524	0.010691
 426	2.1250e-01	17.0546	30.725090	0.000120	1.201945	0.407230	0.009750
 427	2.1300e-01	17.0819	30.781964	0.000140	1.402270	0.475102	0.011375
 428	2.1350e-01	17.0979	30.843542	0.000152	1.518247	0.514396	0.012316
 429	2.1400e-01	17.1573	30.889726	0.000114	1.138685	0.385797	0.009237
 430	2.1450e-01	17.1958	30.935909	0.000114	1.138685	0.385797	0.009237
 431	2.1500e-01	17.2519	30.991073	0.000136	1.360096	0.460813	0.011033
 432	2.1550e-01	17.2744	31.044098	0.000131	1.307379	0.442952	0.010605
 433	2.1600e-01	17.3145	31.105676	0.000152	1.518247	0.514396	0.012316
 434	2.1650e-01	17.3658	31.135182	0.000073	0.727493	0.246481	0.005901
 435	2.1700e-01	17.4172	31.207451	0.000178	1.781831	0.603701	0.014454
 436	2.1750e-01	17.4444	31.253207	0.000113	1.128142	0.382225	0.009151
 437	2.1800e-01	17.4621	31.280147	0.000066	0.664233	0.225048	0.005388
 438	2.1850e-01	17.5102	31.369093	0.000219	2.193023	0.743016	0.017789
 439	2.1900e-01	17.5776	31.378929	0.000024	0.242498	0.082160	0.001967
 440	2.1950e-01	17.6016	31.431099	0.000129	1.286293	0.435808	0.010434
 441	2.2000e-01	17.6305	31.490539	0.000147	1.465530	0.496535	0.011888
 442	2.2050e-01	17.6770	31.531163	0.000100	1.001621	0.339358	0.008125
 443	2.2100e-01	17.7011	31.613267	0.000202	2.024329	0.685861	0.016421
 444	2.2150e-01	17.7589	31.641918	0.000071	0.706407	0.239337	0.005730
 445	2.2200e-01	17.7797	31.708628	0.000164	1.644767	0.557262	0.013342
 446	2.2250e-01	17.8503	31.727443	0.000046	0.463909	0.157177	0.003763
 447	2.2300e-01	17.8824	31.796719	0.000171	1.708028	0.578695	0.013855
 448	2.2350e-01	17.9353	31.835205	0.000095	0.948904	0.321497	0.007697
 449	2.2400e-01	17.9498	31.900204	0.000160	1.602594	0.542974	0.013000
 450	2.2450e-01	17.9995	31.958789	0.000144	1.444443	0.489391	0.011717
 451	2.2500e-01	18.0187	32.013525	0.000135	1.349553	0.457241	0.010947
 452	2.2550e-01	18.0653	32.055860	0.000104	1.043795	0.353647	0.008467
 453	2.2600e-01	18.1182	32.095629	0.000098	0.980534	0.332214	0.007954
 454	2.2650e-01	18.1695	32.163194	0.000167	1.665854	0.564407	0.013513
 455	2.2700e-01	18.2177	32.219640	0.000139	1.391726	0.471530	0.011289
 456	2.2750e-01	18.2401	32.249146	0.000073	0.727493	0.246481	0.005901
 457	2.2800e-01	18.2770	32.306876	0.000142	1.423356	0.482246	0.011546
 458	2.2850e-01	18.3476	32.355197	0.000119	1.191402	0.403658	0.009664
 459	2.2900e-01	18.3749	32.394111	0.000096	0.959448	0.325070	0.007783
 460	2.2950e-01	18.4118	32.475360	0.000200	2.003242	0.678717	0.016250
 461	2.3000e-01	18.4294	32.513419	0.000094	0.938361	0.317925	0.007612
 462	2.3050e-01	18.4840	32.537793	0.000060	0.600973	0.203615	0.004875
 463	2.3100e-01	18.5385	32.602792	0.000160	1.602594	0.542974	0.013000
 464	2.3150e-01	18.5963	32.625029	0.000055	0.548256	0.185754	0.004447
 465	2.3200e-01	18.6139	32.718679	0.000231	2.309000	0.782311	0.018730
 466	2.3250e-01	18.6476	32.767428	0.000120	1.201945	0.407230	0.009750
 467	2.3300e-01	18.7054	32.792658	0.000062	0.622059	0.210759	0.005046
 468	2.3350e-01	18.7246	32.873479	0.000199	1.992699	0.675145	0.016164
 469	2.3400e-01	18.7727	32.920090	0.000115	1.149229	0.389369	0.009322
 470	2.3450e-01	18.8144	32.953873	0.000083	0.832927	0.282203	0.006756
 471	2.3500e-01	18.8642	33.000056	0.000114	1.138685	0.385797	0.009237
 472	2.3550e-01	18.8690	33.040253	0.000099	0.991078	0.335786	0.008039
 473	2.3600e-01	18.9348	33.110384	0.000173	1.729115	0.585840	0.014026
 474	2.3650e-01	18.9765	33.148015	0.000093	0.927818	0.314353	0.007526
 475	2.3700e-01	19.0118	33.204889	0.000140	1.402270	0.475102	0.011375
 476	2.3750e-01	19.0455	33.257914	0.000131	1.307379	0.442952	0.010605
 477	2.3800e-01	19.0968	33.284427	0.000065	0.653690	0.221476	0.005303
 478	2.3850e-01	19.1241	33.351564	0.000166	1.655311	0.560834	0.013427
 479	2.3900e-01	19.1658	33.393899	0.000104	1.043795	0.353647	0.008467
 480	2.3950e-01	19.1962	33.438800	0.000111	1.107055	0.375080	0.008980
 481	2.4000e-01	19.2524	33.488404	0.000122	1.223032	0.414375	0.009921
 482	2.4050e-01	19.3021	33.556824	0.000169	1.686941	0.571551	0.013684
 483	2.4100e-01	19.3342	33.588041	0.000077	0.769667	0.260770	0.006243
 484	2.4150e-01	19.3759	33.635935	0.000118	1.180859	0.400086	0.009579
 485	2.4200e-01	19.4176	33.685112	0.000121	1.212489	0.410802	0.009835
 486	2.4250e-01	19.4481	33.741558	0.000139	1.391726	0.471530	0.011289
 487	2.4300e-01	19.4722	33.780900	0.000097	0.969991	0.328642	0.007868
 488	2.4350e-01	19.5412	33.831787	0.000125	1.254662	0.425091	0.010177
 489	2.4400e-01	19.5412	33.903628	-0.000177	-1.771288	-0.600129	0.014368
 490	2.4450e-01	19.5893	33.934845	0.000077	0.769667	0.260770	0.006243
 491	2.4500e-01	19.6374	33.980173	0.000112	1.117598	0.378653	0.009066
 492	2.4550e-01	19.6695	34.036620	0.000139	1.391726	0.471530	0.011289
 493	2.4600e-01	19.7353	34.078955	0.000104	1.043795	0.353647	0.008467
 494	2.4650e-01	19.7529	34.123428	0.000110	1.096512	0.371508	0.008895
 495	2.4700e-01	19.8251	34.159776	0.000090	0.896187	0.303637	0.007270
 496	2.4750e-01	19.8412	34.223065	0.000156	1.560420	0.528685	0.012658
 497	2.4800e-01	19.8764	34.262406	0.000097	0.969991	0.328642	0.007868
 498	2.4850e-01	19.9294	34.336813	0.000183	1.834548	0.621562	0.014881
 499	2.4900e-01	19.9502	34.383424	0.000115	1.149229	0.389369	0.009322
 500	2.4950e-01	20.0000	34.401812	0.000045	0.453365	0.153604	0.003678
 501	2.5000e-01	20.0160	34.487337	0.000211	2.108676	0.714439	0.017105
 502	2.5050e-01	19.9583	34.463390	0.000059	0.590429	0.200043	-0.004789
 503	2.5100e-01	19.9502	34.409937	0.000132	1.317923	0.446524	-0.010691
 504	2.5150e-01	19.8877	34.374872	0.000086	0.864557	0.292920	-0.007013
 505	2.5200e-01	19.8797	34.319708	0.000136	1.360096	0.460813	-0.011033
 506	2.5250e-01	19.8203	34.298327	0.000053	0.527169	0.178610	-0.004276
 507	2.5300e-01	19.7994	34.255564	0.000105	1.054338	0.357219	-0.008553
 508	2.5350e-01	19.7465	34.236321	0.000047	0.474452	0.160749	-0.003849
 509	2.5400e-01	19.7112	34.190993	0.000112	1.117598	0.378653	-0.009066
 510	2.5450e-01	19.6422	34.167473	0.000058	0.579886	0.196471	-0.004704
 511	2.5500e-01	19.6390	34.096915	0.000174	1.739658	0.589412	-0.014112
 512	2.5550e-01	19.5700	34.068264	0.000071	0.706407	0.239337	-0.005730
 513	2.5600e-01	19.5508	34.013528	0.000135	1.349553	0.457241	-0.010947
 514	2.5650e-01	19.5123	33.966917	0.000115	1.149229	0.389369	-0.009322
 515	2.5700e-01	19.4609	33.928858	0.000094	0.938361	0.317925	-0.007612
 516	2.5750e-01	19.4337	33.882247	0.000115	1.149229	0.389369	-0.009322
 517	2.5800e-01	19.4241	33.808268	0.000182	1.824005	0.617990	-0.014796
 518	2.5850e-01	19.3214	33.807413	0.000002	0.021087	0.007144	-0.000171
 519	2.5900e-01	19.2925	33.768499	0.000096	0.959448	0.325070	-0.007783
 520	2.5950e-01	19.2331	33.724881	0.000108	1.075425	0.364364	-0.008724
 521	2.6000e-01	19.1690	33.680408	0.000110	1.096512	0.371508	-0.008895
 522	2.6050e-01	19.1882	33.649619	-0.000076	-0.759123	-0.257198	-0.006158
 523	2.6100e-01	19.1401	33.585048	0.000159	1.592051	0.539401	-0.012914
 524	2.6150e-01	19.0823	33.531167	0.000133	1.328466	0.450096	-0.010776
 525	2.6200e-01	19.0519	33.524752	0.000016	0.158151	0.053583	-0.001283
 526	2.6250e-01	19.0198	33.455050	0.000172	1.718571	0.582268	-0.013941
 527	2.6300e-01	18.9781	33.437089	0.000044	0.442822	0.150032	-0.003592
 528	2.6350e-01	18.9251	33.403735	0.000082	0.822384	0.278631	-0.006671
 529	2.6400e-01	18.8930	33.321630	0.000202	2.024329	0.685861	-0.016421
 530	2.6450e-01	18.8401	33.292552	0.000072	0.716950	0.242909	-0.005816
 531	2.6500e-01	18.8289	33.242520	0.000123	1.233576	0.417947	-0.010006
 532	2.6550e-01	18.7888	33.205316	0.000092	0.917274	0.310781	-0.007441
 533	2.6600e-01	18.7455	33.149297	0.000138	1.381183	0.467957	-0.011204
 534	2.6650e-01	18.7182	33.128771	0.000051	0.506082	0.171465	-0.004105
 535	2.6700e-01	18.6813	33.053509	0.000186	1.855635	0.628706	-0.015052
 536	2.6750e-01	18.6235	33.011602	0.000103	1.033251	0.350075	-0.008381
 537	2.6800e-01	18.5818	32.984662	0.000066	0.664233	0.225048	-0.005388
 538	2.6850e-01	18.5578	32.926932	0.000142	1.423356	0.482246	-0.011546
 539	2.6900e-01	18.4840	32.881604	0.000112	1.117598	0.378653	-0.009066
 540	2.6950e-01	18.4487	32.833710	0.000118	1.180859	0.400086	-0.009579
 541	2.7000e-01	18.4358	32.806342	0.000067	0.674776	0.228620	-0.005474
 542	2.7050e-01	18.3925	32.762724	0.000108	1.075425	0.364364	-0.008724
 543	2.7100e-01	18.3572	32.701574	0.000151	1.507704	0.510824	-0.012230
 544	2.7150e-01	18.3107	32.657101	0.000110	1.096512	0.371508	-0.008895
 545	2.7200e-01	18.2498	32.620753	0.000090	0.896187	0.303637	-0.007270
 546	2.7250e-01	18.2257	32.578418	0.000104	1.043795	0.353647	-0.008467
 547	2.7300e-01	18.1904	32.546773	0.000078	0.780210	0.264342	-0.006329
 548	2.7350e-01	18.1310	32.485623	0.000151	1.507704	0.510824	-0.012230
 549	2.7400e-01	18.1038	32.465097	0.000051	0.506082	0.171465	-0.004105
 550	2.7450e-01	18.0492	32.395822	0.000171	1.708028	0.578695	-0.013855
 551	2.7500e-01	18.0187	32.356480	0.000097	0.969991	0.328642	-0.007868
 552	2.7550e-01	17.9770	32.314573	0.000103	1.033251	0.350075	-0.008381
 553	2.7600e-01	17.9401	32.261547	0.000131	1.307379	0.442952	-0.010605
 554	2.7650e-01	17.8952	32.202535	0.000145	1.454987	0.492963	-0.011802
 555	2.7700e-01	17.8615	32.190134	0.000031	0.305758	0.103594	-0.002480
 556	2.7750e-01	17.8343	32.124707	0.000161	1.613137	0.546546	-0.013085
 557	2.7800e-01	17.7733	32.057998	0.000164	1.644767	0.557262	-0.013342
 558	2.7850e-01	17.7188	32.029775	0.000070	0.695863	0.235765	-0.005645
 559	2.7900e-01	17.7236	31.992999	-0.000091	-0.906731	-0.307209	-0.007355
 560	2.7950e-01	17.6594	31.927572	0.000161	1.613137	0.546546	-0.013085
 561	2.8000e-01	17.6225	31.887803	0.000098	0.980534	0.332214	-0.007954
 562	2.8050e-01	17.5744	31.862145	0.000063	0.632603	0.214332	-0.005132
 563	2.8100e-01	17.5615	31.794153	0.000168	1.676398	0.567979	-0.013598
 564	2.8150e-01	17.5134	31.757805	0.000090	0.896187	0.303637	-0.007270
 565	2.8200e-01	17.4589	31.703069	0.000135	1.349553	0.457241	-0.010947
 566	2.8250e-01	17.4107	31.653464	0.000122	1.223032	0.414375	-0.009921
 567	2.8300e-01	17.3995	31.643629	0.000024	0.242498	0.082160	-0.001967
 568	2.8350e-01	17.3385	31.561525	0.000202	2.024329	0.685861	-0.016421
 569	2.8400e-01	17.3161	31.512776	0.000120	1.201945	0.407230	-0.009750
 570	2.8450e-01	17.2664	31.485408	0.000067	0.674776	0.228620	-0.005474
 571	2.8500e-01	17.2343	31.415705	0.000172	1.718571	0.582268	-0.013941
 572	2.8550e-01	17.1910	31.388337	0.000067	0.674776	0.228620	-0.005474
 573	2.8600e-01	17.1348	31.311364	0.000190	1.897809	0.642995	-0.015395
 574	2.8650e-01	17.0883	31.288272	0.000057	0.569343	0.192898	-0.004618
 575	2.8700e-01	17.0546	31.235247	0.000131	1.307379	0.442952	-0.010605
 576	2.8750e-01	17.0065	31.196333	0.000096	0.959448	0.325070	-0.007783
 577	2.8800e-01	16.9936	31.136893	0.000147	1.465530	0.496535	-0.011888
 578	2.8850e-01	16.9439	31.099262	0.000093	0.927818	0.314353	-0.007526
 579	2.8900e-01	16.8958	31.058638	0.000100	1.001621	0.339358	-0.008125
 580	2.8950e-01	16.8765	30.991928	0.000164	1.644767	0.557262	-0.013342
 581	2.9000e-01	16.7915	30.953442	0.000095	0.948904	0.321497	-0.007697
 582	2.9050e-01	16.7931	30.900844	-0.000130	-1.296836	-0.439380	-0.010520
 583	2.9100e-01	16.7338	30.874331	0.000065	0.653690	0.221476	-0.005303
 584	2.9150e-01	16.7113	30.805483	0.000170	1.697484	0.575123	-0.013770
 585	2.9200e-01	16.6744	30.751603	0.000133	1.328466	0.450096	-0.010776
 586	2.9250e-01	16.6215	30.699432	0.000129	1.286293	0.435808	-0.010434
 587	2.9300e-01	16.5749	30.681472	0.000044	0.442822	0.150032	-0.003592
 588	2.9350e-01	16.5380	30.600651	0.000199	1.992699	0.675145	-0.016164
 589	2.9400e-01	16.4739	30.584401	0.000040	0.400648	0.135743	-0.003250
 590	2.9450e-01	16.4466	30.524106	0.000149	1.486617	0.503679	-0.012059
 591	2.9500e-01	16.4049	30.482626	0.000102	1.022708	0.346503	-0.008296
 592	2.9550e-01	16.4001	30.417200	0.000161	1.613137	0.546546	-0.013085
 593	2.9600e-01	16.3439	30.371016	0.000114	1.138685	0.385797	-0.009237
 594	2.9650e-01	16.2958	30.316708	0.000134	1.339009	0.453669	-0.010862
 595	2.9700e-01	16.2461	30.297465	0.000047	0.474452	0.160749	-0.003849
 596	2.9750e-01	16.2076	30.239735	0.000142	1.423356	0.482246	-0.011546
 597	2.9800e-01	16.1819	30.183289	0.000139	1.391726	0.471530	-0.011289
 598	2.9850e-01	16.1514	30.131974	0.000127	1.265206	0.428663	-0.010263
 599	2.9900e-01	16.1001	30.105461	0.000065	0.653690	0.221476	-0.005303
 600	2.9950e-01	16.0503	30.056284	0.000121	1.212489	0.410802	-0.009835
 601	3.0000e-01	16.0407	29.989574	0.000164	1.644767	0.557262	-0.013342
 602	3.0050e-01	15.9862	29.963917	0.000063	0.632603	0.214332	-0.005132
 603	3.0100e-01	15.9381	29.891648	0.000178	1.781831	0.603701	-0.014454
 604	3.0150e-01	15.8947	29.856155	0.000088	0.875101	0.296492	-0.007099
 605	3.0200e-01	15.8691	29.793722	0.000154	1.539334	0.521540	-0.012487
 606	3.0250e-01	15.7969	29.750959	0.000105	1.054338	0.357219	-0.008553
 607	3.0300e-01	15.7840	29.715894	0.000086	0.864557	0.292920	-0.007013
 608	3.0350e-01	15.7263	29.644908	0.000175	1.750201	0.592984	-0.014197
 609	3.0400e-01	15.7038	29.591455	0.000132	1.317923	0.446524	-0.010691
 610	3.0450e-01	15.6493	29.568363	0.000057	0.569343	0.192898	-0.004618
 611	3.0500e-01	15.6156	29.496522	0.000177	1.771288	0.600129	-0.014368
 612	3.0550e-01	15.5867	29.431951	0.000159	1.592051	0.539401	-0.012914
 613	3.0600e-01	15.5193	29.429813	0.000005	0.052717	0.017861	-0.000428
 614	3.0650e-01	15.4873	29.352413	0.000191	1.908352	0.646567	-0.015480
 615	3.0700e-01	15.4504	29.292973	0.000147	1.465530	0.496535	-0.011888
 616	3.0750e-01	15.4199	29.269026	0.000059	0.590429	0.200043	-0.004789
 617	3.0800e-01	15.3653	29.210441	0.000144	1.444443	0.489391	-0.011717
 618	3.0850e-01	15.3429	29.148863	0.000152	1.518247	0.514396	-0.012316
 619	3.0900e-01	15.2996	29.117646	0.000077	0.769667	0.260770	-0.006243
 620	3.0950e-01	15.2514	29.050509	0.000166	1.655311	0.560834	-0.013427
 621	3.1000e-01	15.2322	28.989359	0.000151	1.507704	0.510824	-0.012230
 622	3.1050e-01	15.1648	28.938044	0.000127	1.265206	0.428663	-0.010263
 623	3.1100e-01	15.1231	28.908110	0.000074	0.738037	0.250054	-0.005987
 624	3.1150e-01	15.0846	28.846532	0.000152	1.518247	0.514396	-0.012316
 625	3.1200e-01	15.0397	28.803342	0.000106	1.064882	0.360792	-0.008638
 626	3.1250e-01	15.0140	28.743474	0.000148	1.476073	0.500107	-0.011974
 627	3.1300e-01	14.9707	28.716534	0.000066	0.664233	0.225048	-0.005388
 628	3.1350e-01	14.9242	28.658377	0.000143	1.433900	0.485818	-0.011631
 629	3.1400e-01	14.8921	28.599792	0.000144	1.444443	0.489391	-0.011717
 630	3.1450e-01	14.8472	28.545911	0.000133	1.328466	0.450096	-0.010776
 631	3.1500e-01	14.8424	28.480912	0.000160	1.602594	0.542974	-0.013000
 632	3.1550e-01	14.7493	28.454827	0.000064	0.643146	0.217904	-0.005217
 633	3.1600e-01	14.7605	28.392394	-0.000154	-1.539334	-0.521540	-0.012487
 634	3.1650e-01	14.6851	28.354763	0.000093	0.927818	0.314353	-0.007526
 635	3.1700e-01	14.6515	28.303875	0.000125	1.254662	0.425091	-0.010177
 636	3.1750e-01	14.6178	28.241015	0.000155	1.549877	0.525113	-0.012572
 637	3.1800e-01	14.5809	28.202528	0.000095	0.948904	0.321497	-0.007697
 638	3.1850e-01	14.5472	28.118714	0.000207	2.066503	0.700150	-0.016763
 639	3.1900e-01	14.4878	28.092201	0.000065	0.653690	0.221476	-0.005303
 640	3.1950e-01	14.4557	28.058419	0.000083	0.832927	0.282203	-0.006756
 641	3.2000e-01	14.3996	27.998551	0.000148	1.476073	0.500107	-0.011974
 642	3.2050e-01	14.4044	27.916875	-0.000201	-2.013786	-0.682289	-0.016335
 643	3.2100e-01	14.3290	27.892928	0.000059	0.590429	0.200043	-0.004789
 644	3.2150e-01	14.3162	27.818948	0.000182	1.824005	0.617990	-0.014796
 645	3.2200e-01	14.2793	27.769344	0.000122	1.223032	0.414375	-0.009921
 646	3.2250e-01	14.2119	27.708193	0.000151	1.507704	0.510824	-0.012230
 647	3.2300e-01	14.1830	27.694509	0.000034	0.337388	0.114310	-0.002737
 648	3.2350e-01	14.1317	27.634214	0.000149	1.486617	0.503679	-0.012059
 649	3.2400e-01	14.1060	27.577340	0.000140	1.402270	0.475102	-0.011375
 650	3.2450e-01	14.0499	27.522604	0.000135	1.349553	0.457241	-0.010947
 651	3.2500e-01	14.0114	27.468296	0.000134	1.339009	0.453669	-0.010862
 652	3.2550e-01	13.9809	27.440928	0.000067	0.674776	0.228620	-0.005474
 653	3.2600e-01	13.9488	27.352837	0.000217	2.171937	0.735872	-0.017618
 654	3.2650e-01	13.9119	27.302377	0.000124	1.244119	0.421519	-0.010092
 655	3.2700e-01	13.8381	27.254483	0.000118	1.180859	0.400086	-0.009579
 656	3.2750e-01	13.8140	27.215569	0.000096	0.959448	0.325070	-0.007783
 657	3.2800e-01	13.7852	27.148004	0.000167	1.665854	0.564407	-0.013513
 658	3.2850e-01	13.7338	27.095406	0.000130	1.296836	0.439380	-0.010520
 659	3.2900e-01	13.6953	27.040670	0.000135	1.349553	0.457241	-0.010947
 660	3.2950e-01	13.6616	26.993204	0.000117	1.170315	0.396514	-0.009493
 661	3.3000e-01	13.6167	26.937185	0.000138	1.381183	0.467957	-0.011204
 662	3.3050e-01	13.5622	26.924356	0.000032	0.316301	0.107166	-0.002566
 663	3.3100e-01	13.5461	26.848239	0.000188	1.876722	0.635851	-0.015223
 664	3.3150e-01	13.5157	26.785378	0.000155	1.549877	0.525113	-0.012572
 665	3.3200e-01	13.4691	26.718669	0.000164	1.644767	0.557262	-0.013342
 666	3.3250e-01	13.4114	26.666498	0.000129	1.286293	0.435808	-0.010434
 667	3.3300e-01	13.3552	26.619460	0.000116	1.159772	0.392941	-0.009408
 668	3.3350e-01	13.3360	26.582256	0.000092	0.917274	0.310781	-0.007441
 669	3.3400e-01	13.3440	26.507422	-0.000185	-1.845092	-0.625134	-0.014967
 670	3.3450e-01	13.2462	26.465942	0.000102	1.022708	0.346503	-0.008296
 671	3.3500e-01	13.2060	26.436436	0.000073	0.727493	0.246481	-0.005901
 672	3.3550e-01	13.1996	26.344496	0.000227	2.266827	0.768022	-0.018388
 673	3.3600e-01	13.1322	26.318839	0.000063	0.632603	0.214332	-0.005132
 674	3.3650e-01	13.1306	26.238018	0.000199	1.992699	0.675145	-0.016164
 675	3.3700e-01	13.0488	26.187986	0.000123	1.233576	0.417947	-0.010006
 676	3.3750e-01	13.0296	26.142230	0.000113	1.128142	0.382225	-0.009151
 677	3.3800e-01	12.9750	26.088349	0.000133	1.328466	0.450096	-0.010776
 678	3.3850e-01	12.9542	26.044731	0.000108	1.075425	0.364364	-0.008724
 679	3.3900e-01	12.9157	25.945522	0.000245	2.446064	0.828749	-0.019842
 680	3.3950e-01	12.8355	25.936114	0.000023	0.231954	0.078588	-0.001882
 681	3.4000e-01	12.8002	25.868122	0.000168	1.676398	0.567979	-0.013598
 682	3.4050e-01	12.7841	25.830063	0.000094	0.938361	0.317925	-0.007612
 683	3.4100e-01	12.7488	25.768058	0.000153	1.528790	0.517968	-0.012401
 684	3.4150e-01	12.6718	25.713322	0.000135	1.349553	0.457241	-0.010947
 685	3.4200e-01	12.6462	25.673980	0.000097	0.969991	0.328642	-0.007868
 686	3.4250e-01	12.6093	25.603850	0.000173	1.729115	0.585840	-0.014026
 687	3.4300e-01	12.5788	25.557238	0.000115	1.149229	0.389369	-0.009322
 688	3.4350e-01	12.5162	25.503785	0.000132	1.317923	0.446524	-0.010691
 689	3.4400e-01	12.5178	25.419543	-0.000208	-2.077046	-0.703722	-0.016848
 690	3.4450e-01	12.4488	25.398162	0.000053	0.527169	0.178610	-0.004276
 691	3.4500e-01	12.4184	25.320334	0.000192	1.918895	0.650139	-0.015566
 692	3.4550e-01	12.3767	25.281848	0.000095	0.948904	0.321497	-0.007697
 693	3.4600e-01	12.3398	25.204020	0.000192	1.918895	0.650139	-0.015566
 694	3.4650e-01	12.2868	25.164678	0.000097	0.969991	0.328642	-0.007868
 695	3.4700e-01	12.2644	25.099252	0.000161	1.613137	0.546546	-0.013085
 696	3.4750e-01	12.2467	25.039384	0.000148	1.476073	0.500107	-0.011974
 697	3.4800e-01	12.1777	25.002181	0.000092	0.917274	0.310781	-0.007441
 698	3.4850e-01	12.1489	24.948300	0.000133	1.328466	0.450096	-0.010776
 699	3.4900e-01	12.1087	24.869617	0.000194	1.939982	0.657284	-0.015737
 700	3.4950e-01	12.0574	24.826854	0.000105	1.054338	0.357219	-0.008553
 701	3.5000e-01	12.0398	24.760145	0.000164	1.644767	0.557262	-0.013342
 702	3.5050e-01	11.9692	24.735343	0.000061	0.611516	0.207187	-0.004960
 703	3.5100e-01	11.9596	24.650673	0.000209	2.087589	0.707294	-0.016934
 704	3.5150e-01	11.8986	24.595081	0.000137	1.370640	0.464385	-0.011118
 705	3.5200e-01	11.8168	24.554029	0.000101	1.012165	0.342931	-0.008210
 706	3.5250e-01	11.7943	24.524951	0.000072	0.716950	0.242909	-0.005816
 707	3.5300e-01	11.7687	24.455248	0.000172	1.718571	0.582268	-0.013941
 708	3.5350e-01	11.7430	24.395808	0.000147	1.465530	0.496535	-0.011888
 709	3.5400e-01	11.7029	24.330381	0.000161	1.613137	0.546546	-0.013085
 710	3.5450e-01	11.6628	24.251698	0.000194	1.939982	0.657284	-0.015737
 711	3.5500e-01	11.6211	24.214067	0.000093	0.927818	0.314353	-0.007526
 712	3.5550e-01	11.5842	24.164890	0.000121	1.212489	0.410802	-0.009835
 713	3.5600e-01	11.5104	24.111865	0.000131	1.307379	0.442952	-0.010605
 714	3.5650e-01	11.5007	24.025485	0.000213	2.129763	0.721583	-0.017276
 715	3.5700e-01	11.4590	23.972887	0.000130	1.296836	0.439380	-0.010520
 716	3.5750e-01	11.4045	23.933545	0.000097	0.969991	0.328642	-0.007868
 717	3.5800e-01	11.3933	23.860849	0.000179	1.792375	0.607273	-0.014539
 718	3.5850e-01	11.3339	23.815948	0.000111	1.107055	0.375080	-0.008980
 719	3.5900e-01	11.2970	23.756508	0.000147	1.465530	0.496535	-0.011888
 720	3.5950e-01	11.2585	23.681246	0.000186	1.855635	0.628706	-0.015052
 721	3.6000e-01	11.2328	23.641477	0.000098	0.980534	0.332214	-0.007954
 722	3.6050e-01	11.1895	23.580327	0.000151	1.507704	0.510824	-0.012230
 723	3.6100e-01	11.1366	23.512762	0.000167	1.665854	0.564407	-0.013513
 724	3.6150e-01	11.0869	23.487104	0.000063	0.632603	0.214332	-0.005132
 725	3.6200e-01	11.0724	23.428947	0.000143	1.433900	0.485818	-0.011631
 726	3.6250e-01	11.0355	23.354113	0.000185	1.845092	0.625134	-0.014967
 727	3.6300e-01	10.9874	23.291252	0.000155	1.549877	0.525113	-0.012572
 728	3.6350e-01	10.9537	23.229674	0.000152	1.518247	0.514396	-0.012316
 729	3.6400e-01	10.9088	23.177931	0.000128	1.275749	0.432236	-0.010349
 730	3.6450e-01	10.8607	23.116353	0.000152	1.518247	0.514396	-0.012316
 731	3.6500e-01	10.8286	23.059051	0.000141	1.412813	0.478674	-0.011460
 732	3.6550e-01	10.7756	23.021848	0.000092	0.917274	0.310781	-0.007441
 733	3.6600e-01	10.7484	22.955139	0.000164	1.644767	0.557262	-0.013342
 734	3.6650e-01	10.6906	22.899120	0.000138	1.381183	0.467957	-0.011204
 735	3.6700e-01	10.6489	22.833265	0.000162	1.623681	0.550118	-0.013171
 736	3.6750e-01	10.6296	22.768694	0.000159	1.592051	0.539401	-0.012914
 737	3.6800e-01	10.5815	22.711820	0.000140	1.402270	0.475102	-0.011375
 738	3.6850e-01	10.5462	22.662643	0.000121	1.212489	0.410802	-0.009835
 739	3.6900e-01	10.4837	22.573269	0.000220	2.203567	0.746589	-0.017875
 740	3.6950e-01	10.4516	22.550177	0.000057	0.569343	0.192898	-0.004618
 741	3.7000e-01	10.4131	22.494586	0.000137	1.370640	0.464385	-0.011118
 742	3.7050e-01	10.3730	22.413337	0.000200	2.003242	0.678717	-0.016250
 743	3.7100e-01	10.3425	22.362878	0.000124	1.244119	0.421519	-0.010092
 744	3.7150e-01	10.3393	22.280346	0.000203	2.034873	0.689433	-0.016506
 745	3.7200e-01	10.2430	22.235445	0.000111	1.107055	0.375080	-0.008980
 746	3.7250e-01	10.2045	22.186268	0.000121	1.212489	0.410802	-0.009835
 747	3.7300e-01	10.1805	22.122552	0.000157	1.570964	0.532257	-0.012743
 748	3.7350e-01	10.1259	22.051139	0.000176	1.760745	0.596556	-0.014283
 749	3.7400e-01	10.1115	22.020350	0.000076	0.759123	0.257198	-0.006158
 750	3.7450e-01	10.0666	21.927555	0.000229	2.287914	0.775166	-0.018559
 751	3.7500e-01	10.0313	21.882227	0.000112	1.117598	0.378653	-0.009066
 752	3.7550e-01	9.9687	21.813379	0.000170	1.697484	0.575123	-0.013770
 753	3.7600e-01	9.9126	21.784301	0.000072	0.716950	0.242909	-0.005816
 754	3.7650e-01	9.9013	21.703479	0.000199	1.992699	0.675145	-0.016164
 755	3.7700e-01	9.8468	21.644039	0.000147	1.465530	0.496535	-0.011888
 756	3.7750e-01	9.8420	21.602560	0.000102	1.022708	0.346503	-0.008296
 757	3.7800e-01	9.7890	21.532857	0.000172	1.718571	0.582268	-0.013941
 758	3.7850e-01	9.7313	21.458450	0.000183	1.834548	0.621562	-0.014881
 759	3.7900e-01	9.7249	21.377629	0.000199	1.992699	0.675145	-0.016164
 760	3.7950e-01	9.6607	21.338287	0.000097	0.969991	0.328642	-0.007868
 761	3.8000e-01	9.6126	21.264736	0.000181	1.813462	0.614417	-0.014710
 762	3.8050e-01	9.6126	21.195033	0.000172	1.718571	0.582268	-0.013941
 763	3.8100e-01	9.5340	21.159968	0.000086	0.864557	0.292920	-0.007013
 764	3.8150e-01	9.5019	21.089837	0.000173	1.729115	0.585840	-0.014026
 765	3.8200e-01	9.4602	21.030397	0.000147	1.465530	0.496535	-0.011888
 766	3.8250e-01	9.4329	20.981648	0.000120	1.201945	0.407230	-0.009750
 767	3.8300e-01	9.3783	20.923063	0.000144	1.444443	0.489391	-0.011717
 768	3.8350e-01	9.3382	20.870038	0.000131	1.307379	0.442952	-0.010605
 769	3.8400e-01	9.2965	20.766980	0.000254	2.540955	0.860899	-0.020612
 770	3.8450e-01	9.2516	20.743033	0.000059	0.590429	0.200043	-0.004789
 771	3.8500e-01	9.1987	20.677179	0.000162	1.623681	0.550118	-0.013171
 772	3.8550e-01	9.1778	20.610469	0.000164	1.644767	0.557262	-0.013342
 773	3.8600e-01	9.0912	20.589088	0.000053	0.527169	0.178610	-0.004276
 774	3.8650e-01	9.0880	20.495438	0.000231	2.309000	0.782311	-0.018730
 775	3.8700e-01	9.0655	20.403926	0.000226	2.256284	0.764450	-0.018302
 776	3.8750e-01	9.0334	20.340210	0.000157	1.570964	0.532257	-0.012743
 777	3.8800e-01	8.9773	20.286757	0.000132	1.317923	0.446524	-0.010691
 778	3.8850e-01	8.9468	20.228172	0.000144	1.444443	0.489391	-0.011717
 779	3.8900e-01	8.9019	20.176857	0.000127	1.265206	0.428663	-0.010263
 780	3.8950e-01	8.8746	20.092615	0.000208	2.077046	0.703722	-0.016848
 781	3.9000e-01	8.8121	20.048570	0.000109	1.085968	0.367936	-0.008809
 782	3.9050e-01	8.7944	19.983998	0.000159	1.592051	0.539401	-0.012914
 783	3.9100e-01	8.7495	19.921992	0.000153	1.528790	0.517968	-0.012401
 784	3.9150e-01	8.6853	19.847586	0.000183	1.834548	0.621562	-0.014881
 785	3.9200e-01	8.6516	19.793277	0.000134	1.339009	0.453669	-0.010862
 786	3.9250e-01	8.6051	19.741107	0.000129	1.286293	0.435808	-0.010434
 787	3.9300e-01	8.5682	19.675253	0.000162	1.623681	0.550118	-0.013171
 788	3.9350e-01	8.5329	19.582458	0.000229	2.287914	0.775166	-0.018559
 789	3.9400e-01	8.4912	19.529005	0.000132	1.317923	0.446524	-0.010691
 790	3.9450e-01	8.4736	19.464433	0.000159	1.592051	0.539401	-0.012914
 791	3.9500e-01	8.4142	19.424664	0.000098	0.980534	0.332214	-0.007954
 792	3.9550e-01	8.3789	19.342133	0.000203	2.034873	0.689433	-0.016506
 793	3.9600e-01	8.3179	19.296804	0.000112	1.117598	0.378653	-0.009066
 794	3.9650e-01	8.2987	19.204865	0.000227	2.266827	0.768022	-0.018388
 795	3.9700e-01	8.2666	19.152267	0.000130	1.296836	0.439380	-0.010520
 796	3.9750e-01	8.2153	19.092827	0.000147	1.465530	0.496535	-0.011888
 797	3.9800e-01	8.1591	19.035525	0.000141	1.412813	0.478674	-0.011460
 798	3.9850e-01	8.1206	18.955559	0.000197	1.971612	0.668000	-0.015993
 799	3.9900e-01	8.0709	18.912797	0.000105	1.054338	0.357219	-0.008553
 800	3.9950e-01	8.0613	18.828555	0.000208	2.077046	0.703722	-0.016848
 801	4.0000e-01	8.0083	18.759279	0.000171	1.708028	0.578695	-0.013855
 802	4.0050e-01	7.9875	18.713951	0.000112	1.117598	0.378653	-0.009066
 803	4.0100e-01	7.9169	18.620301	0.000231	2.309000	0.782311	-0.018730
 804	4.0150e-01	7.8960	18.580104	0.000099	0.991078	0.335786	-0.008039
 805	4.0200e-01	7.8607	18.532210	0.000118	1.180859	0.400086	-0.009579
 806	4.0250e-01	7.8271	18.451389	0.000199	1.992699	0.675145	-0.016164
 807	4.0300e-01	7.7741	18.382969	0.000169	1.686941	0.571551	-0.013684
 808	4.0350e-01	7.7388	18.305997	0.000190	1.897809	0.642995	-0.015395
 809	4.0400e-01	7.6907	18.253826	0.000129	1.286293	0.435808	-0.010434
 810	4.0450e-01	7.6634	18.177281	0.000189	1.887265	0.639423	-0.015309
 811	4.0500e-01	7.6201	18.126394	0.000125	1.254662	0.425091	-0.010177
 812	4.0550e-01	7.5912	18.047283	0.000195	1.950526	0.660856	-0.015822
 813	4.0600e-01	7.5575	17.986988	0.000149	1.486617	0.503679	-0.012059
 814	4.0650e-01	7.4725	17.909160	0.000192	1.918895	0.650139	-0.015566
 815	4.0700e-01	7.4645	17.853997	0.000136	1.360096	0.460813	-0.011033
 816	4.0750e-01	7.4164	17.764195	0.000221	2.214110	0.750161	-0.017960
 817	4.0800e-01	7.3779	17.730413	0.000083	0.832927	0.282203	-0.006756
 818	4.0850e-01	7.3378	17.656434	0.000182	1.824005	0.617990	-0.014796
 819	4.0900e-01	7.2977	17.569198	0.000215	2.150850	0.728728	-0.017447
 820	4.0950e-01	7.2640	17.518738	0.000124	1.244119	0.421519	-0.010092
 821	4.1000e-01	7.2094	17.441766	0.000190	1.897809	0.642995	-0.015395
 822	4.1050e-01	7.1693	17.391734	0.000123	1.233576	0.417947	-0.010006
 823	4.1100e-01	7.1469	17.325452	0.000163	1.634224	0.553690	-0.013256
 824	4.1150e-01	7.1019	17.262591	0.000155	1.549877	0.525113	-0.012572
 825	4.1200e-01	7.0506	17.189895	0.000179	1.792375	0.607273	-0.014539
 826	4.1250e-01	7.0249	17.120192	0.000172	1.718571	0.582268	-0.013941
 827	4.1300e-01	6.9784	17.059897	0.000149	1.486617	0.503679	-0.012059
 828	4.1350e-01	6.9191	16.993615	0.000163	1.634224	0.553690	-0.013256
 829	4.1400e-01	6.8838	16.920918	0.000179	1.792375	0.607273	-0.014539
 830	4.1450e-01	6.8613	16.836249	0.000209	2.087589	0.707294	-0.016934
 831	4.1500e-01	6.8068	16.789210	0.000116	1.159772	0.392941	-0.009408
 832	4.1550e-01	6.7763	16.707106	0.000202	2.024329	0.685861	-0.016421
 833	4.1600e-01	6.7121	16.638258	0.000170	1.697484	0.575123	-0.013770
 834	4.1650e-01	6.6913	16.568555	0.000172	1.718571	0.582268	-0.013941
 835	4.1700e-01	6.6688	16.500135	0.000169	1.686941	0.571551	-0.013684
 836	4.1750e-01	6.6207	16.427866	0.000178	1.781831	0.603701	-0.014454
 837	4.1800e-01	6.5758	16.386387	0.000102	1.022708	0.346503	-0.008296
 838	4.1850e-01	6.5340	16.280763	0.000260	2.604215	0.882332	-0.021125
 839	4.1900e-01	6.5036	16.238856	0.000103	1.033251	0.350075	-0.008381
 840	4.1950e-01	6.4602	16.130239	0.000268	2.678019	0.907337	-0.021723
 841	4.2000e-01	6.4330	16.108003	0.000055	0.548256	0.185754	-0.004447
 842	4.2050e-01	6.4025	16.029320	0.000194	1.939982	0.657284	-0.015737
 843	4.2100e-01	6.3399	15.955340	0.000182	1.824005	0.617990	-0.014796
 844	4.2150e-01	6.3094	15.899322	0.000138	1.381183	0.467957	-0.011204
 845	4.2200e-01	6.2613	15.831757	0.000167	1.665854	0.564407	-0.013513
 846	4.2250e-01	6.2501	15.753501	0.000193	1.929439	0.653712	-0.015651
 847	4.2300e-01	6.1891	15.679095	0.000183	1.834548	0.621562	-0.014881
 848	4.2350e-01	6.1218	15.611530	0.000167	1.665854	0.564407	-0.013513
 849	4.2400e-01	6.0961	15.552090	0.000147	1.465530	0.496535	-0.011888
 850	4.2450e-01	6.0560	15.476828	0.000186	1.855635	0.628706	-0.015052
 851	4.2500e-01	6.0223	15.404559	0.000178	1.781831	0.603701	-0.014454
 852	4.2550e-01	6.0159	15.322883	0.000201	2.013786	0.682289	-0.016335
 853	4.2600e-01	5.9260	15.258739	0.000158	1.581507	0.535829	-0.012829
 854	4.2650e-01	5.9052	15.185615	0.000180	1.802918	0.610845	-0.014625
 855	4.2700e-01	5.8298	15.134728	0.000125	1.254662	0.425091	-0.010177
 856	4.2750e-01	5.8025	15.060748	0.000182	1.824005	0.617990	-0.014796
 857	4.2800e-01	5.7672	15.002164	0.000144	1.444443	0.489391	-0.011717
 858	4.2850e-01	5.7432	14.911080	0.000225	2.245740	0.760877	-0.018217
 859	4.2900e-01	5.7111	14.822561	0.000218	2.182480	0.739444	-0.017704
 860	4.2950e-01	5.6790	14.769963	0.000130	1.296836	0.439380	-0.010520
 861	4.3000e-01	5.6164	14.664340	0.000260	2.604215	0.882332	-0.021125
 862	4.3050e-01	5.5827	14.636972	0.000067	0.674776	0.228620	-0.005474
 863	4.3100e-01	5.5458	14.548453	0.000218	2.182480	0.739444	-0.017704
 864	4.3150e-01	5.4801	14.470625	0.000192	1.918895	0.650139	-0.015566
 865	4.3200e-01	5.4480	14.401778	0.000170	1.697484	0.575123	-0.013770
 866	4.3250e-01	5.4255	14.332503	0.000171	1.708028	0.578695	-0.013855
 867	4.3300e-01	5.3533	14.260234	0.000178	1.781831	0.603701	-0.014454
 868	4.3350e-01	5.3421	14.192241	0.000168	1.676398	0.567979	-0.013598
 869	4.3400e-01	5.3244	14.115697	0.000189	1.887265	0.639423	-0.015309
 870	4.3450e-01	5.2555	14.031454	0.000208	2.077046	0.703722	-0.016848
 871	4.3500e-01	5.2154	13.981850	0.000122	1.223032	0.414375	-0.009921
 872	4.3550e-01	5.1817	13.891193	0.000224	2.235197	0.757305	-0.018131
 873	4.3600e-01	5.1127	13.810800	0.000198	1.982156	0.671573	-0.016079
 874	4.3650e-01	5.0966	13.765471	0.000112	1.117598	0.378653	-0.009066
 875	4.3700e-01	5.0357	13.704321	0.000151	1.507704	0.510824	-0.012230
 876	4.3750e-01	5.0437	13.588435	-0.000286	-2.857256	-0.968065	-0.023177
 877	4.3800e-01	4.9715	13.533271	0.000136	1.360096	0.460813	-0.011033
 878	4.3850e-01	4.9330	13.475541	0.000142	1.423356	0.482246	-0.011546
 879	4.3900e-01	4.8737	13.379326	0.000237	2.372261	0.803744	-0.019243
 880	4.3950e-01	4.8608	13.309623	0.000172	1.718571	0.582268	-0.013941
 881	4.4000e-01	4.8271	13.245051	0.000159	1.592051	0.539401	-0.012914
 882	4.4050e-01	4.7598	13.144987	0.000247	2.467151	0.835893	-0.020013
 883	4.4100e-01	4.7164	13.090679	0.000134	1.339009	0.453669	-0.010862
 884	4.4150e-01	4.6892	13.013706	0.000190	1.897809	0.642995	-0.015395
 885	4.4200e-01	4.6715	12.945286	0.000169	1.686941	0.571551	-0.013684
 886	4.4250e-01	4.6394	12.830255	0.000284	2.836170	0.960920	-0.023006
 887	4.4300e-01	4.5656	12.809301	0.000052	0.516626	0.175038	-0.004191
 888	4.4350e-01	4.5239	12.711803	0.000240	2.403891	0.814460	-0.019500
 889	4.4400e-01	4.5095	12.634403	0.000191	1.908352	0.646567	-0.015480
 890	4.4450e-01	4.4485	12.562989	0.000176	1.760745	0.596556	-0.014283
 891	4.4500e-01	4.4116	12.501411	0.000152	1.518247	0.514396	-0.012316
 892	4.4550e-01	4.3828	12.418452	0.000205	2.045416	0.693006	-0.016592
 893	4.4600e-01	4.3234	12.328223	0.000222	2.224653	0.753733	-0.018046
 894	4.4650e-01	4.3026	12.260230	0.000168	1.676398	0.567979	-0.013598
 895	4.4700e-01	4.2272	12.184968	0.000186	1.855635	0.628706	-0.015052
 896	4.4750e-01	4.2336	12.108423	-0.000189	-1.887265	-0.639423	-0.015309
 897	4.4800e-01	4.2063	12.010070	0.000242	2.424978	0.821605	-0.019671
 898	4.4850e-01	4.1181	11.950202	0.000148	1.476073	0.500107	-0.011974
 899	4.4900e-01	4.0876	11.888624	0.000152	1.518247	0.514396	-0.012316
 900	4.4950e-01	4.0491	11.783428	0.000259	2.593672	0.878760	-0.021039
 901	4.5000e-01	4.0090	11.717574	0.000162	1.623681	0.550118	-0.013171
 902	4.5050e-01	3.9753	11.645305	0.000178	1.781831	0.603701	-0.014454
 903	4.5100e-01	3.9352	11.564056	0.000200	2.003242	0.678717	-0.016250
 904	4.5150e-01	3.8742	11.489650	0.000183	1.834548	0.621562	-0.014881
 905	4.5200e-01	3.8373	11.412677	0.000190	1.897809	0.642995	-0.015395
 906	4.5250e-01	3.8470	11.323731	-0.000219	-2.193023	-0.743016	-0.017789
 907	4.5300e-01	3.7780	11.231364	0.000228	2.277370	0.771594	-0.018473
 908	4.5350e-01	3.7266	11.190312	0.000101	1.012165	0.342931	-0.008210
 909	4.5400e-01	3.6962	11.093669	0.000238	2.382804	0.807316	-0.019329
 910	4.5450e-01	3.6609	11.027387	0.000163	1.634224	0.553690	-0.013256
 911	4.5500e-01	3.6416	10.910217	0.000289	2.888886	0.978781	-0.023434
 912	4.5550e-01	3.5758	10.835383	0.000185	1.845092	0.625134	-0.014967
 913	4.5600e-01	3.5245	10.770384	0.000160	1.602594	0.542974	-0.013000
 914	4.5650e-01	3.5069	10.687852	0.000203	2.034873	0.689433	-0.016506
 915	4.5700e-01	3.4667	10.618149	0.000172	1.718571	0.582268	-0.013941
 916	4.5750e-01	3.4266	10.537328	0.000199	1.992699	0.675145	-0.016164
 917	4.5800e-01	3.3705	10.449665	0.000216	2.161393	0.732300	-0.017533
 918	4.5850e-01	3.3545	10.362857	0.000214	2.140306	0.725155	-0.017362
 919	4.5900e-01	3.2999	10.293154	0.000172	1.718571	0.582268	-0.013941
 920	4.5950e-01	3.2807	10.210195	0.000205	2.045416	0.693006	-0.016592
 921	4.6000e-01	3.2534	10.116117	0.000232	2.319544	0.785883	-0.018816
 922	4.6050e-01	3.1491	10.041711	0.000183	1.834548	0.621562	-0.014881
 923	4.6100e-01	3.1443	9.968587	0.000180	1.802918	0.610845	-0.014625
 924	4.6150e-01	3.0737	9.893325	0.000186	1.855635	0.628706	-0.015052
 925	4.6200e-01	3.0480	9.817635	0.000187	1.866178	0.632278	-0.015138
 926	4.6250e-01	3.0272	9.712867	0.000258	2.583128	0.875188	-0.020954
 927	4.6300e-01	2.9630	9.639315	0.000181	1.813462	0.614417	-0.014710
 928	4.6350e-01	2.9422	9.555073	0.000208	2.077046	0.703722	-0.016848
 929	4.6400e-01	2.8732	9.487508	0.000167	1.665854	0.564407	-0.013513
 930	4.6450e-01	2.8796	9.391720	-0.000236	-2.361717	-0.800172	-0.019158
 931	4.6500e-01	2.8379	9.322445	0.000171	1.708028	0.578695	-0.013855
 932	4.6550e-01	2.7833	9.248038	0.000183	1.834548	0.621562	-0.014881
 933	4.6600e-01	2.7240	9.165079	0.000205	2.045416	0.693006	-0.016592
 934	4.6650e-01	2.6775	9.057317	0.000266	2.656932	0.900193	-0.021552
 935	4.6700e-01	2.6245	8.995311	0.000153	1.528790	0.517968	-0.012401
 936	4.6750e-01	2.6149	8.912780	0.000203	2.034873	0.689433	-0.016506
 937	4.6800e-01	2.5604	8.830248	0.000203	2.034873	0.689433	-0.016506
 938	4.6850e-01	2.5090	8.751993	0.000193	1.929439	0.653712	-0.015651
 939	4.6900e-01	2.5058	8.642521	0.000270	2.699106	0.914482	-0.021894
 940	4.6950e-01	2.4384	8.564693	0.000192	1.918895	0.650139	-0.015566
 941	4.7000e-01	2.4352	8.468905	0.000236	2.361717	0.800172	-0.019158
 942	4.7050e-01	2.3855	8.385518	0.000206	2.055959	0.696578	-0.016677
 943	4.7100e-01	2.3374	8.307262	0.000193	1.929439	0.653712	-0.015651
 944	4.7150e-01	2.2732	8.231145	0.000188	1.876722	0.635851	-0.015223
 945	4.7200e-01	2.2475	8.142627	0.000218	2.182480	0.739444	-0.017704
 946	4.7250e-01	2.2267	8.044273	0.000242	2.424978	0.821605	-0.019671
 947	4.7300e-01	2.1561	7.987399	0.000140	1.402270	0.475102	-0.011375
 948	4.7350e-01	2.1433	7.889045	0.000242	2.424978	0.821605	-0.019671
 949	4.7400e-01	2.1144	7.793684	0.000235	2.351174	0.796599	-0.019072
 950	4.7450e-01	2.0422	7.702600	0.000225	2.245740	0.760877	-0.018217
 951	4.7500e-01	2.0342	7.634180	0.000169	1.686941	0.571551	-0.013684
 952	4.7550e-01	1.9427	7.559346	0.000185	1.845092	0.625134	-0.014967
 953	4.7600e-01	1.9363	7.443032	0.000287	2.867800	0.971637	-0.023263
 954	4.7650e-01	1.8834	7.350665	0.000228	2.277370	0.771594	-0.018473
 955	4.7700e-01	1.8673	7.240337	0.000272	2.720192	0.921626	-0.022065
 956	4.7750e-01	1.8016	7.181325	0.000145	1.454987	0.492963	-0.011802
 957	4.7800e-01	1.7727	7.109484	0.000177	1.771288	0.600129	-0.014368
 958	4.7850e-01	1.7438	7.003861	0.000260	2.604215	0.882332	-0.021125
 959	4.7900e-01	1.7037	6.938862	0.000160	1.602594	0.542974	-0.013000
 960	4.7950e-01	1.6572	6.854619	0.000208	2.077046	0.703722	-0.016848
 961	4.8000e-01	1.6187	6.753272	0.000250	2.498781	0.846610	-0.020269
 962	4.8050e-01	1.5513	6.658767	0.000233	2.330087	0.789455	-0.018901
 963	4.8100e-01	1.5433	6.585215	0.000181	1.813462	0.614417	-0.014710
 964	4.8150e-01	1.5064	6.475316	0.000271	2.709649	0.918054	-0.021980
 965	4.8200e-01	1.4679	6.357291	0.000291	2.909973	0.985926	-0.023605
 966	4.8250e-01	1.4214	6.309825	0.000117	1.170315	0.396514	-0.009493
 967	4.8300e-01	1.3588	6.197359	0.000277	2.772909	0.939487	-0.022493
 968	4.8350e-01	1.3235	6.131505	0.000162	1.623681	0.550118	-0.013171
 969	4.8400e-01	1.3091	6.019467	0.000276	2.762366	0.935915	-0.022408
 970	4.8450e-01	1.2513	5.924962	0.000233	2.330087	0.789455	-0.018901
 971	4.8500e-01	1.2144	5.845851	0.000195	1.950526	0.660856	-0.015822
 972	4.8550e-01	1.1823	5.760326	0.000211	2.108676	0.714439	-0.017105
 973	4.8600e-01	1.1262	5.662400	0.000241	2.414434	0.818032	-0.019585
 974	4.8650e-01	1.0909	5.595691	0.000164	1.644767	0.557262	-0.013342
 975	4.8700e-01	1.0347	5.483653	0.000276	2.762366	0.935915	-0.022408
 976	4.8750e-01	1.0219	5.400693	0.000205	2.045416	0.693006	-0.016592
 977	4.8800e-01	0.9754	5.293359	0.000265	2.646389	0.896621	-0.021467
 978	4.8850e-01	0.9305	5.201848	0.000226	2.256284	0.764450	-0.018302
 979	4.8900e-01	0.8903	5.100928	0.000249	2.488238	0.843038	-0.020184
 980	4.8950e-01	0.8711	5.020107	0.000199	1.992699	0.675145	-0.016164
 981	4.9000e-01	0.8037	4.911918	0.000267	2.667475	0.903765	-0.021638
 982	4.9050e-01	0.7732	4.835800	0.000188	1.876722	0.635851	-0.015223
 983	4.9100e-01	0.7444	4.738302	0.000240	2.403891	0.814460	-0.019500
 984	4.9150e-01	0.7043	4.648073	0.000222	2.224653	0.753733	-0.018046
 985	4.9200e-01	0.6401	4.562548	0.000211	2.108676	0.714439	-0.017105
 986	4.9250e-01	0.6112	4.455214	0.000265	2.646389	0.896621	-0.021467
 987	4.9300e-01	0.5775	4.368834	0.000213	2.129763	0.721583	-0.017276
 988	4.9350e-01	0.5519	4.249526	0.000294	2.941603	0.996642	-0.023861
 989	4.9400e-01	0.4765	4.165284	0.000208	2.077046	0.703722	-0.016848
 990	4.9450e-01	0.4396	4.081897	0.000206	2.055959	0.696578	-0.016677
 991	4.9500e-01	0.4187	3.994234	0.000216	2.161393	0.732300	-0.017533
 992	4.9550e-01	0.3818	3.884762	0.000270	2.699106	0.914482	-0.021894
 993	4.9600e-01	0.3112	3.805224	0.000196	1.961069	0.664428	-0.015908
 994	4.9650e-01	0.3257	3.697462	-0.000266	-2.656932	-0.900193	-0.021552
 995	4.9700e-01	0.2487	3.603812	0.000231	2.309000	0.782311	-0.018730
 996	4.9750e-01	0.2278	3.514011	0.000221	2.214110	0.750161	-0.017960
 997	4.9800e-01	0.1893	3.403256	0.000273	2.730736	0.925198	-0.022151
 998	4.9850e-01	0.1332	3.316875	0.000213	2.129763	0.721583	-0.017276
 999	4.9900e-01	0.0995	3.224508	0.000228	2.277370	0.771594	-0.018473
1000	4.9950e-01	0.0754	3.132141	0.000228	2.277370	0.771594	-0.018473
1001	5.0000e-01	0.0578	3.011551	0.000297	2.973233	1.007359	-0.024118
1002	5.0050e-01	-0.0353	2.934151	0.000191	1.908352	0.646567	-0.015480
1003	5.0100e-01	-0.0914	2.859316	0.000185	1.845092	0.625134	-0.014967
1004	5.0150e-01	-0.0995	2.757542	0.000251	2.509325	0.850182	-0.020355
1005	5.0200e-01	-0.1155	2.635241	0.000302	3.015407	1.021648	-0.024460
1006	5.0250e-01	-0.1684	2.568531	0.000164	1.644767	0.557262	-0.013342
1007	5.0300e-01	-0.2342	2.474454	0.000232	2.319544	0.785883	-0.018816
1008	5.0350e-01	-0.2647	2.356429	0.000291	2.909973	0.985926	-0.023605
1009	5.0400e-01	-0.3032	2.282022	0.000183	1.834548	0.621562	-0.014881
1010	5.0450e-01	-0.3417	2.175116	0.000264	2.635845	0.893049	-0.021381
1011	5.0500e-01	-0.3738	2.059230	0.000286	2.857256	0.968065	-0.023177
1012	5.0550e-01	-0.4187	1.982257	0.000190	1.897809	0.642995	-0.015395
1013	5.0600e-01	-0.4957	1.869364	0.000278	2.783453	0.943059	-0.022579
1014	5.0650e-01	-0.5085	1.765023	0.000257	2.572585	0.871615	-0.020868
1015	5.0700e-01	-0.5567	1.693182	0.000177	1.771288	0.600129	-0.014368
1016	5.0750e-01	-0.5663	1.576868	0.000287	2.867800	0.971637	-0.023263
1017	5.0800e-01	-0.5727	1.453712	0.000304	3.036494	1.028792	-0.024631
1018	5.0850e-01	-0.6481	1.347233	0.000263	2.625302	0.889476	-0.021296
1019	5.0900e-01	-0.7059	1.289504	0.000142	1.423356	0.482246	-0.011546
1020	5.0950e-01	-0.7396	1.177466	0.000276	2.762366	0.935915	-0.022408
1021	5.1000e-01	-0.7861	1.086810	0.000224	2.235197	0.757305	-0.018131
1022	5.1050e-01	-0.7925	0.965792	0.000298	2.983777	1.010931	-0.024204
1023	5.1100e-01	-0.8535	0.862734	0.000254	2.540955	0.860899	-0.020612
1024	5.1150e-01	-0.8936	0.781485	0.000200	2.003242	0.678717	-0.016250
1025	5.1200e-01	-0.9513	0.680993	0.000248	2.477695	0.839466	-0.020098
1026	5.1250e-01	-1.0075	0.587343	0.000231	2.309000	0.782311	-0.018730
1027	5.1300e-01	-0.9994	0.470602	-0.000288	-2.878343	-0.975209	-0.023348
1028	5.1350e-01	-1.0700	0.401754	0.000170	1.697484	0.575123	-0.013770
1029	5.1400e-01	-1.0941	0.283729	0.000291	2.909973	0.985926	-0.023605
1030	5.1450e-01	-1.1246	0.175968	0.000266	2.656932	0.900193	-0.021552
1031	5.1500e-01	-1.1984	0.065213	0.000273	2.730736	0.925198	-0.022151
1032	5.1550e-01	-1.2176	-0.020312	0.000211	2.108676	0.714439	-0.017105
1033	5.1600e-01	-1.2609	-0.136199	0.000286	2.857256	0.968065	-0.023177
1034	5.1650e-01	-1.2978	-0.217020	0.000199	1.992699	0.675145	-0.016164
1035	5.1700e-01	-1.3235	-0.331623	0.000283	2.825626	0.957348	-0.022921
1036	5.1750e-01	-1.3732	-0.407741	0.000188	1.876722	0.635851	-0.015223
1037	5.1800e-01	-1.4342	-0.528759	0.000298	2.983777	1.010931	-0.024204
1038	5.1850e-01	-1.4807	-0.623264	0.000233	2.330087	0.789455	-0.018901
1039	5.1900e-01	-1.5160	-0.701947	0.000194	1.939982	0.657284	-0.015737
1040	5.1950e-01	-1.5369	-0.825531	0.000305	3.047037	1.032364	-0.024717
1041	5.2000e-01	-1.5738	-0.926450	0.000249	2.488238	0.843038	-0.020184
1042	5.2050e-01	-1.5850	-1.044475	0.000291	2.909973	0.985926	-0.023605
1043	5.2100e-01	-1.6941	-1.100921	0.000139	1.391726	0.471530	-0.011289
1044	5.2150e-01	-1.7149	-1.216380	0.000285	2.846713	0.964492	-0.023092
1045	5.2200e-01	-1.7278	-1.307037	0.000224	2.235197	0.757305	-0.018131
1046	5.2250e-01	-1.7566	-1.416081	0.000269	2.688562	0.910910	-0.021809
1047	5.2300e-01	-1.7807	-1.520422	0.000257	2.572585	0.871615	-0.020868
1048	5.2350e-01	-1.8449	-1.625617	0.000259	2.593672	0.878760	-0.021039
1049	5.2400e-01	-1.9171	-1.689761	0.000158	1.581507	0.535829	-0.012829
1050	5.2450e-01	-1.9251	-1.818049	0.000316	3.163014	1.071658	-0.025658
1051	5.2500e-01	-1.9925	-1.899725	0.000201	2.013786	0.682289	-0.016335
1052	5.2550e-01	-2.0229	-1.990382	0.000224	2.235197	0.757305	-0.018131
1053	5.2600e-01	-2.0663	-2.094295	0.000256	2.562042	0.868043	-0.020783
1054	5.2650e-01	-2.0983	-2.172550	0.000193	1.929439	0.653712	-0.015651
1055	5.2700e-01	-2.1384	-2.311956	0.000344	3.437142	1.164535	-0.027881
1056	5.2750e-01	-2.1769	-2.376955	0.000160	1.602594	0.542974	-0.013000
1057	5.2800e-01	-2.2154	-2.481723	0.000258	2.583128	0.875188	-0.020954
1058	5.2850e-01	-2.2652	-2.575373	0.000231	2.309000	0.782311	-0.018730
1059	5.2900e-01	-2.2941	-2.686556	0.000274	2.741279	0.928771	-0.022237
1060	5.2950e-01	-2.3374	-2.766522	0.000197	1.971612	0.668000	-0.015993
1061	5.3000e-01	-2.3743	-2.855895	0.000220	2.203567	0.746589	-0.017875
1062	5.3050e-01	-2.4288	-2.955960	0.000247	2.467151	0.835893	-0.020013
1063	5.3100e-01	-2.4801	-3.046616	0.000224	2.235197	0.757305	-0.018131
1064	5.3150e-01	-2.4561	-3.179608	-0.000328	-3.278992	-1.110952	-0.026598
1065	5.3200e-01	-2.5379	-3.274113	0.000233	2.330087	0.789455	-0.018901
1066	5.3250e-01	-2.6005	-3.339540	0.000161	1.613137	0.546546	-0.013085
1067	5.3300e-01	-2.6261	-3.423354	0.000207	2.066503	0.700150	-0.016763
1068	5.3350e-01	-2.6438	-3.524701	0.000250	2.498781	0.846610	-0.020269
1069	5.3400e-01	-2.6903	-3.635456	0.000273	2.730736	0.925198	-0.022151
1070	5.3450e-01	-2.7432	-3.715422	0.000197	1.971612	0.668000	-0.015993
1071	5.3500e-01	-2.7914	-3.815914	0.000248	2.477695	0.839466	-0.020098
1072	5.3550e-01	-2.8202	-3.886900	0.000175	1.750201	0.592984	-0.014197
1073	5.3600e-01	-2.8716	-3.986537	0.000246	2.456608	0.832321	-0.019927
1074	5.3650e-01	-2.9053	-4.097292	0.000273	2.730736	0.925198	-0.022151
1075	5.3700e-01	-2.9630	-4.181961	0.000209	2.087589	0.707294	-0.016934
1076	5.3750e-01	-2.9726	-4.281598	0.000246	2.456608	0.832321	-0.019927
1077	5.3800e-01	-3.0368	-4.347025	0.000161	1.613137	0.546546	-0.013085
1078	5.3850e-01	-3.0673	-4.444951	0.000241	2.414434	0.818032	-0.019585
1079	5.3900e-01	-3.0641	-4.553995	-0.000269	-2.688562	-0.910910	-0.021809
1080	5.3950e-01	-3.1652	-4.634389	0.000198	1.982156	0.671573	-0.016079
1081	5.4000e-01	-3.1748	-4.723763	0.000220	2.203567	0.746589	-0.017875
1082	5.4050e-01	-3.1988	-4.813992	0.000222	2.224653	0.753733	-0.018046
1083	5.4100e-01	-3.2726	-4.882412	0.000169	1.686941	0.571551	-0.013684
1084	5.4150e-01	-3.3159	-4.990601	0.000267	2.667475	0.903765	-0.021638
1085	5.4200e-01	-3.3641	-5.068856	0.000193	1.929439	0.653712	-0.015651
1086	5.4250e-01	-3.3705	-5.165927	0.000239	2.393348	0.810888	-0.019414
1087	5.4300e-01	-3.4186	-5.250169	0.000208	2.077046	0.703722	-0.016848
1088	5.4350e-01	-3.4716	-5.356648	0.000263	2.625302	0.889476	-0.021296
1089	5.4400e-01	-3.4956	-5.457568	0.000249	2.488238	0.843038	-0.020184
1090	5.4450e-01	-3.5454	-5.520428	0.000155	1.549877	0.525113	-0.012572
1091	5.4500e-01	-3.5823	-5.611513	0.000225	2.245740	0.760877	-0.018217
1092	5.4550e-01	-3.6320	-5.698748	0.000215	2.150850	0.728728	-0.017447
1093	5.4600e-01	-3.6577	-5.794964	0.000237	2.372261	0.803744	-0.019243
1094	5.4650e-01	-3.7042	-5.862956	0.000168	1.676398	0.567979	-0.013598
1095	5.4700e-01	-3.7683	-5.944633	0.000201	2.013786	0.682289	-0.016335
1096	5.4750e-01	-3.7732	-6.042559	0.000241	2.414434	0.818032	-0.019585
1097	5.4800e-01	-3.8101	-6.144334	0.000251	2.509325	0.850182	-0.020355
1098	5.4850e-01	-3.8662	-6.234990	0.000224	2.235197	0.757305	-0.018131
1099	5.4900e-01	-3.8999	-6.273904	0.000096	0.959448	0.325070	-0.007783
1100	5.4950e-01	-3.9304	-6.367127	0.000230	2.298457	0.778738	-0.018644
1101	5.5000e-01	-3.9705	-6.476171	0.000269	2.688562	0.910910	-0.021809
1102	5.5050e-01	-4.0427	-6.581367	0.000259	2.593672	0.878760	-0.021039
1103	5.5100e-01	-4.0667	-6.645938	0.000159	1.592051	0.539401	-0.012914
1104	5.5150e-01	-4.0940	-6.720345	0.000183	1.834548	0.621562	-0.014881
1105	5.5200e-01	-4.1405	-6.806725	0.000213	2.129763	0.721583	-0.017276
1106	5.5250e-01	-4.1790	-6.913632	0.000264	2.635845	0.893049	-0.021381
1107	5.5300e-01	-4.2544	-6.989749	0.000188	1.876722	0.635851	-0.015223
1108	5.5350e-01	-4.2785	-7.061162	0.000176	1.760745	0.596556	-0.014283
1109	5.5400e-01	-4.3138	-7.153957	0.000229	2.287914	0.775166	-0.018559
1110	5.5450e-01	-4.3571	-7.222377	0.000169	1.686941	0.571551	-0.013684
1111	5.5500e-01	-4.3715	-7.316027	0.000231	2.309000	0.782311	-0.018730
1112	5.5550e-01	-4.3972	-7.410960	0.000234	2.340631	0.793027	-0.018987
1113	5.5600e-01	-4.4614	-7.491781	0.000199	1.992699	0.675145	-0.016164
1114	5.5650e-01	-4.4806	-7.567043	0.000186	1.855635	0.628706	-0.015052
1115	5.5700e-01	-4.5448	-7.657700	0.000224	2.235197	0.757305	-0.018131
1116	5.5750e-01	-4.5961	-7.717567	0.000148	1.476073	0.500107	-0.011974
1117	5.5800e-01	-4.6122	-7.809934	0.000228	2.277370	0.771594	-0.018473
1118	5.5850e-01	-4.6635	-7.891611	0.000201	2.013786	0.682289	-0.016335
1119	5.5900e-01	-4.6876	-7.979701	0.000217	2.171937	0.735872	-0.017618
1120	5.5950e-01	-4.7485	-8.037431	0.000142	1.423356	0.482246	-0.011546
1121	5.6000e-01	-4.7678	-8.141771	0.000257	2.572585	0.871615	-0.020868
1122	5.6050e-01	-4.8111	-8.207198	0.000161	1.613137	0.546546	-0.013085
1123	5.6100e-01	-4.8672	-8.298710	0.000226	2.256284	0.764450	-0.018302
1124	5.6150e-01	-4.8929	-8.378676	0.000197	1.971612	0.668000	-0.015993
1125	5.6200e-01	-4.9025	-8.447096	0.000169	1.686941	0.571551	-0.013684
1126	5.6250e-01	-4.9908	-8.523213	0.000188	1.876722	0.635851	-0.015223
1127	5.6300e-01	-5.0229	-8.618146	0.000234	2.340631	0.793027	-0.018987
1128	5.6350e-01	-5.0646	-8.692980	0.000185	1.845092	0.625134	-0.014967
1129	5.6400e-01	-5.0886	-8.767387	0.000183	1.834548	0.621562	-0.014881
1130	5.6450e-01	-5.1576	-8.840511	0.000180	1.802918	0.610845	-0.014625
1131	5.6500e-01	-5.1881	-8.917911	0.000191	1.908352	0.646567	-0.015480
1132	5.6550e-01	-5.2122	-9.028239	0.000272	2.720192	0.921626	-0.022065
1133	5.6600e-01	-5.2651	-9.059455	0.000077	0.769667	0.260770	-0.006243
1134	5.6650e-01	-5.3164	-9.148829	0.000220	2.203567	0.746589	-0.017875
1135	5.6700e-01	-5.3405	-9.218532	0.000172	1.718571	0.582268	-0.013941
1136	5.6750e-01	-5.3694	-9.327149	0.000268	2.678019	0.907337	-0.021723
1137	5.6800e-01	-5.4223	-9.393003	0.000162	1.623681	0.550118	-0.013171
1138	5.6850e-01	-5.4817	-9.462706	0.000172	1.718571	0.582268	-0.013941
1139	5.6900e-01	-5.5009	-9.529843	0.000166	1.655311	0.560834	-0.013427
1140	5.6950e-01	-5.5378	-9.607671	0.000192	1.918895	0.650139	-0.015566
1141	5.7000e-01	-5.5843	-9.704742	0.000239	2.393348	0.810888	-0.019414
1142	5.7050e-01	-5.6148	-9.785563	0.000199	1.992699	0.675145	-0.016164
1143	5.7100e-01	-5.6645	-9.849279	0.000157	1.570964	0.532257	-0.012743
1144	5.7150e-01	-5.7207	-9.915133	0.000162	1.623681	0.550118	-0.013171
1145	5.7200e-01	-5.7736	-9.992961	0.000192	1.918895	0.650139	-0.015566
1146	5.7250e-01	-5.7801	-10.040000	0.000116	1.159772	0.392941	-0.009408
1147	5.7300e-01	-5.8330	-10.146051	0.000261	2.614759	0.885904	-0.021210
1148	5.7350e-01	-5.8843	-10.211905	0.000162	1.623681	0.550118	-0.013171
1149	5.7400e-01	-5.9132	-10.276904	0.000160	1.602594	0.542974	-0.013000
1150	5.7450e-01	-5.9308	-10.374403	0.000240	2.403891	0.814460	-0.019500
1151	5.7500e-01	-5.9758	-10.439402	0.000160	1.602594	0.542974	-0.013000
1152	5.7550e-01	-6.0239	-10.511671	0.000178	1.781831	0.603701	-0.014454
1153	5.7600e-01	-6.0592	-10.606603	0.000234	2.340631	0.793027	-0.018987
1154	5.7650e-01	-6.0945	-10.686997	0.000198	1.982156	0.671573	-0.016079
1155	5.7700e-01	-6.1683	-10.749430	0.000154	1.539334	0.521540	-0.012487
1156	5.7750e-01	-6.1939	-10.788344	0.000096	0.959448	0.325070	-0.007783
1157	5.7800e-01	-6.2276	-10.879428	0.000225	2.245740	0.760877	-0.018217
1158	5.7850e-01	-6.2709	-10.950842	0.000176	1.760745	0.596556	-0.014283
1159	5.7900e-01	-6.3111	-11.036795	0.000212	2.119220	0.718011	-0.017191
1160	5.7950e-01	-6.3496	-11.104359	0.000167	1.665854	0.564407	-0.013513
1161	5.8000e-01	-6.3704	-11.198009	0.000231	2.309000	0.782311	-0.018730
1162	5.8050e-01	-6.4121	-11.278830	0.000199	1.992699	0.675145	-0.016164
1163	5.8100e-01	-6.4137	-11.372053	0.000230	2.298457	0.778738	-0.018644
1164	5.8150e-01	-6.4955	-11.419519	0.000117	1.170315	0.396514	-0.009493
1165	5.8200e-01	-6.5356	-11.480670	0.000151	1.507704	0.510824	-0.012230
1166	5.8250e-01	-6.5758	-11.537544	0.000140	1.402270	0.475102	-0.011375
1167	5.8300e-01	-6.6223	-11.595701	0.000143	1.433900	0.485818	-0.011631
1168	5.8350e-01	-6.6832	-11.668397	0.000179	1.792375	0.607273	-0.014539
1169	5.8400e-01	-6.7057	-11.757771	0.000220	2.203567	0.746589	-0.017875
1170	5.8450e-01	-6.7410	-11.808658	0.000125	1.254662	0.425091	-0.010177
1171	5.8500e-01	-6.7683	-11.908722	0.000247	2.467151	0.835893	-0.020013
1172	5.8550e-01	-6.8372	-11.954906	0.000114	1.138685	0.385797	-0.009237
1173	5.8600e-01	-6.8629	-12.032306	0.000191	1.908352	0.646567	-0.015480
1174	5.8650e-01	-6.8982	-12.087897	0.000137	1.370640	0.464385	-0.011118
1175	5.8700e-01	-6.9335	-12.171284	0.000206	2.055959	0.696578	-0.016677
1176	5.8750e-01	-7.0009	-12.232435	0.000151	1.507704	0.510824	-0.012230
1177	5.8800e-01	-7.0073	-12.322236	0.000221	2.214110	0.750161	-0.017960
1178	5.8850e-01	-7.0779	-12.395360	0.000180	1.802918	0.610845	-0.014625
1179	5.8900e-01	-7.0811	-12.460359	0.000160	1.602594	0.542974	-0.013000
1180	5.8950e-01	-7.1356	-12.525786	0.000161	1.613137	0.546546	-0.013085
1181	5.9000e-01	-7.1645	-12.616870	0.000225	2.245740	0.760877	-0.018217
1182	5.9050e-01	-7.2207	-12.673316	0.000139	1.391726	0.471530	-0.011289
1183	5.9100e-01	-7.2351	-12.739171	0.000162	1.623681	0.550118	-0.013171
1184	5.9150e-01	-7.2912	-12.792196	0.000131	1.307379	0.442952	-0.010605
1185	5.9200e-01	-7.3378	-12.874728	0.000203	2.034873	0.689433	-0.016506
1186	5.9250e-01	-7.3731	-12.936306	0.000152	1.518247	0.514396	-0.012316
1187	5.9300e-01	-7.3875	-13.014989	0.000194	1.939982	0.657284	-0.015737
1188	5.9350e-01	-7.4629	-13.073146	0.000143	1.433900	0.485818	-0.011631
1189	5.9400e-01	-7.4966	-13.131731	0.000144	1.444443	0.489391	-0.011717
1190	5.9450e-01	-7.5447	-13.215545	0.000207	2.066503	0.700150	-0.016763
1191	5.9500e-01	-7.5800	-13.269854	0.000134	1.339009	0.453669	-0.010862
1192	5.9550e-01	-7.6073	-13.360510	0.000224	2.235197	0.757305	-0.018131
1193	5.9600e-01	-7.6554	-13.404128	0.000108	1.075425	0.364364	-0.008724
1194	5.9650e-01	-7.6955	-13.474259	0.000173	1.729115	0.585840	-0.014026
1195	5.9700e-01	-7.7244	-13.532843	0.000144	1.444443	0.489391	-0.011717
1196	5.9750e-01	-7.7741	-13.610243	0.000191	1.908352	0.646567	-0.015480
1197	5.9800e-01	-7.8399	-13.668828	0.000144	1.444443	0.489391	-0.011717
1198	5.9850e-01	-7.8848	-13.741524	0.000179	1.792375	0.607273	-0.014539
1199	5.9900e-01	-7.8768	-13.827905	-0.000213	-2.129763	-0.721583	-0.017276
1200	5.9950e-01	-7.9137	-13.883924	0.000138	1.381183	0.467957	-0.011204
1201	6.0000e-01	-7.9971	-13.948495	0.000159	1.592051	0.539401	-0.012914
1202	6.0050e-01	-8.0388	-14.023757	0.000186	1.855635	0.628706	-0.015052
1203	6.0100e-01	-8.0581	-14.080204	0.000139	1.391726	0.471530	-0.011289
1204	6.0150e-01	-8.1174	-14.134512	0.000134	1.339009	0.453669	-0.010862
1205	6.0200e-01	-8.1511	-14.213195	0.000194	1.939982	0.657284	-0.015737
1206	6.0250e-01	-8.1912	-14.261517	0.000119	1.191402	0.403658	-0.009664
1207	6.0300e-01	-8.2121	-14.329082	0.000167	1.665854	0.564407	-0.013513
1208	6.0350e-01	-8.2634	-14.405626	0.000189	1.887265	0.639423	-0.015309
1209	6.0400e-01	-8.3244	-14.467632	0.000153	1.528790	0.517968	-0.012401
1210	6.0450e-01	-8.3388	-14.536480	0.000170	1.697484	0.575123	-0.013770
1211	6.0500e-01	-8.3950	-14.599341	0.000155	1.549877	0.525113	-0.012572
1212	6.0550e-01	-8.4318	-14.671182	0.000177	1.771288	0.600129	-0.014368
1213	6.0600e-01	-8.4896	-14.716938	0.000113	1.128142	0.382225	-0.009151
1214	6.0650e-01	-8.5201	-14.778516	0.000152	1.518247	0.514396	-0.012316
1215	6.0700e-01	-8.5313	-14.853350	0.000185	1.845092	0.625134	-0.014967
1216	6.0750e-01	-8.5698	-14.947855	0.000233	2.330087	0.789455	-0.018901
1217	6.0800e-01	-8.6228	-14.998315	0.000124	1.244119	0.421519	-0.010092
1218	6.0850e-01	-8.6436	-15.058610	0.000149	1.486617	0.503679	-0.012059
1219	6.0900e-01	-8.7014	-15.124465	0.000162	1.623681	0.550118	-0.013171
1220	6.0950e-01	-8.7367	-15.193312	0.000170	1.697484	0.575123	-0.013770
1221	6.1000e-01	-8.7752	-15.241634	0.000119	1.191402	0.403658	-0.009664
1222	6.1050e-01	-8.8153	-15.316896	0.000186	1.855635	0.628706	-0.015052
1223	6.1100e-01	-8.8489	-15.383605	0.000164	1.644767	0.557262	-0.013342
1224	6.1150e-01	-8.9019	-15.455019	0.000176	1.760745	0.596556	-0.014283
1225	6.1200e-01	-8.9596	-15.473834	0.000046	0.463909	0.157177	-0.003763
1226	6.1250e-01	-8.9773	-15.576892	0.000254	2.540955	0.860899	-0.020612
1227	6.1300e-01	-9.0190	-15.632483	0.000137	1.370640	0.464385	-0.011118
1228	6.1350e-01	-9.0527	-15.694917	0.000154	1.539334	0.521540	-0.012487
1229	6.1400e-01	-9.1024	-15.752646	0.000142	1.423356	0.482246	-0.011546
1230	6.1450e-01	-9.1345	-15.818073	0.000161	1.613137	0.546546	-0.013085
1231	6.1500e-01	-9.1906	-15.861263	0.000106	1.064882	0.360792	-0.008638
1232	6.1550e-01	-9.2131	-15.942084	0.000199	1.992699	0.675145	-0.016164
1233	6.1600e-01	-9.2709	-16.002379	0.000149	1.486617	0.503679	-0.012059
1234	6.1650e-01	-9.2869	-16.062247	0.000148	1.476073	0.500107	-0.011974
1235	6.1700e-01	-9.3254	-16.131522	0.000171	1.708028	0.578695	-0.013855
1236	6.1750e-01	-9.3896	-16.194383	0.000155	1.549877	0.525113	-0.012572
1237	6.1800e-01	-9.3992	-16.264514	0.000173	1.729115	0.585840	-0.014026
1238	6.1850e-01	-9.4650	-16.317111	0.000130	1.296836	0.439380	-0.010520
1239	6.1900e-01	-9.5259	-16.379117	0.000153	1.528790	0.517968	-0.012401
1240	6.1950e-01	-9.5420	-16.436846	0.000142	1.423356	0.482246	-0.011546
1241	6.2000e-01	-9.5885	-16.491583	0.000135	1.349553	0.457241	-0.010947
1242	6.2050e-01	-9.6318	-16.562996	0.000176	1.760745	0.596556	-0.014283
1243	6.2100e-01	-9.6382	-16.645528	0.000203	2.034873	0.689433	-0.016506
1244	6.2150e-01	-9.7024	-16.686580	0.000101	1.012165	0.342931	-0.008210
1245	6.2200e-01	-9.7505	-16.740033	0.000132	1.317923	0.446524	-0.010691
1246	6.2250e-01	-9.7746	-16.805459	0.000161	1.613137	0.546546	-0.013085
1247	6.2300e-01	-9.8388	-16.844801	0.000097	0.969991	0.328642	-0.007868
1248	6.2350e-01	-9.8741	-16.925622	0.000199	1.992699	0.675145	-0.016164
1249	6.2400e-01	-9.9077	-17.008154	0.000203	2.034873	0.689433	-0.016506
1250	6.2450e-01	-9.9607	-17.047495	0.000097	0.969991	0.328642	-0.007868
1251	6.2500e-01	-9.9960	-17.102659	0.000136	1.360096	0.460813	-0.011033
1252	6.2550e-01	-10.0249	-17.164665	0.000153	1.528790	0.517968	-0.012401
1253	6.2600e-01	-10.0537	-17.244631	0.000197	1.971612	0.668000	-0.015993
1254	6.2650e-01	-10.1275	-17.292952	0.000119	1.191402	0.403658	-0.009664
1255	6.2700e-01	-10.1371	-17.370352	0.000191	1.908352	0.646567	-0.015480
1256	6.2750e-01	-10.1949	-17.415253	0.000111	1.107055	0.375080	-0.008980
1257	6.2800e-01	-10.2238	-17.485811	0.000174	1.739658	0.589412	-0.014112
1258	6.2850e-01	-10.2527	-17.531995	0.000114	1.138685	0.385797	-0.009237
1259	6.2900e-01	-10.3072	-17.575613	0.000108	1.075425	0.364364	-0.008724
1260	6.2950e-01	-10.3473	-17.661993	0.000213	2.129763	0.721583	-0.017276
1261	6.3000e-01	-10.4034	-17.688933	0.000066	0.664233	0.225048	-0.005388
1262	6.3050e-01	-10.4179	-17.789425	0.000248	2.477695	0.839466	-0.020098
1263	6.3100e-01	-10.4580	-17.857845	0.000169	1.686941	0.571551	-0.013684
1264	6.3150e-01	-10.4981	-17.908305	0.000124	1.244119	0.421519	-0.010092
1265	6.3200e-01	-10.5318	-17.974159	0.000162	1.623681	0.550118	-0.013171
1266	6.3250e-01	-10.5671	-18.012646	0.000095	0.948904	0.321497	-0.007697
1267	6.3300e-01	-10.5992	-18.098598	0.000212	2.119220	0.718011	-0.017191
1268	6.3350e-01	-10.6425	-18.142644	0.000109	1.085968	0.367936	-0.008809
1269	6.3400e-01	-10.7018	-18.214485	0.000177	1.771288	0.600129	-0.014368
1270	6.3450e-01	-10.7500	-18.259813	0.000112	1.117598	0.378653	-0.009066
1271	6.3500e-01	-10.7949	-18.314977	0.000136	1.360096	0.460813	-0.011033
1272	6.3550e-01	-10.8045	-18.404350	0.000220	2.203567	0.746589	-0.017875
1273	6.3600e-01	-10.8719	-18.438988	0.000085	0.854014	0.289348	-0.006928
1274	6.3650e-01	-10.9056	-18.502704	0.000157	1.570964	0.532257	-0.012743
1275	6.3700e-01	-10.9264	-18.568986	0.000163	1.634224	0.553690	-0.013256
1276	6.3750e-01	-10.9922	-18.616453	0.000117	1.170315	0.396514	-0.009493
1277	6.3800e-01	-11.0179	-18.670761	0.000134	1.339009	0.453669	-0.010862
1278	6.3850e-01	-11.0933	-18.740891	0.000173	1.729115	0.585840	-0.014026
1279	6.3900e-01	-11.0820	-18.793062	-0.000129	-1.286293	-0.435808	-0.010434
1280	6.3950e-01	-11.1334	-18.852502	0.000147	1.465530	0.496535	-0.011888
1281	6.4000e-01	-11.1719	-18.911942	0.000147	1.465530	0.496535	-0.011888
1282	6.4050e-01	-11.2088	-18.953421	0.000102	1.022708	0.346503	-0.008296
1283	6.4100e-01	-11.2601	-19.047071	0.000231	2.309000	0.782311	-0.018730
1284	6.4150e-01	-11.3002	-19.077860	0.000076	0.759123	0.257198	-0.006158
1285	6.4200e-01	-11.3371	-19.144142	0.000163	1.634224	0.553690	-0.013256
1286	6.4250e-01	-11.3884	-19.198878	0.000135	1.349553	0.457241	-0.010947
1287	6.4300e-01	-11.4077	-19.277561	0.000194	1.939982	0.657284	-0.015737
1288	6.4350e-01	-11.4558	-19.345554	0.000168	1.676398	0.567979	-0.013598
1289	6.4400e-01	-11.5120	-19.380191	0.000085	0.854014	0.289348	-0.006928
1290	6.4450e-01	-11.5473	-19.428513	0.000119	1.191402	0.403658	-0.009664
1291	6.4500e-01	-11.5441	-19.514038	-0.000211	-2.108676	-0.714439	-0.017105
1292	6.4550e-01	-11.5890	-19.561504	0.000117	1.170315	0.396514	-0.009493
1293	6.4600e-01	-11.6211	-19.615385	0.000133	1.328466	0.450096	-0.010776
1294	6.4650e-01	-11.7173	-19.679957	0.000159	1.592051	0.539401	-0.012914
1295	6.4700e-01	-11.7350	-19.732127	0.000129	1.286293	0.435808	-0.010434
1296	6.4750e-01	-11.7558	-19.797126	0.000160	1.602594	0.542974	-0.013000
1297	6.4800e-01	-11.8280	-19.856566	0.000147	1.465530	0.496535	-0.011888
1298	6.4850e-01	-11.8697	-19.910019	0.000132	1.317923	0.446524	-0.010691
1299	6.4900e-01	-11.8826	-19.956630	0.000115	1.149229	0.389369	-0.009322
1300	6.4950e-01	-11.9467	-20.025478	0.000170	1.697484	0.575123	-0.013770
1301	6.5000e-01	-11.9965	-20.087911	0.000154	1.539334	0.521540	-0.012487
1302	6.5050e-01	-12.0237	-20.133667	0.000113	1.128142	0.382225	-0.009151
1303	6.5100e-01	-12.0735	-20.216199	0.000203	2.034873	0.689433	-0.016506
1304	6.5150e-01	-12.0767	-20.265803	0.000122	1.223032	0.414375	-0.009921
1305	6.5200e-01	-12.1232	-20.329947	0.000158	1.581507	0.535829	-0.012829
1306	6.5250e-01	-12.2018	-20.390242	0.000149	1.486617	0.503679	-0.012059
1307	6.5300e-01	-12.2435	-20.442840	0.000130	1.296836	0.439380	-0.010520
1308	6.5350e-01	-12.2708	-20.506129	0.000156	1.560420	0.528685	-0.012658
1309	6.5400e-01	-12.3125	-20.548464	0.000104	1.043795	0.353647	-0.008467
1310	6.5450e-01	-12.3574	-20.604910	0.000139	1.391726	0.471530	-0.011289
1311	6.5500e-01	-12.3702	-20.667771	0.000155	1.549877	0.525113	-0.012572
1312	6.5550e-01	-12.4344	-20.741750	0.000182	1.824005	0.617990	-0.014796
1313	6.5600e-01	-12.4761	-20.772112	0.000075	0.748580	0.253626	-0.006072
1314	6.5650e-01	-12.5082	-20.845663	0.000181	1.813462	0.614417	-0.014710
1315	6.5700e-01	-12.5339	-20.928195	0.000203	2.034873	0.689433	-0.016506
1316	6.5750e-01	-12.5708	-20.986352	0.000143	1.433900	0.485818	-0.011631
1317	6.5800e-01	-12.6317	-21.017141	0.000076	0.759123	0.257198	-0.006158
1318	6.5850e-01	-12.7007	-21.066745	0.000122	1.223032	0.414375	-0.009921
1319	6.5900e-01	-12.7200	-21.172369	0.000260	2.604215	0.882332	-0.021125
1320	6.5950e-01	-12.7408	-21.217269	0.000111	1.107055	0.375080	-0.008980
1321	6.6000e-01	-12.8178	-21.259604	0.000104	1.043795	0.353647	-0.008467
1322	6.6050e-01	-12.8323	-21.321610	0.000153	1.528790	0.517968	-0.012401
1323	6.6100e-01	-12.8756	-21.396017	0.000183	1.834548	0.621562	-0.014881
1324	6.6150e-01	-12.8515	-21.498647	-0.000253	-2.530411	-0.857327	-0.020526
1325	6.6200e-01	-12.9381	-21.521311	0.000056	0.558799	0.189326	-0.004533
1326	6.6250e-01	-12.9590	-21.565784	0.000110	1.096512	0.371508	-0.008895
1327	6.6300e-01	-13.0200	-21.614106	0.000119	1.191402	0.403658	-0.009664
1328	6.6350e-01	-13.0280	-21.693644	0.000196	1.961069	0.664428	-0.015908
1329	6.6400e-01	-13.0761	-21.756505	0.000155	1.549877	0.525113	-0.012572
1330	6.6450e-01	-13.1355	-21.803971	0.000117	1.170315	0.396514	-0.009493
1331	6.6500e-01	-13.1868	-21.861273	0.000141	1.412813	0.478674	-0.011460
1332	6.6550e-01	-13.2221	-21.929266	0.000168	1.676398	0.567979	-0.013598
1333	6.6600e-01	-13.2590	-22.000679	0.000176	1.760745	0.596556	-0.014283
1334	6.6650e-01	-13.3167	-22.040020	0.000097	0.969991	0.328642	-0.007868
1335	6.6700e-01	-13.3520	-22.118704	0.000194	1.939982	0.657284	-0.015737
1336	6.6750e-01	-13.3649	-22.170019	0.000127	1.265206	0.428663	-0.010263
1337	6.6800e-01	-13.4306	-22.220478	0.000124	1.244119	0.421519	-0.010092
1338	6.6850e-01	-13.4740	-22.286333	0.000162	1.623681	0.550118	-0.013171
1339	6.6900e-01	-13.5028	-22.352187	0.000162	1.623681	0.550118	-0.013171
1340	6.6950e-01	-13.5461	-22.412054	0.000148	1.476073	0.500107	-0.011974
1341	6.7000e-01	-13.5750	-22.474488	0.000154	1.539334	0.521540	-0.012487
1342	6.7050e-01	-13.6055	-22.530079	0.000137	1.370640	0.464385	-0.011118
1343	6.7100e-01	-13.6633	-22.586098	0.000138	1.381183	0.467957	-0.011204
1344	6.7150e-01	-13.6985	-22.653235	0.000166	1.655311	0.560834	-0.013427
1345	6.7200e-01	-13.7162	-22.739188	0.000212	2.119220	0.718011	-0.017191
1346	6.7250e-01	-13.7804	-22.787509	0.000119	1.191402	0.403658	-0.009664
1347	6.7300e-01	-13.8349	-22.824713	0.000092	0.917274	0.310781	-0.007441
1348	6.7350e-01	-13.8397	-22.911093	0.000213	2.129763	0.721583	-0.017276
1349	6.7400e-01	-13.9360	-22.970961	0.000148	1.476073	0.500107	-0.011974
1350	6.7450e-01	-13.9151	-23.021420	-0.000124	-1.244119	-0.421519	-0.010092
1351	6.7500e-01	-13.9777	-23.097110	0.000187	1.866178	0.632278	-0.015138
1352	6.7550e-01	-14.0258	-23.144577	0.000117	1.170315	0.396514	-0.009493
1353	6.7600e-01	-14.0515	-23.207437	0.000155	1.549877	0.525113	-0.012572
1354	6.7650e-01	-14.0916	-23.280561	0.000180	1.802918	0.610845	-0.014625
1355	6.7700e-01	-14.1718	-23.310495	0.000074	0.738037	0.250054	-0.005987
1356	6.7750e-01	-14.1718	-23.387468	0.000190	1.897809	0.642995	-0.015395
1357	6.7800e-01	-14.2231	-23.454177	0.000164	1.644767	0.557262	-0.013342
1358	6.7850e-01	-14.2697	-23.513190	0.000145	1.454987	0.492963	-0.011802
1359	6.7900e-01	-14.3049	-23.580754	0.000167	1.665854	0.564407	-0.013513
1360	6.7950e-01	-14.3162	-23.671839	0.000225	2.245740	0.760877	-0.018217
1361	6.8000e-01	-14.3643	-23.705193	0.000082	0.822384	0.278631	-0.006671
1362	6.8050e-01	-14.4253	-23.772758	0.000167	1.665854	0.564407	-0.013513
1363	6.8100e-01	-14.4381	-23.830915	0.000143	1.433900	0.485818	-0.011631
1364	6.8150e-01	-14.4686	-23.921572	0.000224	2.235197	0.757305	-0.018131
1365	6.8200e-01	-14.5343	-23.951505	0.000074	0.738037	0.250054	-0.005987
1366	6.8250e-01	-14.5745	-24.017360	0.000162	1.623681	0.550118	-0.013171
1367	6.8300e-01	-14.6146	-24.097753	0.000198	1.982156	0.671573	-0.016079
1368	6.8350e-01	-14.6499	-24.173015	0.000186	1.855635	0.628706	-0.015052
1369	6.8400e-01	-14.7220	-24.204660	0.000078	0.780210	0.264342	-0.006329
1370	6.8450e-01	-14.7140	-24.286764	-0.000202	-2.024329	-0.685861	-0.016421
1371	6.8500e-01	-14.7814	-24.335085	0.000119	1.191402	0.403658	-0.009664
1372	6.8550e-01	-14.8135	-24.407782	0.000179	1.792375	0.607273	-0.014539
1373	6.8600e-01	-14.8584	-24.465939	0.000143	1.433900	0.485818	-0.011631
1374	6.8650e-01	-14.8761	-24.558733	0.000229	2.287914	0.775166	-0.018559
1375	6.8700e-01	-14.9627	-24.590805	0.000079	0.790754	0.267915	-0.006414
1376	6.8750e-01	-14.9883	-24.658798	0.000168	1.676398	0.567979	-0.013598
1377	6.8800e-01	-14.9996	-24.734060	0.000186	1.855635	0.628706	-0.015052
1378	6.8850e-01	-15.0285	-24.800342	0.000163	1.634224	0.553690	-0.013256
1379	6.8900e-01	-15.1103	-24.862775	0.000154	1.539334	0.521540	-0.012487
1380	6.8950e-01	-15.1440	-24.912807	0.000123	1.233576	0.417947	-0.010006
1381	6.9000e-01	-15.1857	-24.991062	0.000193	1.929439	0.653712	-0.015651
1382	6.9050e-01	-15.1905	-25.062476	0.000176	1.760745	0.596556	-0.014283
1383	6.9100e-01	-15.2659	-25.089844	0.000067	0.674776	0.228620	-0.005474
1384	6.9150e-01	-15.2611	-25.213855	-0.000306	-3.057581	-1.035936	-0.024802
1385	6.9200e-01	-15.3140	-25.252769	0.000096	0.959448	0.325070	-0.007783
1386	6.9250e-01	-15.3926	-25.306222	0.000132	1.317923	0.446524	-0.010691
1387	6.9300e-01	-15.3990	-25.393885	0.000216	2.161393	0.732300	-0.017533
1388	6.9350e-01	-15.4825	-25.434510	0.000100	1.001621	0.339358	-0.008125
1389	6.9400e-01	-15.5049	-25.514048	0.000196	1.961069	0.664428	-0.015908
1390	6.9450e-01	-15.5466	-25.585889	0.000177	1.771288	0.600129	-0.014368
1391	6.9500e-01	-15.5964	-25.641908	0.000138	1.381183	0.467957	-0.011204
1392	6.9550e-01	-15.6108	-25.735130	0.000230	2.298457	0.778738	-0.018644
1393	6.9600e-01	-15.6589	-25.783880	0.000120	1.201945	0.407230	-0.009750
1394	6.9650e-01	-15.7215	-25.855293	0.000176	1.760745	0.596556	-0.014283
1395	6.9700e-01	-15.7343	-25.938680	0.000206	2.055959	0.696578	-0.016677
1396	6.9750e-01	-15.7985	-25.985719	0.000116	1.159772	0.392941	-0.009408
1397	6.9800e-01	-15.8225	-26.054994	0.000171	1.708028	0.578695	-0.013855
1398	6.9850e-01	-15.8723	-26.131539	0.000189	1.887265	0.639423	-0.015309
1399	6.9900e-01	-15.9188	-26.189269	0.000142	1.423356	0.482246	-0.011546
1400	6.9950e-01	-15.9573	-26.258544	0.000171	1.708028	0.578695	-0.013855
1401	7.0000e-01	-15.9926	-26.345779	0.000215	2.150850	0.728728	-0.017447
1402	7.0050e-01	-16.0215	-26.404364	0.000144	1.444443	0.489391	-0.011717
1403	7.0100e-01	-16.0664	-26.465514	0.000151	1.507704	0.510824	-0.012230
1404	7.0150e-01	-16.0905	-26.549329	0.000207	2.066503	0.700150	-0.016763
1405	7.0200e-01	-16.1145	-26.636992	0.000216	2.161393	0.732300	-0.017533
1406	7.0250e-01	-16.1771	-26.688307	0.000127	1.265206	0.428663	-0.010263
1407	7.0300e-01	-16.2140	-26.750740	0.000154	1.539334	0.521540	-0.012487
1408	7.0350e-01	-16.2621	-26.818733	0.000168	1.676398	0.567979	-0.013598
1409	7.0400e-01	-16.3134	-26.886298	0.000167	1.665854	0.564407	-0.013513
1410	7.0450e-01	-16.3343	-26.955573	0.000171	1.708028	0.578695	-0.013855
1411	7.0500e-01	-16.3808	-27.055210	0.000246	2.456608	0.832321	-0.019927
1412	7.0550e-01	-16.4177	-27.122774	0.000167	1.665854	0.564407	-0.013513
1413	7.0600e-01	-16.4562	-27.165109	0.000104	1.043795	0.353647	-0.008467
1414	7.0650e-01	-16.5108	-27.244648	0.000196	1.961069	0.664428	-0.015908
1415	7.0700e-01	-16.5284	-27.316916	0.000178	1.781831	0.603701	-0.014454
1416	7.0750e-01	-16.5781	-27.384909	0.000168	1.676398	0.567979	-0.013598
1417	7.0800e-01	-16.6407	-27.459316	0.000183	1.834548	0.621562	-0.014881
1418	7.0850e-01	-16.6423	-27.536288	0.000190	1.897809	0.642995	-0.015395
1419	7.0900e-01	-16.7113	-27.596156	0.000148	1.476073	0.500107	-0.011974
1420	7.0950e-01	-16.7161	-27.690233	0.000232	2.319544	0.785883	-0.018816
1421	7.1000e-01	-16.7883	-27.761647	0.000176	1.760745	0.596556	-0.014283
1422	7.1050e-01	-16.8027	-27.820659	0.000145	1.454987	0.492963	-0.011802
1423	7.1100e-01	-16.8749	-27.918157	0.000240	2.403891	0.814460	-0.019500
1424	7.1150e-01	-16.9134	-27.978025	0.000148	1.476073	0.500107	-0.011974
1425	7.1200e-01	-16.9632	-28.034044	0.000138	1.381183	0.467957	-0.011204
1426	7.1250e-01	-16.9728	-28.128122	0.000232	2.319544	0.785883	-0.018816
1427	7.1300e-01	-17.0289	-28.194403	0.000163	1.634224	0.553690	-0.013256
1428	7.1350e-01	-17.0610	-28.278218	0.000207	2.066503	0.700150	-0.016763
1429	7.1400e-01	-17.1043	-28.342362	0.000158	1.581507	0.535829	-0.012829
1430	7.1450e-01	-17.1428	-28.435156	0.000229	2.287914	0.775166	-0.018559
1431	7.1500e-01	-17.2038	-28.485616	0.000124	1.244119	0.421519	-0.010092
1432	7.1550e-01	-17.2070	-28.585681	0.000247	2.467151	0.835893	-0.020013
1433	7.1600e-01	-17.2519	-28.640844	0.000136	1.360096	0.460813	-0.011033
1434	7.1650e-01	-17.2936	-28.725514	0.000209	2.087589	0.707294	-0.016934
1435	7.1700e-01	-17.3273	-28.810184	0.000209	2.087589	0.707294	-0.016934
1436	7.1750e-01	-17.3706	-28.874328	0.000158	1.581507	0.535829	-0.012829
1437	7.1800e-01	-17.4204	-28.950445	0.000188	1.876722	0.635851	-0.015223
1438	7.1850e-01	-17.4685	-29.036825	0.000213	2.129763	0.721583	-0.017276
1439	7.1900e-01	-17.4942	-29.124061	0.000215	2.150850	0.728728	-0.017447
1440	7.1950e-01	-17.5375	-29.192908	0.000170	1.697484	0.575123	-0.013770
1441	7.2000e-01	-17.6065	-29.262184	0.000171	1.708028	0.578695	-0.013855
1442	7.2050e-01	-17.6065	-29.340867	0.000194	1.939982	0.657284	-0.015737
1443	7.2100e-01	-17.6498	-29.427247	0.000213	2.129763	0.721583	-0.017276
1444	7.2150e-01	-17.7204	-29.474713	0.000117	1.170315	0.396514	-0.009493
1445	7.2200e-01	-17.7540	-29.585896	0.000274	2.741279	0.928771	-0.022237
1446	7.2250e-01	-17.8166	-29.646619	0.000150	1.497160	0.507252	-0.012145
1447	7.2300e-01	-17.8246	-29.727440	0.000199	1.992699	0.675145	-0.016164
1448	7.2350e-01	-17.8391	-29.815958	0.000218	2.182480	0.739444	-0.017704
1449	7.2400e-01	-17.8728	-29.884806	0.000170	1.697484	0.575123	-0.013770
1450	7.2450e-01	-17.9241	-29.974607	0.000221	2.214110	0.750161	-0.017960
1451	7.2500e-01	-17.9722	-30.037041	0.000154	1.539334	0.521540	-0.012487
1452	7.2550e-01	-18.0187	-30.125987	0.000219	2.193023	0.743016	-0.017789
1453	7.2600e-01	-18.0669	-30.210229	0.000208	2.077046	0.703722	-0.016848
1454	7.2650e-01	-18.1166	-30.282925	0.000179	1.792375	0.607273	-0.014539
1455	7.2700e-01	-18.1407	-30.370161	0.000215	2.150850	0.728728	-0.017447
1456	7.2750e-01	-18.1711	-30.452265	0.000202	2.024329	0.685861	-0.016421
1457	7.2800e-01	-18.2161	-30.545915	0.000231	2.309000	0.782311	-0.018730
1458	7.2850e-01	-18.2642	-30.627591	0.000201	2.013786	0.682289	-0.016335
1459	7.2900e-01	-18.3235	-30.667360	0.000098	0.980534	0.332214	-0.007954
1460	7.2950e-01	-18.3252	-30.793937	0.000312	3.120841	1.057369	-0.025315
1461	7.3000e-01	-18.3669	-30.873048	0.000195	1.950526	0.660856	-0.015822
1462	7.3050e-01	-18.4054	-30.957718	0.000209	2.087589	0.707294	-0.016934
1463	7.3100e-01	-18.4455	-31.050085	0.000228	2.277370	0.771594	-0.018473
1464	7.3150e-01	-18.5016	-31.118933	0.000170	1.697484	0.575123	-0.013770
1465	7.3200e-01	-18.5353	-31.205741	0.000214	2.140306	0.725155	-0.017362
1466	7.3250e-01	-18.5931	-31.280575	0.000185	1.845092	0.625134	-0.014967
1467	7.3300e-01	-18.6187	-31.364390	0.000207	2.066503	0.700150	-0.016763
1468	7.3350e-01	-18.6620	-31.434948	0.000174	1.739658	0.589412	-0.014112
1469	7.3400e-01	-18.6877	-31.555110	0.000296	2.962690	1.003787	-0.024033
1470	7.3450e-01	-18.7487	-31.631228	0.000188	1.876722	0.635851	-0.015223
1471	7.3500e-01	-18.7968	-31.705635	0.000183	1.834548	0.621562	-0.014881
1472	7.3550e-01	-18.8353	-31.786883	0.000200	2.003242	0.678717	-0.016250
1473	7.3600e-01	-18.8610	-31.896783	0.000271	2.709649	0.918054	-0.021980
1474	7.3650e-01	-18.8930	-31.969479	0.000179	1.792375	0.607273	-0.014539
1475	7.3700e-01	-18.9380	-32.049018	0.000196	1.961069	0.664428	-0.015908
1476	7.3750e-01	-18.9973	-32.130694	0.000201	2.013786	0.682289	-0.016335
1477	7.3800e-01	-19.0342	-32.223489	0.000229	2.287914	0.775166	-0.018559
1478	7.3850e-01	-19.0615	-32.315856	0.000228	2.277370	0.771594	-0.018473
1479	7.3900e-01	-19.0711	-32.412072	0.000237	2.372261	0.803744	-0.019243
1480	7.3950e-01	-19.1433	-32.507432	0.000235	2.351174	0.796599	-0.019072
1481	7.4000e-01	-19.2011	-32.574141	0.000164	1.644767	0.557262	-0.013342
1482	7.4050e-01	-19.2251	-32.669074	0.000234	2.340631	0.793027	-0.018987
1483	7.4100e-01	-19.2652	-32.749040	0.000197	1.971612	0.668000	-0.015993
1484	7.4150e-01	-19.3053	-32.846111	0.000239	2.393348	0.810888	-0.019414
1485	7.4200e-01	-19.2877	-32.967129	-0.000298	-2.983777	-1.010931	-0.024204
1486	7.4250e-01	-19.3920	-33.026141	0.000145	1.454987	0.492963	-0.011802
1487	7.4300e-01	-19.4321	-33.109528	0.000206	2.055959	0.696578	-0.016677
1488	7.4350e-01	-19.4626	-33.190350	0.000199	1.992699	0.675145	-0.016164
1489	7.4400e-01	-19.4818	-33.287420	0.000239	2.393348	0.810888	-0.019414
1490	7.4450e-01	-19.5331	-33.416563	0.000318	3.184101	1.078803	-0.025829
1491	7.4500e-01	-19.5636	-33.496102	0.000196	1.961069	0.664428	-0.015908
1492	7.4550e-01	-19.6310	-33.550838	0.000135	1.349553	0.457241	-0.010947
1493	7.4600e-01	-19.6502	-33.644915	0.000232	2.319544	0.785883	-0.018816
1494	7.4650e-01	-19.7016	-33.764223	0.000294	2.941603	0.996642	-0.023861
1495	7.4700e-01	-19.7401	-33.866425	0.000252	2.519868	0.853754	-0.020440
1496	7.4750e-01	-19.7545	-33.954516	0.000217	2.171937	0.735872	-0.017618
1497	7.4800e-01	-19.8171	-34.028067	0.000181	1.813462	0.614417	-0.014710
1498	7.4850e-01	-19.8460	-34.148658	0.000297	2.973233	1.007359	-0.024118
1499	7.4900e-01	-19.9005	-34.227341	0.000194	1.939982	0.657284	-0.015737
1500	7.4950e-01	-19.9454	-34.328260	0.000249	2.488238	0.843038	-0.020184
1501	7.5000e-01	-19.9743	-34.403522	0.000186	1.855635	0.628706	-0.015052
1502	7.5050e-01	-19.8941	-34.468949	-0.000161	-1.613137	-0.546546	-0.013085
1503	7.5100e-01	-19.8588	-34.468094	0.000002	0.021087	0.007144	0.000171
1504	7.5150e-01	-19.8315	-34.486482	-0.000045	-0.453365	-0.153604	-0.003678
1505	7.5200e-01	-19.7818	-34.484771	0.000004	0.042174	0.014289	0.000342
1506	7.5250e-01	-19.7481	-34.471515	0.000033	0.326845	0.110738	0.002651
1507	7.5300e-01	-19.7112	-34.486054	-0.000036	-0.358475	-0.121455	-0.002908
1508	7.5350e-01	-19.6663	-34.487337	-0.000003	-0.031630	-0.010717	-0.000257
1509	7.5400e-01	-19.6422	-34.473653	0.000034	0.337388	0.114310	0.002737
1510	7.5450e-01	-19.5989	-34.472798	0.000002	0.021087	0.007144	0.000171
1511	7.5500e-01	-19.5524	-34.449706	0.000057	0.569343	0.192898	0.004618
1512	7.5550e-01	-19.5043	-34.442009	0.000019	0.189781	0.064299	0.001539
1513	7.5600e-01	-19.4738	-34.436877	0.000013	0.126521	0.042866	0.001026
1514	7.5650e-01	-19.4529	-34.395825	0.000101	1.012165	0.342931	0.008210
1515	7.5700e-01	-19.3855	-34.380431	0.000038	0.379562	0.128599	0.003079
1516	7.5750e-01	-19.3615	-34.356911	0.000058	0.579886	0.196471	0.004704
1517	7.5800e-01	-19.3310	-34.337668	0.000047	0.474452	0.160749	0.003849
1518	7.5850e-01	-19.3005	-34.285925	0.000128	1.275749	0.432236	0.010349
1519	7.5900e-01	-19.2267	-34.327405	-0.000102	-1.022708	-0.346503	-0.008296
1520	7.5950e-01	-19.1642	-34.280794	0.000115	1.149229	0.389369	0.009322
1521	7.6000e-01	-19.1433	-34.258557	0.000055	0.548256	0.185754	0.004447
1522	7.6050e-01	-19.1160	-34.237176	0.000053	0.527169	0.178610	0.004276
1523	7.6100e-01	-19.0807	-34.174315	0.000155	1.549877	0.525113	0.012572
1524	7.6150e-01	-19.0342	-34.191420	-0.000042	-0.421735	-0.142888	-0.003421
1525	7.6200e-01	-19.0230	-34.131125	0.000149	1.486617	0.503679	0.012059
1526	7.6250e-01	-18.9524	-34.125994	0.000013	0.126521	0.042866	0.001026
1527	7.6300e-01	-18.8866	-34.100764	0.000062	0.622059	0.210759	0.005046
1528	7.6350e-01	-18.8850	-34.060995	0.000098	0.980534	0.332214	0.007954
1529	7.6400e-01	-18.8257	-34.024219	0.000091	0.906731	0.307209	0.007355
1530	7.6450e-01	-18.8112	-34.000272	0.000059	0.590429	0.200043	0.004789
1531	7.6500e-01	-18.7342	-33.974187	0.000064	0.643146	0.217904	0.005217
1532	7.6550e-01	-18.7166	-33.960503	0.000034	0.337388	0.114310	0.002737
1533	7.6600e-01	-18.6765	-33.899352	0.000151	1.507704	0.510824	0.012230
1534	7.6650e-01	-18.6139	-33.874122	0.000062	0.622059	0.210759	0.005046
1535	7.6700e-01	-18.5898	-33.839485	0.000085	0.854014	0.289348	0.006928
1536	7.6750e-01	-18.5578	-33.792446	0.000116	1.159772	0.392941	0.009408
1537	7.6800e-01	-18.5209	-33.768499	0.000059	0.590429	0.200043	0.004789
1538	7.6850e-01	-18.4856	-33.733861	0.000085	0.854014	0.289348	0.006928
1539	7.6900e-01	-18.4374	-33.688961	0.000111	1.107055	0.375080	0.008980
1540	7.6950e-01	-18.3893	-33.677842	0.000027	0.274128	0.092877	0.002224
1541	7.7000e-01	-18.3508	-33.612843	0.000160	1.602594	0.542974	0.013000
1542	7.7050e-01	-18.3155	-33.594028	0.000046	0.463909	0.157177	0.003763
1543	7.7100e-01	-18.2514	-33.567087	0.000066	0.664233	0.225048	0.005388
1544	7.7150e-01	-18.2353	-33.514917	0.000129	1.286293	0.435808	0.010434
1545	7.7200e-01	-18.1888	-33.503799	0.000027	0.274128	0.092877	0.002224
1546	7.7250e-01	-18.1599	-33.432813	0.000175	1.750201	0.592984	0.014197
1547	7.7300e-01	-18.1326	-33.407583	0.000062	0.622059	0.210759	0.005046
1548	7.7350e-01	-18.0717	-33.373801	0.000083	0.832927	0.282203	0.006756
1549	7.7400e-01	-18.0316	-33.322058	0.000128	1.275749	0.432236	0.010349
1550	7.7450e-01	-17.9867	-33.311367	0.000026	0.263585	0.089305	0.002138
1551	7.7500e-01	-17.9514	-33.266039	0.000112	1.117598	0.378653	0.009066
1552	7.7550e-01	-17.9064	-33.226698	0.000097	0.969991	0.328642	0.007868
1553	7.7600e-01	-17.8519	-33.173672	0.000131	1.307379	0.442952	0.010605
1554	7.7650e-01	-17.8359	-33.149297	0.000060	0.600973	0.203615	0.004875
1555	7.7700e-01	-17.8198	-33.097127	0.000129	1.286293	0.435808	0.010434
1556	7.7750e-01	-17.7540	-33.077884	0.000047	0.474452	0.160749	0.003849
1557	7.7800e-01	-17.7043	-33.044102	0.000083	0.832927	0.282203	0.006756
1558	7.7850e-01	-17.6770	-32.991076	0.000131	1.307379	0.442952	0.010605
1559	7.7900e-01	-17.6498	-32.946175	0.000111	1.107055	0.375080	0.008980
1560	7.7950e-01	-17.6000	-32.899137	0.000116	1.159772	0.392941	0.009408
1561	7.8000e-01	-17.5262	-32.886736	0.000031	0.305758	0.103594	0.002480
1562	7.8050e-01	-17.5262	-32.829006	-0.000142	-1.423356	-0.482246	0.011546
1563	7.8100e-01	-17.4476	-32.793513	0.000088	0.875101	0.296492	0.007099
1564	7.8150e-01	-17.4653	-32.755882	-0.000093	-0.927818	-0.314353	0.007526
1565	7.8200e-01	-17.4011	-32.717824	0.000094	0.938361	0.317925	0.007612
1566	7.8250e-01	-17.3289	-32.691311	0.000065	0.653690	0.221476	0.005303
1567	7.8300e-01	-17.3225	-32.631016	0.000149	1.486617	0.503679	0.012059
1568	7.8350e-01	-17.2968	-32.600654	0.000075	0.748580	0.253626	0.006072
1569	7.8400e-01	-17.2503	-32.550622	0.000123	1.233576	0.417947	0.010006
1570	7.8450e-01	-17.1910	-32.507432	0.000106	1.064882	0.360792	0.008638
1571	7.8500e-01	-17.1605	-32.465525	0.000103	1.033251	0.350075	0.008381
1572	7.8550e-01	-17.1011	-32.428749	0.000091	0.906731	0.307209	0.007355
1573	7.8600e-01	-17.0594	-32.404374	0.000060	0.600973	0.203615	0.004875
1574	7.8650e-01	-17.0337	-32.356480	0.000118	1.180859	0.400086	0.009579
1575	7.8700e-01	-16.9985	-32.312862	0.000108	1.075425	0.364364	0.008724
1576	7.8750e-01	-16.9423	-32.281646	0.000077	0.769667	0.260770	0.006243
1577	7.8800e-01	-16.9311	-32.224772	0.000140	1.402270	0.475102	0.011375
1578	7.8850e-01	-16.8813	-32.180726	0.000109	1.085968	0.367936	0.008809
1579	7.8900e-01	-16.8236	-32.148227	0.000080	0.801297	0.271487	0.006500
1580	7.8950e-01	-16.8059	-32.105464	0.000105	1.054338	0.357219	0.008553
1581	7.9000e-01	-16.7289	-32.067406	0.000094	0.938361	0.317925	0.007612
1582	7.9050e-01	-16.6920	-32.034906	0.000080	0.801297	0.271487	0.006500
1583	7.9100e-01	-16.6888	-31.983163	0.000128	1.275749	0.432236	0.010349
1584	7.9150e-01	-16.6359	-31.930138	0.000131	1.307379	0.442952	0.010605
1585	7.9200e-01	-16.6022	-31.886520	0.000108	1.075425	0.364364	0.008724
1586	7.9250e-01	-16.5461	-31.825370	0.000151	1.507704	0.510824	0.012230
1587	7.9300e-01	-16.5332	-31.809547	0.000039	0.390105	0.132171	0.003164
1588	7.9350e-01	-16.4947	-31.751818	0.000142	1.423356	0.482246	0.011546
1589	7.9400e-01	-16.3904	-31.725305	0.000065	0.653690	0.221476	0.005303
1590	7.9450e-01	-16.3888	-31.681688	0.000108	1.075425	0.364364	0.008724
1591	7.9500e-01	-16.3568	-31.638925	0.000105	1.054338	0.357219	0.008553
1592	7.9550e-01	-16.3054	-31.600866	0.000094	0.938361	0.317925	0.007612
1593	7.9600e-01	-16.2798	-31.542709	0.000143	1.433900	0.485818	0.011631
1594	7.9650e-01	-16.2172	-31.514914	0.000069	0.685320	0.232193	0.005559
1595	7.9700e-01	-16.1851	-31.480704	0.000084	0.843470	0.285776	0.006842
1596	7.9750e-01	-16.1659	-31.395179	0.000211	2.108676	0.714439	0.017105
1597	7.9800e-01	-16.1177	-31.389192	0.000015	0.147607	0.050011	0.001197
1598	7.9850e-01	-16.0840	-31.317778	0.000176	1.760745	0.596556	0.014283
1599	7.9900e-01	-16.0439	-31.301101	0.000041	0.411192	0.139316	0.003335
1600	7.9950e-01	-16.0022	-31.242944	0.000143	1.433900	0.485818	0.011631
1601	8.0000e-01	-15.9413	-31.205741	0.000092	0.917274	0.310781	0.007441
1602	8.0050e-01	-15.9348	-31.163406	0.000104	1.043795	0.353647	0.008467
1603	8.0100e-01	-15.8723	-31.110380	0.000131	1.307379	0.442952	0.010605
1604	8.0150e-01	-15.8338	-31.082585	0.000069	0.685320	0.232193	0.005559
1605	8.0200e-01	-15.8145	-31.017158	0.000161	1.613137	0.546546	0.013085
1606	8.0250e-01	-15.7632	-30.974823	0.000104	1.043795	0.353647	0.008467
1607	8.0300e-01	-15.7199	-30.924363	0.000124	1.244119	0.421519	0.010092
1608	8.0350e-01	-15.6814	-30.880318	0.000109	1.085968	0.367936	0.008809
1609	8.0400e-01	-15.6461	-30.838410	0.000103	1.033251	0.350075	0.008381
1610	8.0450e-01	-15.5899	-30.800779	0.000093	0.927818	0.314353	0.007526
1611	8.0500e-01	-15.5274	-30.766997	0.000083	0.832927	0.282203	0.006756
1612	8.0550e-01	-15.5177	-30.715254	0.000128	1.275749	0.432236	0.010349
1613	8.0600e-01	-15.4969	-30.685321	0.000074	0.738037	0.250054	0.005987
1614	8.0650e-01	-15.4616	-30.609631	0.000187	1.866178	0.632278	0.015138
1615	8.0700e-01	-15.3878	-30.594664	0.000037	0.369018	0.125027	0.002993
1616	8.0750e-01	-15.3686	-30.539073	0.000137	1.370640	0.464385	0.011118
1617	8.0800e-01	-15.2948	-30.498876	0.000099	0.991078	0.335786	0.008039
1618	8.0850e-01	-15.2675	-30.440291	0.000144	1.444443	0.489391	0.011717
1619	8.0900e-01	-15.2049	-30.411213	0.000072	0.716950	0.242909	0.005816
1620	8.0950e-01	-15.1889	-30.344931	0.000163	1.634224	0.553690	0.013256
1621	8.1000e-01	-15.1584	-30.309866	0.000086	0.864557	0.292920	0.007013
1622	8.1050e-01	-15.1071	-30.260261	0.000122	1.223032	0.414375	0.009921
1623	8.1100e-01	-15.0750	-30.238025	0.000055	0.548256	0.185754	0.004447
1624	8.1150e-01	-15.0381	-30.168749	0.000171	1.708028	0.578695	0.013855
1625	8.1200e-01	-14.9771	-30.147368	0.000053	0.527169	0.178610	0.004276
1626	8.1250e-01	-14.9627	-30.084080	0.000156	1.560420	0.528685	0.012658
1627	8.1300e-01	-14.9162	-30.032764	0.000127	1.265206	0.428663	0.010263
1628	8.1350e-01	-14.8552	-30.023784	0.000022	0.221411	0.075016	0.001796
1629	8.1400e-01	-14.8440	-29.946812	0.000190	1.897809	0.642995	0.015395
1630	8.1450e-01	-14.8023	-29.909608	0.000092	0.917274	0.310781	0.007441
1631	8.1500e-01	-14.7573	-29.835629	0.000182	1.824005	0.617990	0.014796
1632	8.1550e-01	-14.6980	-29.795860	0.000098	0.980534	0.332214	0.007954
1633	8.1600e-01	-14.6707	-29.756091	0.000098	0.980534	0.332214	0.007954
1634	8.1650e-01	-14.6130	-29.712473	0.000108	1.075425	0.364364	0.008724
1635	8.1700e-01	-14.5841	-29.698789	0.000034	0.337388	0.114310	0.002737
1636	8.1750e-01	-14.5440	-29.643198	0.000137	1.370640	0.464385	0.011118
1637	8.1800e-01	-14.5151	-29.565370	0.000192	1.918895	0.650139	0.015566
1638	8.1850e-01	-14.5135	-29.524746	0.000100	1.001621	0.339358	0.008125
1639	8.1900e-01	-14.4429	-29.470437	0.000134	1.339009	0.453669	0.010862
1640	8.1950e-01	-14.4044	-29.448628	0.000054	0.537712	0.182182	0.004362
1641	8.2000e-01	-14.3499	-29.377215	0.000176	1.760745	0.596556	0.014283
1642	8.2050e-01	-14.3130	-29.354123	0.000057	0.569343	0.192898	0.004618
1643	8.2100e-01	-14.2472	-29.317775	0.000090	0.896187	0.303637	0.007270
1644	8.2150e-01	-14.2279	-29.242513	0.000186	1.855635	0.628706	0.015052
1645	8.2200e-01	-14.1718	-29.210013	0.000080	0.801297	0.271487	0.006500
1646	8.2250e-01	-14.1477	-29.171955	0.000094	0.938361	0.317925	0.007612
1647	8.2300e-01	-14.1253	-29.115508	0.000139	1.391726	0.471530	0.011289
1648	8.2350e-01	-14.0643	-29.058206	0.000141	1.412813	0.478674	0.011460
1649	8.2400e-01	-14.0274	-29.000049	0.000143	1.433900	0.485818	0.011631
1650	8.2450e-01	-13.9905	-28.961991	0.000094	0.938361	0.317925	0.007612
1651	8.2500e-01	-13.9488	-28.935478	0.000065	0.653690	0.221476	0.005303
1652	8.2550e-01	-13.9071	-28.888439	0.000116	1.159772	0.392941	0.009408
1653	8.2600e-01	-13.8606	-28.808046	0.000198	1.982156	0.671573	0.016079
1654	8.2650e-01	-13.8301	-28.769987	0.000094	0.938361	0.317925	0.007612
1655	8.2700e-01	-13.8060	-28.713541	0.000139	1.391726	0.471530	0.011289
1656	8.2750e-01	-13.7563	-28.672916	0.000100	1.001621	0.339358	0.008125
1657	8.2800e-01	-13.7114	-28.634857	0.000094	0.938361	0.317925	0.007612
1658	8.2850e-01	-13.6584	-28.586963	0.000118	1.180859	0.400086	0.009579
1659	8.2900e-01	-13.6392	-28.543773	0.000106	1.064882	0.360792	0.008638
1660	8.2950e-01	-13.5895	-28.516833	0.000066	0.664233	0.225048	0.005388
1661	8.3000e-01	-13.5670	-28.449696	0.000166	1.655311	0.560834	0.013427
1662	8.3050e-01	-13.5108	-28.405650	0.000109	1.085968	0.367936	0.008809
1663	8.3100e-01	-13.4643	-28.321408	0.000208	2.077046	0.703722	0.016848
1664	8.3150e-01	-13.4162	-28.297889	0.000058	0.579886	0.196471	0.004704
1665	8.3200e-01	-13.3793	-28.243580	0.000134	1.339009	0.453669	0.010862
1666	8.3250e-01	-13.3215	-28.218350	0.000062	0.622059	0.210759	0.005046
1667	8.3300e-01	-13.3312	-28.145654	-0.000179	-1.792375	-0.607273	0.014539
1668	8.3350e-01	-13.2750	-28.098615	0.000116	1.159772	0.392941	0.009408
1669	8.3400e-01	-13.2060	-28.062267	0.000090	0.896187	0.303637	0.007270
1670	8.3450e-01	-13.1836	-28.016939	0.000112	1.117598	0.378653	0.009066
1671	8.3500e-01	-13.1884	-27.944670	-0.000178	-1.781831	-0.603701	0.014454
1672	8.3550e-01	-13.1226	-27.895921	0.000120	1.201945	0.407230	0.009750
1673	8.3600e-01	-13.0857	-27.874967	0.000052	0.516626	0.175038	0.004191
1674	8.3650e-01	-13.0151	-27.810396	0.000159	1.592051	0.539401	0.012914
1675	8.3700e-01	-12.9702	-27.778324	0.000079	0.790754	0.267915	0.006414
1676	8.3750e-01	-12.9430	-27.708621	0.000172	1.718571	0.582268	0.013941
1677	8.3800e-01	-12.9237	-27.658589	0.000123	1.233576	0.417947	0.010006
1678	8.3850e-01	-12.8804	-27.628228	0.000075	0.748580	0.253626	0.006072
1679	8.3900e-01	-12.8643	-27.531584	0.000238	2.382804	0.807316	0.019329
1680	8.3950e-01	-12.7809	-27.526025	0.000014	0.137064	0.046439	0.001112
1681	8.4000e-01	-12.7520	-27.461026	0.000160	1.602594	0.542974	0.013000
1682	8.4050e-01	-12.6991	-27.413560	0.000117	1.170315	0.396514	0.009493
1683	8.4100e-01	-12.6766	-27.384054	0.000073	0.727493	0.246481	0.005901
1684	8.4150e-01	-12.6285	-27.313495	0.000174	1.739658	0.589412	0.014112
1685	8.4200e-01	-12.5980	-27.278002	0.000088	0.875101	0.296492	0.007099
1686	8.4250e-01	-12.5451	-27.234812	0.000106	1.064882	0.360792	0.008638
1687	8.4300e-01	-12.5146	-27.165109	0.000172	1.718571	0.582268	0.013941
1688	8.4350e-01	-12.4777	-27.106952	0.000143	1.433900	0.485818	0.011631
1689	8.4400e-01	-12.4424	-27.069749	0.000092	0.917274	0.310781	0.007441
1690	8.4450e-01	-12.3783	-27.016723	0.000131	1.307379	0.442952	0.010605
1691	8.4500e-01	-12.3622	-26.973106	0.000108	1.075425	0.364364	0.008724
1692	8.4550e-01	-12.3157	-26.909389	0.000157	1.570964	0.532257	0.012743
1693	8.4600e-01	-12.2772	-26.858930	0.000124	1.244119	0.421519	0.010092
1694	8.4650e-01	-12.2130	-26.825575	0.000082	0.822384	0.278631	0.006671
1695	8.4700e-01	-12.1729	-26.790937	0.000085	0.854014	0.289348	0.006928
1696	8.4750e-01	-12.1440	-26.714820	0.000188	1.876722	0.635851	0.015223
1697	8.4800e-01	-12.1312	-26.654525	0.000149	1.486617	0.503679	0.012059
1698	8.4850e-01	-12.0847	-26.599361	0.000136	1.360096	0.460813	0.011033
1699	8.4900e-01	-12.0350	-26.566862	0.000080	0.801297	0.271487	0.006500
1700	8.4950e-01	-11.9900	-26.509987	0.000140	1.402270	0.475102	0.011375
1701	8.5000e-01	-11.9483	-26.452258	0.000142	1.423356	0.482246	0.011546
1702	8.5050e-01	-11.9130	-26.406075	0.000114	1.138685	0.385797	0.009237
1703	8.5100e-01	-11.8761	-26.357753	0.000119	1.191402	0.403658	0.009664
1704	8.5150e-01	-11.8457	-26.299168	0.000144	1.444443	0.489391	0.011717
1705	8.5200e-01	-11.8055	-26.247426	0.000128	1.275749	0.432236	0.010349
1706	8.5250e-01	-11.7318	-26.213643	0.000083	0.832927	0.282203	0.006756
1707	8.5300e-01	-11.7013	-26.137953	0.000187	1.866178	0.632278	0.015138
1708	8.5350e-01	-11.6676	-26.121704	0.000040	0.400648	0.135743	0.003250
1709	8.5400e-01	-11.6211	-26.049007	0.000179	1.792375	0.607273	0.014539
1710	8.5450e-01	-11.6050	-25.978877	0.000173	1.729115	0.585840	0.014026
1711	8.5500e-01	-11.5312	-25.929700	0.000121	1.212489	0.410802	0.009835
1712	8.5550e-01	-11.5344	-25.884799	-0.000111	-1.107055	-0.375080	0.008980
1713	8.5600e-01	-11.4879	-25.830919	0.000133	1.328466	0.450096	0.010776
1714	8.5650e-01	-11.4334	-25.775327	0.000137	1.370640	0.464385	0.011118
1715	8.5700e-01	-11.3884	-25.722729	0.000130	1.296836	0.439380	0.010520
1716	8.5750e-01	-11.3339	-25.676546	0.000114	1.138685	0.385797	0.009237
1717	8.5800e-01	-11.3179	-25.619672	0.000140	1.402270	0.475102	0.011375
1718	8.5850e-01	-11.2601	-25.592731	0.000066	0.664233	0.225048	0.005388
1719	8.5900e-01	-11.2425	-25.514476	0.000193	1.929439	0.653712	0.015651
1720	8.5950e-01	-11.2136	-25.446483	0.000168	1.676398	0.567979	0.013598
1721	8.6000e-01	-11.1446	-25.430234	0.000040	0.400648	0.135743	0.003250
1722	8.6050e-01	-11.1254	-25.353261	0.000190	1.897809	0.642995	0.015395
1723	8.6100e-01	-11.0724	-25.313064	0.000099	0.991078	0.335786	0.008039
1724	8.6150e-01	-11.0355	-25.249776	0.000156	1.560420	0.528685	0.012658
1725	8.6200e-01	-10.9649	-25.201882	0.000118	1.180859	0.400086	0.009579
1726	8.6250e-01	-10.9393	-25.166389	0.000088	0.875101	0.296492	0.007099
1727	8.6300e-01	-10.9136	-25.092837	0.000181	1.813462	0.614417	0.014710
1728	8.6350e-01	-10.8719	-25.041522	0.000127	1.265206	0.428663	0.010263
1729	8.6400e-01	-10.8334	-24.994056	0.000117	1.170315	0.396514	0.009493
1730	8.6450e-01	-10.7917	-24.929057	0.000160	1.602594	0.542974	0.013000
1731	8.6500e-01	-10.7532	-24.875176	0.000133	1.328466	0.450096	0.010776
1732	8.6550e-01	-10.7548	-24.823006	-0.000129	-1.286293	-0.435808	0.010434
1733	8.6600e-01	-10.6890	-24.768270	0.000135	1.349553	0.457241	0.010947
1734	8.6650e-01	-10.6393	-24.704981	0.000156	1.560420	0.528685	0.012658
1735	8.6700e-01	-10.5976	-24.675475	0.000073	0.727493	0.246481	0.005901
1736	8.6750e-01	-10.5045	-24.619884	0.000137	1.370640	0.464385	0.011118
1737	8.6800e-01	-10.5013	-24.579259	0.000100	1.001621	0.339358	0.008125
1738	8.6850e-01	-10.4933	-24.489458	0.000221	2.214110	0.750161	0.017960
1739	8.6900e-01	-10.4227	-24.453965	0.000088	0.875101	0.296492	0.007099
1740	8.6950e-01	-10.4227	-24.350907	-0.000254	-2.540955	-0.860899	0.020612
1741	8.7000e-01	-10.3473	-24.332092	0.000046	0.463909	0.157177	0.003763
1742	8.7050e-01	-10.2944	-24.285481	0.000115	1.149229	0.389369	0.009322
1743	8.7100e-01	-10.2719	-24.243146	0.000104	1.043795	0.353647	0.008467
1744	8.7150e-01	-10.2543	-24.149496	0.000231	2.309000	0.782311	0.018730
1745	8.7200e-01	-10.1869	-24.101174	0.000119	1.191402	0.403658	0.009664
1746	8.7250e-01	-10.1756	-24.046866	0.000134	1.339009	0.453669	0.010862
1747	8.7300e-01	-10.1291	-23.988709	0.000143	1.433900	0.485818	0.011631
1748	8.7350e-01	-10.0986	-23.948084	0.000100	1.001621	0.339358	0.008125
1749	8.7400e-01	-10.0281	-23.888645	0.000147	1.465530	0.496535	0.011888
1750	8.7450e-01	-10.0136	-23.838612	0.000123	1.233576	0.417947	0.010006
1751	8.7500e-01	-9.9414	-23.790718	0.000118	1.180859	0.400086	0.009579
1752	8.7550e-01	-9.9254	-23.697068	0.000231	2.309000	0.782311	0.018730
1753	8.7600e-01	-9.8933	-23.670128	0.000066	0.664233	0.225048	0.005388
1754	8.7650e-01	-9.8468	-23.598715	0.000176	1.760745	0.596556	0.014283
1755	8.7700e-01	-9.8051	-23.552959	0.000113	1.128142	0.382225	0.009151
1756	8.7750e-01	-9.7265	-23.523880	0.000072	0.716950	0.242909	0.005816
1757	8.7800e-01	-9.7329	-23.430658	-0.000230	-2.298457	-0.778738	0.018644
1758	8.7850e-01	-9.7040	-23.383191	0.000117	1.170315	0.396514	0.009493
1759	8.7900e-01	-9.6414	-23.328455	0.000135	1.349553	0.457241	0.010947
1760	8.7950e-01	-9.6126	-23.239937	0.000218	2.182480	0.739444	0.017704
1761	8.8000e-01	-9.5532	-23.221121	0.000046	0.463909	0.157177	0.003763
1762	8.8050e-01	-9.4874	-23.175366	0.000113	1.128142	0.382225	0.009151
1763	8.8100e-01	-9.4714	-23.122340	0.000131	1.307379	0.442952	0.010605
1764	8.8150e-01	-9.4489	-23.032539	0.000221	2.214110	0.750161	0.017960
1765	8.8200e-01	-9.3703	-23.000039	0.000080	0.801297	0.271487	0.006500
1766	8.8250e-01	-9.3463	-22.972671	0.000067	0.674776	0.228620	0.005474
1767	8.8300e-01	-9.3110	-22.886719	0.000212	2.119220	0.718011	0.017191
1768	8.8350e-01	-9.2580	-22.829417	0.000141	1.412813	0.478674	0.011460
1769	8.8400e-01	-9.2372	-22.767839	0.000152	1.518247	0.514396	0.012316
1770	8.8450e-01	-9.1890	-22.699419	0.000169	1.686941	0.571551	0.013684
1771	8.8500e-01	-9.1521	-22.662643	0.000091	0.906731	0.307209	0.007355
1772	8.8550e-01	-9.0880	-22.597216	0.000161	1.613137	0.546546	0.013085
1773	8.8600e-01	-9.0864	-22.544618	0.000130	1.296836	0.439380	0.010520
1774	8.8650e-01	-9.0286	-22.492448	0.000129	1.286293	0.435808	0.010434
1775	8.8700e-01	-8.9773	-22.422745	0.000172	1.718571	0.582268	0.013941
1776	8.8750e-01	-8.9725	-22.341924	0.000199	1.992699	0.675145	0.016164
1777	8.8800e-01	-8.9564	-22.300017	0.000103	1.033251	0.350075	0.008381
1778	8.8850e-01	-8.8858	-22.243570	0.000139	1.391726	0.471530	0.011289
1779	8.8900e-01	-8.8297	-22.201663	0.000103	1.033251	0.350075	0.008381
1780	8.8950e-01	-8.7896	-22.114855	0.000214	2.140306	0.725155	0.017362
1781	8.9000e-01	-8.7286	-22.082355	0.000080	0.801297	0.271487	0.006500
1782	8.9050e-01	-8.7110	-22.028475	0.000133	1.328466	0.450096	0.010776
1783	8.9100e-01	-8.6500	-21.959199	0.000171	1.708028	0.578695	0.013855
1784	8.9150e-01	-8.6260	-21.892490	0.000164	1.644767	0.557262	0.013342
1785	8.9200e-01	-8.6019	-21.813379	0.000195	1.950526	0.660856	0.015822
1786	8.9250e-01	-8.5634	-21.753512	0.000148	1.476073	0.500107	0.011974
1787	8.9300e-01	-8.5024	-21.726999	0.000065	0.653690	0.221476	0.005303
1788	8.9350e-01	-8.4655	-21.663710	0.000156	1.560420	0.528685	0.012658
1789	8.9400e-01	-8.4222	-21.591442	0.000178	1.781831	0.603701	0.014454
1790	8.9450e-01	-8.3933	-21.539699	0.000128	1.275749	0.432236	0.010349
1791	8.9500e-01	-8.3564	-21.476838	0.000155	1.549877	0.525113	0.012572
1792	8.9550e-01	-8.3131	-21.433220	0.000108	1.075425	0.364364	0.008724
1793	8.9600e-01	-8.2794	-21.357531	0.000187	1.866178	0.632278	0.015138
1794	8.9650e-01	-8.2040	-21.302794	0.000135	1.349553	0.457241	0.010947
1795	8.9700e-01	-8.2024	-21.254900	0.000118	1.180859	0.400086	0.009579
1796	8.9750e-01	-8.1736	-21.170658	0.000208	2.077046	0.703722	0.016848
1797	8.9800e-01	-8.1270	-21.117633	0.000131	1.307379	0.442952	0.010605
1798	8.9850e-01	-8.0613	-21.066745	0.000125	1.254662	0.425091	0.010177
1799	8.9900e-01	-8.0308	-20.993621	0.000180	1.802918	0.610845	0.014625
1800	8.9950e-01	-8.0131	-20.914083	0.000196	1.961069	0.664428	0.015908
1801	9.0000e-01	-7.9265	-20.879873	0.000084	0.843470	0.285776	0.006842
1802	9.0050e-01	-7.9297	-20.821288	-0.000144	-1.444443	-0.489391	0.011717
1803	9.0100e-01	-7.8928	-20.750303	0.000175	1.750201	0.592984	0.014197
1804	9.0150e-01	-7.8190	-20.679317	0.000175	1.750201	0.592984	0.014197
1805	9.0200e-01	-7.7950	-20.622870	0.000139	1.391726	0.471530	0.011289
1806	9.0250e-01	-7.7484	-20.563430	0.000147	1.465530	0.496535	0.011888
1807	9.0300e-01	-7.7404	-20.503990	0.000147	1.465530	0.496535	0.011888
1808	9.0350e-01	-7.6859	-20.428301	0.000187	1.866178	0.632278	0.015138
1809	9.0400e-01	-7.6361	-20.384255	0.000109	1.085968	0.367936	0.008809
1810	9.0450e-01	-7.5993	-20.309421	0.000185	1.845092	0.625134	0.014967
1811	9.0500e-01	-7.5351	-20.276066	0.000082	0.822384	0.278631	0.006671
1812	9.0550e-01	-7.5287	-20.216626	0.000147	1.465530	0.496535	0.011888
1813	9.0600e-01	-7.4629	-20.130674	0.000212	2.119220	0.718011	0.017191
1814	9.0650e-01	-7.4132	-20.081069	0.000122	1.223032	0.414375	0.009921
1815	9.0700e-01	-7.3955	-20.007518	0.000181	1.813462	0.614417	0.014710
1816	9.0750e-01	-7.3586	-19.945939	0.000152	1.518247	0.514396	0.012316
1817	9.0800e-01	-7.3057	-19.874098	0.000177	1.771288	0.600129	0.014368
1818	9.0850e-01	-7.2736	-19.818935	0.000136	1.360096	0.460813	0.011033
1819	9.0900e-01	-7.2463	-19.740679	0.000193	1.929439	0.653712	0.015651
1820	9.0950e-01	-7.1838	-19.692358	0.000119	1.191402	0.403658	0.009664
1821	9.1000e-01	-7.1757	-19.641470	0.000125	1.254662	0.425091	0.010177
1822	9.1050e-01	-7.1116	-19.552952	0.000218	2.182480	0.739444	0.017704
1823	9.1100e-01	-7.0618	-19.496933	0.000138	1.381183	0.467957	0.011204
1824	9.1150e-01	-7.0297	-19.437921	0.000145	1.454987	0.492963	0.011802
1825	9.1200e-01	-6.9864	-19.376343	0.000152	1.518247	0.514396	0.012316
1826	9.1250e-01	-6.9768	-19.310488	0.000162	1.623681	0.550118	0.013171
1827	9.1300e-01	-6.9207	-19.230095	0.000198	1.982156	0.671573	0.016079
1828	9.1350e-01	-6.8950	-19.183484	0.000115	1.149229	0.389369	0.009322
1829	9.1400e-01	-6.8228	-19.139866	0.000108	1.075425	0.364364	0.008724
1830	9.1450e-01	-6.8148	-19.061183	0.000194	1.939982	0.657284	0.015737
1831	9.1500e-01	-6.7426	-19.003453	0.000142	1.423356	0.482246	0.011546
1832	9.1550e-01	-6.7169	-18.909376	0.000232	2.319544	0.785883	0.018816
1833	9.1600e-01	-6.6704	-18.849081	0.000149	1.486617	0.503679	0.012059
1834	9.1650e-01	-6.6303	-18.790068	0.000145	1.454987	0.492963	0.011802
1835	9.1700e-01	-6.5774	-18.725497	0.000159	1.592051	0.539401	0.012914
1836	9.1750e-01	-6.5677	-18.645531	0.000197	1.971612	0.668000	0.015993
1837	9.1800e-01	-6.5180	-18.584381	0.000151	1.507704	0.510824	0.012230
1838	9.1850e-01	-6.4378	-18.542473	0.000103	1.033251	0.350075	0.008381
1839	9.1900e-01	-6.4362	-18.459514	0.000205	2.045416	0.693006	0.016592
1840	9.1950e-01	-6.4474	-18.370568	-0.000219	-2.193023	-0.743016	0.017789
1841	9.2000e-01	-6.3496	-18.332937	0.000093	0.927818	0.314353	0.007526
1842	9.2050e-01	-6.3255	-18.254254	0.000194	1.939982	0.657284	0.015737
1843	9.2100e-01	-6.2645	-18.219616	0.000085	0.854014	0.289348	0.006928
1844	9.2150e-01	-6.2453	-18.140933	0.000194	1.939982	0.657284	0.015737
1845	9.2200e-01	-6.2196	-18.051132	0.000221	2.214110	0.750161	0.017960
1846	9.2250e-01	-6.1699	-18.003666	0.000117	1.170315	0.396514	0.009493
1847	9.2300e-01	-6.1073	-17.942515	0.000151	1.507704	0.510824	0.012230
1848	9.2350e-01	-6.0768	-17.868536	0.000182	1.824005	0.617990	0.014796
1849	9.2400e-01	-6.0143	-17.809524	0.000145	1.454987	0.492963	0.011802
1850	9.2450e-01	-5.9918	-17.747090	0.000154	1.539334	0.521540	0.012487
1851	9.2500e-01	-5.9565	-17.686795	0.000149	1.486617	0.503679	0.012059
1852	9.2550e-01	-5.9341	-17.585876	0.000249	2.488238	0.843038	0.020184
1853	9.2600e-01	-5.8827	-17.534561	0.000127	1.265206	0.428663	0.010263
1854	9.2650e-01	-5.8522	-17.470417	0.000158	1.581507	0.535829	0.012829
1855	9.2700e-01	-5.7768	-17.390878	0.000196	1.961069	0.664428	0.015908
1856	9.2750e-01	-5.7448	-17.351537	0.000097	0.969991	0.328642	0.007868
1857	9.2800e-01	-5.7383	-17.251045	0.000248	2.477695	0.839466	0.020098
1858	9.2850e-01	-5.6758	-17.199730	0.000127	1.265206	0.428663	0.010263
1859	9.2900e-01	-5.6148	-17.139435	0.000149	1.486617	0.503679	0.012059
1860	9.2950e-01	-5.5843	-17.046213	0.000230	2.298457	0.778738	0.018644
1861	9.3000e-01	-5.5571	-16.983779	0.000154	1.539334	0.521540	0.012487
1862	9.3050e-01	-5.5137	-16.930326	0.000132	1.317923	0.446524	0.010691
1863	9.3100e-01	-5.4656	-16.839670	0.000224	2.235197	0.757305	0.018131
1864	9.3150e-01	-5.4079	-16.789210	0.000124	1.244119	0.421519	0.010092
1865	9.3200e-01	-5.3998	-16.680165	0.000269	2.688562	0.910910	0.021809
1866	9.3250e-01	-5.3581	-16.623291	0.000140	1.402270	0.475102	0.011375
1867	9.3300e-01	-5.3212	-16.562996	0.000149	1.486617	0.503679	0.012059
1868	9.3350e-01	-5.2747	-16.483030	0.000197	1.971612	0.668000	0.015993
1869	9.3400e-01	-5.2122	-16.441550	0.000102	1.022708	0.346503	0.008296
1870	9.3450e-01	-5.1849	-16.356025	0.000211	2.108676	0.714439	0.017105
1871	9.3500e-01	-5.1672	-16.268790	0.000215	2.150850	0.728728	0.017447
1872	9.3550e-01	-5.0983	-16.214909	0.000133	1.328466	0.450096	0.010776
1873	9.3600e-01	-5.0646	-16.155897	0.000145	1.454987	0.492963	0.011802
1874	9.3650e-01	-5.0245	-16.080635	0.000186	1.855635	0.628706	0.015052
1875	9.3700e-01	-5.0004	-15.988268	0.000228	2.277370	0.771594	0.018473
1876	9.3750e-01	-4.9683	-15.924551	0.000157	1.570964	0.532257	0.012743
1877	9.3800e-01	-4.8913	-15.853566	0.000175	1.750201	0.592984	0.014197
1878	9.3850e-01	-4.8801	-15.796691	0.000140	1.402270	0.475102	0.011375
1879	9.3900e-01	-4.8352	-15.733831	0.000155	1.549877	0.525113	0.012572
1880	9.3950e-01	-4.7951	-15.638898	0.000234	2.340631	0.793027	0.018987
1881	9.4000e-01	-4.7726	-15.546958	0.000227	2.266827	0.768022	0.018388
1882	9.4050e-01	-4.6924	-15.511893	0.000086	0.864557	0.292920	0.007013
1883	9.4100e-01	-4.6523	-15.414822	0.000239	2.393348	0.810888	0.019414
1884	9.4150e-01	-4.6186	-15.363507	0.000127	1.265206	0.428663	0.010263
1885	9.4200e-01	-4.5993	-15.274989	0.000218	2.182480	0.739444	0.017704
1886	9.4250e-01	-4.5191	-15.208707	0.000163	1.634224	0.553690	0.013256
1887	9.4300e-01	-4.5047	-15.108215	0.000248	2.477695	0.839466	0.020098
1888	9.4350e-01	-4.4726	-15.048775	0.000147	1.465530	0.496535	0.011888
1889	9.4400e-01	-4.4646	-14.966243	0.000203	2.034873	0.689433	0.016506
1890	9.4450e-01	-4.4132	-14.915783	0.000124	1.244119	0.421519	0.010092
1891	9.4500e-01	-4.3828	-14.821278	0.000233	2.330087	0.789455	0.018901
1892	9.4550e-01	-4.2865	-14.763976	0.000141	1.412813	0.478674	0.011460
1893	9.4600e-01	-4.2721	-14.669899	0.000232	2.319544	0.785883	0.018816
1894	9.4650e-01	-4.2255	-14.612597	0.000141	1.412813	0.478674	0.011460
1895	9.4700e-01	-4.2047	-14.529210	0.000206	2.055959	0.696578	0.016677
1896	9.4750e-01	-4.1742	-14.443685	0.000211	2.108676	0.714439	0.017105
1897	9.4800e-01	-4.0972	-14.392370	0.000127	1.265206	0.428663	0.010263
1898	9.4850e-01	-4.0876	-14.328654	0.000157	1.570964	0.532257	0.012743
1899	9.4900e-01	-4.0234	-14.233721	0.000234	2.340631	0.793027	0.018987
1900	9.4950e-01	-3.9865	-14.178557	0.000136	1.360096	0.460813	0.011033
1901	9.5000e-01	-3.9448	-14.078493	0.000247	2.467151	0.835893	0.020013
1902	9.5050e-01	-3.9207	-14.023329	0.000136	1.360096	0.460813	0.011033
1903	9.5100e-01	-3.8758	-13.910864	0.000277	2.772909	0.939487	0.022493
1904	9.5150e-01	-3.8181	-13.853990	0.000140	1.402270	0.475102	0.011375
1905	9.5200e-01	-3.7876	-13.762478	0.000226	2.256284	0.764450	0.018302
1906	9.5250e-01	-3.7395	-13.709025	0.000132	1.317923	0.446524	0.010691
1907	9.5300e-01	-3.7298	-13.602546	0.000263	2.625302	0.889476	0.021296
1908	9.5350e-01	-3.6817	-13.526857	0.000187	1.866178	0.632278	0.015138
1909	9.5400e-01	-3.6464	-13.456726	0.000173	1.729115	0.585840	0.014026
1910	9.5450e-01	-3.5903	-13.379753	0.000190	1.897809	0.642995	0.015395
1911	9.5500e-01	-3.5341	-13.311333	0.000169	1.686941	0.571551	0.013684
1912	9.5550e-01	-3.5052	-13.236927	0.000183	1.834548	0.621562	0.014881
1913	9.5600e-01	-3.4812	-13.143704	0.000230	2.298457	0.778738	0.018644
1914	9.5650e-01	-3.4347	-13.071436	0.000178	1.781831	0.603701	0.014454
1915	9.5700e-01	-3.4347	-12.997456	-0.000182	-1.824005	-0.617990	0.014796
1916	9.5750e-01	-3.3400	-12.919201	0.000193	1.929439	0.653712	0.015651
1917	9.5800e-01	-3.3272	-12.832393	0.000214	2.140306	0.725155	0.017362
1918	9.5850e-01	-3.3047	-12.740454	0.000227	2.266827	0.768022	0.018388
1919	9.5900e-01	-3.2133	-12.691277	0.000121	1.212489	0.410802	0.009835
1920	9.5950e-01	-3.1860	-12.586081	0.000259	2.593672	0.878760	0.021039
1921	9.6000e-01	-3.1716	-12.502266	0.000207	2.066503	0.700150	0.016763
1922	9.6050e-01	-3.1026	-12.442399	0.000148	1.476073	0.500107	0.011974
1923	9.6100e-01	-3.0769	-12.363716	0.000194	1.939982	0.657284	0.015737
1924	9.6150e-01	-3.0513	-12.274342	0.000220	2.203567	0.746589	0.017875
1925	9.6200e-01	-2.9887	-12.183686	0.000224	2.235197	0.757305	0.018131
1926	9.6250e-01	-2.9229	-12.110989	0.000179	1.792375	0.607273	0.014539
1927	9.6300e-01	-2.9069	-12.021188	0.000221	2.214110	0.750161	0.017960
1928	9.6350e-01	-2.8571	-11.957899	0.000156	1.560420	0.528685	0.012658
1929	9.6400e-01	-2.8427	-11.868953	0.000219	2.193023	0.743016	0.017789
1930	9.6450e-01	-2.7962	-11.783856	0.000210	2.098133	0.710867	0.017019
1931	9.6500e-01	-2.7561	-11.696620	0.000215	2.150850	0.728728	0.017447
1932	9.6550e-01	-2.7079	-11.608530	0.000217	2.171937	0.735872	0.017618
1933	9.6600e-01	-2.6710	-11.536261	0.000178	1.781831	0.603701	0.014454
1934	9.6650e-01	-2.6133	-11.477249	0.000145	1.454987	0.492963	0.011802
1935	9.6700e-01	-2.5924	-11.365211	0.000276	2.762366	0.935915	0.022408
1936	9.6750e-01	-2.5652	-11.285672	0.000196	1.961069	0.664428	0.015908
1937	9.6800e-01	-2.5411	-11.208272	0.000191	1.908352	0.646567	0.015480
1938	9.6850e-01	-2.4673	-11.126168	0.000202	2.024329	0.685861	0.016421
1939	9.6900e-01	-2.4497	-11.040216	0.000212	2.119220	0.718011	0.017191
1940	9.6950e-01	-2.4096	-10.943572	0.000238	2.382804	0.807316	0.019329
1941	9.7000e-01	-2.3534	-10.872586	0.000175	1.750201	0.592984	0.014197
1942	9.7050e-01	-2.3165	-10.775515	0.000239	2.393348	0.810888	0.019414
1943	9.7100e-01	-2.2652	-10.700681	0.000185	1.845092	0.625134	0.014967
1944	9.7150e-01	-2.2203	-10.604893	0.000236	2.361717	0.800172	0.019158
1945	9.7200e-01	-2.1962	-10.516802	0.000217	2.171937	0.735872	0.017618
1946	9.7250e-01	-2.1593	-10.423152	0.000231	2.309000	0.782311	0.018730
1947	9.7300e-01	-2.0919	-10.388087	0.000086	0.864557	0.292920	0.007013
1948	9.7350e-01	-2.0999	-10.270918	-0.000289	-2.888886	-0.978781	0.023434
1949	9.7400e-01	-2.0646	-10.154604	0.000287	2.867800	0.971637	0.023263
1950	9.7450e-01	-1.9876	-10.080197	0.000183	1.834548	0.621562	0.014881
1951	9.7500e-01	-1.9540	-9.997665	0.000203	2.034873	0.689433	0.016506
1952	9.7550e-01	-1.8930	-9.923686	0.000182	1.824005	0.617990	0.014796
1953	9.7600e-01	-1.8673	-9.823622	0.000247	2.467151	0.835893	0.020013
1954	9.7650e-01	-1.8048	-9.731255	0.000228	2.277370	0.771594	0.018473
1955	9.7700e-01	-1.7951	-9.663262	0.000168	1.676398	0.567979	0.013598
1956	9.7750e-01	-1.7679	-9.565336	0.000241	2.414434	0.818032	0.019585
1957	9.7800e-01	-1.7149	-9.447311	0.000291	2.909973	0.985926	0.023605
1958	9.7850e-01	-1.6572	-9.418233	0.000072	0.716950	0.242909	0.005816
1959	9.7900e-01	-1.6427	-9.291656	0.000312	3.120841	1.057369	0.025315
1960	9.7950e-01	-1.6106	-9.184749	0.000264	2.635845	0.893049	0.021381
1961	9.8000e-01	-1.5609	-9.106494	0.000193	1.929439	0.653712	0.015651
1962	9.8050e-01	-1.5080	-9.017120	0.000220	2.203567	0.746589	0.017875
1963	9.8100e-01	-1.4967	-8.947417	0.000172	1.718571	0.582268	0.013941
1964	9.8150e-01	-1.4149	-8.856333	0.000225	2.245740	0.760877	0.018217
1965	9.8200e-01	-1.4005	-8.758407	0.000241	2.414434	0.818032	0.019585
1966	9.8250e-01	-1.3732	-8.653639	0.000258	2.583128	0.875188	0.020954
1967	9.8300e-01	-1.3203	-8.579232	0.000183	1.834548	0.621562	0.014881
1968	9.8350e-01	-1.2593	-8.490714	0.000218	2.182480	0.739444	0.017704
1969	9.8400e-01	-1.2337	-8.393215	0.000240	2.403891	0.814460	0.019500
1970	9.8450e-01	-1.1759	-8.300848	0.000228	2.277370	0.771594	0.018473
1971	9.8500e-01	-1.1230	-8.213612	0.000215	2.150850	0.728728	0.017447
1972	9.8550e-01	-1.1165	-8.104568	0.000269	2.688562	0.910910	0.021809
1973	9.8600e-01	-1.0411	-8.049832	0.000135	1.349553	0.457241	0.010947
1974	9.8650e-01	-1.0363	-7.932663	0.000289	2.888886	0.978781	0.023434
1975	9.8700e-01	-1.0010	-7.849276	0.000206	2.055959	0.696578	0.016677
1976	9.8750e-01	-0.9770	-7.726120	0.000304	3.036494	1.028792	0.024631
1977	9.8800e-01	-0.9000	-7.658555	0.000167	1.665854	0.564407	0.013513
1978	9.8850e-01	-0.8791	-7.574740	0.000207	2.066503	0.700150	0.016763
1979	9.8900e-01	-0.8294	-7.476386	0.000242	2.424978	0.821605	0.019671
1980	9.8950e-01	-0.8117	-7.387013	0.000220	2.203567	0.746589	0.017875
1981	9.9000e-01	-0.7524	-7.282672	0.000257	2.572585	0.871615	0.020868
1982	9.9050e-01	-0.6882	-7.206983	0.000187	1.866178	0.632278	0.015138
1983	9.9100e-01	-0.6722	-7.098366	0.000268	2.678019	0.907337	0.021723
1984	9.9150e-01	-0.6433	-6.997874	0.000248	2.477695	0.839466	0.020098
1985	9.9200e-01	-0.6064	-6.888402	0.000270	2.699106	0.914482	0.021894
1986	9.9250e-01	-0.5358	-6.833238	0.000136	1.360096	0.460813	0.011033
1987	9.9300e-01	-0.5069	-6.723766	0.000270	2.699106	0.914482	0.021894
1988	9.9350e-01	-0.4716	-6.607024	0.000288	2.878343	0.975209	0.023348
1989	9.9400e-01	-0.4412	-6.518078	0.000219	2.193023	0.743016	0.017789
1990	9.9450e-01	-0.4075	-6.420580	0.000240	2.403891	0.814460	0.019500
1991	9.9500e-01	-0.3610	-6.329923	0.000224	2.235197	0.757305	0.018131
1992	9.9550e-01	-0.3208	-6.224300	0.000260	2.604215	0.882332	0.021125
1993	9.9600e-01	-0.2663	-6.150321	0.000182	1.824005	0.617990	0.014796
1994	9.9650e-01	-0.2182	-6.068216	0.000202	2.024329	0.685861	0.016421
1995	9.9700e-01	-0.1861	-5.941212	0.000313	3.131384	1.060942	0.025401
1996	9.9750e-01	-0.1428	-5.864667	0.000189	1.887265	0.639423	0.015309
1997	9.9800e-01	-0.1251	-5.759471	0.000259	2.593672	0.878760	0.021039
1998	9.9850e-01	-0.0946	-5.641874	0.000290	2.899430	0.982353	0.023519
1999	9.9900e-01	0.0144	-5.591842	0.000123	1.233576	0.417947	0.010006
2000	9.9950e-01	-0.0096	-5.458850	-0.000328	-3.278992	-1.110952	0.026598
2001	1.0000e+00	0.0273	-5.363062	-0.000328	-3.278992	-1.110952	0.019158

Center data before PMax,+/-Pr and +/-Vc Calc.

PMax (uC/cm2):	3.45e+01
Pr (uC/cm2):	2.96e+00
-Pr (uC/cm2):	-5.36e+00
PLoss (uC/cm2):	-6.61e+00
-Vc:	-1.21e+00
C (Max-Eff) (nF):	1.72e-01
K (Eff):	5.84e+02
Vert. (+/-Pr) Shift (uC/cm2):	-1.20e+00
Offset (uC/cm2):	-1.23e+00

A (Loop Area - uC/cm2·Volts):	2.09e-01



Hysteresis Version: 5.48.1 - Radiant Technologies, Inc., 1999 - 9/12/24

