»»»»»»»»»»»»»»»»»»»»»»»»»»»»»»»»»»»» Hysteresis ««««««««««««««««««««««««««««««««««««
»»»  Executed Version:	5.48.1
»»»  Vision Version:	5.48.4 (R)
»»»  Vision Compiled:	9/18/24
»»»  Driver Version:	5.47.0
»»»  Windows Version:	Windows 8 or 8.1
»»»  Processor Information:	x86 (AMD or Intel) - 32 Processors
»»»  Tester Name:	PMF21124-494 (100V)
»»»  Tester S/N:	PMF21124-494
»»»  Internal Amp Type:	100V RevK 270k
»»»  Internal Amp S/N:	iAB2-596/K     
»»»  Execution Count:	1
»»»»»»»»»»»»»»»»»»»»»»»»»»»»»»»»»»»»»»»»»»««««««««««««««««««««««««««««««««««««««««««

Stored:	6/12/2025 - 11:15:6
Configured:	06/12/25 10:06:17 AM
Executed:	06/12/25 11:14:41 AM

»»»»»»»»»»»»»»»»»»»»»»»»»»»»»»»»»»» Sample Info ««««««««««««««««««««««««««««««««««««
Sample Name:	
Lot Name:	
Wafer Name:	
Die Row/Column:	0/0
Capacitor Number:	0
Sample Area (cm2):	1.00e-04
Sample Thickness (microns):	3.00e-01

Amplifier:	Internal

»»»»»»»»»»»»»»»»»»»»»»»»»»»»»»»»»»» Tester Info «««««««««««««««««««««««««««««««««««
Tester Name:	PMF21124-494 (100V)
Tester Serial Number:	PMF21124-494
Return Signal Amp. Level:	1.79 [Index: 2]

»»»»»»»»»»»»»»»»»»»»»»»»»»»»»»»» Hysteresis Info ««««««««««««««««««««««««««««««««««
Task Name:	Hyst-1390
Volts:	20.00
Field:	666.67 (kV/cm)
DCBias:	0.00
DCField:	0.00 (kV/cm)
Hysteresis Period (ms):	1.00e+00
Preset:	Enabled
Preset Delay (ms):	1.00e+03
Profile:	Standard Bipolar

»»»»»»»»»»»»»»»»»»»»»»»»»»»»»»»»»»»»»» Data «««««««««««««««««««««««««««««««««««««««
Points:	2001

Valid Data

Point	Time (ms)	Drive Voltage	Measured Polarization (uC/cm2)	Capacitance (uF)	Normalized Capacitance (uF/cm2)	Dielectric Constant	Instantaneous Current (mA)
   1	0.0000e+00	0.0321	-0.653198	0.000032	0.323410	0.109574	0.002651
   2	5.0000e-04	0.0610	-0.639941	0.000032	0.323410	0.109574	0.002651
   3	1.0000e-03	0.1299	-0.617705	0.000054	0.542495	0.183802	0.004447
   4	1.5000e-03	0.1668	-0.577936	0.000097	0.970231	0.328723	0.007954
   5	2.0000e-03	0.2342	-0.519779	0.000142	1.418833	0.480714	0.011631
   6	2.5000e-03	0.2454	-0.460339	0.000145	1.450130	0.491317	0.011888
   7	3.0000e-03	0.2888	-0.387215	0.000178	1.783973	0.604427	0.014625
   8	3.5000e-03	0.3225	-0.311525	0.000185	1.846569	0.625634	0.015138
   9	4.0000e-03	0.3818	-0.235408	0.000186	1.857002	0.629169	0.015223
  10	4.5000e-03	0.4091	-0.149883	0.000209	2.086519	0.706932	0.017105
  11	5.0000e-03	0.4203	-0.057516	0.000225	2.253440	0.763486	0.018473
  12	5.5000e-03	0.4765	0.028437	0.000210	2.096951	0.710466	0.017191
  13	6.0000e-03	0.5246	0.124653	0.000235	2.347333	0.795298	0.019243
  14	6.5000e-03	0.5631	0.217875	0.000227	2.274305	0.770555	0.018644
  15	7.0000e-03	0.6128	0.315801	0.000239	2.389064	0.809437	0.019585
  16	7.5000e-03	0.6192	0.408168	0.000225	2.253440	0.763486	0.018473
  17	8.0000e-03	0.6593	0.500535	0.000225	2.253440	0.763486	0.018473
  18	8.5000e-03	0.7187	0.600172	0.000243	2.430794	0.823575	0.019927
  19	9.0000e-03	0.7572	0.705796	0.000258	2.576850	0.873061	0.021125
  20	9.5000e-03	0.7941	0.796024	0.000220	2.201277	0.745813	0.018046
  21	1.0000e-02	0.8406	0.887536	0.000223	2.232575	0.756417	0.018302
  22	1.0500e-02	0.8823	0.981614	0.000230	2.295170	0.777625	0.018816
  23	1.1000e-02	0.9192	1.086382	0.000256	2.555985	0.865991	0.020954
  24	1.1500e-02	0.9802	1.184308	0.000239	2.389064	0.809437	0.019585
  25	1.2000e-02	0.9962	1.289076	0.000256	2.555985	0.865991	0.020954
  26	1.2500e-02	1.0299	1.380588	0.000223	2.232575	0.756417	0.018302
  27	1.3000e-02	1.0989	1.469962	0.000218	2.180412	0.738744	0.017875
  28	1.3500e-02	1.1294	1.570026	0.000244	2.441227	0.827110	0.020013
  29	1.4000e-02	1.1599	1.670091	0.000244	2.441227	0.827110	0.020013
  30	1.4500e-02	1.2208	1.769300	0.000242	2.420362	0.820041	0.019842
  31	1.5000e-02	1.2497	1.861239	0.000224	2.243007	0.759952	0.018388
  32	1.5500e-02	1.2914	1.958738	0.000238	2.378631	0.805902	0.019500
  33	1.6000e-02	1.3395	2.060940	0.000249	2.493390	0.844783	0.020440
  34	1.6500e-02	1.3427	2.157583	0.000236	2.357766	0.798833	0.019329
  35	1.7000e-02	1.4037	2.256365	0.000241	2.409929	0.816506	0.019756
  36	1.7500e-02	1.4711	2.344883	0.000216	2.159547	0.731674	0.017704
  37	1.8000e-02	1.4679	2.450079	-0.000257	-2.566418	-0.869526	0.021039
  38	1.8500e-02	1.5385	2.539453	0.000218	2.180412	0.738744	0.017875
  39	1.9000e-02	1.5481	2.642938	0.000252	2.524687	0.855387	0.020697
  40	1.9500e-02	1.5914	2.741719	0.000241	2.409929	0.816506	0.019756
  41	2.0000e-02	1.6363	2.831093	0.000218	2.180412	0.738744	0.017875
  42	2.0500e-02	1.6604	2.932013	0.000246	2.462092	0.834179	0.020184
  43	2.1000e-02	1.7021	3.020104	0.000215	2.149114	0.728140	0.017618
  44	2.1500e-02	1.7598	3.110332	0.000220	2.201277	0.745813	0.018046
  45	2.2000e-02	1.8112	3.203555	0.000227	2.274305	0.770555	0.018644
  46	2.2500e-02	1.8336	3.298915	0.000233	2.326468	0.788229	0.019072
  47	2.3000e-02	1.8818	3.372039	0.000178	1.783973	0.604427	0.014625
  48	2.3500e-02	1.9379	3.483649	0.000272	2.722907	0.922546	0.022322
  49	2.4000e-02	1.9684	3.584996	0.000247	2.472525	0.837714	0.020269
  50	2.4500e-02	1.9892	3.676081	0.000222	2.222142	0.752882	0.018217
  51	2.5000e-02	2.0165	3.769731	0.000228	2.284738	0.774090	0.018730
  52	2.5500e-02	2.1031	3.855683	0.000210	2.096951	0.710466	0.017191
  53	2.6000e-02	2.1128	3.956175	0.000245	2.451659	0.830645	0.020098
  54	2.6500e-02	2.1625	4.043838	0.000214	2.138682	0.724605	0.017533
  55	2.7000e-02	2.1898	4.139199	0.000233	2.326468	0.788229	0.019072
  56	2.7500e-02	2.2523	4.227290	0.000215	2.149114	0.728140	0.017618
  57	2.8000e-02	2.2828	4.318801	0.000223	2.232575	0.756417	0.018302
  58	2.8500e-02	2.3406	4.403471	0.000207	2.065653	0.699862	0.016934
  59	2.9000e-02	2.3550	4.497976	0.000231	2.305603	0.781159	0.018901
  60	2.9500e-02	2.3999	4.592909	0.000232	2.316036	0.784694	0.018987
  61	3.0000e-02	2.4657	4.681855	0.000217	2.169979	0.735209	0.017789
  62	3.0500e-02	2.4497	4.774222	-0.000225	-2.253440	-0.763486	0.018473
  63	3.1000e-02	2.5219	4.859320	0.000208	2.076086	0.703397	0.017019
  64	3.1500e-02	2.5443	4.954680	0.000233	2.326468	0.788229	0.019072
  65	3.2000e-02	2.6261	5.042771	0.000215	2.149114	0.728140	0.017618
  66	3.2500e-02	2.6486	5.130862	0.000215	2.149114	0.728140	0.017618
  67	3.3000e-02	2.6983	5.227078	0.000235	2.347333	0.795298	0.019243
  68	3.3500e-02	2.7208	5.312603	0.000209	2.086519	0.706932	0.017105
  69	3.4000e-02	2.7657	5.403259	0.000221	2.211710	0.749348	0.018131
  70	3.4500e-02	2.8058	5.495626	0.000225	2.253440	0.763486	0.018473
  71	3.5000e-02	2.8331	5.576875	0.000198	1.982193	0.671585	0.016250
  72	3.5500e-02	2.9021	5.668814	0.000224	2.243007	0.759952	0.018388
  73	3.6000e-02	2.9197	5.756905	0.000215	2.149114	0.728140	0.017618
  74	3.6500e-02	2.9791	5.845424	0.000216	2.159547	0.731674	0.017704
  75	3.7000e-02	2.9839	5.932232	0.000212	2.117816	0.717536	0.017362
  76	3.7500e-02	3.0464	6.017757	0.000209	2.086519	0.706932	0.017105
  77	3.8000e-02	3.0769	6.113117	0.000233	2.326468	0.788229	0.019072
  78	3.8500e-02	3.1154	6.193511	0.000196	1.961327	0.664516	0.016079
  79	3.9000e-02	3.1668	6.279463	0.000210	2.096951	0.710466	0.017191
  80	3.9500e-02	3.1860	6.363278	0.000204	2.044788	0.692793	0.016763
  81	4.0000e-02	3.2277	6.448375	0.000208	2.076086	0.703397	0.017019
  82	4.0500e-02	3.2486	6.539032	0.000221	2.211710	0.749348	0.018131
  83	4.1000e-02	3.3127	6.618998	0.000195	1.950895	0.660981	0.015993
  84	4.1500e-02	3.3496	6.712648	0.000228	2.284738	0.774090	0.018730
  85	4.2000e-02	3.4058	6.775081	0.000152	1.523159	0.516060	0.012487
  86	4.2500e-02	3.4539	6.886264	0.000271	2.712474	0.919011	0.022237
  87	4.3000e-02	3.4796	6.964947	0.000192	1.919597	0.650377	0.015737
  88	4.3500e-02	3.5470	7.045768	0.000197	1.971760	0.668050	0.016164
  89	4.4000e-02	3.5534	7.138990	0.000227	2.274305	0.770555	0.018644
  90	4.4500e-02	3.6175	7.217246	0.000191	1.909165	0.646842	0.015651
  91	4.5000e-02	3.6560	7.301060	0.000204	2.044788	0.692793	0.016763
  92	4.5500e-02	3.6737	7.390861	0.000219	2.190845	0.742278	0.017960
  93	4.6000e-02	3.7266	7.474248	0.000203	2.034356	0.689258	0.016677
  94	4.6500e-02	3.7764	7.556352	0.000200	2.003058	0.678654	0.016421
  95	4.7000e-02	3.8181	7.644443	0.000215	2.149114	0.728140	0.017618
  96	4.7500e-02	3.8582	7.720561	0.000186	1.857002	0.629169	0.015223
  97	4.8000e-02	3.8726	7.809079	0.000216	2.159547	0.731674	0.017704
  98	4.8500e-02	3.8999	7.893749	0.000207	2.065653	0.699862	0.016934
  99	4.9000e-02	3.9592	7.972859	0.000193	1.930030	0.653912	0.015822
 100	4.9500e-02	3.9994	8.056674	0.000204	2.044788	0.692793	0.016763
 101	5.0000e-02	4.0250	8.135785	0.000193	1.930030	0.653912	0.015822
 102	5.0500e-02	4.0844	8.215751	0.000195	1.950895	0.660981	0.015993
 103	5.1000e-02	4.0940	8.303841	0.000215	2.149114	0.728140	0.017618
 104	5.1500e-02	4.1437	8.385518	0.000199	1.992625	0.675120	0.016335
 105	5.2000e-02	4.1919	8.465484	0.000195	1.950895	0.660981	0.015993
 106	5.2500e-02	4.2464	8.539035	0.000179	1.794406	0.607961	0.014710
 107	5.3000e-02	4.3058	8.627126	0.000215	2.149114	0.728140	0.017618
 108	5.3500e-02	4.3234	8.712651	0.000209	2.086519	0.706932	0.017105
 109	5.4000e-02	4.3715	8.792617	0.000195	1.950895	0.660981	0.015993
 110	5.4500e-02	4.3876	8.867452	0.000183	1.825704	0.618565	0.014967
 111	5.5000e-02	4.4437	8.947417	0.000195	1.950895	0.660981	0.015993
 112	5.5500e-02	4.4806	9.032942	0.000209	2.086519	0.706932	0.017105
 113	5.6000e-02	4.5207	9.121889	0.000217	2.169979	0.735209	0.017789
 114	5.6500e-02	4.5592	9.198433	0.000187	1.867434	0.632704	0.015309
 115	5.7000e-02	4.6170	9.276689	0.000191	1.909165	0.646842	0.015651
 116	5.7500e-02	4.6378	9.357938	0.000198	1.982193	0.671585	0.016250
 117	5.8000e-02	4.6876	9.434055	0.000186	1.857002	0.629169	0.015223
 118	5.8500e-02	4.7164	9.515731	0.000199	1.992625	0.675120	0.016335
 119	5.9000e-02	4.7662	9.596980	0.000198	1.982193	0.671585	0.016250
 120	5.9500e-02	4.8207	9.670959	0.000180	1.804839	0.611496	0.014796
 121	6.0000e-02	4.8560	9.752208	0.000198	1.982193	0.671585	0.016250
 122	6.0500e-02	4.8656	9.832174	0.000195	1.950895	0.660981	0.015993
 123	6.1000e-02	4.9186	9.912568	0.000196	1.961327	0.664516	0.016079
 124	6.1500e-02	4.9635	9.988685	0.000186	1.857002	0.629169	0.015223
 125	6.2000e-02	5.0036	10.059671	0.000173	1.731810	0.586753	0.014197
 126	6.2500e-02	5.0309	10.146906	0.000213	2.128249	0.721070	0.017447
 127	6.3000e-02	5.0806	10.218320	0.000174	1.742243	0.590288	0.014283
 128	6.3500e-02	5.1271	10.297858	0.000194	1.940462	0.657446	0.015908
 129	6.4000e-02	5.1368	10.375686	0.000190	1.898732	0.643308	0.015566
 130	6.4500e-02	5.1945	10.454369	0.000192	1.919597	0.650377	0.015737
 131	6.5000e-02	5.2250	10.536045	0.000199	1.992625	0.675120	0.016335
 132	6.5500e-02	5.2924	10.611307	0.000184	1.836136	0.622100	0.015052
 133	6.6000e-02	5.3196	10.693839	0.000201	2.013490	0.682189	0.016506
 134	6.6500e-02	5.3678	10.763970	0.000171	1.710945	0.579684	0.014026
 135	6.7000e-02	5.3581	10.849922	-0.000210	-2.096951	-0.710466	0.017191
 136	6.7500e-02	5.4351	10.936303	0.000211	2.107384	0.714001	0.017276
 137	6.8000e-02	5.5154	10.997453	0.000149	1.491861	0.505456	0.012230
 138	6.8500e-02	5.5298	11.073998	0.000187	1.867434	0.632704	0.015309
 139	6.9000e-02	5.5651	11.148405	0.000182	1.815271	0.615031	0.014881
 140	6.9500e-02	5.6068	11.226660	0.000191	1.909165	0.646842	0.015651
 141	7.0000e-02	5.6581	11.293797	0.000164	1.637917	0.554941	0.013427
 142	7.0500e-02	5.7047	11.375046	0.000198	1.982193	0.671585	0.016250
 143	7.1000e-02	5.6998	11.452446	-0.000189	-1.888299	-0.639773	0.015480
 144	7.1500e-02	5.7480	11.534550	0.000200	2.003058	0.678654	0.016421
 145	7.2000e-02	5.7624	11.608530	0.000180	1.804839	0.611496	0.014796
 146	7.2500e-02	5.8298	11.688068	0.000194	1.940462	0.657446	0.015908
 147	7.3000e-02	5.8891	11.760764	0.000177	1.773541	0.600892	0.014539
 148	7.3500e-02	5.9148	11.839447	0.000192	1.919597	0.650377	0.015737
 149	7.4000e-02	5.9565	11.907012	0.000165	1.648350	0.558476	0.013513
 150	7.4500e-02	6.0159	11.984840	0.000190	1.898732	0.643308	0.015566
 151	7.5000e-02	6.0528	12.056253	0.000174	1.742243	0.590288	0.014283
 152	7.5500e-02	6.0816	12.131515	0.000184	1.836136	0.622100	0.015052
 153	7.6000e-02	6.1346	12.207633	0.000186	1.857002	0.629169	0.015223
 154	7.6500e-02	6.1827	12.281184	0.000179	1.794406	0.607961	0.014710
 155	7.7000e-02	6.1988	12.350459	0.000169	1.690080	0.572615	0.013855
 156	7.7500e-02	6.2629	12.430853	0.000196	1.961327	0.664516	0.016079
 157	7.8000e-02	6.2709	12.504404	0.000179	1.794406	0.607961	0.014710
 158	7.8500e-02	6.3062	12.583943	0.000194	1.940462	0.657446	0.015908
 159	7.9000e-02	6.3736	12.649797	0.000161	1.606619	0.544337	0.013171
 160	7.9500e-02	6.4153	12.727197	0.000189	1.888299	0.639773	0.015480
 161	8.0000e-02	6.4570	12.802887	0.000185	1.846569	0.625634	0.015138
 162	8.0500e-02	6.4859	12.872590	0.000170	1.700513	0.576149	0.013941
 163	8.1000e-02	6.4747	12.949990	-0.000189	-1.888299	-0.639773	0.015480
 164	8.1500e-02	6.5533	13.017982	0.000166	1.658782	0.562011	0.013598
 165	8.2000e-02	6.6030	13.091106	0.000178	1.783973	0.604427	0.014625
 166	8.2500e-02	6.6479	13.166796	0.000185	1.846569	0.625634	0.015138
 167	8.3000e-02	6.6929	13.230085	0.000154	1.544024	0.523129	0.012658
 168	8.3500e-02	6.7330	13.302353	0.000176	1.763108	0.597357	0.014454
 169	8.4000e-02	6.7699	13.375905	0.000179	1.794406	0.607961	0.014710
 170	8.4500e-02	6.8212	13.456298	0.000196	1.961327	0.664516	0.016079
 171	8.5000e-02	6.8565	13.522580	0.000162	1.617052	0.547872	0.013256
 172	8.5500e-02	6.8886	13.590145	0.000165	1.648350	0.558476	0.013513
 173	8.6000e-02	6.9239	13.667118	0.000188	1.877867	0.636238	0.015395
 174	8.6500e-02	6.9896	13.738959	0.000175	1.752676	0.593823	0.014368
 175	8.7000e-02	6.9977	13.803102	0.000156	1.564889	0.530199	0.012829
 176	8.7500e-02	7.0217	13.894614	0.000223	2.232575	0.756417	0.018302
 177	8.8000e-02	7.0715	13.957048	0.000152	1.523159	0.516060	0.012487
 178	8.8500e-02	7.1485	14.031882	0.000183	1.825704	0.618565	0.014967
 179	8.9000e-02	7.1645	14.097309	0.000160	1.596187	0.540803	0.013085
 180	8.9500e-02	7.1773	14.170433	0.000178	1.783973	0.604427	0.014625
 181	9.0000e-02	7.2543	14.237570	0.000164	1.637917	0.554941	0.013427
 182	9.0500e-02	7.2720	14.314970	0.000189	1.888299	0.639773	0.015480
 183	9.1000e-02	7.3538	14.381679	0.000163	1.627484	0.551407	0.013342
 184	9.1500e-02	7.3410	14.452665	-0.000173	-1.731810	-0.586753	0.014197
 185	9.2000e-02	7.3859	14.528783	0.000186	1.857002	0.629169	0.015223
 186	9.2500e-02	7.4533	14.595492	0.000163	1.627484	0.551407	0.013342
 187	9.3000e-02	7.4998	14.663484	0.000166	1.658782	0.562011	0.013598
 188	9.3500e-02	7.4966	14.733187	-0.000170	-1.700513	-0.576149	0.013941
 189	9.4000e-02	7.5463	14.808449	0.000184	1.836136	0.622100	0.015052
 190	9.4500e-02	7.5896	14.884139	0.000185	1.846569	0.625634	0.015138
 191	9.5000e-02	7.6281	14.951704	0.000165	1.648350	0.558476	0.013513
 192	9.5500e-02	7.7035	15.017131	0.000160	1.596187	0.540803	0.013085
 193	9.6000e-02	7.7517	15.079136	0.000151	1.512726	0.512525	0.012401
 194	9.6500e-02	7.7805	15.157392	0.000191	1.909165	0.646842	0.015651
 195	9.7000e-02	7.7805	15.225812	-0.000167	-1.669215	-0.565545	0.013684
 196	9.7500e-02	7.8351	15.291666	0.000161	1.606619	0.544337	0.013171
 197	9.8000e-02	7.8976	15.360086	0.000167	1.669215	0.565545	0.013684
 198	9.8500e-02	7.9089	15.431927	0.000175	1.752676	0.593823	0.014368
 199	9.9000e-02	7.9811	15.508044	0.000186	1.857002	0.629169	0.015223
 200	9.9500e-02	7.9827	15.570905	0.000153	1.533591	0.519595	0.012572
 201	1.0000e-01	8.0645	15.634621	0.000155	1.554456	0.526664	0.012743
 202	1.0050e-01	8.0950	15.712022	0.000189	1.888299	0.639773	0.015480
 203	1.0100e-01	8.1351	15.785146	0.000178	1.783973	0.604427	0.014625
 204	1.0150e-01	8.1607	15.844585	0.000145	1.450130	0.491317	0.011888
 205	1.0200e-01	8.1880	15.914716	0.000171	1.710945	0.579684	0.014026
 206	1.0250e-01	8.2393	15.983564	0.000168	1.679647	0.569080	0.013770
 207	1.0300e-01	8.2810	16.056688	0.000178	1.783973	0.604427	0.014625
 208	1.0350e-01	8.3340	16.125108	0.000167	1.669215	0.565545	0.013684
 209	1.0400e-01	8.3773	16.187113	0.000151	1.512726	0.512525	0.012401
 210	1.0450e-01	8.4094	16.254678	0.000165	1.648350	0.558476	0.013513
 211	1.0500e-01	8.4495	16.326519	0.000175	1.752676	0.593823	0.014368
 212	1.0550e-01	8.5024	16.388097	0.000150	1.502293	0.508991	0.012316
 213	1.0600e-01	8.5441	16.457373	0.000169	1.690080	0.572615	0.013855
 214	1.0650e-01	8.5602	16.532207	0.000183	1.825704	0.618565	0.014967
 215	1.0700e-01	8.5971	16.596351	0.000156	1.564889	0.530199	0.012829
 216	1.0750e-01	8.6532	16.665626	0.000169	1.690080	0.572615	0.013855
 217	1.0800e-01	8.6661	16.732763	0.000164	1.637917	0.554941	0.013427
 218	1.0850e-01	8.7062	16.802038	0.000169	1.690080	0.572615	0.013855
 219	1.0900e-01	8.7543	16.870886	0.000168	1.679647	0.569080	0.013770
 220	1.0950e-01	8.8441	16.936313	0.000160	1.596187	0.540803	0.013085
 221	1.1000e-01	8.8056	17.003022	-0.000163	-1.627484	-0.551407	0.013342
 222	1.1050e-01	8.8682	17.069732	0.000163	1.627484	0.551407	0.013342
 223	1.1100e-01	8.9356	17.121047	0.000125	1.251911	0.424159	0.010263
 224	1.1150e-01	8.9516	17.204434	0.000203	2.034356	0.689258	0.016677
 225	1.1200e-01	9.0030	17.266867	0.000152	1.523159	0.516060	0.012487
 226	1.1250e-01	9.0447	17.338708	0.000175	1.752676	0.593823	0.014368
 227	1.1300e-01	9.0832	17.398148	0.000145	1.450130	0.491317	0.011888
 228	1.1350e-01	9.1345	17.469562	0.000174	1.742243	0.590288	0.014283
 229	1.1400e-01	9.1521	17.529429	0.000146	1.460563	0.494852	0.011974
 230	1.1450e-01	9.2051	17.598704	0.000169	1.690080	0.572615	0.013855
 231	1.1500e-01	9.2340	17.666697	0.000166	1.658782	0.562011	0.013598
 232	1.1550e-01	9.2997	17.728275	0.000150	1.502293	0.508991	0.012316
 233	1.1600e-01	9.3254	17.795412	0.000164	1.637917	0.554941	0.013427
 234	1.1650e-01	9.3511	17.862549	0.000164	1.637917	0.554941	0.013427
 235	1.1700e-01	9.4024	17.924982	0.000152	1.523159	0.516060	0.012487
 236	1.1750e-01	9.4441	17.997251	0.000176	1.763108	0.597357	0.014454
 237	1.1800e-01	9.4971	18.064388	0.000164	1.637917	0.554941	0.013427
 238	1.1850e-01	9.4971	18.124256	-0.000146	-1.460563	-0.494852	0.011974
 239	1.1900e-01	9.5741	18.192676	0.000167	1.669215	0.565545	0.013684
 240	1.1950e-01	9.6142	18.249978	0.000140	1.397967	0.473644	0.011460
 241	1.2000e-01	9.6446	18.323102	0.000178	1.783973	0.604427	0.014625
 242	1.2050e-01	9.6815	18.382969	0.000146	1.460563	0.494852	0.011974
 243	1.2100e-01	9.7040	18.456093	0.000178	1.783973	0.604427	0.014625
 244	1.2150e-01	9.7521	18.520664	0.000158	1.575322	0.533733	0.012914
 245	1.2200e-01	9.7858	18.576683	0.000137	1.366670	0.463040	0.011204
 246	1.2250e-01	9.8468	18.647669	0.000173	1.731810	0.586753	0.014197
 247	1.2300e-01	9.8885	18.710102	0.000152	1.523159	0.516060	0.012487
 248	1.2350e-01	9.9575	18.769970	0.000146	1.460563	0.494852	0.011974
 249	1.2400e-01	9.9735	18.842239	0.000176	1.763108	0.597357	0.014454
 250	1.2450e-01	10.0152	18.903389	0.000149	1.491861	0.505456	0.012230
 251	1.2500e-01	10.0730	18.968816	0.000160	1.596187	0.540803	0.013085
 252	1.2550e-01	10.0569	19.035953	-0.000164	-1.637917	-0.554941	0.013427
 253	1.2600e-01	10.1580	19.091972	0.000137	1.366670	0.463040	0.011204
 254	1.2650e-01	10.1692	19.161675	0.000170	1.700513	0.576149	0.013941
 255	1.2700e-01	10.2061	19.225391	0.000155	1.554456	0.526664	0.012743
 256	1.2750e-01	10.2446	19.293811	0.000167	1.669215	0.565545	0.013684
 257	1.2800e-01	10.2767	19.345554	0.000126	1.262344	0.427694	0.010349
 258	1.2850e-01	10.3184	19.404994	0.000145	1.450130	0.491317	0.011888
 259	1.2900e-01	10.3617	19.478973	0.000180	1.804839	0.611496	0.014796
 260	1.2950e-01	10.4051	19.537557	0.000143	1.429265	0.484248	0.011717
 261	1.3000e-01	10.4291	19.602129	0.000158	1.575322	0.533733	0.012914
 262	1.3050e-01	10.4580	19.670549	0.000167	1.669215	0.565545	0.013684
 263	1.3100e-01	10.5109	19.727423	0.000139	1.387535	0.470110	0.011375
 264	1.3150e-01	10.5623	19.809955	0.000201	2.013490	0.682189	0.016506
 265	1.3200e-01	10.5847	19.859559	0.000121	1.210181	0.410020	0.009921
 266	1.3250e-01	10.6505	19.923703	0.000156	1.564889	0.530199	0.012829
 267	1.3300e-01	10.6810	19.982288	0.000143	1.429265	0.484248	0.011717
 268	1.3350e-01	10.7227	20.052418	0.000171	1.710945	0.579684	0.014026
 269	1.3400e-01	10.7612	20.109292	0.000139	1.387535	0.470110	0.011375
 270	1.3450e-01	10.7933	20.175574	0.000162	1.617052	0.547872	0.013256
 271	1.3500e-01	10.8687	20.235869	0.000147	1.470996	0.498387	0.012059
 272	1.3550e-01	10.8799	20.305145	0.000169	1.690080	0.572615	0.013855
 273	1.3600e-01	10.9184	20.364157	0.000144	1.439698	0.487783	0.011802
 274	1.3650e-01	10.9746	20.421459	0.000140	1.397967	0.473644	0.011460
 275	1.3700e-01	10.9826	20.487313	0.000161	1.606619	0.544337	0.013171
 276	1.3750e-01	11.0467	20.550174	0.000153	1.533591	0.519595	0.012572
 277	1.3800e-01	11.0836	20.603200	0.000129	1.293642	0.438298	0.010605
 278	1.3850e-01	11.1077	20.669909	0.000163	1.627484	0.551407	0.013342
 279	1.3900e-01	11.1639	20.729777	0.000146	1.460563	0.494852	0.011974
 280	1.3950e-01	11.2136	20.800762	0.000173	1.731810	0.586753	0.014197
 281	1.4000e-01	11.2649	20.856781	0.000137	1.366670	0.463040	0.011204
 282	1.4050e-01	11.2954	20.912373	0.000136	1.356237	0.459506	0.011118
 283	1.4100e-01	11.3098	20.973523	0.000149	1.491861	0.505456	0.012230
 284	1.4150e-01	11.3708	21.038950	0.000160	1.596187	0.540803	0.013085
 285	1.4200e-01	11.4125	21.094969	0.000137	1.366670	0.463040	0.011204
 286	1.4250e-01	11.4590	21.156119	0.000149	1.491861	0.505456	0.012230
 287	1.4300e-01	11.4927	21.220690	0.000158	1.575322	0.533733	0.012914
 288	1.4350e-01	11.5168	21.279275	0.000143	1.429265	0.484248	0.011717
 289	1.4400e-01	11.5761	21.336577	0.000140	1.397967	0.473644	0.011460
 290	1.4450e-01	11.5938	21.393023	0.000138	1.377102	0.466575	0.011289
 291	1.4500e-01	11.6499	21.464437	0.000174	1.742243	0.590288	0.014283
 292	1.4550e-01	11.6836	21.522166	0.000141	1.408400	0.477179	0.011546
 293	1.4600e-01	11.7285	21.582461	0.000147	1.470996	0.498387	0.012059
 294	1.4650e-01	11.7735	21.644039	0.000150	1.502293	0.508991	0.012316
 295	1.4700e-01	11.8264	21.701769	0.000141	1.408400	0.477179	0.011546
 296	1.4750e-01	11.8489	21.769761	0.000166	1.658782	0.562011	0.013598
 297	1.4800e-01	11.8713	21.832622	0.000153	1.533591	0.519595	0.012572
 298	1.4850e-01	11.9259	21.887786	0.000135	1.345804	0.455971	0.011033
 299	1.4900e-01	11.9531	21.954068	0.000162	1.617052	0.547872	0.013256
 300	1.4950e-01	12.0077	22.010942	0.000139	1.387535	0.470110	0.011375
 301	1.5000e-01	12.0510	22.071665	0.000148	1.481428	0.501921	0.012145
 302	1.5050e-01	12.0799	22.124263	0.000128	1.283209	0.434763	0.010520
 303	1.5100e-01	12.1200	22.188834	0.000158	1.575322	0.533733	0.012914
 304	1.5150e-01	12.1569	22.248702	0.000146	1.460563	0.494852	0.011974
 305	1.5200e-01	12.2018	22.308569	0.000146	1.460563	0.494852	0.011974
 306	1.5250e-01	12.2515	22.375279	0.000163	1.627484	0.551407	0.013342
 307	1.5300e-01	12.2884	22.430015	0.000134	1.335372	0.452436	0.010947
 308	1.5350e-01	12.3398	22.481757	0.000126	1.262344	0.427694	0.010349
 309	1.5400e-01	12.3622	22.545474	0.000155	1.554456	0.526664	0.012743
 310	1.5450e-01	12.3943	22.603203	0.000141	1.408400	0.477179	0.011546
 311	1.5500e-01	12.4585	22.662643	0.000145	1.450130	0.491317	0.011888
 312	1.5550e-01	12.5242	22.715668	0.000129	1.293642	0.438298	0.010605
 313	1.5600e-01	12.5355	22.780667	0.000159	1.585754	0.537268	0.013000
 314	1.5650e-01	12.5483	22.838824	0.000142	1.418833	0.480714	0.011631
 315	1.5700e-01	12.6414	22.893561	0.000134	1.335372	0.452436	0.010947
 316	1.5750e-01	12.6205	22.955139	-0.000150	-1.502293	-0.508991	0.012316
 317	1.5800e-01	12.7023	23.009875	0.000134	1.335372	0.452436	0.010947
 318	1.5850e-01	12.7071	23.073591	0.000155	1.554456	0.526664	0.012743
 319	1.5900e-01	12.7504	23.137735	0.000156	1.564889	0.530199	0.012829
 320	1.5950e-01	12.8258	23.196319	0.000143	1.429265	0.484248	0.011717
 321	1.6000e-01	12.8627	23.244641	0.000118	1.178883	0.399416	0.009664
 322	1.6050e-01	12.9061	23.306219	0.000150	1.502293	0.508991	0.012316
 323	1.6100e-01	12.9157	23.365659	0.000145	1.450130	0.491317	0.011888
 324	1.6150e-01	12.9510	23.437500	0.000175	1.752676	0.593823	0.014368
 325	1.6200e-01	13.0103	23.487104	0.000121	1.210181	0.410020	0.009921
 326	1.6250e-01	13.0408	23.546544	0.000145	1.450130	0.491317	0.011888
 327	1.6300e-01	13.0777	23.601280	0.000134	1.335372	0.452436	0.010947
 328	1.6350e-01	13.1162	23.653878	0.000128	1.283209	0.434763	0.010520
 329	1.6400e-01	13.1756	23.714601	0.000148	1.481428	0.501921	0.012145
 330	1.6450e-01	13.2237	23.762067	0.000116	1.158018	0.392347	0.009493
 331	1.6500e-01	13.2462	23.828349	0.000162	1.617052	0.547872	0.013256
 332	1.6550e-01	13.2943	23.884368	0.000137	1.366670	0.463040	0.011204
 333	1.6600e-01	13.2975	23.940387	0.000137	1.366670	0.463040	0.011204
 334	1.6650e-01	13.3568	24.001110	0.000148	1.481428	0.501921	0.012145
 335	1.6700e-01	13.4066	24.054136	0.000129	1.293642	0.438298	0.010605
 336	1.6750e-01	13.4290	24.117424	0.000154	1.544024	0.523129	0.012658
 337	1.6800e-01	13.4852	24.174298	0.000139	1.387535	0.470110	0.011375
 338	1.6850e-01	13.5477	24.231172	0.000139	1.387535	0.470110	0.011375
 339	1.6900e-01	13.5558	24.287619	0.000138	1.377102	0.466575	0.011289
 340	1.6950e-01	13.6055	24.345776	0.000142	1.418833	0.480714	0.011631
 341	1.7000e-01	13.6199	24.405643	0.000146	1.460563	0.494852	0.011974
 342	1.7050e-01	13.6841	24.457814	0.000127	1.272776	0.431228	0.010434
 343	1.7100e-01	13.7419	24.517681	0.000146	1.460563	0.494852	0.011974
 344	1.7150e-01	13.7499	24.572417	0.000134	1.335372	0.452436	0.010947
 345	1.7200e-01	13.7916	24.626298	0.000131	1.314507	0.445367	0.010776
 346	1.7250e-01	13.8397	24.681889	0.000136	1.356237	0.459506	0.011118
 347	1.7300e-01	13.8862	24.738764	0.000139	1.387535	0.470110	0.011375
 348	1.7350e-01	13.9392	24.793072	0.000132	1.324939	0.448902	0.010862
 349	1.7400e-01	13.9344	24.851229	-0.000142	-1.418833	-0.480714	0.011631
 350	1.7450e-01	13.9841	24.909814	0.000143	1.429265	0.484248	0.011717
 351	1.7500e-01	14.0515	24.963694	0.000131	1.314507	0.445367	0.010776
 352	1.7550e-01	14.0739	25.023562	0.000146	1.460563	0.494852	0.011974
 353	1.7600e-01	14.1333	25.089844	0.000162	1.617052	0.547872	0.013256
 354	1.7650e-01	14.1654	25.127475	0.000092	0.918068	0.311050	0.007526
 355	1.7700e-01	14.2055	25.189481	0.000151	1.512726	0.512525	0.012401
 356	1.7750e-01	14.2680	25.242079	0.000128	1.283209	0.434763	0.010520
 357	1.7800e-01	14.2632	25.310499	-0.000167	-1.669215	-0.565545	0.013684
 358	1.7850e-01	14.3114	25.360103	0.000121	1.210181	0.410020	0.009921
 359	1.7900e-01	14.3386	25.417833	0.000141	1.408400	0.477179	0.011546
 360	1.7950e-01	14.3980	25.474707	0.000139	1.387535	0.470110	0.011375
 361	1.8000e-01	14.4381	25.523028	0.000118	1.178883	0.399416	0.009664
 362	1.8050e-01	14.4766	25.576481	0.000130	1.304074	0.441832	0.010691
 363	1.8100e-01	14.5263	25.636349	0.000146	1.460563	0.494852	0.011974
 364	1.8150e-01	14.5600	25.688092	0.000126	1.262344	0.427694	0.010349
 365	1.8200e-01	14.5648	25.740690	0.000128	1.283209	0.434763	0.010520
 366	1.8250e-01	14.6418	25.795426	0.000134	1.335372	0.452436	0.010947
 367	1.8300e-01	14.6835	25.842892	0.000116	1.158018	0.392347	0.009493
 368	1.8350e-01	14.7381	25.905753	0.000153	1.533591	0.519595	0.012572
 369	1.8400e-01	14.7525	25.965193	0.000145	1.450130	0.491317	0.011888
 370	1.8450e-01	14.8007	26.009238	0.000107	1.074557	0.364070	0.008809
 371	1.8500e-01	14.8552	26.073382	0.000156	1.564889	0.530199	0.012829
 372	1.8550e-01	14.8857	26.125125	0.000126	1.262344	0.427694	0.010349
 373	1.8600e-01	14.9194	26.174729	0.000121	1.210181	0.410020	0.009921
 374	1.8650e-01	14.9595	26.230321	0.000136	1.356237	0.459506	0.011118
 375	1.8700e-01	14.9900	26.292754	0.000152	1.523159	0.516060	0.012487
 376	1.8750e-01	15.0349	26.346207	0.000130	1.304074	0.441832	0.010691
 377	1.8800e-01	15.0782	26.398805	0.000128	1.283209	0.434763	0.010520
 378	1.8850e-01	15.1119	26.454824	0.000137	1.366670	0.463040	0.011204
 379	1.8900e-01	15.1632	26.497586	0.000104	1.043259	0.353466	0.008553
 380	1.8950e-01	15.1969	26.557454	0.000146	1.460563	0.494852	0.011974
 381	1.9000e-01	15.2354	26.613473	0.000137	1.366670	0.463040	0.011204
 382	1.9050e-01	15.2787	26.664788	0.000125	1.251911	0.424159	0.010263
 383	1.9100e-01	15.3124	26.722517	0.000141	1.408400	0.477179	0.011546
 384	1.9150e-01	15.3750	26.770839	0.000118	1.178883	0.399416	0.009664
 385	1.9200e-01	15.3974	26.826003	0.000135	1.345804	0.455971	0.011033
 386	1.9250e-01	15.4552	26.882021	0.000137	1.366670	0.463040	0.011204
 387	1.9300e-01	15.4776	26.938896	0.000139	1.387535	0.470110	0.011375
 388	1.9350e-01	15.5322	26.983369	0.000108	1.084990	0.367604	0.008895
 389	1.9400e-01	15.5643	27.039815	0.000138	1.377102	0.466575	0.011289
 390	1.9450e-01	15.5803	27.099255	0.000145	1.450130	0.491317	0.011888
 391	1.9500e-01	15.6204	27.150570	0.000125	1.251911	0.424159	0.010263
 392	1.9550e-01	15.6878	27.201458	0.000124	1.241479	0.420624	0.010177
 393	1.9600e-01	15.7327	27.248924	0.000116	1.158018	0.392347	0.009493
 394	1.9650e-01	15.7664	27.307936	0.000144	1.439698	0.487783	0.011802
 395	1.9700e-01	15.7712	27.365666	0.000141	1.408400	0.477179	0.011546
 396	1.9750e-01	15.8498	27.415270	0.000121	1.210181	0.410020	0.009921
 397	1.9800e-01	15.8723	27.473855	0.000143	1.429265	0.484248	0.011717
 398	1.9850e-01	15.9236	27.520466	0.000114	1.137153	0.385278	0.009322
 399	1.9900e-01	15.9653	27.570071	0.000121	1.210181	0.410020	0.009921
 400	1.9950e-01	16.0038	27.623524	0.000130	1.304074	0.441832	0.010691
 401	2.0000e-01	16.0327	27.681253	0.000141	1.408400	0.477179	0.011546
 402	2.0050e-01	16.0696	27.738127	0.000139	1.387535	0.470110	0.011375
 403	2.0100e-01	16.1402	27.782600	0.000108	1.084990	0.367604	0.008895
 404	2.0150e-01	16.1723	27.838192	0.000136	1.356237	0.459506	0.011118
 405	2.0200e-01	16.1803	27.894638	0.000138	1.377102	0.466575	0.011289
 406	2.0250e-01	16.2364	27.945098	0.000123	1.231046	0.417090	0.010092
 407	2.0300e-01	16.2733	27.995558	0.000123	1.231046	0.417090	0.010092
 408	2.0350e-01	16.3600	28.048156	0.000128	1.283209	0.434763	0.010520
 409	2.0400e-01	16.3792	28.096050	0.000117	1.168450	0.395882	0.009579
 410	2.0450e-01	16.4129	28.148648	0.000128	1.283209	0.434763	0.010520
 411	2.0500e-01	16.4434	28.205522	0.000139	1.387535	0.470110	0.011375
 412	2.0550e-01	16.4739	28.263679	0.000142	1.418833	0.480714	0.011631
 413	2.0600e-01	16.5108	28.310290	0.000114	1.137153	0.385278	0.009322
 414	2.0650e-01	16.5894	28.361177	0.000124	1.241479	0.420624	0.010177
 415	2.0700e-01	16.6006	28.412492	0.000125	1.251911	0.424159	0.010263
 416	2.0750e-01	16.6215	28.467656	0.000135	1.345804	0.455971	0.011033
 417	2.0800e-01	16.6824	28.518116	0.000123	1.231046	0.417090	0.010092
 418	2.0850e-01	16.7049	28.570714	0.000128	1.283209	0.434763	0.010520
 419	2.0900e-01	16.7803	28.621173	0.000123	1.231046	0.417090	0.010092
 420	2.0950e-01	16.7883	28.677192	0.000137	1.366670	0.463040	0.011204
 421	2.1000e-01	16.8717	28.725942	0.000119	1.189316	0.402951	0.009750
 422	2.1050e-01	16.8813	28.775974	0.000122	1.220613	0.413555	0.010006
 423	2.1100e-01	16.8878	28.826861	0.000124	1.241479	0.420624	0.010177
 424	2.1150e-01	16.9599	28.880742	0.000131	1.314507	0.445367	0.010776
 425	2.1200e-01	17.0017	28.930774	0.000122	1.220613	0.413555	0.010006
 426	2.1250e-01	17.0418	28.985938	0.000135	1.345804	0.455971	0.011033
 427	2.1300e-01	17.0963	29.030411	0.000108	1.084990	0.367604	0.008895
 428	2.1350e-01	17.1300	29.077022	0.000114	1.137153	0.385278	0.009322
 429	2.1400e-01	17.1605	29.134324	0.000140	1.397967	0.473644	0.011460
 430	2.1450e-01	17.2086	29.187777	0.000130	1.304074	0.441832	0.010691
 431	2.1500e-01	17.2359	29.234388	0.000114	1.137153	0.385278	0.009322
 432	2.1550e-01	17.2648	29.291690	0.000140	1.397967	0.473644	0.011460
 433	2.1600e-01	17.3337	29.334880	0.000105	1.053692	0.357000	0.008638
 434	2.1650e-01	17.3819	29.390471	0.000136	1.356237	0.459506	0.011118
 435	2.1700e-01	17.3867	29.438793	0.000118	1.178883	0.399416	0.009664
 436	2.1750e-01	17.4380	29.486259	0.000116	1.158018	0.392347	0.009493
 437	2.1800e-01	17.5006	29.538857	0.000128	1.283209	0.434763	0.010520
 438	2.1850e-01	17.5070	29.587607	0.000119	1.189316	0.402951	0.009750
 439	2.1900e-01	17.5503	29.641487	0.000131	1.314507	0.445367	0.010776
 440	2.1950e-01	17.5968	29.698362	0.000139	1.387535	0.470110	0.011375
 441	2.2000e-01	17.6819	29.735565	0.000091	0.907636	0.307515	0.007441
 442	2.2050e-01	17.6899	29.802702	0.000164	1.637917	0.554941	0.013427
 443	2.2100e-01	17.7316	29.843754	0.000100	1.001529	0.339327	0.008210
 444	2.2150e-01	17.7396	29.895497	0.000126	1.262344	0.427694	0.010349
 445	2.2200e-01	17.7781	29.940397	0.000110	1.095422	0.371139	0.008980
 446	2.2250e-01	17.8278	29.996844	0.000138	1.377102	0.466575	0.011289
 447	2.2300e-01	17.8663	30.049014	0.000127	1.272776	0.431228	0.010434
 448	2.2350e-01	17.9289	30.093487	0.000108	1.084990	0.367604	0.008895
 449	2.2400e-01	17.9690	30.147368	0.000131	1.314507	0.445367	0.010776
 450	2.2450e-01	18.0220	30.196117	0.000119	1.189316	0.402951	0.009750
 451	2.2500e-01	18.0524	30.244867	0.000119	1.189316	0.402951	0.009750
 452	2.2550e-01	18.0957	30.294899	0.000122	1.220613	0.413555	0.010006
 453	2.2600e-01	18.1150	30.344931	0.000122	1.220613	0.413555	0.010006
 454	2.2650e-01	18.1551	30.399239	0.000132	1.324939	0.448902	0.010862
 455	2.2700e-01	18.1760	30.445850	0.000114	1.137153	0.385278	0.009322
 456	2.2750e-01	18.2449	30.496310	0.000123	1.231046	0.417090	0.010092
 457	2.2800e-01	18.3043	30.548053	0.000126	1.262344	0.427694	0.010349
 458	2.2850e-01	18.3380	30.595519	0.000116	1.158018	0.392347	0.009493
 459	2.2900e-01	18.3380	30.642986	-0.000116	-1.158018	-0.392347	0.009493
 460	2.2950e-01	18.4022	30.693873	0.000124	1.241479	0.420624	0.010177
 461	2.3000e-01	18.4278	30.742195	0.000118	1.178883	0.399416	0.009664
 462	2.3050e-01	18.4984	30.793510	0.000125	1.251911	0.424159	0.010263
 463	2.3100e-01	18.5161	30.839693	0.000113	1.126720	0.381743	0.009237
 464	2.3150e-01	18.5401	30.891436	0.000126	1.262344	0.427694	0.010349
 465	2.3200e-01	18.5947	30.941468	0.000122	1.220613	0.413555	0.010006
 466	2.3250e-01	18.6300	30.987652	0.000113	1.126720	0.381743	0.009237
 467	2.3300e-01	18.6636	31.038539	0.000124	1.241479	0.420624	0.010177
 468	2.3350e-01	18.7262	31.080446	0.000102	1.022394	0.346396	0.008381
 469	2.3400e-01	18.7487	31.137321	0.000139	1.387535	0.470110	0.011375
 470	2.3450e-01	18.8096	31.184787	0.000116	1.158018	0.392347	0.009493
 471	2.3500e-01	18.8353	31.232681	0.000117	1.168450	0.395882	0.009579
 472	2.3550e-01	18.8850	31.286562	0.000131	1.314507	0.445367	0.010776
 473	2.3600e-01	18.9139	31.333601	0.000115	1.147585	0.388812	0.009408
 474	2.3650e-01	18.9668	31.382777	0.000120	1.199748	0.406486	0.009835
 475	2.3700e-01	18.9973	31.427678	0.000110	1.095422	0.371139	0.008980
 476	2.3750e-01	19.0567	31.481987	0.000132	1.324939	0.448902	0.010862
 477	2.3800e-01	19.0759	31.529453	0.000116	1.158018	0.392347	0.009493
 478	2.3850e-01	19.1273	31.584617	0.000135	1.345804	0.455971	0.011033
 479	2.3900e-01	19.1642	31.620537	0.000088	0.876338	0.296911	0.007184
 480	2.3950e-01	19.2027	31.676556	0.000137	1.366670	0.463040	0.011204
 481	2.4000e-01	19.2219	31.729154	0.000128	1.283209	0.434763	0.010520
 482	2.4050e-01	19.2925	31.774910	0.000112	1.116287	0.378208	0.009151
 483	2.4100e-01	19.3214	31.818955	0.000107	1.074557	0.364070	0.008809
 484	2.4150e-01	19.3535	31.873691	0.000134	1.335372	0.452436	0.010947
 485	2.4200e-01	19.3759	31.921585	0.000117	1.168450	0.395882	0.009579
 486	2.4250e-01	19.4144	31.966486	0.000110	1.095422	0.371139	0.008980
 487	2.4300e-01	19.4593	32.020367	0.000131	1.314507	0.445367	0.010776
 488	2.4350e-01	19.5075	32.072537	0.000127	1.272776	0.431228	0.010434
 489	2.4400e-01	19.5748	32.108030	0.000087	0.865905	0.293377	0.007099
 490	2.4450e-01	19.6117	32.149510	0.000101	1.011962	0.342862	0.008296
 491	2.4500e-01	19.6502	32.202963	0.000130	1.304074	0.441832	0.010691
 492	2.4550e-01	19.6839	32.244442	0.000101	1.011962	0.342862	0.008296
 493	2.4600e-01	19.7208	32.295330	0.000124	1.241479	0.420624	0.010177
 494	2.4650e-01	19.7545	32.344079	0.000119	1.189316	0.402951	0.009750
 495	2.4700e-01	19.8171	32.395394	0.000125	1.251911	0.424159	0.010263
 496	2.4750e-01	19.8331	32.440295	0.000110	1.095422	0.371139	0.008980
 497	2.4800e-01	19.8877	32.491610	0.000125	1.251911	0.424159	0.010263
 498	2.4850e-01	19.9182	32.531379	0.000097	0.970231	0.328723	0.007954
 499	2.4900e-01	19.9454	32.584832	0.000130	1.304074	0.441832	0.010691
 500	2.4950e-01	19.9903	32.637858	0.000129	1.293642	0.438298	0.010605
 501	2.5000e-01	20.0433	32.686179	0.000118	1.178883	0.399416	0.009664
 502	2.5050e-01	19.9711	32.711409	-0.000062	-0.615523	-0.208545	0.005046
 503	2.5100e-01	19.9406	32.720817	-0.000023	-0.229517	-0.077762	0.001882
 504	2.5150e-01	19.8877	32.696015	0.000061	0.605090	0.205010	-0.004960
 505	2.5200e-01	19.8347	32.670785	0.000062	0.615523	0.208545	-0.005046
 506	2.5250e-01	19.8283	32.637002	0.000082	0.824175	0.279238	-0.006756
 507	2.5300e-01	19.7994	32.598516	0.000094	0.938933	0.318119	-0.007697
 508	2.5350e-01	19.7561	32.567299	0.000076	0.761579	0.258030	-0.006243
 509	2.5400e-01	19.7016	32.524109	0.000105	1.053692	0.357000	-0.008638
 510	2.5450e-01	19.6567	32.481774	0.000103	1.032827	0.349931	-0.008467
 511	2.5500e-01	19.5973	32.443716	0.000093	0.928501	0.314585	-0.007612
 512	2.5550e-01	19.5620	32.403947	0.000097	0.970231	0.328723	-0.007954
 513	2.5600e-01	19.5492	32.366743	0.000091	0.907636	0.307515	-0.007441
 514	2.5650e-01	19.5107	32.320132	0.000114	1.137153	0.385278	-0.009322
 515	2.5700e-01	19.4561	32.275231	0.000110	1.095422	0.371139	-0.008980
 516	2.5750e-01	19.4208	32.234607	0.000099	0.991096	0.335793	-0.008125
 517	2.5800e-01	19.4064	32.188423	0.000113	1.126720	0.381743	-0.009237
 518	2.5850e-01	19.3519	32.154213	0.000083	0.834607	0.282773	-0.006842
 519	2.5900e-01	19.2989	32.111879	0.000103	1.032827	0.349931	-0.008467
 520	2.5950e-01	19.2700	32.067833	0.000107	1.074557	0.364070	-0.008809
 521	2.6000e-01	19.2139	32.027636	0.000098	0.980664	0.332258	-0.008039
 522	2.6050e-01	19.1995	31.979315	0.000118	1.178883	0.399416	-0.009664
 523	2.6100e-01	19.1369	31.935269	0.000107	1.074557	0.364070	-0.008809
 524	2.6150e-01	19.0856	31.899349	0.000088	0.876338	0.296911	-0.007184
 525	2.6200e-01	19.0759	31.847606	0.000126	1.262344	0.427694	-0.010349
 526	2.6250e-01	19.0374	31.808692	0.000095	0.949366	0.321654	-0.007783
 527	2.6300e-01	18.9845	31.765502	0.000105	1.053692	0.357000	-0.008638
 528	2.6350e-01	18.9636	31.717180	0.000118	1.178883	0.399416	-0.009664
 529	2.6400e-01	18.8882	31.676128	0.000100	1.001529	0.339327	-0.008210
 530	2.6450e-01	18.8658	31.629090	0.000115	1.147585	0.388812	-0.009408
 531	2.6500e-01	18.8160	31.588038	0.000100	1.001529	0.339327	-0.008210
 532	2.6550e-01	18.7695	31.544847	0.000105	1.053692	0.357000	-0.008638
 533	2.6600e-01	18.7390	31.497809	0.000115	1.147585	0.388812	-0.009408
 534	2.6650e-01	18.7070	31.453763	0.000107	1.074557	0.364070	-0.008809
 535	2.6700e-01	18.6412	31.418270	0.000087	0.865905	0.293377	-0.007099
 536	2.6750e-01	18.6219	31.377646	0.000099	0.991096	0.335793	-0.008125
 537	2.6800e-01	18.5690	31.331890	0.000112	1.116287	0.378208	-0.009151
 538	2.6850e-01	18.5513	31.284851	0.000115	1.147585	0.388812	-0.009408
 539	2.6900e-01	18.4776	31.240806	0.000107	1.074557	0.364070	-0.008809
 540	2.6950e-01	18.4599	31.198899	0.000102	1.022394	0.346396	-0.008381
 541	2.7000e-01	18.4150	31.150149	0.000119	1.189316	0.402951	-0.009750
 542	2.7050e-01	18.3813	31.095841	0.000132	1.324939	0.448902	-0.010862
 543	2.7100e-01	18.3123	31.067618	0.000069	0.688551	0.233287	-0.005645
 544	2.7150e-01	18.2850	31.012454	0.000135	1.345804	0.455971	-0.011033
 545	2.7200e-01	18.2546	30.966270	0.000113	1.126720	0.381743	-0.009237
 546	2.7250e-01	18.2161	30.919232	0.000115	1.147585	0.388812	-0.009408
 547	2.7300e-01	18.1920	30.876042	0.000105	1.053692	0.357000	-0.008638
 548	2.7350e-01	18.1294	30.838410	0.000092	0.918068	0.311050	-0.007526
 549	2.7400e-01	18.0893	30.793937	0.000108	1.084990	0.367604	-0.008895
 550	2.7450e-01	18.0605	30.743905	0.000122	1.220613	0.413555	-0.010006
 551	2.7500e-01	17.9947	30.701570	0.000103	1.032827	0.349931	-0.008467
 552	2.7550e-01	17.9642	30.654959	0.000114	1.137153	0.385278	-0.009322
 553	2.7600e-01	17.9321	30.608776	0.000113	1.126720	0.381743	-0.009237
 554	2.7650e-01	17.8968	30.564303	0.000108	1.084990	0.367604	-0.008895
 555	2.7700e-01	17.8567	30.516836	0.000116	1.158018	0.392347	-0.009493
 556	2.7750e-01	17.8439	30.467232	0.000121	1.210181	0.410020	-0.009921
 557	2.7800e-01	17.7925	30.429173	0.000093	0.928501	0.314585	-0.007612
 558	2.7850e-01	17.7139	30.377003	0.000127	1.272776	0.431228	-0.010434
 559	2.7900e-01	17.6706	30.331675	0.000111	1.105855	0.374674	-0.009066
 560	2.7950e-01	17.6466	30.287202	0.000108	1.084990	0.367604	-0.008895
 561	2.8000e-01	17.6225	30.235886	0.000125	1.251911	0.424159	-0.010263
 562	2.8050e-01	17.5631	30.193124	0.000104	1.043259	0.353466	-0.008553
 563	2.8100e-01	17.5166	30.148651	0.000108	1.084990	0.367604	-0.008895
 564	2.8150e-01	17.4861	30.098191	0.000123	1.231046	0.417090	-0.010092
 565	2.8200e-01	17.4653	30.055001	0.000105	1.053692	0.357000	-0.008638
 566	2.8250e-01	17.4220	30.008390	0.000114	1.137153	0.385278	-0.009322
 567	2.8300e-01	17.4043	29.960496	0.000117	1.168450	0.395882	-0.009579
 568	2.8350e-01	17.3289	29.921582	0.000095	0.949366	0.321654	-0.007783
 569	2.8400e-01	17.2968	29.873260	0.000118	1.178883	0.399416	-0.009664
 570	2.8450e-01	17.2423	29.826649	0.000114	1.137153	0.385278	-0.009322
 571	2.8500e-01	17.2198	29.777045	0.000121	1.210181	0.410020	-0.009921
 572	2.8550e-01	17.1557	29.733854	0.000105	1.053692	0.357000	-0.008638
 573	2.8600e-01	17.1284	29.683395	0.000123	1.231046	0.417090	-0.010092
 574	2.8650e-01	17.0690	29.642343	0.000100	1.001529	0.339327	-0.008210
 575	2.8700e-01	17.0706	29.586751	-0.000136	-1.356237	-0.459506	-0.011118
 576	2.8750e-01	17.0113	29.559811	0.000066	0.657253	0.222683	-0.005388
 577	2.8800e-01	16.9920	29.499516	0.000147	1.470996	0.498387	-0.012059
 578	2.8850e-01	16.9343	29.455898	0.000106	1.064124	0.360535	-0.008724
 579	2.8900e-01	16.9263	29.400734	0.000135	1.345804	0.455971	-0.011033
 580	2.8950e-01	16.8541	29.354978	0.000112	1.116287	0.378208	-0.009151
 581	2.9000e-01	16.8220	29.298104	0.000139	1.387535	0.470110	-0.011375
 582	2.9050e-01	16.7883	29.257907	0.000098	0.980664	0.332258	-0.008039
 583	2.9100e-01	16.7386	29.202744	0.000135	1.345804	0.455971	-0.011033
 584	2.9150e-01	16.6840	29.158698	0.000107	1.074557	0.364070	-0.008809
 585	2.9200e-01	16.6664	29.117219	0.000101	1.011962	0.342862	-0.008296
 586	2.9250e-01	16.6247	29.063338	0.000131	1.314507	0.445367	-0.010776
 587	2.9300e-01	16.5637	29.016727	0.000114	1.137153	0.385278	-0.009322
 588	2.9350e-01	16.5284	28.974820	0.000102	1.022394	0.346396	-0.008381
 589	2.9400e-01	16.4963	28.923505	0.000125	1.251911	0.424159	-0.010263
 590	2.9450e-01	16.4658	28.876466	0.000115	1.147585	0.388812	-0.009408
 591	2.9500e-01	16.4001	28.829427	0.000115	1.147585	0.388812	-0.009408
 592	2.9550e-01	16.3680	28.781533	0.000117	1.168450	0.395882	-0.009579
 593	2.9600e-01	16.3231	28.728935	0.000128	1.283209	0.434763	-0.010520
 594	2.9650e-01	16.2782	28.679758	0.000120	1.199748	0.406486	-0.009835
 595	2.9700e-01	16.2525	28.633575	0.000113	1.126720	0.381743	-0.009237
 596	2.9750e-01	16.2172	28.588246	0.000111	1.105855	0.374674	-0.009066
 597	2.9800e-01	16.1803	28.534366	0.000131	1.314507	0.445367	-0.010776
 598	2.9850e-01	16.1418	28.489465	0.000110	1.095422	0.371139	-0.008980
 599	2.9900e-01	16.0985	28.439005	0.000123	1.231046	0.417090	-0.010092
 600	2.9950e-01	16.0536	28.388545	0.000123	1.231046	0.417090	-0.010092
 601	3.0000e-01	16.0054	28.345355	0.000105	1.053692	0.357000	-0.008638
 602	3.0050e-01	15.9894	28.296178	0.000120	1.199748	0.406486	-0.009835
 603	3.0100e-01	15.9429	28.243153	0.000129	1.293642	0.438298	-0.010605
 604	3.0150e-01	15.8915	28.196114	0.000115	1.147585	0.388812	-0.009408
 605	3.0200e-01	15.8755	28.144371	0.000126	1.262344	0.427694	-0.010349
 606	3.0250e-01	15.7744	28.099043	0.000111	1.105855	0.374674	-0.009066
 607	3.0300e-01	15.7728	28.048583	0.000123	1.231046	0.417090	-0.010092
 608	3.0350e-01	15.7375	28.002400	0.000113	1.126720	0.381743	-0.009237
 609	3.0400e-01	15.6926	27.954933	0.000116	1.158018	0.392347	-0.009493
 610	3.0450e-01	15.6621	27.900197	0.000134	1.335372	0.452436	-0.010947
 611	3.0500e-01	15.6300	27.848882	0.000125	1.251911	0.424159	-0.010263
 612	3.0550e-01	15.5546	27.805692	0.000105	1.053692	0.357000	-0.008638
 613	3.0600e-01	15.5242	27.757370	0.000118	1.178883	0.399416	-0.009664
 614	3.0650e-01	15.4905	27.702207	0.000135	1.345804	0.455971	-0.011033
 615	3.0700e-01	15.4456	27.651747	0.000123	1.231046	0.417090	-0.010092
 616	3.0750e-01	15.4103	27.608129	0.000106	1.064124	0.360535	-0.008724
 617	3.0800e-01	15.3862	27.557242	0.000124	1.241479	0.420624	-0.010177
 618	3.0850e-01	15.3637	27.506782	0.000123	1.231046	0.417090	-0.010092
 619	3.0900e-01	15.2643	27.454612	0.000127	1.272776	0.431228	-0.010434
 620	3.0950e-01	15.2530	27.414843	0.000097	0.970231	0.328723	-0.007954
 621	3.1000e-01	15.2113	27.366949	0.000117	1.168450	0.395882	-0.009579
 622	3.1050e-01	15.1728	27.298101	0.000168	1.679647	0.569080	-0.013770
 623	3.1100e-01	15.1343	27.257476	0.000099	0.991096	0.335793	-0.008125
 624	3.1150e-01	15.0750	27.216852	0.000099	0.991096	0.335793	-0.008125
 625	3.1200e-01	15.0477	27.160406	0.000138	1.377102	0.466575	-0.011289
 626	3.1250e-01	15.0140	27.114222	0.000113	1.126720	0.381743	-0.009237
 627	3.1300e-01	14.9739	27.054354	0.000146	1.460563	0.494852	-0.011974
 628	3.1350e-01	14.8985	27.003467	0.000124	1.241479	0.420624	-0.010177
 629	3.1400e-01	14.8793	26.963270	0.000098	0.980664	0.332258	-0.008039
 630	3.1450e-01	14.8664	26.902547	0.000148	1.481428	0.501921	-0.012145
 631	3.1500e-01	14.8135	26.851660	0.000124	1.241479	0.420624	-0.010177
 632	3.1550e-01	14.7654	26.807615	0.000107	1.074557	0.364070	-0.008809
 633	3.1600e-01	14.7589	26.751168	0.000138	1.377102	0.466575	-0.011289
 634	3.1650e-01	14.6787	26.701136	0.000122	1.220613	0.413555	-0.010006
 635	3.1700e-01	14.6627	26.642551	0.000143	1.429265	0.484248	-0.011717
 636	3.1750e-01	14.5969	26.599789	0.000104	1.043259	0.353466	-0.008553
 637	3.1800e-01	14.5809	26.549329	0.000123	1.231046	0.417090	-0.010092
 638	3.1850e-01	14.5424	26.493738	0.000136	1.356237	0.459506	-0.011118
 639	3.1900e-01	14.5023	26.444133	0.000121	1.210181	0.410020	-0.009921
 640	3.1950e-01	14.4445	26.399660	0.000108	1.084990	0.367604	-0.008895
 641	3.2000e-01	14.3884	26.342786	0.000139	1.387535	0.470110	-0.011375
 642	3.2050e-01	14.3787	26.291899	0.000124	1.241479	0.420624	-0.010177
 643	3.2100e-01	14.3370	26.244860	0.000115	1.147585	0.388812	-0.009408
 644	3.2150e-01	14.3210	26.190551	0.000132	1.324939	0.448902	-0.010862
 645	3.2200e-01	14.2793	26.137953	0.000128	1.283209	0.434763	-0.010520
 646	3.2250e-01	14.2215	26.081079	0.000139	1.387535	0.470110	-0.011375
 647	3.2300e-01	14.1734	26.033185	0.000117	1.168450	0.395882	-0.009579
 648	3.2350e-01	14.1397	25.978877	0.000132	1.324939	0.448902	-0.010862
 649	3.2400e-01	14.0916	25.932693	0.000113	1.126720	0.381743	-0.009237
 650	3.2450e-01	14.0643	25.877957	0.000134	1.335372	0.452436	-0.010947
 651	3.2500e-01	14.0659	25.824932	-0.000129	-1.293642	-0.438298	-0.010605
 652	3.2550e-01	13.9841	25.779176	0.000112	1.116287	0.378208	-0.009151
 653	3.2600e-01	13.9408	25.730427	0.000119	1.189316	0.402951	-0.009750
 654	3.2650e-01	13.8991	25.669704	0.000148	1.481428	0.501921	-0.012145
 655	3.2700e-01	13.8509	25.622237	0.000116	1.158018	0.392347	-0.009493
 656	3.2750e-01	13.8124	25.567501	0.000134	1.335372	0.452436	-0.010947
 657	3.2800e-01	13.7820	25.515331	0.000127	1.272776	0.431228	-0.010434
 658	3.2850e-01	13.7210	25.455036	0.000147	1.470996	0.498387	-0.012059
 659	3.2900e-01	13.6873	25.413129	0.000102	1.022394	0.346396	-0.008381
 660	3.2950e-01	13.6488	25.348557	0.000158	1.575322	0.533733	-0.012914
 661	3.3000e-01	13.6039	25.298525	0.000122	1.220613	0.413555	-0.010006
 662	3.3050e-01	13.5782	25.254480	0.000107	1.074557	0.364070	-0.008809
 663	3.3100e-01	13.5429	25.195895	0.000143	1.429265	0.484248	-0.011717
 664	3.3150e-01	13.4948	25.129613	0.000162	1.617052	0.547872	-0.013256
 665	3.3200e-01	13.4499	25.093693	0.000088	0.876338	0.296911	-0.007184
 666	3.3250e-01	13.4050	25.044088	0.000121	1.210181	0.410020	-0.009921
 667	3.3300e-01	13.3568	24.996194	0.000117	1.168450	0.395882	-0.009579
 668	3.3350e-01	13.3504	24.928629	0.000165	1.648350	0.558476	-0.013513
 669	3.3400e-01	13.3344	24.875176	0.000130	1.304074	0.441832	-0.010691
 670	3.3450e-01	13.2526	24.822151	0.000129	1.293642	0.438298	-0.010605
 671	3.3500e-01	13.2060	24.774256	0.000117	1.168450	0.395882	-0.009579
 672	3.3550e-01	13.1579	24.722086	0.000127	1.272776	0.431228	-0.010434
 673	3.3600e-01	13.1355	24.663502	0.000143	1.429265	0.484248	-0.011717
 674	3.3650e-01	13.1034	24.610048	0.000130	1.304074	0.441832	-0.010691
 675	3.3700e-01	13.0633	24.558306	0.000126	1.262344	0.427694	-0.010349
 676	3.3750e-01	13.0200	24.506563	0.000126	1.262344	0.427694	-0.010349
 677	3.3800e-01	12.9991	24.448406	0.000142	1.418833	0.480714	-0.011631
 678	3.3850e-01	12.9622	24.391532	0.000139	1.387535	0.470110	-0.011375
 679	3.3900e-01	12.9237	24.337651	0.000131	1.314507	0.445367	-0.010776
 680	3.3950e-01	12.8355	24.296171	0.000101	1.011962	0.342862	-0.008296
 681	3.4000e-01	12.8210	24.233738	0.000152	1.523159	0.516060	-0.012487
 682	3.4050e-01	12.7857	24.181995	0.000126	1.262344	0.427694	-0.010349
 683	3.4100e-01	12.7601	24.132391	0.000121	1.210181	0.410020	-0.009921
 684	3.4150e-01	12.6815	24.083214	0.000120	1.199748	0.406486	-0.009835
 685	3.4200e-01	12.6911	24.022064	-0.000149	-1.491861	-0.505456	-0.012230
 686	3.4250e-01	12.6157	23.965189	0.000139	1.387535	0.470110	-0.011375
 687	3.4300e-01	12.6029	23.908315	0.000139	1.387535	0.470110	-0.011375
 688	3.4350e-01	12.5451	23.865125	0.000105	1.053692	0.357000	-0.008638
 689	3.4400e-01	12.4857	23.809534	0.000136	1.356237	0.459506	-0.011118
 690	3.4450e-01	12.4553	23.755653	0.000131	1.314507	0.445367	-0.010776
 691	3.4500e-01	12.4039	23.700489	0.000135	1.345804	0.455971	-0.011033
 692	3.4550e-01	12.3847	23.639767	0.000148	1.481428	0.501921	-0.012145
 693	3.4600e-01	12.3398	23.590162	0.000121	1.210181	0.410020	-0.009921
 694	3.4650e-01	12.2756	23.537564	0.000128	1.283209	0.434763	-0.010520
 695	3.4700e-01	12.2547	23.477269	0.000147	1.470996	0.498387	-0.012059
 696	3.4750e-01	12.2082	23.422533	0.000134	1.335372	0.452436	-0.010947
 697	3.4800e-01	12.1793	23.368225	0.000132	1.324939	0.448902	-0.010862
 698	3.4850e-01	12.1264	23.311350	0.000139	1.387535	0.470110	-0.011375
 699	3.4900e-01	12.0863	23.250628	0.000148	1.481428	0.501921	-0.012145
 700	3.4950e-01	12.0590	23.201878	0.000119	1.189316	0.402951	-0.009750
 701	3.5000e-01	12.0109	23.145432	0.000138	1.377102	0.466575	-0.011289
 702	3.5050e-01	11.9820	23.086420	0.000144	1.439698	0.487783	-0.011802
 703	3.5100e-01	11.9596	23.033394	0.000129	1.293642	0.438298	-0.010605
 704	3.5150e-01	11.8890	22.975237	0.000142	1.418833	0.480714	-0.011631
 705	3.5200e-01	11.8360	22.916652	0.000143	1.429265	0.484248	-0.011717
 706	3.5250e-01	11.8184	22.867475	0.000120	1.199748	0.406486	-0.009835
 707	3.5300e-01	11.8120	22.803759	0.000155	1.554456	0.526664	-0.012743
 708	3.5350e-01	11.7334	22.755438	0.000118	1.178883	0.399416	-0.009664
 709	3.5400e-01	11.6708	22.696425	0.000144	1.439698	0.487783	-0.011802
 710	3.5450e-01	11.6403	22.657084	0.000096	0.959799	0.325189	-0.007868
 711	3.5500e-01	11.6098	22.580111	0.000188	1.877867	0.636238	-0.015395
 712	3.5550e-01	11.5842	22.521099	0.000144	1.439698	0.487783	-0.011802
 713	3.5600e-01	11.5088	22.472350	0.000119	1.189316	0.402951	-0.009750
 714	3.5650e-01	11.5040	22.413765	0.000143	1.429265	0.484248	-0.011717
 715	3.5700e-01	11.4398	22.357318	0.000138	1.377102	0.466575	-0.011289
 716	3.5750e-01	11.4334	22.297451	0.000146	1.460563	0.494852	-0.011974
 717	3.5800e-01	11.3884	22.244425	0.000129	1.293642	0.438298	-0.010605
 718	3.5850e-01	11.3147	22.186268	0.000142	1.418833	0.480714	-0.011631
 719	3.5900e-01	11.3211	22.122552	-0.000155	-1.554456	-0.526664	-0.012743
 720	3.5950e-01	11.2842	22.068244	0.000132	1.324939	0.448902	-0.010862
 721	3.6000e-01	11.2088	22.016501	0.000126	1.262344	0.427694	-0.010349
 722	3.6050e-01	11.1975	21.951930	0.000158	1.575322	0.533733	-0.012914
 723	3.6100e-01	11.1430	21.893345	0.000143	1.429265	0.484248	-0.011717
 724	3.6150e-01	11.0644	21.839892	0.000130	1.304074	0.441832	-0.010691
 725	3.6200e-01	11.0692	21.785583	-0.000132	-1.324939	-0.448902	-0.010862
 726	3.6250e-01	10.9922	21.723578	0.000151	1.512726	0.512525	-0.012401
 727	3.6300e-01	10.9665	21.673973	0.000121	1.210181	0.410020	-0.009921
 728	3.6350e-01	10.9409	21.615389	0.000143	1.429265	0.484248	-0.011717
 729	3.6400e-01	10.8959	21.555093	0.000147	1.470996	0.498387	-0.012059
 730	3.6450e-01	10.8607	21.493515	0.000150	1.502293	0.508991	-0.012316
 731	3.6500e-01	10.8093	21.431937	0.000150	1.502293	0.508991	-0.012316
 732	3.6550e-01	10.7756	21.384043	0.000117	1.168450	0.395882	-0.009579
 733	3.6600e-01	10.7307	21.325459	0.000143	1.429265	0.484248	-0.011717
 734	3.6650e-01	10.7083	21.264308	0.000149	1.491861	0.505456	-0.012230
 735	3.6700e-01	10.6473	21.206151	0.000142	1.418833	0.480714	-0.011631
 736	3.6750e-01	10.5992	21.146711	0.000145	1.450130	0.491317	-0.011888
 737	3.6800e-01	10.5767	21.088127	0.000143	1.429265	0.484248	-0.011717
 738	3.6850e-01	10.5366	21.032108	0.000137	1.366670	0.463040	-0.011204
 739	3.6900e-01	10.4917	20.971813	0.000147	1.470996	0.498387	-0.012059
 740	3.6950e-01	10.4532	20.909379	0.000152	1.523159	0.516060	-0.012487
 741	3.7000e-01	10.4211	20.853360	0.000137	1.366670	0.463040	-0.011204
 742	3.7050e-01	10.3714	20.795631	0.000141	1.408400	0.477179	-0.011546
 743	3.7100e-01	10.3168	20.737046	0.000143	1.429265	0.484248	-0.011717
 744	3.7150e-01	10.2912	20.677179	0.000146	1.460563	0.494852	-0.011974
 745	3.7200e-01	10.2334	20.616884	0.000147	1.470996	0.498387	-0.012059
 746	3.7250e-01	10.2142	20.560009	0.000139	1.387535	0.470110	-0.011375
 747	3.7300e-01	10.1853	20.500997	0.000144	1.439698	0.487783	-0.011802
 748	3.7350e-01	10.1404	20.441130	0.000146	1.460563	0.494852	-0.011974
 749	3.7400e-01	10.1259	20.379552	0.000150	1.502293	0.508991	-0.012316
 750	3.7450e-01	10.0762	20.317118	0.000152	1.523159	0.516060	-0.012487
 751	3.7500e-01	10.0088	20.264093	0.000129	1.293642	0.438298	-0.010605
 752	3.7550e-01	9.9799	20.207646	0.000138	1.377102	0.466575	-0.011289
 753	3.7600e-01	9.9639	20.142647	0.000159	1.585754	0.537268	-0.013000
 754	3.7650e-01	9.8981	20.088339	0.000132	1.324939	0.448902	-0.010862
 755	3.7700e-01	9.8724	20.022484	0.000161	1.606619	0.544337	-0.013171
 756	3.7750e-01	9.7987	19.964755	0.000141	1.408400	0.477179	-0.011546
 757	3.7800e-01	9.7874	19.905315	0.000145	1.450130	0.491317	-0.011888
 758	3.7850e-01	9.7393	19.844592	0.000148	1.481428	0.501921	-0.012145
 759	3.7900e-01	9.7217	19.783014	0.000150	1.502293	0.508991	-0.012316
 760	3.7950e-01	9.6864	19.720153	0.000153	1.533591	0.519595	-0.012572
 761	3.8000e-01	9.6126	19.661569	0.000143	1.429265	0.484248	-0.011717
 762	3.8050e-01	9.5612	19.608116	0.000130	1.304074	0.441832	-0.010691
 763	3.8100e-01	9.5548	19.542689	0.000160	1.596187	0.540803	-0.013085
 764	3.8150e-01	9.5035	19.481966	0.000148	1.481428	0.501921	-0.012145
 765	3.8200e-01	9.4233	19.423381	0.000143	1.429265	0.484248	-0.011717
 766	3.8250e-01	9.4345	19.359665	-0.000155	-1.554456	-0.526664	-0.012743
 767	3.8300e-01	9.3575	19.296804	0.000153	1.533591	0.519595	-0.012572
 768	3.8350e-01	9.3623	19.234799	-0.000151	-1.512726	-0.512525	-0.012401
 769	3.8400e-01	9.2997	19.171083	0.000155	1.554456	0.526664	-0.012743
 770	3.8450e-01	9.2436	19.110360	0.000148	1.481428	0.501921	-0.012145
 771	3.8500e-01	9.2083	19.047499	0.000153	1.533591	0.519595	-0.012572
 772	3.8550e-01	9.2163	18.988487	-0.000144	-1.439698	-0.487783	-0.011802
 773	3.8600e-01	9.1361	18.928619	0.000146	1.460563	0.494852	-0.011974
 774	3.8650e-01	9.1072	18.861482	0.000164	1.637917	0.554941	-0.013427
 775	3.8700e-01	9.0751	18.804608	0.000139	1.387535	0.470110	-0.011375
 776	3.8750e-01	9.0222	18.744312	0.000147	1.470996	0.498387	-0.012059
 777	3.8800e-01	8.9917	18.678031	0.000162	1.617052	0.547872	-0.013256
 778	3.8850e-01	8.9324	18.622867	0.000135	1.345804	0.455971	-0.011033
 779	3.8900e-01	8.9163	18.557440	0.000160	1.596187	0.540803	-0.013085
 780	3.8950e-01	8.8313	18.496290	0.000149	1.491861	0.505456	-0.012230
 781	3.9000e-01	8.7848	18.436422	0.000146	1.460563	0.494852	-0.011974
 782	3.9050e-01	8.7896	18.373561	-0.000153	-1.533591	-0.519595	-0.012572
 783	3.9100e-01	8.7350	18.308135	0.000160	1.596187	0.540803	-0.013085
 784	3.9150e-01	8.7302	18.240998	0.000164	1.637917	0.554941	-0.013427
 785	3.9200e-01	8.6276	18.193531	0.000116	1.158018	0.392347	-0.009493
 786	3.9250e-01	8.6099	18.125111	0.000167	1.669215	0.565545	-0.013684
 787	3.9300e-01	8.5714	18.050277	0.000183	1.825704	0.618565	-0.014967
 788	3.9350e-01	8.5522	17.995968	0.000132	1.324939	0.448902	-0.010862
 789	3.9400e-01	8.4880	17.935245	0.000148	1.481428	0.501921	-0.012145
 790	3.9450e-01	8.4703	17.868108	0.000164	1.637917	0.554941	-0.013427
 791	3.9500e-01	8.4126	17.805247	0.000153	1.533591	0.519595	-0.012572
 792	3.9550e-01	8.3853	17.743669	0.000150	1.502293	0.508991	-0.012316
 793	3.9600e-01	8.3404	17.682091	0.000150	1.502293	0.508991	-0.012316
 794	3.9650e-01	8.2827	17.622651	0.000145	1.450130	0.491317	-0.011888
 795	3.9700e-01	8.2955	17.552521	-0.000171	-1.710945	-0.579684	-0.014026
 796	3.9750e-01	8.2089	17.488805	0.000155	1.554456	0.526664	-0.012743
 797	3.9800e-01	8.1832	17.422523	0.000162	1.617052	0.547872	-0.013256
 798	3.9850e-01	8.1575	17.353247	0.000169	1.690080	0.572615	-0.013855
 799	3.9900e-01	8.0901	17.288676	0.000158	1.575322	0.533733	-0.012914
 800	3.9950e-01	8.0613	17.227098	0.000150	1.502293	0.508991	-0.012316
 801	4.0000e-01	8.0067	17.166803	0.000147	1.470996	0.498387	-0.012059
 802	4.0050e-01	7.9875	17.099666	0.000164	1.637917	0.554941	-0.013427
 803	4.0100e-01	7.9169	17.047068	0.000128	1.283209	0.434763	-0.010520
 804	4.0150e-01	7.9185	16.975654	-0.000174	-1.742243	-0.590288	-0.014283
 805	4.0200e-01	7.8623	16.912366	0.000154	1.544024	0.523129	-0.012658
 806	4.0250e-01	7.8206	16.849505	0.000153	1.533591	0.519595	-0.012572
 807	4.0300e-01	7.7645	16.785361	0.000156	1.564889	0.530199	-0.012829
 808	4.0350e-01	7.7324	16.719079	0.000162	1.617052	0.547872	-0.013256
 809	4.0400e-01	7.7180	16.644245	0.000183	1.825704	0.618565	-0.014967
 810	4.0450e-01	7.6378	16.586515	0.000141	1.408400	0.477179	-0.011546
 811	4.0500e-01	7.5864	16.523654	0.000153	1.533591	0.519595	-0.012572
 812	4.0550e-01	7.5912	16.457800	-0.000161	-1.606619	-0.544337	-0.013171
 813	4.0600e-01	7.5206	16.391091	0.000163	1.627484	0.551407	-0.013342
 814	4.0650e-01	7.5030	16.322243	0.000168	1.679647	0.569080	-0.013770
 815	4.0700e-01	7.4613	16.260237	0.000151	1.512726	0.512525	-0.012401
 816	4.0750e-01	7.4420	16.199514	0.000148	1.481428	0.501921	-0.012145
 817	4.0800e-01	7.3666	16.132377	0.000164	1.637917	0.554941	-0.013427
 818	4.0850e-01	7.3474	16.059681	0.000177	1.773541	0.600892	-0.014539
 819	4.0900e-01	7.2640	15.997248	0.000152	1.523159	0.516060	-0.012487
 820	4.0950e-01	7.2495	15.935670	0.000150	1.502293	0.508991	-0.012316
 821	4.1000e-01	7.2255	15.870243	0.000160	1.596187	0.540803	-0.013085
 822	4.1050e-01	7.2030	15.802678	0.000165	1.648350	0.558476	-0.013513
 823	4.1100e-01	7.1436	15.731265	0.000174	1.742243	0.590288	-0.014283
 824	4.1150e-01	7.1116	15.668832	0.000152	1.523159	0.516060	-0.012487
 825	4.1200e-01	7.0634	15.600839	0.000166	1.658782	0.562011	-0.013598
 826	4.1250e-01	7.0121	15.534985	0.000161	1.606619	0.544337	-0.013171
 827	4.1300e-01	6.9945	15.468703	0.000162	1.617052	0.547872	-0.013256
 828	4.1350e-01	6.9223	15.401993	0.000163	1.627484	0.551407	-0.013342
 829	4.1400e-01	6.8918	15.331008	0.000173	1.731810	0.586753	-0.014197
 830	4.1450e-01	6.8404	15.258739	0.000176	1.763108	0.597357	-0.014454
 831	4.1500e-01	6.8084	15.194167	0.000158	1.575322	0.533733	-0.012914
 832	4.1550e-01	6.7859	15.131734	0.000152	1.523159	0.516060	-0.012487
 833	4.1600e-01	6.7442	15.067590	0.000156	1.564889	0.530199	-0.012829
 834	4.1650e-01	6.7105	14.997460	0.000171	1.710945	0.579684	-0.014026
 835	4.1700e-01	6.6608	14.932033	0.000160	1.596187	0.540803	-0.013085
 836	4.1750e-01	6.6223	14.862330	0.000170	1.700513	0.576149	-0.013941
 837	4.1800e-01	6.5725	14.799897	0.000152	1.523159	0.516060	-0.012487
 838	4.1850e-01	6.5533	14.729339	0.000172	1.721378	0.583219	-0.014112
 839	4.1900e-01	6.5004	14.661346	0.000166	1.658782	0.562011	-0.013598
 840	4.1950e-01	6.4859	14.564275	0.000237	2.368199	0.802367	-0.019414
 841	4.2000e-01	6.3881	14.526217	0.000093	0.928501	0.314585	-0.007612
 842	4.2050e-01	6.3881	14.456514	0.000170	1.700513	0.576149	-0.013941
 843	4.2100e-01	6.3576	14.390232	0.000162	1.617052	0.547872	-0.013256
 844	4.2150e-01	6.3078	14.311121	0.000193	1.930030	0.653912	-0.015822
 845	4.2200e-01	6.2501	14.254675	0.000138	1.377102	0.466575	-0.011289
 846	4.2250e-01	6.2324	14.181123	0.000179	1.794406	0.607961	-0.014710
 847	4.2300e-01	6.1570	14.116979	0.000156	1.564889	0.530199	-0.012829
 848	4.2350e-01	6.1603	14.044283	-0.000177	-1.773541	-0.600892	-0.014539
 849	4.2400e-01	6.0800	13.971159	0.000178	1.783973	0.604427	-0.014625
 850	4.2450e-01	6.0431	13.907015	0.000156	1.564889	0.530199	-0.012829
 851	4.2500e-01	6.0127	13.836457	0.000172	1.721378	0.583219	-0.014112
 852	4.2550e-01	5.9822	13.767610	0.000168	1.679647	0.569080	-0.013770
 853	4.2600e-01	5.9228	13.705604	0.000151	1.512726	0.512525	-0.012401
 854	4.2650e-01	5.8907	13.640177	0.000160	1.596187	0.540803	-0.013085
 855	4.2700e-01	5.8506	13.565343	0.000183	1.825704	0.618565	-0.014967
 856	4.2750e-01	5.8137	13.486232	0.000193	1.930030	0.653912	-0.015822
 857	4.2800e-01	5.7849	13.414391	0.000175	1.752676	0.593823	-0.014368
 858	4.2850e-01	5.7432	13.345543	0.000168	1.679647	0.569080	-0.013770
 859	4.2900e-01	5.6982	13.279261	0.000162	1.617052	0.547872	-0.013256
 860	4.2950e-01	5.6597	13.209986	0.000169	1.690080	0.572615	-0.013855
 861	4.3000e-01	5.6228	13.136007	0.000180	1.804839	0.611496	-0.014796
 862	4.3050e-01	5.5859	13.063311	0.000177	1.773541	0.600892	-0.014539
 863	4.3100e-01	5.5105	12.987193	0.000186	1.857002	0.629169	-0.015223
 864	4.3150e-01	5.4785	12.921339	0.000161	1.606619	0.544337	-0.013171
 865	4.3200e-01	5.4383	12.847788	0.000179	1.794406	0.607961	-0.014710
 866	4.3250e-01	5.4111	12.787065	0.000148	1.481428	0.501921	-0.012145
 867	4.3300e-01	5.3854	12.706671	0.000196	1.961327	0.664516	-0.016079
 868	4.3350e-01	5.3389	12.636968	0.000170	1.700513	0.576149	-0.013941
 869	4.3400e-01	5.3116	12.566838	0.000171	1.710945	0.579684	-0.014026
 870	4.3450e-01	5.2795	12.493286	0.000179	1.794406	0.607961	-0.014710
 871	4.3500e-01	5.2170	12.426149	0.000164	1.637917	0.554941	-0.013427
 872	4.3550e-01	5.1881	12.354308	0.000175	1.752676	0.593823	-0.014368
 873	4.3600e-01	5.1287	12.275197	0.000193	1.930030	0.653912	-0.015822
 874	4.3650e-01	5.0950	12.208060	0.000164	1.637917	0.554941	-0.013427
 875	4.3700e-01	5.0565	12.135791	0.000176	1.763108	0.597357	-0.014454
 876	4.3750e-01	5.0100	12.066944	0.000168	1.679647	0.569080	-0.013770
 877	4.3800e-01	4.9731	11.986550	0.000196	1.961327	0.664516	-0.016079
 878	4.3850e-01	4.9523	11.919841	0.000163	1.627484	0.551407	-0.013342
 879	4.3900e-01	4.8961	11.839875	0.000195	1.950895	0.660981	-0.015993
 880	4.3950e-01	4.8544	11.768889	0.000173	1.731810	0.586753	-0.014197
 881	4.4000e-01	4.8063	11.693627	0.000184	1.836136	0.622100	-0.015052
 882	4.4050e-01	4.7501	11.623496	0.000171	1.710945	0.579684	-0.014026
 883	4.4100e-01	4.7164	11.556787	0.000163	1.627484	0.551407	-0.013342
 884	4.4150e-01	4.6812	11.484946	0.000175	1.752676	0.593823	-0.014368
 885	4.4200e-01	4.6571	11.397710	0.000213	2.128249	0.721070	-0.017447
 886	4.4250e-01	4.6250	11.328435	0.000169	1.690080	0.572615	-0.013855
 887	4.4300e-01	4.5801	11.244193	0.000206	2.055221	0.696328	-0.016848
 888	4.4350e-01	4.5432	11.169786	0.000182	1.815271	0.615031	-0.014881
 889	4.4400e-01	4.4838	11.102649	0.000164	1.637917	0.554941	-0.013427
 890	4.4450e-01	4.4806	11.016696	0.000210	2.096951	0.710466	-0.017191
 891	4.4500e-01	4.4197	10.946138	0.000172	1.721378	0.583219	-0.014112
 892	4.4550e-01	4.3475	10.872586	0.000179	1.794406	0.607961	-0.014710
 893	4.4600e-01	4.3138	10.812719	0.000146	1.460563	0.494852	-0.011974
 894	4.4650e-01	4.2897	10.727194	0.000209	2.086519	0.706932	-0.017105
 895	4.4700e-01	4.2897	10.652787	0.000182	1.815271	0.615031	-0.014881
 896	4.4750e-01	4.2223	10.574104	0.000192	1.919597	0.650377	-0.015737
 897	4.4800e-01	4.1903	10.503546	0.000172	1.721378	0.583219	-0.014112
 898	4.4850e-01	4.1469	10.432560	0.000173	1.731810	0.586753	-0.014197
 899	4.4900e-01	4.0587	10.353877	0.000192	1.919597	0.650377	-0.015737
 900	4.4950e-01	4.0635	10.281608	-0.000176	-1.763108	-0.597357	-0.014454
 901	4.5000e-01	3.9929	10.195228	0.000211	2.107384	0.714001	-0.017276
 902	4.5050e-01	3.9801	10.122959	0.000176	1.763108	0.597357	-0.014454
 903	4.5100e-01	3.9320	10.045987	0.000188	1.877867	0.636238	-0.015395
 904	4.5150e-01	3.9031	9.970725	0.000184	1.836136	0.622100	-0.015052
 905	4.5200e-01	3.8806	9.886483	0.000206	2.055221	0.696328	-0.016848
 906	4.5250e-01	3.8229	9.813359	0.000178	1.783973	0.604427	-0.014625
 907	4.5300e-01	3.7876	9.732537	0.000197	1.971760	0.668050	-0.016164
 908	4.5350e-01	3.7170	9.660269	0.000176	1.763108	0.597357	-0.014454
 909	4.5400e-01	3.6994	9.582441	0.000190	1.898732	0.643308	-0.015566
 910	4.5450e-01	3.6641	9.505468	0.000188	1.877867	0.636238	-0.015395
 911	4.5500e-01	3.6256	9.425930	0.000194	1.940462	0.657446	-0.015908
 912	4.5550e-01	3.5855	9.355800	0.000171	1.710945	0.579684	-0.014026
 913	4.5600e-01	3.5646	9.271130	0.000207	2.065653	0.699862	-0.016934
 914	4.5650e-01	3.5277	9.183039	0.000215	2.149114	0.728140	-0.017618
 915	4.5700e-01	3.4764	9.105639	0.000189	1.888299	0.639773	-0.015480
 916	4.5750e-01	3.3978	9.032515	0.000178	1.783973	0.604427	-0.014625
 917	4.5800e-01	3.3785	8.949128	0.000203	2.034356	0.689258	-0.016677
 918	4.5850e-01	3.3384	8.870445	0.000192	1.919597	0.650377	-0.015737
 919	4.5900e-01	3.3031	8.792617	0.000190	1.898732	0.643308	-0.015566
 920	4.5950e-01	3.2855	8.705809	0.000212	2.117816	0.717536	-0.017362
 921	4.6000e-01	3.2245	8.623705	0.000200	2.003058	0.678654	-0.016421
 922	4.6050e-01	3.1940	8.553575	0.000171	1.710945	0.579684	-0.014026
 923	4.6100e-01	3.1411	8.477457	0.000186	1.857002	0.629169	-0.015223
 924	4.6150e-01	3.0978	8.388511	0.000217	2.169979	0.735209	-0.017789
 925	4.6200e-01	3.0593	8.314532	0.000180	1.804839	0.611496	-0.014796
 926	4.6250e-01	3.0320	8.228579	0.000210	2.096951	0.710466	-0.017191
 927	4.6300e-01	2.9550	8.153317	0.000184	1.836136	0.622100	-0.015052
 928	4.6350e-01	2.9486	8.072496	0.000197	1.971760	0.668050	-0.016164
 929	4.6400e-01	2.9309	7.978846	0.000228	2.284738	0.774090	-0.018730
 930	4.6450e-01	2.8475	7.912992	0.000161	1.606619	0.544337	-0.013171
 931	4.6500e-01	2.8170	7.818914	0.000230	2.295170	0.777625	-0.018816
 932	4.6550e-01	2.7625	7.729113	0.000219	2.190845	0.742278	-0.017960
 933	4.6600e-01	2.7160	7.652568	0.000187	1.867434	0.632704	-0.015309
 934	4.6650e-01	2.6871	7.575168	0.000189	1.888299	0.639773	-0.015480
 935	4.6700e-01	2.6823	7.487505	0.000214	2.138682	0.724605	-0.017533
 936	4.6750e-01	2.6277	7.406684	0.000197	1.971760	0.668050	-0.016164
 937	4.6800e-01	2.5507	7.321586	0.000208	2.076086	0.703397	-0.017019
 938	4.6850e-01	2.5010	7.242048	0.000194	1.940462	0.657446	-0.015908
 939	4.6900e-01	2.4946	7.155668	0.000211	2.107384	0.714001	-0.017276
 940	4.6950e-01	2.4497	7.071853	0.000204	2.044788	0.692793	-0.016763
 941	4.7000e-01	2.4047	6.988038	0.000204	2.044788	0.692793	-0.016763
 942	4.7050e-01	2.3935	6.904224	0.000204	2.044788	0.692793	-0.016763
 943	4.7100e-01	2.3310	6.818699	0.000209	2.086519	0.706932	-0.017105
 944	4.7150e-01	2.2973	6.729753	0.000217	2.169979	0.735209	-0.017789
 945	4.7200e-01	2.2347	6.647221	0.000201	2.013490	0.682189	-0.016506
 946	4.7250e-01	2.2106	6.562124	0.000208	2.076086	0.703397	-0.017019
 947	4.7300e-01	2.1689	6.479164	0.000202	2.023923	0.685724	-0.016592
 948	4.7350e-01	2.1336	6.392356	0.000212	2.117816	0.717536	-0.017362
 949	4.7400e-01	2.1096	6.303410	0.000217	2.169979	0.735209	-0.017789
 950	4.7450e-01	2.0406	6.214037	0.000218	2.180412	0.738744	-0.017875
 951	4.7500e-01	2.0213	6.124235	0.000219	2.190845	0.742278	-0.017960
 952	4.7550e-01	1.9668	6.039138	0.000208	2.076086	0.703397	-0.017019
 953	4.7600e-01	1.9379	5.956179	0.000202	2.023923	0.685724	-0.016592
 954	4.7650e-01	1.9267	5.856542	0.000243	2.430794	0.823575	-0.019927
 955	4.7700e-01	1.8561	5.772300	0.000206	2.055221	0.696328	-0.016848
 956	4.7750e-01	1.7951	5.693189	0.000193	1.930030	0.653912	-0.015822
 957	4.7800e-01	1.7631	5.601250	0.000224	2.243007	0.759952	-0.018388
 958	4.7850e-01	1.7438	5.511448	0.000219	2.190845	0.742278	-0.017960
 959	4.7900e-01	1.6748	5.417371	0.000230	2.295170	0.777625	-0.018816
 960	4.7950e-01	1.6363	5.334839	0.000201	2.013490	0.682189	-0.016506
 961	4.8000e-01	1.6299	5.242044	0.000226	2.263873	0.767021	-0.018559
 962	4.8050e-01	1.5609	5.157802	0.000206	2.055221	0.696328	-0.016848
 963	4.8100e-01	1.5465	5.068429	0.000218	2.180412	0.738744	-0.017875
 964	4.8150e-01	1.4663	4.978627	0.000219	2.190845	0.742278	-0.017960
 965	4.8200e-01	1.4615	4.881556	0.000237	2.368199	0.802367	-0.019414
 966	4.8250e-01	1.4181	4.784913	0.000236	2.357766	0.798833	-0.019329
 967	4.8300e-01	1.3652	4.701526	0.000203	2.034356	0.689258	-0.016677
 968	4.8350e-01	1.3315	4.598468	0.000251	2.514255	0.851853	-0.020612
 969	4.8400e-01	1.3107	4.509095	0.000218	2.180412	0.738744	-0.017875
 970	4.8450e-01	1.2369	4.407748	0.000247	2.472525	0.837714	-0.020269
 971	4.8500e-01	1.1855	4.328637	0.000193	1.930030	0.653912	-0.015822
 972	4.8550e-01	1.1647	4.233704	0.000232	2.316036	0.784694	-0.018987
 973	4.8600e-01	1.1390	4.136633	0.000237	2.368199	0.802367	-0.019414
 974	4.8650e-01	1.0925	4.048115	0.000216	2.159547	0.731674	-0.017704
 975	4.8700e-01	1.0556	3.949761	0.000240	2.399496	0.812971	-0.019671
 976	4.8750e-01	1.0219	3.861670	0.000215	2.149114	0.728140	-0.017618
 977	4.8800e-01	0.9561	3.762033	0.000243	2.430794	0.823575	-0.019927
 978	4.8850e-01	0.9289	3.666245	0.000234	2.336901	0.791763	-0.019158
 979	4.8900e-01	0.9192	3.570030	0.000235	2.347333	0.795298	-0.019243
 980	4.8950e-01	0.8631	3.472959	0.000237	2.368199	0.802367	-0.019414
 981	4.9000e-01	0.7861	3.384868	0.000215	2.149114	0.728140	-0.017618
 982	4.9050e-01	0.7684	3.287369	0.000238	2.378631	0.805902	-0.019500
 983	4.9100e-01	0.6946	3.189015	0.000240	2.399496	0.812971	-0.019671
 984	4.9150e-01	0.7091	3.097076	-0.000224	-2.243007	-0.759952	-0.018388
 985	4.9200e-01	0.6353	3.002998	0.000230	2.295170	0.777625	-0.018816
 986	4.9250e-01	0.6160	2.902934	0.000244	2.441227	0.827110	-0.020013
 987	4.9300e-01	0.5984	2.802015	0.000246	2.462092	0.834179	-0.020184
 988	4.9350e-01	0.5278	2.706227	0.000234	2.336901	0.791763	-0.019158
 989	4.9400e-01	0.4668	2.610866	0.000233	2.326468	0.788229	-0.019072
 990	4.9450e-01	0.4299	2.498828	0.000273	2.733339	0.926080	-0.022408
 991	4.9500e-01	0.4027	2.407316	0.000223	2.232575	0.756417	-0.018302
 992	4.9550e-01	0.3626	2.304686	0.000250	2.503822	0.848318	-0.020526
 993	4.9600e-01	0.3016	2.214457	0.000220	2.201277	0.745813	-0.018046
 994	4.9650e-01	0.2759	2.111400	0.000251	2.514255	0.851853	-0.020612
 995	4.9700e-01	0.2454	2.009197	0.000249	2.493390	0.844783	-0.020440
 996	4.9750e-01	0.2246	1.908278	0.000246	2.462092	0.834179	-0.020184
 997	4.9800e-01	0.1781	1.804365	0.000254	2.535120	0.858922	-0.020783
 998	4.9850e-01	0.1332	1.704301	0.000244	2.441227	0.827110	-0.020013
 999	4.9900e-01	0.0770	1.602526	0.000248	2.482957	0.841249	-0.020355
1000	4.9950e-01	0.0433	1.501606	0.000246	2.462092	0.834179	-0.020184
1001	5.0000e-01	0.0706	1.394700	-0.000261	-2.608148	-0.883665	-0.021381
1002	5.0050e-01	-0.0497	1.299767	0.000232	2.316036	0.784694	-0.018987
1003	5.0100e-01	-0.0802	1.202696	0.000237	2.368199	0.802367	-0.019414
1004	5.0150e-01	-0.0914	1.104770	0.000239	2.389064	0.809437	-0.019585
1005	5.0200e-01	-0.1332	1.004706	0.000244	2.441227	0.827110	-0.020013
1006	5.0250e-01	-0.1941	0.898655	0.000259	2.587283	0.876595	-0.021210
1007	5.0300e-01	-0.2214	0.796452	0.000249	2.493390	0.844783	-0.020440
1008	5.0350e-01	-0.2791	0.693822	0.000250	2.503822	0.848318	-0.020526
1009	5.0400e-01	-0.2904	0.586488	0.000262	2.618581	0.887199	-0.021467
1010	5.0450e-01	-0.3176	0.483430	0.000251	2.514255	0.851853	-0.020612
1011	5.0500e-01	-0.3690	0.380800	0.000250	2.503822	0.848318	-0.020526
1012	5.0550e-01	-0.4380	0.281164	0.000243	2.430794	0.823575	-0.019927
1013	5.0600e-01	-0.4588	0.169553	0.000272	2.722907	0.922546	-0.022322
1014	5.0650e-01	-0.5246	0.068206	0.000247	2.472525	0.837714	-0.020269
1015	5.0700e-01	-0.5390	-0.039983	0.000264	2.639446	0.894269	-0.021638
1016	5.0750e-01	-0.6096	-0.147745	0.000263	2.629013	0.890734	-0.021552
1017	5.0800e-01	-0.6208	-0.263631	0.000283	2.827233	0.957892	-0.023177
1018	5.0850e-01	-0.6882	-0.353432	0.000219	2.190845	0.742278	-0.017960
1019	5.0900e-01	-0.7010	-0.459911	0.000260	2.597716	0.880130	-0.021296
1020	5.0950e-01	-0.7396	-0.569811	0.000268	2.681176	0.908407	-0.021980
1021	5.1000e-01	-0.7764	-0.681849	0.000273	2.733339	0.926080	-0.022408
1022	5.1050e-01	-0.8663	-0.781058	0.000242	2.420362	0.820041	-0.019842
1023	5.1100e-01	-0.8502	-0.893095	-0.000273	-2.733339	-0.926080	-0.022408
1024	5.1150e-01	-0.8679	-0.997864	0.000256	2.555985	0.865991	-0.020954
1025	5.1200e-01	-0.9240	-1.112467	0.000280	2.795935	0.947288	-0.022921
1026	5.1250e-01	-1.0123	-1.210821	0.000240	2.399496	0.812971	-0.019671
1027	5.1300e-01	-1.0123	-1.325852	0.000281	2.806367	0.950823	-0.023006
1028	5.1350e-01	-1.0219	-1.427627	0.000248	2.482957	0.841249	-0.020355
1029	5.1400e-01	-1.0861	-1.525553	0.000239	2.389064	0.809437	-0.019585
1030	5.1450e-01	-1.1454	-1.636308	0.000270	2.702042	0.915476	-0.022151
1031	5.1500e-01	-1.1839	-1.747063	0.000270	2.702042	0.915476	-0.022151
1032	5.1550e-01	-1.2096	-1.851831	0.000256	2.555985	0.865991	-0.020954
1033	5.1600e-01	-1.2561	-1.964724	0.000275	2.754205	0.933150	-0.022579
1034	5.1650e-01	-1.2770	-2.070348	0.000258	2.576850	0.873061	-0.021125
1035	5.1700e-01	-1.3460	-2.182813	0.000274	2.743772	0.929615	-0.022493
1036	5.1750e-01	-1.3812	-2.282022	0.000242	2.420362	0.820041	-0.019842
1037	5.1800e-01	-1.4085	-2.394488	0.000274	2.743772	0.929615	-0.022493
1038	5.1850e-01	-1.4631	-2.505243	0.000270	2.702042	0.915476	-0.022151
1039	5.1900e-01	-1.4984	-2.613859	0.000265	2.649879	0.897803	-0.021723
1040	5.1950e-01	-1.5288	-2.721193	0.000262	2.618581	0.887199	-0.021467
1041	5.2000e-01	-1.5834	-2.824251	0.000251	2.514255	0.851853	-0.020612
1042	5.2050e-01	-1.5930	-2.934151	0.000268	2.681176	0.908407	-0.021980
1043	5.2100e-01	-1.6796	-3.032077	0.000239	2.389064	0.809437	-0.019585
1044	5.2150e-01	-1.6957	-3.139839	0.000263	2.629013	0.890734	-0.021552
1045	5.2200e-01	-1.7470	-3.239048	0.000242	2.420362	0.820041	-0.019842
1046	5.2250e-01	-1.7775	-3.348092	0.000266	2.660311	0.901338	-0.021809
1047	5.2300e-01	-1.8080	-3.449867	0.000248	2.482957	0.841249	-0.020355
1048	5.2350e-01	-1.8786	-3.554635	0.000256	2.555985	0.865991	-0.020954
1049	5.2400e-01	-1.8866	-3.662824	0.000264	2.639446	0.894269	-0.021638
1050	5.2450e-01	-1.9411	-3.756474	0.000228	2.284738	0.774090	-0.018730
1051	5.2500e-01	-2.0101	-3.861242	0.000256	2.555985	0.865991	-0.020954
1052	5.2550e-01	-2.0261	-3.974135	0.000275	2.754205	0.933150	-0.022579
1053	5.2600e-01	-2.0646	-4.081042	0.000261	2.608148	0.883665	-0.021381
1054	5.2650e-01	-2.1080	-4.178540	0.000238	2.378631	0.805902	-0.019500
1055	5.2700e-01	-2.1336	-4.281598	0.000251	2.514255	0.851853	-0.020612
1056	5.2750e-01	-2.1802	-4.383373	0.000248	2.482957	0.841249	-0.020355
1057	5.2800e-01	-2.2299	-4.488141	0.000256	2.555985	0.865991	-0.020954
1058	5.2850e-01	-2.2491	-4.597186	0.000266	2.660311	0.901338	-0.021809
1059	5.2900e-01	-2.2989	-4.691691	0.000231	2.305603	0.781159	-0.018901
1060	5.2950e-01	-2.3149	-4.796459	0.000256	2.555985	0.865991	-0.020954
1061	5.3000e-01	-2.3646	-4.892675	0.000235	2.347333	0.795298	-0.019243
1062	5.3050e-01	-2.4256	-4.994022	0.000247	2.472525	0.837714	-0.020269
1063	5.3100e-01	-2.4400	-5.094941	0.000246	2.462092	0.834179	-0.020184
1064	5.3150e-01	-2.4721	-5.193723	0.000241	2.409929	0.816506	-0.019756
1065	5.3200e-01	-2.5491	-5.296780	0.000251	2.514255	0.851853	-0.020612
1066	5.3250e-01	-2.6069	-5.389148	0.000225	2.253440	0.763486	-0.018473
1067	5.3300e-01	-2.6133	-5.491778	0.000250	2.503822	0.848318	-0.020526
1068	5.3350e-01	-2.6438	-5.592697	0.000246	2.462092	0.834179	-0.020184
1069	5.3400e-01	-2.7031	-5.692761	0.000244	2.441227	0.827110	-0.020013
1070	5.3450e-01	-2.7464	-5.792826	0.000244	2.441227	0.827110	-0.020013
1071	5.3500e-01	-2.7946	-5.885620	0.000226	2.263873	0.767021	-0.018559
1072	5.3550e-01	-2.8234	-5.976705	0.000222	2.222142	0.752882	-0.018217
1073	5.3600e-01	-2.8620	-6.073776	0.000237	2.368199	0.802367	-0.019414
1074	5.3650e-01	-2.9005	-6.169564	0.000234	2.336901	0.791763	-0.019158
1075	5.3700e-01	-2.9309	-6.266635	0.000237	2.368199	0.802367	-0.019414
1076	5.3750e-01	-2.9839	-6.356008	0.000218	2.180412	0.738744	-0.017875
1077	5.3800e-01	-3.0240	-6.453079	0.000237	2.368199	0.802367	-0.019414
1078	5.3850e-01	-3.0769	-6.548867	0.000234	2.336901	0.791763	-0.019158
1079	5.3900e-01	-3.0978	-6.645083	0.000235	2.347333	0.795298	-0.019243
1080	5.3950e-01	-3.1395	-6.742582	0.000238	2.378631	0.805902	-0.019500
1081	5.4000e-01	-3.2101	-6.828534	0.000210	2.096951	0.710466	-0.017191
1082	5.4050e-01	-3.1956	-6.925605	-0.000237	-2.368199	-0.802367	-0.019414
1083	5.4100e-01	-3.2662	-7.011130	0.000209	2.086519	0.706932	-0.017105
1084	5.4150e-01	-3.2887	-7.104780	0.000228	2.284738	0.774090	-0.018730
1085	5.4200e-01	-3.3384	-7.194154	0.000218	2.180412	0.738744	-0.017875
1086	5.4250e-01	-3.3994	-7.282245	0.000215	2.149114	0.728140	-0.017618
1087	5.4300e-01	-3.4250	-7.372901	0.000221	2.211710	0.749348	-0.018131
1088	5.4350e-01	-3.4700	-7.457571	0.000207	2.065653	0.699862	-0.016934
1089	5.4400e-01	-3.4988	-7.552076	0.000231	2.305603	0.781159	-0.018901
1090	5.4450e-01	-3.5213	-7.644016	0.000224	2.243007	0.759952	-0.018388
1091	5.4500e-01	-3.5774	-7.727403	0.000203	2.034356	0.689258	-0.016677
1092	5.4550e-01	-3.6400	-7.817631	0.000220	2.201277	0.745813	-0.018046
1093	5.4600e-01	-3.6464	-7.905722	0.000215	2.149114	0.728140	-0.017618
1094	5.4650e-01	-3.6753	-7.994668	0.000217	2.169979	0.735209	-0.017789
1095	5.4700e-01	-3.7523	-8.072924	0.000191	1.909165	0.646842	-0.015651
1096	5.4750e-01	-3.7972	-8.158876	0.000210	2.096951	0.710466	-0.017191
1097	5.4800e-01	-3.8261	-8.254664	0.000234	2.336901	0.791763	-0.019158
1098	5.4850e-01	-3.8357	-8.343183	0.000216	2.159547	0.731674	-0.017704
1099	5.4900e-01	-3.8951	-8.429991	0.000212	2.117816	0.717536	-0.017362
1100	5.4950e-01	-3.9240	-8.512950	0.000202	2.023923	0.685724	-0.016592
1101	5.5000e-01	-3.9737	-8.593771	0.000197	1.971760	0.668050	-0.016164
1102	5.5050e-01	-4.0026	-8.684856	0.000222	2.222142	0.752882	-0.018217
1103	5.5100e-01	-4.0491	-8.767815	0.000202	2.023923	0.685724	-0.016592
1104	5.5150e-01	-4.1036	-8.848208	0.000196	1.961327	0.664516	-0.016079
1105	5.5200e-01	-4.1421	-8.952549	0.000255	2.545553	0.862457	-0.020868
1106	5.5250e-01	-4.1887	-9.015837	0.000154	1.544024	0.523129	-0.012658
1107	5.5300e-01	-4.2400	-9.100080	0.000206	2.055221	0.696328	-0.016848
1108	5.5350e-01	-4.2544	-9.183039	0.000202	2.023923	0.685724	-0.016592
1109	5.5400e-01	-4.2689	-9.272413	0.000218	2.180412	0.738744	-0.017875
1110	5.5450e-01	-4.3459	-9.350668	0.000191	1.909165	0.646842	-0.015651
1111	5.5500e-01	-4.3812	-9.437048	0.000211	2.107384	0.714001	-0.017276
1112	5.5550e-01	-4.4309	-9.512310	0.000184	1.836136	0.622100	-0.015052
1113	5.5600e-01	-4.4662	-9.596125	0.000204	2.044788	0.692793	-0.016763
1114	5.5650e-01	-4.4967	-9.678657	0.000201	2.013490	0.682189	-0.016506
1115	5.5700e-01	-4.5352	-9.760761	0.000200	2.003058	0.678654	-0.016421
1116	5.5750e-01	-4.5961	-9.833457	0.000177	1.773541	0.600892	-0.014539
1117	5.5800e-01	-4.6314	-9.912568	0.000193	1.930030	0.653912	-0.015822
1118	5.5850e-01	-4.6635	-9.989113	0.000187	1.867434	0.632704	-0.015309
1119	5.5900e-01	-4.6876	-10.074210	0.000208	2.076086	0.703397	-0.017019
1120	5.5950e-01	-4.7886	-10.152038	0.000190	1.898732	0.643308	-0.015566
1121	5.6000e-01	-4.7790	-10.229866	-0.000190	-1.898732	-0.643308	-0.015566
1122	5.6050e-01	-4.8239	-10.312825	0.000202	2.023923	0.685724	-0.016592
1123	5.6100e-01	-4.8688	-10.397067	0.000206	2.055221	0.696328	-0.016848
1124	5.6150e-01	-4.9025	-10.469336	0.000176	1.763108	0.597357	-0.014454
1125	5.6200e-01	-4.9266	-10.550157	0.000197	1.971760	0.668050	-0.016164
1126	5.6250e-01	-4.9892	-10.621998	0.000175	1.752676	0.593823	-0.014368
1127	5.6300e-01	-5.0325	-10.703247	0.000198	1.982193	0.671585	-0.016250
1128	5.6350e-01	-5.0806	-10.781502	0.000191	1.909165	0.646842	-0.015651
1129	5.6400e-01	-5.1143	-10.863179	0.000199	1.992625	0.675120	-0.016335
1130	5.6450e-01	-5.1384	-10.941434	0.000191	1.909165	0.646842	-0.015651
1131	5.6500e-01	-5.1753	-11.009427	0.000166	1.658782	0.562011	-0.013598
1132	5.6550e-01	-5.2298	-11.089392	0.000195	1.950895	0.660981	-0.015993
1133	5.6600e-01	-5.2731	-11.168503	0.000193	1.930030	0.653912	-0.015822
1134	5.6650e-01	-5.2827	-11.243765	0.000184	1.836136	0.622100	-0.015052
1135	5.6700e-01	-5.3244	-11.322876	0.000193	1.930030	0.653912	-0.015822
1136	5.6750e-01	-5.3646	-11.391296	0.000167	1.669215	0.565545	-0.013684
1137	5.6800e-01	-5.4191	-11.463137	0.000175	1.752676	0.593823	-0.014368
1138	5.6850e-01	-5.4351	-11.551655	0.000216	2.159547	0.731674	-0.017704
1139	5.6900e-01	-5.5073	-11.612378	0.000148	1.481428	0.501921	-0.012145
1140	5.6950e-01	-5.5539	-11.686785	0.000182	1.815271	0.615031	-0.014881
1141	5.7000e-01	-5.5811	-11.762475	0.000185	1.846569	0.625634	-0.015138
1142	5.7050e-01	-5.6100	-11.840302	0.000190	1.898732	0.643308	-0.015566
1143	5.7100e-01	-5.6694	-11.912571	0.000176	1.763108	0.597357	-0.014454
1144	5.7150e-01	-5.7079	-11.982274	0.000170	1.700513	0.576149	-0.013941
1145	5.7200e-01	-5.7399	-12.057964	0.000185	1.846569	0.625634	-0.015138
1146	5.7250e-01	-5.8153	-12.127667	0.000170	1.700513	0.576149	-0.013941
1147	5.7300e-01	-5.8153	-12.199080	0.000174	1.742243	0.590288	-0.014283
1148	5.7350e-01	-5.8587	-12.276480	0.000189	1.888299	0.639773	-0.015480
1149	5.7400e-01	-5.8988	-12.350887	0.000182	1.815271	0.615031	-0.014881
1150	5.7450e-01	-5.9389	-12.418879	0.000166	1.658782	0.562011	-0.013598
1151	5.7500e-01	-5.9918	-12.497135	0.000191	1.909165	0.646842	-0.015651
1152	5.7550e-01	-6.0207	-12.565555	0.000167	1.669215	0.565545	-0.013684
1153	5.7600e-01	-6.0399	-12.643383	0.000190	1.898732	0.643308	-0.015566
1154	5.7650e-01	-6.1218	-12.709237	0.000161	1.606619	0.544337	-0.013171
1155	5.7700e-01	-6.1731	-12.780650	0.000174	1.742243	0.590288	-0.014283
1156	5.7750e-01	-6.1554	-12.871307	-0.000221	-2.211710	-0.749348	-0.018131
1157	5.7800e-01	-6.2421	-12.924760	0.000130	1.304074	0.441832	-0.010691
1158	5.7850e-01	-6.2822	-13.004726	0.000195	1.950895	0.660981	-0.015993
1159	5.7900e-01	-6.3207	-13.069297	0.000158	1.575322	0.533733	-0.012914
1160	5.7950e-01	-6.3496	-13.137290	0.000166	1.658782	0.562011	-0.013598
1161	5.8000e-01	-6.3945	-13.207420	0.000171	1.710945	0.579684	-0.014026
1162	5.8050e-01	-6.4217	-13.277979	0.000172	1.721378	0.583219	-0.014112
1163	5.8100e-01	-6.4105	-13.356234	-0.000191	-1.909165	-0.646842	-0.015651
1164	5.8150e-01	-6.4987	-13.418667	0.000152	1.523159	0.516060	-0.012487
1165	5.8200e-01	-6.5517	-13.484094	0.000160	1.596187	0.540803	-0.013085
1166	5.8250e-01	-6.5709	-13.552514	0.000167	1.669215	0.565545	-0.013684
1167	5.8300e-01	-6.6191	-13.614092	0.000150	1.502293	0.508991	-0.012316
1168	5.8350e-01	-6.6399	-13.698334	0.000206	2.055221	0.696328	-0.016848
1169	5.8400e-01	-6.7330	-13.755636	0.000140	1.397967	0.473644	-0.011460
1170	5.8450e-01	-6.7522	-13.828760	0.000178	1.783973	0.604427	-0.014625
1171	5.8500e-01	-6.7731	-13.899318	0.000172	1.721378	0.583219	-0.014112
1172	5.8550e-01	-6.8132	-13.966883	0.000165	1.648350	0.558476	-0.013513
1173	5.8600e-01	-6.8629	-14.031027	0.000156	1.564889	0.530199	-0.012829
1174	5.8650e-01	-6.8934	-14.105433	0.000182	1.815271	0.615031	-0.014881
1175	5.8700e-01	-6.9383	-14.173426	0.000166	1.658782	0.562011	-0.013598
1176	5.8750e-01	-6.9543	-14.244839	0.000174	1.742243	0.590288	-0.014283
1177	5.8800e-01	-7.0265	-14.305562	0.000148	1.481428	0.501921	-0.012145
1178	5.8850e-01	-7.0715	-14.368851	0.000154	1.544024	0.523129	-0.012658
1179	5.8900e-01	-7.0859	-14.432139	0.000154	1.544024	0.523129	-0.012658
1180	5.8950e-01	-7.1372	-14.510395	0.000191	1.909165	0.646842	-0.015651
1181	5.9000e-01	-7.1661	-14.572400	0.000151	1.512726	0.512525	-0.012401
1182	5.9050e-01	-7.2431	-14.645097	0.000177	1.773541	0.600892	-0.014539
1183	5.9100e-01	-7.2752	-14.712661	0.000165	1.648350	0.558476	-0.013513
1184	5.9150e-01	-7.3057	-14.779371	0.000163	1.627484	0.551407	-0.013342
1185	5.9200e-01	-7.3313	-14.841377	0.000151	1.512726	0.512525	-0.012401
1186	5.9250e-01	-7.3763	-14.908086	0.000163	1.627484	0.551407	-0.013342
1187	5.9300e-01	-7.3987	-14.980782	0.000177	1.773541	0.600892	-0.014539
1188	5.9350e-01	-7.4565	-15.041078	0.000147	1.470996	0.498387	-0.012059
1189	5.9400e-01	-7.4918	-15.105649	0.000158	1.575322	0.533733	-0.012914
1190	5.9450e-01	-7.5190	-15.171503	0.000161	1.606619	0.544337	-0.013171
1191	5.9500e-01	-7.5896	-15.236075	0.000158	1.575322	0.533733	-0.012914
1192	5.9550e-01	-7.6281	-15.301501	0.000160	1.596187	0.540803	-0.013085
1193	5.9600e-01	-7.6474	-15.368639	0.000164	1.637917	0.554941	-0.013427
1194	5.9650e-01	-7.7067	-15.416960	0.000118	1.178883	0.399416	-0.009664
1195	5.9700e-01	-7.7404	-15.493078	0.000186	1.857002	0.629169	-0.015223
1196	5.9750e-01	-7.7773	-15.561070	0.000166	1.658782	0.562011	-0.013598
1197	5.9800e-01	-7.8399	-15.621793	0.000148	1.481428	0.501921	-0.012145
1198	5.9850e-01	-7.8623	-15.689785	0.000166	1.658782	0.562011	-0.013598
1199	5.9900e-01	-7.9105	-15.759916	0.000171	1.710945	0.579684	-0.014026
1200	5.9950e-01	-7.9795	-15.821066	0.000149	1.491861	0.505456	-0.012230
1201	6.0000e-01	-7.9907	-15.882644	0.000150	1.502293	0.508991	-0.012316
1202	6.0050e-01	-8.0035	-15.955340	0.000177	1.773541	0.600892	-0.014539
1203	6.0100e-01	-8.0934	-16.010076	0.000134	1.335372	0.452436	-0.010947
1204	6.0150e-01	-8.0950	-16.081918	0.000175	1.752676	0.593823	-0.014368
1205	6.0200e-01	-8.1559	-16.144351	0.000152	1.523159	0.516060	-0.012487
1206	6.0250e-01	-8.1736	-16.201225	0.000139	1.387535	0.470110	-0.011375
1207	6.0300e-01	-8.2153	-16.266652	0.000160	1.596187	0.540803	-0.013085
1208	6.0350e-01	-8.2634	-16.334216	0.000165	1.648350	0.558476	-0.013513
1209	6.0400e-01	-8.2714	-16.407768	0.000179	1.794406	0.607961	-0.014710
1210	6.0450e-01	-8.3404	-16.466353	0.000143	1.429265	0.484248	-0.011717
1211	6.0500e-01	-8.4062	-16.524510	0.000142	1.418833	0.480714	-0.011631
1212	6.0550e-01	-8.4527	-16.588226	0.000155	1.554456	0.526664	-0.012743
1213	6.0600e-01	-8.4511	-16.649804	-0.000150	-1.502293	-0.508991	-0.012316
1214	6.0650e-01	-8.5008	-16.713520	0.000155	1.554456	0.526664	-0.012743
1215	6.0700e-01	-8.5121	-16.778519	0.000159	1.585754	0.537268	-0.013000
1216	6.0750e-01	-8.5618	-16.840525	0.000151	1.512726	0.512525	-0.012401
1217	6.0800e-01	-8.6163	-16.905096	0.000158	1.575322	0.533733	-0.012914
1218	6.0850e-01	-8.6580	-16.966674	0.000150	1.502293	0.508991	-0.012316
1219	6.0900e-01	-8.6965	-17.032101	0.000160	1.596187	0.540803	-0.013085
1220	6.0950e-01	-8.7559	-17.094107	0.000151	1.512726	0.512525	-0.012401
1221	6.1000e-01	-8.7880	-17.156967	0.000153	1.533591	0.519595	-0.012572
1222	6.1050e-01	-8.8345	-17.212986	0.000137	1.366670	0.463040	-0.011204
1223	6.1100e-01	-8.8377	-17.274992	0.000151	1.512726	0.512525	-0.012401
1224	6.1150e-01	-8.9227	-17.338281	0.000154	1.544024	0.523129	-0.012658
1225	6.1200e-01	-8.9564	-17.394299	0.000137	1.366670	0.463040	-0.011204
1226	6.1250e-01	-8.9693	-17.460581	0.000162	1.617052	0.547872	-0.013256
1227	6.1300e-01	-9.0366	-17.521732	0.000149	1.491861	0.505456	-0.012230
1228	6.1350e-01	-9.0767	-17.585876	0.000156	1.564889	0.530199	-0.012829
1229	6.1400e-01	-9.1104	-17.648737	0.000153	1.533591	0.519595	-0.012572
1230	6.1450e-01	-9.1457	-17.700479	0.000126	1.262344	0.427694	-0.010349
1231	6.1500e-01	-9.1714	-17.768472	0.000166	1.658782	0.562011	-0.013598
1232	6.1550e-01	-9.2292	-17.832615	0.000156	1.564889	0.530199	-0.012829
1233	6.1600e-01	-9.2821	-17.886924	0.000132	1.324939	0.448902	-0.010862
1234	6.1650e-01	-9.3110	-17.943370	0.000138	1.377102	0.466575	-0.011289
1235	6.1700e-01	-9.3334	-18.014356	0.000173	1.731810	0.586753	-0.014197
1236	6.1750e-01	-9.3832	-18.071230	0.000139	1.387535	0.470110	-0.011375
1237	6.1800e-01	-9.4297	-18.127677	0.000138	1.377102	0.466575	-0.011289
1238	6.1850e-01	-9.4537	-18.184979	0.000140	1.397967	0.473644	-0.011460
1239	6.1900e-01	-9.5019	-18.249122	0.000156	1.564889	0.530199	-0.012829
1240	6.1950e-01	-9.5468	-18.309845	0.000148	1.481428	0.501921	-0.012145
1241	6.2000e-01	-9.5660	-18.370140	0.000147	1.470996	0.498387	-0.012059
1242	6.2050e-01	-9.6430	-18.425732	0.000136	1.356237	0.459506	-0.011118
1243	6.2100e-01	-9.6446	-18.493724	0.000166	1.658782	0.562011	-0.013598
1244	6.2150e-01	-9.7072	-18.549315	0.000136	1.356237	0.459506	-0.011118
1245	6.2200e-01	-9.7505	-18.595071	0.000112	1.116287	0.378208	-0.009151
1246	6.2250e-01	-9.8099	-18.673754	0.000192	1.919597	0.650377	-0.015737
1247	6.2300e-01	-9.7970	-18.731484	-0.000141	-1.408400	-0.477179	-0.011546
1248	6.2350e-01	-9.8291	-18.794772	0.000154	1.544024	0.523129	-0.012658
1249	6.2400e-01	-9.8933	-18.844377	0.000121	1.210181	0.410020	-0.009921
1250	6.2450e-01	-9.9270	-18.903389	0.000144	1.439698	0.487783	-0.011802
1251	6.2500e-01	-9.9880	-18.963684	0.000147	1.470996	0.498387	-0.012059
1252	6.2550e-01	-10.0152	-19.023979	0.000147	1.470996	0.498387	-0.012059
1253	6.2600e-01	-10.0601	-19.080854	0.000139	1.387535	0.470110	-0.011375
1254	6.2650e-01	-10.0906	-19.140293	0.000145	1.450130	0.491317	-0.011888
1255	6.2700e-01	-10.1564	-19.198023	0.000141	1.408400	0.477179	-0.011546
1256	6.2750e-01	-10.1805	-19.254469	0.000138	1.377102	0.466575	-0.011289
1257	6.2800e-01	-10.2142	-19.322034	0.000165	1.648350	0.558476	-0.013513
1258	6.2850e-01	-10.2719	-19.374632	0.000128	1.283209	0.434763	-0.010520
1259	6.2900e-01	-10.3088	-19.436638	0.000151	1.512726	0.512525	-0.012401
1260	6.2950e-01	-10.3345	-19.499071	0.000152	1.523159	0.516060	-0.012487
1261	6.3000e-01	-10.3649	-19.547820	0.000119	1.189316	0.402951	-0.009750
1262	6.3050e-01	-10.4067	-19.608543	0.000148	1.481428	0.501921	-0.012145
1263	6.3100e-01	-10.4500	-19.670976	0.000152	1.523159	0.516060	-0.012487
1264	6.3150e-01	-10.4997	-19.721436	0.000123	1.231046	0.417090	-0.010092
1265	6.3200e-01	-10.5366	-19.785152	0.000155	1.554456	0.526664	-0.012743
1266	6.3250e-01	-10.5767	-19.844165	0.000144	1.439698	0.487783	-0.011802
1267	6.3300e-01	-10.6345	-19.892059	0.000117	1.168450	0.395882	-0.009579
1268	6.3350e-01	-10.6938	-19.952354	0.000147	1.470996	0.498387	-0.012059
1269	6.3400e-01	-10.7211	-20.014787	0.000152	1.523159	0.516060	-0.012487
1270	6.3450e-01	-10.7564	-20.065675	0.000124	1.241479	0.420624	-0.010177
1271	6.3500e-01	-10.7820	-20.127680	0.000151	1.512726	0.512525	-0.012401
1272	6.3550e-01	-10.8334	-20.181989	0.000132	1.324939	0.448902	-0.010862
1273	6.3600e-01	-10.8462	-20.244422	0.000152	1.523159	0.516060	-0.012487
1274	6.3650e-01	-10.9200	-20.300868	0.000138	1.377102	0.466575	-0.011289
1275	6.3700e-01	-10.9232	-20.357315	0.000138	1.377102	0.466575	-0.011289
1276	6.3750e-01	-10.9986	-20.412479	0.000135	1.345804	0.455971	-0.011033
1277	6.3800e-01	-11.0355	-20.474057	0.000150	1.502293	0.508991	-0.012316
1278	6.3850e-01	-11.0708	-20.527082	0.000129	1.293642	0.438298	-0.010605
1279	6.3900e-01	-11.0965	-20.584812	0.000141	1.408400	0.477179	-0.011546
1280	6.3950e-01	-11.1350	-20.642969	0.000142	1.418833	0.480714	-0.011631
1281	6.4000e-01	-11.1590	-20.701981	0.000144	1.439698	0.487783	-0.011802
1282	6.4050e-01	-11.2040	-20.772112	0.000171	1.710945	0.579684	-0.014026
1283	6.4100e-01	-11.2681	-20.813591	0.000101	1.011962	0.342862	-0.008296
1284	6.4150e-01	-11.2890	-20.869182	0.000136	1.356237	0.459506	-0.011118
1285	6.4200e-01	-11.3708	-20.917504	0.000118	1.178883	0.399416	-0.009664
1286	6.4250e-01	-11.3708	-20.988062	0.000172	1.721378	0.583219	-0.014112
1287	6.4300e-01	-11.4189	-21.041515	0.000130	1.304074	0.441832	-0.010691
1288	6.4350e-01	-11.4398	-21.097107	0.000136	1.356237	0.459506	-0.011118
1289	6.4400e-01	-11.5184	-21.145428	0.000118	1.178883	0.399416	-0.009664
1290	6.4450e-01	-11.5457	-21.202303	0.000139	1.387535	0.470110	-0.011375
1291	6.4500e-01	-11.5665	-21.262170	0.000146	1.460563	0.494852	-0.011974
1292	6.4550e-01	-11.6146	-21.318617	0.000138	1.377102	0.466575	-0.011289
1293	6.4600e-01	-11.6580	-21.379339	0.000148	1.481428	0.501921	-0.012145
1294	6.4650e-01	-11.6965	-21.427661	0.000118	1.178883	0.399416	-0.009664
1295	6.4700e-01	-11.7366	-21.486673	0.000144	1.439698	0.487783	-0.011802
1296	6.4750e-01	-11.7943	-21.537133	0.000123	1.231046	0.417090	-0.010092
1297	6.4800e-01	-11.7911	-21.600422	-0.000154	-1.544024	-0.523129	-0.012658
1298	6.4850e-01	-11.8665	-21.653875	0.000130	1.304074	0.441832	-0.010691
1299	6.4900e-01	-11.9130	-21.706473	0.000128	1.283209	0.434763	-0.010520
1300	6.4950e-01	-11.9339	-21.757788	0.000125	1.251911	0.424159	-0.010263
1301	6.5000e-01	-11.9884	-21.817228	0.000145	1.450130	0.491317	-0.011888
1302	6.5050e-01	-12.0125	-21.862984	0.000112	1.116287	0.378208	-0.009151
1303	6.5100e-01	-12.0735	-21.920713	0.000141	1.408400	0.477179	-0.011546
1304	6.5150e-01	-12.1152	-21.980153	0.000145	1.450130	0.491317	-0.011888
1305	6.5200e-01	-12.1569	-22.032751	0.000128	1.283209	0.434763	-0.010520
1306	6.5250e-01	-12.2002	-22.092191	0.000145	1.450130	0.491317	-0.011888
1307	6.5300e-01	-12.2323	-22.146499	0.000132	1.324939	0.448902	-0.010862
1308	6.5350e-01	-12.2628	-22.199097	0.000128	1.283209	0.434763	-0.010520
1309	6.5400e-01	-12.3205	-22.256399	0.000140	1.397967	0.473644	-0.011460
1310	6.5450e-01	-12.3446	-22.313701	0.000140	1.397967	0.473644	-0.011460
1311	6.5500e-01	-12.3751	-22.366726	0.000129	1.293642	0.438298	-0.010605
1312	6.5550e-01	-12.4232	-22.423600	0.000139	1.387535	0.470110	-0.011375
1313	6.5600e-01	-12.4633	-22.476198	0.000128	1.283209	0.434763	-0.010520
1314	6.5650e-01	-12.5275	-22.524520	0.000118	1.178883	0.399416	-0.009664
1315	6.5700e-01	-12.5660	-22.577973	0.000130	1.304074	0.441832	-0.010691
1316	6.5750e-01	-12.5451	-22.639123	-0.000149	-1.491861	-0.505456	-0.012230
1317	6.5800e-01	-12.6173	-22.689156	0.000122	1.220613	0.413555	-0.010006
1318	6.5850e-01	-12.6927	-22.746457	0.000140	1.397967	0.473644	-0.011460
1319	6.5900e-01	-12.7264	-22.801621	0.000135	1.345804	0.455971	-0.011033
1320	6.5950e-01	-12.7376	-22.858068	0.000138	1.377102	0.466575	-0.011289
1321	6.6000e-01	-12.7488	-22.914514	0.000138	1.377102	0.466575	-0.011289
1322	6.6050e-01	-12.8339	-22.959415	0.000110	1.095422	0.371139	-0.008980
1323	6.6100e-01	-12.8403	-23.017999	0.000143	1.429265	0.484248	-0.011717
1324	6.6150e-01	-12.8531	-23.078722	0.000148	1.481428	0.501921	-0.012145
1325	6.6200e-01	-12.9558	-23.127044	0.000118	1.178883	0.399416	-0.009664
1326	6.6250e-01	-12.9750	-23.182208	0.000135	1.345804	0.455971	-0.011033
1327	6.6300e-01	-13.0280	-23.227108	0.000110	1.095422	0.371139	-0.008980
1328	6.6350e-01	-13.0745	-23.280989	0.000131	1.314507	0.445367	-0.010776
1329	6.6400e-01	-13.0777	-23.340001	0.000144	1.439698	0.487783	-0.011802
1330	6.6450e-01	-13.1339	-23.385757	0.000112	1.116287	0.378208	-0.009151
1331	6.6500e-01	-13.1627	-23.445197	0.000145	1.450130	0.491317	-0.011888
1332	6.6550e-01	-13.2429	-23.498650	0.000130	1.304074	0.441832	-0.010691
1333	6.6600e-01	-13.2590	-23.553814	0.000135	1.345804	0.455971	-0.011033
1334	6.6650e-01	-13.3039	-23.611116	0.000140	1.397967	0.473644	-0.011460
1335	6.6700e-01	-13.3601	-23.660720	0.000121	1.210181	0.410020	-0.009921
1336	6.6750e-01	-13.3873	-23.709470	0.000119	1.189316	0.402951	-0.009750
1337	6.6800e-01	-13.4306	-23.770620	0.000149	1.491861	0.505456	-0.012230
1338	6.6850e-01	-13.4643	-23.814665	0.000107	1.074557	0.364070	-0.008809
1339	6.6900e-01	-13.4964	-23.873250	0.000143	1.429265	0.484248	-0.011717
1340	6.6950e-01	-13.5381	-23.924565	0.000125	1.251911	0.424159	-0.010263
1341	6.7000e-01	-13.5798	-23.980156	0.000136	1.356237	0.459506	-0.011118
1342	6.7050e-01	-13.6167	-24.038313	0.000142	1.418833	0.480714	-0.011631
1343	6.7100e-01	-13.6777	-24.085780	0.000116	1.158018	0.392347	-0.009493
1344	6.7150e-01	-13.6793	-24.137950	0.000127	1.272776	0.431228	-0.010434
1345	6.7200e-01	-13.7483	-24.197390	0.000145	1.450130	0.491317	-0.011888
1346	6.7250e-01	-13.7739	-24.250843	0.000130	1.304074	0.441832	-0.010691
1347	6.7300e-01	-13.8301	-24.300875	0.000122	1.220613	0.413555	-0.010006
1348	6.7350e-01	-13.8622	-24.352190	0.000125	1.251911	0.424159	-0.010263
1349	6.7400e-01	-13.9263	-24.403933	0.000126	1.262344	0.427694	-0.010349
1350	6.7450e-01	-13.9472	-24.458669	0.000134	1.335372	0.452436	-0.010947
1351	6.7500e-01	-13.9697	-24.507846	0.000120	1.199748	0.406486	-0.009835
1352	6.7550e-01	-14.0098	-24.568569	0.000148	1.481428	0.501921	-0.012145
1353	6.7600e-01	-14.0868	-24.617746	0.000120	1.199748	0.406486	-0.009835
1354	6.7650e-01	-14.0755	-24.671199	-0.000130	-1.304074	-0.441832	-0.010691
1355	6.7700e-01	-14.1461	-24.724224	0.000129	1.293642	0.438298	-0.010605
1356	6.7750e-01	-14.1959	-24.770408	0.000113	1.126720	0.381743	-0.009237
1357	6.7800e-01	-14.2408	-24.824716	0.000132	1.324939	0.448902	-0.010862
1358	6.7850e-01	-14.2584	-24.879880	0.000135	1.345804	0.455971	-0.011033
1359	6.7900e-01	-14.3049	-24.934616	0.000134	1.335372	0.452436	-0.010947
1360	6.7950e-01	-14.3450	-24.987641	0.000129	1.293642	0.438298	-0.010605
1361	6.8000e-01	-14.3675	-25.042378	0.000134	1.335372	0.452436	-0.010947
1362	6.8050e-01	-14.4317	-25.092837	0.000123	1.231046	0.417090	-0.010092
1363	6.8100e-01	-14.4525	-25.145008	0.000127	1.272776	0.431228	-0.010434
1364	6.8150e-01	-14.4814	-25.193757	0.000119	1.189316	0.402951	-0.009750
1365	6.8200e-01	-14.5376	-25.247210	0.000130	1.304074	0.441832	-0.010691
1366	6.8250e-01	-14.5680	-25.303229	0.000137	1.366670	0.463040	-0.011204
1367	6.8300e-01	-14.6162	-25.357110	0.000131	1.314507	0.445367	-0.010776
1368	6.8350e-01	-14.6386	-25.412273	0.000135	1.345804	0.455971	-0.011033
1369	6.8400e-01	-14.6980	-25.453753	0.000101	1.011962	0.342862	-0.008296
1370	6.8450e-01	-14.7349	-25.514476	0.000148	1.481428	0.501921	-0.012145
1371	6.8500e-01	-14.7878	-25.561942	0.000116	1.158018	0.392347	-0.009493
1372	6.8550e-01	-14.8295	-25.603422	0.000101	1.011962	0.342862	-0.008296
1373	6.8600e-01	-14.8632	-25.671414	0.000166	1.658782	0.562011	-0.013598
1374	6.8650e-01	-14.8953	-25.713749	0.000103	1.032827	0.349931	-0.008467
1375	6.8700e-01	-14.9514	-25.774472	0.000148	1.481428	0.501921	-0.012145
1376	6.8750e-01	-14.9707	-25.829208	0.000134	1.335372	0.452436	-0.010947
1377	6.8800e-01	-15.0044	-25.883089	0.000131	1.314507	0.445367	-0.010776
1378	6.8850e-01	-15.0686	-25.926707	0.000106	1.064124	0.360535	-0.008724
1379	6.8900e-01	-15.0894	-25.984864	0.000142	1.418833	0.480714	-0.011631
1380	6.8950e-01	-15.1600	-26.035323	0.000123	1.231046	0.417090	-0.010092
1381	6.9000e-01	-15.2017	-26.093053	0.000141	1.408400	0.477179	-0.011546
1382	6.9050e-01	-15.2178	-26.146078	0.000129	1.293642	0.438298	-0.010605
1383	6.9100e-01	-15.2563	-26.196111	0.000122	1.220613	0.413555	-0.010006
1384	6.9150e-01	-15.3317	-26.244432	0.000118	1.178883	0.399416	-0.009664
1385	6.9200e-01	-15.3445	-26.294892	0.000123	1.231046	0.417090	-0.010092
1386	6.9250e-01	-15.3686	-26.357325	0.000152	1.523159	0.516060	-0.012487
1387	6.9300e-01	-15.3878	-26.407357	0.000122	1.220613	0.413555	-0.010006
1388	6.9350e-01	-15.4600	-26.454396	0.000115	1.147585	0.388812	-0.009408
1389	6.9400e-01	-15.4953	-26.509987	0.000136	1.356237	0.459506	-0.011118
1390	6.9450e-01	-15.5386	-26.555743	0.000112	1.116287	0.378208	-0.009151
1391	6.9500e-01	-15.5996	-26.608341	0.000128	1.283209	0.434763	-0.010520
1392	6.9550e-01	-15.6236	-26.665643	0.000140	1.397967	0.473644	-0.011460
1393	6.9600e-01	-15.6653	-26.719951	0.000132	1.324939	0.448902	-0.010862
1394	6.9650e-01	-15.6910	-26.778109	0.000142	1.418833	0.480714	-0.011631
1395	6.9700e-01	-15.7488	-26.822582	0.000108	1.084990	0.367604	-0.008895
1396	6.9750e-01	-15.7873	-26.869193	0.000114	1.137153	0.385278	-0.009322
1397	6.9800e-01	-15.8386	-26.926067	0.000139	1.387535	0.470110	-0.011375
1398	6.9850e-01	-15.8883	-26.978665	0.000128	1.283209	0.434763	-0.010520
1399	6.9900e-01	-15.9076	-27.029125	0.000123	1.231046	0.417090	-0.010092
1400	6.9950e-01	-15.9188	-27.079157	0.000122	1.220613	0.413555	-0.010006
1401	7.0000e-01	-15.9717	-27.133037	0.000131	1.314507	0.445367	-0.010776
1402	7.0050e-01	-16.0231	-27.184780	0.000126	1.262344	0.427694	-0.010349
1403	7.0100e-01	-16.0487	-27.243792	0.000144	1.439698	0.487783	-0.011802
1404	7.0150e-01	-16.0792	-27.295107	0.000125	1.251911	0.424159	-0.010263
1405	7.0200e-01	-16.1386	-27.350699	0.000136	1.356237	0.459506	-0.011118
1406	7.0250e-01	-16.2124	-27.397310	0.000114	1.137153	0.385278	-0.009322
1407	7.0300e-01	-16.2204	-27.452474	0.000135	1.345804	0.455971	-0.011033
1408	7.0350e-01	-16.2605	-27.504216	0.000126	1.262344	0.427694	-0.010349
1409	7.0400e-01	-16.2910	-27.558525	0.000132	1.324939	0.448902	-0.010862
1410	7.0450e-01	-16.3696	-27.612405	0.000131	1.314507	0.445367	-0.010776
1411	7.0500e-01	-16.3584	-27.664148	-0.000126	-1.262344	-0.427694	-0.010349
1412	7.0550e-01	-16.4257	-27.716746	0.000128	1.283209	0.434763	-0.010520
1413	7.0600e-01	-16.4819	-27.769772	0.000129	1.293642	0.438298	-0.010605
1414	7.0650e-01	-16.5060	-27.817238	0.000116	1.158018	0.392347	-0.009493
1415	7.0700e-01	-16.5300	-27.876250	0.000144	1.439698	0.487783	-0.011802
1416	7.0750e-01	-16.5797	-27.926282	0.000122	1.220613	0.413555	-0.010006
1417	7.0800e-01	-16.6166	-27.976742	0.000123	1.231046	0.417090	-0.010092
1418	7.0850e-01	-16.6311	-28.037893	0.000149	1.491861	0.505456	-0.012230
1419	7.0900e-01	-16.6936	-28.084504	0.000114	1.137153	0.385278	-0.009322
1420	7.0950e-01	-16.7514	-28.138385	0.000131	1.314507	0.445367	-0.010776
1421	7.1000e-01	-16.7642	-28.196114	0.000141	1.408400	0.477179	-0.011546
1422	7.1050e-01	-16.8140	-28.240587	0.000108	1.084990	0.367604	-0.008895
1423	7.1100e-01	-16.8284	-28.300454	0.000146	1.460563	0.494852	-0.011974
1424	7.1150e-01	-16.9086	-28.350487	0.000122	1.220613	0.413555	-0.010006
1425	7.1200e-01	-16.9487	-28.401802	0.000125	1.251911	0.424159	-0.010263
1426	7.1250e-01	-16.9696	-28.453544	0.000126	1.262344	0.427694	-0.010349
1427	7.1300e-01	-17.0402	-28.506142	0.000128	1.283209	0.434763	-0.010520
1428	7.1350e-01	-17.0803	-28.562589	0.000138	1.377102	0.466575	-0.011289
1429	7.1400e-01	-17.1059	-28.621173	0.000143	1.429265	0.484248	-0.011717
1430	7.1450e-01	-17.1380	-28.672061	0.000124	1.241479	0.420624	-0.010177
1431	7.1500e-01	-17.1765	-28.723376	0.000125	1.251911	0.424159	-0.010263
1432	7.1550e-01	-17.2214	-28.770842	0.000116	1.158018	0.392347	-0.009493
1433	7.1600e-01	-17.2680	-28.831993	0.000149	1.491861	0.505456	-0.012230
1434	7.1650e-01	-17.3081	-28.881170	0.000120	1.199748	0.406486	-0.009835
1435	7.1700e-01	-17.3369	-28.932057	0.000124	1.241479	0.420624	-0.010177
1436	7.1750e-01	-17.4043	-28.984655	0.000128	1.283209	0.434763	-0.010520
1437	7.1800e-01	-17.4139	-29.045378	0.000148	1.481428	0.501921	-0.012145
1438	7.1850e-01	-17.4845	-29.100969	0.000136	1.356237	0.459506	-0.011118
1439	7.1900e-01	-17.5022	-29.151001	0.000122	1.220613	0.413555	-0.010006
1440	7.1950e-01	-17.5471	-29.204027	0.000129	1.293642	0.438298	-0.010605
1441	7.2000e-01	-17.5647	-29.266460	0.000152	1.523159	0.516060	-0.012487
1442	7.2050e-01	-17.6369	-29.319486	0.000129	1.293642	0.438298	-0.010605
1443	7.2100e-01	-17.6578	-29.370373	0.000124	1.241479	0.420624	-0.010177
1444	7.2150e-01	-17.7188	-29.421260	0.000124	1.241479	0.420624	-0.010177
1445	7.2200e-01	-17.7268	-29.487970	0.000163	1.627484	0.551407	-0.013342
1446	7.2250e-01	-17.7909	-29.532015	0.000107	1.074557	0.364070	-0.008809
1447	7.2300e-01	-17.8615	-29.585041	0.000129	1.293642	0.438298	-0.010605
1448	7.2350e-01	-17.8663	-29.645336	0.000147	1.470996	0.498387	-0.012059
1449	7.2400e-01	-17.8984	-29.699644	0.000132	1.324939	0.448902	-0.010862
1450	7.2450e-01	-17.9337	-29.756946	0.000140	1.397967	0.473644	-0.011460
1451	7.2500e-01	-17.9851	-29.807406	0.000123	1.231046	0.417090	-0.010092
1452	7.2550e-01	-18.0268	-29.858293	0.000124	1.241479	0.420624	-0.010177
1453	7.2600e-01	-18.0685	-29.913029	0.000134	1.335372	0.452436	-0.010947
1454	7.2650e-01	-18.1166	-29.967338	0.000132	1.324939	0.448902	-0.010862
1455	7.2700e-01	-18.1471	-30.029343	0.000151	1.512726	0.512525	-0.012401
1456	7.2750e-01	-18.2048	-30.078948	0.000121	1.210181	0.410020	-0.009921
1457	7.2800e-01	-18.1968	-30.134539	-0.000136	-1.356237	-0.459506	-0.011118
1458	7.2850e-01	-18.2546	-30.195262	0.000148	1.481428	0.501921	-0.012145
1459	7.2900e-01	-18.2722	-30.223913	0.000070	0.698984	0.236822	-0.005730
1460	7.2950e-01	-18.3332	-30.296609	0.000177	1.773541	0.600892	-0.014539
1461	7.3000e-01	-18.3861	-30.354339	0.000141	1.408400	0.477179	-0.011546
1462	7.3050e-01	-18.4423	-30.412496	0.000142	1.418833	0.480714	-0.011631
1463	7.3100e-01	-18.4631	-30.465094	0.000128	1.283209	0.434763	-0.010520
1464	7.3150e-01	-18.4856	-30.529237	0.000156	1.564889	0.530199	-0.012829
1465	7.3200e-01	-18.5417	-30.580980	0.000126	1.262344	0.427694	-0.010349
1466	7.3250e-01	-18.5882	-30.637854	0.000139	1.387535	0.470110	-0.011375
1467	7.3300e-01	-18.5995	-30.696439	0.000143	1.429265	0.484248	-0.011717
1468	7.3350e-01	-18.6588	-30.748182	0.000126	1.262344	0.427694	-0.010349
1469	7.3400e-01	-18.7278	-30.802918	0.000134	1.335372	0.452436	-0.010947
1470	7.3450e-01	-18.7663	-30.860647	0.000141	1.408400	0.477179	-0.011546
1471	7.3500e-01	-18.7727	-30.917094	0.000138	1.377102	0.466575	-0.011289
1472	7.3550e-01	-18.8096	-30.972257	0.000135	1.345804	0.455971	-0.011033
1473	7.3600e-01	-18.8674	-31.029131	0.000139	1.387535	0.470110	-0.011375
1474	7.3650e-01	-18.8930	-31.083867	0.000134	1.335372	0.452436	-0.010947
1475	7.3700e-01	-18.9492	-31.141169	0.000140	1.397967	0.473644	-0.011460
1476	7.3750e-01	-18.9829	-31.201037	0.000146	1.460563	0.494852	-0.011974
1477	7.3800e-01	-19.0310	-31.255345	0.000132	1.324939	0.448902	-0.010862
1478	7.3850e-01	-19.0551	-31.318206	0.000153	1.533591	0.519595	-0.012572
1479	7.3900e-01	-19.0952	-31.370376	0.000127	1.272776	0.431228	-0.010434
1480	7.3950e-01	-19.1465	-31.431954	0.000150	1.502293	0.508991	-0.012316
1481	7.4000e-01	-19.2043	-31.486263	0.000132	1.324939	0.448902	-0.010862
1482	7.4050e-01	-19.2155	-31.545275	0.000144	1.439698	0.487783	-0.011802
1483	7.4100e-01	-19.2604	-31.597445	0.000127	1.272776	0.431228	-0.010434
1484	7.4150e-01	-19.3230	-31.656885	0.000145	1.450130	0.491317	-0.011888
1485	7.4200e-01	-19.2845	-31.727871	-0.000173	-1.731810	-0.586753	-0.014197
1486	7.4250e-01	-19.3791	-31.780897	0.000129	1.293642	0.438298	-0.010605
1487	7.4300e-01	-19.4112	-31.834350	0.000130	1.304074	0.441832	-0.010691
1488	7.4350e-01	-19.4706	-31.890796	0.000138	1.377102	0.466575	-0.011289
1489	7.4400e-01	-19.4770	-31.954085	0.000154	1.544024	0.523129	-0.012658
1490	7.4450e-01	-19.5380	-32.006255	0.000127	1.272776	0.431228	-0.010434
1491	7.4500e-01	-19.5781	-32.067406	0.000149	1.491861	0.505456	-0.012230
1492	7.4550e-01	-19.6069	-32.128556	0.000149	1.491861	0.505456	-0.012230
1493	7.4600e-01	-19.6663	-32.182437	0.000131	1.314507	0.445367	-0.010776
1494	7.4650e-01	-19.7096	-32.240166	0.000141	1.408400	0.477179	-0.011546
1495	7.4700e-01	-19.7208	-32.301744	0.000150	1.502293	0.508991	-0.012316
1496	7.4750e-01	-19.7674	-32.356053	0.000132	1.324939	0.448902	-0.010862
1497	7.4800e-01	-19.8187	-32.422762	0.000163	1.627484	0.551407	-0.013342
1498	7.4850e-01	-19.8861	-32.476643	0.000131	1.314507	0.445367	-0.010776
1499	7.4900e-01	-19.8989	-32.534800	0.000142	1.418833	0.480714	-0.011631
1500	7.4950e-01	-19.9599	-32.597661	0.000153	1.533591	0.519595	-0.012572
1501	7.5000e-01	-19.9823	-32.656246	0.000143	1.429265	0.484248	-0.011717
1502	7.5050e-01	-19.9085	-32.706278	-0.000122	-1.220613	-0.413555	-0.010006
1503	7.5100e-01	-19.8957	-32.720817	-0.000035	-0.354708	-0.120178	-0.002908
1504	7.5150e-01	-19.8444	-32.720817	0.000000	0.000000	0.000000	0.000000
1505	7.5200e-01	-19.7946	-32.708416	0.000030	0.302545	0.102505	0.002480
1506	7.5250e-01	-19.7561	-32.687462	0.000051	0.511197	0.173198	0.004191
1507	7.5300e-01	-19.7048	-32.662660	0.000061	0.605090	0.205010	0.004960
1508	7.5350e-01	-19.6583	-32.653252	0.000023	0.229517	0.077762	0.001882
1509	7.5400e-01	-19.6310	-32.622036	0.000076	0.761579	0.258030	0.006243
1510	7.5450e-01	-19.5893	-32.588681	0.000081	0.813742	0.275703	0.006671
1511	7.5500e-01	-19.5588	-32.560457	0.000069	0.688551	0.233287	0.005645
1512	7.5550e-01	-19.5380	-32.525820	0.000085	0.845040	0.286307	0.006928
1513	7.5600e-01	-19.4449	-32.497597	0.000069	0.688551	0.233287	0.005645
1514	7.5650e-01	-19.4289	-32.465952	0.000077	0.772012	0.261565	0.006329
1515	7.5700e-01	-19.4128	-32.437729	0.000069	0.688551	0.233287	0.005645
1516	7.5750e-01	-19.3230	-32.408651	0.000071	0.709416	0.240357	0.005816
1517	7.5800e-01	-19.3021	-32.371875	0.000090	0.897203	0.303981	0.007355
1518	7.5850e-01	-19.3214	-32.335954	-0.000088	-0.876338	-0.296911	0.007184
1519	7.5900e-01	-19.2444	-32.304310	0.000077	0.772012	0.261565	0.006329
1520	7.5950e-01	-19.1995	-32.279935	0.000059	0.594658	0.201476	0.004875
1521	7.6000e-01	-19.1770	-32.244015	0.000088	0.876338	0.296911	0.007184
1522	7.6050e-01	-19.1128	-32.211088	0.000080	0.803310	0.272169	0.006585
1523	7.6100e-01	-19.0695	-32.180299	0.000075	0.751147	0.254495	0.006158
1524	7.6150e-01	-19.0374	-32.140102	0.000098	0.980664	0.332258	0.008039
1525	7.6200e-01	-18.9701	-32.105037	0.000086	0.855473	0.289842	0.007013
1526	7.6250e-01	-18.9636	-32.075103	0.000073	0.730282	0.247426	0.005987
1527	7.6300e-01	-18.9059	-32.035334	0.000097	0.970231	0.328723	0.007954
1528	7.6350e-01	-18.8802	-32.003689	0.000077	0.772012	0.261565	0.006329
1529	7.6400e-01	-18.8481	-31.964348	0.000096	0.959799	0.325189	0.007868
1530	7.6450e-01	-18.7984	-31.926717	0.000092	0.918068	0.311050	0.007526
1531	7.6500e-01	-18.7503	-31.882671	0.000107	1.074557	0.364070	0.008809
1532	7.6550e-01	-18.7086	-31.848461	0.000083	0.834607	0.282773	0.006842
1533	7.6600e-01	-18.6636	-31.815962	0.000079	0.792877	0.268634	0.006500
1534	7.6650e-01	-18.6348	-31.777476	0.000094	0.938933	0.318119	0.007697
1535	7.6700e-01	-18.5963	-31.737706	0.000097	0.970231	0.328723	0.007954
1536	7.6750e-01	-18.5449	-31.702214	0.000087	0.865905	0.293377	0.007099
1537	7.6800e-01	-18.4904	-31.665438	0.000090	0.897203	0.303981	0.007355
1538	7.6850e-01	-18.4695	-31.624386	0.000100	1.001529	0.339327	0.008210
1539	7.6900e-01	-18.4070	-31.583334	0.000100	1.001529	0.339327	0.008210
1540	7.6950e-01	-18.3781	-31.541854	0.000101	1.011962	0.342862	0.008296
1541	7.7000e-01	-18.3797	-31.502940	-0.000095	-0.949366	-0.321654	0.007783
1542	7.7050e-01	-18.3011	-31.461888	0.000100	1.001529	0.339327	0.008210
1543	7.7100e-01	-18.2915	-31.429389	0.000079	0.792877	0.268634	0.006500
1544	7.7150e-01	-18.2481	-31.387909	0.000101	1.011962	0.342862	0.008296
1545	7.7200e-01	-18.1952	-31.347712	0.000098	0.980664	0.332258	0.008039
1546	7.7250e-01	-18.1375	-31.306233	0.000101	1.011962	0.342862	0.008296
1547	7.7300e-01	-18.1118	-31.269029	0.000091	0.907636	0.307515	0.007441
1548	7.7350e-01	-18.0941	-31.224984	0.000107	1.074557	0.364070	0.008809
1549	7.7400e-01	-18.0332	-31.182649	0.000103	1.032827	0.349931	0.008467
1550	7.7450e-01	-17.9834	-31.143735	0.000095	0.949366	0.321654	0.007783
1551	7.7500e-01	-17.9401	-31.113374	0.000074	0.740714	0.250961	0.006072
1552	7.7550e-01	-17.9016	-31.063341	0.000122	1.220613	0.413555	0.010006
1553	7.7600e-01	-17.8599	-31.026566	0.000090	0.897203	0.303981	0.007355
1554	7.7650e-01	-17.8246	-30.979954	0.000114	1.137153	0.385278	0.009322
1555	7.7700e-01	-17.7877	-30.938475	0.000101	1.011962	0.342862	0.008296
1556	7.7750e-01	-17.7637	-30.901699	0.000090	0.897203	0.303981	0.007355
1557	7.7800e-01	-17.7268	-30.859364	0.000103	1.032827	0.349931	0.008467
1558	7.7850e-01	-17.6802	-30.811042	0.000118	1.178883	0.399416	0.009664
1559	7.7900e-01	-17.6209	-30.772129	0.000095	0.949366	0.321654	0.007783
1560	7.7950e-01	-17.5872	-30.729794	0.000103	1.032827	0.349931	0.008467
1561	7.8000e-01	-17.5359	-30.692590	0.000091	0.907636	0.307515	0.007441
1562	7.8050e-01	-17.4861	-30.650255	0.000103	1.032827	0.349931	0.008467
1563	7.8100e-01	-17.4910	-30.608776	-0.000101	-1.011962	-0.342862	0.008296
1564	7.8150e-01	-17.4188	-30.572428	0.000089	0.886770	0.300446	0.007270
1565	7.8200e-01	-17.3851	-30.526672	0.000112	1.116287	0.378208	0.009151
1566	7.8250e-01	-17.3273	-30.486903	0.000097	0.970231	0.328723	0.007954
1567	7.8300e-01	-17.2952	-30.440291	0.000114	1.137153	0.385278	0.009322
1568	7.8350e-01	-17.2631	-30.404371	0.000088	0.876338	0.296911	0.007184
1569	7.8400e-01	-17.2439	-30.359898	0.000108	1.084990	0.367604	0.008895
1570	7.8450e-01	-17.1942	-30.312859	0.000115	1.147585	0.388812	0.009408
1571	7.8500e-01	-17.1621	-30.273945	0.000095	0.949366	0.321654	0.007783
1572	7.8550e-01	-17.1124	-30.229044	0.000110	1.095422	0.371139	0.008980
1573	7.8600e-01	-17.0562	-30.185427	0.000106	1.064124	0.360535	0.008724
1574	7.8650e-01	-17.0434	-30.146513	0.000095	0.949366	0.321654	0.007783
1575	7.8700e-01	-16.9760	-30.106316	0.000098	0.980664	0.332258	0.008039
1576	7.8750e-01	-16.9391	-30.060988	0.000111	1.105855	0.374674	0.009066
1577	7.8800e-01	-16.9166	-30.020791	0.000098	0.980664	0.332258	0.008039
1578	7.8850e-01	-16.8974	-29.971186	0.000121	1.210181	0.410020	0.009921
1579	7.8900e-01	-16.8557	-29.926286	0.000110	1.095422	0.371139	0.008980
1580	7.8950e-01	-16.8043	-29.891221	0.000086	0.855473	0.289842	0.007013
1581	7.9000e-01	-16.7755	-29.849741	0.000101	1.011962	0.342862	0.008296
1582	7.9050e-01	-16.7081	-29.804413	0.000111	1.105855	0.374674	0.009066
1583	7.9100e-01	-16.6616	-29.757801	0.000114	1.137153	0.385278	0.009322
1584	7.9150e-01	-16.6279	-29.710335	0.000116	1.158018	0.392347	0.009493
1585	7.9200e-01	-16.6118	-29.671421	0.000095	0.949366	0.321654	0.007783
1586	7.9250e-01	-16.5589	-29.628659	0.000104	1.043259	0.353466	0.008553
1587	7.9300e-01	-16.5092	-29.585041	0.000106	1.064124	0.360535	0.008724
1588	7.9350e-01	-16.4899	-29.543561	0.000101	1.011962	0.342862	0.008296
1589	7.9400e-01	-16.4402	-29.494384	0.000120	1.199748	0.406486	0.009835
1590	7.9450e-01	-16.3937	-29.454615	0.000097	0.970231	0.328723	0.007954
1591	7.9500e-01	-16.3568	-29.416984	0.000092	0.918068	0.311050	0.007526
1592	7.9550e-01	-16.3183	-29.369945	0.000115	1.147585	0.388812	0.009408
1593	7.9600e-01	-16.2701	-29.322051	0.000117	1.168450	0.395882	0.009579
1594	7.9650e-01	-16.2364	-29.276295	0.000112	1.116287	0.378208	0.009151
1595	7.9700e-01	-16.1931	-29.240802	0.000087	0.865905	0.293377	0.007099
1596	7.9750e-01	-16.1402	-29.188205	0.000128	1.283209	0.434763	0.010520
1597	7.9800e-01	-16.0872	-29.157416	0.000075	0.751147	0.254495	0.006158
1598	7.9850e-01	-16.0616	-29.102680	0.000134	1.335372	0.452436	0.010947
1599	7.9900e-01	-16.0022	-29.060345	0.000103	1.032827	0.349931	0.008467
1600	7.9950e-01	-16.0086	-29.012023	-0.000118	-1.178883	-0.399416	0.009664
1601	8.0000e-01	-15.9669	-28.969688	0.000103	1.032827	0.349931	0.008467
1602	8.0050e-01	-15.8851	-28.926070	0.000106	1.064124	0.360535	0.008724
1603	8.0100e-01	-15.9076	-28.880314	-0.000112	-1.116287	-0.378208	0.009151
1604	8.0150e-01	-15.8322	-28.835414	0.000110	1.095422	0.371139	0.008980
1605	8.0200e-01	-15.8001	-28.791796	0.000106	1.064124	0.360535	0.008724
1606	8.0250e-01	-15.7504	-28.750316	0.000101	1.011962	0.342862	0.008296
1607	8.0300e-01	-15.6974	-28.707981	0.000103	1.032827	0.349931	0.008467
1608	8.0350e-01	-15.6573	-28.661798	0.000113	1.126720	0.381743	0.009237
1609	8.0400e-01	-15.6750	-28.617325	-0.000108	-1.084990	-0.367604	0.008895
1610	8.0450e-01	-15.6076	-28.571141	0.000113	1.126720	0.381743	0.009237
1611	8.0500e-01	-15.5595	-28.526241	0.000110	1.095422	0.371139	0.008980
1612	8.0550e-01	-15.5033	-28.481768	0.000108	1.084990	0.367604	0.008895
1613	8.0600e-01	-15.4776	-28.434301	0.000116	1.158018	0.392347	0.009493
1614	8.0650e-01	-15.4456	-28.390256	0.000107	1.074557	0.364070	0.008809
1615	8.0700e-01	-15.4071	-28.341507	0.000119	1.189316	0.402951	0.009750
1616	8.0750e-01	-15.3621	-28.294040	0.000116	1.158018	0.392347	0.009493
1617	8.0800e-01	-15.3300	-28.252988	0.000100	1.001529	0.339327	0.008210
1618	8.0850e-01	-15.2627	-28.205949	0.000115	1.147585	0.388812	0.009408
1619	8.0900e-01	-15.2258	-28.164470	0.000101	1.011962	0.342862	0.008296
1620	8.0950e-01	-15.1809	-28.119569	0.000110	1.095422	0.371139	0.008980
1621	8.1000e-01	-15.1343	-28.071675	0.000117	1.168450	0.395882	0.009579
1622	8.1050e-01	-15.1087	-28.026347	0.000111	1.105855	0.374674	0.009066
1623	8.1100e-01	-15.1167	-27.976315	-0.000122	-1.220613	-0.413555	0.010006
1624	8.1150e-01	-15.0397	-27.933552	0.000104	1.043259	0.353466	0.008553
1625	8.1200e-01	-14.9819	-27.892500	0.000100	1.001529	0.339327	0.008210
1626	8.1250e-01	-14.9563	-27.843323	0.000120	1.199748	0.406486	0.009835
1627	8.1300e-01	-14.8905	-27.800988	0.000103	1.032827	0.349931	0.008467
1628	8.1350e-01	-14.8889	-27.744969	0.000137	1.366670	0.463040	0.011204
1629	8.1400e-01	-14.8167	-27.701351	0.000106	1.064124	0.360535	0.008724
1630	8.1450e-01	-14.8055	-27.659017	0.000103	1.032827	0.349931	0.008467
1631	8.1500e-01	-14.7397	-27.612405	0.000114	1.137153	0.385278	0.009322
1632	8.1550e-01	-14.7092	-27.556387	0.000137	1.366670	0.463040	0.011204
1633	8.1600e-01	-14.6306	-27.518328	0.000093	0.928501	0.314585	0.007612
1634	8.1650e-01	-14.6354	-27.468296	-0.000122	-1.220613	-0.413555	0.010006
1635	8.1700e-01	-14.6258	-27.394744	0.000179	1.794406	0.607961	0.014710
1636	8.1750e-01	-14.5632	-27.375501	0.000047	0.469467	0.159060	0.003849
1637	8.1800e-01	-14.4942	-27.325896	0.000121	1.210181	0.410020	0.009921
1638	8.1850e-01	-14.4573	-27.285272	0.000099	0.991096	0.335793	0.008125
1639	8.1900e-01	-14.4525	-27.241227	0.000107	1.074557	0.364070	0.008809
1640	8.1950e-01	-14.4204	-27.194188	0.000115	1.147585	0.388812	0.009408
1641	8.2000e-01	-14.3595	-27.145439	0.000119	1.189316	0.402951	0.009750
1642	8.2050e-01	-14.3258	-27.097117	0.000118	1.178883	0.399416	0.009664
1643	8.2100e-01	-14.2520	-27.051361	0.000112	1.116287	0.378208	0.009151
1644	8.2150e-01	-14.2408	-27.005178	0.000113	1.126720	0.381743	0.009237
1645	8.2200e-01	-14.1959	-26.961987	0.000105	1.053692	0.357000	0.008638
1646	8.2250e-01	-14.1686	-26.906396	0.000136	1.356237	0.459506	0.011118
1647	8.2300e-01	-14.1012	-26.858074	0.000118	1.178883	0.399416	0.009664
1648	8.2350e-01	-14.0467	-26.811891	0.000113	1.126720	0.381743	0.009237
1649	8.2400e-01	-14.0451	-26.755017	0.000139	1.387535	0.470110	0.011375
1650	8.2450e-01	-13.9985	-26.718241	0.000090	0.897203	0.303981	0.007355
1651	8.2500e-01	-13.9424	-26.666071	0.000127	1.272776	0.431228	0.010434
1652	8.2550e-01	-13.9007	-26.625446	0.000099	0.991096	0.335793	0.008125
1653	8.2600e-01	-13.8814	-26.571138	0.000132	1.324939	0.448902	0.010862
1654	8.2650e-01	-13.8189	-26.528375	0.000104	1.043259	0.353466	0.008553
1655	8.2700e-01	-13.8012	-26.477916	0.000123	1.231046	0.417090	0.010092
1656	8.2750e-01	-13.7403	-26.432587	0.000111	1.105855	0.374674	0.009066
1657	8.2800e-01	-13.6985	-26.383410	0.000120	1.199748	0.406486	0.009835
1658	8.2850e-01	-13.6793	-26.331240	0.000127	1.272776	0.431228	0.010434
1659	8.2900e-01	-13.6536	-26.287622	0.000106	1.064124	0.360535	0.008724
1660	8.2950e-01	-13.5750	-26.238018	0.000121	1.210181	0.410020	0.009921
1661	8.3000e-01	-13.5574	-26.190979	0.000115	1.147585	0.388812	0.009408
1662	8.3050e-01	-13.5092	-26.138381	0.000128	1.283209	0.434763	0.010520
1663	8.3100e-01	-13.4804	-26.093908	0.000108	1.084990	0.367604	0.008895
1664	8.3150e-01	-13.4451	-26.045586	0.000118	1.178883	0.399416	0.009664
1665	8.3200e-01	-13.3793	-25.997692	0.000117	1.168450	0.395882	0.009579
1666	8.3250e-01	-13.3697	-25.945094	0.000128	1.283209	0.434763	0.010520
1667	8.3300e-01	-13.3071	-25.896773	0.000118	1.178883	0.399416	0.009664
1668	8.3350e-01	-13.3007	-25.857004	0.000097	0.970231	0.328723	0.007954
1669	8.3400e-01	-13.2125	-25.805261	0.000126	1.262344	0.427694	0.010349
1670	8.3450e-01	-13.2285	-25.756512	-0.000119	-1.189316	-0.402951	0.009750
1671	8.3500e-01	-13.1467	-25.704769	0.000126	1.262344	0.427694	0.010349
1672	8.3550e-01	-13.1306	-25.656447	0.000118	1.178883	0.399416	0.009664
1673	8.3600e-01	-13.0857	-25.612830	0.000106	1.064124	0.360535	0.008724
1674	8.3650e-01	-13.0376	-25.560659	0.000127	1.272776	0.431228	0.010434
1675	8.3700e-01	-13.0071	-25.507206	0.000130	1.304074	0.441832	0.010691
1676	8.3750e-01	-12.9478	-25.468292	0.000095	0.949366	0.321654	0.007783
1677	8.3800e-01	-12.9125	-25.416550	0.000126	1.262344	0.427694	0.010349
1678	8.3850e-01	-12.8467	-25.370794	0.000112	1.116287	0.378208	0.009151
1679	8.3900e-01	-12.8788	-25.310071	-0.000148	-1.481428	-0.501921	0.012145
1680	8.3950e-01	-12.7793	-25.266453	0.000106	1.064124	0.360535	0.008724
1681	8.4000e-01	-12.7713	-25.216421	0.000122	1.220613	0.413555	0.010006
1682	8.4050e-01	-12.7312	-25.166816	0.000121	1.210181	0.410020	0.009921
1683	8.4100e-01	-12.6879	-25.121061	0.000112	1.116287	0.378208	0.009151
1684	8.4150e-01	-12.6253	-25.071028	0.000122	1.220613	0.413555	0.010006
1685	8.4200e-01	-12.6109	-25.017148	0.000131	1.314507	0.445367	0.010776
1686	8.4250e-01	-12.5451	-24.973957	0.000105	1.053692	0.357000	0.008638
1687	8.4300e-01	-12.5355	-24.917083	0.000139	1.387535	0.470110	0.011375
1688	8.4350e-01	-12.4761	-24.871327	0.000112	1.116287	0.378208	0.009151
1689	8.4400e-01	-12.4312	-24.819585	0.000126	1.262344	0.427694	0.010349
1690	8.4450e-01	-12.4039	-24.763138	0.000138	1.377102	0.466575	0.011289
1691	8.4500e-01	-12.3366	-24.720803	0.000103	1.032827	0.349931	0.008467
1692	8.4550e-01	-12.2916	-24.667778	0.000129	1.293642	0.438298	0.010605
1693	8.4600e-01	-12.2708	-24.617318	0.000123	1.231046	0.417090	0.010092
1694	8.4650e-01	-12.2499	-24.566003	0.000125	1.251911	0.424159	0.010263
1695	8.4700e-01	-12.1745	-24.520675	0.000111	1.105855	0.374674	0.009066
1696	8.4750e-01	-12.1649	-24.465939	0.000134	1.335372	0.452436	0.010947
1697	8.4800e-01	-12.1168	-24.419755	0.000113	1.126720	0.381743	0.009237
1698	8.4850e-01	-12.0767	-24.368440	0.000125	1.251911	0.424159	0.010263
1699	8.4900e-01	-12.0141	-24.320118	0.000118	1.178883	0.399416	0.009664
1700	8.4950e-01	-11.9676	-24.271369	0.000119	1.189316	0.402951	0.009750
1701	8.5000e-01	-11.9580	-24.217916	0.000130	1.304074	0.441832	0.010691
1702	8.5050e-01	-11.9371	-24.161469	0.000138	1.377102	0.466575	0.011289
1703	8.5100e-01	-11.8601	-24.112720	0.000119	1.189316	0.402951	0.009750
1704	8.5150e-01	-11.8473	-24.064826	0.000117	1.168450	0.395882	0.009579
1705	8.5200e-01	-11.8248	-24.014366	0.000123	1.231046	0.417090	0.010092
1706	8.5250e-01	-11.7670	-23.956637	0.000141	1.408400	0.477179	0.011546
1707	8.5300e-01	-11.7125	-23.910881	0.000112	1.116287	0.378208	0.009151
1708	8.5350e-01	-11.7045	-23.859994	0.000124	1.241479	0.420624	0.010177
1709	8.5400e-01	-11.6403	-23.807396	0.000128	1.283209	0.434763	0.010520
1710	8.5450e-01	-11.5826	-23.754370	0.000129	1.293642	0.438298	0.010605
1711	8.5500e-01	-11.5328	-23.703055	0.000125	1.251911	0.424159	0.010263
1712	8.5550e-01	-11.4943	-23.650885	0.000127	1.272776	0.431228	0.010434
1713	8.5600e-01	-11.4494	-23.604274	0.000114	1.137153	0.385278	0.009322
1714	8.5650e-01	-11.4462	-23.548682	0.000136	1.356237	0.459506	0.011118
1715	8.5700e-01	-11.3997	-23.495657	0.000129	1.293642	0.438298	0.010605
1716	8.5750e-01	-11.3387	-23.444769	0.000124	1.241479	0.420624	0.010177
1717	8.5800e-01	-11.3082	-23.389178	0.000136	1.356237	0.459506	0.011118
1718	8.5850e-01	-11.2457	-23.341712	0.000116	1.158018	0.392347	0.009493
1719	8.5900e-01	-11.2152	-23.289114	0.000128	1.283209	0.434763	0.010520
1720	8.5950e-01	-11.2312	-23.233950	-0.000135	-1.345804	-0.455971	0.011033
1721	8.6000e-01	-11.1783	-23.179214	0.000134	1.335372	0.452436	0.010947
1722	8.6050e-01	-11.1221	-23.128327	0.000124	1.241479	0.420624	0.010177
1723	8.6100e-01	-11.0628	-23.094972	0.000081	0.813742	0.275703	0.006671
1724	8.6150e-01	-11.0323	-23.017999	0.000188	1.877867	0.636238	0.015395
1725	8.6200e-01	-10.9938	-22.961981	0.000137	1.366670	0.463040	0.011204
1726	8.6250e-01	-10.9665	-22.912804	0.000120	1.199748	0.406486	0.009835
1727	8.6300e-01	-10.8911	-22.871752	0.000100	1.001529	0.339327	0.008210
1728	8.6350e-01	-10.8751	-22.817016	0.000134	1.335372	0.452436	0.010947
1729	8.6400e-01	-10.8623	-22.760141	0.000139	1.387535	0.470110	0.011375
1730	8.6450e-01	-10.7820	-22.704978	0.000135	1.345804	0.455971	0.011033
1731	8.6500e-01	-10.7644	-22.660077	0.000110	1.095422	0.371139	0.008980
1732	8.6550e-01	-10.7243	-22.602348	0.000141	1.408400	0.477179	0.011546
1733	8.6600e-01	-10.6746	-22.549322	0.000129	1.293642	0.438298	0.010605
1734	8.6650e-01	-10.6024	-22.493731	0.000136	1.356237	0.459506	0.011118
1735	8.6700e-01	-10.5591	-22.444982	0.000119	1.189316	0.402951	0.009750
1736	8.6750e-01	-10.5687	-22.383404	-0.000150	-1.502293	-0.508991	0.012316
1737	8.6800e-01	-10.4917	-22.332089	0.000125	1.251911	0.424159	0.010263
1738	8.6850e-01	-10.4692	-22.283767	0.000118	1.178883	0.399416	0.009664
1739	8.6900e-01	-10.4211	-22.223472	0.000147	1.470996	0.498387	0.012059
1740	8.6950e-01	-10.3826	-22.173012	0.000123	1.231046	0.417090	0.010092
1741	8.7000e-01	-10.3682	-22.121269	0.000126	1.262344	0.427694	0.010349
1742	8.7050e-01	-10.3281	-22.063967	0.000140	1.397967	0.473644	0.011460
1743	8.7100e-01	-10.2543	-22.006238	0.000141	1.408400	0.477179	0.011546
1744	8.7150e-01	-10.2334	-21.957916	0.000118	1.178883	0.399416	0.009664
1745	8.7200e-01	-10.2093	-21.900187	0.000141	1.408400	0.477179	0.011546
1746	8.7250e-01	-10.1564	-21.851865	0.000118	1.178883	0.399416	0.009664
1747	8.7300e-01	-10.0970	-21.797129	0.000134	1.335372	0.452436	0.010947
1748	8.7350e-01	-10.0842	-21.737689	0.000145	1.450130	0.491317	0.011888
1749	8.7400e-01	-10.0249	-21.682098	0.000136	1.356237	0.459506	0.011118
1750	8.7450e-01	-10.0104	-21.627362	0.000134	1.335372	0.452436	0.010947
1751	8.7500e-01	-9.9430	-21.575192	0.000127	1.272776	0.431228	0.010434
1752	8.7550e-01	-9.9174	-21.518318	0.000139	1.387535	0.470110	0.011375
1753	8.7600e-01	-9.8692	-21.467003	0.000125	1.251911	0.424159	0.010263
1754	8.7650e-01	-9.8323	-21.410984	0.000137	1.366670	0.463040	0.011204
1755	8.7700e-01	-9.7778	-21.355392	0.000136	1.356237	0.459506	0.011118
1756	8.7750e-01	-9.7730	-21.303650	0.000126	1.262344	0.427694	0.010349
1757	8.7800e-01	-9.7056	-21.251052	0.000128	1.283209	0.434763	0.010520
1758	8.7850e-01	-9.6735	-21.192467	0.000143	1.429265	0.484248	0.011717
1759	8.7900e-01	-9.6382	-21.133455	0.000144	1.439698	0.487783	0.011802
1760	8.7950e-01	-9.6078	-21.074443	0.000144	1.439698	0.487783	0.011802
1761	8.8000e-01	-9.5307	-21.029970	0.000108	1.084990	0.367604	0.008895
1762	8.8050e-01	-9.5051	-20.969674	0.000147	1.470996	0.498387	0.012059
1763	8.8100e-01	-9.4842	-20.914938	0.000134	1.335372	0.452436	0.010947
1764	8.8150e-01	-9.4666	-20.861913	0.000129	1.293642	0.438298	0.010605
1765	8.8200e-01	-9.4008	-20.800335	0.000150	1.502293	0.508991	0.012316
1766	8.8250e-01	-9.3431	-20.746026	0.000132	1.324939	0.448902	0.010862
1767	8.8300e-01	-9.3318	-20.689152	0.000139	1.387535	0.470110	0.011375
1768	8.8350e-01	-9.2869	-20.636127	0.000129	1.293642	0.438298	0.010605
1769	8.8400e-01	-9.2179	-20.582674	0.000130	1.304074	0.441832	0.010691
1770	8.8450e-01	-9.1874	-20.522378	0.000147	1.470996	0.498387	0.012059
1771	8.8500e-01	-9.1570	-20.468070	0.000132	1.324939	0.448902	0.010862
1772	8.8550e-01	-9.0944	-20.424880	0.000105	1.053692	0.357000	0.008638
1773	8.8600e-01	-9.0607	-20.354749	0.000171	1.710945	0.579684	0.014026
1774	8.8650e-01	-8.9981	-20.300441	0.000132	1.324939	0.448902	0.010862
1775	8.8700e-01	-9.0222	-20.237580	-0.000153	-1.533591	-0.519595	0.012572
1776	8.8750e-01	-8.9661	-20.181561	0.000137	1.366670	0.463040	0.011204
1777	8.8800e-01	-8.8842	-20.122976	0.000143	1.429265	0.484248	0.011717
1778	8.8850e-01	-8.8730	-20.066102	0.000139	1.387535	0.470110	0.011375
1779	8.8900e-01	-8.8249	-20.009228	0.000139	1.387535	0.470110	0.011375
1780	8.8950e-01	-8.7928	-19.949788	0.000145	1.450130	0.491317	0.011888
1781	8.9000e-01	-8.7463	-19.897190	0.000128	1.283209	0.434763	0.010520
1782	8.9050e-01	-8.7014	-19.837323	0.000146	1.460563	0.494852	0.011974
1783	8.9100e-01	-8.6757	-19.779166	0.000142	1.418833	0.480714	0.011631
1784	8.9150e-01	-8.6629	-19.724002	0.000135	1.345804	0.455971	0.011033
1785	8.9200e-01	-8.5826	-19.664990	0.000144	1.439698	0.487783	0.011802
1786	8.9250e-01	-8.5457	-19.612392	0.000128	1.283209	0.434763	0.010520
1787	8.9300e-01	-8.5618	-19.548248	-0.000156	-1.564889	-0.530199	0.012829
1788	8.9350e-01	-8.4752	-19.496078	0.000127	1.272776	0.431228	0.010434
1789	8.9400e-01	-8.4062	-19.441342	0.000134	1.335372	0.452436	0.010947
1790	8.9450e-01	-8.3805	-19.375487	0.000161	1.606619	0.544337	0.013171
1791	8.9500e-01	-8.3548	-19.320751	0.000134	1.335372	0.452436	0.010947
1792	8.9550e-01	-8.3244	-19.257890	0.000153	1.533591	0.519595	0.012572
1793	8.9600e-01	-8.2794	-19.198451	0.000145	1.450130	0.491317	0.011888
1794	8.9650e-01	-8.2249	-19.142859	0.000136	1.356237	0.459506	0.011118
1795	8.9700e-01	-8.1864	-19.085557	0.000140	1.397967	0.473644	0.011460
1796	8.9750e-01	-8.1607	-19.020558	0.000159	1.585754	0.537268	0.013000
1797	8.9800e-01	-8.1094	-18.968816	0.000126	1.262344	0.427694	0.010349
1798	8.9850e-01	-8.0597	-18.909803	0.000144	1.439698	0.487783	0.011802
1799	8.9900e-01	-8.0404	-18.847798	0.000151	1.512726	0.512525	0.012401
1800	8.9950e-01	-8.0067	-18.787503	0.000147	1.470996	0.498387	0.012059
1801	9.0000e-01	-7.9634	-18.723786	0.000155	1.554456	0.526664	0.012743
1802	9.0050e-01	-7.8880	-18.670761	0.000129	1.293642	0.438298	0.010605
1803	9.0100e-01	-7.8591	-18.604479	0.000162	1.617052	0.547872	0.013256
1804	9.0150e-01	-7.8447	-18.548888	0.000136	1.356237	0.459506	0.011118
1805	9.0200e-01	-7.8206	-18.489448	0.000145	1.450130	0.491317	0.011888
1806	9.0250e-01	-7.7645	-18.428297	0.000149	1.491861	0.505456	0.012230
1807	9.0300e-01	-7.7083	-18.368002	0.000147	1.470996	0.498387	0.012059
1808	9.0350e-01	-7.6522	-18.305141	0.000153	1.533591	0.519595	0.012572
1809	9.0400e-01	-7.6121	-18.241853	0.000154	1.544024	0.523129	0.012658
1810	9.0450e-01	-7.5848	-18.184979	0.000139	1.387535	0.470110	0.011375
1811	9.0500e-01	-7.5624	-18.109289	0.000185	1.846569	0.625634	0.015138
1812	9.0550e-01	-7.4998	-18.067809	0.000101	1.011962	0.342862	0.008296
1813	9.0600e-01	-7.4709	-18.007942	0.000146	1.460563	0.494852	0.011974
1814	9.0650e-01	-7.4388	-17.944653	0.000154	1.544024	0.523129	0.012658
1815	9.0700e-01	-7.3987	-17.889490	0.000135	1.345804	0.455971	0.011033
1816	9.0750e-01	-7.3586	-17.825773	0.000155	1.554456	0.526664	0.012743
1817	9.0800e-01	-7.3233	-17.768044	0.000141	1.408400	0.477179	0.011546
1818	9.0850e-01	-7.2961	-17.705183	0.000153	1.533591	0.519595	0.012572
1819	9.0900e-01	-7.2303	-17.647881	0.000140	1.397967	0.473644	0.011460
1820	9.0950e-01	-7.1982	-17.579889	0.000166	1.658782	0.562011	0.013598
1821	9.1000e-01	-7.1356	-17.524298	0.000136	1.356237	0.459506	0.011118
1822	9.1050e-01	-7.1501	-17.448608	-0.000185	-1.846569	-0.625634	0.015138
1823	9.1100e-01	-7.0522	-17.393444	0.000135	1.345804	0.455971	0.011033
1824	9.1150e-01	-7.0378	-17.323741	0.000170	1.700513	0.576149	0.013941
1825	9.1200e-01	-6.9832	-17.263874	0.000146	1.460563	0.494852	0.011974
1826	9.1250e-01	-6.9255	-17.201868	0.000151	1.512726	0.512525	0.012401
1827	9.1300e-01	-6.9030	-17.144566	0.000140	1.397967	0.473644	0.011460
1828	9.1350e-01	-6.8565	-17.081705	0.000153	1.533591	0.519595	0.012572
1829	9.1400e-01	-6.8244	-17.021838	0.000146	1.460563	0.494852	0.011974
1830	9.1450e-01	-6.7971	-16.950852	0.000173	1.731810	0.586753	0.014197
1831	9.1500e-01	-6.7298	-16.888419	0.000152	1.523159	0.516060	0.012487
1832	9.1550e-01	-6.6864	-16.828124	0.000147	1.470996	0.498387	0.012059
1833	9.1600e-01	-6.6351	-16.766973	0.000149	1.491861	0.505456	0.012230
1834	9.1650e-01	-6.6303	-16.704540	0.000152	1.523159	0.516060	0.012487
1835	9.1700e-01	-6.6046	-16.641679	0.000153	1.533591	0.519595	0.012572
1836	9.1750e-01	-6.5677	-16.574114	0.000165	1.648350	0.558476	0.013513
1837	9.1800e-01	-6.5068	-16.511681	0.000152	1.523159	0.516060	0.012487
1838	9.1850e-01	-6.4635	-16.447110	0.000158	1.575322	0.533733	0.012914
1839	9.1900e-01	-6.4394	-16.383821	0.000154	1.544024	0.523129	0.012658
1840	9.1950e-01	-6.3929	-16.315829	0.000166	1.658782	0.562011	0.013598
1841	9.2000e-01	-6.3496	-16.252968	0.000153	1.533591	0.519595	0.012572
1842	9.2050e-01	-6.2950	-16.189679	0.000154	1.544024	0.523129	0.012658
1843	9.2100e-01	-6.2677	-16.127673	0.000151	1.512726	0.512525	0.012401
1844	9.2150e-01	-6.2549	-16.060109	0.000165	1.648350	0.558476	0.013513
1845	9.2200e-01	-6.2180	-15.998531	0.000150	1.502293	0.508991	0.012316
1846	9.2250e-01	-6.1554	-15.930966	0.000165	1.648350	0.558476	0.013513
1847	9.2300e-01	-6.0736	-15.878796	0.000127	1.272776	0.431228	0.010434
1848	9.2350e-01	-6.0720	-15.809948	0.000168	1.679647	0.569080	0.013770
1849	9.2400e-01	-6.0255	-15.744094	0.000161	1.606619	0.544337	0.013171
1850	9.2450e-01	-6.0014	-15.673963	0.000171	1.710945	0.579684	0.014026
1851	9.2500e-01	-5.9373	-15.617089	0.000139	1.387535	0.470110	0.011375
1852	9.2550e-01	-5.9180	-15.544393	0.000177	1.773541	0.600892	0.014539
1853	9.2600e-01	-5.8907	-15.482387	0.000151	1.512726	0.512525	0.012401
1854	9.2650e-01	-5.8314	-15.413112	0.000169	1.690080	0.572615	0.013855
1855	9.2700e-01	-5.7913	-15.347685	0.000160	1.596187	0.540803	0.013085
1856	9.2750e-01	-5.7335	-15.283114	0.000158	1.575322	0.533733	0.012914
1857	9.2800e-01	-5.7111	-15.216404	0.000163	1.627484	0.551407	0.013342
1858	9.2850e-01	-5.6581	-15.150550	0.000161	1.606619	0.544337	0.013171
1859	9.2900e-01	-5.6325	-15.076143	0.000182	1.815271	0.615031	0.014881
1860	9.2950e-01	-5.6036	-15.023973	0.000127	1.272776	0.431228	0.010434
1861	9.3000e-01	-5.5795	-14.945717	0.000191	1.909165	0.646842	0.015651
1862	9.3050e-01	-5.4929	-14.881573	0.000156	1.564889	0.530199	0.012829
1863	9.3100e-01	-5.4817	-14.804173	0.000189	1.888299	0.639773	0.015480
1864	9.3150e-01	-5.4239	-14.745161	0.000144	1.439698	0.487783	0.011802
1865	9.3200e-01	-5.3838	-14.670326	0.000183	1.825704	0.618565	0.014967
1866	9.3250e-01	-5.3453	-14.608748	0.000150	1.502293	0.508991	0.012316
1867	9.3300e-01	-5.3261	-14.535197	0.000179	1.794406	0.607961	0.014710
1868	9.3350e-01	-5.2827	-14.468915	0.000162	1.617052	0.547872	0.013256
1869	9.3400e-01	-5.2346	-14.409047	0.000146	1.460563	0.494852	0.011974
1870	9.3450e-01	-5.1801	-14.329082	0.000195	1.950895	0.660981	0.015993
1871	9.3500e-01	-5.1608	-14.264938	0.000156	1.564889	0.530199	0.012829
1872	9.3550e-01	-5.0934	-14.196945	0.000166	1.658782	0.562011	0.013598
1873	9.3600e-01	-5.0630	-14.127670	0.000169	1.690080	0.572615	0.013855
1874	9.3650e-01	-5.0630	-14.060960	-0.000163	-1.627484	-0.551407	0.013342
1875	9.3700e-01	-4.9827	-13.991685	0.000169	1.690080	0.572615	0.013855
1876	9.3750e-01	-4.9747	-13.914285	0.000189	1.888299	0.639773	0.015480
1877	9.3800e-01	-4.9410	-13.849286	0.000159	1.585754	0.537268	0.013000
1878	9.3850e-01	-4.8737	-13.781721	0.000165	1.648350	0.558476	0.013513
1879	9.3900e-01	-4.8191	-13.713301	0.000167	1.669215	0.565545	0.013684
1880	9.3950e-01	-4.7662	-13.637184	0.000186	1.857002	0.629169	0.015223
1881	9.4000e-01	-4.7983	-13.562777	-0.000182	-1.815271	-0.615031	0.014881
1882	9.4050e-01	-4.6956	-13.495212	0.000165	1.648350	0.558476	0.013513
1883	9.4100e-01	-4.6940	-13.419523	0.000185	1.846569	0.625634	0.015138
1884	9.4150e-01	-4.6394	-13.345543	0.000180	1.804839	0.611496	0.014796
1885	9.4200e-01	-4.5929	-13.279261	0.000162	1.617052	0.547872	0.013256
1886	9.4250e-01	-4.5271	-13.215118	0.000156	1.564889	0.530199	0.012829
1887	9.4300e-01	-4.5287	-13.140711	-0.000182	-1.815271	-0.615031	0.014881
1888	9.4350e-01	-4.4951	-13.064166	0.000187	1.867434	0.632704	0.015309
1889	9.4400e-01	-4.4566	-12.989332	0.000183	1.825704	0.618565	0.014967
1890	9.4450e-01	-4.3394	-12.931602	0.000141	1.408400	0.477179	0.011546
1891	9.4500e-01	-4.3747	-12.849498	-0.000200	-2.003058	-0.678654	0.016421
1892	9.4550e-01	-4.3282	-12.772098	0.000189	1.888299	0.639773	0.015480
1893	9.4600e-01	-4.2544	-12.701967	0.000171	1.710945	0.579684	0.014026
1894	9.4650e-01	-4.2207	-12.630982	0.000173	1.731810	0.586753	0.014197
1895	9.4700e-01	-4.1903	-12.557858	0.000178	1.783973	0.604427	0.014625
1896	9.4750e-01	-4.1774	-12.483878	0.000180	1.804839	0.611496	0.014796
1897	9.4800e-01	-4.1534	-12.404340	0.000194	1.940462	0.657446	0.015908
1898	9.4850e-01	-4.0523	-12.337203	0.000164	1.637917	0.554941	0.013427
1899	9.4900e-01	-4.0571	-12.265362	-0.000175	-1.752676	-0.593823	0.014368
1900	9.4950e-01	-3.9641	-12.181547	0.000204	2.044788	0.692793	0.016763
1901	9.5000e-01	-3.9432	-12.106285	0.000184	1.836136	0.622100	0.015052
1902	9.5050e-01	-3.8951	-12.029313	0.000188	1.877867	0.636238	0.015395
1903	9.5100e-01	-3.8903	-11.958327	0.000173	1.731810	0.586753	0.014197
1904	9.5150e-01	-3.8470	-11.880499	0.000190	1.898732	0.643308	0.015566
1905	9.5200e-01	-3.7956	-11.810796	0.000170	1.700513	0.576149	0.013941
1906	9.5250e-01	-3.7780	-11.729975	0.000197	1.971760	0.668050	0.016164
1907	9.5300e-01	-3.7026	-11.658989	0.000173	1.731810	0.586753	0.014197
1908	9.5350e-01	-3.6528	-11.582017	0.000188	1.877867	0.636238	0.015395
1909	9.5400e-01	-3.6368	-11.499913	0.000200	2.003058	0.678654	0.016421
1910	9.5450e-01	-3.5758	-11.427216	0.000177	1.773541	0.600892	0.014539
1911	9.5500e-01	-3.5438	-11.342974	0.000206	2.055221	0.696328	0.016848
1912	9.5550e-01	-3.4908	-11.273699	0.000169	1.690080	0.572615	0.013855
1913	9.5600e-01	-3.4603	-11.196726	0.000188	1.877867	0.636238	0.015395
1914	9.5650e-01	-3.3962	-11.115905	0.000197	1.971760	0.668050	0.016164
1915	9.5700e-01	-3.4058	-11.035084	-0.000197	-1.971760	-0.668050	0.016164
1916	9.5750e-01	-3.3512	-10.961960	0.000178	1.783973	0.604427	0.014625
1917	9.5800e-01	-3.3224	-10.880711	0.000198	1.982193	0.671585	0.016250
1918	9.5850e-01	-3.2983	-10.793048	0.000214	2.138682	0.724605	0.017533
1919	9.5900e-01	-3.2197	-10.717786	0.000184	1.836136	0.622100	0.015052
1920	9.5950e-01	-3.1748	-10.639103	0.000192	1.919597	0.650377	0.015737
1921	9.6000e-01	-3.1635	-10.556571	0.000201	2.013490	0.682189	0.016506
1922	9.6050e-01	-3.1010	-10.481737	0.000183	1.825704	0.618565	0.014967
1923	9.6100e-01	-3.0609	-10.403909	0.000190	1.898732	0.643308	0.015566
1924	9.6150e-01	-3.0368	-10.315391	0.000216	2.159547	0.731674	0.017704
1925	9.6200e-01	-2.9967	-10.233287	0.000200	2.003058	0.678654	0.016421
1926	9.6250e-01	-2.9261	-10.152893	0.000196	1.961327	0.664516	0.016079
1927	9.6300e-01	-2.9005	-10.075493	0.000189	1.888299	0.639773	0.015480
1928	9.6350e-01	-2.8956	-9.988685	0.000212	2.117816	0.717536	0.017362
1929	9.6400e-01	-2.8106	-9.911285	0.000189	1.888299	0.639773	0.015480
1930	9.6450e-01	-2.7946	-9.823194	0.000215	2.149114	0.728140	0.017618
1931	9.6500e-01	-2.7577	-9.741518	0.000199	1.992625	0.675120	0.016335
1932	9.6550e-01	-2.7272	-9.657275	0.000206	2.055221	0.696328	0.016848
1933	9.6600e-01	-2.6839	-9.575599	0.000199	1.992625	0.675120	0.016335
1934	9.6650e-01	-2.6133	-9.496488	0.000193	1.930030	0.653912	0.015822
1935	9.6700e-01	-2.5876	-9.400273	0.000235	2.347333	0.795298	0.019243
1936	9.6750e-01	-2.5876	-9.322017	-0.000191	-1.909165	-0.646842	0.015651
1937	9.6800e-01	-2.5363	-9.240341	0.000199	1.992625	0.675120	0.016335
1938	9.6850e-01	-2.4978	-9.150539	0.000219	2.190845	0.742278	0.017960
1939	9.6900e-01	-2.4192	-9.077416	0.000178	1.783973	0.604427	0.014625
1940	9.6950e-01	-2.3871	-8.981200	0.000235	2.347333	0.795298	0.019243
1941	9.7000e-01	-2.3454	-8.895247	0.000210	2.096951	0.710466	0.017191
1942	9.7050e-01	-2.3518	-8.802025	-0.000227	-2.274305	-0.770555	0.018644
1943	9.7100e-01	-2.2844	-8.719066	0.000202	2.023923	0.685724	0.016592
1944	9.7150e-01	-2.2347	-8.637389	0.000199	1.992625	0.675120	0.016335
1945	9.7200e-01	-2.1994	-8.550154	0.000213	2.128249	0.721070	0.017447
1946	9.7250e-01	-2.1304	-8.458214	0.000224	2.243007	0.759952	0.018388
1947	9.7300e-01	-2.1144	-8.373544	0.000207	2.065653	0.699862	0.016934
1948	9.7350e-01	-2.0711	-8.289302	0.000206	2.055221	0.696328	0.016848
1949	9.7400e-01	-2.0229	-8.190521	0.000241	2.409929	0.816506	0.019756
1950	9.7450e-01	-1.9860	-8.102002	0.000216	2.159547	0.731674	0.017704
1951	9.7500e-01	-1.9475	-8.009208	0.000226	2.263873	0.767021	0.018559
1952	9.7550e-01	-1.8994	-7.923255	0.000210	2.096951	0.710466	0.017191
1953	9.7600e-01	-1.8914	-7.833881	0.000218	2.180412	0.738744	0.017875
1954	9.7650e-01	-1.8112	-7.738521	0.000233	2.326468	0.788229	0.019072
1955	9.7700e-01	-1.7935	-7.644443	0.000230	2.295170	0.777625	0.018816
1956	9.7750e-01	-1.7278	-7.553359	0.000222	2.222142	0.752882	0.018217
1957	9.7800e-01	-1.6989	-7.457571	0.000234	2.336901	0.791763	0.019158
1958	9.7850e-01	-1.6909	-7.366914	0.000221	2.211710	0.749348	0.018131
1959	9.7900e-01	-1.6171	-7.275403	0.000223	2.232575	0.756417	0.018302
1960	9.7950e-01	-1.5834	-7.188167	0.000213	2.128249	0.721070	0.017447
1961	9.8000e-01	-1.5433	-7.090668	0.000238	2.378631	0.805902	0.019500
1962	9.8050e-01	-1.5192	-6.997019	0.000228	2.284738	0.774090	0.018730
1963	9.8100e-01	-1.4631	-6.898237	0.000241	2.409929	0.816506	0.019756
1964	9.8150e-01	-1.4246	-6.811429	0.000212	2.117816	0.717536	0.017362
1965	9.8200e-01	-1.4230	-6.709227	0.000249	2.493390	0.844783	0.020440
1966	9.8250e-01	-1.3187	-6.616860	0.000225	2.253440	0.763486	0.018473
1967	9.8300e-01	-1.3203	-6.519361	-0.000238	-2.378631	-0.805902	0.019500
1968	9.8350e-01	-1.2481	-6.424001	0.000233	2.326468	0.788229	0.019072
1969	9.8400e-01	-1.2369	-6.328640	0.000233	2.326468	0.788229	0.019072
1970	9.8450e-01	-1.1968	-6.235418	0.000227	2.274305	0.770555	0.018644
1971	9.8500e-01	-1.1454	-6.139202	0.000235	2.347333	0.795298	0.019243
1972	9.8550e-01	-1.1069	-6.035289	0.000254	2.535120	0.858922	0.020783
1973	9.8600e-01	-1.0604	-5.936936	0.000240	2.399496	0.812971	0.019671
1974	9.8650e-01	-1.0251	-5.835588	0.000247	2.472525	0.837714	0.020269
1975	9.8700e-01	-0.9946	-5.739373	0.000235	2.347333	0.795298	0.019243
1976	9.8750e-01	-0.9481	-5.645723	0.000228	2.284738	0.774090	0.018730
1977	9.8800e-01	-0.9256	-5.539672	0.000259	2.587283	0.876595	0.021210
1978	9.8850e-01	-0.8470	-5.447732	0.000224	2.243007	0.759952	0.018388
1979	9.8900e-01	-0.8214	-5.343819	0.000254	2.535120	0.858922	0.020783
1980	9.8950e-01	-0.7877	-5.245893	0.000239	2.389064	0.809437	0.019585
1981	9.9000e-01	-0.7396	-5.136421	0.000267	2.670744	0.904872	0.021894
1982	9.9050e-01	-0.7155	-5.032936	0.000252	2.524687	0.855387	0.020697
1983	9.9100e-01	-0.6561	-4.936292	0.000236	2.357766	0.798833	0.019329
1984	9.9150e-01	-0.6497	-4.834945	0.000247	2.472525	0.837714	0.020269
1985	9.9200e-01	-0.6112	-4.733170	0.000248	2.482957	0.841249	0.020355
1986	9.9250e-01	-0.5711	-4.627119	0.000259	2.587283	0.876595	0.021210
1987	9.9300e-01	-0.5150	-4.534325	0.000226	2.263873	0.767021	0.018559
1988	9.9350e-01	-0.4716	-4.417583	0.000285	2.848098	0.964962	0.023348
1989	9.9400e-01	-0.4364	-4.317091	0.000245	2.451659	0.830645	0.020098
1990	9.9450e-01	-0.4219	-4.211468	0.000258	2.576850	0.873061	0.021125
1991	9.9500e-01	-0.3674	-4.118245	0.000227	2.274305	0.770555	0.018644
1992	9.9550e-01	-0.3225	-4.013477	0.000256	2.555985	0.865991	0.020954
1993	9.9600e-01	-0.2952	-3.903150	0.000269	2.691609	0.911942	0.022065
1994	9.9650e-01	-0.2102	-3.804368	0.000241	2.409929	0.816506	0.019756
1995	9.9700e-01	-0.2069	-3.702166	0.000249	2.493390	0.844783	0.020440
1996	9.9750e-01	-0.1684	-3.595687	0.000260	2.597716	0.880130	0.021296
1997	9.9800e-01	-0.1203	-3.486643	0.000266	2.660311	0.901338	0.021809
1998	9.9850e-01	-0.0321	-3.388716	0.000239	2.389064	0.809437	0.019585
1999	9.9900e-01	-0.0449	-3.276679	-0.000273	-2.733339	-0.926080	0.022408
2000	9.9950e-01	0.0016	-3.172338	0.000255	2.545553	0.862457	0.020868
2001	1.0000e+00	0.0257	-3.072274	0.000255	2.545553	0.862457	0.020013

Center data before PMax,+/-Pr and +/-Vc Calc.

PMax (uC/cm2):	3.27e+01
Pr (uC/cm2):	1.34e+00
-Pr (uC/cm2):	-3.07e+00
PLoss (uC/cm2):	-2.42e+00
Vc:	4.58e-01
-Vc:	-5.34e-01
C (Max-Eff) (nF):	1.63e-01
K (Eff):	5.53e+02
Vert. (+/-Pr) Shift (uC/cm2):	-8.67e-01
Horiz. Shift (+/-Vc):	-3.79e-02
Offset (uC/cm2):	6.50e-01

A (Loop Area - uC/cm2·Volts):	1.37e-03



Hysteresis Version: 5.48.1 - Radiant Technologies, Inc., 1999 - 9/12/24

