»»»»»»»»»»»»»»»»»»»»»»»»»»»»»»»»»»»» Hysteresis ««««««««««««««««««««««««««««««««««««
»»»  Executed Version:	5.48.1
»»»  Vision Version:	5.48.4 (R)
»»»  Vision Compiled:	9/18/24
»»»  Driver Version:	5.47.0
»»»  Windows Version:	Windows 8 or 8.1
»»»  Processor Information:	x86 (AMD or Intel) - 32 Processors
»»»  Tester Name:	PMF21124-494 (100V)
»»»  Tester S/N:	PMF21124-494
»»»  Internal Amp Type:	100V RevK 270k
»»»  Internal Amp S/N:	iAB2-596/K     
»»»  Execution Count:	1
»»»»»»»»»»»»»»»»»»»»»»»»»»»»»»»»»»»»»»»»»»««««««««««««««««««««««««««««««««««««««««««

Stored:	6/12/2025 - 11:31:27
Configured:	06/12/25 10:06:17 AM
Executed:	06/12/25 11:30:53 AM

»»»»»»»»»»»»»»»»»»»»»»»»»»»»»»»»»»» Sample Info ««««««««««««««««««««««««««««««««««««
Sample Name:	
Lot Name:	
Wafer Name:	
Die Row/Column:	0/0
Capacitor Number:	0
Sample Area (cm2):	1.00e-04
Sample Thickness (microns):	3.00e-01

Amplifier:	Internal

»»»»»»»»»»»»»»»»»»»»»»»»»»»»»»»»»»» Tester Info «««««««««««««««««««««««««««««««««««
Tester Name:	PMF21124-494 (100V)
Tester Serial Number:	PMF21124-494
Return Signal Amp. Level:	1.79 [Index: 2]

»»»»»»»»»»»»»»»»»»»»»»»»»»»»»»»» Hysteresis Info ««««««««««««««««««««««««««««««««««
Task Name:	Hyst-1390
Volts:	20.00
Field:	666.67 (kV/cm)
DCBias:	0.00
DCField:	0.00 (kV/cm)
Hysteresis Period (ms):	1.00e+00
Preset:	Enabled
Preset Delay (ms):	1.00e+03
Profile:	Standard Bipolar

»»»»»»»»»»»»»»»»»»»»»»»»»»»»»»»»»»»»»» Data «««««««««««««««««««««««««««««««««««««««
Points:	2001

Valid Data

Point	Time (ms)	Drive Voltage	Measured Polarization (uC/cm2)	Capacitance (uF)	Normalized Capacitance (uF/cm2)	Dielectric Constant	Instantaneous Current (mA)
   1	0.0000e+00	0.0193	-0.537097	0.000002	0.020957	0.007101	0.000171
   2	5.0000e-04	0.0337	-0.536242	0.000002	0.020957	0.007101	0.000171
   3	1.0000e-03	0.1492	-0.534104	0.000005	0.052394	0.017751	0.000428
   4	1.5000e-03	0.1620	-0.517427	0.000041	0.408670	0.138461	0.003335
   5	2.0000e-03	0.2037	-0.491341	0.000064	0.639202	0.216567	0.005217
   6	2.5000e-03	0.2422	-0.469960	0.000052	0.523936	0.177514	0.004276
   7	3.0000e-03	0.2743	-0.435323	0.000085	0.848776	0.287573	0.006928
   8	3.5000e-03	0.3465	-0.396409	0.000095	0.953563	0.323076	0.007783
   9	4.0000e-03	0.3786	-0.363054	0.000082	0.817340	0.276922	0.006671
  10	4.5000e-03	0.3770	-0.318581	-0.000109	-1.089787	-0.369230	0.008895
  11	5.0000e-03	0.4444	-0.267266	0.000126	1.257446	0.426034	0.010263
  12	5.5000e-03	0.4732	-0.225359	0.000103	1.026914	0.347928	0.008381
  13	6.0000e-03	0.5278	-0.176182	0.000121	1.205052	0.408283	0.009835
  14	6.5000e-03	0.5791	-0.126149	0.000123	1.226010	0.415383	0.010006
  15	7.0000e-03	0.6096	-0.072696	0.000131	1.309840	0.443786	0.010691
  16	7.5000e-03	0.6144	-0.011118	0.000151	1.508935	0.511241	0.012316
  17	8.0000e-03	0.7043	0.048322	0.000146	1.456542	0.493490	0.011888
  18	8.5000e-03	0.7235	0.103913	0.000136	1.362233	0.461537	0.011118
  19	9.0000e-03	0.7347	0.164636	0.000149	1.487978	0.504141	0.012145
  20	9.5000e-03	0.7909	0.220227	0.000136	1.362233	0.461537	0.011118
  21	1.0000e-02	0.8775	0.282233	0.000152	1.519414	0.514791	0.012401
  22	1.0500e-02	0.8775	0.348515	-0.000162	-1.624201	-0.550294	0.013256
  23	1.1000e-02	0.9032	0.410093	0.000151	1.508935	0.511241	0.012316
  24	1.1500e-02	0.9898	0.469105	0.000145	1.446063	0.489939	0.011802
  25	1.2000e-02	0.9962	0.534532	0.000160	1.603244	0.543194	0.013085
  26	1.2500e-02	1.0540	0.599103	0.000158	1.582286	0.536093	0.012914
  27	1.3000e-02	1.1005	0.660681	0.000151	1.508935	0.511241	0.012316
  28	1.3500e-02	1.1294	0.726108	0.000160	1.603244	0.543194	0.013085
  29	1.4000e-02	1.1695	0.790679	0.000158	1.582286	0.536093	0.012914
  30	1.4500e-02	1.2080	0.852257	0.000151	1.508935	0.511241	0.012316
  31	1.5000e-02	1.2337	0.917684	0.000160	1.603244	0.543194	0.013085
  32	1.5500e-02	1.3091	0.983538	0.000161	1.613722	0.546744	0.013171
  33	1.6000e-02	1.3171	1.048965	0.000160	1.603244	0.543194	0.013085
  34	1.6500e-02	1.3732	1.112253	0.000155	1.550850	0.525442	0.012658
  35	1.7000e-02	1.3973	1.178108	0.000161	1.613722	0.546744	0.013171
  36	1.7500e-02	1.4149	1.245672	0.000166	1.655637	0.560945	0.013513
  37	1.8000e-02	1.4903	1.308961	0.000155	1.550850	0.525442	0.012658
  38	1.8500e-02	1.5481	1.373532	0.000158	1.582286	0.536093	0.012914
  39	1.9000e-02	1.5721	1.441525	0.000167	1.666116	0.564495	0.013598
  40	1.9500e-02	1.6155	1.505241	0.000156	1.561329	0.528993	0.012743
  41	2.0000e-02	1.6411	1.571523	0.000162	1.624201	0.550294	0.013256
  42	2.0500e-02	1.6812	1.640798	0.000170	1.697552	0.575146	0.013855
  43	2.1000e-02	1.7470	1.702376	0.000151	1.508935	0.511241	0.012316
  44	2.1500e-02	1.7663	1.765665	0.000155	1.550850	0.525442	0.012658
  45	2.2000e-02	1.8016	1.830664	0.000159	1.592765	0.539643	0.013000
  46	2.2500e-02	1.8561	1.896518	0.000161	1.613722	0.546744	0.013171
  47	2.3000e-02	1.8834	1.963655	0.000165	1.645159	0.557395	0.013427
  48	2.3500e-02	1.9122	2.023950	0.000148	1.477499	0.500590	0.012059
  49	2.4000e-02	1.9540	2.090232	0.000162	1.624201	0.550294	0.013256
  50	2.4500e-02	2.0454	2.153949	0.000156	1.561329	0.528993	0.012743
  51	2.5000e-02	2.0374	2.220230	-0.000162	-1.624201	-0.550294	0.013256
  52	2.5500e-02	2.0807	2.283091	0.000154	1.540371	0.521892	0.012572
  53	2.6000e-02	2.1288	2.346808	0.000156	1.561329	0.528993	0.012743
  54	2.6500e-02	2.1882	2.412662	0.000161	1.613722	0.546744	0.013171
  55	2.7000e-02	2.2058	2.470391	0.000141	1.414627	0.479289	0.011546
  56	2.7500e-02	2.2556	2.537101	0.000163	1.634680	0.553845	0.013342
  57	2.8000e-02	2.2764	2.604238	0.000165	1.645159	0.557395	0.013427
  58	2.8500e-02	2.3229	2.669237	0.000159	1.592765	0.539643	0.013000
  59	2.9000e-02	2.3935	2.730815	0.000151	1.508935	0.511241	0.012316
  60	2.9500e-02	2.4031	2.796242	0.000160	1.603244	0.543194	0.013085
  61	3.0000e-02	2.4449	2.865089	0.000169	1.687073	0.571596	0.013770
  62	3.0500e-02	2.4593	2.919398	0.000133	1.330797	0.450886	0.010862
  63	3.1000e-02	2.5299	2.987818	0.000168	1.676595	0.568046	0.013684
  64	3.1500e-02	2.5491	3.047685	0.000147	1.467020	0.497040	0.011974
  65	3.2000e-02	2.6165	3.106270	0.000144	1.435584	0.486389	0.011717
  66	3.2500e-02	2.6486	3.172552	0.000162	1.624201	0.550294	0.013256
  67	3.3000e-02	2.6903	3.239689	0.000165	1.645159	0.557395	0.013427
  68	3.3500e-02	2.7063	3.298274	0.000144	1.435584	0.486389	0.011717
  69	3.4000e-02	2.7898	3.357714	0.000146	1.456542	0.493490	0.011888
  70	3.4500e-02	2.8283	3.418009	0.000148	1.477499	0.500590	0.012059
  71	3.5000e-02	2.8379	3.483008	0.000159	1.592765	0.539643	0.013000
  72	3.5500e-02	2.8732	3.539882	0.000139	1.393669	0.472188	0.011375
  73	3.6000e-02	2.9486	3.600177	0.000148	1.477499	0.500590	0.012059
  74	3.6500e-02	2.9903	3.664749	0.000158	1.582286	0.536093	0.012914
  75	3.7000e-02	3.0079	3.728465	0.000156	1.561329	0.528993	0.012743
  76	3.7500e-02	3.0160	3.790043	0.000151	1.508935	0.511241	0.012316
  77	3.8000e-02	3.0833	3.855042	0.000159	1.592765	0.539643	0.013000
  78	3.8500e-02	3.1555	3.912344	0.000140	1.404148	0.475738	0.011460
  79	3.9000e-02	3.1748	3.972211	0.000147	1.467020	0.497040	0.011974
  80	3.9500e-02	3.1876	4.029941	0.000141	1.414627	0.479289	0.011546
  81	4.0000e-02	3.2229	4.092374	0.000153	1.529893	0.518342	0.012487
  82	4.0500e-02	3.2710	4.152241	0.000147	1.467020	0.497040	0.011974
  83	4.1000e-02	3.3352	4.216385	0.000157	1.571808	0.532543	0.012829
  84	4.1500e-02	3.3673	4.275825	0.000146	1.456542	0.493490	0.011888
  85	4.2000e-02	3.4122	4.335693	0.000147	1.467020	0.497040	0.011974
  86	4.2500e-02	3.4523	4.393422	0.000141	1.414627	0.479289	0.011546
  87	4.3000e-02	3.4844	4.449013	0.000136	1.362233	0.461537	0.011118
  88	4.3500e-02	3.5341	4.513585	0.000158	1.582286	0.536093	0.012914
  89	4.4000e-02	3.5726	4.572169	0.000144	1.435584	0.486389	0.011717
  90	4.4500e-02	3.5919	4.631609	0.000146	1.456542	0.493490	0.011888
  91	4.5000e-02	3.6528	4.689766	0.000143	1.425106	0.482839	0.011631
  92	4.5500e-02	3.6849	4.747068	0.000140	1.404148	0.475738	0.011460
  93	4.6000e-02	3.7218	4.811640	0.000158	1.582286	0.536093	0.012914
  94	4.6500e-02	3.7539	4.865093	0.000131	1.309840	0.443786	0.010691
  95	4.7000e-02	3.8084	4.925388	0.000148	1.477499	0.500590	0.012059
  96	4.7500e-02	3.8550	4.986538	0.000150	1.498457	0.507691	0.012230
  97	4.8000e-02	3.9127	5.042557	0.000137	1.372712	0.465087	0.011204
  98	4.8500e-02	3.9063	5.101142	-0.000144	-1.435584	-0.486389	0.011717
  99	4.9000e-02	3.9625	5.158444	0.000140	1.404148	0.475738	0.011460
 100	4.9500e-02	3.9994	5.214463	0.000137	1.372712	0.465087	0.011204
 101	5.0000e-02	4.0362	5.273047	0.000144	1.435584	0.486389	0.011717
 102	5.0500e-02	4.0764	5.333770	0.000149	1.487978	0.504141	0.012145
 103	5.1000e-02	4.1261	5.389361	0.000136	1.362233	0.461537	0.011118
 104	5.1500e-02	4.1646	5.446663	0.000140	1.404148	0.475738	0.011460
 105	5.2000e-02	4.2111	5.501827	0.000135	1.351754	0.457987	0.011033
 106	5.2500e-02	4.2384	5.564260	0.000153	1.529893	0.518342	0.012487
 107	5.3000e-02	4.3042	5.624555	0.000148	1.477499	0.500590	0.012059
 108	5.3500e-02	4.3218	5.679719	0.000135	1.351754	0.457987	0.011033
 109	5.4000e-02	4.3747	5.733600	0.000132	1.320318	0.447336	0.010776
 110	5.4500e-02	4.4100	5.797316	0.000156	1.561329	0.528993	0.012743
 111	5.5000e-02	4.4181	5.851624	0.000133	1.330797	0.450886	0.010862
 112	5.5500e-02	4.5031	5.906788	0.000135	1.351754	0.457987	0.011033
 113	5.6000e-02	4.5304	5.963662	0.000139	1.393669	0.472188	0.011375
 114	5.6500e-02	4.5817	6.017543	0.000132	1.320318	0.447336	0.010776
 115	5.7000e-02	4.6234	6.074845	0.000140	1.404148	0.475738	0.011460
 116	5.7500e-02	4.6507	6.132574	0.000141	1.414627	0.479289	0.011546
 117	5.8000e-02	4.6908	6.189876	0.000140	1.404148	0.475738	0.011460
 118	5.8500e-02	4.7357	6.243329	0.000131	1.309840	0.443786	0.010691
 119	5.9000e-02	4.7598	6.303624	0.000148	1.477499	0.500590	0.012059
 120	5.9500e-02	4.8063	6.355794	0.000128	1.278403	0.433135	0.010434
 121	6.0000e-02	4.8688	6.413096	0.000140	1.404148	0.475738	0.011460
 122	6.0500e-02	4.8865	6.469543	0.000138	1.383191	0.468638	0.011289
 123	6.1000e-02	4.9025	6.525989	0.000138	1.383191	0.468638	0.011289
 124	6.1500e-02	4.9715	6.582436	0.000138	1.383191	0.468638	0.011289
 125	6.2000e-02	5.0052	6.640593	0.000143	1.425106	0.482839	0.011631
 126	6.2500e-02	5.0116	6.688059	0.000116	1.163138	0.394082	0.009493
 127	6.3000e-02	5.0485	6.746644	0.000144	1.435584	0.486389	0.011717
 128	6.3500e-02	5.1271	6.800097	0.000131	1.309840	0.443786	0.010691
 129	6.4000e-02	5.1833	6.871938	0.000176	1.760424	0.596448	0.014368
 130	6.4500e-02	5.1849	6.915128	0.000106	1.058350	0.358579	0.008638
 131	6.5000e-02	5.2394	6.966871	0.000127	1.267925	0.429585	0.010349
 132	6.5500e-02	5.2924	7.019897	0.000130	1.299361	0.440235	0.010605
 133	6.6000e-02	5.3261	7.076343	0.000138	1.383191	0.468638	0.011289
 134	6.6500e-02	5.3902	7.132790	0.000138	1.383191	0.468638	0.011289
 135	6.7000e-02	5.4047	7.182394	0.000122	1.215531	0.411833	0.009921
 136	6.7500e-02	5.4239	7.239268	0.000139	1.393669	0.472188	0.011375
 137	6.8000e-02	5.4993	7.285024	0.000112	1.121223	0.379881	0.009151
 138	6.8500e-02	5.5539	7.342326	0.000140	1.404148	0.475738	0.011460
 139	6.9000e-02	5.5747	7.397490	0.000135	1.351754	0.457987	0.011033
 140	6.9500e-02	5.6068	7.455647	0.000143	1.425106	0.482839	0.011631
 141	7.0000e-02	5.6517	7.508245	0.000129	1.288882	0.436685	0.010520
 142	7.0500e-02	5.6774	7.559132	0.000125	1.246967	0.422484	0.010177
 143	7.1000e-02	5.7079	7.613440	0.000133	1.330797	0.450886	0.010862
 144	7.1500e-02	5.7608	7.667321	0.000132	1.320318	0.447336	0.010776
 145	7.2000e-02	5.8314	7.727616	0.000148	1.477499	0.500590	0.012059
 146	7.2500e-02	5.8362	7.775938	0.000118	1.184095	0.401182	0.009664
 147	7.3000e-02	5.8587	7.831102	0.000135	1.351754	0.457987	0.011033
 148	7.3500e-02	5.9501	7.877713	0.000114	1.142180	0.386981	0.009322
 149	7.4000e-02	5.9726	7.930738	0.000130	1.299361	0.440235	0.010605
 150	7.4500e-02	5.9902	7.988468	0.000141	1.414627	0.479289	0.011546
 151	7.5000e-02	6.0512	8.046625	0.000143	1.425106	0.482839	0.011631
 152	7.5500e-02	6.0865	8.099223	0.000129	1.288882	0.436685	0.010520
 153	7.6000e-02	6.1362	8.148400	0.000121	1.205052	0.408283	0.009835
 154	7.6500e-02	6.1875	8.191590	0.000106	1.058350	0.358579	0.008638
 155	7.7000e-02	6.1972	8.251885	0.000148	1.477499	0.500590	0.012059
 156	7.7500e-02	6.2421	8.307049	0.000135	1.351754	0.457987	0.011033
 157	7.8000e-02	6.3127	8.354087	0.000115	1.152659	0.390531	0.009408
 158	7.8500e-02	6.3207	8.411817	0.000141	1.414627	0.479289	0.011546
 159	7.9000e-02	6.3656	8.461421	0.000122	1.215531	0.411833	0.009921
 160	7.9500e-02	6.4169	8.514447	0.000130	1.299361	0.440235	0.010605
 161	8.0000e-02	6.4378	8.567900	0.000131	1.309840	0.443786	0.010691
 162	8.0500e-02	6.4923	8.621353	0.000131	1.309840	0.443786	0.010691
 163	8.1000e-02	6.5196	8.669247	0.000117	1.173616	0.397632	0.009579
 164	8.1500e-02	6.5437	8.722273	0.000130	1.299361	0.440235	0.010605
 165	8.2000e-02	6.5854	8.777864	0.000136	1.362233	0.461537	0.011118
 166	8.2500e-02	6.6479	8.829607	0.000127	1.267925	0.429585	0.010349
 167	8.3000e-02	6.6848	8.875790	0.000113	1.131701	0.383431	0.009237
 168	8.3500e-02	6.7249	8.924112	0.000118	1.184095	0.401182	0.009664
 169	8.4000e-02	6.7699	8.984835	0.000149	1.487978	0.504141	0.012145
 170	8.4500e-02	6.8036	9.034012	0.000121	1.205052	0.408283	0.009835
 171	8.5000e-02	6.8116	9.084899	0.000125	1.246967	0.422484	0.010177
 172	8.5500e-02	6.8838	9.136642	0.000127	1.267925	0.429585	0.010349
 173	8.6000e-02	6.9158	9.184108	0.000116	1.163138	0.394082	0.009493
 174	8.6500e-02	6.9672	9.233713	0.000122	1.215531	0.411833	0.009921
 175	8.7000e-02	7.0041	9.285883	0.000128	1.278403	0.433135	0.010434
 176	8.7500e-02	7.0602	9.337198	0.000126	1.257446	0.426034	0.010263
 177	8.8000e-02	7.0955	9.388941	0.000127	1.267925	0.429585	0.010349
 178	8.8500e-02	7.1308	9.436407	0.000116	1.163138	0.394082	0.009493
 179	8.9000e-02	7.1741	9.487294	0.000125	1.246967	0.422484	0.010177
 180	8.9500e-02	7.2190	9.540320	0.000130	1.299361	0.440235	0.010605
 181	9.0000e-02	7.2592	9.590352	0.000123	1.226010	0.415383	0.010006
 182	9.0500e-02	7.2848	9.637818	0.000116	1.163138	0.394082	0.009493
 183	9.1000e-02	7.2993	9.691272	0.000131	1.309840	0.443786	0.010691
 184	9.1500e-02	7.3763	9.744725	0.000131	1.309840	0.443786	0.010691
 185	9.2000e-02	7.4083	9.787487	0.000105	1.047872	0.355029	0.008553
 186	9.2500e-02	7.4837	9.841368	0.000132	1.320318	0.447336	0.010776
 187	9.3000e-02	7.4789	9.894821	-0.000131	-1.309840	-0.443786	0.010691
 188	9.3500e-02	7.4886	9.942288	0.000116	1.163138	0.394082	0.009493
 189	9.4000e-02	7.5960	9.990182	0.000117	1.173616	0.397632	0.009579
 190	9.4500e-02	7.6057	10.041069	0.000125	1.246967	0.422484	0.010177
 191	9.5000e-02	7.6522	10.088535	0.000116	1.163138	0.394082	0.009493
 192	9.5500e-02	7.6843	10.139851	0.000126	1.257446	0.426034	0.010263
 193	9.6000e-02	7.7164	10.191593	0.000127	1.267925	0.429585	0.010349
 194	9.6500e-02	7.7950	10.235211	0.000107	1.068829	0.362129	0.008724
 195	9.7000e-02	7.8094	10.290802	0.000136	1.362233	0.461537	0.011118
 196	9.7500e-02	7.8222	10.341262	0.000124	1.236489	0.418934	0.010092
 197	9.8000e-02	7.8928	10.395143	0.000132	1.320318	0.447336	0.010776
 198	9.8500e-02	7.9185	10.436195	0.000101	1.005957	0.340827	0.008210
 199	9.9000e-02	7.9426	10.486227	0.000123	1.226010	0.415383	0.010006
 200	9.9500e-02	8.0003	10.540535	0.000133	1.330797	0.450886	0.010862
 201	1.0000e-01	8.0404	10.585008	0.000109	1.089787	0.369230	0.008895
 202	1.0050e-01	8.0789	10.626060	0.000101	1.005957	0.340827	0.008210
 203	1.0100e-01	8.1319	10.681224	0.000135	1.351754	0.457987	0.011033
 204	1.0150e-01	8.1671	10.731256	0.000123	1.226010	0.415383	0.010006
 205	1.0200e-01	8.1976	10.777867	0.000114	1.142180	0.386981	0.009322
 206	1.0250e-01	8.2490	10.831321	0.000131	1.309840	0.443786	0.010691
 207	1.0300e-01	8.2746	10.873228	0.000103	1.026914	0.347928	0.008381
 208	1.0350e-01	8.3099	10.924971	0.000127	1.267925	0.429585	0.010349
 209	1.0400e-01	8.3869	10.973292	0.000118	1.184095	0.401182	0.009664
 210	1.0450e-01	8.4126	11.021186	0.000117	1.173616	0.397632	0.009579
 211	1.0500e-01	8.4543	11.072501	0.000126	1.257446	0.426034	0.010263
 212	1.0550e-01	8.4703	11.115264	0.000105	1.047872	0.355029	0.008553
 213	1.0600e-01	8.5554	11.164441	0.000121	1.205052	0.408283	0.009835
 214	1.0650e-01	8.5810	11.214045	0.000122	1.215531	0.411833	0.009921
 215	1.0700e-01	8.5939	11.262794	0.000119	1.194574	0.404733	0.009750
 216	1.0750e-01	8.6452	11.308550	0.000112	1.121223	0.379881	0.009151
 217	1.0800e-01	8.7062	11.359010	0.000124	1.236489	0.418934	0.010092
 218	1.0850e-01	8.7399	11.394503	0.000087	0.869734	0.294674	0.007099
 219	1.0900e-01	8.7302	11.458647	-0.000157	-1.571808	-0.532543	0.012829
 220	1.0950e-01	8.8457	11.502265	0.000107	1.068829	0.362129	0.008724
 221	1.1000e-01	8.8666	11.544600	0.000104	1.037393	0.351478	0.008467
 222	1.1050e-01	8.8907	11.595059	0.000124	1.236489	0.418934	0.010092
 223	1.1100e-01	8.9131	11.644236	0.000121	1.205052	0.408283	0.009835
 224	1.1150e-01	8.9564	11.697689	0.000131	1.309840	0.443786	0.010691
 225	1.1200e-01	9.0046	11.734038	0.000089	0.890691	0.301774	0.007270
 226	1.1250e-01	9.0334	11.786208	0.000128	1.278403	0.433135	0.010434
 227	1.1300e-01	9.0784	11.831108	0.000110	1.100265	0.372780	0.008980
 228	1.1350e-01	9.1313	11.884134	0.000130	1.299361	0.440235	0.010605
 229	1.1400e-01	9.1666	11.929462	0.000111	1.110744	0.376330	0.009066
 230	1.1450e-01	9.2051	11.973935	0.000109	1.089787	0.369230	0.008895
 231	1.1500e-01	9.2163	12.021829	0.000117	1.173616	0.397632	0.009579
 232	1.1550e-01	9.3174	12.068441	0.000114	1.142180	0.386981	0.009322
 233	1.1600e-01	9.3495	12.121038	0.000129	1.288882	0.436685	0.010520
 234	1.1650e-01	9.3671	12.164229	0.000106	1.058350	0.358579	0.008638
 235	1.1700e-01	9.4024	12.209984	0.000112	1.121223	0.379881	0.009151
 236	1.1750e-01	9.4505	12.256168	0.000113	1.131701	0.383431	0.009237
 237	1.1800e-01	9.4682	12.305345	0.000121	1.205052	0.408283	0.009835
 238	1.1850e-01	9.5291	12.348107	0.000105	1.047872	0.355029	0.008553
 239	1.1900e-01	9.5757	12.396857	0.000119	1.194574	0.404733	0.009750
 240	1.1950e-01	9.5933	12.444323	0.000116	1.163138	0.394082	0.009493
 241	1.2000e-01	9.6414	12.487941	0.000107	1.068829	0.362129	0.008724
 242	1.2050e-01	9.6623	12.533697	0.000112	1.121223	0.379881	0.009151
 243	1.2100e-01	9.7361	12.583729	0.000123	1.226010	0.415383	0.010006
 244	1.2150e-01	9.7505	12.630768	0.000115	1.152659	0.390531	0.009408
 245	1.2200e-01	9.8099	12.673530	0.000105	1.047872	0.355029	0.008553
 246	1.2250e-01	9.8853	12.720997	0.000116	1.163138	0.394082	0.009493
 247	1.2300e-01	9.8660	12.768891	-0.000117	-1.173616	-0.397632	0.009579
 248	1.2350e-01	9.9559	12.811226	0.000104	1.037393	0.351478	0.008467
 249	1.2400e-01	9.9623	12.855699	0.000109	1.089787	0.369230	0.008895
 250	1.2450e-01	9.9751	12.901027	0.000111	1.110744	0.376330	0.009066
 251	1.2500e-01	10.0425	12.952342	0.000126	1.257446	0.426034	0.010263
 252	1.2550e-01	10.1099	12.995960	0.000107	1.068829	0.362129	0.008724
 253	1.2600e-01	10.1291	13.040433	0.000109	1.089787	0.369230	0.008895
 254	1.2650e-01	10.1564	13.088754	0.000118	1.184095	0.401182	0.009664
 255	1.2700e-01	10.2174	13.133227	0.000109	1.089787	0.369230	0.008895
 256	1.2750e-01	10.2414	13.174707	0.000102	1.016436	0.344378	0.008296
 257	1.2800e-01	10.2815	13.222173	0.000116	1.163138	0.394082	0.009493
 258	1.2850e-01	10.3104	13.267929	0.000112	1.121223	0.379881	0.009151
 259	1.2900e-01	10.3746	13.314541	0.000114	1.142180	0.386981	0.009322
 260	1.2950e-01	10.4083	13.359014	0.000109	1.089787	0.369230	0.008895
 261	1.3000e-01	10.4580	13.405625	0.000114	1.142180	0.386981	0.009322
 262	1.3050e-01	10.4821	13.451381	0.000112	1.121223	0.379881	0.009151
 263	1.3100e-01	10.5109	13.493716	0.000104	1.037393	0.351478	0.008467
 264	1.3150e-01	10.5494	13.551017	0.000140	1.404148	0.475738	0.011460
 265	1.3200e-01	10.6232	13.589931	0.000095	0.953563	0.323076	0.007783
 266	1.3250e-01	10.6216	13.628845	-0.000095	-0.953563	-0.323076	0.007783
 267	1.3300e-01	10.6649	13.677167	0.000118	1.184095	0.401182	0.009664
 268	1.3350e-01	10.7275	13.715653	0.000094	0.943085	0.319526	0.007697
 269	1.3400e-01	10.7676	13.770817	0.000135	1.351754	0.457987	0.011033
 270	1.3450e-01	10.8286	13.805882	0.000086	0.859255	0.291123	0.007013
 271	1.3500e-01	10.8703	13.849072	0.000106	1.058350	0.358579	0.008638
 272	1.3550e-01	10.8799	13.892690	0.000107	1.068829	0.362129	0.008724
 273	1.3600e-01	10.9280	13.935880	0.000106	1.058350	0.358579	0.008638
 274	1.3650e-01	10.9633	13.988050	0.000128	1.278403	0.433135	0.010434
 275	1.3700e-01	11.0163	14.028675	0.000100	0.995478	0.337277	0.008125
 276	1.3750e-01	11.0660	14.072720	0.000108	1.079308	0.365679	0.008809
 277	1.3800e-01	11.0901	14.117193	0.000109	1.089787	0.369230	0.008895
 278	1.3850e-01	11.1205	14.163377	0.000113	1.131701	0.383431	0.009237
 279	1.3900e-01	11.1655	14.206994	0.000107	1.068829	0.362129	0.008724
 280	1.3950e-01	11.1991	14.253606	0.000114	1.142180	0.386981	0.009322
 281	1.4000e-01	11.2778	14.299789	0.000113	1.131701	0.383431	0.009237
 282	1.4050e-01	11.2922	14.341269	0.000102	1.016436	0.344378	0.008296
 283	1.4100e-01	11.3243	14.382748	0.000102	1.016436	0.344378	0.008296
 284	1.4150e-01	11.3580	14.427222	0.000109	1.089787	0.369230	0.008895
 285	1.4200e-01	11.4318	14.468274	0.000101	1.005957	0.340827	0.008210
 286	1.4250e-01	11.4382	14.517023	0.000119	1.194574	0.404733	0.009750
 287	1.4300e-01	11.4959	14.559358	0.000104	1.037393	0.351478	0.008467
 288	1.4350e-01	11.5280	14.599555	0.000098	0.984999	0.333727	0.008039
 289	1.4400e-01	11.5729	14.646166	0.000114	1.142180	0.386981	0.009322
 290	1.4450e-01	11.6179	14.683369	0.000091	0.911648	0.308875	0.007441
 291	1.4500e-01	11.6660	14.736822	0.000131	1.309840	0.443786	0.010691
 292	1.4550e-01	11.6804	14.781295	0.000109	1.089787	0.369230	0.008895
 293	1.4600e-01	11.7285	14.818499	0.000091	0.911648	0.308875	0.007441
 294	1.4650e-01	11.7719	14.859551	0.000101	1.005957	0.340827	0.008210
 295	1.4700e-01	11.8168	14.906589	0.000115	1.152659	0.390531	0.009408
 296	1.4750e-01	11.8665	14.947214	0.000100	0.995478	0.337277	0.008125
 297	1.4800e-01	11.9066	14.991259	0.000108	1.079308	0.365679	0.008809
 298	1.4850e-01	11.9259	15.035305	0.000108	1.079308	0.365679	0.008809
 299	1.4900e-01	11.9612	15.078067	0.000105	1.047872	0.355029	0.008553
 300	1.4950e-01	12.0237	15.121685	0.000107	1.068829	0.362129	0.008724
 301	1.5000e-01	12.0414	15.170434	0.000119	1.194574	0.404733	0.009750
 302	1.5050e-01	12.0638	15.206355	0.000088	0.880212	0.298224	0.007184
 303	1.5100e-01	12.1264	15.251255	0.000110	1.100265	0.372780	0.008980
 304	1.5150e-01	12.1617	15.293163	0.000103	1.026914	0.347928	0.008381
 305	1.5200e-01	12.2018	15.333359	0.000098	0.984999	0.333727	0.008039
 306	1.5250e-01	12.2339	15.381681	0.000118	1.184095	0.401182	0.009664
 307	1.5300e-01	12.2579	15.423588	0.000103	1.026914	0.347928	0.008381
 308	1.5350e-01	12.3446	15.461219	0.000092	0.922127	0.312425	0.007526
 309	1.5400e-01	12.3542	15.511252	0.000123	1.226010	0.415383	0.010006
 310	1.5450e-01	12.4232	15.547600	0.000089	0.890691	0.301774	0.007270
 311	1.5500e-01	12.4424	15.590362	0.000105	1.047872	0.355029	0.008553
 312	1.5550e-01	12.4793	15.631842	0.000102	1.016436	0.344378	0.008296
 313	1.5600e-01	12.5387	15.678881	0.000115	1.152659	0.390531	0.009408
 314	1.5650e-01	12.5515	15.720788	0.000103	1.026914	0.347928	0.008381
 315	1.5700e-01	12.5996	15.759702	0.000095	0.953563	0.323076	0.007783
 316	1.5750e-01	12.6526	15.803747	0.000108	1.079308	0.365679	0.008809
 317	1.5800e-01	12.6847	15.843944	0.000098	0.984999	0.333727	0.008039
 318	1.5850e-01	12.7296	15.883286	0.000096	0.964042	0.326626	0.007868
 319	1.5900e-01	12.7697	15.926048	0.000105	1.047872	0.355029	0.008553
 320	1.5950e-01	12.8162	15.964534	0.000094	0.943085	0.319526	0.007697
 321	1.6000e-01	12.8740	16.011573	0.000115	1.152659	0.390531	0.009408
 322	1.6050e-01	12.9077	16.055619	0.000108	1.079308	0.365679	0.008809
 323	1.6100e-01	12.9093	16.096671	0.000101	1.005957	0.340827	0.008210
 324	1.6150e-01	12.9333	16.140288	0.000107	1.068829	0.362129	0.008724
 325	1.6200e-01	13.0216	16.178775	0.000094	0.943085	0.319526	0.007697
 326	1.6250e-01	13.0408	16.221537	0.000105	1.047872	0.355029	0.008553
 327	1.6300e-01	13.0729	16.260879	0.000096	0.964042	0.326626	0.007868
 328	1.6350e-01	13.1194	16.301503	0.000100	0.995478	0.337277	0.008125
 329	1.6400e-01	13.1643	16.345976	0.000109	1.089787	0.369230	0.008895
 330	1.6450e-01	13.1980	16.384035	0.000093	0.932606	0.315975	0.007612
 331	1.6500e-01	13.2574	16.442619	0.000144	1.435584	0.486389	0.011717
 332	1.6550e-01	13.3087	16.461435	0.000046	0.461064	0.156213	0.003763
 333	1.6600e-01	13.3199	16.511467	0.000123	1.226010	0.415383	0.010006
 334	1.6650e-01	13.3520	16.548671	0.000091	0.911648	0.308875	0.007441
 335	1.6700e-01	13.3921	16.593144	0.000109	1.089787	0.369230	0.008895
 336	1.6750e-01	13.4419	16.629919	0.000090	0.901170	0.305325	0.007355
 337	1.6800e-01	13.4804	16.668833	0.000095	0.953563	0.323076	0.007783
 338	1.6850e-01	13.5381	16.709458	0.000100	0.995478	0.337277	0.008125
 339	1.6900e-01	13.5445	16.755214	0.000112	1.121223	0.379881	0.009151
 340	1.6950e-01	13.6344	16.798404	0.000106	1.058350	0.358579	0.008638
 341	1.7000e-01	13.6408	16.834752	0.000089	0.890691	0.301774	0.007270
 342	1.7050e-01	13.6825	16.872810	0.000093	0.932606	0.315975	0.007612
 343	1.7100e-01	13.7274	16.914718	0.000103	1.026914	0.347928	0.008381
 344	1.7150e-01	13.7579	16.955770	0.000101	1.005957	0.340827	0.008210
 345	1.7200e-01	13.7868	16.996822	0.000101	1.005957	0.340827	0.008210
 346	1.7250e-01	13.8269	17.037019	0.000098	0.984999	0.333727	0.008039
 347	1.7300e-01	13.9023	17.077643	0.000100	0.995478	0.337277	0.008125
 348	1.7350e-01	13.9231	17.122971	0.000111	1.110744	0.376330	0.009066
 349	1.7400e-01	13.9632	17.158464	0.000087	0.869734	0.294674	0.007099
 350	1.7450e-01	14.0306	17.196523	0.000093	0.932606	0.315975	0.007612
 351	1.7500e-01	14.0627	17.237147	0.000100	0.995478	0.337277	0.008125
 352	1.7550e-01	14.1028	17.281620	0.000109	1.089787	0.369230	0.008895
 353	1.7600e-01	14.0996	17.324383	-0.000105	-1.047872	-0.355029	0.008553
 354	1.7650e-01	14.1782	17.362869	0.000094	0.943085	0.319526	0.007697
 355	1.7700e-01	14.2183	17.398790	0.000088	0.880212	0.298224	0.007184
 356	1.7750e-01	14.2841	17.438131	0.000096	0.964042	0.326626	0.007868
 357	1.7800e-01	14.2873	17.477473	0.000096	0.964042	0.326626	0.007868
 358	1.7850e-01	14.3306	17.523229	0.000112	1.121223	0.379881	0.009151
 359	1.7900e-01	14.3739	17.557866	0.000085	0.848776	0.287573	0.006928
 360	1.7950e-01	14.3932	17.595925	0.000093	0.932606	0.315975	0.007612
 361	1.8000e-01	14.4397	17.640398	0.000109	1.089787	0.369230	0.008895
 362	1.8050e-01	14.4862	17.678029	0.000092	0.922127	0.312425	0.007526
 363	1.8100e-01	14.4975	17.716088	0.000093	0.932606	0.315975	0.007612
 364	1.8150e-01	14.5520	17.763126	0.000115	1.152659	0.390531	0.009408
 365	1.8200e-01	14.5825	17.799047	0.000088	0.880212	0.298224	0.007184
 366	1.8250e-01	14.6370	17.840954	0.000103	1.026914	0.347928	0.008381
 367	1.8300e-01	14.6932	17.876019	0.000086	0.859255	0.291123	0.007013
 368	1.8350e-01	14.7236	17.918782	0.000105	1.047872	0.355029	0.008553
 369	1.8400e-01	14.7461	17.958123	0.000096	0.964042	0.326626	0.007868
 370	1.8450e-01	14.7862	17.993616	0.000087	0.869734	0.294674	0.007099
 371	1.8500e-01	14.8456	18.035951	0.000104	1.037393	0.351478	0.008467
 372	1.8550e-01	14.8728	18.075720	0.000097	0.974521	0.330177	0.007954
 373	1.8600e-01	14.8969	18.118483	0.000105	1.047872	0.355029	0.008553
 374	1.8650e-01	14.9531	18.150127	0.000078	0.775425	0.262721	0.006329
 375	1.8700e-01	14.9900	18.196311	0.000113	1.131701	0.383431	0.009237
 376	1.8750e-01	15.0445	18.229238	0.000081	0.806861	0.273372	0.006585
 377	1.8800e-01	15.0686	18.274566	0.000111	1.110744	0.376330	0.009066
 378	1.8850e-01	15.1199	18.311770	0.000091	0.911648	0.308875	0.007441
 379	1.8900e-01	15.1728	18.343841	0.000079	0.785904	0.266271	0.006414
 380	1.8950e-01	15.2033	18.389597	0.000112	1.121223	0.379881	0.009151
 381	1.9000e-01	15.2097	18.422097	0.000080	0.796382	0.269822	0.006500
 382	1.9050e-01	15.2787	18.464004	0.000103	1.026914	0.347928	0.008381
 383	1.9100e-01	15.3349	18.498214	0.000084	0.838297	0.284023	0.006842
 384	1.9150e-01	15.3605	18.540977	0.000105	1.047872	0.355029	0.008553
 385	1.9200e-01	15.3926	18.584594	0.000107	1.068829	0.362129	0.008724
 386	1.9250e-01	15.4359	18.618804	0.000084	0.838297	0.284023	0.006842
 387	1.9300e-01	15.4857	18.658146	0.000096	0.964042	0.326626	0.007868
 388	1.9350e-01	15.5338	18.697915	0.000097	0.974521	0.330177	0.007954
 389	1.9400e-01	15.5851	18.738112	0.000098	0.984999	0.333727	0.008039
 390	1.9450e-01	15.6332	18.771467	0.000082	0.817340	0.276922	0.006671
 391	1.9500e-01	15.6461	18.815512	0.000108	1.079308	0.365679	0.008809
 392	1.9550e-01	15.7070	18.852715	0.000091	0.911648	0.308875	0.007441
 393	1.9600e-01	15.7135	18.890347	0.000092	0.922127	0.312425	0.007526
 394	1.9650e-01	15.7648	18.925412	0.000086	0.859255	0.291123	0.007013
 395	1.9700e-01	15.7824	18.962615	0.000091	0.911648	0.308875	0.007441
 396	1.9750e-01	15.8370	19.004950	0.000104	1.037393	0.351478	0.008467
 397	1.9800e-01	15.8771	19.039160	0.000084	0.838297	0.284023	0.006842
 398	1.9850e-01	15.8996	19.082350	0.000106	1.058350	0.358579	0.008638
 399	1.9900e-01	15.9573	19.137086	0.000134	1.341276	0.454437	0.010947
 400	1.9950e-01	16.0022	19.163599	0.000065	0.649680	0.220118	0.005303
 401	2.0000e-01	16.0503	19.200375	0.000090	0.901170	0.305325	0.007355
 402	2.0050e-01	16.0728	19.238861	0.000094	0.943085	0.319526	0.007697
 403	2.0100e-01	16.1113	19.276920	0.000093	0.932606	0.315975	0.007612
 404	2.0150e-01	16.1546	19.306426	0.000072	0.723031	0.244970	0.005901
 405	2.0200e-01	16.1739	19.344912	0.000094	0.943085	0.319526	0.007697
 406	2.0250e-01	16.2605	19.384254	0.000096	0.964042	0.326626	0.007868
 407	2.0300e-01	16.2733	19.423595	0.000096	0.964042	0.326626	0.007868
 408	2.0350e-01	16.3150	19.459516	0.000088	0.880212	0.298224	0.007184
 409	2.0400e-01	16.3487	19.497574	0.000093	0.932606	0.315975	0.007612
 410	2.0450e-01	16.4065	19.533067	0.000087	0.869734	0.294674	0.007099
 411	2.0500e-01	16.4466	19.569415	0.000089	0.890691	0.301774	0.007270
 412	2.0550e-01	16.4963	19.608329	0.000095	0.953563	0.323076	0.007783
 413	2.0600e-01	16.5108	19.644677	0.000089	0.890691	0.301774	0.007270
 414	2.0650e-01	16.5509	19.684874	0.000098	0.984999	0.333727	0.008039
 415	2.0700e-01	16.5894	19.718657	0.000083	0.827819	0.280473	0.006756
 416	2.0750e-01	16.6584	19.761847	0.000106	1.058350	0.358579	0.008638
 417	2.0800e-01	16.7081	19.798623	0.000090	0.901170	0.305325	0.007355
 418	2.0850e-01	16.7209	19.831550	0.000081	0.806861	0.273372	0.006585
 419	2.0900e-01	16.7867	19.866187	0.000085	0.848776	0.287573	0.006928
 420	2.0950e-01	16.7995	19.906384	0.000098	0.984999	0.333727	0.008039
 421	2.1000e-01	16.8444	19.947864	0.000102	1.016436	0.344378	0.008296
 422	2.1050e-01	16.8878	19.988488	0.000100	0.995478	0.337277	0.008125
 423	2.1100e-01	16.9391	20.020132	0.000078	0.775425	0.262721	0.006329
 424	2.1150e-01	16.9519	20.059046	0.000095	0.953563	0.323076	0.007783
 425	2.1200e-01	17.0081	20.091974	0.000081	0.806861	0.273372	0.006585
 426	2.1250e-01	17.0305	20.129177	0.000091	0.911648	0.308875	0.007441
 427	2.1300e-01	17.0690	20.165097	0.000088	0.880212	0.298224	0.007184
 428	2.1350e-01	17.1236	20.205294	0.000098	0.984999	0.333727	0.008039
 429	2.1400e-01	17.1781	20.235228	0.000073	0.733510	0.248520	0.005987
 430	2.1450e-01	17.2166	20.277135	0.000103	1.026914	0.347928	0.008381
 431	2.1500e-01	17.2535	20.312201	0.000086	0.859255	0.291123	0.007013
 432	2.1550e-01	17.2952	20.345128	0.000081	0.806861	0.273372	0.006585
 433	2.1600e-01	17.3305	20.383186	0.000093	0.932606	0.315975	0.007612
 434	2.1650e-01	17.4043	20.420390	0.000091	0.911648	0.308875	0.007441
 435	2.1700e-01	17.4027	20.458021	-0.000092	-0.922127	-0.312425	0.007526
 436	2.1750e-01	17.4669	20.496079	0.000093	0.932606	0.315975	0.007612
 437	2.1800e-01	17.4653	20.529862	-0.000083	-0.827819	-0.280473	0.006756
 438	2.1850e-01	17.5134	20.554664	0.000061	0.607766	0.205917	0.004960
 439	2.1900e-01	17.5599	20.602130	0.000116	1.163138	0.394082	0.009493
 440	2.1950e-01	17.5872	20.641900	0.000097	0.974521	0.330177	0.007954
 441	2.2000e-01	17.6562	20.680386	0.000094	0.943085	0.319526	0.007697
 442	2.2050e-01	17.6786	20.714168	0.000083	0.827819	0.280473	0.006756
 443	2.2100e-01	17.7171	20.747523	0.000082	0.817340	0.276922	0.006671
 444	2.2150e-01	17.7637	20.791568	0.000108	1.079308	0.365679	0.008809
 445	2.2200e-01	17.8022	20.825779	0.000084	0.838297	0.284023	0.006842
 446	2.2250e-01	17.8375	20.859561	0.000083	0.827819	0.280473	0.006756
 447	2.2300e-01	17.8856	20.898475	0.000095	0.953563	0.323076	0.007783
 448	2.2350e-01	17.9337	20.927981	0.000072	0.723031	0.244970	0.005901
 449	2.2400e-01	17.9802	20.971599	0.000107	1.068829	0.362129	0.008724
 450	2.2450e-01	18.0123	21.004953	0.000082	0.817340	0.276922	0.006671
 451	2.2500e-01	18.0524	21.038308	0.000082	0.817340	0.276922	0.006671
 452	2.2550e-01	18.1182	21.076367	0.000093	0.932606	0.315975	0.007612
 453	2.2600e-01	18.1262	21.116991	0.000100	0.995478	0.337277	0.008125
 454	2.2650e-01	18.1744	21.145642	0.000070	0.702074	0.237869	0.005730
 455	2.2700e-01	18.1920	21.180707	0.000086	0.859255	0.291123	0.007013
 456	2.2750e-01	18.2305	21.218339	0.000092	0.922127	0.312425	0.007526
 457	2.2800e-01	18.2883	21.255970	0.000092	0.922127	0.312425	0.007526
 458	2.2850e-01	18.3107	21.293601	0.000092	0.922127	0.312425	0.007526
 459	2.2900e-01	18.3604	21.332514	0.000095	0.953563	0.323076	0.007783
 460	2.2950e-01	18.4086	21.365014	0.000080	0.796382	0.269822	0.006500
 461	2.3000e-01	18.4407	21.393665	0.000070	0.702074	0.237869	0.005730
 462	2.3050e-01	18.4792	21.430441	0.000090	0.901170	0.305325	0.007355
 463	2.3100e-01	18.5337	21.470210	0.000097	0.974521	0.330177	0.007954
 464	2.3150e-01	18.5674	21.501426	0.000076	0.764946	0.259171	0.006243
 465	2.3200e-01	18.5802	21.541623	0.000098	0.984999	0.333727	0.008039
 466	2.3250e-01	18.6492	21.578827	0.000091	0.911648	0.308875	0.007441
 467	2.3300e-01	18.6765	21.618596	0.000097	0.974521	0.330177	0.007954
 468	2.3350e-01	18.7182	21.647674	0.000071	0.712553	0.241419	0.005816
 469	2.3400e-01	18.7840	21.687443	0.000097	0.974521	0.330177	0.007954
 470	2.3450e-01	18.8177	21.719088	0.000078	0.775425	0.262721	0.006329
 471	2.3500e-01	18.8305	21.755863	0.000090	0.901170	0.305325	0.007355
 472	2.3550e-01	18.8866	21.784514	0.000070	0.702074	0.237869	0.005730
 473	2.3600e-01	18.9203	21.821718	0.000091	0.911648	0.308875	0.007441
 474	2.3650e-01	18.9701	21.857638	0.000088	0.880212	0.298224	0.007184
 475	2.3700e-01	19.0021	21.893986	0.000089	0.890691	0.301774	0.007270
 476	2.3750e-01	19.0567	21.928196	0.000084	0.838297	0.284023	0.006842
 477	2.3800e-01	19.0904	21.964545	0.000089	0.890691	0.301774	0.007270
 478	2.3850e-01	19.1225	21.997044	0.000080	0.796382	0.269822	0.006500
 479	2.3900e-01	19.1722	22.033392	0.000089	0.890691	0.301774	0.007270
 480	2.3950e-01	19.2059	22.073589	0.000098	0.984999	0.333727	0.008039
 481	2.4000e-01	19.2251	22.104378	0.000075	0.754468	0.255621	0.006158
 482	2.4050e-01	19.3085	22.140726	0.000089	0.890691	0.301774	0.007270
 483	2.4100e-01	19.3342	22.176647	0.000088	0.880212	0.298224	0.007184
 484	2.4150e-01	19.3872	22.206153	0.000072	0.723031	0.244970	0.005901
 485	2.4200e-01	19.3968	22.241646	0.000087	0.869734	0.294674	0.007099
 486	2.4250e-01	19.3920	22.279277	-0.000092	-0.922127	-0.312425	0.007526
 487	2.4300e-01	19.4658	22.308783	0.000072	0.723031	0.244970	0.005901
 488	2.4350e-01	19.5139	22.348124	0.000096	0.964042	0.326626	0.007868
 489	2.4400e-01	19.5492	22.385756	0.000092	0.922127	0.312425	0.007526
 490	2.4450e-01	19.6053	22.415689	0.000073	0.733510	0.248520	0.005987
 491	2.4500e-01	19.6358	22.453320	0.000092	0.922127	0.312425	0.007526
 492	2.4550e-01	19.6823	22.485392	0.000079	0.785904	0.266271	0.006414
 493	2.4600e-01	19.7401	22.522168	0.000090	0.901170	0.305325	0.007355
 494	2.4650e-01	19.7914	22.556378	0.000084	0.838297	0.284023	0.006842
 495	2.4700e-01	19.8155	22.591443	0.000086	0.859255	0.291123	0.007013
 496	2.4750e-01	19.8540	22.620522	0.000071	0.712553	0.241419	0.005816
 497	2.4800e-01	19.8797	22.660291	0.000097	0.974521	0.330177	0.007954
 498	2.4850e-01	19.9502	22.691935	0.000078	0.775425	0.262721	0.006329
 499	2.4900e-01	19.9647	22.727000	0.000086	0.859255	0.291123	0.007013
 500	2.4950e-01	19.9727	22.762921	0.000088	0.880212	0.298224	0.007184
 501	2.5000e-01	20.0353	22.795421	0.000080	0.796382	0.269822	0.006500
 502	2.5050e-01	19.9984	22.826210	-0.000075	-0.754468	-0.255621	0.006158
 503	2.5100e-01	19.9262	22.851439	-0.000062	-0.618244	-0.209467	0.005046
 504	2.5150e-01	19.9101	22.848018	0.000008	0.083830	0.028402	-0.000684
 505	2.5200e-01	19.8524	22.844597	0.000008	0.083830	0.028402	-0.000684
 506	2.5250e-01	19.8492	22.836045	0.000021	0.209574	0.071006	-0.001711
 507	2.5300e-01	19.7946	22.824927	0.000027	0.272447	0.092307	-0.002224
 508	2.5350e-01	19.7369	22.807822	0.000042	0.419149	0.142011	-0.003421
 509	2.5400e-01	19.6791	22.786013	0.000053	0.534415	0.181065	-0.004362
 510	2.5450e-01	19.6406	22.759500	0.000065	0.649680	0.220118	-0.005303
 511	2.5500e-01	19.6262	22.736408	0.000057	0.565851	0.191715	-0.004618
 512	2.5550e-01	19.5941	22.714172	0.000054	0.544893	0.184615	-0.004447
 513	2.5600e-01	19.5396	22.685948	0.000069	0.691595	0.234319	-0.005645
 514	2.5650e-01	19.5107	22.653449	0.000080	0.796382	0.269822	-0.006500
 515	2.5700e-01	19.4529	22.626509	0.000066	0.660159	0.223668	-0.005388
 516	2.5750e-01	19.4128	22.603417	0.000057	0.565851	0.191715	-0.004618
 517	2.5800e-01	19.4241	22.565358	-0.000093	-0.932606	-0.315975	-0.007612
 518	2.5850e-01	19.3454	22.540556	0.000061	0.607766	0.205917	-0.004960
 519	2.5900e-01	19.2989	22.512333	0.000069	0.691595	0.234319	-0.005645
 520	2.5950e-01	19.2989	22.481971	0.000074	0.743989	0.252070	-0.006072
 521	2.6000e-01	19.2203	22.452893	0.000071	0.712553	0.241419	-0.005816
 522	2.6050e-01	19.1674	22.421676	0.000076	0.764946	0.259171	-0.006243
 523	2.6100e-01	19.1369	22.394736	0.000066	0.660159	0.223668	-0.005388
 524	2.6150e-01	19.1048	22.361381	0.000082	0.817340	0.276922	-0.006671
 525	2.6200e-01	19.0711	22.334013	0.000067	0.670638	0.227218	-0.005474
 526	2.6250e-01	19.0070	22.301513	0.000080	0.796382	0.269822	-0.006500
 527	2.6300e-01	18.9733	22.264738	0.000090	0.901170	0.305325	-0.007355
 528	2.6350e-01	18.9717	22.236942	0.000068	0.681117	0.230769	-0.005559
 529	2.6400e-01	18.9171	22.209146	0.000068	0.681117	0.230769	-0.005559
 530	2.6450e-01	18.8401	22.174509	0.000085	0.848776	0.287573	-0.006928
 531	2.6500e-01	18.8273	22.145430	0.000071	0.712553	0.241419	-0.005816
 532	2.6550e-01	18.7727	22.109510	0.000088	0.880212	0.298224	-0.007184
 533	2.6600e-01	18.7679	22.082997	0.000065	0.649680	0.220118	-0.005303
 534	2.6650e-01	18.6829	22.062043	0.000051	0.513457	0.173964	-0.004191
 535	2.6700e-01	18.6669	22.022702	0.000096	0.964042	0.326626	-0.007868
 536	2.6750e-01	18.6107	21.987209	0.000087	0.869734	0.294674	-0.007099
 537	2.6800e-01	18.5931	21.955564	0.000078	0.775425	0.262721	-0.006329
 538	2.6850e-01	18.5417	21.923920	0.000078	0.775425	0.262721	-0.006329
 539	2.6900e-01	18.5257	21.889710	0.000084	0.838297	0.284023	-0.006842
 540	2.6950e-01	18.4711	21.847375	0.000104	1.037393	0.351478	-0.008467
 541	2.7000e-01	18.4134	21.819152	0.000069	0.691595	0.234319	-0.005645
 542	2.7050e-01	18.3829	21.790929	0.000069	0.691595	0.234319	-0.005645
 543	2.7100e-01	18.3171	21.759712	0.000076	0.764946	0.259171	-0.006243
 544	2.7150e-01	18.2866	21.725074	0.000085	0.848776	0.287573	-0.006928
 545	2.7200e-01	18.2433	21.693003	0.000079	0.785904	0.266271	-0.006414
 546	2.7250e-01	18.2161	21.661786	0.000076	0.764946	0.259171	-0.006243
 547	2.7300e-01	18.1727	21.631852	0.000073	0.733510	0.248520	-0.005987
 548	2.7350e-01	18.1391	21.594649	0.000091	0.911648	0.308875	-0.007441
 549	2.7400e-01	18.0909	21.562149	0.000080	0.796382	0.269822	-0.006500
 550	2.7450e-01	18.0460	21.532215	0.000073	0.733510	0.248520	-0.005987
 551	2.7500e-01	18.0043	21.503565	0.000070	0.702074	0.237869	-0.005730
 552	2.7550e-01	17.9578	21.468927	0.000085	0.848776	0.287573	-0.006928
 553	2.7600e-01	17.9401	21.433862	0.000086	0.859255	0.291123	-0.007013
 554	2.7650e-01	17.8968	21.400507	0.000082	0.817340	0.276922	-0.006671
 555	2.7700e-01	17.8631	21.370145	0.000074	0.743989	0.252070	-0.006072
 556	2.7750e-01	17.8166	21.340212	0.000073	0.733510	0.248520	-0.005987
 557	2.7800e-01	17.7733	21.301725	0.000094	0.943085	0.319526	-0.007697
 558	2.7850e-01	17.7332	21.269654	0.000079	0.785904	0.266271	-0.006414
 559	2.7900e-01	17.7011	21.235444	0.000084	0.838297	0.284023	-0.006842
 560	2.7950e-01	17.6594	21.204227	0.000076	0.764946	0.259171	-0.006243
 561	2.8000e-01	17.6049	21.174293	0.000073	0.733510	0.248520	-0.005987
 562	2.8050e-01	17.6000	21.141794	0.000080	0.796382	0.269822	-0.006500
 563	2.8100e-01	17.5278	21.101169	0.000100	0.995478	0.337277	-0.008125
 564	2.8150e-01	17.5006	21.074656	0.000065	0.649680	0.220118	-0.005303
 565	2.8200e-01	17.4524	21.036170	0.000094	0.943085	0.319526	-0.007697
 566	2.8250e-01	17.4204	21.008374	0.000068	0.681117	0.230769	-0.005559
 567	2.8300e-01	17.3418	20.973309	0.000086	0.859255	0.291123	-0.007013
 568	2.8350e-01	17.3353	20.939099	0.000084	0.838297	0.284023	-0.006842
 569	2.8400e-01	17.2840	20.905317	0.000083	0.827819	0.280473	-0.006756
 570	2.8450e-01	17.2455	20.872817	0.000080	0.796382	0.269822	-0.006500
 571	2.8500e-01	17.2038	20.836042	0.000090	0.901170	0.305325	-0.007355
 572	2.8550e-01	17.1845	20.804825	0.000076	0.764946	0.259171	-0.006243
 573	2.8600e-01	17.1204	20.769760	0.000086	0.859255	0.291123	-0.007013
 574	2.8650e-01	17.0578	20.734267	0.000087	0.869734	0.294674	-0.007099
 575	2.8700e-01	17.0690	20.699201	-0.000086	-0.859255	-0.291123	-0.007013
 576	2.8750e-01	17.0177	20.668840	0.000074	0.743989	0.252070	-0.006072
 577	2.8800e-01	16.9744	20.633775	0.000086	0.859255	0.291123	-0.007013
 578	2.8850e-01	16.9455	20.601703	0.000079	0.785904	0.266271	-0.006414
 579	2.8900e-01	16.8926	20.564927	0.000090	0.901170	0.305325	-0.007355
 580	2.8950e-01	16.8894	20.534566	0.000074	0.743989	0.252070	-0.006072
 581	2.9000e-01	16.8364	20.497790	0.000090	0.901170	0.305325	-0.007355
 582	2.9050e-01	16.7642	20.458021	0.000097	0.974521	0.330177	-0.007954
 583	2.9100e-01	16.7241	20.428515	0.000072	0.723031	0.244970	-0.005901
 584	2.9150e-01	16.6888	20.398153	0.000074	0.743989	0.252070	-0.006072
 585	2.9200e-01	16.6776	20.356246	0.000103	1.026914	0.347928	-0.008381
 586	2.9250e-01	16.6134	20.328023	0.000069	0.691595	0.234319	-0.005645
 587	2.9300e-01	16.5637	20.291675	0.000089	0.890691	0.301774	-0.007270
 588	2.9350e-01	16.5541	20.259603	0.000079	0.785904	0.266271	-0.006414
 589	2.9400e-01	16.5011	20.221972	0.000092	0.922127	0.312425	-0.007526
 590	2.9450e-01	16.4658	20.189472	0.000080	0.796382	0.269822	-0.006500
 591	2.9500e-01	16.4225	20.152269	0.000091	0.911648	0.308875	-0.007441
 592	2.9550e-01	16.3888	20.122763	0.000072	0.723031	0.244970	-0.005901
 593	2.9600e-01	16.3343	20.083849	0.000095	0.953563	0.323076	-0.007783
 594	2.9650e-01	16.2926	20.050922	0.000081	0.806861	0.273372	-0.006585
 595	2.9700e-01	16.2220	20.025264	0.000063	0.628723	0.213017	-0.005132
 596	2.9750e-01	16.2429	19.986350	-0.000095	-0.953563	-0.323076	-0.007783
 597	2.9800e-01	16.1947	19.952995	0.000082	0.817340	0.276922	-0.006671
 598	2.9850e-01	16.1386	19.914937	0.000093	0.932606	0.315975	-0.007612
 599	2.9900e-01	16.1065	19.876878	0.000093	0.932606	0.315975	-0.007612
 600	2.9950e-01	16.0471	19.844806	0.000079	0.785904	0.266271	-0.006414
 601	3.0000e-01	16.0167	19.814017	0.000075	0.754468	0.255621	-0.006158
 602	3.0050e-01	15.9717	19.758426	0.000136	1.362233	0.461537	-0.011118
 603	3.0100e-01	15.9397	19.731485	0.000066	0.660159	0.223668	-0.005388
 604	3.0150e-01	15.8996	19.711815	0.000048	0.482021	0.163313	-0.003934
 605	3.0200e-01	15.8979	19.671190	0.000100	0.995478	0.337277	-0.008125
 606	3.0250e-01	15.8145	19.637408	0.000083	0.827819	0.280473	-0.006756
 607	3.0300e-01	15.7857	19.603198	0.000084	0.838297	0.284023	-0.006842
 608	3.0350e-01	15.7423	19.564284	0.000095	0.953563	0.323076	-0.007783
 609	3.0400e-01	15.7167	19.531357	0.000081	0.806861	0.273372	-0.006585
 610	3.0450e-01	15.6637	19.493726	0.000092	0.922127	0.312425	-0.007526
 611	3.0500e-01	15.6493	19.459088	0.000085	0.848776	0.287573	-0.006928
 612	3.0550e-01	15.5707	19.424450	0.000085	0.848776	0.287573	-0.006928
 613	3.0600e-01	15.5434	19.389385	0.000086	0.859255	0.291123	-0.007013
 614	3.0650e-01	15.4841	19.350471	0.000095	0.953563	0.323076	-0.007783
 615	3.0700e-01	15.4536	19.317117	0.000082	0.817340	0.276922	-0.006671
 616	3.0750e-01	15.3958	19.279913	0.000091	0.911648	0.308875	-0.007441
 617	3.0800e-01	15.3766	19.246131	0.000083	0.827819	0.280473	-0.006756
 618	3.0850e-01	15.3300	19.211921	0.000084	0.838297	0.284023	-0.006842
 619	3.0900e-01	15.2819	19.174717	0.000091	0.911648	0.308875	-0.007441
 620	3.0950e-01	15.2530	19.140080	0.000085	0.848776	0.287573	-0.006928
 621	3.1000e-01	15.2274	19.100311	0.000097	0.974521	0.330177	-0.007954
 622	3.1050e-01	15.1680	19.066100	0.000084	0.838297	0.284023	-0.006842
 623	3.1100e-01	15.1424	19.030608	0.000087	0.869734	0.294674	-0.007099
 624	3.1150e-01	15.0878	18.996825	0.000083	0.827819	0.280473	-0.006756
 625	3.1200e-01	15.0573	18.965181	0.000078	0.775425	0.262721	-0.006329
 626	3.1250e-01	15.0285	18.920280	0.000110	1.100265	0.372780	-0.008980
 627	3.1300e-01	14.9434	18.885643	0.000085	0.848776	0.287573	-0.006928
 628	3.1350e-01	14.9354	18.855709	0.000073	0.733510	0.248520	-0.005987
 629	3.1400e-01	14.9081	18.815940	0.000097	0.974521	0.330177	-0.007954
 630	3.1450e-01	14.8616	18.780019	0.000088	0.880212	0.298224	-0.007184
 631	3.1500e-01	14.8327	18.741533	0.000094	0.943085	0.319526	-0.007697
 632	3.1550e-01	14.7878	18.709033	0.000080	0.796382	0.269822	-0.006500
 633	3.1600e-01	14.7365	18.666271	0.000105	1.047872	0.355029	-0.008553
 634	3.1650e-01	14.7028	18.638048	0.000069	0.691595	0.234319	-0.005645
 635	3.1700e-01	14.6226	18.597423	0.000100	0.995478	0.337277	-0.008125
 636	3.1750e-01	14.6130	18.561930	0.000087	0.869734	0.294674	-0.007099
 637	3.1800e-01	14.6017	18.523016	0.000095	0.953563	0.323076	-0.007783
 638	3.1850e-01	14.5311	18.488379	0.000085	0.848776	0.287573	-0.006928
 639	3.1900e-01	14.4894	18.455879	0.000080	0.796382	0.269822	-0.006500
 640	3.1950e-01	14.4493	18.414400	0.000102	1.016436	0.344378	-0.008296
 641	3.2000e-01	14.4269	18.380190	0.000084	0.838297	0.284023	-0.006842
 642	3.2050e-01	14.3852	18.343414	0.000090	0.901170	0.305325	-0.007355
 643	3.2100e-01	14.3242	18.301934	0.000102	1.016436	0.344378	-0.008296
 644	3.2150e-01	14.2937	18.272428	0.000072	0.723031	0.244970	-0.005901
 645	3.2200e-01	14.2584	18.228383	0.000108	1.079308	0.365679	-0.008809
 646	3.2250e-01	14.2087	18.194173	0.000084	0.838297	0.284023	-0.006842
 647	3.2300e-01	14.1750	18.158680	0.000087	0.869734	0.294674	-0.007099
 648	3.2350e-01	14.1349	18.124897	0.000083	0.827819	0.280473	-0.006756
 649	3.2400e-01	14.0996	18.085128	0.000097	0.974521	0.330177	-0.007954
 650	3.2450e-01	14.0739	18.048780	0.000089	0.890691	0.301774	-0.007270
 651	3.2500e-01	13.9905	18.012432	0.000089	0.890691	0.301774	-0.007270
 652	3.2550e-01	13.9632	17.976939	0.000087	0.869734	0.294674	-0.007099
 653	3.2600e-01	13.9344	17.937170	0.000097	0.974521	0.330177	-0.007954
 654	3.2650e-01	13.8718	17.901249	0.000088	0.880212	0.298224	-0.007184
 655	3.2700e-01	13.8397	17.863191	0.000093	0.932606	0.315975	-0.007612
 656	3.2750e-01	13.7932	17.826842	0.000089	0.890691	0.301774	-0.007270
 657	3.2800e-01	13.8092	17.784935	-0.000103	-1.026914	-0.347928	-0.008381
 658	3.2850e-01	13.7547	17.748159	0.000090	0.901170	0.305325	-0.007355
 659	3.2900e-01	13.7001	17.719509	0.000070	0.702074	0.237869	-0.005730
 660	3.2950e-01	13.6440	17.678884	0.000100	0.995478	0.337277	-0.008125
 661	3.3000e-01	13.6199	17.636122	0.000105	1.047872	0.355029	-0.008553
 662	3.3050e-01	13.5943	17.594214	0.000103	1.026914	0.347928	-0.008381
 663	3.3100e-01	13.5429	17.560004	0.000084	0.838297	0.284023	-0.006842
 664	3.3150e-01	13.5285	17.523656	0.000089	0.890691	0.301774	-0.007270
 665	3.3200e-01	13.4483	17.489446	0.000084	0.838297	0.284023	-0.006842
 666	3.3250e-01	13.4146	17.448822	0.000100	0.995478	0.337277	-0.008125
 667	3.3300e-01	13.3633	17.407342	0.000102	1.016436	0.344378	-0.008296
 668	3.3350e-01	13.3167	17.375698	0.000078	0.775425	0.262721	-0.006329
 669	3.3400e-01	13.2782	17.336356	0.000096	0.964042	0.326626	-0.007868
 670	3.3450e-01	13.2606	17.306850	0.000072	0.723031	0.244970	-0.005901
 671	3.3500e-01	13.2141	17.263660	0.000106	1.058350	0.358579	-0.008638
 672	3.3550e-01	13.1836	17.222608	0.000101	1.005957	0.340827	-0.008210
 673	3.3600e-01	13.1066	17.181128	0.000102	1.016436	0.344378	-0.008296
 674	3.3650e-01	13.1226	17.149484	-0.000078	-0.775425	-0.262721	-0.006329
 675	3.3700e-01	13.0440	17.104583	0.000110	1.100265	0.372780	-0.008980
 676	3.3750e-01	12.9959	17.064387	0.000098	0.984999	0.333727	-0.008039
 677	3.3800e-01	12.9863	17.028894	0.000087	0.869734	0.294674	-0.007099
 678	3.3850e-01	12.9365	16.986986	0.000103	1.026914	0.347928	-0.008381
 679	3.3900e-01	12.9413	16.951066	-0.000088	-0.880212	-0.298224	-0.007184
 680	3.3950e-01	12.8676	16.909586	0.000102	1.016436	0.344378	-0.008296
 681	3.4000e-01	12.8082	16.875804	0.000083	0.827819	0.280473	-0.006756
 682	3.4050e-01	12.7729	16.837318	0.000094	0.943085	0.319526	-0.007697
 683	3.4100e-01	12.7408	16.800114	0.000091	0.911648	0.308875	-0.007441
 684	3.4150e-01	12.6959	16.762483	0.000092	0.922127	0.312425	-0.007526
 685	3.4200e-01	12.6638	16.720148	0.000104	1.037393	0.351478	-0.008467
 686	3.4250e-01	12.6157	16.685938	0.000084	0.838297	0.284023	-0.006842
 687	3.4300e-01	12.5836	16.647880	0.000093	0.932606	0.315975	-0.007612
 688	3.4350e-01	12.5371	16.606400	0.000102	1.016436	0.344378	-0.008296
 689	3.4400e-01	12.5018	16.570052	0.000089	0.890691	0.301774	-0.007270
 690	3.4450e-01	12.4745	16.530710	0.000096	0.964042	0.326626	-0.007868
 691	3.4500e-01	12.4424	16.494790	0.000088	0.880212	0.298224	-0.007184
 692	3.4550e-01	12.3815	16.455021	0.000097	0.974521	0.330177	-0.007954
 693	3.4600e-01	12.3301	16.414396	0.000100	0.995478	0.337277	-0.008125
 694	3.4650e-01	12.2916	16.377620	0.000090	0.901170	0.305325	-0.007355
 695	3.4700e-01	12.2644	16.333575	0.000108	1.079308	0.365679	-0.008809
 696	3.4750e-01	12.2146	16.294661	0.000095	0.953563	0.323076	-0.007783
 697	3.4800e-01	12.1986	16.261306	0.000082	0.817340	0.276922	-0.006671
 698	3.4850e-01	12.1569	16.220254	0.000101	1.005957	0.340827	-0.008210
 699	3.4900e-01	12.0991	16.176209	0.000108	1.079308	0.365679	-0.008809
 700	3.4950e-01	12.0334	16.134729	0.000102	1.016436	0.344378	-0.008296
 701	3.5000e-01	12.0013	16.102230	0.000080	0.796382	0.269822	-0.006500
 702	3.5050e-01	11.9900	16.059467	0.000105	1.047872	0.355029	-0.008553
 703	3.5100e-01	11.9467	16.022264	0.000091	0.911648	0.308875	-0.007441
 704	3.5150e-01	11.9146	15.979074	0.000106	1.058350	0.358579	-0.008638
 705	3.5200e-01	11.8729	15.937166	0.000103	1.026914	0.347928	-0.008381
 706	3.5250e-01	11.8200	15.905950	0.000076	0.764946	0.259171	-0.006243
 707	3.5300e-01	11.7542	15.863187	0.000105	1.047872	0.355029	-0.008553
 708	3.5350e-01	11.7237	15.819569	0.000107	1.068829	0.362129	-0.008724
 709	3.5400e-01	11.6884	15.782794	0.000090	0.901170	0.305325	-0.007355
 710	3.5450e-01	11.6403	15.741314	0.000102	1.016436	0.344378	-0.008296
 711	3.5500e-01	11.6259	15.699834	0.000102	1.016436	0.344378	-0.008296
 712	3.5550e-01	11.5810	15.663059	0.000090	0.901170	0.305325	-0.007355
 713	3.5600e-01	11.5409	15.624572	0.000094	0.943085	0.319526	-0.007697
 714	3.5650e-01	11.4719	15.580527	0.000108	1.079308	0.365679	-0.008809
 715	3.5700e-01	11.4510	15.543751	0.000090	0.901170	0.305325	-0.007355
 716	3.5750e-01	11.4077	15.503554	0.000098	0.984999	0.333727	-0.008039
 717	3.5800e-01	11.3933	15.460364	0.000106	1.058350	0.358579	-0.008638
 718	3.5850e-01	11.3243	15.418885	0.000102	1.016436	0.344378	-0.008296
 719	3.5900e-01	11.3002	15.384675	0.000084	0.838297	0.284023	-0.006842
 720	3.5950e-01	11.2457	15.345333	0.000096	0.964042	0.326626	-0.007868
 721	3.6000e-01	11.2024	15.300005	0.000111	1.110744	0.376330	-0.009066
 722	3.6050e-01	11.1767	15.256815	0.000106	1.058350	0.358579	-0.008638
 723	3.6100e-01	11.1205	15.214907	0.000103	1.026914	0.347928	-0.008381
 724	3.6150e-01	11.0852	15.181553	0.000082	0.817340	0.276922	-0.006671
 725	3.6200e-01	11.0869	15.139218	-0.000104	-1.037393	-0.351478	-0.008467
 726	3.6250e-01	11.0050	15.093462	0.000112	1.121223	0.379881	-0.009151
 727	3.6300e-01	10.9938	15.048989	0.000109	1.089787	0.369230	-0.008895
 728	3.6350e-01	10.9200	15.014351	0.000085	0.848776	0.287573	-0.006928
 729	3.6400e-01	10.8976	14.970306	0.000108	1.079308	0.365679	-0.008809
 730	3.6450e-01	10.8510	14.932675	0.000092	0.922127	0.312425	-0.007526
 731	3.6500e-01	10.8398	14.891195	0.000102	1.016436	0.344378	-0.008296
 732	3.6550e-01	10.7740	14.848432	0.000105	1.047872	0.355029	-0.008553
 733	3.6600e-01	10.7179	14.810374	0.000093	0.932606	0.315975	-0.007612
 734	3.6650e-01	10.6826	14.768894	0.000102	1.016436	0.344378	-0.008296
 735	3.6700e-01	10.6585	14.726559	0.000104	1.037393	0.351478	-0.008467
 736	3.6750e-01	10.6056	14.683369	0.000106	1.058350	0.358579	-0.008638
 737	3.6800e-01	10.5831	14.642317	0.000101	1.005957	0.340827	-0.008210
 738	3.6850e-01	10.5607	14.625212	0.000042	0.419149	0.142011	-0.003421
 739	3.6900e-01	10.4885	14.566627	0.000144	1.435584	0.486389	-0.011717
 740	3.6950e-01	10.4420	14.523437	0.000106	1.058350	0.358579	-0.008638
 741	3.7000e-01	10.4067	14.483668	0.000097	0.974521	0.330177	-0.007954
 742	3.7050e-01	10.3682	14.435774	0.000117	1.173616	0.397632	-0.009579
 743	3.7100e-01	10.3072	14.386169	0.000122	1.215531	0.411833	-0.009921
 744	3.7150e-01	10.2928	14.355380	0.000075	0.754468	0.255621	-0.006158
 745	3.7200e-01	10.2703	14.307486	0.000117	1.173616	0.397632	-0.009579
 746	3.7250e-01	10.2238	14.269855	0.000092	0.922127	0.312425	-0.007526
 747	3.7300e-01	10.1756	14.227521	0.000104	1.037393	0.351478	-0.008467
 748	3.7350e-01	10.1275	14.182192	0.000111	1.110744	0.376330	-0.009066
 749	3.7400e-01	10.1291	14.140285	-0.000103	-1.026914	-0.347928	-0.008381
 750	3.7450e-01	10.0682	14.100088	0.000098	0.984999	0.333727	-0.008039
 751	3.7500e-01	10.0265	14.058181	0.000103	1.026914	0.347928	-0.008381
 752	3.7550e-01	9.9703	14.017557	0.000100	0.995478	0.337277	-0.008125
 753	3.7600e-01	9.9174	13.976504	0.000101	1.005957	0.340827	-0.008210
 754	3.7650e-01	9.8997	13.933314	0.000106	1.058350	0.358579	-0.008638
 755	3.7700e-01	9.8388	13.890124	0.000106	1.058350	0.358579	-0.008638
 756	3.7750e-01	9.8420	13.852066	-0.000093	-0.932606	-0.315975	-0.007612
 757	3.7800e-01	9.7618	13.805027	0.000115	1.152659	0.390531	-0.009408
 758	3.7850e-01	9.7537	13.760981	0.000108	1.079308	0.365679	-0.008809
 759	3.7900e-01	9.7168	13.719074	0.000103	1.026914	0.347928	-0.008381
 760	3.7950e-01	9.6382	13.677167	0.000103	1.026914	0.347928	-0.008381
 761	3.8000e-01	9.6318	13.635260	0.000103	1.026914	0.347928	-0.008381
 762	3.8050e-01	9.5789	13.590786	0.000109	1.089787	0.369230	-0.008895
 763	3.8100e-01	9.5307	13.547596	0.000106	1.058350	0.358579	-0.008638
 764	3.8150e-01	9.5163	13.503123	0.000109	1.089787	0.369230	-0.008895
 765	3.8200e-01	9.4441	13.465065	0.000093	0.932606	0.315975	-0.007612
 766	3.8250e-01	9.3976	13.422730	0.000104	1.037393	0.351478	-0.008467
 767	3.8300e-01	9.3607	13.380395	0.000104	1.037393	0.351478	-0.008467
 768	3.8350e-01	9.3719	13.329935	-0.000124	-1.236489	-0.418934	-0.010092
 769	3.8400e-01	9.3013	13.291449	0.000094	0.943085	0.319526	-0.007697
 770	3.8450e-01	9.2324	13.252535	0.000095	0.953563	0.323076	-0.007783
 771	3.8500e-01	9.2179	13.207634	0.000110	1.100265	0.372780	-0.008980
 772	3.8550e-01	9.1425	13.160168	0.000116	1.163138	0.394082	-0.009493
 773	3.8600e-01	9.1425	13.120826	0.000096	0.964042	0.326626	-0.007868
 774	3.8650e-01	9.1056	13.074643	0.000113	1.131701	0.383431	-0.009237
 775	3.8700e-01	9.0623	13.033591	0.000101	1.005957	0.340827	-0.008210
 776	3.8750e-01	9.0238	12.987407	0.000113	1.131701	0.383431	-0.009237
 777	3.8800e-01	8.9741	12.948493	0.000095	0.953563	0.323076	-0.007783
 778	3.8850e-01	8.9388	12.903165	0.000111	1.110744	0.376330	-0.009066
 779	3.8900e-01	8.8907	12.863824	0.000096	0.964042	0.326626	-0.007868
 780	3.8950e-01	8.8554	12.813364	0.000124	1.236489	0.418934	-0.010092
 781	3.9000e-01	8.8297	12.772739	0.000100	0.995478	0.337277	-0.008125
 782	3.9050e-01	8.7719	12.725701	0.000115	1.152659	0.390531	-0.009408
 783	3.9100e-01	8.7094	12.684221	0.000102	1.016436	0.344378	-0.008296
 784	3.9150e-01	8.6901	12.636754	0.000116	1.163138	0.394082	-0.009493
 785	3.9200e-01	8.6677	12.594847	0.000103	1.026914	0.347928	-0.008381
 786	3.9250e-01	8.6211	12.552512	0.000104	1.037393	0.351478	-0.008467
 787	3.9300e-01	8.5474	12.506329	0.000113	1.131701	0.383431	-0.009237
 788	3.9350e-01	8.5490	12.461856	-0.000109	-1.089787	-0.369230	-0.008895
 789	3.9400e-01	8.4896	12.420376	0.000102	1.016436	0.344378	-0.008296
 790	3.9450e-01	8.4431	12.373765	0.000114	1.142180	0.386981	-0.009322
 791	3.9500e-01	8.4110	12.325871	0.000117	1.173616	0.397632	-0.009579
 792	3.9550e-01	8.4094	12.278832	0.000115	1.152659	0.390531	-0.009408
 793	3.9600e-01	8.3212	12.239491	0.000096	0.964042	0.326626	-0.007868
 794	3.9650e-01	8.2955	12.193735	0.000112	1.121223	0.379881	-0.009151
 795	3.9700e-01	8.2714	12.148406	0.000111	1.110744	0.376330	-0.009066
 796	3.9750e-01	8.2008	12.104789	0.000107	1.068829	0.362129	-0.008724
 797	3.9800e-01	8.1736	12.059033	0.000112	1.121223	0.379881	-0.009151
 798	3.9850e-01	8.1431	12.014132	0.000110	1.100265	0.372780	-0.008980
 799	3.9900e-01	8.0789	11.970087	0.000108	1.079308	0.365679	-0.008809
 800	3.9950e-01	8.0549	11.926897	0.000106	1.058350	0.358579	-0.008638
 801	4.0000e-01	8.0308	11.881141	0.000112	1.121223	0.379881	-0.009151
 802	4.0050e-01	7.9730	11.833247	0.000117	1.173616	0.397632	-0.009579
 803	4.0100e-01	7.9249	11.796043	0.000091	0.911648	0.308875	-0.007441
 804	4.0150e-01	7.8992	11.743873	0.000128	1.278403	0.433135	-0.010434
 805	4.0200e-01	7.8575	11.701110	0.000105	1.047872	0.355029	-0.008553
 806	4.0250e-01	7.8158	11.643809	0.000140	1.404148	0.475738	-0.011460
 807	4.0300e-01	7.7645	11.604039	0.000097	0.974521	0.330177	-0.007954
 808	4.0350e-01	7.7340	11.564270	0.000097	0.974521	0.330177	-0.007954
 809	4.0400e-01	7.6939	11.516376	0.000117	1.173616	0.397632	-0.009579
 810	4.0450e-01	7.6586	11.474469	0.000103	1.026914	0.347928	-0.008381
 811	4.0500e-01	7.6169	11.427858	0.000114	1.142180	0.386981	-0.009322
 812	4.0550e-01	7.5752	11.380391	0.000116	1.163138	0.394082	-0.009493
 813	4.0600e-01	7.5319	11.332925	0.000116	1.163138	0.394082	-0.009493
 814	4.0650e-01	7.4837	11.289307	0.000107	1.068829	0.362129	-0.008724
 815	4.0700e-01	7.4501	11.243979	0.000111	1.110744	0.376330	-0.009066
 816	4.0750e-01	7.3923	11.195657	0.000118	1.184095	0.401182	-0.009664
 817	4.0800e-01	7.3763	11.152895	0.000105	1.047872	0.355029	-0.008553
 818	4.0850e-01	7.3329	11.105001	0.000117	1.173616	0.397632	-0.009579
 819	4.0900e-01	7.2944	11.057534	0.000116	1.163138	0.394082	-0.009493
 820	4.0950e-01	7.2463	11.011351	0.000113	1.131701	0.383431	-0.009237
 821	4.1000e-01	7.2158	10.961319	0.000123	1.226010	0.415383	-0.010006
 822	4.1050e-01	7.1709	10.921122	0.000098	0.984999	0.333727	-0.008039
 823	4.1100e-01	7.1340	10.872373	0.000119	1.194574	0.404733	-0.009750
 824	4.1150e-01	7.1116	10.823196	0.000121	1.205052	0.408283	-0.009835
 825	4.1200e-01	7.0650	10.780006	0.000106	1.058350	0.358579	-0.008638
 826	4.1250e-01	7.0169	10.732112	0.000117	1.173616	0.397632	-0.009579
 827	4.1300e-01	7.0009	10.682079	0.000123	1.226010	0.415383	-0.010006
 828	4.1350e-01	6.9463	10.639317	0.000105	1.047872	0.355029	-0.008553
 829	4.1400e-01	6.8838	10.588429	0.000125	1.246967	0.422484	-0.010177
 830	4.1450e-01	6.8421	10.545239	0.000106	1.058350	0.358579	-0.008638
 831	4.1500e-01	6.8244	10.494352	0.000125	1.246967	0.422484	-0.010177
 832	4.1550e-01	6.7747	10.449024	0.000111	1.110744	0.376330	-0.009066
 833	4.1600e-01	6.7265	10.400702	0.000118	1.184095	0.401182	-0.009664
 834	4.1650e-01	6.6768	10.355801	0.000110	1.100265	0.372780	-0.008980
 835	4.1700e-01	6.6367	10.311328	0.000109	1.089787	0.369230	-0.008895
 836	4.1750e-01	6.5677	10.259586	0.000127	1.267925	0.429585	-0.010349
 837	4.1800e-01	6.5517	10.214685	0.000110	1.100265	0.372780	-0.008980
 838	4.1850e-01	6.5212	10.167219	0.000116	1.163138	0.394082	-0.009493
 839	4.1900e-01	6.5164	10.117614	0.000122	1.215531	0.411833	-0.009921
 840	4.1950e-01	6.4955	10.069720	0.000117	1.173616	0.397632	-0.009579
 841	4.2000e-01	6.4201	10.023109	0.000114	1.142180	0.386981	-0.009322
 842	4.2050e-01	6.3768	9.977353	0.000112	1.121223	0.379881	-0.009151
 843	4.2100e-01	6.3127	9.932452	0.000110	1.100265	0.372780	-0.008980
 844	4.2150e-01	6.3223	9.873440	-0.000145	-1.446063	-0.489939	-0.011802
 845	4.2200e-01	6.2340	9.833671	0.000097	0.974521	0.330177	-0.007954
 846	4.2250e-01	6.2212	9.785349	0.000118	1.184095	0.401182	-0.009664
 847	4.2300e-01	6.1763	9.737455	0.000117	1.173616	0.397632	-0.009579
 848	4.2350e-01	6.1282	9.690416	0.000115	1.152659	0.390531	-0.009408
 849	4.2400e-01	6.1009	9.637818	0.000129	1.288882	0.436685	-0.010520
 850	4.2450e-01	6.0897	9.593345	0.000109	1.089787	0.369230	-0.008895
 851	4.2500e-01	6.0127	9.545879	0.000116	1.163138	0.394082	-0.009493
 852	4.2550e-01	5.9966	9.494564	0.000126	1.257446	0.426034	-0.010263
 853	4.2600e-01	5.9325	9.444959	0.000122	1.215531	0.411833	-0.009921
 854	4.2650e-01	5.8923	9.394500	0.000124	1.236489	0.418934	-0.010092
 855	4.2700e-01	5.8458	9.353020	0.000102	1.016436	0.344378	-0.008296
 856	4.2750e-01	5.8025	9.299567	0.000131	1.309840	0.443786	-0.010691
 857	4.2800e-01	5.7656	9.250818	0.000119	1.194574	0.404733	-0.009750
 858	4.2850e-01	5.7223	9.205489	0.000111	1.110744	0.376330	-0.009066
 859	4.2900e-01	5.7111	9.157168	0.000118	1.184095	0.401182	-0.009664
 860	4.2950e-01	5.6405	9.104997	0.000128	1.278403	0.433135	-0.010434
 861	4.3000e-01	5.6180	9.056248	0.000119	1.194574	0.404733	-0.009750
 862	4.3050e-01	5.5651	9.004933	0.000126	1.257446	0.426034	-0.010263
 863	4.3100e-01	5.5346	8.960460	0.000109	1.089787	0.369230	-0.008895
 864	4.3150e-01	5.4512	8.900165	0.000148	1.477499	0.500590	-0.012059
 865	4.3200e-01	5.4672	8.854409	-0.000112	-1.121223	-0.379881	-0.009151
 866	4.3250e-01	5.4400	8.800528	0.000132	1.320318	0.447336	-0.010776
 867	4.3300e-01	5.3966	8.759049	0.000102	1.016436	0.344378	-0.008296
 868	4.3350e-01	5.3309	8.707733	0.000126	1.257446	0.426034	-0.010263
 869	4.3400e-01	5.3148	8.653853	0.000132	1.320318	0.447336	-0.010776
 870	4.3450e-01	5.2442	8.606814	0.000115	1.152659	0.390531	-0.009408
 871	4.3500e-01	5.2089	8.560203	0.000114	1.142180	0.386981	-0.009322
 872	4.3550e-01	5.1560	8.508888	0.000126	1.257446	0.426034	-0.010263
 873	4.3600e-01	5.1255	8.453296	0.000136	1.362233	0.461537	-0.011118
 874	4.3650e-01	5.1063	8.416948	0.000089	0.890691	0.301774	-0.007270
 875	4.3700e-01	5.0357	8.375041	0.000103	1.026914	0.347928	-0.008381
 876	4.3750e-01	4.9972	8.308331	0.000163	1.634680	0.553845	-0.013342
 877	4.3800e-01	4.9844	8.254023	0.000133	1.330797	0.450886	-0.010862
 878	4.3850e-01	4.9378	8.205274	0.000119	1.194574	0.404733	-0.009750
 879	4.3900e-01	4.8753	8.161228	0.000108	1.079308	0.365679	-0.008809
 880	4.3950e-01	4.8656	8.094946	0.000162	1.624201	0.550294	-0.013256
 881	4.4000e-01	4.8207	8.041921	0.000130	1.299361	0.440235	-0.010605
 882	4.4050e-01	4.7694	8.000869	0.000101	1.005957	0.340827	-0.008210
 883	4.4100e-01	4.7277	7.946133	0.000134	1.341276	0.454437	-0.010947
 884	4.4150e-01	4.6924	7.893107	0.000130	1.299361	0.440235	-0.010605
 885	4.4200e-01	4.6779	7.839654	0.000131	1.309840	0.443786	-0.010691
 886	4.4250e-01	4.6202	7.794326	0.000111	1.110744	0.376330	-0.009066
 887	4.4300e-01	4.5448	7.740873	0.000131	1.309840	0.443786	-0.010691
 888	4.4350e-01	4.4790	7.694262	0.000114	1.142180	0.386981	-0.009322
 889	4.4400e-01	4.4999	7.641664	-0.000129	-1.288882	-0.436685	-0.010520
 890	4.4450e-01	4.4405	7.588210	0.000131	1.309840	0.443786	-0.010691
 891	4.4500e-01	4.3892	7.533047	0.000135	1.351754	0.457987	-0.011033
 892	4.4550e-01	4.3924	7.482159	-0.000125	-1.246967	-0.422484	-0.010177
 893	4.4600e-01	4.3314	7.426996	0.000135	1.351754	0.457987	-0.011033
 894	4.4650e-01	4.2849	7.378674	0.000118	1.184095	0.401182	-0.009664
 895	4.4700e-01	4.2432	7.327359	0.000126	1.257446	0.426034	-0.010263
 896	4.4750e-01	4.2304	7.273051	0.000133	1.330797	0.450886	-0.010862
 897	4.4800e-01	4.1726	7.220025	0.000130	1.299361	0.440235	-0.010605
 898	4.4850e-01	4.1229	7.167855	0.000128	1.278403	0.433135	-0.010434
 899	4.4900e-01	4.0908	7.110553	0.000140	1.404148	0.475738	-0.011460
 900	4.4950e-01	4.0555	7.056672	0.000132	1.320318	0.447336	-0.010776
 901	4.5000e-01	4.0250	7.010061	0.000114	1.142180	0.386981	-0.009322
 902	4.5050e-01	3.9737	6.956608	0.000131	1.309840	0.443786	-0.010691
 903	4.5100e-01	3.9528	6.900589	0.000137	1.372712	0.465087	-0.011204
 904	4.5150e-01	3.9047	6.850557	0.000123	1.226010	0.415383	-0.010006
 905	4.5200e-01	3.8566	6.797959	0.000129	1.288882	0.436685	-0.010520
 906	4.5250e-01	3.7956	6.745361	0.000129	1.288882	0.436685	-0.010520
 907	4.5300e-01	3.7780	6.691480	0.000132	1.320318	0.447336	-0.010776
 908	4.5350e-01	3.7459	6.634606	0.000139	1.393669	0.472188	-0.011375
 909	4.5400e-01	3.7058	6.576449	0.000143	1.425106	0.482839	-0.011631
 910	4.5450e-01	3.6657	6.524706	0.000127	1.267925	0.429585	-0.010349
 911	4.5500e-01	3.6015	6.464411	0.000148	1.477499	0.500590	-0.012059
 912	4.5550e-01	3.5999	6.415662	0.000119	1.194574	0.404733	-0.009750
 913	4.5600e-01	3.5486	6.365202	0.000124	1.236489	0.418934	-0.010092
 914	4.5650e-01	3.4972	6.313887	0.000126	1.257446	0.426034	-0.010263
 915	4.5700e-01	3.4684	6.257441	0.000138	1.383191	0.468638	-0.011289
 916	4.5750e-01	3.4427	6.199284	0.000143	1.425106	0.482839	-0.011631
 917	4.5800e-01	3.3801	6.145830	0.000131	1.309840	0.443786	-0.010691
 918	4.5850e-01	3.3256	6.091094	0.000134	1.341276	0.454437	-0.010947
 919	4.5900e-01	3.2967	6.037214	0.000132	1.320318	0.447336	-0.010776
 920	4.5950e-01	3.2678	5.980767	0.000138	1.383191	0.468638	-0.011289
 921	4.6000e-01	3.2133	5.923893	0.000139	1.393669	0.472188	-0.011375
 922	4.6050e-01	3.1571	5.871723	0.000128	1.278403	0.433135	-0.010434
 923	4.6100e-01	3.1218	5.818269	0.000131	1.309840	0.443786	-0.010691
 924	4.6150e-01	3.1026	5.761823	0.000138	1.383191	0.468638	-0.011289
 925	4.6200e-01	3.0817	5.700245	0.000151	1.508935	0.511241	-0.012316
 926	4.6250e-01	3.0095	5.643798	0.000138	1.383191	0.468638	-0.011289
 927	4.6300e-01	2.9662	5.589918	0.000132	1.320318	0.447336	-0.010776
 928	4.6350e-01	2.9309	5.536892	0.000130	1.299361	0.440235	-0.010605
 929	4.6400e-01	2.9021	5.480018	0.000139	1.393669	0.472188	-0.011375
 930	4.6450e-01	2.8379	5.422288	0.000141	1.414627	0.479289	-0.011546
 931	4.6500e-01	2.8186	5.365842	0.000138	1.383191	0.468638	-0.011289
 932	4.6550e-01	2.7593	5.311534	0.000133	1.330797	0.450886	-0.010862
 933	4.6600e-01	2.7208	5.251238	0.000148	1.477499	0.500590	-0.012059
 934	4.6650e-01	2.6518	5.194792	0.000138	1.383191	0.468638	-0.011289
 935	4.6700e-01	2.6550	5.140911	-0.000132	-1.320318	-0.447336	-0.010776
 936	4.6750e-01	2.6293	5.082326	0.000144	1.435584	0.486389	-0.011717
 937	4.6800e-01	2.5588	5.021604	0.000149	1.487978	0.504141	-0.012145
 938	4.6850e-01	2.5411	4.965157	0.000138	1.383191	0.468638	-0.011289
 939	4.6900e-01	2.4882	4.906572	0.000144	1.435584	0.486389	-0.011717
 940	4.6950e-01	2.4561	4.851836	0.000134	1.341276	0.454437	-0.010947
 941	4.7000e-01	2.4256	4.794107	0.000141	1.414627	0.479289	-0.011546
 942	4.7050e-01	2.3759	4.735095	0.000145	1.446063	0.489939	-0.011802
 943	4.7100e-01	2.3133	4.680786	0.000133	1.330797	0.450886	-0.010862
 944	4.7150e-01	2.2844	4.621774	0.000145	1.446063	0.489939	-0.011802
 945	4.7200e-01	2.2491	4.558485	0.000155	1.550850	0.525442	-0.012658
 946	4.7250e-01	2.2267	4.496907	0.000151	1.508935	0.511241	-0.012316
 947	4.7300e-01	2.1737	4.437895	0.000145	1.446063	0.489939	-0.011802
 948	4.7350e-01	2.1352	4.380593	0.000140	1.404148	0.475738	-0.011460
 949	4.7400e-01	2.0727	4.316877	0.000156	1.561329	0.528993	-0.012743
 950	4.7450e-01	2.0630	4.259148	0.000141	1.414627	0.479289	-0.011546
 951	4.7500e-01	2.0133	4.200991	0.000143	1.425106	0.482839	-0.011631
 952	4.7550e-01	1.9732	4.140696	0.000148	1.477499	0.500590	-0.012059
 953	4.7600e-01	1.9331	4.084249	0.000138	1.383191	0.468638	-0.011289
 954	4.7650e-01	1.9058	4.019250	0.000159	1.592765	0.539643	-0.013000
 955	4.7700e-01	1.8368	3.961948	0.000140	1.404148	0.475738	-0.011460
 956	4.7750e-01	1.7967	3.903791	0.000143	1.425106	0.482839	-0.011631
 957	4.7800e-01	1.7871	3.848627	0.000135	1.351754	0.457987	-0.011033
 958	4.7850e-01	1.7390	3.791753	0.000139	1.393669	0.472188	-0.011375
 959	4.7900e-01	1.7085	3.728892	0.000154	1.540371	0.521892	-0.012572
 960	4.7950e-01	1.6877	3.660472	0.000168	1.676595	0.568046	-0.013684
 961	4.8000e-01	1.6042	3.598039	0.000153	1.529893	0.518342	-0.012487
 962	4.8050e-01	1.5818	3.540310	0.000141	1.414627	0.479289	-0.011546
 963	4.8100e-01	1.5369	3.477021	0.000155	1.550850	0.525442	-0.012658
 964	4.8150e-01	1.4967	3.417154	0.000147	1.467020	0.497040	-0.011974
 965	4.8200e-01	1.4454	3.359424	0.000141	1.414627	0.479289	-0.011546
 966	4.8250e-01	1.4294	3.293570	0.000161	1.613722	0.546744	-0.013171
 967	4.8300e-01	1.3893	3.230281	0.000155	1.550850	0.525442	-0.012658
 968	4.8350e-01	1.3139	3.171697	0.000144	1.435584	0.486389	-0.011717
 969	4.8400e-01	1.3251	3.108408	-0.000155	-1.550850	-0.525442	-0.012658
 970	4.8450e-01	1.2641	3.047258	0.000150	1.498457	0.507691	-0.012230
 971	4.8500e-01	1.1952	2.983969	0.000155	1.550850	0.525442	-0.012658
 972	4.8550e-01	1.1871	2.922391	0.000151	1.508935	0.511241	-0.012316
 973	4.8600e-01	1.1182	2.857392	0.000159	1.592765	0.539643	-0.013000
 974	4.8650e-01	1.0796	2.795386	0.000152	1.519414	0.514791	-0.012401
 975	4.8700e-01	1.0444	2.732098	0.000155	1.550850	0.525442	-0.012658
 976	4.8750e-01	1.0267	2.659402	0.000178	1.781382	0.603549	-0.014539
 977	4.8800e-01	0.9706	2.599106	0.000148	1.477499	0.500590	-0.012059
 978	4.8850e-01	0.9305	2.540949	0.000143	1.425106	0.482839	-0.011631
 979	4.8900e-01	0.9032	2.471246	0.000171	1.708031	0.578697	-0.013941
 980	4.8950e-01	0.8535	2.407958	0.000155	1.550850	0.525442	-0.012658
 981	4.9000e-01	0.8021	2.337827	0.000172	1.718510	0.582247	-0.014026
 982	4.9050e-01	0.7652	2.279243	0.000144	1.435584	0.486389	-0.011717
 983	4.9100e-01	0.7059	2.213388	0.000161	1.613722	0.546744	-0.013171
 984	4.9150e-01	0.6914	2.147962	0.000160	1.603244	0.543194	-0.013085
 985	4.9200e-01	0.6722	2.080825	0.000165	1.645159	0.557395	-0.013427
 986	4.9250e-01	0.6144	2.014970	0.000161	1.613722	0.546744	-0.013171
 987	4.9300e-01	0.5759	1.950399	0.000158	1.582286	0.536093	-0.012914
 988	4.9350e-01	0.5390	1.888821	0.000151	1.508935	0.511241	-0.012316
 989	4.9400e-01	0.5053	1.811421	0.000190	1.896648	0.642602	-0.015480
 990	4.9450e-01	0.4588	1.755402	0.000137	1.372712	0.465087	-0.011204
 991	4.9500e-01	0.4347	1.686982	0.000168	1.676595	0.568046	-0.013684
 992	4.9550e-01	0.3898	1.618562	0.000168	1.676595	0.568046	-0.013684
 993	4.9600e-01	0.3192	1.550569	0.000167	1.666116	0.564495	-0.013598
 994	4.9650e-01	0.2711	1.492840	0.000141	1.414627	0.479289	-0.011546
 995	4.9700e-01	0.2711	1.412446	0.000197	1.969999	0.667454	-0.016079
 996	4.9750e-01	0.2406	1.350441	0.000152	1.519414	0.514791	-0.012401
 997	4.9800e-01	0.1717	1.282021	0.000168	1.676595	0.568046	-0.013684
 998	4.9850e-01	0.1524	1.217449	0.000158	1.582286	0.536093	-0.012914
 999	4.9900e-01	0.0786	1.149457	0.000167	1.666116	0.564495	-0.013598
1000	4.9950e-01	0.0738	1.081037	0.000168	1.676595	0.568046	-0.013684
1001	5.0000e-01	0.0529	1.009196	0.000176	1.760424	0.596448	-0.014368
1002	5.0050e-01	-0.0048	0.941203	0.000167	1.666116	0.564495	-0.013598
1003	5.0100e-01	-0.0497	0.881336	0.000147	1.467020	0.497040	-0.011974
1004	5.0150e-01	-0.1091	0.806501	0.000183	1.833775	0.621300	-0.014967
1005	5.0200e-01	-0.1332	0.738081	0.000168	1.676595	0.568046	-0.013684
1006	5.0250e-01	-0.1476	0.673937	0.000157	1.571808	0.532543	-0.012829
1007	5.0300e-01	-0.2230	0.602096	0.000176	1.760424	0.596448	-0.014368
1008	5.0350e-01	-0.2438	0.540946	0.000150	1.498457	0.507691	-0.012230
1009	5.0400e-01	-0.3048	0.468250	0.000178	1.781382	0.603549	-0.014539
1010	5.0450e-01	-0.3385	0.405816	0.000153	1.529893	0.518342	-0.012487
1011	5.0500e-01	-0.3770	0.331837	0.000181	1.812818	0.614199	-0.014796
1012	5.0550e-01	-0.4267	0.266411	0.000160	1.603244	0.543194	-0.013085
1013	5.0600e-01	-0.4492	0.190293	0.000187	1.865212	0.631951	-0.015223
1014	5.0650e-01	-0.5198	0.118880	0.000175	1.749946	0.592898	-0.014283
1015	5.0700e-01	-0.5615	0.050032	0.000169	1.687073	0.571596	-0.013770
1016	5.0750e-01	-0.6032	-0.025658	0.000185	1.854733	0.628401	-0.015138
1017	5.0800e-01	-0.6240	-0.099209	0.000180	1.802339	0.610649	-0.014710
1018	5.0850e-01	-0.6545	-0.166346	0.000165	1.645159	0.557395	-0.013427
1019	5.0900e-01	-0.6690	-0.234766	0.000168	1.676595	0.568046	-0.013684
1020	5.0950e-01	-0.7460	-0.309601	0.000183	1.833775	0.621300	-0.014967
1021	5.1000e-01	-0.7700	-0.378876	0.000170	1.697552	0.575146	-0.013855
1022	5.1050e-01	-0.8005	-0.446868	0.000167	1.666116	0.564495	-0.013598
1023	5.1100e-01	-0.8839	-0.522130	0.000184	1.844254	0.624850	-0.015052
1024	5.1150e-01	-0.9160	-0.592261	0.000172	1.718510	0.582247	-0.014026
1025	5.1200e-01	-0.9289	-0.660681	0.000168	1.676595	0.568046	-0.013684
1026	5.1250e-01	-0.9818	-0.730384	0.000171	1.708031	0.578697	-0.013941
1027	5.1300e-01	-1.0444	-0.800087	0.000171	1.708031	0.578697	-0.013941
1028	5.1350e-01	-1.0652	-0.879625	0.000195	1.949041	0.660353	-0.015908
1029	5.1400e-01	-1.0909	-0.946335	0.000163	1.634680	0.553845	-0.013342
1030	5.1450e-01	-1.1727	-1.018603	0.000177	1.770903	0.599998	-0.014454
1031	5.1500e-01	-1.1935	-1.093010	0.000182	1.823297	0.617750	-0.014881
1032	5.1550e-01	-1.2128	-1.158437	0.000160	1.603244	0.543194	-0.013085
1033	5.1600e-01	-1.2609	-1.228567	0.000172	1.718510	0.582247	-0.014026
1034	5.1650e-01	-1.2898	-1.303829	0.000184	1.844254	0.624850	-0.015052
1035	5.1700e-01	-1.3379	-1.374815	0.000174	1.739467	0.589347	-0.014197
1036	5.1750e-01	-1.3764	-1.451360	0.000188	1.875690	0.635501	-0.015309
1037	5.1800e-01	-1.4310	-1.520208	0.000169	1.687073	0.571596	-0.013770
1038	5.1850e-01	-1.4518	-1.592904	0.000178	1.781382	0.603549	-0.014539
1039	5.1900e-01	-1.4727	-1.660897	0.000167	1.666116	0.564495	-0.013598
1040	5.1950e-01	-1.5401	-1.735303	0.000182	1.823297	0.617750	-0.014881
1041	5.2000e-01	-1.5818	-1.805006	0.000171	1.708031	0.578697	-0.013941
1042	5.2050e-01	-1.5866	-1.877703	0.000178	1.781382	0.603549	-0.014539
1043	5.2100e-01	-1.6475	-1.947406	0.000171	1.708031	0.578697	-0.013941
1044	5.2150e-01	-1.7358	-2.020957	0.000180	1.802339	0.610649	-0.014710
1045	5.2200e-01	-1.7358	-2.090232	0.000170	1.697552	0.575146	-0.013855
1046	5.2250e-01	-1.7598	-2.160363	0.000172	1.718510	0.582247	-0.014026
1047	5.2300e-01	-1.8128	-2.235197	0.000183	1.833775	0.621300	-0.014967
1048	5.2350e-01	-1.8417	-2.307466	0.000177	1.770903	0.599998	-0.014454
1049	5.2400e-01	-1.9106	-2.375458	0.000167	1.666116	0.564495	-0.013598
1050	5.2450e-01	-1.9251	-2.448155	0.000178	1.781382	0.603549	-0.014539
1051	5.2500e-01	-1.9684	-2.514864	0.000163	1.634680	0.553845	-0.013342
1052	5.2550e-01	-2.0229	-2.589271	0.000182	1.823297	0.617750	-0.014881
1053	5.2600e-01	-2.0550	-2.662395	0.000179	1.791861	0.607099	-0.014625
1054	5.2650e-01	-2.0903	-2.727394	0.000159	1.592765	0.539643	-0.013000
1055	5.2700e-01	-2.1561	-2.797952	0.000173	1.728988	0.585797	-0.014112
1056	5.2750e-01	-2.1882	-2.871931	0.000181	1.812818	0.614199	-0.014796
1057	5.2800e-01	-2.2283	-2.936503	0.000158	1.582286	0.536093	-0.012914
1058	5.2850e-01	-2.2331	-3.009627	0.000179	1.791861	0.607099	-0.014625
1059	5.2900e-01	-2.3133	-3.074198	0.000158	1.582286	0.536093	-0.012914
1060	5.2950e-01	-2.3502	-3.149460	0.000184	1.844254	0.624850	-0.015052
1061	5.3000e-01	-2.3646	-3.219163	0.000171	1.708031	0.578697	-0.013941
1062	5.3050e-01	-2.4384	-3.277320	0.000143	1.425106	0.482839	-0.011631
1063	5.3100e-01	-2.4481	-3.352155	0.000183	1.833775	0.621300	-0.014967
1064	5.3150e-01	-2.5042	-3.419292	0.000165	1.645159	0.557395	-0.013427
1065	5.3200e-01	-2.5186	-3.492843	0.000180	1.802339	0.610649	-0.014710
1066	5.3250e-01	-2.5780	-3.558698	0.000161	1.613722	0.546744	-0.013171
1067	5.3300e-01	-2.6117	-3.623697	0.000159	1.592765	0.539643	-0.013000
1068	5.3350e-01	-2.6390	-3.693827	0.000172	1.718510	0.582247	-0.014026
1069	5.3400e-01	-2.6823	-3.762247	0.000168	1.676595	0.568046	-0.013684
1070	5.3450e-01	-2.7481	-3.826819	0.000158	1.582286	0.536093	-0.012914
1071	5.3500e-01	-2.7801	-3.893101	0.000162	1.624201	0.550294	-0.013256
1072	5.3550e-01	-2.8603	-3.961948	0.000169	1.687073	0.571596	-0.013770
1073	5.3600e-01	-2.8507	-4.032934	-0.000174	-1.739467	-0.589347	-0.014197
1074	5.3650e-01	-2.8892	-4.095795	0.000154	1.540371	0.521892	-0.012572
1075	5.3700e-01	-2.9197	-4.159511	0.000156	1.561329	0.528993	-0.012743
1076	5.3750e-01	-2.9807	-4.227076	0.000166	1.655637	0.560945	-0.013513
1077	5.3800e-01	-3.0448	-4.290364	0.000155	1.550850	0.525442	-0.012658
1078	5.3850e-01	-3.0785	-4.340824	0.000124	1.236489	0.418934	-0.010092
1079	5.3900e-01	-3.0898	-4.418224	0.000190	1.896648	0.642602	-0.015480
1080	5.3950e-01	-3.1443	-4.482368	0.000157	1.571808	0.532543	-0.012829
1081	5.4000e-01	-3.1844	-4.546940	0.000158	1.582286	0.536093	-0.012914
1082	5.4050e-01	-3.2004	-4.611511	0.000158	1.582286	0.536093	-0.012914
1083	5.4100e-01	-3.2774	-4.670523	0.000145	1.446063	0.489939	-0.011802
1084	5.4150e-01	-3.2999	-4.737660	0.000165	1.645159	0.557395	-0.013427
1085	5.4200e-01	-3.3208	-4.809501	0.000176	1.760424	0.596448	-0.014368
1086	5.4250e-01	-3.3721	-4.872362	0.000154	1.540371	0.521892	-0.012572
1087	5.4300e-01	-3.4234	-4.934796	0.000153	1.529893	0.518342	-0.012487
1088	5.4350e-01	-3.4764	-4.996801	0.000152	1.519414	0.514791	-0.012401
1089	5.4400e-01	-3.4732	-5.057524	-0.000149	-1.487978	-0.504141	-0.012145
1090	5.4450e-01	-3.5662	-5.114398	0.000139	1.393669	0.472188	-0.011375
1091	5.4500e-01	-3.5999	-5.174266	0.000147	1.467020	0.497040	-0.011974
1092	5.4550e-01	-3.6224	-5.241831	0.000166	1.655637	0.560945	-0.013513
1093	5.4600e-01	-3.6593	-5.299560	0.000141	1.414627	0.479289	-0.011546
1094	5.4650e-01	-3.7010	-5.359855	0.000148	1.477499	0.500590	-0.012059
1095	5.4700e-01	-3.7218	-5.419723	0.000147	1.467020	0.497040	-0.011974
1096	5.4750e-01	-3.7828	-5.480873	0.000150	1.498457	0.507691	-0.012230
1097	5.4800e-01	-3.8389	-5.543306	0.000153	1.529893	0.518342	-0.012487
1098	5.4850e-01	-3.8518	-5.601036	0.000141	1.414627	0.479289	-0.011546
1099	5.4900e-01	-3.8919	-5.660048	0.000145	1.446063	0.489939	-0.011802
1100	5.4950e-01	-3.9191	-5.718633	0.000144	1.435584	0.486389	-0.011717
1101	5.5000e-01	-4.0122	-5.780211	0.000151	1.508935	0.511241	-0.012316
1102	5.5050e-01	-3.9801	-5.842217	-0.000152	-1.519414	-0.514791	-0.012401
1103	5.5100e-01	-4.0427	-5.899518	0.000140	1.404148	0.475738	-0.011460
1104	5.5150e-01	-4.1004	-5.955965	0.000138	1.383191	0.468638	-0.011289
1105	5.5200e-01	-4.1485	-6.015405	0.000146	1.456542	0.493490	-0.011888
1106	5.5250e-01	-4.1790	-6.069713	0.000133	1.330797	0.450886	-0.010862
1107	5.5300e-01	-4.2191	-6.133429	0.000156	1.561329	0.528993	-0.012743
1108	5.5350e-01	-4.2528	-6.195863	0.000153	1.529893	0.518342	-0.012487
1109	5.5400e-01	-4.2945	-6.252309	0.000138	1.383191	0.468638	-0.011289
1110	5.5450e-01	-4.3378	-6.311749	0.000146	1.456542	0.493490	-0.011888
1111	5.5500e-01	-4.3571	-6.364775	0.000130	1.299361	0.440235	-0.010605
1112	5.5550e-01	-4.4165	-6.426780	0.000152	1.519414	0.514791	-0.012401
1113	5.5600e-01	-4.4999	-6.476385	0.000122	1.215531	0.411833	-0.009921
1114	5.5650e-01	-4.4967	-6.534969	-0.000144	-1.435584	-0.486389	-0.011717
1115	5.5700e-01	-4.5656	-6.590133	0.000135	1.351754	0.457987	-0.011033
1116	5.5750e-01	-4.5769	-6.652566	0.000153	1.529893	0.518342	-0.012487
1117	5.5800e-01	-4.6539	-6.705592	0.000130	1.299361	0.440235	-0.010605
1118	5.5850e-01	-4.6603	-6.762466	0.000139	1.393669	0.472188	-0.011375
1119	5.5900e-01	-4.6876	-6.822334	0.000147	1.467020	0.497040	-0.011974
1120	5.5950e-01	-4.7357	-6.881346	0.000145	1.446063	0.489939	-0.011802
1121	5.6000e-01	-4.7934	-6.930950	0.000122	1.215531	0.411833	-0.009921
1122	5.6050e-01	-4.7967	-6.991246	0.000148	1.477499	0.500590	-0.012059
1123	5.6100e-01	-4.8640	-7.046409	0.000135	1.351754	0.457987	-0.011033
1124	5.6150e-01	-4.8656	-7.097724	0.000126	1.257446	0.426034	-0.010263
1125	5.6200e-01	-4.9683	-7.152033	0.000133	1.330797	0.450886	-0.010862
1126	5.6250e-01	-4.9844	-7.206341	0.000133	1.330797	0.450886	-0.010862
1127	5.6300e-01	-4.9940	-7.259367	0.000130	1.299361	0.440235	-0.010605
1128	5.6350e-01	-5.0485	-7.317096	0.000141	1.414627	0.479289	-0.011546
1129	5.6400e-01	-5.0822	-7.375253	0.000143	1.425106	0.482839	-0.011631
1130	5.6450e-01	-5.1512	-7.423575	0.000118	1.184095	0.401182	-0.009664
1131	5.6500e-01	-5.1833	-7.474890	0.000126	1.257446	0.426034	-0.010263
1132	5.6550e-01	-5.2170	-7.531336	0.000138	1.383191	0.468638	-0.011289
1133	5.6600e-01	-5.2683	-7.588210	0.000139	1.393669	0.472188	-0.011375
1134	5.6650e-01	-5.3020	-7.639953	0.000127	1.267925	0.429585	-0.010349
1135	5.6700e-01	-5.3549	-7.694689	0.000134	1.341276	0.454437	-0.010947
1136	5.6750e-01	-5.3806	-7.746432	0.000127	1.267925	0.429585	-0.010349
1137	5.6800e-01	-5.4416	-7.796892	0.000124	1.236489	0.418934	-0.010092
1138	5.6850e-01	-5.4993	-7.850345	0.000131	1.309840	0.443786	-0.010691
1139	5.6900e-01	-5.4993	-7.906791	0.000138	1.383191	0.468638	-0.011289
1140	5.6950e-01	-5.5170	-7.957251	0.000124	1.236489	0.418934	-0.010092
1141	5.7000e-01	-5.6004	-8.010704	0.000131	1.309840	0.443786	-0.010691
1142	5.7050e-01	-5.6004	-8.061592	0.000125	1.246967	0.422484	-0.010177
1143	5.7100e-01	-5.6822	-8.115045	0.000131	1.309840	0.443786	-0.010691
1144	5.7150e-01	-5.6662	-8.171064	-0.000137	-1.372712	-0.465087	-0.011204
1145	5.7200e-01	-5.7576	-8.220241	0.000121	1.205052	0.408283	-0.009835
1146	5.7250e-01	-5.7736	-8.265569	0.000111	1.110744	0.376330	-0.009066
1147	5.7300e-01	-5.8153	-8.316884	0.000126	1.257446	0.426034	-0.010263
1148	5.7350e-01	-5.8667	-8.369910	0.000130	1.299361	0.440235	-0.010605
1149	5.7400e-01	-5.9164	-8.418231	0.000118	1.184095	0.401182	-0.009664
1150	5.7450e-01	-5.9325	-8.476388	0.000143	1.425106	0.482839	-0.011631
1151	5.7500e-01	-6.0014	-8.519151	0.000105	1.047872	0.355029	-0.008553
1152	5.7550e-01	-6.0111	-8.580301	0.000150	1.498457	0.507691	-0.012230
1153	5.7600e-01	-6.0399	-8.630333	0.000123	1.226010	0.415383	-0.010006
1154	5.7650e-01	-6.1073	-8.677372	0.000115	1.152659	0.390531	-0.009408
1155	5.7700e-01	-6.1586	-8.736812	0.000146	1.456542	0.493490	-0.011888
1156	5.7750e-01	-6.1635	-8.783423	0.000114	1.142180	0.386981	-0.009322
1157	5.7800e-01	-6.2068	-8.834311	0.000125	1.246967	0.422484	-0.010177
1158	5.7850e-01	-6.2677	-8.882632	0.000118	1.184095	0.401182	-0.009664
1159	5.7900e-01	-6.3062	-8.934802	0.000128	1.278403	0.433135	-0.010434
1160	5.7950e-01	-6.3335	-8.983552	0.000119	1.194574	0.404733	-0.009750
1161	5.8000e-01	-6.3720	-9.030591	0.000115	1.152659	0.390531	-0.009408
1162	5.8050e-01	-6.4426	-9.078912	0.000118	1.184095	0.401182	-0.009664
1163	5.8100e-01	-6.4169	-9.132365	-0.000131	-1.309840	-0.443786	-0.010691
1164	5.8150e-01	-6.5020	-9.184108	0.000127	1.267925	0.429585	-0.010349
1165	5.8200e-01	-6.5421	-9.226015	0.000103	1.026914	0.347928	-0.008381
1166	5.8250e-01	-6.5549	-9.277758	0.000127	1.267925	0.429585	-0.010349
1167	5.8300e-01	-6.6143	-9.329073	0.000126	1.257446	0.426034	-0.010263
1168	5.8350e-01	-6.6640	-9.371836	0.000105	1.047872	0.355029	-0.008553
1169	5.8400e-01	-6.7153	-9.421868	0.000123	1.226010	0.415383	-0.010006
1170	5.8450e-01	-6.7458	-9.475748	0.000132	1.320318	0.447336	-0.010776
1171	5.8500e-01	-6.7747	-9.520221	0.000109	1.089787	0.369230	-0.008895
1172	5.8550e-01	-6.8019	-9.570254	0.000123	1.226010	0.415383	-0.010006
1173	5.8600e-01	-6.8677	-9.616865	0.000114	1.142180	0.386981	-0.009322
1174	5.8650e-01	-6.9142	-9.667325	0.000124	1.236489	0.418934	-0.010092
1175	5.8700e-01	-6.9656	-9.710942	0.000107	1.068829	0.362129	-0.008724
1176	5.8750e-01	-7.0009	-9.766106	0.000135	1.351754	0.457987	-0.011033
1177	5.8800e-01	-7.0233	-9.811434	0.000111	1.110744	0.376330	-0.009066
1178	5.8850e-01	-7.0554	-9.858901	0.000116	1.163138	0.394082	-0.009493
1179	5.8900e-01	-7.0907	-9.902946	0.000108	1.079308	0.365679	-0.008809
1180	5.8950e-01	-7.1517	-9.953406	0.000124	1.236489	0.418934	-0.010092
1181	5.9000e-01	-7.1693	-10.000445	0.000115	1.152659	0.390531	-0.009408
1182	5.9050e-01	-7.2431	-10.050049	0.000122	1.215531	0.411833	-0.009921
1183	5.9100e-01	-7.2575	-10.097088	0.000115	1.152659	0.390531	-0.009408
1184	5.9150e-01	-7.2784	-10.150541	0.000131	1.309840	0.443786	-0.010691
1185	5.9200e-01	-7.3153	-10.193304	0.000105	1.047872	0.355029	-0.008553
1186	5.9250e-01	-7.3747	-10.242481	0.000121	1.205052	0.408283	-0.009835
1187	5.9300e-01	-7.4116	-10.287381	0.000110	1.100265	0.372780	-0.008980
1188	5.9350e-01	-7.4661	-10.336986	0.000122	1.215531	0.411833	-0.009921
1189	5.9400e-01	-7.4821	-10.380604	0.000107	1.068829	0.362129	-0.008724
1190	5.9450e-01	-7.5431	-10.426787	0.000113	1.131701	0.383431	-0.009237
1191	5.9500e-01	-7.5736	-10.474681	0.000117	1.173616	0.397632	-0.009579
1192	5.9550e-01	-7.6522	-10.522148	0.000116	1.163138	0.394082	-0.009493
1193	5.9600e-01	-7.6907	-10.567048	0.000110	1.100265	0.372780	-0.008980
1194	5.9650e-01	-7.6875	-10.614087	-0.000115	-1.152659	-0.390531	-0.009408
1195	5.9700e-01	-7.7404	-10.657277	0.000106	1.058350	0.358579	-0.008638
1196	5.9750e-01	-7.7757	-10.706454	0.000121	1.205052	0.408283	-0.009835
1197	5.9800e-01	-7.8335	-10.755203	0.000119	1.194574	0.404733	-0.009750
1198	5.9850e-01	-7.8495	-10.799676	0.000109	1.089787	0.369230	-0.008895
1199	5.9900e-01	-7.8816	-10.846287	0.000114	1.142180	0.386981	-0.009322
1200	5.9950e-01	-7.9297	-10.891616	0.000111	1.110744	0.376330	-0.009066
1201	6.0000e-01	-7.9987	-10.938655	0.000115	1.152659	0.390531	-0.009408
1202	6.0050e-01	-8.0452	-10.980562	0.000103	1.026914	0.347928	-0.008381
1203	6.0100e-01	-8.0709	-11.028883	0.000118	1.184095	0.401182	-0.009664
1204	6.0150e-01	-8.1206	-11.075495	0.000114	1.142180	0.386981	-0.009322
1205	6.0200e-01	-8.1463	-11.122533	0.000115	1.152659	0.390531	-0.009408
1206	6.0250e-01	-8.1832	-11.164013	0.000102	1.016436	0.344378	-0.008296
1207	6.0300e-01	-8.1960	-11.214045	0.000123	1.226010	0.415383	-0.010006
1208	6.0350e-01	-8.2618	-11.253387	0.000096	0.964042	0.326626	-0.007868
1209	6.0400e-01	-8.2843	-11.303847	0.000124	1.236489	0.418934	-0.010092
1210	6.0450e-01	-8.3516	-11.345754	0.000103	1.026914	0.347928	-0.008381
1211	6.0500e-01	-8.4094	-11.396214	0.000124	1.236489	0.418934	-0.010092
1212	6.0550e-01	-8.4254	-11.439404	0.000106	1.058350	0.358579	-0.008638
1213	6.0600e-01	-8.4687	-11.467199	0.000068	0.681117	0.230769	-0.005559
1214	6.0650e-01	-8.4784	-11.522791	0.000136	1.362233	0.461537	-0.011118
1215	6.0700e-01	-8.5634	-11.568119	0.000111	1.110744	0.376330	-0.009066
1216	6.0750e-01	-8.5666	-11.620289	0.000128	1.278403	0.433135	-0.010434
1217	6.0800e-01	-8.6099	-11.660914	0.000100	0.995478	0.337277	-0.008125
1218	6.0850e-01	-8.6757	-11.704531	0.000107	1.068829	0.362129	-0.008724
1219	6.0900e-01	-8.7286	-11.759695	0.000135	1.351754	0.457987	-0.011033
1220	6.0950e-01	-8.7383	-11.793905	0.000084	0.838297	0.284023	-0.006842
1221	6.1000e-01	-8.8072	-11.842654	0.000119	1.194574	0.404733	-0.009750
1222	6.1050e-01	-8.8473	-11.883706	0.000101	1.005957	0.340827	-0.008210
1223	6.1100e-01	-8.8682	-11.928607	0.000110	1.100265	0.372780	-0.008980
1224	6.1150e-01	-8.8762	-11.976501	0.000117	1.173616	0.397632	-0.009579
1225	6.1200e-01	-8.9163	-12.021829	0.000111	1.110744	0.376330	-0.009066
1226	6.1250e-01	-8.9917	-12.061171	0.000096	0.964042	0.326626	-0.007868
1227	6.1300e-01	-9.0158	-12.109065	0.000117	1.173616	0.397632	-0.009579
1228	6.1350e-01	-9.0479	-12.152255	0.000106	1.058350	0.358579	-0.008638
1229	6.1400e-01	-9.1088	-12.197583	0.000111	1.110744	0.376330	-0.009066
1230	6.1450e-01	-9.1666	-12.235214	0.000092	0.922127	0.312425	-0.007526
1231	6.1500e-01	-9.1794	-12.276694	0.000102	1.016436	0.344378	-0.008296
1232	6.1550e-01	-9.2292	-12.326299	0.000122	1.215531	0.411833	-0.009921
1233	6.1600e-01	-9.2773	-12.366068	0.000097	0.974521	0.330177	-0.007954
1234	6.1650e-01	-9.3126	-12.412679	0.000114	1.142180	0.386981	-0.009322
1235	6.1700e-01	-9.3928	-12.454158	0.000102	1.016436	0.344378	-0.008296
1236	6.1750e-01	-9.3992	-12.493500	0.000096	0.964042	0.326626	-0.007868
1237	6.1800e-01	-9.4313	-12.539684	0.000113	1.131701	0.383431	-0.009237
1238	6.1850e-01	-9.4666	-12.580736	0.000101	1.005957	0.340827	-0.008210
1239	6.1900e-01	-9.4858	-12.626919	0.000113	1.131701	0.383431	-0.009237
1240	6.1950e-01	-9.5163	-12.667971	0.000101	1.005957	0.340827	-0.008210
1241	6.2000e-01	-9.5580	-12.711589	0.000107	1.068829	0.362129	-0.008724
1242	6.2050e-01	-9.6110	-12.755207	0.000107	1.068829	0.362129	-0.008724
1243	6.2100e-01	-9.6238	-12.802245	0.000115	1.152659	0.390531	-0.009408
1244	6.2150e-01	-9.7104	-12.840732	0.000094	0.943085	0.319526	-0.007697
1245	6.2200e-01	-9.7585	-12.882211	0.000102	1.016436	0.344378	-0.008296
1246	6.2250e-01	-9.7730	-12.924974	0.000105	1.047872	0.355029	-0.008553
1247	6.2300e-01	-9.8115	-12.968592	0.000107	1.068829	0.362129	-0.008724
1248	6.2350e-01	-9.8596	-13.009644	0.000101	1.005957	0.340827	-0.008210
1249	6.2400e-01	-9.8917	-13.053689	0.000108	1.079308	0.365679	-0.008809
1250	6.2450e-01	-9.9286	-13.092175	0.000094	0.943085	0.319526	-0.007697
1251	6.2500e-01	-10.0072	-13.138359	0.000113	1.131701	0.383431	-0.009237
1252	6.2550e-01	-10.0281	-13.178128	0.000097	0.974521	0.330177	-0.007954
1253	6.2600e-01	-10.0666	-13.223029	0.000110	1.100265	0.372780	-0.008980
1254	6.2650e-01	-10.0906	-13.261515	0.000094	0.943085	0.319526	-0.007697
1255	6.2700e-01	-10.1644	-13.302995	0.000102	1.016436	0.344378	-0.008296
1256	6.2750e-01	-10.1644	-13.344902	0.000103	1.026914	0.347928	-0.008381
1257	6.2800e-01	-10.2125	-13.387664	0.000105	1.047872	0.355029	-0.008553
1258	6.2850e-01	-10.2527	-13.430427	0.000105	1.047872	0.355029	-0.008553
1259	6.2900e-01	-10.3104	-13.469341	0.000095	0.953563	0.323076	-0.007783
1260	6.2950e-01	-10.3088	-13.515524	-0.000113	-1.131701	-0.383431	-0.009237
1261	6.3000e-01	-10.3858	-13.555294	0.000097	0.974521	0.330177	-0.007954
1262	6.3050e-01	-10.4067	-13.596773	0.000102	1.016436	0.344378	-0.008296
1263	6.3100e-01	-10.4291	-13.640819	0.000108	1.079308	0.365679	-0.008809
1264	6.3150e-01	-10.5109	-13.683154	0.000104	1.037393	0.351478	-0.008467
1265	6.3200e-01	-10.5494	-13.722923	0.000097	0.974521	0.330177	-0.007954
1266	6.3250e-01	-10.5879	-13.757988	0.000086	0.859255	0.291123	-0.007013
1267	6.3300e-01	-10.6200	-13.801178	0.000106	1.058350	0.358579	-0.008638
1268	6.3350e-01	-10.6521	-13.841375	0.000098	0.984999	0.333727	-0.008039
1269	6.3400e-01	-10.7147	-13.886276	0.000110	1.100265	0.372780	-0.008980
1270	6.3450e-01	-10.7387	-13.929038	0.000105	1.047872	0.355029	-0.008553
1271	6.3500e-01	-10.7869	-13.964531	0.000087	0.869734	0.294674	-0.007099
1272	6.3550e-01	-10.8318	-14.007721	0.000106	1.058350	0.358579	-0.008638
1273	6.3600e-01	-10.8542	-14.053477	0.000112	1.121223	0.379881	-0.009151
1274	6.3650e-01	-10.9056	-14.089825	0.000089	0.890691	0.301774	-0.007270
1275	6.3700e-01	-10.9361	-14.133443	0.000107	1.068829	0.362129	-0.008724
1276	6.3750e-01	-10.9858	-14.170646	0.000091	0.911648	0.308875	-0.007441
1277	6.3800e-01	-11.0275	-14.212126	0.000102	1.016436	0.344378	-0.008296
1278	6.3850e-01	-11.0387	-14.254033	0.000103	1.026914	0.347928	-0.008381
1279	6.3900e-01	-11.0965	-14.293375	0.000096	0.964042	0.326626	-0.007868
1280	6.3950e-01	-11.1767	-14.329723	0.000089	0.890691	0.301774	-0.007270
1281	6.4000e-01	-11.1799	-14.372913	0.000106	1.058350	0.358579	-0.008638
1282	6.4050e-01	-11.2040	-14.418669	0.000112	1.121223	0.379881	-0.009151
1283	6.4100e-01	-11.2585	-14.457583	0.000095	0.953563	0.323076	-0.007783
1284	6.4150e-01	-11.3275	-14.499063	0.000102	1.016436	0.344378	-0.008296
1285	6.4200e-01	-11.3660	-14.533700	0.000085	0.848776	0.287573	-0.006928
1286	6.4250e-01	-11.3708	-14.581167	0.000116	1.163138	0.394082	-0.009493
1287	6.4300e-01	-11.4221	-14.643600	0.000153	1.529893	0.518342	-0.012487
1288	6.4350e-01	-11.4687	-14.662415	0.000046	0.461064	0.156213	-0.003763
1289	6.4400e-01	-11.4831	-14.694060	0.000078	0.775425	0.262721	-0.006329
1290	6.4450e-01	-11.5441	-14.738533	0.000109	1.089787	0.369230	-0.008895
1291	6.4500e-01	-11.6130	-14.780440	0.000103	1.026914	0.347928	-0.008381
1292	6.4550e-01	-11.6371	-14.818926	0.000094	0.943085	0.319526	-0.007697
1293	6.4600e-01	-11.6467	-14.859551	0.000100	0.995478	0.337277	-0.008125
1294	6.4650e-01	-11.6836	-14.904024	0.000109	1.089787	0.369230	-0.008895
1295	6.4700e-01	-11.7109	-14.942938	0.000095	0.953563	0.323076	-0.007783
1296	6.4750e-01	-11.8088	-14.981851	0.000095	0.953563	0.323076	-0.007783
1297	6.4800e-01	-11.8489	-15.020338	0.000094	0.943085	0.319526	-0.007697
1298	6.4850e-01	-11.8473	-15.061390	-0.000101	-1.005957	-0.340827	-0.008210
1299	6.4900e-01	-11.8809	-15.102442	0.000101	1.005957	0.340827	-0.008210
1300	6.4950e-01	-11.9804	-15.137079	0.000085	0.848776	0.287573	-0.006928
1301	6.5000e-01	-12.0061	-15.175138	0.000093	0.932606	0.315975	-0.007612
1302	6.5050e-01	-12.0334	-15.220466	0.000111	1.110744	0.376330	-0.009066
1303	6.5100e-01	-12.0943	-15.257242	0.000090	0.901170	0.305325	-0.007355
1304	6.5150e-01	-12.0975	-15.290597	0.000082	0.817340	0.276922	-0.006671
1305	6.5200e-01	-12.1617	-15.332504	0.000103	1.026914	0.347928	-0.008381
1306	6.5250e-01	-12.1729	-15.376550	0.000108	1.079308	0.365679	-0.008809
1307	6.5300e-01	-12.2387	-15.415464	0.000095	0.953563	0.323076	-0.007783
1308	6.5350e-01	-12.2612	-15.453950	0.000094	0.943085	0.319526	-0.007697
1309	6.5400e-01	-12.2980	-15.494574	0.000100	0.995478	0.337277	-0.008125
1310	6.5450e-01	-12.3382	-15.534343	0.000097	0.974521	0.330177	-0.007954
1311	6.5500e-01	-12.4039	-15.573685	0.000096	0.964042	0.326626	-0.007868
1312	6.5550e-01	-12.4087	-15.611744	0.000093	0.932606	0.315975	-0.007612
1313	6.5600e-01	-12.4825	-15.648519	0.000090	0.901170	0.305325	-0.007355
1314	6.5650e-01	-12.4970	-15.686578	0.000093	0.932606	0.315975	-0.007612
1315	6.5700e-01	-12.5403	-15.724209	0.000092	0.922127	0.312425	-0.007526
1316	6.5750e-01	-12.5980	-15.763550	0.000096	0.964042	0.326626	-0.007868
1317	6.5800e-01	-12.6381	-15.808024	0.000109	1.089787	0.369230	-0.008895
1318	6.5850e-01	-12.6622	-15.843089	0.000086	0.859255	0.291123	-0.007013
1319	6.5900e-01	-12.7119	-15.879437	0.000089	0.890691	0.301774	-0.007270
1320	6.5950e-01	-12.7456	-15.916640	0.000091	0.911648	0.308875	-0.007441
1321	6.6000e-01	-12.8146	-15.960686	0.000108	1.079308	0.365679	-0.008809
1322	6.6050e-01	-12.8467	-15.997462	0.000090	0.901170	0.305325	-0.007355
1323	6.6100e-01	-12.8724	-16.031672	0.000084	0.838297	0.284023	-0.006842
1324	6.6150e-01	-12.8499	-16.076145	-0.000109	-1.089787	-0.369230	-0.008895
1325	6.6200e-01	-12.9606	-16.115486	0.000096	0.964042	0.326626	-0.007868
1326	6.6250e-01	-12.9831	-16.153545	0.000093	0.932606	0.315975	-0.007612
1327	6.6300e-01	-13.0296	-16.187327	0.000083	0.827819	0.280473	-0.006756
1328	6.6350e-01	-13.0536	-16.231373	0.000108	1.079308	0.365679	-0.008809
1329	6.6400e-01	-13.0954	-16.267293	0.000088	0.880212	0.298224	-0.007184
1330	6.6450e-01	-13.1467	-16.305352	0.000093	0.932606	0.315975	-0.007612
1331	6.6500e-01	-13.1900	-16.341700	0.000089	0.890691	0.301774	-0.007270
1332	6.6550e-01	-13.2429	-16.380614	0.000095	0.953563	0.323076	-0.007783
1333	6.6600e-01	-13.2782	-16.423804	0.000106	1.058350	0.358579	-0.008638
1334	6.6650e-01	-13.3023	-16.457586	0.000083	0.827819	0.280473	-0.006756
1335	6.6700e-01	-13.3280	-16.496500	0.000095	0.953563	0.323076	-0.007783
1336	6.6750e-01	-13.3697	-16.536269	0.000097	0.974521	0.330177	-0.007954
1337	6.6800e-01	-13.4098	-16.575611	0.000096	0.964042	0.326626	-0.007868
1338	6.6850e-01	-13.4707	-16.610249	0.000085	0.848776	0.287573	-0.006928
1339	6.6900e-01	-13.5092	-16.648735	0.000094	0.943085	0.319526	-0.007697
1340	6.6950e-01	-13.5205	-16.684655	0.000088	0.880212	0.298224	-0.007184
1341	6.7000e-01	-13.5943	-16.721431	0.000090	0.901170	0.305325	-0.007355
1342	6.7050e-01	-13.6424	-16.759062	0.000092	0.922127	0.312425	-0.007526
1343	6.7100e-01	-13.6825	-16.799259	0.000098	0.984999	0.333727	-0.008039
1344	6.7150e-01	-13.6841	-16.837318	0.000093	0.932606	0.315975	-0.007612
1345	6.7200e-01	-13.7467	-16.868962	0.000078	0.775425	0.262721	-0.006329
1346	6.7250e-01	-13.7755	-16.907876	0.000095	0.953563	0.323076	-0.007783
1347	6.7300e-01	-13.8301	-16.949355	0.000102	1.016436	0.344378	-0.008296
1348	6.7350e-01	-13.8622	-16.988269	0.000095	0.953563	0.323076	-0.007783
1349	6.7400e-01	-13.9055	-17.023762	0.000087	0.869734	0.294674	-0.007099
1350	6.7450e-01	-13.9023	-17.059683	-0.000088	-0.880212	-0.298224	-0.007184
1351	6.7500e-01	-13.9632	-17.102445	0.000105	1.047872	0.355029	-0.008553
1352	6.7550e-01	-14.0146	-17.139649	0.000091	0.911648	0.308875	-0.007441
1353	6.7600e-01	-14.0884	-17.175142	0.000087	0.869734	0.294674	-0.007099
1354	6.7650e-01	-14.0980	-17.210634	0.000087	0.869734	0.294674	-0.007099
1355	6.7700e-01	-14.1381	-17.247410	0.000090	0.901170	0.305325	-0.007355
1356	6.7750e-01	-14.1814	-17.289317	0.000103	1.026914	0.347928	-0.008381
1357	6.7800e-01	-14.2231	-17.320106	0.000075	0.754468	0.255621	-0.006158
1358	6.7850e-01	-14.2697	-17.365435	0.000111	1.110744	0.376330	-0.009066
1359	6.7900e-01	-14.3098	-17.399217	0.000083	0.827819	0.280473	-0.006756
1360	6.7950e-01	-14.3659	-17.438559	0.000096	0.964042	0.326626	-0.007868
1361	6.8000e-01	-14.4060	-17.477473	0.000095	0.953563	0.323076	-0.007783
1362	6.8050e-01	-14.4397	-17.514248	0.000090	0.901170	0.305325	-0.007355
1363	6.8100e-01	-14.4461	-17.558294	0.000108	1.079308	0.365679	-0.008809
1364	6.8150e-01	-14.5151	-17.589510	0.000076	0.764946	0.259171	-0.006243
1365	6.8200e-01	-14.5151	-17.621582	0.000079	0.785904	0.266271	-0.006414
1366	6.8250e-01	-14.5696	-17.660924	0.000096	0.964042	0.326626	-0.007868
1367	6.8300e-01	-14.6033	-17.706252	0.000111	1.110744	0.376330	-0.009066
1368	6.8350e-01	-14.6611	-17.738324	0.000079	0.785904	0.266271	-0.006414
1369	6.8400e-01	-14.7124	-17.775955	0.000092	0.922127	0.312425	-0.007526
1370	6.8450e-01	-14.7204	-17.808455	0.000080	0.796382	0.269822	-0.006500
1371	6.8500e-01	-14.7942	-17.849507	0.000101	1.005957	0.340827	-0.008210
1372	6.8550e-01	-14.8263	-17.885427	0.000088	0.880212	0.298224	-0.007184
1373	6.8600e-01	-14.8696	-17.922631	0.000091	0.911648	0.308875	-0.007441
1374	6.8650e-01	-14.9146	-17.956841	0.000084	0.838297	0.284023	-0.006842
1375	6.8700e-01	-14.9370	-17.995327	0.000094	0.943085	0.319526	-0.007697
1376	6.8750e-01	-14.9964	-18.030392	0.000086	0.859255	0.291123	-0.007013
1377	6.8800e-01	-15.0252	-18.065030	0.000085	0.848776	0.287573	-0.006928
1378	6.8850e-01	-15.0461	-18.100095	0.000086	0.859255	0.291123	-0.007013
1379	6.8900e-01	-15.1119	-18.139864	0.000097	0.974521	0.330177	-0.007954
1380	6.8950e-01	-15.0990	-18.180489	-0.000100	-0.995478	-0.337277	-0.008125
1381	6.9000e-01	-15.1744	-18.220685	0.000098	0.984999	0.333727	-0.008039
1382	6.9050e-01	-15.2210	-18.250619	0.000073	0.733510	0.248520	-0.005987
1383	6.9100e-01	-15.2739	-18.287395	0.000090	0.901170	0.305325	-0.007355
1384	6.9150e-01	-15.3012	-18.322033	0.000085	0.848776	0.287573	-0.006928
1385	6.9200e-01	-15.3252	-18.365223	0.000106	1.058350	0.358579	-0.008638
1386	6.9250e-01	-15.3766	-18.400716	0.000087	0.869734	0.294674	-0.007099
1387	6.9300e-01	-15.4087	-18.437919	0.000091	0.911648	0.308875	-0.007441
1388	6.9350e-01	-15.4568	-18.472984	0.000086	0.859255	0.291123	-0.007013
1389	6.9400e-01	-15.4841	-18.508905	0.000088	0.880212	0.298224	-0.007184
1390	6.9450e-01	-15.5386	-18.551240	0.000104	1.037393	0.351478	-0.008467
1391	6.9500e-01	-15.5707	-18.591009	0.000097	0.974521	0.330177	-0.007954
1392	6.9550e-01	-15.6092	-18.621370	0.000074	0.743989	0.252070	-0.006072
1393	6.9600e-01	-15.6637	-18.657718	0.000089	0.890691	0.301774	-0.007270
1394	6.9650e-01	-15.7038	-18.695349	0.000092	0.922127	0.312425	-0.007526
1395	6.9700e-01	-15.7423	-18.730842	0.000087	0.869734	0.294674	-0.007099
1396	6.9750e-01	-15.7792	-18.768901	0.000093	0.932606	0.315975	-0.007612
1397	6.9800e-01	-15.8322	-18.806104	0.000091	0.911648	0.308875	-0.007441
1398	6.9850e-01	-15.8739	-18.840742	0.000085	0.848776	0.287573	-0.006928
1399	6.9900e-01	-15.9172	-18.877945	0.000091	0.911648	0.308875	-0.007441
1400	6.9950e-01	-15.9493	-18.915149	0.000091	0.911648	0.308875	-0.007441
1401	7.0000e-01	-15.9846	-18.955773	0.000100	0.995478	0.337277	-0.008125
1402	7.0050e-01	-16.0343	-18.992549	0.000090	0.901170	0.305325	-0.007355
1403	7.0100e-01	-16.0632	-19.025904	0.000082	0.817340	0.276922	-0.006671
1404	7.0150e-01	-16.0856	-19.068666	0.000105	1.047872	0.355029	-0.008553
1405	7.0200e-01	-16.1161	-19.102876	0.000084	0.838297	0.284023	-0.006842
1406	7.0250e-01	-16.1819	-19.136231	0.000082	0.817340	0.276922	-0.006671
1407	7.0300e-01	-16.2220	-19.169158	0.000081	0.806861	0.273372	-0.006585
1408	7.0350e-01	-16.2509	-19.211493	0.000104	1.037393	0.351478	-0.008467
1409	7.0400e-01	-16.2926	-19.246131	0.000085	0.848776	0.287573	-0.006928
1410	7.0450e-01	-16.3311	-19.282051	0.000088	0.880212	0.298224	-0.007184
1411	7.0500e-01	-16.3776	-19.320110	0.000093	0.932606	0.315975	-0.007612
1412	7.0550e-01	-16.4145	-19.359024	0.000095	0.953563	0.323076	-0.007783
1413	7.0600e-01	-16.4418	-19.395800	0.000090	0.901170	0.305325	-0.007355
1414	7.0650e-01	-16.4995	-19.433003	0.000091	0.911648	0.308875	-0.007441
1415	7.0700e-01	-16.5252	-19.468068	0.000086	0.859255	0.291123	-0.007013
1416	7.0750e-01	-16.5910	-19.505272	0.000091	0.911648	0.308875	-0.007441
1417	7.0800e-01	-16.6343	-19.540337	0.000086	0.859255	0.291123	-0.007013
1418	7.0850e-01	-16.6824	-19.574547	0.000084	0.838297	0.284023	-0.006842
1419	7.0900e-01	-16.7113	-19.615599	0.000101	1.005957	0.340827	-0.008210
1420	7.0950e-01	-16.7354	-19.649381	0.000083	0.827819	0.280473	-0.006756
1421	7.1000e-01	-16.7835	-19.687440	0.000093	0.932606	0.315975	-0.007612
1422	7.1050e-01	-16.8428	-19.725071	0.000092	0.922127	0.312425	-0.007526
1423	7.1100e-01	-16.8509	-19.759709	0.000085	0.848776	0.287573	-0.006928
1424	7.1150e-01	-16.8894	-19.798623	0.000095	0.953563	0.323076	-0.007783
1425	7.1200e-01	-16.9263	-19.836254	0.000092	0.922127	0.312425	-0.007526
1426	7.1250e-01	-16.9856	-19.874740	0.000094	0.943085	0.319526	-0.007697
1427	7.1300e-01	-17.0145	-19.914081	0.000096	0.964042	0.326626	-0.007868
1428	7.1350e-01	-17.0498	-19.952140	0.000093	0.932606	0.315975	-0.007612
1429	7.1400e-01	-17.1091	-19.988061	0.000088	0.880212	0.298224	-0.007184
1430	7.1450e-01	-17.1412	-20.023553	0.000087	0.869734	0.294674	-0.007099
1431	7.1500e-01	-17.1749	-20.063323	0.000097	0.974521	0.330177	-0.007954
1432	7.1550e-01	-17.2263	-20.099243	0.000088	0.880212	0.298224	-0.007184
1433	7.1600e-01	-17.2375	-20.130032	0.000075	0.754468	0.255621	-0.006158
1434	7.1650e-01	-17.2471	-20.178781	0.000119	1.194574	0.404733	-0.009750
1435	7.1700e-01	-17.3145	-20.214702	0.000088	0.880212	0.298224	-0.007184
1436	7.1750e-01	-17.4059	-20.246346	0.000078	0.775425	0.262721	-0.006329
1437	7.1800e-01	-17.4268	-20.285260	0.000095	0.953563	0.323076	-0.007783
1438	7.1850e-01	-17.4637	-20.322036	0.000090	0.901170	0.305325	-0.007355
1439	7.1900e-01	-17.4958	-20.349404	0.000067	0.670638	0.227218	-0.005474
1440	7.1950e-01	-17.5407	-20.396870	0.000116	1.163138	0.394082	-0.009493
1441	7.2000e-01	-17.5984	-20.434929	0.000093	0.932606	0.315975	-0.007612
1442	7.2050e-01	-17.6209	-20.472132	0.000091	0.911648	0.308875	-0.007441
1443	7.2100e-01	-17.6482	-20.512329	0.000098	0.984999	0.333727	-0.008039
1444	7.2150e-01	-17.6963	-20.550815	0.000094	0.943085	0.319526	-0.007697
1445	7.2200e-01	-17.7428	-20.586308	0.000087	0.869734	0.294674	-0.007099
1446	7.2250e-01	-17.7877	-20.626077	0.000097	0.974521	0.330177	-0.007954
1447	7.2300e-01	-17.8294	-20.663709	0.000092	0.922127	0.312425	-0.007526
1448	7.2350e-01	-17.8599	-20.698774	0.000086	0.859255	0.291123	-0.007013
1449	7.2400e-01	-17.8952	-20.737688	0.000095	0.953563	0.323076	-0.007783
1450	7.2450e-01	-17.9321	-20.776174	0.000094	0.943085	0.319526	-0.007697
1451	7.2500e-01	-17.9851	-20.808673	0.000080	0.796382	0.269822	-0.006500
1452	7.2550e-01	-18.0123	-20.847587	0.000095	0.953563	0.323076	-0.007783
1453	7.2600e-01	-18.0621	-20.887784	0.000098	0.984999	0.333727	-0.008039
1454	7.2650e-01	-18.0957	-20.926698	0.000095	0.953563	0.323076	-0.007783
1455	7.2700e-01	-18.1423	-20.963474	0.000090	0.901170	0.305325	-0.007355
1456	7.2750e-01	-18.1824	-21.000677	0.000091	0.911648	0.308875	-0.007441
1457	7.2800e-01	-18.2241	-21.037881	0.000091	0.911648	0.308875	-0.007441
1458	7.2850e-01	-18.2498	-21.081926	0.000108	1.079308	0.365679	-0.008809
1459	7.2900e-01	-18.2947	-21.116991	0.000086	0.859255	0.291123	-0.007013
1460	7.2950e-01	-18.3685	-21.161037	0.000108	1.079308	0.365679	-0.008809
1461	7.3000e-01	-18.3781	-21.199095	0.000093	0.932606	0.315975	-0.007612
1462	7.3050e-01	-18.4294	-21.228602	0.000072	0.723031	0.244970	-0.005901
1463	7.3100e-01	-18.4407	-21.271364	0.000105	1.047872	0.355029	-0.008553
1464	7.3150e-01	-18.5032	-21.308140	0.000090	0.901170	0.305325	-0.007355
1465	7.3200e-01	-18.5321	-21.348337	0.000098	0.984999	0.333727	-0.008039
1466	7.3250e-01	-18.5882	-21.384257	0.000088	0.880212	0.298224	-0.007184
1467	7.3300e-01	-18.6203	-21.420178	0.000088	0.880212	0.298224	-0.007184
1468	7.3350e-01	-18.6556	-21.464223	0.000108	1.079308	0.365679	-0.008809
1469	7.3400e-01	-18.7038	-21.501854	0.000092	0.922127	0.312425	-0.007526
1470	7.3450e-01	-18.7326	-21.539057	0.000091	0.911648	0.308875	-0.007441
1471	7.3500e-01	-18.7711	-21.578827	0.000097	0.974521	0.330177	-0.007954
1472	7.3550e-01	-18.8209	-21.619879	0.000101	1.005957	0.340827	-0.008210
1473	7.3600e-01	-18.8690	-21.661358	0.000102	1.016436	0.344378	-0.008296
1474	7.3650e-01	-18.8770	-21.697279	0.000088	0.880212	0.298224	-0.007184
1475	7.3700e-01	-18.9396	-21.734482	0.000091	0.911648	0.308875	-0.007441
1476	7.3750e-01	-18.9701	-21.773396	0.000095	0.953563	0.323076	-0.007783
1477	7.3800e-01	-19.0390	-21.817869	0.000109	1.089787	0.369230	-0.008895
1478	7.3850e-01	-19.0599	-21.852507	0.000085	0.848776	0.287573	-0.006928
1479	7.3900e-01	-19.1016	-21.888000	0.000087	0.869734	0.294674	-0.007099
1480	7.3950e-01	-19.1513	-21.929052	0.000101	1.005957	0.340827	-0.008210
1481	7.4000e-01	-19.1914	-21.972669	0.000107	1.068829	0.362129	-0.008724
1482	7.4050e-01	-19.2412	-22.009873	0.000091	0.911648	0.308875	-0.007441
1483	7.4100e-01	-19.2668	-22.053063	0.000106	1.058350	0.358579	-0.008638
1484	7.4150e-01	-19.3166	-22.089839	0.000090	0.901170	0.305325	-0.007355
1485	7.4200e-01	-19.2845	-22.130891	-0.000101	-1.005957	-0.340827	-0.008210
1486	7.4250e-01	-19.3775	-22.169377	0.000094	0.943085	0.319526	-0.007697
1487	7.4300e-01	-19.4160	-22.209146	0.000097	0.974521	0.330177	-0.007954
1488	7.4350e-01	-19.4545	-22.245494	0.000089	0.890691	0.301774	-0.007270
1489	7.4400e-01	-19.5123	-22.289540	0.000108	1.079308	0.365679	-0.008809
1490	7.4450e-01	-19.5540	-22.326316	0.000090	0.901170	0.305325	-0.007355
1491	7.4500e-01	-19.5925	-22.369933	0.000107	1.068829	0.362129	-0.008724
1492	7.4550e-01	-19.6246	-22.407992	0.000093	0.932606	0.315975	-0.007612
1493	7.4600e-01	-19.6759	-22.447334	0.000096	0.964042	0.326626	-0.007868
1494	7.4650e-01	-19.6936	-22.489241	0.000103	1.026914	0.347928	-0.008381
1495	7.4700e-01	-19.7465	-22.526444	0.000091	0.911648	0.308875	-0.007441
1496	7.4750e-01	-19.7722	-22.570917	0.000109	1.089787	0.369230	-0.008895
1497	7.4800e-01	-19.8251	-22.611969	0.000101	1.005957	0.340827	-0.008210
1498	7.4850e-01	-19.8700	-22.649600	0.000092	0.922127	0.312425	-0.007526
1499	7.4900e-01	-19.9037	-22.691508	0.000103	1.026914	0.347928	-0.008381
1500	7.4950e-01	-19.9551	-22.732560	0.000101	1.005957	0.340827	-0.008210
1501	7.5000e-01	-19.9551	-22.768908	0.000089	0.890691	0.301774	-0.007270
1502	7.5050e-01	-19.9342	-22.820223	-0.000126	-1.257446	-0.426034	-0.010263
1503	7.5100e-01	-19.8444	-22.832624	-0.000030	-0.303883	-0.102958	-0.002480
1504	7.5150e-01	-19.8395	-22.847591	-0.000037	-0.366755	-0.124260	-0.002993
1505	7.5200e-01	-19.8139	-22.851439	-0.000009	-0.094308	-0.031953	-0.000770
1506	7.5250e-01	-19.7577	-22.845025	0.000016	0.157181	0.053254	0.001283
1507	7.5300e-01	-19.7240	-22.836900	0.000020	0.199096	0.067455	0.001625
1508	7.5350e-01	-19.6567	-22.834762	0.000005	0.052394	0.017751	0.000428
1509	7.5400e-01	-19.6246	-22.821933	0.000031	0.314362	0.106509	0.002566
1510	7.5450e-01	-19.5700	-22.808249	0.000034	0.335319	0.113609	0.002737
1511	7.5500e-01	-19.5428	-22.787723	0.000050	0.502978	0.170414	0.004105
1512	7.5550e-01	-19.4946	-22.779171	0.000021	0.209574	0.071006	0.001711
1513	7.5600e-01	-19.4770	-22.755224	0.000059	0.586808	0.198816	0.004789
1514	7.5650e-01	-19.4032	-22.737263	0.000044	0.440106	0.149112	0.003592
1515	7.5700e-01	-19.3839	-22.717593	0.000048	0.482021	0.163313	0.003934
1516	7.5750e-01	-19.3438	-22.693646	0.000059	0.586808	0.198816	0.004789
1517	7.5800e-01	-19.3214	-22.675685	0.000044	0.440106	0.149112	0.003592
1518	7.5850e-01	-19.2909	-22.650456	0.000062	0.618244	0.209467	0.005046
1519	7.5900e-01	-19.2556	-22.630785	0.000048	0.482021	0.163313	0.003934
1520	7.5950e-01	-19.1995	-22.603844	0.000066	0.660159	0.223668	0.005388
1521	7.6000e-01	-19.1545	-22.577759	0.000064	0.639202	0.216567	0.005217
1522	7.6050e-01	-19.1128	-22.555095	0.000056	0.555372	0.188165	0.004533
1523	7.6100e-01	-19.0904	-22.528582	0.000065	0.649680	0.220118	0.005303
1524	7.6150e-01	-19.0230	-22.501642	0.000066	0.660159	0.223668	0.005388
1525	7.6200e-01	-18.9973	-22.480261	0.000052	0.523936	0.177514	0.004276
1526	7.6250e-01	-18.9299	-22.458024	0.000054	0.544893	0.184615	0.004447
1527	7.6300e-01	-18.9155	-22.426808	0.000076	0.764946	0.259171	0.006243
1528	7.6350e-01	-18.8658	-22.404143	0.000056	0.555372	0.188165	0.004533
1529	7.6400e-01	-18.8177	-22.375065	0.000071	0.712553	0.241419	0.005816
1530	7.6450e-01	-18.7888	-22.351118	0.000059	0.586808	0.198816	0.004789
1531	7.6500e-01	-18.7519	-22.321612	0.000072	0.723031	0.244970	0.005901
1532	7.6550e-01	-18.7278	-22.295099	0.000065	0.649680	0.220118	0.005303
1533	7.6600e-01	-18.6797	-22.266448	0.000070	0.702074	0.237869	0.005730
1534	7.6650e-01	-18.6091	-22.243356	0.000057	0.565851	0.191715	0.004618
1535	7.6700e-01	-18.5674	-22.212567	0.000075	0.754468	0.255621	0.006158
1536	7.6750e-01	-18.5096	-22.189903	0.000056	0.555372	0.188165	0.004533
1537	7.6800e-01	-18.5112	-22.160397	-0.000072	-0.723031	-0.244970	0.005901
1538	7.6850e-01	-18.4567	-22.130036	0.000074	0.743989	0.252070	0.006072
1539	7.6900e-01	-18.4358	-22.104806	0.000062	0.618244	0.209467	0.005046
1540	7.6950e-01	-18.3797	-22.072306	0.000080	0.796382	0.269822	0.006500
1541	7.7000e-01	-18.3476	-22.047504	0.000061	0.607766	0.205917	0.004960
1542	7.7050e-01	-18.3219	-22.015004	0.000080	0.796382	0.269822	0.006500
1543	7.7100e-01	-18.2866	-21.986353	0.000070	0.702074	0.237869	0.005730
1544	7.7150e-01	-18.2113	-21.961551	0.000061	0.607766	0.205917	0.004960
1545	7.7200e-01	-18.1968	-21.934611	0.000066	0.660159	0.223668	0.005388
1546	7.7250e-01	-18.1407	-21.906388	0.000069	0.691595	0.234319	0.005645
1547	7.7300e-01	-18.1070	-21.873888	0.000080	0.796382	0.269822	0.006500
1548	7.7350e-01	-18.0845	-21.844382	0.000072	0.723031	0.244970	0.005901
1549	7.7400e-01	-18.0075	-21.817442	0.000066	0.660159	0.223668	0.005388
1550	7.7450e-01	-17.9851	-21.786652	0.000075	0.754468	0.255621	0.006158
1551	7.7500e-01	-17.9482	-21.758429	0.000069	0.691595	0.234319	0.005645
1552	7.7550e-01	-17.8952	-21.729351	0.000071	0.712553	0.241419	0.005816
1553	7.7600e-01	-17.8679	-21.700272	0.000071	0.712553	0.241419	0.005816
1554	7.7650e-01	-17.8150	-21.669056	0.000076	0.764946	0.259171	0.006243
1555	7.7700e-01	-17.7733	-21.637839	0.000076	0.764946	0.259171	0.006243
1556	7.7750e-01	-17.7669	-21.608760	0.000071	0.712553	0.241419	0.005816
1557	7.7800e-01	-17.7268	-21.580109	0.000070	0.702074	0.237869	0.005730
1558	7.7850e-01	-17.6770	-21.555307	0.000061	0.607766	0.205917	0.004960
1559	7.7900e-01	-17.6417	-21.521525	0.000083	0.827819	0.280473	0.006756
1560	7.7950e-01	-17.5904	-21.487315	0.000084	0.838297	0.284023	0.006842
1561	7.8000e-01	-17.5503	-21.459947	0.000067	0.670638	0.227218	0.005474
1562	7.8050e-01	-17.4958	-21.431724	0.000069	0.691595	0.234319	0.005645
1563	7.8100e-01	-17.4605	-21.399224	0.000080	0.796382	0.269822	0.006500
1564	7.8150e-01	-17.4316	-21.367152	0.000079	0.785904	0.266271	0.006414
1565	7.8200e-01	-17.3915	-21.338501	0.000070	0.702074	0.237869	0.005730
1566	7.8250e-01	-17.3498	-21.309850	0.000070	0.702074	0.237869	0.005730
1567	7.8300e-01	-17.3289	-21.278634	0.000076	0.764946	0.259171	0.006243
1568	7.8350e-01	-17.2664	-21.252976	0.000063	0.628723	0.213017	0.005132
1569	7.8400e-01	-17.2054	-21.220049	0.000081	0.806861	0.273372	0.006585
1570	7.8450e-01	-17.1910	-21.182846	0.000091	0.911648	0.308875	0.007441
1571	7.8500e-01	-17.1396	-21.157188	0.000063	0.628723	0.213017	0.005132
1572	7.8550e-01	-17.1236	-21.124689	0.000080	0.796382	0.269822	0.006500
1573	7.8600e-01	-17.0819	-21.100742	0.000059	0.586808	0.198816	0.004789
1574	7.8650e-01	-17.0337	-21.066959	0.000083	0.827819	0.280473	0.006756
1575	7.8700e-01	-16.9872	-21.034460	0.000080	0.796382	0.269822	0.006500
1576	7.8750e-01	-16.9311	-21.002815	0.000078	0.775425	0.262721	0.006329
1577	7.8800e-01	-16.8958	-20.968605	0.000084	0.838297	0.284023	0.006842
1578	7.8850e-01	-16.8669	-20.937389	0.000076	0.764946	0.259171	0.006243
1579	7.8900e-01	-16.8188	-20.898902	0.000094	0.943085	0.319526	0.007697
1580	7.8950e-01	-16.8011	-20.873673	0.000062	0.618244	0.209467	0.005046
1581	7.9000e-01	-16.7594	-20.843311	0.000074	0.743989	0.252070	0.006072
1582	7.9050e-01	-16.7081	-20.817654	0.000063	0.628723	0.213017	0.005132
1583	7.9100e-01	-16.6664	-20.783871	0.000083	0.827819	0.280473	0.006756
1584	7.9150e-01	-16.6134	-20.743674	0.000098	0.984999	0.333727	0.008039
1585	7.9200e-01	-16.6215	-20.724004	-0.000048	-0.482021	-0.163313	0.003934
1586	7.9250e-01	-16.5509	-20.689366	0.000085	0.848776	0.287573	0.006928
1587	7.9300e-01	-16.5188	-20.658149	0.000076	0.764946	0.259171	0.006243
1588	7.9350e-01	-16.4787	-20.625222	0.000081	0.806861	0.273372	0.006585
1589	7.9400e-01	-16.4241	-20.595288	0.000073	0.733510	0.248520	0.005987
1590	7.9450e-01	-16.3856	-20.566210	0.000071	0.712553	0.241419	0.005816
1591	7.9500e-01	-16.3455	-20.531572	0.000085	0.848776	0.287573	0.006928
1592	7.9550e-01	-16.3375	-20.496935	0.000085	0.848776	0.287573	0.006928
1593	7.9600e-01	-16.2749	-20.470850	0.000064	0.639202	0.216567	0.005217
1594	7.9650e-01	-16.2236	-20.437067	0.000083	0.827819	0.280473	0.006756
1595	7.9700e-01	-16.1803	-20.402857	0.000084	0.838297	0.284023	0.006842
1596	7.9750e-01	-16.1225	-20.371640	0.000076	0.764946	0.259171	0.006243
1597	7.9800e-01	-16.1145	-20.340424	0.000076	0.764946	0.259171	0.006243
1598	7.9850e-01	-16.1017	-20.306214	0.000084	0.838297	0.284023	0.006842
1599	7.9900e-01	-16.0038	-20.277563	0.000070	0.702074	0.237869	0.005730
1600	7.9950e-01	-15.9926	-20.245063	0.000080	0.796382	0.269822	0.006500
1601	8.0000e-01	-15.9381	-20.214274	0.000075	0.754468	0.255621	0.006158
1602	8.0050e-01	-15.9060	-20.174078	0.000098	0.984999	0.333727	0.008039
1603	8.0100e-01	-15.8498	-20.144999	0.000071	0.712553	0.241419	0.005816
1604	8.0150e-01	-15.7792	-20.116348	0.000070	0.702074	0.237869	0.005730
1605	8.0200e-01	-15.8033	-20.084704	-0.000078	-0.775425	-0.262721	0.006329
1606	8.0250e-01	-15.7664	-20.052204	0.000080	0.796382	0.269822	0.006500
1607	8.0300e-01	-15.7247	-20.016284	0.000088	0.880212	0.298224	0.007184
1608	8.0350e-01	-15.6750	-19.986778	0.000072	0.723031	0.244970	0.005901
1609	8.0400e-01	-15.6429	-19.956416	0.000074	0.743989	0.252070	0.006072
1610	8.0450e-01	-15.6108	-19.921351	0.000086	0.859255	0.291123	0.007013
1611	8.0500e-01	-15.5723	-19.892700	0.000070	0.702074	0.237869	0.005730
1612	8.0550e-01	-15.4905	-19.857207	0.000087	0.869734	0.294674	0.007099
1613	8.0600e-01	-15.4295	-19.828556	0.000070	0.702074	0.237869	0.005730
1614	8.0650e-01	-15.4375	-19.793919	-0.000085	-0.848776	-0.287573	0.006928
1615	8.0700e-01	-15.3814	-19.760564	0.000082	0.817340	0.276922	0.006671
1616	8.0750e-01	-15.3541	-19.726354	0.000084	0.838297	0.284023	0.006842
1617	8.0800e-01	-15.3060	-19.693427	0.000081	0.806861	0.273372	0.006585
1618	8.0850e-01	-15.2755	-19.661355	0.000079	0.785904	0.266271	0.006414
1619	8.0900e-01	-15.2081	-19.630138	0.000076	0.764946	0.259171	0.006243
1620	8.0950e-01	-15.1825	-19.596783	0.000082	0.817340	0.276922	0.006671
1621	8.1000e-01	-15.1664	-19.560863	0.000088	0.880212	0.298224	0.007184
1622	8.1050e-01	-15.1071	-19.525370	0.000087	0.869734	0.294674	0.007099
1623	8.1100e-01	-15.0429	-19.498857	0.000065	0.649680	0.220118	0.005303
1624	8.1150e-01	-14.9996	-19.460799	0.000093	0.932606	0.315975	0.007612
1625	8.1200e-01	-14.9948	-19.429582	0.000076	0.764946	0.259171	0.006243
1626	8.1250e-01	-14.9611	-19.399648	0.000073	0.733510	0.248520	0.005987
1627	8.1300e-01	-14.9178	-19.362872	0.000090	0.901170	0.305325	0.007355
1628	8.1350e-01	-14.8793	-19.329090	0.000083	0.827819	0.280473	0.006756
1629	8.1400e-01	-14.8039	-19.294452	0.000085	0.848776	0.287573	0.006928
1630	8.1450e-01	-14.7926	-19.259387	0.000086	0.859255	0.291123	0.007013
1631	8.1500e-01	-14.7605	-19.229453	0.000073	0.733510	0.248520	0.005987
1632	8.1550e-01	-14.6916	-19.195243	0.000084	0.838297	0.284023	0.006842
1633	8.1600e-01	-14.6707	-19.158895	0.000089	0.890691	0.301774	0.007270
1634	8.1650e-01	-14.6033	-19.129389	0.000072	0.723031	0.244970	0.005901
1635	8.1700e-01	-14.6162	-19.096034	-0.000082	-0.817340	-0.276922	0.006671
1636	8.1750e-01	-14.5616	-19.062252	0.000083	0.827819	0.280473	0.006756
1637	8.1800e-01	-14.5039	-19.025904	0.000089	0.890691	0.301774	0.007270
1638	8.1850e-01	-14.4766	-18.993832	0.000079	0.785904	0.266271	0.006414
1639	8.1900e-01	-14.4349	-18.960477	0.000082	0.817340	0.276922	0.006671
1640	8.1950e-01	-14.3884	-18.933537	0.000066	0.660159	0.223668	0.005388
1641	8.2000e-01	-14.3707	-18.892057	0.000102	1.016436	0.344378	0.008296
1642	8.2050e-01	-14.3210	-18.855281	0.000090	0.901170	0.305325	0.007355
1643	8.2100e-01	-14.2761	-18.824920	0.000074	0.743989	0.252070	0.006072
1644	8.2150e-01	-14.2504	-18.791993	0.000081	0.806861	0.273372	0.006585
1645	8.2200e-01	-14.1798	-18.759066	0.000081	0.806861	0.273372	0.006585
1646	8.2250e-01	-14.1349	-18.727849	0.000076	0.764946	0.259171	0.006243
1647	8.2300e-01	-14.1317	-18.687225	0.000100	0.995478	0.337277	0.008125
1648	8.2350e-01	-14.0483	-18.653014	0.000084	0.838297	0.284023	0.006842
1649	8.2400e-01	-14.0194	-18.619232	0.000083	0.827819	0.280473	0.006756
1650	8.2450e-01	-13.9697	-18.590154	0.000071	0.712553	0.241419	0.005816
1651	8.2500e-01	-13.9552	-18.545253	0.000110	1.100265	0.372780	0.008980
1652	8.2550e-01	-13.9135	-18.518740	0.000065	0.649680	0.220118	0.005303
1653	8.2600e-01	-13.8798	-18.482820	0.000088	0.880212	0.298224	0.007184
1654	8.2650e-01	-13.8365	-18.445616	0.000091	0.911648	0.308875	0.007441
1655	8.2700e-01	-13.7916	-18.414400	0.000076	0.764946	0.259171	0.006243
1656	8.2750e-01	-13.7226	-18.377624	0.000090	0.901170	0.305325	0.007355
1657	8.2800e-01	-13.7226	-18.350683	-0.000066	-0.660159	-0.223668	0.005388
1658	8.2850e-01	-13.6616	-18.320322	0.000074	0.743989	0.252070	0.006072
1659	8.2900e-01	-13.6472	-18.280980	0.000096	0.964042	0.326626	0.007868
1660	8.2950e-01	-13.6007	-18.245915	0.000086	0.859255	0.291123	0.007013
1661	8.3000e-01	-13.5526	-18.209567	0.000089	0.890691	0.301774	0.007270
1662	8.3050e-01	-13.4788	-18.174074	0.000087	0.869734	0.294674	0.007099
1663	8.3100e-01	-13.4788	-18.135160	-0.000095	-0.953563	-0.323076	0.007783
1664	8.3150e-01	-13.4338	-18.103516	0.000078	0.775425	0.262721	0.006329
1665	8.3200e-01	-13.3601	-18.069734	0.000083	0.827819	0.280473	0.006756
1666	8.3250e-01	-13.3392	-18.037662	0.000079	0.785904	0.266271	0.006414
1667	8.3300e-01	-13.3167	-17.996610	0.000101	1.005957	0.340827	0.008210
1668	8.3350e-01	-13.2895	-17.964110	0.000080	0.796382	0.269822	0.006500
1669	8.3400e-01	-13.2333	-17.929900	0.000084	0.838297	0.284023	0.006842
1670	8.3450e-01	-13.1820	-17.896973	0.000081	0.806861	0.273372	0.006585
1671	8.3500e-01	-13.1226	-17.860625	0.000089	0.890691	0.301774	0.007270
1672	8.3550e-01	-13.0937	-17.826415	0.000084	0.838297	0.284023	0.006842
1673	8.3600e-01	-13.0520	-17.791350	0.000086	0.859255	0.291123	0.007013
1674	8.3650e-01	-13.0248	-17.752008	0.000096	0.964042	0.326626	0.007868
1675	8.3700e-01	-13.0151	-17.718653	0.000082	0.817340	0.276922	0.006671
1676	8.3750e-01	-12.9526	-17.684443	0.000084	0.838297	0.284023	0.006842
1677	8.3800e-01	-12.9044	-17.651516	0.000081	0.806861	0.273372	0.006585
1678	8.3850e-01	-12.8611	-17.617306	0.000084	0.838297	0.284023	0.006842
1679	8.3900e-01	-12.8611	-17.573261	-0.000108	-1.079308	-0.365679	0.008809
1680	8.3950e-01	-12.7681	-17.545893	0.000067	0.670638	0.227218	0.005474
1681	8.4000e-01	-12.7344	-17.510400	0.000087	0.869734	0.294674	0.007099
1682	8.4050e-01	-12.6975	-17.473196	0.000091	0.911648	0.308875	0.007441
1683	8.4100e-01	-12.6574	-17.437703	0.000087	0.869734	0.294674	0.007099
1684	8.4150e-01	-12.6253	-17.403493	0.000084	0.838297	0.284023	0.006842
1685	8.4200e-01	-12.6012	-17.367145	0.000089	0.890691	0.301774	0.007270
1686	8.4250e-01	-12.5708	-17.332508	0.000085	0.848776	0.287573	0.006928
1687	8.4300e-01	-12.5531	-17.296587	0.000088	0.880212	0.298224	0.007184
1688	8.4350e-01	-12.4745	-17.258528	0.000093	0.932606	0.315975	0.007612
1689	8.4400e-01	-12.4472	-17.220897	0.000092	0.922127	0.312425	0.007526
1690	8.4450e-01	-12.3863	-17.190964	0.000073	0.733510	0.248520	0.005987
1691	8.4500e-01	-12.3574	-17.152477	0.000094	0.943085	0.319526	0.007697
1692	8.4550e-01	-12.2932	-17.114846	0.000092	0.922127	0.312425	0.007526
1693	8.4600e-01	-12.2531	-17.078071	0.000090	0.901170	0.305325	0.007355
1694	8.4650e-01	-12.2323	-17.044716	0.000082	0.817340	0.276922	0.006671
1695	8.4700e-01	-12.2194	-17.008368	0.000089	0.890691	0.301774	0.007270
1696	8.4750e-01	-12.1601	-16.974158	0.000084	0.838297	0.284023	0.006842
1697	8.4800e-01	-12.1055	-16.933533	0.000100	0.995478	0.337277	0.008125
1698	8.4850e-01	-12.0783	-16.899751	0.000083	0.827819	0.280473	0.006756
1699	8.4900e-01	-12.0269	-16.863830	0.000088	0.880212	0.298224	0.007184
1700	8.4950e-01	-12.0013	-16.823206	0.000100	0.995478	0.337277	0.008125
1701	8.5000e-01	-11.9451	-16.789424	0.000083	0.827819	0.280473	0.006756
1702	8.5050e-01	-11.9130	-16.753503	0.000088	0.880212	0.298224	0.007184
1703	8.5100e-01	-11.8601	-16.717155	0.000089	0.890691	0.301774	0.007270
1704	8.5150e-01	-11.8312	-16.685511	0.000078	0.775425	0.262721	0.006329
1705	8.5200e-01	-11.7927	-16.641038	0.000109	1.089787	0.369230	0.008895
1706	8.5250e-01	-11.7414	-16.605117	0.000088	0.880212	0.298224	0.007184
1707	8.5300e-01	-11.6981	-16.571762	0.000082	0.817340	0.276922	0.006671
1708	8.5350e-01	-11.6467	-16.534559	0.000091	0.911648	0.308875	0.007441
1709	8.5400e-01	-11.6130	-16.498211	0.000089	0.890691	0.301774	0.007270
1710	8.5450e-01	-11.5986	-16.462718	0.000087	0.869734	0.294674	0.007099
1711	8.5500e-01	-11.5328	-16.424659	0.000093	0.932606	0.315975	0.007612
1712	8.5550e-01	-11.5088	-16.390022	0.000085	0.848776	0.287573	0.006928
1713	8.5600e-01	-11.4767	-16.348970	0.000101	1.005957	0.340827	0.008210
1714	8.5650e-01	-11.4061	-16.310911	0.000093	0.932606	0.315975	0.007612
1715	8.5700e-01	-11.3724	-16.276701	0.000084	0.838297	0.284023	0.006842
1716	8.5750e-01	-11.3355	-16.236076	0.000100	0.995478	0.337277	0.008125
1717	8.5800e-01	-11.3002	-16.201011	0.000086	0.859255	0.291123	0.007013
1718	8.5850e-01	-11.2585	-16.161242	0.000097	0.974521	0.330177	0.007954
1719	8.5900e-01	-11.2296	-16.126177	0.000086	0.859255	0.291123	0.007013
1720	8.5950e-01	-11.2056	-16.088973	0.000091	0.911648	0.308875	0.007441
1721	8.6000e-01	-11.1574	-16.051770	0.000091	0.911648	0.308875	0.007441
1722	8.6050e-01	-11.1125	-16.015422	0.000089	0.890691	0.301774	0.007270
1723	8.6100e-01	-11.0804	-15.958548	0.000139	1.393669	0.472188	0.011375
1724	8.6150e-01	-11.0403	-15.932035	0.000065	0.649680	0.220118	0.005303
1725	8.6200e-01	-10.9713	-15.897825	0.000084	0.838297	0.284023	0.006842
1726	8.6250e-01	-10.9617	-15.859339	0.000094	0.943085	0.319526	0.007697
1727	8.6300e-01	-10.8992	-15.825556	0.000083	0.827819	0.280473	0.006756
1728	8.6350e-01	-10.8591	-15.786642	0.000095	0.953563	0.323076	0.007783
1729	8.6400e-01	-10.8334	-15.745163	0.000102	1.016436	0.344378	0.008296
1730	8.6450e-01	-10.8013	-15.716512	0.000070	0.702074	0.237869	0.005730
1731	8.6500e-01	-10.7403	-15.677598	0.000095	0.953563	0.323076	0.007783
1732	8.6550e-01	-10.6730	-15.643388	0.000084	0.838297	0.284023	0.006842
1733	8.6600e-01	-10.6569	-15.604474	0.000095	0.953563	0.323076	0.007783
1734	8.6650e-01	-10.6232	-15.564277	0.000098	0.984999	0.333727	0.008039
1735	8.6700e-01	-10.6200	-15.526646	0.000092	0.922127	0.312425	0.007526
1736	8.6750e-01	-10.5222	-15.483456	0.000106	1.058350	0.358579	0.008638
1737	8.6800e-01	-10.5141	-15.448391	0.000086	0.859255	0.291123	0.007013
1738	8.6850e-01	-10.4580	-15.407766	0.000100	0.995478	0.337277	0.008125
1739	8.6900e-01	-10.4227	-15.368425	0.000096	0.964042	0.326626	0.007868
1740	8.6950e-01	-10.3762	-15.330794	0.000092	0.922127	0.312425	0.007526
1741	8.7000e-01	-10.3281	-15.291025	0.000097	0.974521	0.330177	0.007954
1742	8.7050e-01	-10.3088	-15.255959	0.000086	0.859255	0.291123	0.007013
1743	8.7100e-01	-10.2767	-15.215335	0.000100	0.995478	0.337277	0.008125
1744	8.7150e-01	-10.2318	-15.181980	0.000082	0.817340	0.276922	0.006671
1745	8.7200e-01	-10.1997	-15.143066	0.000095	0.953563	0.323076	0.007783
1746	8.7250e-01	-10.1163	-15.102014	0.000101	1.005957	0.340827	0.008210
1747	8.7300e-01	-10.1002	-15.063956	0.000093	0.932606	0.315975	0.007612
1748	8.7350e-01	-10.0666	-15.028035	0.000088	0.880212	0.298224	0.007184
1749	8.7400e-01	-10.0409	-14.988694	0.000096	0.964042	0.326626	0.007868
1750	8.7450e-01	-9.9928	-14.951490	0.000091	0.911648	0.308875	0.007441
1751	8.7500e-01	-9.9575	-14.907445	0.000108	1.079308	0.365679	0.008809
1752	8.7550e-01	-9.9013	-14.869814	0.000092	0.922127	0.312425	0.007526
1753	8.7600e-01	-9.8660	-14.827479	0.000104	1.037393	0.351478	0.008467
1754	8.7650e-01	-9.8083	-14.788137	0.000096	0.964042	0.326626	0.007868
1755	8.7700e-01	-9.7810	-14.752217	0.000088	0.880212	0.298224	0.007184
1756	8.7750e-01	-9.7585	-14.710737	0.000102	1.016436	0.344378	0.008296
1757	8.7800e-01	-9.7345	-14.669257	0.000102	1.016436	0.344378	0.008296
1758	8.7850e-01	-9.6719	-14.634620	0.000085	0.848776	0.287573	0.006928
1759	8.7900e-01	-9.6174	-14.593568	0.000101	1.005957	0.340827	0.008210
1760	8.7950e-01	-9.5741	-14.553799	0.000097	0.974521	0.330177	0.007954
1761	8.8000e-01	-9.5484	-14.511464	0.000104	1.037393	0.351478	0.008467
1762	8.8050e-01	-9.4906	-14.474688	0.000090	0.901170	0.305325	0.007355
1763	8.8100e-01	-9.4810	-14.436202	0.000094	0.943085	0.319526	0.007697
1764	8.8150e-01	-9.4185	-14.397715	0.000094	0.943085	0.319526	0.007697
1765	8.8200e-01	-9.3896	-14.357946	0.000097	0.974521	0.330177	0.007954
1766	8.8250e-01	-9.3639	-14.316039	0.000103	1.026914	0.347928	0.008381
1767	8.8300e-01	-9.3046	-14.279263	0.000090	0.901170	0.305325	0.007355
1768	8.8350e-01	-9.2596	-14.236073	0.000106	1.058350	0.358579	0.008638
1769	8.8400e-01	-9.2500	-14.193738	0.000104	1.037393	0.351478	0.008467
1770	8.8450e-01	-9.1858	-14.153541	0.000098	0.984999	0.333727	0.008039
1771	8.8500e-01	-9.1554	-14.116338	0.000091	0.911648	0.308875	0.007441
1772	8.8550e-01	-9.0880	-14.075286	0.000101	1.005957	0.340827	0.008210
1773	8.8600e-01	-9.0495	-14.034662	0.000100	0.995478	0.337277	0.008125
1774	8.8650e-01	-9.0286	-13.994465	0.000098	0.984999	0.333727	0.008039
1775	8.8700e-01	-8.9965	-13.955123	0.000096	0.964042	0.326626	0.007868
1776	8.8750e-01	-8.9516	-13.917920	0.000091	0.911648	0.308875	0.007441
1777	8.8800e-01	-8.9051	-13.877295	0.000100	0.995478	0.337277	0.008125
1778	8.8850e-01	-8.8858	-13.836671	0.000100	0.995478	0.337277	0.008125
1779	8.8900e-01	-8.8345	-13.793908	0.000105	1.047872	0.355029	0.008553
1780	8.8950e-01	-8.7591	-13.754139	0.000097	0.974521	0.330177	0.007954
1781	8.9000e-01	-8.7671	-13.703252	-0.000125	-1.246967	-0.422484	0.010177
1782	8.9050e-01	-8.7142	-13.668614	0.000085	0.848776	0.287573	0.006928
1783	8.9100e-01	-8.6933	-13.628845	0.000097	0.974521	0.330177	0.007954
1784	8.9150e-01	-8.6356	-13.586938	0.000103	1.026914	0.347928	0.008381
1785	8.9200e-01	-8.5730	-13.549307	0.000092	0.922127	0.312425	0.007526
1786	8.9250e-01	-8.5345	-13.509538	0.000097	0.974521	0.330177	0.007954
1787	8.9300e-01	-8.5233	-13.465920	0.000107	1.068829	0.362129	0.008724
1788	8.9350e-01	-8.4607	-13.423157	0.000105	1.047872	0.355029	0.008553
1789	8.9400e-01	-8.4335	-13.386382	0.000090	0.901170	0.305325	0.007355
1790	8.9450e-01	-8.3725	-13.341481	0.000110	1.100265	0.372780	0.008980
1791	8.9500e-01	-8.3500	-13.300001	0.000102	1.016436	0.344378	0.008296
1792	8.9550e-01	-8.3292	-13.258949	0.000101	1.005957	0.340827	0.008210
1793	8.9600e-01	-8.2586	-13.217897	0.000101	1.005957	0.340827	0.008210
1794	8.9650e-01	-8.2377	-13.173424	0.000109	1.089787	0.369230	0.008895
1795	8.9700e-01	-8.1768	-13.134510	0.000095	0.953563	0.323076	0.007783
1796	8.9750e-01	-8.1254	-13.082768	0.000127	1.267925	0.429585	0.010349
1797	8.9800e-01	-8.1142	-13.053689	0.000071	0.712553	0.241419	0.005816
1798	8.9850e-01	-8.0821	-13.007506	0.000113	1.131701	0.383431	0.009237
1799	8.9900e-01	-8.0308	-12.962177	0.000111	1.110744	0.376330	0.009066
1800	8.9950e-01	-8.0003	-12.919842	0.000104	1.037393	0.351478	0.008467
1801	9.0000e-01	-7.9137	-12.890336	0.000072	0.723031	0.244970	0.005901
1802	9.0050e-01	-7.9137	-12.843725	-0.000114	-1.142180	-0.386981	0.009322
1803	9.0100e-01	-7.8720	-12.799680	0.000108	1.079308	0.365679	0.008809
1804	9.0150e-01	-7.8078	-12.759483	0.000098	0.984999	0.333727	0.008039
1805	9.0200e-01	-7.7821	-12.718431	0.000101	1.005957	0.340827	0.008210
1806	9.0250e-01	-7.7677	-12.675241	0.000106	1.058350	0.358579	0.008638
1807	9.0300e-01	-7.7019	-12.630768	0.000109	1.089787	0.369230	0.008895
1808	9.0350e-01	-7.6666	-12.590571	0.000098	0.984999	0.333727	0.008039
1809	9.0400e-01	-7.6089	-12.549091	0.000102	1.016436	0.344378	0.008296
1810	9.0450e-01	-7.5880	-12.502908	0.000113	1.131701	0.383431	0.009237
1811	9.0500e-01	-7.4966	-12.462711	0.000098	0.984999	0.333727	0.008039
1812	9.0550e-01	-7.4918	-12.416527	0.000113	1.131701	0.383431	0.009237
1813	9.0600e-01	-7.4629	-12.373337	0.000106	1.058350	0.358579	0.008638
1814	9.0650e-01	-7.4260	-12.332285	0.000101	1.005957	0.340827	0.008210
1815	9.0700e-01	-7.3747	-12.292516	0.000097	0.974521	0.330177	0.007954
1816	9.0750e-01	-7.3442	-12.246333	0.000113	1.131701	0.383431	0.009237
1817	9.0800e-01	-7.3073	-12.201432	0.000110	1.100265	0.372780	0.008980
1818	9.0850e-01	-7.2463	-12.160808	0.000100	0.995478	0.337277	0.008125
1819	9.0900e-01	-7.2399	-12.115907	0.000110	1.100265	0.372780	0.008980
1820	9.0950e-01	-7.2014	-12.075710	0.000098	0.984999	0.333727	0.008039
1821	9.1000e-01	-7.1533	-12.031665	0.000108	1.079308	0.365679	0.008809
1822	9.1050e-01	-7.1068	-11.995744	0.000088	0.880212	0.298224	0.007184
1823	9.1100e-01	-7.0442	-11.946140	0.000122	1.215531	0.411833	0.009921
1824	9.1150e-01	-7.0394	-11.899956	0.000113	1.131701	0.383431	0.009237
1825	9.1200e-01	-6.9977	-11.858049	0.000103	1.026914	0.347928	0.008381
1826	9.1250e-01	-6.9399	-11.813148	0.000110	1.100265	0.372780	0.008980
1827	9.1300e-01	-6.9062	-11.770386	0.000105	1.047872	0.355029	0.008553
1828	9.1350e-01	-6.8421	-11.728478	0.000103	1.026914	0.347928	0.008381
1829	9.1400e-01	-6.8324	-11.683578	0.000110	1.100265	0.372780	0.008980
1830	9.1450e-01	-6.7683	-11.635256	0.000118	1.184095	0.401182	0.009664
1831	9.1500e-01	-6.7634	-11.593349	0.000103	1.026914	0.347928	0.008381
1832	9.1550e-01	-6.7169	-11.544172	0.000121	1.205052	0.408283	0.009835
1833	9.1600e-01	-6.6576	-11.505686	0.000094	0.943085	0.319526	0.007697
1834	9.1650e-01	-6.6126	-11.459502	0.000113	1.131701	0.383431	0.009237
1835	9.1700e-01	-6.5822	-11.417595	0.000103	1.026914	0.347928	0.008381
1836	9.1750e-01	-6.5276	-11.370128	0.000116	1.163138	0.394082	0.009493
1837	9.1800e-01	-6.5148	-11.326938	0.000106	1.058350	0.358579	0.008638
1838	9.1850e-01	-6.4667	-11.280327	0.000114	1.142180	0.386981	0.009322
1839	9.1900e-01	-6.4346	-11.235854	0.000109	1.089787	0.369230	0.008895
1840	9.1950e-01	-6.4137	-11.189243	0.000114	1.142180	0.386981	0.009322
1841	9.2000e-01	-6.3624	-11.146480	0.000105	1.047872	0.355029	0.008553
1842	9.2050e-01	-6.2902	-11.098159	0.000118	1.184095	0.401182	0.009664
1843	9.2100e-01	-6.2854	-11.053686	0.000109	1.089787	0.369230	0.008895
1844	9.2150e-01	-6.2212	-11.013489	0.000098	0.984999	0.333727	0.008039
1845	9.2200e-01	-6.1699	-10.966023	0.000116	1.163138	0.394082	0.009493
1846	9.2250e-01	-6.1667	-10.925398	0.000100	0.995478	0.337277	0.008125
1847	9.2300e-01	-6.1282	-10.878787	0.000114	1.142180	0.386981	0.009322
1848	9.2350e-01	-6.0528	-10.836880	0.000103	1.026914	0.347928	0.008381
1849	9.2400e-01	-6.0608	-10.788130	-0.000119	-1.194574	-0.404733	0.009750
1850	9.2450e-01	-5.9870	-10.741947	0.000113	1.131701	0.383431	0.009237
1851	9.2500e-01	-5.9453	-10.697046	0.000110	1.100265	0.372780	0.008980
1852	9.2550e-01	-5.9100	-10.653428	0.000107	1.068829	0.362129	0.008724
1853	9.2600e-01	-5.8907	-10.601258	0.000128	1.278403	0.433135	0.010434
1854	9.2650e-01	-5.8362	-10.561917	0.000096	0.964042	0.326626	0.007868
1855	9.2700e-01	-5.7672	-10.514878	0.000115	1.152659	0.390531	0.009408
1856	9.2750e-01	-5.7817	-10.467411	-0.000116	-1.163138	-0.394082	0.009493
1857	9.2800e-01	-5.6966	-10.419517	0.000117	1.173616	0.397632	0.009579
1858	9.2850e-01	-5.6790	-10.375044	0.000109	1.089787	0.369230	0.008895
1859	9.2900e-01	-5.6244	-10.328433	0.000114	1.142180	0.386981	0.009322
1860	9.2950e-01	-5.6068	-10.277973	0.000124	1.236489	0.418934	0.010092
1861	9.3000e-01	-5.5619	-10.233500	0.000109	1.089787	0.369230	0.008895
1862	9.3050e-01	-5.4817	-10.190738	0.000105	1.047872	0.355029	0.008553
1863	9.3100e-01	-5.4335	-10.136430	0.000133	1.330797	0.450886	0.010862
1864	9.3150e-01	-5.4271	-10.094095	0.000104	1.037393	0.351478	0.008467
1865	9.3200e-01	-5.4271	-10.046201	-0.000117	-1.173616	-0.397632	0.009579
1866	9.3250e-01	-5.3533	-10.001300	0.000110	1.100265	0.372780	0.008980
1867	9.3300e-01	-5.2988	-9.954689	0.000114	1.142180	0.386981	0.009322
1868	9.3350e-01	-5.2795	-9.917913	0.000090	0.901170	0.305325	0.007355
1869	9.3400e-01	-5.2154	-9.865315	0.000129	1.288882	0.436685	0.010520
1870	9.3450e-01	-5.1801	-9.805448	0.000147	1.467020	0.497040	0.011974
1871	9.3500e-01	-5.1496	-9.759264	0.000113	1.131701	0.383431	0.009237
1872	9.3550e-01	-5.1207	-9.716501	0.000105	1.047872	0.355029	0.008553
1873	9.3600e-01	-5.0678	-9.669463	0.000115	1.152659	0.390531	0.009408
1874	9.3650e-01	-5.0469	-9.617292	0.000128	1.278403	0.433135	0.010434
1875	9.3700e-01	-5.0020	-9.570254	0.000115	1.152659	0.390531	0.009408
1876	9.3750e-01	-4.9651	-9.526208	0.000108	1.079308	0.365679	0.008809
1877	9.3800e-01	-4.8913	-9.476176	0.000123	1.226010	0.415383	0.010006
1878	9.3850e-01	-4.8688	-9.429993	0.000113	1.131701	0.383431	0.009237
1879	9.3900e-01	-4.8319	-9.382526	0.000116	1.163138	0.394082	0.009493
1880	9.3950e-01	-4.8111	-9.328218	0.000133	1.330797	0.450886	0.010862
1881	9.4000e-01	-4.7630	-9.281179	0.000115	1.152659	0.390531	0.009408
1882	9.4050e-01	-4.6860	-9.231147	0.000123	1.226010	0.415383	0.010006
1883	9.4100e-01	-4.6812	-9.187101	0.000108	1.079308	0.365679	0.008809
1884	9.4150e-01	-4.6218	-9.133221	0.000132	1.320318	0.447336	0.010776
1885	9.4200e-01	-4.6170	-9.081478	0.000127	1.267925	0.429585	0.010349
1886	9.4250e-01	-4.5640	-9.033156	0.000118	1.184095	0.401182	0.009664
1887	9.4300e-01	-4.5127	-8.987828	0.000111	1.110744	0.376330	0.009066
1888	9.4350e-01	-4.4742	-8.934802	0.000130	1.299361	0.440235	0.010605
1889	9.4400e-01	-4.4341	-8.884770	0.000123	1.226010	0.415383	0.010006
1890	9.4450e-01	-4.3780	-8.838587	0.000113	1.131701	0.383431	0.009237
1891	9.4500e-01	-4.3587	-8.785561	0.000130	1.299361	0.440235	0.010605
1892	9.4550e-01	-4.2929	-8.738095	0.000116	1.163138	0.394082	0.009493
1893	9.4600e-01	-4.2785	-8.685925	0.000128	1.278403	0.433135	0.010434
1894	9.4650e-01	-4.2223	-8.632044	0.000132	1.320318	0.447336	0.010776
1895	9.4700e-01	-4.1935	-8.584577	0.000116	1.163138	0.394082	0.009493
1896	9.4750e-01	-4.1373	-8.532407	0.000128	1.278403	0.433135	0.010434
1897	9.4800e-01	-4.1100	-8.480237	0.000128	1.278403	0.433135	0.010434
1898	9.4850e-01	-4.0507	-8.431915	0.000118	1.184095	0.401182	0.009664
1899	9.4900e-01	-4.0379	-8.382738	0.000121	1.205052	0.408283	0.009835
1900	9.4950e-01	-3.9929	-8.326719	0.000137	1.372712	0.465087	0.011204
1901	9.5000e-01	-3.9721	-8.272839	0.000132	1.320318	0.447336	0.010776
1902	9.5050e-01	-3.9127	-8.224517	0.000118	1.184095	0.401182	0.009664
1903	9.5100e-01	-3.8806	-8.177478	0.000115	1.152659	0.390531	0.009408
1904	9.5150e-01	-3.8518	-8.123597	0.000132	1.320318	0.447336	0.010776
1905	9.5200e-01	-3.7956	-8.069289	0.000133	1.330797	0.450886	0.010862
1906	9.5250e-01	-3.7603	-8.020967	0.000118	1.184095	0.401182	0.009664
1907	9.5300e-01	-3.7074	-7.969225	0.000127	1.267925	0.429585	0.010349
1908	9.5350e-01	-3.6785	-7.917482	0.000127	1.267925	0.429585	0.010349
1909	9.5400e-01	-3.6079	-7.862746	0.000134	1.341276	0.454437	0.010947
1910	9.5450e-01	-3.6127	-7.808010	-0.000134	-1.341276	-0.454437	0.010947
1911	9.5500e-01	-3.5550	-7.760971	0.000115	1.152659	0.390531	0.009408
1912	9.5550e-01	-3.5245	-7.711367	0.000122	1.215531	0.411833	0.009921
1913	9.5600e-01	-3.4635	-7.654065	0.000140	1.404148	0.475738	0.011460
1914	9.5650e-01	-3.4138	-7.601895	0.000128	1.278403	0.433135	0.010434
1915	9.5700e-01	-3.4042	-7.544593	0.000140	1.404148	0.475738	0.011460
1916	9.5750e-01	-3.3577	-7.492422	0.000128	1.278403	0.433135	0.010434
1917	9.5800e-01	-3.2983	-7.443673	0.000119	1.194574	0.404733	0.009750
1918	9.5850e-01	-3.2855	-7.385516	0.000143	1.425106	0.482839	0.011631
1919	9.5900e-01	-3.2069	-7.334201	0.000126	1.257446	0.426034	0.010263
1920	9.5950e-01	-3.1732	-7.281176	0.000130	1.299361	0.440235	0.010605
1921	9.6000e-01	-3.1443	-7.220880	0.000148	1.477499	0.500590	0.012059
1922	9.6050e-01	-3.0833	-7.172131	0.000119	1.194574	0.404733	0.009750
1923	9.6100e-01	-3.0946	-7.117395	-0.000134	-1.341276	-0.454437	0.010947
1924	9.6150e-01	-3.0384	-7.067363	0.000123	1.226010	0.415383	0.010006
1925	9.6200e-01	-2.9983	-7.009206	0.000143	1.425106	0.482839	0.011631
1926	9.6250e-01	-2.9630	-6.954470	0.000134	1.341276	0.454437	0.010947
1927	9.6300e-01	-2.9229	-6.898879	0.000136	1.362233	0.461537	0.011118
1928	9.6350e-01	-2.8668	-6.846281	0.000129	1.288882	0.436685	0.010520
1929	9.6400e-01	-2.8363	-6.785558	0.000149	1.487978	0.504141	0.012145
1930	9.6450e-01	-2.7785	-6.729967	0.000136	1.362233	0.461537	0.011118
1931	9.6500e-01	-2.7593	-6.679507	0.000124	1.236489	0.418934	0.010092
1932	9.6550e-01	-2.6951	-6.618784	0.000149	1.487978	0.504141	0.012145
1933	9.6600e-01	-2.6887	-6.562765	0.000137	1.372712	0.465087	0.011204
1934	9.6650e-01	-2.6358	-6.509312	0.000131	1.309840	0.443786	0.010691
1935	9.6700e-01	-2.5748	-6.452865	0.000138	1.383191	0.468638	0.011289
1936	9.6750e-01	-2.5459	-6.398557	0.000133	1.330797	0.450886	0.010862
1937	9.6800e-01	-2.5331	-6.344249	0.000133	1.330797	0.450886	0.010862
1938	9.6850e-01	-2.4529	-6.281815	0.000153	1.529893	0.518342	0.012487
1939	9.6900e-01	-2.4368	-6.230073	0.000127	1.267925	0.429585	0.010349
1940	9.6950e-01	-2.4063	-6.167212	0.000154	1.540371	0.521892	0.012572
1941	9.7000e-01	-2.3358	-6.128298	0.000095	0.953563	0.323076	0.007783
1942	9.7050e-01	-2.3005	-6.050470	0.000191	1.907126	0.646152	0.015566
1943	9.7100e-01	-2.2523	-5.994451	0.000137	1.372712	0.465087	0.011204
1944	9.7150e-01	-2.2090	-5.936722	0.000141	1.414627	0.479289	0.011546
1945	9.7200e-01	-2.2026	-5.881130	0.000136	1.362233	0.461537	0.011118
1946	9.7250e-01	-2.1513	-5.820408	0.000149	1.487978	0.504141	0.012145
1947	9.7300e-01	-2.1288	-5.766527	0.000132	1.320318	0.447336	0.010776
1948	9.7350e-01	-2.0807	-5.706232	0.000148	1.477499	0.500590	0.012059
1949	9.7400e-01	-2.0326	-5.648930	0.000140	1.404148	0.475738	0.011460
1950	9.7450e-01	-2.0197	-5.590345	0.000144	1.435584	0.486389	0.011717
1951	9.7500e-01	-1.9411	-5.529195	0.000150	1.498457	0.507691	0.012230
1952	9.7550e-01	-1.9058	-5.471893	0.000140	1.404148	0.475738	0.011460
1953	9.7600e-01	-1.8753	-5.409887	0.000152	1.519414	0.514791	0.012401
1954	9.7650e-01	-1.8288	-5.347026	0.000154	1.540371	0.521892	0.012572
1955	9.7700e-01	-1.8176	-5.289297	0.000141	1.414627	0.479289	0.011546
1956	9.7750e-01	-1.7374	-5.233278	0.000137	1.372712	0.465087	0.011204
1957	9.7800e-01	-1.6989	-5.166141	0.000165	1.645159	0.557395	0.013427
1958	9.7850e-01	-1.6700	-5.101570	0.000158	1.582286	0.536093	0.012914
1959	9.7900e-01	-1.6379	-5.042130	0.000146	1.456542	0.493490	0.011888
1960	9.7950e-01	-1.5802	-4.984400	0.000141	1.414627	0.479289	0.011546
1961	9.8000e-01	-1.5353	-4.926671	0.000141	1.414627	0.479289	0.011546
1962	9.8050e-01	-1.4935	-4.860389	0.000162	1.624201	0.550294	0.013256
1963	9.8100e-01	-1.4599	-4.791969	0.000168	1.676595	0.568046	0.013684
1964	9.8150e-01	-1.4101	-4.733384	0.000144	1.435584	0.486389	0.011717
1965	9.8200e-01	-1.3845	-4.671379	0.000152	1.519414	0.514791	0.012401
1966	9.8250e-01	-1.3604	-4.611083	0.000148	1.477499	0.500590	0.012059
1967	9.8300e-01	-1.3315	-4.547795	0.000155	1.550850	0.525442	0.012658
1968	9.8350e-01	-1.2625	-4.484079	0.000156	1.561329	0.528993	0.012743
1969	9.8400e-01	-1.2481	-4.420362	0.000156	1.561329	0.528993	0.012743
1970	9.8450e-01	-1.1855	-4.357074	0.000155	1.550850	0.525442	0.012658
1971	9.8500e-01	-1.1583	-4.295924	0.000150	1.498457	0.507691	0.012230
1972	9.8550e-01	-1.1165	-4.231780	0.000157	1.571808	0.532543	0.012829
1973	9.8600e-01	-1.0764	-4.162077	0.000171	1.708031	0.578697	0.013941
1974	9.8650e-01	-1.0331	-4.098361	0.000156	1.561329	0.528993	0.012743
1975	9.8700e-01	-0.9930	-4.035072	0.000155	1.550850	0.525442	0.012658
1976	9.8750e-01	-0.9529	-3.971356	0.000156	1.561329	0.528993	0.012743
1977	9.8800e-01	-0.9000	-3.916192	0.000135	1.351754	0.457987	0.011033
1978	9.8850e-01	-0.8406	-3.838364	0.000191	1.907126	0.646152	0.015566
1979	9.8900e-01	-0.8486	-3.777214	-0.000150	-1.498457	-0.507691	0.012230
1980	9.8950e-01	-0.7861	-3.710077	0.000165	1.645159	0.557395	0.013427
1981	9.9000e-01	-0.7797	-3.639946	0.000172	1.718510	0.582247	0.014026
1982	9.9050e-01	-0.6994	-3.574947	0.000159	1.592765	0.539643	0.013000
1983	9.9100e-01	-0.6497	-3.510804	0.000157	1.571808	0.532543	0.012829
1984	9.9150e-01	-0.6561	-3.440245	-0.000173	-1.728988	-0.585797	0.014112
1985	9.9200e-01	-0.5936	-3.377812	0.000153	1.529893	0.518342	0.012487
1986	9.9250e-01	-0.5470	-3.308964	0.000169	1.687073	0.571596	0.013770
1987	9.9300e-01	-0.5198	-3.243538	0.000160	1.603244	0.543194	0.013085
1988	9.9350e-01	-0.4797	-3.179822	0.000156	1.561329	0.528993	0.012743
1989	9.9400e-01	-0.4299	-3.111401	0.000168	1.676595	0.568046	0.013684
1990	9.9450e-01	-0.3786	-3.042126	0.000170	1.697552	0.575146	0.013855
1991	9.9500e-01	-0.3449	-2.970713	0.000175	1.749946	0.592898	0.014283
1992	9.9550e-01	-0.3128	-2.908707	0.000152	1.519414	0.514791	0.012401
1993	9.9600e-01	-0.2743	-2.836866	0.000176	1.760424	0.596448	0.014368
1994	9.9650e-01	-0.2118	-2.768874	0.000167	1.666116	0.564495	0.013598
1995	9.9700e-01	-0.1845	-2.697460	0.000175	1.749946	0.592898	0.014283
1996	9.9750e-01	-0.1684	-2.625192	0.000177	1.770903	0.599998	0.014454
1997	9.9800e-01	-0.1091	-2.562758	0.000153	1.529893	0.518342	0.012487
1998	9.9850e-01	-0.0690	-2.492200	0.000173	1.728988	0.585797	0.014112
1999	9.9900e-01	-0.0144	-2.426346	0.000161	1.613722	0.546744	0.013171
2000	9.9950e-01	0.0080	-2.351939	0.000182	1.823297	0.617750	0.014881
2001	1.0000e+00	0.0273	-2.283519	0.000182	1.823297	0.617750	0.013684

Center data before PMax,+/-Pr and +/-Vc Calc.

PMax (uC/cm2):	2.28e+01
Pr (uC/cm2):	9.47e-01
-Pr (uC/cm2):	-2.28e+00
PLoss (uC/cm2):	-1.75e+00
Vc:	6.31e-01
-Vc:	-5.89e-01
C (Max-Eff) (nF):	1.14e-01
K (Eff):	3.86e+02
Vert. (+/-Pr) Shift (uC/cm2):	-6.68e-01
Horiz. Shift (+/-Vc):	2.11e-02
Offset (uC/cm2):	5.40e-01

A (Loop Area - uC/cm2·Volts):	6.06e-02



Hysteresis Version: 5.48.1 - Radiant Technologies, Inc., 1999 - 9/12/24

