»»»»»»»»»»»»»»»»»»»»»»»»»»»»»»»»»»»» Hysteresis ««««««««««««««««««««««««««««««««««««
»»»  Executed Version:	5.48.1
»»»  Vision Version:	5.48.4 (R)
»»»  Vision Compiled:	9/18/24
»»»  Driver Version:	5.47.0
»»»  Windows Version:	Windows 8 or 8.1
»»»  Processor Information:	x86 (AMD or Intel) - 32 Processors
»»»  Tester Name:	PMF21124-494 (100V)
»»»  Tester S/N:	PMF21124-494
»»»  Internal Amp Type:	100V RevK 270k
»»»  Internal Amp S/N:	iAB2-596/K     
»»»  Execution Count:	1
»»»»»»»»»»»»»»»»»»»»»»»»»»»»»»»»»»»»»»»»»»««««««««««««««««««««««««««««««««««««««««««

Stored:	6/12/2025 - 11:43:44
Configured:	06/12/25 10:06:17 AM
Executed:	06/12/25 11:43:11 AM

»»»»»»»»»»»»»»»»»»»»»»»»»»»»»»»»»»» Sample Info ««««««««««««««««««««««««««««««««««««
Sample Name:	
Lot Name:	
Wafer Name:	
Die Row/Column:	0/0
Capacitor Number:	0
Sample Area (cm2):	1.00e-04
Sample Thickness (microns):	3.00e-01

Amplifier:	Internal

»»»»»»»»»»»»»»»»»»»»»»»»»»»»»»»»»»» Tester Info «««««««««««««««««««««««««««««««««««
Tester Name:	PMF21124-494 (100V)
Tester Serial Number:	PMF21124-494
Return Signal Amp. Level:	1.79 [Index: 2]

»»»»»»»»»»»»»»»»»»»»»»»»»»»»»»»» Hysteresis Info ««««««««««««««««««««««««««««««««««
Task Name:	Hyst-1390
Volts:	20.00
Field:	666.67 (kV/cm)
DCBias:	0.00
DCField:	0.00 (kV/cm)
Hysteresis Period (ms):	1.00e+00
Preset:	Enabled
Preset Delay (ms):	1.00e+03
Profile:	Standard Bipolar

»»»»»»»»»»»»»»»»»»»»»»»»»»»»»»»»»»»»»» Data «««««««««««««««««««««««««««««««««««««««
Points:	2001

Valid Data

Point	Time (ms)	Drive Voltage	Measured Polarization (uC/cm2)	Capacitance (uF)	Normalized Capacitance (uF/cm2)	Dielectric Constant	Instantaneous Current (mA)
   1	0.0000e+00	0.0545	-0.780844	-0.000387	-3.868142	-1.310562	0.031217
   2	5.0000e-04	0.0465	-0.624761	-0.000387	-3.868142	-1.310562	0.031217
   3	1.0000e-03	0.1075	-0.604235	0.000051	0.508687	0.172348	0.004105
   4	1.5000e-03	0.1492	-0.578149	0.000065	0.646457	0.219025	0.005217
   5	2.0000e-03	0.1925	-0.459697	0.000294	2.935549	0.994591	0.023690
   6	2.5000e-03	0.2262	-0.362199	0.000242	2.416264	0.818652	0.019500
   7	3.0000e-03	0.2807	-0.254009	0.000268	2.681205	0.908417	0.021638
   8	3.5000e-03	0.3257	-0.178320	0.000188	1.875784	0.635533	0.015138
   9	4.0000e-03	0.3658	-0.097926	0.000199	1.992358	0.675029	0.016079
  10	4.5000e-03	0.3850	0.027368	0.000311	3.105111	1.052040	0.025059
  11	5.0000e-03	0.3866	0.175754	0.000368	3.677384	1.245932	0.029677
  12	5.5000e-03	0.4732	0.163353	-0.000031	-0.307332	-0.104127	-0.002480
  13	6.0000e-03	0.5085	0.268976	0.000262	2.617619	0.886873	0.021125
  14	6.5000e-03	0.5454	0.355784	0.000215	2.151323	0.728888	0.017362
  15	7.0000e-03	0.5984	0.462691	0.000265	2.649412	0.897645	0.021381
  16	7.5000e-03	0.6176	0.555913	0.000231	2.310288	0.782747	0.018644
  17	8.0000e-03	0.6818	0.629464	0.000182	1.822796	0.617580	0.014710
  18	8.5000e-03	0.7123	0.706865	0.000192	1.918175	0.649895	0.015480
  19	9.0000e-03	0.7636	0.820613	0.000282	2.818975	0.955094	0.022750
  20	9.5000e-03	0.7989	0.880480	0.000148	1.483671	0.502681	0.011974
  21	1.0000e-02	0.8374	1.012617	0.000327	3.274674	1.109489	0.026427
  22	1.0500e-02	0.8775	1.095148	0.000205	2.045346	0.692982	0.016506
  23	1.1000e-02	0.9337	1.145608	0.000125	1.250523	0.423689	0.010092
  24	1.1500e-02	0.9449	1.312382	0.000413	4.133083	1.400327	0.033355
  25	1.2000e-02	1.0107	1.336329	0.000059	0.593468	0.201073	0.004789
  26	1.2500e-02	1.0492	1.429551	0.000231	2.310288	0.782747	0.018644
  27	1.3000e-02	1.0877	1.536458	0.000265	2.649412	0.897645	0.021381
  28	1.3500e-02	1.1214	1.616424	0.000198	1.981760	0.671439	0.015993
  29	1.4000e-02	1.1615	1.680995	0.000160	1.600245	0.542178	0.012914
  30	1.4500e-02	1.2176	1.722902	0.000104	1.038570	0.351877	0.008381
  31	1.5000e-02	1.2497	1.864019	0.000350	3.497224	1.184892	0.028223
  32	1.5500e-02	1.2689	2.003424	0.000345	3.454834	1.170529	0.027881
  33	1.6000e-02	1.3107	2.066713	0.000157	1.568452	0.531406	0.012658
  34	1.6500e-02	1.3668	2.131284	0.000160	1.600245	0.542178	0.012914
  35	1.7000e-02	1.3957	2.240756	0.000271	2.712998	0.919189	0.021894
  36	1.7500e-02	1.4534	2.290361	0.000123	1.229327	0.416507	0.009921
  37	1.8000e-02	1.4775	2.394702	0.000259	2.585826	0.876102	0.020868
  38	1.8500e-02	1.5048	2.494338	0.000247	2.469252	0.836605	0.019927
  39	1.9000e-02	1.5738	2.611508	0.000290	2.903756	0.983819	0.023434
  40	1.9500e-02	1.6026	2.655981	0.000110	1.102156	0.373420	0.008895
  41	2.0000e-02	1.6604	2.694039	0.000094	0.943191	0.319562	0.007612
  42	2.0500e-02	1.6556	2.894595	-0.000497	-4.970298	-1.683982	0.040111
  43	2.1000e-02	1.7197	2.921536	0.000067	0.667652	0.226207	0.005388
  44	2.1500e-02	1.7663	2.981403	0.000148	1.483671	0.502681	0.011974
  45	2.2000e-02	1.7951	3.079757	0.000244	2.437459	0.825834	0.019671
  46	2.2500e-02	1.8433	3.177683	0.000243	2.426862	0.822243	0.019585
  47	2.3000e-02	1.8850	3.243110	0.000162	1.621440	0.549359	0.013085
  48	2.3500e-02	1.9299	3.369687	0.000314	3.136904	1.062812	0.025315
  49	2.4000e-02	1.9540	3.432976	0.000157	1.568452	0.531406	0.012658
  50	2.4500e-02	1.9973	3.546724	0.000282	2.818975	0.955094	0.022750
  51	2.5000e-02	2.0374	3.632249	0.000212	2.119530	0.718116	0.017105
  52	2.5500e-02	2.0759	3.675439	0.000107	1.070363	0.362649	0.008638
  53	2.6000e-02	2.1064	3.776359	0.000250	2.501045	0.847377	0.020184
  54	2.6500e-02	2.1721	3.855897	0.000197	1.971163	0.667848	0.015908
  55	2.7000e-02	2.1962	3.928593	0.000180	1.801600	0.610399	0.014539
  56	2.7500e-02	2.2427	3.955106	0.000066	0.657054	0.222616	0.005303
  57	2.8000e-02	2.2732	4.120597	0.000410	4.101290	1.389555	0.033098
  58	2.8500e-02	2.3037	4.220661	0.000248	2.479850	0.840196	0.020013
  59	2.9000e-02	2.3711	4.233490	0.000032	0.317929	0.107717	0.002566
  60	2.9500e-02	2.4256	4.311318	0.000193	1.928772	0.653486	0.015566
  61	3.0000e-02	2.4513	4.379310	0.000169	1.685026	0.570902	0.013598
  62	3.0500e-02	2.4817	4.561479	0.000451	4.514599	1.529587	0.036434
  63	3.1000e-02	2.5154	4.601248	0.000099	0.985581	0.333924	0.007954
  64	3.1500e-02	2.5555	4.727397	0.000313	3.126307	1.059221	0.025230
  65	3.2000e-02	2.6165	4.714996	-0.000031	-0.307332	-0.104127	-0.002480
  66	3.2500e-02	2.6374	4.839863	0.000309	3.094514	1.048450	0.024973
  67	3.3000e-02	2.6727	4.926671	0.000215	2.151323	0.728888	0.017362
  68	3.3500e-02	2.7031	5.018610	0.000228	2.278495	0.771975	0.018388
  69	3.4000e-02	2.7545	5.110550	0.000228	2.278495	0.771975	0.018388
  70	3.4500e-02	2.8010	5.174266	0.000158	1.579050	0.534997	0.012743
  71	3.5000e-02	2.8218	5.276468	0.000253	2.532838	0.858149	0.020440
  72	3.5500e-02	2.8972	5.335908	0.000147	1.473073	0.499091	0.011888
  73	3.6000e-02	2.9374	5.332915	-0.000007	-0.074184	-0.025134	-0.000599
  74	3.6500e-02	2.9614	5.488998	0.000387	3.868142	1.310562	0.031217
  75	3.7000e-02	3.0079	5.530050	0.000102	1.017374	0.344696	0.008210
  76	3.7500e-02	3.0593	5.687844	0.000391	3.910533	1.324924	0.031559
  77	3.8000e-02	3.0898	5.730179	0.000105	1.049167	0.355467	0.008467
  78	3.8500e-02	3.1299	5.841361	0.000276	2.755389	0.933551	0.022237
  79	3.9000e-02	3.1732	5.819552	-0.000054	-0.540480	-0.183120	-0.004362
  80	3.9500e-02	3.2149	5.950406	0.000324	3.242881	1.098718	0.026171
  81	4.0000e-02	3.2309	6.062444	0.000278	2.776584	0.940732	0.022408
  82	4.0500e-02	3.2758	6.165501	0.000255	2.554033	0.865330	0.020612
  83	4.1000e-02	3.3192	6.174909	0.000023	0.233148	0.078993	0.001882
  84	4.1500e-02	3.3769	6.241619	0.000165	1.653233	0.560131	0.013342
  85	4.2000e-02	3.3978	6.329282	0.000217	2.172518	0.736069	0.017533
  86	4.2500e-02	3.4298	6.445596	0.000288	2.882561	0.976638	0.023263
  87	4.3000e-02	3.4988	6.499477	0.000134	1.335304	0.452413	0.010776
  88	4.3500e-02	3.5149	6.550364	0.000126	1.261120	0.427279	0.010177
  89	4.4000e-02	3.5726	6.620495	0.000174	1.738014	0.588855	0.014026
  90	4.4500e-02	3.5935	6.783420	0.000404	4.037704	1.368011	0.032585
  91	4.5000e-02	3.6464	6.807794	0.000060	0.604066	0.204663	0.004875
  92	4.5500e-02	3.6913	6.899734	0.000228	2.278495	0.771975	0.018388
  93	4.6000e-02	3.7266	6.990390	0.000225	2.246702	0.761203	0.018131
  94	4.6500e-02	3.7555	7.031870	0.000103	1.027972	0.348286	0.008296
  95	4.7000e-02	3.7796	7.134072	0.000253	2.532838	0.858149	0.020440
  96	4.7500e-02	3.8550	7.190519	0.000140	1.398890	0.473957	0.011289
  97	4.8000e-02	3.8806	7.255090	0.000160	1.600245	0.542178	0.012914
  98	4.8500e-02	3.9159	7.345747	0.000225	2.246702	0.761203	0.018131
  99	4.9000e-02	3.9528	7.459923	0.000283	2.829572	0.958685	0.022835
 100	4.9500e-02	3.9897	7.450515	-0.000023	-0.233148	-0.078993	-0.001882
 101	5.0000e-02	4.0138	7.598901	0.000368	3.677384	1.245932	0.029677
 102	5.0500e-02	4.0748	7.666038	0.000166	1.663831	0.563721	0.013427
 103	5.1000e-02	4.1309	7.731893	0.000163	1.632038	0.552949	0.013171
 104	5.1500e-02	4.1742	7.801168	0.000172	1.716819	0.581674	0.013855
 105	5.2000e-02	4.1951	7.901660	0.000249	2.490448	0.843786	0.020098
 106	5.2500e-02	4.2191	7.950837	0.000122	1.218730	0.412917	0.009835
 107	5.3000e-02	4.2785	8.024388	0.000182	1.822796	0.617580	0.014710
 108	5.3500e-02	4.3170	8.104354	0.000198	1.981760	0.671439	0.015993
 109	5.4000e-02	4.3619	8.183037	0.000195	1.949967	0.660667	0.015737
 110	5.4500e-02	4.4357	8.199715	0.000041	0.413308	0.140033	0.003335
 111	5.5000e-02	4.4245	8.355370	-0.000386	-3.857544	-1.306971	0.031131
 112	5.5500e-02	4.4854	8.404547	0.000122	1.218730	0.412917	0.009835
 113	5.6000e-02	4.4967	8.518723	0.000283	2.829572	0.958685	0.022835
 114	5.6500e-02	4.5769	8.551223	0.000081	0.805421	0.272884	0.006500
 115	5.7000e-02	4.6041	8.587571	0.000090	0.900800	0.305199	0.007270
 116	5.7500e-02	4.6410	8.708589	0.000300	2.999135	1.016134	0.024204
 117	5.8000e-02	4.6459	8.789410	0.000200	2.002956	0.678620	0.016164
 118	5.8500e-02	4.6892	8.869376	0.000198	1.981760	0.671439	0.015993
 119	5.9000e-02	4.7774	8.915987	0.000116	1.155144	0.391373	0.009322
 120	5.9500e-02	4.7934	9.023749	0.000267	2.670608	0.904826	0.021552
 121	6.0000e-02	4.8303	9.072925	0.000122	1.218730	0.412917	0.009835
 122	6.0500e-02	4.9138	9.087037	0.000035	0.349722	0.118489	0.002822
 123	6.1000e-02	4.9266	9.158451	0.000177	1.769807	0.599627	0.014283
 124	6.1500e-02	4.9571	9.277758	0.000296	2.956744	1.001772	0.023861
 125	6.2000e-02	4.9908	9.413315	0.000336	3.359455	1.138214	0.027111
 126	6.2500e-02	5.0630	9.395783	-0.000043	-0.434504	-0.147214	-0.003507
 127	6.3000e-02	5.0630	9.511669	-0.000287	-2.871963	-0.973047	0.023177
 128	6.3500e-02	5.0854	9.580089	0.000170	1.695624	0.574493	0.013684
 129	6.4000e-02	5.1785	9.650220	0.000174	1.738014	0.588855	0.014026
 130	6.4500e-02	5.1929	9.734889	0.000210	2.098335	0.710935	0.016934
 131	6.5000e-02	5.2571	9.767389	0.000081	0.805421	0.272884	0.006500
 132	6.5500e-02	5.2619	9.906795	0.000345	3.454834	1.170529	0.027881
 133	6.6000e-02	5.3373	9.920479	0.000034	0.339125	0.114899	0.002737
 134	6.6500e-02	5.3533	9.997879	0.000192	1.918175	0.649895	0.015480
 135	6.7000e-02	5.3934	10.077417	0.000197	1.971163	0.667848	0.015908
 136	6.7500e-02	5.4448	10.161232	0.000208	2.077139	0.703754	0.016763
 137	6.8000e-02	5.4817	10.206988	0.000113	1.133948	0.384192	0.009151
 138	6.8500e-02	5.5298	10.251888	0.000111	1.112753	0.377011	0.008980
 139	6.9000e-02	5.5827	10.359650	0.000267	2.670608	0.904826	0.021552
 140	6.9500e-02	5.5891	10.408827	0.000122	1.218730	0.412917	0.009835
 141	7.0000e-02	5.6244	10.507608	0.000245	2.448057	0.829424	0.019756
 142	7.0500e-02	5.6982	10.611949	0.000259	2.585826	0.876102	0.020868
 143	7.1000e-02	5.7063	10.650863	0.000096	0.964386	0.326743	0.007783
 144	7.1500e-02	5.7480	10.738954	0.000218	2.183116	0.739660	0.017618
 145	7.2000e-02	5.8057	10.741947	0.000007	0.074184	0.025134	0.000599
 146	7.2500e-02	5.8442	10.839445	0.000242	2.416264	0.818652	0.019500
 147	7.3000e-02	5.8747	10.892471	0.000131	1.314109	0.445232	0.010605
 148	7.3500e-02	5.9325	10.984838	0.000229	2.289092	0.775565	0.018473
 149	7.4000e-02	5.9629	11.019476	0.000086	0.858410	0.290837	0.006928
 150	7.4500e-02	6.0062	11.116119	0.000240	2.395069	0.811471	0.019329
 151	7.5000e-02	6.0175	11.239275	0.000305	3.052123	1.034087	0.024631
 152	7.5500e-02	6.0865	11.258091	0.000047	0.466297	0.157986	0.003763
 153	7.6000e-02	6.1025	11.392365	0.000333	3.327662	1.127442	0.026855
 154	7.6500e-02	6.1651	11.416312	0.000059	0.593468	0.201073	0.004789
 155	7.7000e-02	6.1972	11.488153	0.000178	1.780405	0.603218	0.014368
 156	7.7500e-02	6.2421	11.532198	0.000109	1.091558	0.369830	0.008809
 157	7.8000e-02	6.2902	11.636111	0.000258	2.575229	0.872511	0.020783
 158	7.8500e-02	6.3335	11.630980	-0.000013	-0.127172	-0.043087	-0.001026
 159	7.9000e-02	6.3624	11.745156	0.000283	2.829572	0.958685	0.022835
 160	7.9500e-02	6.4121	11.816142	0.000176	1.759210	0.596036	0.014197
 161	8.0000e-02	6.4153	11.875582	0.000147	1.473073	0.499091	0.011888
 162	8.0500e-02	6.4843	11.960679	0.000211	2.108932	0.714526	0.017019
 163	8.1000e-02	6.4763	12.130446	-0.000421	-4.207267	-1.425461	0.033953
 164	8.1500e-02	6.5806	12.091105	-0.000097	-0.974984	-0.330333	-0.007868
 165	8.2000e-02	6.5998	12.209984	0.000295	2.946147	0.998181	0.023776
 166	8.2500e-02	6.6528	12.188603	-0.000053	-0.529882	-0.179529	-0.004276
 167	8.3000e-02	6.6736	12.279687	0.000226	2.257299	0.764794	0.018217
 168	8.3500e-02	6.7041	12.368633	0.000220	2.204311	0.746841	0.017789
 169	8.4000e-02	6.7538	12.480244	0.000277	2.765986	0.937142	0.022322
 170	8.4500e-02	6.8036	12.482382	0.000005	0.052988	0.017953	0.000428
 171	8.5000e-02	6.8308	12.538828	0.000140	1.398890	0.473957	0.011289
 172	8.5500e-02	6.9046	12.615801	0.000191	1.907577	0.646305	0.015395
 173	8.6000e-02	6.9303	12.703892	0.000218	2.183116	0.739660	0.017618
 174	8.6500e-02	6.9527	12.767608	0.000158	1.579050	0.534997	0.012743
 175	8.7000e-02	7.0025	12.794548	0.000067	0.667652	0.226207	0.005388
 176	8.7500e-02	7.0442	12.897606	0.000255	2.554033	0.865330	0.020612
 177	8.8000e-02	7.0474	12.969019	0.000177	1.769807	0.599627	0.014283
 178	8.8500e-02	7.1148	13.020334	0.000127	1.271718	0.430870	0.010263
 179	8.9000e-02	7.1549	13.141352	0.000300	2.999135	1.016134	0.024204
 180	8.9500e-02	7.2142	13.149477	0.000020	0.201355	0.068221	0.001625
 181	9.0000e-02	7.2431	13.232864	0.000207	2.066542	0.700163	0.016677
 182	9.0500e-02	7.2880	13.277765	0.000111	1.112753	0.377011	0.008980
 183	9.1000e-02	7.3362	13.373125	0.000236	2.363276	0.800700	0.019072
 184	9.1500e-02	7.3602	13.438552	0.000162	1.621440	0.549359	0.013085
 185	9.2000e-02	7.4180	13.548879	0.000273	2.734194	0.926370	0.022065
 186	9.2500e-02	7.4420	13.563418	0.000036	0.360320	0.122080	0.002908
 187	9.3000e-02	7.4757	13.609602	0.000114	1.144546	0.387783	0.009237
 188	9.3500e-02	7.5511	13.677594	0.000169	1.685026	0.570902	0.013598
 189	9.4000e-02	7.5591	13.760554	0.000206	2.055944	0.696573	0.016592
 190	9.4500e-02	7.6025	13.816573	0.000139	1.388292	0.470366	0.011204
 191	9.5000e-02	7.6265	13.872164	0.000138	1.377694	0.466776	0.011118
 192	9.5500e-02	7.6827	13.934170	0.000154	1.536659	0.520634	0.012401
 193	9.6000e-02	7.7244	14.079562	0.000360	3.603201	1.220797	0.029079
 194	9.6500e-02	7.7661	14.055615	-0.000059	-0.593468	-0.201073	-0.004789
 195	9.7000e-02	7.8190	14.110351	0.000136	1.356499	0.459594	0.010947
 196	9.7500e-02	7.8415	14.211698	0.000251	2.511643	0.850968	0.020269
 197	9.8000e-02	7.8768	14.294230	0.000205	2.045346	0.692982	0.016506
 198	9.8500e-02	7.9105	14.371203	0.000191	1.907577	0.646305	0.015395
 199	9.9000e-02	7.9522	14.421662	0.000125	1.250523	0.423689	0.010092
 200	9.9500e-02	8.0067	14.487089	0.000162	1.621440	0.549359	0.013085
 201	1.0000e-01	8.0340	14.623929	0.000339	3.391248	1.148986	0.027368
 202	1.0050e-01	8.1046	14.560213	-0.000158	-1.579050	-0.534997	-0.012743
 203	1.0100e-01	8.1158	14.712875	0.000378	3.783361	1.281837	0.030532
 204	1.0150e-01	8.1736	14.739816	0.000067	0.667652	0.226207	0.005388
 205	1.0200e-01	8.1976	14.812940	0.000181	1.812198	0.613989	0.014625
 206	1.0250e-01	8.2666	14.892905	0.000198	1.981760	0.671439	0.015993
 207	1.0300e-01	8.2794	14.915142	0.000055	0.551078	0.186710	0.004447
 208	1.0350e-01	8.3500	15.042574	0.000316	3.158099	1.069993	0.025486
 209	1.0400e-01	8.3452	15.096027	-0.000132	-1.324706	-0.448823	0.010691
 210	1.0450e-01	8.4014	15.178987	0.000206	2.055944	0.696573	0.016592
 211	1.0500e-01	8.4591	15.173428	-0.000014	-0.137769	-0.046678	-0.001112
 212	1.0550e-01	8.4703	15.268788	0.000236	2.363276	0.800700	0.019072
 213	1.0600e-01	8.5137	15.314544	0.000113	1.133948	0.384192	0.009151
 214	1.0650e-01	8.5538	15.398359	0.000208	2.077139	0.703754	0.016763
 215	1.0700e-01	8.5810	15.498423	0.000248	2.479850	0.840196	0.020013
 216	1.0750e-01	8.6356	15.512534	0.000035	0.349722	0.118489	0.002822
 217	1.0800e-01	8.6773	15.598487	0.000213	2.130128	0.721707	0.017191
 218	1.0850e-01	8.7238	15.679736	0.000201	2.013553	0.682210	0.016250
 219	1.0900e-01	8.7752	15.683585	0.000010	0.095379	0.032315	0.000770
 220	1.0950e-01	8.7992	15.788780	0.000261	2.607022	0.883283	0.021039
 221	1.1000e-01	8.8345	15.854635	0.000163	1.632038	0.552949	0.013171
 222	1.1050e-01	8.9051	15.859339	0.000012	0.116574	0.039496	0.000941
 223	1.1100e-01	8.9115	15.988909	0.000321	3.211088	1.087946	0.025914
 224	1.1150e-01	8.9677	16.035093	0.000114	1.144546	0.387783	0.009237
 225	1.1200e-01	9.0046	16.059467	0.000060	0.604066	0.204663	0.004875
 226	1.1250e-01	9.0415	16.140716	0.000201	2.013553	0.682210	0.016250
 227	1.1300e-01	9.0655	16.206570	0.000163	1.632038	0.552949	0.013171
 228	1.1350e-01	9.1056	16.266865	0.000149	1.494269	0.506272	0.012059
 229	1.1400e-01	9.1618	16.380614	0.000282	2.818975	0.955094	0.022750
 230	1.1450e-01	9.2115	16.388739	0.000020	0.201355	0.068221	0.001625
 231	1.1500e-01	9.2324	16.464856	0.000189	1.886382	0.639123	0.015223
 232	1.1550e-01	9.2644	16.503770	0.000096	0.964386	0.326743	0.007783
 233	1.1600e-01	9.3142	16.634623	0.000324	3.242881	1.098718	0.026171
 234	1.1650e-01	9.3591	16.655149	0.000051	0.508687	0.172348	0.004105
 235	1.1700e-01	9.4056	16.717155	0.000154	1.536659	0.520634	0.012401
 236	1.1750e-01	9.4521	16.735115	0.000045	0.445101	0.150804	0.003592
 237	1.1800e-01	9.4842	16.877514	0.000353	3.529017	1.195663	0.028480
 238	1.1850e-01	9.5051	16.907448	0.000074	0.741835	0.251341	0.005987
 239	1.1900e-01	9.5789	16.992973	0.000212	2.119530	0.718116	0.017105
 240	1.1950e-01	9.6286	16.990407	-0.000006	-0.063586	-0.021543	-0.000513
 241	1.2000e-01	9.6398	17.135372	0.000359	3.592603	1.217207	0.028993
 242	1.2050e-01	9.7008	17.145208	0.000024	0.243746	0.082583	0.001967
 243	1.2100e-01	9.7217	17.146918	0.000004	0.042391	0.014362	0.000342
 244	1.2150e-01	9.7826	17.297442	0.000373	3.730373	1.263884	0.030105
 245	1.2200e-01	9.8067	17.325238	0.000069	0.688847	0.233388	0.005559
 246	1.2250e-01	9.8580	17.430006	0.000260	2.596424	0.879692	0.020954
 247	1.2300e-01	9.8708	17.449249	0.000048	0.476894	0.161576	0.003849
 248	1.2350e-01	9.9462	17.488163	0.000096	0.964386	0.326743	0.007783
 249	1.2400e-01	9.9462	17.596352	-0.000268	-2.681205	-0.908417	0.021638
 250	1.2450e-01	10.0345	17.649378	0.000131	1.314109	0.445232	0.010605
 251	1.2500e-01	10.0569	17.681450	0.000079	0.794824	0.269294	0.006414
 252	1.2550e-01	10.0794	17.721219	0.000099	0.985581	0.333924	0.007954
 253	1.2600e-01	10.1243	17.824277	0.000255	2.554033	0.865330	0.020612
 254	1.2650e-01	10.1708	17.873026	0.000121	1.208132	0.409326	0.009750
 255	1.2700e-01	10.2013	17.890986	0.000045	0.445101	0.150804	0.003592
 256	1.2750e-01	10.2671	17.998748	0.000267	2.670608	0.904826	0.021552
 257	1.2800e-01	10.2863	18.000458	0.000004	0.042391	0.014362	0.000342
 258	1.2850e-01	10.3345	18.060326	0.000148	1.483671	0.502681	0.011974
 259	1.2900e-01	10.3601	18.147134	0.000215	2.151323	0.728888	0.017362
 260	1.2950e-01	10.4067	18.229665	0.000205	2.045346	0.692982	0.016506
 261	1.3000e-01	10.4371	18.290388	0.000150	1.504866	0.509862	0.012145
 262	1.3050e-01	10.4853	18.350683	0.000149	1.494269	0.506272	0.012059
 263	1.3100e-01	10.5222	18.452458	0.000252	2.522241	0.854558	0.020355
 264	1.3150e-01	10.5575	18.481964	0.000073	0.731238	0.247750	0.005901
 265	1.3200e-01	10.6216	18.516174	0.000085	0.847812	0.287246	0.006842
 266	1.3250e-01	10.6489	18.582456	0.000164	1.642636	0.556540	0.013256
 267	1.3300e-01	10.6986	18.652587	0.000174	1.738014	0.588855	0.014026
 268	1.3350e-01	10.7355	18.672258	0.000049	0.487492	0.165167	0.003934
 269	1.3400e-01	10.7596	18.785151	0.000280	2.797779	0.947913	0.022579
 270	1.3450e-01	10.8061	18.865117	0.000198	1.981760	0.671439	0.015993
 271	1.3500e-01	10.8526	18.869393	0.000011	0.105976	0.035906	0.000855
 272	1.3550e-01	10.8719	18.911300	0.000104	1.038570	0.351877	0.008381
 273	1.3600e-01	10.9328	18.997253	0.000213	2.130128	0.721707	0.017191
 274	1.3650e-01	10.9585	19.067811	0.000175	1.748612	0.592446	0.014112
 275	1.3700e-01	11.0066	19.114422	0.000116	1.155144	0.391373	0.009322
 276	1.3750e-01	11.0195	19.233302	0.000295	2.946147	0.998181	0.023776
 277	1.3800e-01	11.0949	19.265374	0.000079	0.794824	0.269294	0.006414
 278	1.3850e-01	11.1286	19.294880	0.000073	0.731238	0.247750	0.005901
 279	1.3900e-01	11.1478	19.377412	0.000205	2.045346	0.692982	0.016506
 280	1.3950e-01	11.1943	19.505699	0.000318	3.179295	1.077174	0.025658
 281	1.4000e-01	11.2409	19.498857	-0.000017	-0.169562	-0.057449	-0.001368
 282	1.4050e-01	11.2713	19.547607	0.000121	1.208132	0.409326	0.009750
 283	1.4100e-01	11.3179	19.678888	0.000325	3.253478	1.102308	0.026256
 284	1.4150e-01	11.3596	19.697275	0.000046	0.455699	0.154395	0.003678
 285	1.4200e-01	11.4029	19.756715	0.000147	1.473073	0.499091	0.011888
 286	1.4250e-01	11.4606	19.780662	0.000059	0.593468	0.201073	0.004789
 287	1.4300e-01	11.4719	19.837536	0.000141	1.409487	0.477547	0.011375
 288	1.4350e-01	11.5088	19.902108	0.000160	1.600245	0.542178	0.012914
 289	1.4400e-01	11.5761	19.930759	0.000071	0.710043	0.240569	0.005730
 290	1.4450e-01	11.5986	20.027830	0.000241	2.405666	0.815062	0.019414
 291	1.4500e-01	11.6564	20.066316	0.000095	0.953788	0.323152	0.007697
 292	1.4550e-01	11.6949	20.137729	0.000177	1.769807	0.599627	0.014283
 293	1.4600e-01	11.7045	20.248912	0.000276	2.755389	0.933551	0.022237
 294	1.4650e-01	11.7510	20.234373	-0.000036	-0.360320	-0.122080	-0.002908
 295	1.4700e-01	11.8039	20.312628	0.000194	1.939370	0.657076	0.015651
 296	1.4750e-01	11.8697	20.353253	0.000101	1.006777	0.341105	0.008125
 297	1.4800e-01	11.8761	20.429797	0.000190	1.896979	0.642714	0.015309
 298	1.4850e-01	11.8922	20.469567	0.000099	0.985581	0.333924	0.007954
 299	1.4900e-01	11.9788	20.555519	0.000213	2.130128	0.721707	0.017191
 300	1.4950e-01	11.9916	20.561078	0.000014	0.137769	0.046678	0.001112
 301	1.5000e-01	12.0462	20.692787	0.000326	3.264076	1.105899	0.026342
 302	1.5050e-01	12.0751	20.727852	0.000087	0.869007	0.294428	0.007013
 303	1.5100e-01	12.1232	20.771898	0.000109	1.091558	0.369830	0.008809
 304	1.5150e-01	12.1681	20.801404	0.000073	0.731238	0.247750	0.005901
 305	1.5200e-01	12.1954	20.895909	0.000234	2.342080	0.793518	0.018901
 306	1.5250e-01	12.2628	20.957915	0.000154	1.536659	0.520634	0.012401
 307	1.5300e-01	12.2612	20.965612	-0.000019	-0.190758	-0.064630	0.001539
 308	1.5350e-01	12.3430	21.034032	0.000170	1.695624	0.574493	0.013684
 309	1.5400e-01	12.3526	21.101597	0.000167	1.674429	0.567312	0.013513
 310	1.5450e-01	12.4136	21.208075	0.000264	2.638815	0.894055	0.021296
 311	1.5500e-01	12.4537	21.236726	0.000071	0.710043	0.240569	0.005730
 312	1.5550e-01	12.4906	21.229457	-0.000018	-0.180160	-0.061040	-0.001454
 313	1.5600e-01	12.5146	21.365014	0.000336	3.359455	1.138214	0.027111
 314	1.5650e-01	12.5692	21.390671	0.000064	0.635859	0.215435	0.005132
 315	1.5700e-01	12.5948	21.486032	0.000236	2.363276	0.800700	0.019072
 316	1.5750e-01	12.6414	21.551459	0.000162	1.621440	0.549359	0.013085
 317	1.5800e-01	12.6718	21.554024	0.000006	0.063586	0.021543	0.000513
 318	1.5850e-01	12.7071	21.645964	0.000228	2.278495	0.771975	0.018388
 319	1.5900e-01	12.7681	21.610043	-0.000089	-0.890203	-0.301609	-0.007184
 320	1.5950e-01	12.8002	21.734482	0.000308	3.083916	1.044859	0.024888
 321	1.6000e-01	12.8467	21.809317	0.000185	1.854589	0.628352	0.014967
 322	1.6050e-01	12.8804	21.842671	0.000083	0.826617	0.280065	0.006671
 323	1.6100e-01	12.9221	21.912374	0.000173	1.727417	0.585265	0.013941
 324	1.6150e-01	12.9381	22.061188	0.000369	3.687982	1.249522	0.029763
 325	1.6200e-01	12.9879	21.975663	-0.000212	-2.119530	-0.718116	-0.017105
 326	1.6250e-01	13.0344	22.038096	0.000155	1.547257	0.524225	0.012487
 327	1.6300e-01	13.0841	22.107799	0.000173	1.727417	0.585265	0.013941
 328	1.6350e-01	13.1178	22.152700	0.000111	1.112753	0.377011	0.008980
 329	1.6400e-01	13.1708	22.248060	0.000236	2.363276	0.800700	0.019072
 330	1.6450e-01	13.2012	22.317763	0.000173	1.727417	0.585265	0.013941
 331	1.6500e-01	13.2702	22.291250	-0.000066	-0.657054	-0.222616	-0.005303
 332	1.6550e-01	13.2814	22.379769	0.000219	2.193713	0.743250	0.017704
 333	1.6600e-01	13.3087	22.469142	0.000221	2.214909	0.750431	0.017875
 334	1.6650e-01	13.3536	22.519175	0.000124	1.239925	0.420098	0.010006
 335	1.6700e-01	13.3953	22.625226	0.000263	2.628217	0.890464	0.021210
 336	1.6750e-01	13.4146	22.626081	0.000002	0.021195	0.007181	0.000171
 337	1.6800e-01	13.4852	22.738974	0.000280	2.797779	0.947913	0.022579
 338	1.6850e-01	13.4916	22.733415	-0.000014	-0.137769	-0.046678	-0.001112
 339	1.6900e-01	13.5686	22.773612	0.000100	0.996179	0.337515	0.008039
 340	1.6950e-01	13.5879	22.872821	0.000246	2.458655	0.833015	0.019842
 341	1.7000e-01	13.6392	22.892919	0.000050	0.498090	0.168757	0.004020
 342	1.7050e-01	13.6777	22.921570	0.000071	0.710043	0.240569	0.005730
 343	1.7100e-01	13.7130	22.988707	0.000166	1.663831	0.563721	0.013427
 344	1.7150e-01	13.7515	23.075087	0.000214	2.140725	0.725297	0.017276
 345	1.7200e-01	13.8157	23.094331	0.000048	0.476894	0.161576	0.003849
 346	1.7250e-01	13.8574	23.143935	0.000123	1.229327	0.416507	0.009921
 347	1.7300e-01	13.8798	23.229033	0.000211	2.108932	0.714526	0.017019
 348	1.7350e-01	13.9167	23.281630	0.000130	1.303511	0.441641	0.010520
 349	1.7400e-01	13.9472	23.323538	0.000104	1.038570	0.351877	0.008381
 350	1.7450e-01	13.9921	23.356465	0.000082	0.816019	0.276475	0.006585
 351	1.7500e-01	14.0242	23.475345	0.000295	2.946147	0.998181	0.023776
 352	1.7550e-01	14.0723	23.568139	0.000230	2.299690	0.779156	0.018559
 353	1.7600e-01	14.0996	23.584389	0.000040	0.402711	0.136442	0.003250
 354	1.7650e-01	14.1734	23.579685	-0.000012	-0.116574	-0.039496	-0.000941
 355	1.7700e-01	14.2039	23.654092	0.000184	1.843991	0.624761	0.014881
 356	1.7750e-01	14.2440	23.708828	0.000136	1.356499	0.459594	0.010947
 357	1.7800e-01	14.2713	23.737051	0.000070	0.699445	0.236978	0.005645
 358	1.7850e-01	14.3274	23.808465	0.000177	1.769807	0.599627	0.014283
 359	1.7900e-01	14.3723	23.846096	0.000093	0.932593	0.315971	0.007526
 360	1.7950e-01	14.3852	23.932476	0.000214	2.140725	0.725297	0.017276
 361	1.8000e-01	14.4317	23.982508	0.000124	1.239925	0.420098	0.010006
 362	1.8050e-01	14.4670	24.094546	0.000278	2.776584	0.940732	0.022408
 363	1.8100e-01	14.5456	24.051356	-0.000107	-1.070363	-0.362649	-0.008638
 364	1.8150e-01	14.5552	24.106092	0.000136	1.356499	0.459594	0.010947
 365	1.8200e-01	14.5857	24.194183	0.000218	2.183116	0.739660	0.017618
 366	1.8250e-01	14.6531	24.310924	0.000289	2.893158	0.980229	0.023348
 367	1.8300e-01	14.6932	24.294247	-0.000041	-0.413308	-0.140033	-0.003335
 368	1.8350e-01	14.7124	24.340003	0.000113	1.133948	0.384192	0.009151
 369	1.8400e-01	14.7445	24.428521	0.000219	2.193713	0.743250	0.017704
 370	1.8450e-01	14.7862	24.451186	0.000056	0.561675	0.190301	0.004533
 371	1.8500e-01	14.8536	24.474705	0.000058	0.582871	0.197482	0.004704
 372	1.8550e-01	14.9017	24.526448	0.000128	1.282316	0.434460	0.010349
 373	1.8600e-01	14.9418	24.565362	0.000096	0.964386	0.326743	0.007783
 374	1.8650e-01	14.9691	24.631643	0.000164	1.642636	0.556540	0.013256
 375	1.8700e-01	15.0060	24.665426	0.000084	0.837214	0.283656	0.006756
 376	1.8750e-01	15.0156	24.796707	0.000325	3.253478	1.102308	0.026256
 377	1.8800e-01	15.0926	24.827068	0.000075	0.752433	0.254931	0.006072
 378	1.8850e-01	15.1295	24.826641	-0.000001	-0.010598	-0.003591	-0.000086
 379	1.8900e-01	15.1552	24.947231	0.000299	2.988537	1.012544	0.024118
 380	1.8950e-01	15.1985	24.948086	0.000002	0.021195	0.007181	0.000171
 381	1.9000e-01	15.2290	25.033184	0.000211	2.108932	0.714526	0.017019
 382	1.9050e-01	15.2915	25.067821	0.000086	0.858410	0.290837	0.006928
 383	1.9100e-01	15.3204	25.195254	0.000316	3.158099	1.069993	0.025486
 384	1.9150e-01	15.3621	25.187556	-0.000019	-0.190758	-0.064630	-0.001539
 385	1.9200e-01	15.3718	25.251272	0.000158	1.579050	0.534997	0.012743
 386	1.9250e-01	15.4343	25.248279	-0.000007	-0.074184	-0.025134	-0.000599
 387	1.9300e-01	15.4889	25.350482	0.000253	2.532838	0.858149	0.020440
 388	1.9350e-01	15.5274	25.443276	0.000230	2.299690	0.779156	0.018559
 389	1.9400e-01	15.5723	25.409494	-0.000084	-0.837214	-0.283656	-0.006756
 390	1.9450e-01	15.5883	25.498868	0.000221	2.214909	0.750431	0.017875
 391	1.9500e-01	15.6493	25.527091	0.000070	0.699445	0.236978	0.005645
 392	1.9550e-01	15.6750	25.589524	0.000155	1.547257	0.524225	0.012487
 393	1.9600e-01	15.7151	25.658799	0.000172	1.716819	0.581674	0.013855
 394	1.9650e-01	15.7600	25.721660	0.000156	1.557854	0.527815	0.012572
 395	1.9700e-01	15.8049	25.744752	0.000057	0.572273	0.193891	0.004618
 396	1.9750e-01	15.8209	25.805902	0.000152	1.515464	0.513453	0.012230
 397	1.9800e-01	15.8707	25.894849	0.000220	2.204311	0.746841	0.017789
 398	1.9850e-01	15.8931	25.932907	0.000094	0.943191	0.319562	0.007612
 399	1.9900e-01	15.9717	25.982512	0.000123	1.229327	0.416507	0.009921
 400	1.9950e-01	16.0038	26.001327	0.000047	0.466297	0.157986	0.003763
 401	2.0000e-01	16.0584	26.053497	0.000129	1.292913	0.438051	0.010434
 402	2.0050e-01	16.1065	26.122345	0.000171	1.706222	0.578084	0.013770
 403	2.0100e-01	16.1193	26.144154	0.000054	0.540480	0.183120	0.004362
 404	2.0150e-01	16.1723	26.193759	0.000123	1.229327	0.416507	0.009921
 405	2.0200e-01	16.1787	26.278856	0.000211	2.108932	0.714526	0.017019
 406	2.0250e-01	16.2332	26.340434	0.000153	1.526061	0.517044	0.012316
 407	2.0300e-01	16.2637	26.417407	0.000191	1.907577	0.646305	0.015395
 408	2.0350e-01	16.3118	26.410992	-0.000016	-0.158965	-0.053859	-0.001283
 409	2.0400e-01	16.3648	26.517899	0.000265	2.649412	0.897645	0.021381
 410	2.0450e-01	16.4033	26.517471	-0.000001	-0.010598	-0.003591	-0.000086
 411	2.0500e-01	16.4514	26.584180	0.000165	1.653233	0.560131	0.013342
 412	2.0550e-01	16.4674	26.614969	0.000076	0.763031	0.258522	0.006158
 413	2.0600e-01	16.5284	26.714606	0.000247	2.469252	0.836605	0.019927
 414	2.0650e-01	16.5653	26.741974	0.000068	0.678250	0.229797	0.005474
 415	2.0700e-01	16.6054	26.778322	0.000090	0.900800	0.305199	0.007270
 416	2.0750e-01	16.6600	26.815953	0.000093	0.932593	0.315971	0.007526
 417	2.0800e-01	16.6824	26.841183	0.000063	0.625261	0.211844	0.005046
 418	2.0850e-01	16.7370	26.918156	0.000191	1.907577	0.646305	0.015395
 419	2.0900e-01	16.7562	26.974175	0.000139	1.388292	0.470366	0.011204
 420	2.0950e-01	16.7883	27.033187	0.000146	1.462476	0.495500	0.011802
 421	2.1000e-01	16.8557	27.041739	0.000021	0.211953	0.071812	0.001711
 422	2.1050e-01	16.8846	27.109304	0.000167	1.674429	0.567312	0.013513
 423	2.1100e-01	16.9166	27.149929	0.000101	1.006777	0.341105	0.008125
 424	2.1150e-01	16.9551	27.264532	0.000284	2.840170	0.962276	0.022921
 425	2.1200e-01	17.0001	27.269664	0.000013	0.127172	0.043087	0.001026
 426	2.1250e-01	17.0706	27.298315	0.000071	0.710043	0.240569	0.005730
 427	2.1300e-01	17.0594	27.377853	-0.000197	-1.971163	-0.667848	0.015908
 428	2.1350e-01	17.0899	27.449694	0.000178	1.780405	0.603218	0.014368
 429	2.1400e-01	17.1781	27.535647	0.000213	2.130128	0.721707	0.017191
 430	2.1450e-01	17.1958	27.483904	-0.000128	-1.282316	-0.434460	-0.010349
 431	2.1500e-01	17.2263	27.604067	0.000298	2.977939	1.008953	0.024033
 432	2.1550e-01	17.2792	27.638704	0.000086	0.858410	0.290837	0.006928
 433	2.1600e-01	17.3353	27.631862	-0.000017	-0.169562	-0.057449	-0.001368
 434	2.1650e-01	17.3578	27.711828	0.000198	1.981760	0.671439	0.015993
 435	2.1700e-01	17.4059	27.764854	0.000131	1.314109	0.445232	0.010605
 436	2.1750e-01	17.4380	27.833702	0.000171	1.706222	0.578084	0.013770
 437	2.1800e-01	17.5022	27.851662	0.000045	0.445101	0.150804	0.003592
 438	2.1850e-01	17.5246	27.917516	0.000163	1.632038	0.552949	0.013171
 439	2.1900e-01	17.5471	27.985936	0.000170	1.695624	0.574493	0.013684
 440	2.1950e-01	17.5904	27.981660	-0.000011	-0.105976	-0.035906	-0.000855
 441	2.2000e-01	17.6257	28.077876	0.000238	2.384471	0.807881	0.019243
 442	2.2050e-01	17.7123	28.124059	0.000114	1.144546	0.387783	0.009237
 443	2.2100e-01	17.7236	28.204880	0.000200	2.002956	0.678620	0.016164
 444	2.2150e-01	17.7781	28.198893	-0.000015	-0.148367	-0.050268	-0.001197
 445	2.2200e-01	17.8038	28.292543	0.000232	2.320885	0.786337	0.018730
 446	2.2250e-01	17.8455	28.334023	0.000103	1.027972	0.348286	0.008296
 447	2.2300e-01	17.8952	28.379779	0.000113	1.133948	0.384192	0.009151
 448	2.2350e-01	17.9161	28.424680	0.000111	1.112753	0.377011	0.008980
 449	2.2400e-01	17.9498	28.455469	0.000076	0.763031	0.258522	0.006158
 450	2.2450e-01	18.0171	28.490962	0.000088	0.879605	0.298018	0.007099
 451	2.2500e-01	18.0524	28.553822	0.000156	1.557854	0.527815	0.012572
 452	2.2550e-01	18.0893	28.611980	0.000144	1.441280	0.488319	0.011631
 453	2.2600e-01	18.1006	28.686814	0.000185	1.854589	0.628352	0.014967
 454	2.2650e-01	18.1535	28.743260	0.000140	1.398890	0.473957	0.011289
 455	2.2700e-01	18.2225	28.679972	-0.000157	-1.568452	-0.531406	-0.012658
 456	2.2750e-01	18.2546	28.758655	0.000195	1.949967	0.660667	0.015737
 457	2.2800e-01	18.2674	28.850167	0.000227	2.267897	0.768384	0.018302
 458	2.2850e-01	18.3155	28.911745	0.000153	1.526061	0.517044	0.012316
 459	2.2900e-01	18.3588	28.939968	0.000070	0.699445	0.236978	0.005645
 460	2.2950e-01	18.4102	29.007105	0.000166	1.663831	0.563721	0.013427
 461	2.3000e-01	18.4326	29.000691	-0.000016	-0.158965	-0.053859	-0.001283
 462	2.3050e-01	18.4952	29.076808	0.000189	1.886382	0.639123	0.015223
 463	2.3100e-01	18.5305	29.142662	0.000163	1.632038	0.552949	0.013171
 464	2.3150e-01	18.5642	29.194405	0.000128	1.282316	0.434460	0.010349
 465	2.3200e-01	18.6043	29.249569	0.000137	1.367097	0.463185	0.011033
 466	2.3250e-01	18.6267	29.276082	0.000066	0.657054	0.222616	0.005303
 467	2.3300e-01	18.6925	29.324403	0.000120	1.197534	0.405736	0.009664
 468	2.3350e-01	18.7166	29.468941	0.000358	3.582005	1.213616	0.028907
 469	2.3400e-01	18.7390	29.428744	-0.000100	-0.996179	-0.337515	-0.008039
 470	2.3450e-01	18.7952	29.449697	0.000052	0.519285	0.175938	0.004191
 471	2.3500e-01	18.8321	29.510420	0.000150	1.504866	0.509862	0.012145
 472	2.3550e-01	18.9075	29.538216	0.000069	0.688847	0.233388	0.005559
 473	2.3600e-01	18.9203	29.607919	0.000173	1.727417	0.585265	0.013941
 474	2.3650e-01	18.9652	29.636570	0.000071	0.710043	0.240569	0.005730
 475	2.3700e-01	19.0021	29.670780	0.000085	0.847812	0.287246	0.006842
 476	2.3750e-01	19.0262	29.755022	0.000209	2.087737	0.707344	0.016848
 477	2.3800e-01	19.0936	29.832850	0.000193	1.928772	0.653486	0.015566
 478	2.3850e-01	19.1241	29.851665	0.000047	0.466297	0.157986	0.003763
 479	2.3900e-01	19.1690	29.916237	0.000160	1.600245	0.542178	0.012914
 480	2.3950e-01	19.2075	29.946598	0.000075	0.752433	0.254931	0.006072
 481	2.4000e-01	19.2348	30.028274	0.000202	2.024151	0.685801	0.016335
 482	2.4050e-01	19.2829	30.038965	0.000026	0.264941	0.089765	0.002138
 483	2.4100e-01	19.3118	30.088570	0.000123	1.229327	0.416507	0.009921
 484	2.4150e-01	19.3519	30.132187	0.000108	1.080960	0.366239	0.008724
 485	2.4200e-01	19.3968	30.174950	0.000106	1.059765	0.359058	0.008553
 486	2.4250e-01	19.4144	30.333171	0.000392	3.921130	1.328515	0.031644
 487	2.4300e-01	19.5011	30.235673	-0.000242	-2.416264	-0.818652	-0.019500
 488	2.4350e-01	19.5123	30.369947	0.000333	3.327662	1.127442	0.026855
 489	2.4400e-01	19.5700	30.385769	0.000039	0.392113	0.132851	0.003164
 490	2.4450e-01	19.6069	30.412282	0.000066	0.657054	0.222616	0.005303
 491	2.4500e-01	19.6519	30.494386	0.000203	2.034749	0.689392	0.016421
 492	2.4550e-01	19.6823	30.521326	0.000067	0.667652	0.226207	0.005388
 493	2.4600e-01	19.7385	30.510636	-0.000026	-0.264941	-0.089765	-0.002138
 494	2.4650e-01	19.7690	30.661587	0.000374	3.740970	1.267475	0.030190
 495	2.4700e-01	19.8171	30.577345	-0.000209	-2.087737	-0.707344	-0.016848
 496	2.4750e-01	19.8203	30.736422	0.000394	3.942326	1.335696	0.031815
 497	2.4800e-01	19.8780	30.740270	0.000010	0.095379	0.032315	0.000770
 498	2.4850e-01	19.9182	30.797145	0.000141	1.409487	0.477547	0.011375
 499	2.4900e-01	19.9759	30.825796	0.000071	0.710043	0.240569	0.005730
 500	2.4950e-01	20.0016	30.881814	0.000139	1.388292	0.470366	0.011204
 501	2.5000e-01	20.0337	30.952800	0.000176	1.759210	0.596036	0.014197
 502	2.5050e-01	19.9759	30.873262	0.000197	1.971163	0.667848	-0.015908
 503	2.5100e-01	19.9198	30.890795	-0.000043	-0.434504	-0.147214	0.003507
 504	2.5150e-01	19.9037	30.812112	0.000195	1.949967	0.660667	-0.015737
 505	2.5200e-01	19.8748	30.762507	0.000123	1.229327	0.416507	-0.009921
 506	2.5250e-01	19.8476	30.742836	0.000049	0.487492	0.165167	-0.003934
 507	2.5300e-01	19.7962	30.671423	0.000177	1.769807	0.599627	-0.014283
 508	2.5350e-01	19.7449	30.695797	-0.000060	-0.604066	-0.204663	0.004875
 509	2.5400e-01	19.7192	30.541425	0.000383	3.825751	1.296200	-0.030875
 510	2.5450e-01	19.6535	30.579911	-0.000095	-0.953788	-0.323152	0.007697
 511	2.5500e-01	19.6390	30.542280	0.000093	0.932593	0.315971	-0.007526
 512	2.5550e-01	19.5652	30.532017	0.000025	0.254344	0.086174	-0.002053
 513	2.5600e-01	19.5363	30.424683	0.000266	2.660010	0.901236	-0.021467
 514	2.5650e-01	19.4946	30.402019	0.000056	0.561675	0.190301	-0.004533
 515	2.5700e-01	19.4497	30.376789	0.000063	0.625261	0.211844	-0.005046
 516	2.5750e-01	19.4176	30.356263	0.000051	0.508687	0.172348	-0.004105
 517	2.5800e-01	19.4096	30.242515	0.000282	2.818975	0.955094	-0.022750
 518	2.5850e-01	19.3342	30.253633	-0.000028	-0.275539	-0.093355	0.002224
 519	2.5900e-01	19.3150	30.203601	0.000124	1.239925	0.420098	-0.010006
 520	2.5950e-01	19.2460	30.190772	0.000032	0.317929	0.107717	-0.002566
 521	2.6000e-01	19.2139	30.126201	0.000160	1.600245	0.542178	-0.012914
 522	2.6050e-01	19.1754	30.099260	0.000067	0.667652	0.226207	-0.005388
 523	2.6100e-01	19.1305	30.017584	0.000202	2.024151	0.685801	-0.016335
 524	2.6150e-01	19.0968	30.022715	-0.000013	-0.127172	-0.043087	0.001026
 525	2.6200e-01	19.0920	29.888441	0.000333	3.327662	1.127442	-0.026855
 526	2.6250e-01	19.0102	29.921796	-0.000083	-0.826617	-0.280065	0.006671
 527	2.6300e-01	18.9957	29.884165	0.000093	0.932593	0.315971	-0.007526
 528	2.6350e-01	18.9396	29.797784	0.000214	2.140725	0.725297	-0.017276
 529	2.6400e-01	18.9091	29.743476	0.000135	1.345901	0.456004	-0.010862
 530	2.6450e-01	18.8658	29.713542	0.000074	0.741835	0.251341	-0.005987
 531	2.6500e-01	18.8337	29.670780	0.000106	1.059765	0.359058	-0.008553
 532	2.6550e-01	18.7791	29.677194	-0.000016	-0.158965	-0.053859	0.001283
 533	2.6600e-01	18.7182	29.653675	0.000058	0.582871	0.197482	-0.004704
 534	2.6650e-01	18.7070	29.559169	0.000234	2.342080	0.793518	-0.018901
 535	2.6700e-01	18.6636	29.509565	0.000123	1.229327	0.416507	-0.009921
 536	2.6750e-01	18.6219	29.432592	0.000191	1.907577	0.646305	-0.015395
 537	2.6800e-01	18.5754	29.454401	-0.000054	-0.540480	-0.183120	0.004362
 538	2.6850e-01	18.5465	29.391540	0.000156	1.557854	0.527815	-0.012572
 539	2.6900e-01	18.4936	29.329107	0.000155	1.547257	0.524225	-0.012487
 540	2.6950e-01	18.4503	29.299601	0.000073	0.731238	0.247750	-0.005901
 541	2.7000e-01	18.4246	29.247003	0.000130	1.303511	0.441641	-0.010520
 542	2.7050e-01	18.3925	29.189274	0.000143	1.430683	0.484728	-0.011546
 543	2.7100e-01	18.3364	29.188418	0.000002	0.021195	0.007181	-0.000171
 544	2.7150e-01	18.2674	29.166609	0.000054	0.540480	0.183120	-0.004362
 545	2.7200e-01	18.2594	29.074242	0.000229	2.289092	0.775565	-0.018473
 546	2.7250e-01	18.2000	29.028487	0.000113	1.133948	0.384192	-0.009151
 547	2.7300e-01	18.1695	29.031480	-0.000007	-0.074184	-0.025134	0.000599
 548	2.7350e-01	18.1326	28.935264	0.000238	2.384471	0.807881	-0.019243
 549	2.7400e-01	18.0765	28.948948	-0.000034	-0.339125	-0.114899	0.002737
 550	2.7450e-01	18.0540	28.891219	0.000143	1.430683	0.484728	-0.011546
 551	2.7500e-01	18.0220	28.892502	-0.000003	-0.031793	-0.010772	0.000257
 552	2.7550e-01	17.9883	28.772339	0.000298	2.977939	1.008953	-0.024033
 553	2.7600e-01	17.9369	28.741978	0.000075	0.752433	0.254931	-0.006072
 554	2.7650e-01	17.9016	28.647045	0.000235	2.352678	0.797109	-0.018987
 555	2.7700e-01	17.8551	28.617539	0.000073	0.731238	0.247750	-0.005901
 556	2.7750e-01	17.8166	28.608986	0.000021	0.211953	0.071812	-0.001711
 557	2.7800e-01	17.7942	28.513198	0.000237	2.373873	0.804290	-0.019158
 558	2.7850e-01	17.7492	28.445206	0.000169	1.685026	0.570902	-0.013598
 559	2.7900e-01	17.6899	28.504646	-0.000147	-1.473073	-0.499091	0.011888
 560	2.7950e-01	17.6610	28.462311	0.000105	1.049167	0.355467	-0.008467
 561	2.8000e-01	17.6161	28.397739	0.000160	1.600245	0.542178	-0.012914
 562	2.8050e-01	17.5567	28.345141	0.000130	1.303511	0.441641	-0.010520
 563	2.8100e-01	17.5455	28.254912	0.000224	2.236104	0.757613	-0.018046
 564	2.8150e-01	17.5038	28.247215	0.000019	0.190758	0.064630	-0.001539
 565	2.8200e-01	17.4444	28.155276	0.000228	2.278495	0.771975	-0.018388
 566	2.8250e-01	17.4252	28.136460	0.000047	0.466297	0.157986	-0.003763
 567	2.8300e-01	17.3819	28.071461	0.000161	1.610843	0.545768	-0.013000
 568	2.8350e-01	17.3385	28.052646	0.000047	0.466297	0.157986	-0.003763
 569	2.8400e-01	17.2968	28.022712	0.000074	0.741835	0.251341	-0.005987
 570	2.8450e-01	17.2551	27.973107	0.000123	1.229327	0.416507	-0.009921
 571	2.8500e-01	17.2022	27.904260	0.000171	1.706222	0.578084	-0.013770
 572	2.8550e-01	17.1910	27.924786	-0.000051	-0.508687	-0.172348	0.004105
 573	2.8600e-01	17.1460	27.831563	0.000231	2.310288	0.782747	-0.018644
 574	2.8650e-01	17.0706	27.802485	0.000072	0.720640	0.244159	-0.005816
 575	2.8700e-01	17.0706	27.728078	0.000184	1.843991	0.624761	-0.014881
 576	2.8750e-01	17.0065	27.674625	0.000132	1.324706	0.448823	-0.010691
 577	2.8800e-01	16.9632	27.639987	0.000086	0.858410	0.290837	-0.006928
 578	2.8850e-01	16.9359	27.595514	0.000110	1.102156	0.373420	-0.008895
 579	2.8900e-01	16.9102	27.548475	0.000117	1.165741	0.394964	-0.009408
 580	2.8950e-01	16.8733	27.494595	0.000134	1.335304	0.452413	-0.010776
 581	2.9000e-01	16.8348	27.428740	0.000163	1.632038	0.552949	-0.013171
 582	2.9050e-01	16.7819	27.419333	0.000023	0.233148	0.078993	-0.001882
 583	2.9100e-01	16.7354	27.316275	0.000255	2.554033	0.865330	-0.020612
 584	2.9150e-01	16.6808	27.350913	-0.000086	-0.858410	-0.290837	0.006928
 585	2.9200e-01	16.6503	27.258118	0.000230	2.299690	0.779156	-0.018559
 586	2.9250e-01	16.6263	27.223480	0.000086	0.858410	0.290837	-0.006928
 587	2.9300e-01	16.5461	27.169172	0.000135	1.345901	0.456004	-0.010862
 588	2.9350e-01	16.5316	27.148218	0.000052	0.519285	0.175938	-0.004191
 589	2.9400e-01	16.4723	27.084074	0.000159	1.589647	0.538587	-0.012829
 590	2.9450e-01	16.4594	26.981017	0.000255	2.554033	0.865330	-0.020612
 591	2.9500e-01	16.4065	26.997694	-0.000041	-0.413308	-0.140033	0.003335
 592	2.9550e-01	16.3632	26.968188	0.000073	0.731238	0.247750	-0.005901
 593	2.9600e-01	16.3375	26.893354	0.000185	1.854589	0.628352	-0.014967
 594	2.9650e-01	16.2685	26.882663	0.000026	0.264941	0.089765	-0.002138
 595	2.9700e-01	16.2653	26.780460	0.000253	2.532838	0.858149	-0.020440
 596	2.9750e-01	16.2124	26.810394	-0.000074	-0.741835	-0.251341	0.005987
 597	2.9800e-01	16.1578	26.723586	0.000215	2.151323	0.728888	-0.017362
 598	2.9850e-01	16.1562	26.688949	0.000086	0.858410	0.290837	-0.006928
 599	2.9900e-01	16.1001	26.601713	0.000216	2.161920	0.732478	-0.017447
 600	2.9950e-01	16.0552	26.614969	-0.000033	-0.328527	-0.111308	0.002651
 601	3.0000e-01	16.0359	26.547832	0.000166	1.663831	0.563721	-0.013427
 602	3.0050e-01	15.9750	26.449051	0.000245	2.448057	0.829424	-0.019756
 603	3.0100e-01	15.9381	26.442636	0.000016	0.158965	0.053859	-0.001283
 604	3.0150e-01	15.9204	26.414841	0.000069	0.688847	0.233388	-0.005559
 605	3.0200e-01	15.8578	26.284843	0.000322	3.221685	1.091537	-0.026000
 606	3.0250e-01	15.8209	26.285270	-0.000001	-0.010598	-0.003591	0.000086
 607	3.0300e-01	15.7824	26.195469	0.000223	2.225506	0.754022	-0.017960
 608	3.0350e-01	15.7488	26.184351	0.000028	0.275539	0.093355	-0.002224
 609	3.0400e-01	15.7151	26.157410	0.000067	0.667652	0.226207	-0.005388
 610	3.0450e-01	15.6557	26.060339	0.000241	2.405666	0.815062	-0.019414
 611	3.0500e-01	15.6429	26.066326	-0.000015	-0.148367	-0.050268	0.001197
 612	3.0550e-01	15.5819	25.967117	0.000246	2.458655	0.833015	-0.019842
 613	3.0600e-01	15.5595	25.915375	0.000128	1.282316	0.434460	-0.010349
 614	3.0650e-01	15.5065	25.870901	0.000110	1.102156	0.373420	-0.008895
 615	3.0700e-01	15.4776	25.859783	0.000028	0.275539	0.093355	-0.002224
 616	3.0750e-01	15.4054	25.811889	0.000119	1.186937	0.402145	-0.009579
 617	3.0800e-01	15.3669	25.771265	0.000101	1.006777	0.341105	-0.008125
 618	3.0850e-01	15.3317	25.715674	0.000138	1.377694	0.466776	-0.011118
 619	3.0900e-01	15.3028	25.657944	0.000143	1.430683	0.484728	-0.011546
 620	3.0950e-01	15.2643	25.586103	0.000178	1.780405	0.603218	-0.014368
 621	3.1000e-01	15.2161	25.576695	0.000023	0.233148	0.078993	-0.001882
 622	3.1050e-01	15.1664	25.547189	0.000073	0.731238	0.247750	-0.005901
 623	3.1100e-01	15.1359	25.449263	0.000243	2.426862	0.822243	-0.019585
 624	3.1150e-01	15.0974	25.427882	0.000053	0.529882	0.179529	-0.004276
 625	3.1200e-01	15.0862	25.340219	0.000217	2.172518	0.736069	-0.017533
 626	3.1250e-01	15.0156	25.299594	0.000101	1.006777	0.341105	-0.008125
 627	3.1300e-01	14.9643	25.317554	-0.000045	-0.445101	-0.150804	0.003592
 628	3.1350e-01	14.9466	25.194398	0.000305	3.052123	1.034087	-0.024631
 629	3.1400e-01	14.9033	25.173445	0.000052	0.519285	0.175938	-0.004191
 630	3.1450e-01	14.8712	25.187556	-0.000035	-0.349722	-0.118489	0.002822
 631	3.1500e-01	14.8087	25.082360	0.000261	2.607022	0.883283	-0.021039
 632	3.1550e-01	14.7573	25.016079	0.000164	1.642636	0.556540	-0.013256
 633	3.1600e-01	14.7333	25.010092	0.000015	0.148367	0.050268	-0.001197
 634	3.1650e-01	14.7076	24.917297	0.000230	2.299690	0.779156	-0.018559
 635	3.1700e-01	14.6354	24.875390	0.000104	1.038570	0.351877	-0.008381
 636	3.1750e-01	14.6162	24.854864	0.000051	0.508687	0.172348	-0.004105
 637	3.1800e-01	14.5921	24.800555	0.000135	1.345901	0.456004	-0.010862
 638	3.1850e-01	14.5167	24.694932	0.000262	2.617619	0.886873	-0.021125
 639	3.1900e-01	14.5247	24.677399	-0.000043	-0.434504	-0.147214	-0.003507
 640	3.1950e-01	14.4541	24.623519	0.000134	1.335304	0.452413	-0.010776
 641	3.2000e-01	14.4092	24.572631	0.000126	1.261120	0.427279	-0.010177
 642	3.2050e-01	14.3884	24.540987	0.000078	0.784226	0.265703	-0.006329
 643	3.2100e-01	14.3338	24.509343	0.000078	0.784226	0.265703	-0.006329
 644	3.2150e-01	14.3082	24.417403	0.000228	2.278495	0.771975	-0.018388
 645	3.2200e-01	14.2584	24.396877	0.000051	0.508687	0.172348	-0.004105
 646	3.2250e-01	14.2520	24.321187	0.000188	1.875784	0.635533	-0.015138
 647	3.2300e-01	14.1814	24.275859	0.000112	1.123351	0.380602	-0.009066
 648	3.2350e-01	14.1558	24.190762	0.000211	2.108932	0.714526	-0.017019
 649	3.2400e-01	14.0900	24.179216	0.000029	0.286137	0.096946	-0.002309
 650	3.2450e-01	14.0627	24.131322	0.000119	1.186937	0.402145	-0.009579
 651	3.2500e-01	14.0162	24.092836	0.000095	0.953788	0.323152	-0.007697
 652	3.2550e-01	14.0001	24.000469	0.000229	2.289092	0.775565	-0.018473
 653	3.2600e-01	13.9408	24.016718	-0.000040	-0.402711	-0.136442	0.003250
 654	3.2650e-01	13.9215	23.885437	0.000325	3.253478	1.102308	-0.026256
 655	3.2700e-01	13.8718	23.847806	0.000093	0.932593	0.315971	-0.007526
 656	3.2750e-01	13.8221	23.776393	0.000177	1.769807	0.599627	-0.014283
 657	3.2800e-01	13.7707	23.796919	-0.000051	-0.508687	-0.172348	0.004105
 658	3.2850e-01	13.7306	23.728071	0.000171	1.706222	0.578084	-0.013770
 659	3.2900e-01	13.7066	23.657513	0.000175	1.748612	0.592446	-0.014112
 660	3.2950e-01	13.6841	23.614751	0.000106	1.059765	0.359058	-0.008553
 661	3.3000e-01	13.6247	23.530936	0.000208	2.077139	0.703754	-0.016763
 662	3.3050e-01	13.5718	23.499719	0.000077	0.773628	0.262112	-0.006243
 663	3.3100e-01	13.5157	23.455674	0.000109	1.091558	0.369830	-0.008809
 664	3.3150e-01	13.4900	23.423174	0.000081	0.805421	0.272884	-0.006500
 665	3.3200e-01	13.4547	23.366300	0.000141	1.409487	0.477547	-0.011375
 666	3.3250e-01	13.4082	23.263670	0.000254	2.543436	0.861739	-0.020526
 667	3.3300e-01	13.3649	23.291893	-0.000070	-0.699445	-0.236978	0.005645
 668	3.3350e-01	13.3296	23.208934	0.000206	2.055944	0.696573	-0.016592
 669	3.3400e-01	13.3135	23.186270	0.000056	0.561675	0.190301	-0.004533
 670	3.3450e-01	13.2349	23.109725	0.000190	1.896979	0.642714	-0.015309
 671	3.3500e-01	13.2125	23.040450	0.000172	1.716819	0.581674	-0.013855
 672	3.3550e-01	13.1756	22.985714	0.000136	1.356499	0.459594	-0.010947
 673	3.3600e-01	13.1274	22.983576	0.000005	0.052988	0.017953	-0.000428
 674	3.3650e-01	13.0889	22.936537	0.000117	1.165741	0.394964	-0.009408
 675	3.3700e-01	13.0649	22.836045	0.000249	2.490448	0.843786	-0.020098
 676	3.3750e-01	12.9943	22.826637	0.000023	0.233148	0.078993	-0.001882
 677	3.3800e-01	12.9766	22.727856	0.000245	2.448057	0.829424	-0.019756
 678	3.3850e-01	12.9430	22.691935	0.000089	0.890203	0.301609	-0.007184
 679	3.3900e-01	12.9381	22.562365	0.000321	3.211088	1.087946	-0.025914
 680	3.3950e-01	12.8483	22.576049	-0.000034	-0.339125	-0.114899	0.002737
 681	3.4000e-01	12.8323	22.532431	0.000108	1.080960	0.366239	-0.008724
 682	3.4050e-01	12.7889	22.487530	0.000111	1.112753	0.377011	-0.008980
 683	3.4100e-01	12.7360	22.468287	0.000048	0.476894	0.161576	-0.003849
 684	3.4150e-01	12.7184	22.373782	0.000234	2.342080	0.793518	-0.018901
 685	3.4200e-01	12.6815	22.280987	0.000230	2.299690	0.779156	-0.018559
 686	3.4250e-01	12.6205	22.283125	-0.000005	-0.052988	-0.017953	0.000428
 687	3.4300e-01	12.5708	22.259178	0.000059	0.593468	0.201073	-0.004789
 688	3.4350e-01	12.5307	22.230955	0.000070	0.699445	0.236978	-0.005645
 689	3.4400e-01	12.5002	22.071451	0.000395	3.952923	1.339287	-0.031901
 690	3.4450e-01	12.4585	22.097108	-0.000064	-0.635859	-0.215435	0.005132
 691	3.4500e-01	12.4328	22.044083	0.000131	1.314109	0.445232	-0.010605
 692	3.4550e-01	12.3879	21.977373	0.000165	1.653233	0.560131	-0.013342
 693	3.4600e-01	12.3382	21.934611	0.000106	1.059765	0.359058	-0.008553
 694	3.4650e-01	12.3125	21.816586	0.000292	2.924951	0.991000	-0.023605
 695	3.4700e-01	12.2676	21.743890	0.000180	1.801600	0.610399	-0.014539
 696	3.4750e-01	12.2323	21.688299	0.000138	1.377694	0.466776	-0.011118
 697	3.4800e-01	12.1633	21.695141	-0.000017	-0.169562	-0.057449	0.001368
 698	3.4850e-01	12.1424	21.593366	0.000252	2.522241	0.854558	-0.020355
 699	3.4900e-01	12.0879	21.573267	0.000050	0.498090	0.168757	-0.004020
 700	3.4950e-01	12.0590	21.501854	0.000177	1.769807	0.599627	-0.014283
 701	3.5000e-01	12.0398	21.460802	0.000102	1.017374	0.344696	-0.008210
 702	3.5050e-01	11.9772	21.423171	0.000093	0.932593	0.315971	-0.007526
 703	3.5100e-01	11.9580	21.369290	0.000134	1.335304	0.452413	-0.010776
 704	3.5150e-01	11.8970	21.322251	0.000117	1.165741	0.394964	-0.009408
 705	3.5200e-01	11.8537	21.229457	0.000230	2.299690	0.779156	-0.018559
 706	3.5250e-01	11.8184	21.202944	0.000066	0.657054	0.222616	-0.005303
 707	3.5300e-01	11.7767	21.176004	0.000067	0.667652	0.226207	-0.005388
 708	3.5350e-01	11.7510	21.040019	0.000337	3.370052	1.141805	-0.027197
 709	3.5400e-01	11.6933	21.024197	0.000039	0.392113	0.132851	-0.003164
 710	3.5450e-01	11.6275	21.023769	0.000001	0.010598	0.003591	-0.000086
 711	3.5500e-01	11.6130	20.975447	0.000120	1.197534	0.405736	-0.009664
 712	3.5550e-01	11.5553	20.871107	0.000259	2.585826	0.876102	-0.020868
 713	3.5600e-01	11.5505	20.820219	0.000126	1.261120	0.427279	-0.010177
 714	3.5650e-01	11.4879	20.767621	0.000130	1.303511	0.441641	-0.010520
 715	3.5700e-01	11.4574	20.699629	0.000169	1.685026	0.570902	-0.013598
 716	3.5750e-01	11.4061	20.640189	0.000147	1.473073	0.499091	-0.011888
 717	3.5800e-01	11.3836	20.609828	0.000075	0.752433	0.254931	-0.006072
 718	3.5850e-01	11.3451	20.515323	0.000234	2.342080	0.793518	-0.018901
 719	3.5900e-01	11.2842	20.494797	0.000051	0.508687	0.172348	-0.004105
 720	3.5950e-01	11.2681	20.414831	0.000198	1.981760	0.671439	-0.015993
 721	3.6000e-01	11.2168	20.390028	0.000061	0.614664	0.208254	-0.004960
 722	3.6050e-01	11.1719	20.352397	0.000093	0.932593	0.315971	-0.007526
 723	3.6100e-01	11.1382	20.299372	0.000131	1.314109	0.445232	-0.010605
 724	3.6150e-01	11.1125	20.207005	0.000229	2.289092	0.775565	-0.018473
 725	3.6200e-01	11.0740	20.153979	0.000131	1.314109	0.445232	-0.010605
 726	3.6250e-01	11.0195	20.091546	0.000155	1.547257	0.524225	-0.012487
 727	3.6300e-01	10.9569	20.077007	0.000036	0.360320	0.122080	-0.002908
 728	3.6350e-01	10.9505	19.998324	0.000195	1.949967	0.660667	-0.015737
 729	3.6400e-01	10.9104	19.897832	0.000249	2.490448	0.843786	-0.020098
 730	3.6450e-01	10.8735	19.893555	0.000011	0.105976	0.035906	-0.000855
 731	3.6500e-01	10.7917	19.846944	0.000116	1.155144	0.391373	-0.009322
 732	3.6550e-01	10.7804	19.753722	0.000231	2.310288	0.782747	-0.018644
 733	3.6600e-01	10.7307	19.701979	0.000128	1.282316	0.434460	-0.010349
 734	3.6650e-01	10.7034	19.653230	0.000121	1.208132	0.409326	-0.009750
 735	3.6700e-01	10.6585	19.545896	0.000266	2.660010	0.901236	-0.021467
 736	3.6750e-01	10.6088	19.585665	-0.000099	-0.985581	-0.333924	0.007954
 737	3.6800e-01	10.5767	19.454812	0.000324	3.242881	1.098718	-0.026171
 738	3.6850e-01	10.5334	19.391096	0.000158	1.579050	0.534997	-0.012743
 739	3.6900e-01	10.5157	19.389813	0.000003	0.031793	0.010772	-0.000257
 740	3.6950e-01	10.4564	19.306854	0.000206	2.055944	0.696573	-0.016592
 741	3.7000e-01	10.4195	19.226032	0.000200	2.002956	0.678620	-0.016164
 742	3.7050e-01	10.3666	19.238433	-0.000031	-0.307332	-0.104127	0.002480
 743	3.7100e-01	10.3633	19.158468	0.000198	1.981760	0.671439	-0.015993
 744	3.7150e-01	10.3136	19.054127	0.000259	2.585826	0.876102	-0.020868
 745	3.7200e-01	10.2687	19.009654	0.000110	1.102156	0.373420	-0.008895
 746	3.7250e-01	10.2061	18.996825	0.000032	0.317929	0.107717	-0.002566
 747	3.7300e-01	10.1692	18.949786	0.000117	1.165741	0.394964	-0.009408
 748	3.7350e-01	10.1211	18.903175	0.000116	1.155144	0.391373	-0.009322
 749	3.7400e-01	10.1099	18.750085	0.000379	3.793958	1.285428	-0.030618
 750	3.7450e-01	10.0409	18.777026	-0.000067	-0.667652	-0.226207	0.005388
 751	3.7500e-01	10.0200	18.702191	0.000185	1.854589	0.628352	-0.014967
 752	3.7550e-01	9.9543	18.622225	0.000198	1.981760	0.671439	-0.015993
 753	3.7600e-01	9.9222	18.637620	-0.000038	-0.381515	-0.129261	0.003079
 754	3.7650e-01	9.8837	18.566634	0.000176	1.759210	0.596036	-0.014197
 755	3.7700e-01	9.8965	18.429366	-0.000340	-3.401845	-1.152576	-0.027454
 756	3.7750e-01	9.8163	18.411406	0.000045	0.445101	0.150804	-0.003592
 757	3.7800e-01	9.7954	18.310059	0.000251	2.511643	0.850968	-0.020269
 758	3.7850e-01	9.7666	18.255751	0.000135	1.345901	0.456004	-0.010862
 759	3.7900e-01	9.7152	18.136871	0.000295	2.946147	0.998181	-0.023776
 760	3.7950e-01	9.6382	18.181771	-0.000111	-1.112753	-0.377011	0.008980
 761	3.8000e-01	9.6158	18.053056	0.000319	3.189892	1.080765	-0.025743
 762	3.8050e-01	9.5933	18.088121	-0.000087	-0.869007	-0.294428	0.007013
 763	3.8100e-01	9.5388	17.985064	0.000255	2.554033	0.865330	-0.020612
 764	3.8150e-01	9.5083	17.885855	0.000246	2.458655	0.833015	-0.019842
 765	3.8200e-01	9.4714	17.885855	-0.000000	-0.000000	-0.000000	0.000000
 766	3.8250e-01	9.4024	17.831546	0.000135	1.345901	0.456004	-0.010862
 767	3.8300e-01	9.3864	17.749015	0.000205	2.045346	0.692982	-0.016506
 768	3.8350e-01	9.3527	17.721647	0.000068	0.678250	0.229797	-0.005474
 769	3.8400e-01	9.2853	17.638260	0.000207	2.066542	0.700163	-0.016677
 770	3.8450e-01	9.2821	17.631845	0.000016	0.158965	0.053859	-0.001283
 771	3.8500e-01	9.2051	17.523656	0.000268	2.681205	0.908417	-0.021638
 772	3.8550e-01	9.2019	17.418888	0.000260	2.596424	0.879692	-0.020954
 773	3.8600e-01	9.1329	17.409908	0.000022	0.222551	0.075402	-0.001796
 774	3.8650e-01	9.1185	17.354317	0.000138	1.377694	0.466776	-0.011118
 775	3.8700e-01	9.0591	17.256818	0.000242	2.416264	0.818652	-0.019500
 776	3.8750e-01	9.0286	17.258528	-0.000004	-0.042391	-0.014362	0.000342
 777	3.8800e-01	8.9837	17.136655	0.000302	3.020330	1.023316	-0.024375
 778	3.8850e-01	8.9420	17.090044	0.000116	1.155144	0.391373	-0.009322
 779	3.8900e-01	8.8907	17.029749	0.000149	1.494269	0.506272	-0.012059
 780	3.8950e-01	8.8730	16.995967	0.000084	0.837214	0.283656	-0.006756
 781	3.9000e-01	8.8104	16.933961	0.000154	1.536659	0.520634	-0.012401
 782	3.9050e-01	8.7703	16.825344	0.000269	2.691803	0.912008	-0.021723
 783	3.9100e-01	8.7158	16.816792	0.000021	0.211953	0.071812	-0.001711
 784	3.9150e-01	8.7254	16.704754	-0.000278	-2.776584	-0.940732	-0.022408
 785	3.9200e-01	8.6436	16.701760	0.000007	0.074184	0.025134	-0.000599
 786	3.9250e-01	8.5923	16.629492	0.000179	1.791003	0.606808	-0.014454
 787	3.9300e-01	8.5634	16.601696	0.000069	0.688847	0.233388	-0.005559
 788	3.9350e-01	8.5361	16.542256	0.000147	1.473073	0.499091	-0.011888
 789	3.9400e-01	8.4832	16.475547	0.000165	1.653233	0.560131	-0.013342
 790	3.9450e-01	8.4655	16.384462	0.000226	2.257299	0.764794	-0.018217
 791	3.9500e-01	8.4335	16.274990	0.000271	2.712998	0.919189	-0.021894
 792	3.9550e-01	8.3693	16.335285	-0.000149	-1.494269	-0.506272	0.012059
 793	3.9600e-01	8.3661	16.178347	0.000389	3.889337	1.317743	-0.031388
 794	3.9650e-01	8.2923	16.118907	0.000147	1.473073	0.499091	-0.011888
 795	3.9700e-01	8.2474	16.154828	-0.000089	-0.890203	-0.301609	0.007184
 796	3.9750e-01	8.2073	15.976508	0.000442	4.419220	1.497272	-0.035664
 797	3.9800e-01	8.1463	15.978646	-0.000005	-0.052988	-0.017953	0.000428
 798	3.9850e-01	8.1543	15.908943	-0.000173	-1.727417	-0.585265	-0.013941
 799	3.9900e-01	8.0693	15.846510	0.000155	1.547257	0.524225	-0.012487
 800	3.9950e-01	8.0837	15.754570	-0.000228	-2.278495	-0.771975	-0.018388
 801	4.0000e-01	8.0003	15.705393	0.000122	1.218730	0.412917	-0.009835
 802	4.0050e-01	7.9746	15.654506	0.000126	1.261120	0.427279	-0.010177
 803	4.0100e-01	7.9682	15.586086	0.000170	1.695624	0.574493	-0.013684
 804	4.0150e-01	7.9089	15.530495	0.000138	1.377694	0.466776	-0.011118
 805	4.0200e-01	7.8768	15.426154	0.000259	2.585826	0.876102	-0.020868
 806	4.0250e-01	7.8142	15.428720	-0.000006	-0.063586	-0.021543	0.000513
 807	4.0300e-01	7.7982	15.302143	0.000314	3.136904	1.062812	-0.025315
 808	4.0350e-01	7.7420	15.258097	0.000109	1.091558	0.369830	-0.008809
 809	4.0400e-01	7.7067	15.209348	0.000121	1.208132	0.409326	-0.009750
 810	4.0450e-01	7.6891	15.123823	0.000212	2.119530	0.718116	-0.017105
 811	4.0500e-01	7.6137	15.051554	0.000179	1.791003	0.606808	-0.014454
 812	4.0550e-01	7.5864	15.017772	0.000084	0.837214	0.283656	-0.006756
 813	4.0600e-01	7.5704	14.914287	0.000256	2.564631	0.868921	-0.020697
 814	4.0650e-01	7.4805	14.911293	0.000007	0.074184	0.025134	-0.000599
 815	4.0700e-01	7.4709	14.853564	0.000143	1.430683	0.484728	-0.011546
 816	4.0750e-01	7.4164	14.781295	0.000179	1.791003	0.606808	-0.014454
 817	4.0800e-01	7.3714	14.712020	0.000172	1.716819	0.581674	-0.013855
 818	4.0850e-01	7.3394	14.656001	0.000139	1.388292	0.470366	-0.011204
 819	4.0900e-01	7.2928	14.579028	0.000191	1.907577	0.646305	-0.015395
 820	4.0950e-01	7.2704	14.505049	0.000183	1.833393	0.621170	-0.014796
 821	4.1000e-01	7.2158	14.449030	0.000139	1.388292	0.470366	-0.011204
 822	4.1050e-01	7.1854	14.389590	0.000147	1.473073	0.499091	-0.011888
 823	4.1100e-01	7.1292	14.372485	0.000042	0.423906	0.143623	-0.003421
 824	4.1150e-01	7.1196	14.254889	0.000291	2.914354	0.987410	-0.023519
 825	4.1200e-01	7.0426	14.209988	0.000111	1.112753	0.377011	-0.008980
 826	4.1250e-01	7.0153	14.130022	0.000198	1.981760	0.671439	-0.015993
 827	4.1300e-01	6.9848	14.066306	0.000158	1.579050	0.534997	-0.012743
 828	4.1350e-01	6.9415	13.993182	0.000181	1.812198	0.613989	-0.014625
 829	4.1400e-01	6.9191	13.938446	0.000136	1.356499	0.459594	-0.010947
 830	4.1450e-01	6.8517	13.890979	0.000118	1.176339	0.398554	-0.009493
 831	4.1500e-01	6.8196	13.833250	0.000143	1.430683	0.484728	-0.011546
 832	4.1550e-01	6.7779	13.747297	0.000213	2.130128	0.721707	-0.017191
 833	4.1600e-01	6.7362	13.696838	0.000125	1.250523	0.423689	-0.010092
 834	4.1650e-01	6.6977	13.625852	0.000176	1.759210	0.596036	-0.014197
 835	4.1700e-01	6.6431	13.558287	0.000167	1.674429	0.567312	-0.013513
 836	4.1750e-01	6.6046	13.477038	0.000201	2.013553	0.682210	-0.016250
 837	4.1800e-01	6.5613	13.447532	0.000073	0.731238	0.247750	-0.005901
 838	4.1850e-01	6.5356	13.344047	0.000256	2.564631	0.868921	-0.020697
 839	4.1900e-01	6.5036	13.347468	-0.000008	-0.084781	-0.028725	0.000684
 840	4.1950e-01	6.4827	13.150332	0.000489	4.885516	1.655258	-0.039427
 841	4.2000e-01	6.4266	13.186681	-0.000090	-0.900800	-0.305199	0.007270
 842	4.2050e-01	6.3752	13.161023	0.000064	0.635859	0.215435	-0.005132
 843	4.2100e-01	6.3351	13.036156	0.000309	3.094514	1.048450	-0.024973
 844	4.2150e-01	6.2934	12.990401	0.000113	1.133948	0.384192	-0.009151
 845	4.2200e-01	6.2485	12.914283	0.000189	1.886382	0.639123	-0.015223
 846	4.2250e-01	6.2148	12.845008	0.000172	1.716819	0.581674	-0.013855
 847	4.2300e-01	6.1859	12.754351	0.000225	2.246702	0.761203	-0.018131
 848	4.2350e-01	6.1506	12.706030	0.000120	1.197534	0.405736	-0.009664
 849	4.2400e-01	6.1105	12.684221	0.000054	0.540480	0.183120	-0.004362
 850	4.2450e-01	6.0207	12.652149	0.000079	0.794824	0.269294	-0.006414
 851	4.2500e-01	6.0319	12.573038	-0.000196	-1.960565	-0.664257	-0.015822
 852	4.2550e-01	5.9726	12.402416	0.000423	4.228462	1.432642	-0.034124
 853	4.2600e-01	5.9325	12.378469	0.000059	0.593468	0.201073	-0.004789
 854	4.2650e-01	5.9052	12.304917	0.000182	1.822796	0.617580	-0.014710
 855	4.2700e-01	5.8394	12.254457	0.000125	1.250523	0.423689	-0.010092
 856	4.2750e-01	5.8009	12.227089	0.000068	0.678250	0.229797	-0.005474
 857	4.2800e-01	5.7608	12.134722	0.000229	2.289092	0.775565	-0.018473
 858	4.2850e-01	5.7303	12.068441	0.000164	1.642636	0.556540	-0.013256
 859	4.2900e-01	5.6854	12.011139	0.000142	1.420085	0.481138	-0.011460
 860	4.2950e-01	5.6742	11.864463	0.000363	3.634994	1.231569	-0.029335
 861	4.3000e-01	5.6116	11.898673	-0.000085	-0.847812	-0.287246	0.006842
 862	4.3050e-01	5.5811	11.760978	0.000341	3.412443	1.156167	-0.027539
 863	4.3100e-01	5.5234	11.733182	0.000069	0.688847	0.233388	-0.005559
 864	4.3150e-01	5.4817	11.701538	0.000078	0.784226	0.265703	-0.006329
 865	4.3200e-01	5.4576	11.607460	0.000233	2.331483	0.789928	-0.018816
 866	4.3250e-01	5.4063	11.531343	0.000189	1.886382	0.639123	-0.015223
 867	4.3300e-01	5.3806	11.475752	0.000138	1.377694	0.466776	-0.011118
 868	4.3350e-01	5.3116	11.399207	0.000190	1.896979	0.642714	-0.015309
 869	4.3400e-01	5.2988	11.338484	0.000150	1.504866	0.509862	-0.012145
 870	4.3450e-01	5.2811	11.221742	0.000289	2.893158	0.980229	-0.023348
 871	4.3500e-01	5.2539	11.120823	0.000250	2.501045	0.847377	-0.020184
 872	4.3550e-01	5.1801	11.131086	-0.000025	-0.254344	-0.086174	0.002053
 873	4.3600e-01	5.1432	11.074212	0.000141	1.409487	0.477547	-0.011375
 874	4.3650e-01	5.0950	10.970726	0.000256	2.564631	0.868921	-0.020697
 875	4.3700e-01	5.0453	10.924971	0.000113	1.133948	0.384192	-0.009151
 876	4.3750e-01	5.0373	10.832176	0.000230	2.299690	0.779156	-0.018559
 877	4.3800e-01	4.9523	10.726980	0.000261	2.607022	0.883283	-0.021039
 878	4.3850e-01	4.9314	10.705599	0.000053	0.529882	0.179529	-0.004276
 879	4.3900e-01	4.9041	10.577311	0.000318	3.179295	1.077174	-0.025658
 880	4.3950e-01	4.8737	10.518299	0.000146	1.462476	0.495500	-0.011802
 881	4.4000e-01	4.8111	10.521720	-0.000008	-0.084781	-0.028725	0.000684
 882	4.4050e-01	4.8015	10.372051	0.000371	3.709177	1.256703	-0.029934
 883	4.4100e-01	4.7004	10.368202	0.000010	0.095379	0.032315	-0.000770
 884	4.4150e-01	4.7132	10.248895	-0.000296	-2.956744	-1.001772	-0.023861
 885	4.4200e-01	4.6635	10.174916	0.000183	1.833393	0.621170	-0.014796
 886	4.4250e-01	4.6314	10.147548	0.000068	0.678250	0.229797	-0.005474
 887	4.4300e-01	4.5849	10.114621	0.000082	0.816019	0.276475	-0.006585
 888	4.4350e-01	4.5352	9.931169	0.000455	4.546392	1.540359	-0.036690
 889	4.4400e-01	4.4838	9.973932	-0.000106	-1.059765	-0.359058	0.008553
 890	4.4450e-01	4.4646	9.867453	0.000264	2.638815	0.894055	-0.021296
 891	4.4500e-01	4.4261	9.716501	0.000374	3.740970	1.267475	-0.030190
 892	4.4550e-01	4.3683	9.692127	0.000060	0.604066	0.204663	-0.004875
 893	4.4600e-01	4.3459	9.627983	0.000159	1.589647	0.538587	-0.012829
 894	4.4650e-01	4.2817	9.548445	0.000197	1.971163	0.667848	-0.015908
 895	4.4700e-01	4.2737	9.471900	0.000190	1.896979	0.642714	-0.015309
 896	4.4750e-01	4.2111	9.440683	0.000077	0.773628	0.262112	-0.006243
 897	4.4800e-01	4.1999	9.316244	0.000308	3.083916	1.044859	-0.024888
 898	4.4850e-01	4.1518	9.239699	0.000190	1.896979	0.642714	-0.015309
 899	4.4900e-01	4.1004	9.206772	0.000082	0.816019	0.276475	-0.006585
 900	4.4950e-01	4.0619	9.101576	0.000261	2.607022	0.883283	-0.021039
 901	4.5000e-01	4.0058	9.049406	0.000129	1.292913	0.438051	-0.010434
 902	4.5050e-01	3.9929	8.963881	0.000212	2.119530	0.718116	-0.017105
 903	4.5100e-01	3.9480	8.890757	0.000181	1.812198	0.613989	-0.014625
 904	4.5150e-01	3.8887	8.842863	0.000119	1.186937	0.402145	-0.009579
 905	4.5200e-01	3.8614	8.827041	0.000039	0.392113	0.132851	-0.003164
 906	4.5250e-01	3.8229	8.743226	0.000208	2.077139	0.703754	-0.016763
 907	4.5300e-01	3.7635	8.643590	0.000247	2.469252	0.836605	-0.019927
 908	4.5350e-01	3.7138	8.603821	0.000099	0.985581	0.333924	-0.007954
 909	4.5400e-01	3.7154	8.458428	-0.000360	-3.603201	-1.220797	-0.029079
 910	4.5450e-01	3.6609	8.395995	0.000155	1.547257	0.524225	-0.012487
 911	4.5500e-01	3.6272	8.343824	0.000129	1.292913	0.438051	-0.010434
 912	4.5550e-01	3.5839	8.197149	0.000363	3.634994	1.231569	-0.029335
 913	4.5600e-01	3.5438	8.148827	0.000120	1.197534	0.405736	-0.009664
 914	4.5650e-01	3.4844	8.104782	0.000109	1.091558	0.369830	-0.008809
 915	4.5700e-01	3.4507	8.047052	0.000143	1.430683	0.484728	-0.011546
 916	4.5750e-01	3.4443	7.906791	0.000348	3.476029	1.177710	-0.028052
 917	4.5800e-01	3.3641	7.887976	0.000047	0.466297	0.157986	-0.003763
 918	4.5850e-01	3.3512	7.790477	0.000242	2.416264	0.818652	-0.019500
 919	4.5900e-01	3.3288	7.689558	0.000250	2.501045	0.847377	-0.020184
 920	4.5950e-01	3.2662	7.665611	0.000059	0.593468	0.201073	-0.004789
 921	4.6000e-01	3.2293	7.529626	0.000337	3.370052	1.141805	-0.027197
 922	4.6050e-01	3.1684	7.489857	0.000099	0.985581	0.333924	-0.007954
 923	4.6100e-01	3.1379	7.424002	0.000163	1.632038	0.552949	-0.013171
 924	4.6150e-01	3.1010	7.322655	0.000251	2.511643	0.850968	-0.020269
 925	4.6200e-01	3.0513	7.274334	0.000120	1.197534	0.405736	-0.009664
 926	4.6250e-01	3.0208	7.177690	0.000240	2.395069	0.811471	-0.019329
 927	4.6300e-01	2.9662	7.103711	0.000183	1.833393	0.621170	-0.014796
 928	4.6350e-01	2.9165	7.101145	0.000006	0.063586	0.021543	-0.000513
 929	4.6400e-01	2.9213	6.925391	-0.000436	-4.355634	-1.475729	-0.035151
 930	4.6450e-01	2.8507	6.836018	0.000221	2.214909	0.750431	-0.017875
 931	4.6500e-01	2.8154	6.811643	0.000060	0.604066	0.204663	-0.004875
 932	4.6550e-01	2.7866	6.749637	0.000154	1.536659	0.520634	-0.012401
 933	4.6600e-01	2.7609	6.636317	0.000281	2.808377	0.951504	-0.022664
 934	4.6650e-01	2.6662	6.555923	0.000199	1.992358	0.675029	-0.016079
 935	4.6700e-01	2.6486	6.509312	0.000116	1.155144	0.391373	-0.009322
 936	4.6750e-01	2.6229	6.392143	0.000290	2.903756	0.983819	-0.023434
 937	4.6800e-01	2.5732	6.360071	0.000079	0.794824	0.269294	-0.006414
 938	4.6850e-01	2.5523	6.222375	0.000341	3.412443	1.156167	-0.027539
 939	4.6900e-01	2.5010	6.145830	0.000190	1.896979	0.642714	-0.015309
 940	4.6950e-01	2.4593	6.068430	0.000192	1.918175	0.649895	-0.015480
 941	4.7000e-01	2.3983	6.008990	0.000147	1.473073	0.499091	-0.011888
 942	4.7050e-01	2.3678	5.960241	0.000121	1.208132	0.409326	-0.009750
 943	4.7100e-01	2.3245	5.813138	0.000365	3.645591	1.235160	-0.029421
 944	4.7150e-01	2.3101	5.808862	0.000011	0.105976	0.035906	-0.000855
 945	4.7200e-01	2.2507	5.678436	0.000323	3.232283	1.095127	-0.026085
 946	4.7250e-01	2.2170	5.573668	0.000260	2.596424	0.879692	-0.020954
 947	4.7300e-01	2.1866	5.471038	0.000254	2.543436	0.861739	-0.020526
 948	4.7350e-01	2.1208	5.393638	0.000192	1.918175	0.649895	-0.015480
 949	4.7400e-01	2.0951	5.385513	0.000020	0.201355	0.068221	-0.001625
 950	4.7450e-01	2.0614	5.249528	0.000337	3.370052	1.141805	-0.027197
 951	4.7500e-01	2.0117	5.187950	0.000153	1.526061	0.517044	-0.012316
 952	4.7550e-01	1.9604	5.173411	0.000036	0.360320	0.122080	-0.002908
 953	4.7600e-01	1.9379	5.034005	0.000345	3.454834	1.170529	-0.027881
 954	4.7650e-01	1.8962	4.942065	0.000228	2.278495	0.771975	-0.018388
 955	4.7700e-01	1.8834	4.852692	0.000221	2.214909	0.750431	-0.017875
 956	4.7750e-01	1.8336	4.754765	0.000243	2.426862	0.822243	-0.019585
 957	4.7800e-01	1.7855	4.664964	0.000223	2.225506	0.754022	-0.017960
 958	4.7850e-01	1.7422	4.617925	0.000117	1.165741	0.394964	-0.009408
 959	4.7900e-01	1.7117	4.516151	0.000252	2.522241	0.854558	-0.020355
 960	4.7950e-01	1.6764	4.459276	0.000141	1.409487	0.477547	-0.011375
 961	4.8000e-01	1.6123	4.382304	0.000191	1.907577	0.646305	-0.015395
 962	4.8050e-01	1.5689	4.234345	0.000367	3.666787	1.242341	-0.029592
 963	4.8100e-01	1.5561	4.174906	0.000147	1.473073	0.499091	-0.011888
 964	4.8150e-01	1.5080	4.065861	0.000270	2.702401	0.915598	-0.021809
 965	4.8200e-01	1.4759	3.970073	0.000237	2.373873	0.804290	-0.019158
 966	4.8250e-01	1.4326	3.897804	0.000179	1.791003	0.606808	-0.014454
 967	4.8300e-01	1.3780	3.819549	0.000194	1.939370	0.657076	-0.015651
 968	4.8350e-01	1.3315	3.727182	0.000229	2.289092	0.775565	-0.018473
 969	4.8400e-01	1.2850	3.729748	-0.000006	-0.063586	-0.021543	0.000513
 970	4.8450e-01	1.2529	3.561691	0.000416	4.164876	1.411098	-0.033611
 971	4.8500e-01	1.2064	3.503962	0.000143	1.430683	0.484728	-0.011546
 972	4.8550e-01	1.1711	3.423996	0.000198	1.981760	0.671439	-0.015993
 973	4.8600e-01	1.1438	3.316662	0.000266	2.660010	0.901236	-0.021467
 974	4.8650e-01	1.1101	3.190940	0.000312	3.115709	1.055631	-0.025144
 975	4.8700e-01	1.0700	3.171697	0.000048	0.476894	0.161576	-0.003849
 976	4.8750e-01	1.0203	3.028442	0.000355	3.550213	1.202845	-0.028651
 977	4.8800e-01	0.9770	2.965581	0.000156	1.557854	0.527815	-0.012572
 978	4.8850e-01	0.9449	2.850122	0.000286	2.861365	0.969457	-0.023092
 979	4.8900e-01	0.8936	2.774005	0.000189	1.886382	0.639123	-0.015223
 980	4.8950e-01	0.8551	2.667954	0.000263	2.628217	0.890464	-0.021210
 981	4.9000e-01	0.8021	2.593547	0.000184	1.843991	0.624761	-0.014881
 982	4.9050e-01	0.7845	2.484930	0.000269	2.691803	0.912008	-0.021723
 983	4.9100e-01	0.7331	2.386149	0.000245	2.448057	0.829424	-0.019756
 984	4.9150e-01	0.7123	2.327992	0.000144	1.441280	0.488319	-0.011631
 985	4.9200e-01	0.6273	2.200560	0.000316	3.158099	1.069993	-0.025486
 986	4.9250e-01	0.6257	2.176613	0.000059	0.593468	0.201073	-0.004789
 987	4.9300e-01	0.5936	1.995727	0.000448	4.482806	1.518816	-0.036177
 988	4.9350e-01	0.5438	1.983754	0.000030	0.296734	0.100536	-0.002395
 989	4.9400e-01	0.5053	1.837933	0.000361	3.613798	1.224388	-0.029164
 990	4.9450e-01	0.4636	1.742145	0.000237	2.373873	0.804290	-0.019158
 991	4.9500e-01	0.4091	1.702804	0.000097	0.974984	0.330333	-0.007868
 992	4.9550e-01	0.3626	1.589056	0.000282	2.818975	0.955094	-0.022750
 993	4.9600e-01	0.3321	1.516359	0.000180	1.801600	0.610399	-0.014539
 994	4.9650e-01	0.2872	1.406887	0.000271	2.712998	0.919189	-0.021894
 995	4.9700e-01	0.2631	1.314520	0.000229	2.289092	0.775565	-0.018473
 996	4.9750e-01	0.2037	1.198206	0.000288	2.882561	0.976638	-0.023263
 997	4.9800e-01	0.1829	1.105839	0.000229	2.289092	0.775565	-0.018473
 998	4.9850e-01	0.1251	0.963440	0.000353	3.529017	1.195663	-0.028480
 999	4.9900e-01	0.0963	0.868935	0.000234	2.342080	0.793518	-0.018901
1000	4.9950e-01	0.0449	0.788969	0.000198	1.981760	0.671439	-0.015993
1001	5.0000e-01	0.0561	0.651701	-0.000340	-3.401845	-1.152576	-0.027454
1002	5.0050e-01	-0.0209	0.661536	-0.000024	-0.243746	-0.082583	0.001967
1003	5.0100e-01	-0.0513	0.515288	0.000362	3.624396	1.227979	-0.029250
1004	5.0150e-01	-0.0898	0.468250	0.000117	1.165741	0.394964	-0.009408
1005	5.0200e-01	-0.1460	0.327133	0.000350	3.497224	1.184892	-0.028223
1006	5.0250e-01	-0.1829	0.244174	0.000206	2.055944	0.696573	-0.016592
1007	5.0300e-01	-0.2086	0.151807	0.000229	2.289092	0.775565	-0.018473
1008	5.0350e-01	-0.2519	0.003421	0.000368	3.677384	1.245932	-0.029677
1009	5.0400e-01	-0.2952	-0.014539	0.000045	0.445101	0.150804	-0.003592
1010	5.0450e-01	-0.3513	-0.114176	0.000247	2.469252	0.836605	-0.019927
1011	5.0500e-01	-0.3914	-0.271970	0.000391	3.910533	1.324924	-0.031559
1012	5.0550e-01	-0.4171	-0.335686	0.000158	1.579050	0.534997	-0.012743
1013	5.0600e-01	-0.4412	-0.439171	0.000256	2.564631	0.868921	-0.020697
1014	5.0650e-01	-0.4989	-0.527690	0.000219	2.193713	0.743250	-0.017704
1015	5.0700e-01	-0.5390	-0.658971	0.000325	3.253478	1.102308	-0.026256
1016	5.0750e-01	-0.5695	-0.701733	0.000106	1.059765	0.359058	-0.008553
1017	5.0800e-01	-0.6080	-0.827455	0.000312	3.115709	1.055631	-0.025144
1018	5.0850e-01	-0.6513	-0.913835	0.000214	2.140725	0.725297	-0.017276
1019	5.0900e-01	-0.6946	-1.053241	0.000345	3.454834	1.170529	-0.027881
1020	5.0950e-01	-0.7508	-1.140049	0.000215	2.151323	0.728888	-0.017362
1021	5.1000e-01	-0.7845	-1.222581	0.000205	2.045346	0.692982	-0.016506
1022	5.1050e-01	-0.8294	-1.294422	0.000178	1.780405	0.603218	-0.014368
1023	5.1100e-01	-0.8342	-1.406887	0.000279	2.787182	0.944323	-0.022493
1024	5.1150e-01	-0.8823	-1.529616	0.000304	3.041525	1.030497	-0.024546
1025	5.1200e-01	-0.9305	-1.626687	0.000241	2.405666	0.815062	-0.019414
1026	5.1250e-01	-0.9722	-1.723330	0.000240	2.395069	0.811471	-0.019329
1027	5.1300e-01	-1.0107	-1.859742	0.000338	3.380650	1.145395	-0.027282
1028	5.1350e-01	-1.0620	-1.899939	0.000100	0.996179	0.337515	-0.008039
1029	5.1400e-01	-1.1053	-1.954248	0.000135	1.345901	0.456004	-0.010862
1030	5.1450e-01	-1.1438	-2.089805	0.000336	3.359455	1.138214	-0.027111
1031	5.1500e-01	-1.1615	-2.284374	0.000482	4.821930	1.633714	-0.038914
1032	5.1550e-01	-1.1919	-2.334834	0.000125	1.250523	0.423689	-0.010092
1033	5.1600e-01	-1.2240	-2.420787	0.000213	2.130128	0.721707	-0.017191
1034	5.1650e-01	-1.2818	-2.486641	0.000163	1.632038	0.552949	-0.013171
1035	5.1700e-01	-1.3395	-2.609369	0.000304	3.041525	1.030497	-0.024546
1036	5.1750e-01	-1.3764	-2.682921	0.000182	1.822796	0.617580	-0.014710
1037	5.1800e-01	-1.4053	-2.794531	0.000277	2.765986	0.937142	-0.022322
1038	5.1850e-01	-1.4775	-2.904431	0.000272	2.723596	0.922779	-0.021980
1039	5.1900e-01	-1.5016	-2.999791	0.000236	2.363276	0.800700	-0.019072
1040	5.1950e-01	-1.5401	-3.019034	0.000048	0.476894	0.161576	-0.003849
1041	5.2000e-01	-1.5721	-3.176401	0.000390	3.899935	1.321334	-0.031473
1042	5.2050e-01	-1.5866	-3.273471	0.000241	2.405666	0.815062	-0.019414
1043	5.2100e-01	-1.6652	-3.366266	0.000230	2.299690	0.779156	-0.018559
1044	5.2150e-01	-1.7085	-3.429982	0.000158	1.579050	0.534997	-0.012743
1045	5.2200e-01	-1.7246	-3.516363	0.000214	2.140725	0.725297	-0.017276
1046	5.2250e-01	-1.7566	-3.659617	0.000355	3.550213	1.202845	-0.028651
1047	5.2300e-01	-1.8160	-3.737445	0.000193	1.928772	0.653486	-0.015566
1048	5.2350e-01	-1.8625	-3.803727	0.000164	1.642636	0.556540	-0.013256
1049	5.2400e-01	-1.9090	-3.946126	0.000353	3.529017	1.195663	-0.028480
1050	5.2450e-01	-1.9411	-3.968790	0.000056	0.561675	0.190301	-0.004533
1051	5.2500e-01	-1.9540	-4.107768	0.000344	3.444236	1.166939	-0.027796
1052	5.2550e-01	-2.0149	-4.251023	0.000355	3.550213	1.202845	-0.028651
1053	5.2600e-01	-2.0582	-4.283950	0.000082	0.816019	0.276475	-0.006585
1054	5.2650e-01	-2.1176	-4.343818	0.000148	1.483671	0.502681	-0.011974
1055	5.2700e-01	-2.1529	-4.472960	0.000320	3.200490	1.084355	-0.025829
1056	5.2750e-01	-2.1850	-4.498618	0.000064	0.635859	0.215435	-0.005132
1057	5.2800e-01	-2.1962	-4.666247	0.000415	4.154279	1.407508	-0.033526
1058	5.2850e-01	-2.2620	-4.753483	0.000216	2.161920	0.732478	-0.017447
1059	5.2900e-01	-2.2892	-4.825324	0.000178	1.780405	0.603218	-0.014368
1060	5.2950e-01	-2.3486	-4.925388	0.000248	2.479850	0.840196	-0.020013
1061	5.3000e-01	-2.3646	-4.980124	0.000136	1.356499	0.459594	-0.010947
1062	5.3050e-01	-2.4144	-5.128082	0.000367	3.666787	1.242341	-0.029592
1063	5.3100e-01	-2.4481	-5.173411	0.000112	1.123351	0.380602	-0.009066
1064	5.3150e-01	-2.5235	-5.268771	0.000236	2.363276	0.800700	-0.019072
1065	5.3200e-01	-2.5411	-5.350020	0.000201	2.013553	0.682210	-0.016250
1066	5.3250e-01	-2.5940	-5.418867	0.000171	1.706222	0.578084	-0.013770
1067	5.3300e-01	-2.6085	-5.533471	0.000284	2.840170	0.962276	-0.022921
1068	5.3350e-01	-2.6678	-5.625410	0.000228	2.278495	0.771975	-0.018388
1069	5.3400e-01	-2.6935	-5.689127	0.000158	1.579050	0.534997	-0.012743
1070	5.3450e-01	-2.7224	-5.802020	0.000280	2.797779	0.947913	-0.022579
1071	5.3500e-01	-2.7673	-5.889683	0.000217	2.172518	0.736069	-0.017533
1072	5.3550e-01	-2.8363	-5.935011	0.000112	1.123351	0.380602	-0.009066
1073	5.3600e-01	-2.8620	-6.003004	0.000169	1.685026	0.570902	-0.013598
1074	5.3650e-01	-2.9101	-6.115897	0.000280	2.797779	0.947913	-0.022579
1075	5.3700e-01	-2.9502	-6.184744	0.000171	1.706222	0.578084	-0.013770
1076	5.3750e-01	-2.9710	-6.295927	0.000276	2.755389	0.933551	-0.022237
1077	5.3800e-01	-3.0384	-6.370334	0.000184	1.843991	0.624761	-0.014881
1078	5.3850e-01	-3.0641	-6.477668	0.000266	2.660010	0.901236	-0.021467
1079	5.3900e-01	-3.0946	-6.552502	0.000185	1.854589	0.628352	-0.014967
1080	5.3950e-01	-3.1443	-6.617929	0.000162	1.621440	0.549359	-0.013085
1081	5.4000e-01	-3.1764	-6.747072	0.000320	3.200490	1.084355	-0.025829
1082	5.4050e-01	-3.2037	-6.807367	0.000149	1.494269	0.506272	-0.012059
1083	5.4100e-01	-3.2470	-6.913418	0.000263	2.628217	0.890464	-0.021210
1084	5.4150e-01	-3.3015	-6.939075	0.000064	0.635859	0.215435	-0.005132
1085	5.4200e-01	-3.3272	-6.986114	0.000117	1.165741	0.394964	-0.009408
1086	5.4250e-01	-3.3753	-7.121244	0.000335	3.348857	1.134624	-0.027026
1087	5.4300e-01	-3.4234	-7.200354	0.000196	1.960565	0.664257	-0.015822
1088	5.4350e-01	-3.4539	-7.282031	0.000202	2.024151	0.685801	-0.016335
1089	5.4400e-01	-3.5069	-7.381240	0.000246	2.458655	0.833015	-0.019842
1090	5.4450e-01	-3.5678	-7.359859	-0.000053	-0.529882	-0.179529	0.004276
1091	5.4500e-01	-3.5630	-7.554000	-0.000481	-4.811333	-1.630124	-0.038828
1092	5.4550e-01	-3.6224	-7.533047	-0.000052	-0.519285	-0.175938	0.004191
1093	5.4600e-01	-3.6528	-7.705380	0.000427	4.270853	1.447004	-0.034467
1094	5.4650e-01	-3.7042	-7.742156	0.000091	0.911398	0.308790	-0.007355
1095	5.4700e-01	-3.7619	-7.814852	0.000180	1.801600	0.610399	-0.014539
1096	5.4750e-01	-3.7748	-7.895245	0.000199	1.992358	0.675029	-0.016079
1097	5.4800e-01	-3.8133	-7.983764	0.000219	2.193713	0.743250	-0.017704
1098	5.4850e-01	-3.8614	-8.030803	0.000117	1.165741	0.394964	-0.009408
1099	5.4900e-01	-3.9015	-8.159518	0.000319	3.189892	1.080765	-0.025743
1100	5.4950e-01	-3.9223	-8.229648	0.000174	1.738014	0.588855	-0.014026
1101	5.5000e-01	-3.9865	-8.263431	0.000084	0.837214	0.283656	-0.006756
1102	5.5050e-01	-3.9994	-8.404975	0.000351	3.507822	1.188482	-0.028309
1103	5.5100e-01	-4.0764	-8.416948	0.000030	0.296734	0.100536	-0.002395
1104	5.5150e-01	-4.0699	-8.564479	-0.000366	-3.656189	-1.238750	-0.029506
1105	5.5200e-01	-4.1309	-8.605531	0.000102	1.017374	0.344696	-0.008210
1106	5.5250e-01	-4.1774	-8.683359	0.000193	1.928772	0.653486	-0.015566
1107	5.5300e-01	-4.2015	-8.788555	0.000261	2.607022	0.883283	-0.021039
1108	5.5350e-01	-4.2721	-8.847139	0.000145	1.451878	0.491910	-0.011717
1109	5.5400e-01	-4.3042	-8.891612	0.000110	1.102156	0.373420	-0.008895
1110	5.5450e-01	-4.3491	-8.969868	0.000194	1.939370	0.657076	-0.015651
1111	5.5500e-01	-4.3747	-9.053255	0.000207	2.066542	0.700163	-0.016677
1112	5.5550e-01	-4.4165	-9.123813	0.000175	1.748612	0.592446	-0.014112
1113	5.5600e-01	-4.4678	-9.199503	0.000188	1.875784	0.635533	-0.015138
1114	5.5650e-01	-4.5015	-9.313678	0.000283	2.829572	0.958685	-0.022835
1115	5.5700e-01	-4.5384	-9.341474	0.000069	0.688847	0.233388	-0.005559
1116	5.5750e-01	-4.5881	-9.383381	0.000104	1.038570	0.351877	-0.008381
1117	5.5800e-01	-4.6186	-9.479597	0.000238	2.384471	0.807881	-0.019243
1118	5.5850e-01	-4.6394	-9.605319	0.000312	3.115709	1.055631	-0.025144
1119	5.5900e-01	-4.6795	-9.699396	0.000233	2.331483	0.789928	-0.018816
1120	5.5950e-01	-4.7341	-9.726337	0.000067	0.667652	0.226207	-0.005388
1121	5.6000e-01	-4.7726	-9.812290	0.000213	2.130128	0.721707	-0.017191
1122	5.6050e-01	-4.8015	-9.885841	0.000182	1.822796	0.617580	-0.014710
1123	5.6100e-01	-4.8448	-9.945709	0.000148	1.483671	0.502681	-0.011974
1124	5.6150e-01	-4.8817	-9.985050	0.000097	0.974984	0.330333	-0.007868
1125	5.6200e-01	-4.9475	-10.080838	0.000237	2.373873	0.804290	-0.019158
1126	5.6250e-01	-4.9539	-10.150541	0.000173	1.727417	0.585265	-0.013941
1127	5.6300e-01	-5.0020	-10.196725	0.000114	1.144546	0.387783	-0.009237
1128	5.6350e-01	-5.0533	-10.308762	0.000278	2.776584	0.940732	-0.022408
1129	5.6400e-01	-5.1223	-10.345111	0.000090	0.900800	0.305199	-0.007270
1130	5.6450e-01	-5.1335	-10.428925	0.000208	2.077139	0.703754	-0.016763
1131	5.6500e-01	-5.2122	-10.477247	0.000120	1.197534	0.405736	-0.009664
1132	5.6550e-01	-5.2282	-10.568331	0.000226	2.257299	0.764794	-0.018217
1133	5.6600e-01	-5.2683	-10.635896	0.000167	1.674429	0.567312	-0.013513
1134	5.6650e-01	-5.2876	-10.739381	0.000256	2.564631	0.868921	-0.020697
1135	5.6700e-01	-5.3244	-10.741519	0.000005	0.052988	0.017953	-0.000428
1136	5.6750e-01	-5.3822	-10.870662	0.000320	3.200490	1.084355	-0.025829
1137	5.6800e-01	-5.4271	-10.901451	0.000076	0.763031	0.258522	-0.006158
1138	5.6850e-01	-5.4175	-11.012634	-0.000276	-2.755389	-0.933551	-0.022237
1139	5.6900e-01	-5.4897	-11.044278	0.000078	0.784226	0.265703	-0.006329
1140	5.6950e-01	-5.5442	-11.128520	0.000209	2.087737	0.707344	-0.016848
1141	5.7000e-01	-5.5651	-11.179835	0.000127	1.271718	0.430870	-0.010263
1142	5.7050e-01	-5.5956	-11.329076	0.000370	3.698580	1.253113	-0.029848
1143	5.7100e-01	-5.6662	-11.318386	-0.000026	-0.264941	-0.089765	0.002138
1144	5.7150e-01	-5.6966	-11.387661	0.000172	1.716819	0.581674	-0.013855
1145	5.7200e-01	-5.7351	-11.489436	0.000252	2.522241	0.854558	-0.020355
1146	5.7250e-01	-5.7752	-11.515949	0.000066	0.657054	0.222616	-0.005303
1147	5.7300e-01	-5.8234	-11.606178	0.000224	2.236104	0.757613	-0.018046
1148	5.7350e-01	-5.8378	-11.689992	0.000208	2.077139	0.703754	-0.016763
1149	5.7400e-01	-5.9084	-11.720354	0.000075	0.752433	0.254931	-0.006072
1150	5.7450e-01	-5.9421	-11.815286	0.000235	2.352678	0.797109	-0.018987
1151	5.7500e-01	-5.9822	-11.864891	0.000123	1.229327	0.416507	-0.009921
1152	5.7550e-01	-6.0207	-11.958113	0.000231	2.310288	0.782747	-0.018644
1153	5.7600e-01	-6.0447	-12.063737	0.000262	2.617619	0.886873	-0.021125
1154	5.7650e-01	-6.1105	-12.085973	0.000055	0.551078	0.186710	-0.004447
1155	5.7700e-01	-6.1314	-12.163801	0.000193	1.928772	0.653486	-0.015566
1156	5.7750e-01	-6.1795	-12.189886	0.000065	0.646457	0.219025	-0.005217
1157	5.7800e-01	-6.2148	-12.270707	0.000200	2.002956	0.678620	-0.016164
1158	5.7850e-01	-6.2677	-12.337844	0.000166	1.663831	0.563721	-0.013427
1159	5.7900e-01	-6.2998	-12.405837	0.000169	1.685026	0.570902	-0.013598
1160	5.7950e-01	-6.3608	-12.485803	0.000198	1.981760	0.671439	-0.015993
1161	5.8000e-01	-6.3865	-12.538828	0.000131	1.314109	0.445232	-0.010605
1162	5.8050e-01	-6.4025	-12.609814	0.000176	1.759210	0.596036	-0.014197
1163	5.8100e-01	-6.3993	-12.763332	-0.000380	-3.804556	-1.289018	-0.030703
1164	5.8150e-01	-6.4891	-12.728694	-0.000086	-0.858410	-0.290837	0.006928
1165	5.8200e-01	-6.5469	-12.830041	0.000251	2.511643	0.850968	-0.020269
1166	5.8250e-01	-6.5677	-12.870238	0.000100	0.996179	0.337515	-0.008039
1167	5.8300e-01	-6.6207	-12.937375	0.000166	1.663831	0.563721	-0.013427
1168	5.8350e-01	-6.6431	-13.069939	0.000329	3.285271	1.113080	-0.026513
1169	5.8400e-01	-6.7121	-13.021617	-0.000120	-1.197534	-0.405736	0.009664
1170	5.8450e-01	-6.7490	-13.069511	0.000119	1.186937	0.402145	-0.009579
1171	5.8500e-01	-6.7586	-13.189246	0.000297	2.967342	1.005363	-0.023947
1172	5.8550e-01	-6.8164	-13.275627	0.000214	2.140725	0.725297	-0.017276
1173	5.8600e-01	-6.8565	-13.281186	0.000014	0.137769	0.046678	-0.001112
1174	5.8650e-01	-6.8838	-13.397072	0.000287	2.871963	0.973047	-0.023177
1175	5.8700e-01	-6.9511	-13.418026	0.000052	0.519285	0.175938	-0.004191
1176	5.8750e-01	-6.9961	-13.485163	0.000166	1.663831	0.563721	-0.013427
1177	5.8800e-01	-7.0089	-13.584800	0.000247	2.469252	0.836605	-0.019927
1178	5.8850e-01	-7.0506	-13.622003	0.000092	0.921995	0.312381	-0.007441
1179	5.8900e-01	-7.0843	-13.729337	0.000266	2.660010	0.901236	-0.021467
1180	5.8950e-01	-7.1388	-13.760554	0.000077	0.773628	0.262112	-0.006243
1181	5.9000e-01	-7.1854	-13.824698	0.000159	1.589647	0.538587	-0.012829
1182	5.9050e-01	-7.2255	-13.875157	0.000125	1.250523	0.423689	-0.010092
1183	5.9100e-01	-7.2399	-13.959827	0.000210	2.098335	0.710935	-0.016934
1184	5.9150e-01	-7.3041	-13.988906	0.000072	0.720640	0.244159	-0.005816
1185	5.9200e-01	-7.3346	-14.078279	0.000221	2.214909	0.750431	-0.017875
1186	5.9250e-01	-7.4003	-14.114200	0.000089	0.890203	0.301609	-0.007184
1187	5.9300e-01	-7.4356	-14.207422	0.000231	2.310288	0.782747	-0.018644
1188	5.9350e-01	-7.4501	-14.253178	0.000113	1.133948	0.384192	-0.009151
1189	5.9400e-01	-7.4854	-14.347683	0.000234	2.342080	0.793518	-0.018901
1190	5.9450e-01	-7.5479	-14.386597	0.000096	0.964386	0.326743	-0.007783
1191	5.9500e-01	-7.5335	-14.466991	-0.000199	-1.992358	-0.675029	-0.016079
1192	5.9550e-01	-7.5912	-14.539259	0.000179	1.791003	0.606808	-0.014454
1193	5.9600e-01	-7.6538	-14.619225	0.000198	1.981760	0.671439	-0.015993
1194	5.9650e-01	-7.7019	-14.607252	-0.000030	-0.296734	-0.100536	0.002395
1195	5.9700e-01	-7.7324	-14.691922	0.000210	2.098335	0.710935	-0.016934
1196	5.9750e-01	-7.7821	-14.769749	0.000193	1.928772	0.653486	-0.015566
1197	5.9800e-01	-7.8174	-14.841590	0.000178	1.780405	0.603218	-0.014368
1198	5.9850e-01	-7.8736	-14.902741	0.000152	1.515464	0.513453	-0.012230
1199	5.9900e-01	-7.8912	-14.909583	0.000017	0.169562	0.057449	-0.001368
1200	5.9950e-01	-7.9522	-14.984417	0.000185	1.854589	0.628352	-0.014967
1201	6.0000e-01	-7.9891	-15.039153	0.000136	1.356499	0.459594	-0.010947
1202	6.0050e-01	-8.0083	-15.131948	0.000230	2.299690	0.779156	-0.018559
1203	6.0100e-01	-8.0516	-15.211914	0.000198	1.981760	0.671439	-0.015993
1204	6.0150e-01	-8.1014	-15.240137	0.000070	0.699445	0.236978	-0.005645
1205	6.0200e-01	-8.1575	-15.272637	0.000081	0.805421	0.272884	-0.006500
1206	6.0250e-01	-8.1848	-15.399214	0.000314	3.136904	1.062812	-0.025315
1207	6.0300e-01	-8.2297	-15.409477	0.000025	0.254344	0.086174	-0.002053
1208	6.0350e-01	-8.2538	-15.511679	0.000253	2.532838	0.858149	-0.020440
1209	6.0400e-01	-8.3083	-15.509969	-0.000004	-0.042391	-0.014362	0.000342
1210	6.0450e-01	-8.3260	-15.617303	0.000266	2.660010	0.901236	-0.021467
1211	6.0500e-01	-8.3741	-15.680591	0.000157	1.568452	0.531406	-0.012658
1212	6.0550e-01	-8.4318	-15.723781	0.000107	1.070363	0.362649	-0.008638
1213	6.0600e-01	-8.4591	-15.803320	0.000197	1.971163	0.667848	-0.015908
1214	6.0650e-01	-8.5089	-15.837957	0.000086	0.858410	0.290837	-0.006928
1215	6.0700e-01	-8.5329	-15.921344	0.000207	2.066542	0.700163	-0.016677
1216	6.0750e-01	-8.5859	-15.984633	0.000157	1.568452	0.531406	-0.012658
1217	6.0800e-01	-8.6244	-15.989337	0.000012	0.116574	0.039496	-0.000941
1218	6.0850e-01	-8.6500	-16.088118	0.000245	2.448057	0.829424	-0.019756
1219	6.0900e-01	-8.6965	-16.174498	0.000214	2.140725	0.725297	-0.017276
1220	6.0950e-01	-8.7383	-16.244201	0.000173	1.727417	0.585265	-0.013941
1221	6.1000e-01	-8.7960	-16.272852	0.000071	0.710043	0.240569	-0.005730
1222	6.1050e-01	-8.7992	-16.324167	0.000127	1.271718	0.430870	-0.010263
1223	6.1100e-01	-8.8650	-16.389594	0.000162	1.621440	0.549359	-0.013085
1224	6.1150e-01	-8.9067	-16.431074	0.000103	1.027972	0.348286	-0.008296
1225	6.1200e-01	-8.9404	-16.545677	0.000284	2.840170	0.962276	-0.022921
1226	6.1250e-01	-8.9468	-16.619656	0.000183	1.833393	0.621170	-0.014796
1227	6.1300e-01	-9.0174	-16.660708	0.000102	1.017374	0.344696	-0.008210
1228	6.1350e-01	-9.0382	-16.676530	0.000039	0.392113	0.132851	-0.003164
1229	6.1400e-01	-9.1072	-16.712879	0.000090	0.900800	0.305199	-0.007270
1230	6.1450e-01	-9.1185	-16.858699	0.000361	3.613798	1.224388	-0.029164
1231	6.1500e-01	-9.1618	-16.856561	-0.000005	-0.052988	-0.017953	0.000428
1232	6.1550e-01	-9.2147	-16.924981	0.000170	1.695624	0.574493	-0.013684
1233	6.1600e-01	-9.2516	-17.006657	0.000202	2.024151	0.685801	-0.016335
1234	6.1650e-01	-9.3046	-17.026328	0.000049	0.487492	0.165167	-0.003934
1235	6.1700e-01	-9.3254	-17.111853	0.000212	2.119530	0.718116	-0.017105
1236	6.1750e-01	-9.3912	-17.128958	0.000042	0.423906	0.143623	-0.003421
1237	6.1800e-01	-9.4201	-17.213200	0.000209	2.087737	0.707344	-0.016848
1238	6.1850e-01	-9.4682	-17.244844	0.000078	0.784226	0.265703	-0.006329
1239	6.1900e-01	-9.5003	-17.335073	0.000224	2.236104	0.757613	-0.018046
1240	6.1950e-01	-9.5372	-17.361159	0.000065	0.646457	0.219025	-0.005217
1241	6.2000e-01	-9.5821	-17.470203	0.000270	2.702401	0.915598	-0.021809
1242	6.2050e-01	-9.6158	-17.503130	0.000082	0.816019	0.276475	-0.006585
1243	6.2100e-01	-9.6414	-17.578820	0.000188	1.875784	0.635533	-0.015138
1244	6.2150e-01	-9.6912	-17.587800	0.000022	0.222551	0.075402	-0.001796
1245	6.2200e-01	-9.7249	-17.681450	0.000232	2.320885	0.786337	-0.018730
1246	6.2250e-01	-9.7970	-17.672470	-0.000022	-0.222551	-0.075402	0.001796
1247	6.2300e-01	-9.8099	-17.802468	0.000322	3.221685	1.091537	-0.026000
1248	6.2350e-01	-9.8356	-17.852500	0.000124	1.239925	0.420098	-0.010006
1249	6.2400e-01	-9.8885	-17.940591	0.000218	2.183116	0.739660	-0.017618
1250	6.2450e-01	-9.9607	-17.912368	-0.000070	-0.699445	-0.236978	0.005645
1251	6.2500e-01	-9.9559	-18.043648	-0.000325	-3.253478	-1.102308	-0.026256
1252	6.2550e-01	-10.0361	-18.035096	-0.000021	-0.211953	-0.071812	0.001711
1253	6.2600e-01	-10.0650	-18.144568	0.000271	2.712998	0.919189	-0.021894
1254	6.2650e-01	-10.1035	-18.147989	0.000008	0.084781	0.028725	-0.000684
1255	6.2700e-01	-10.1355	-18.208712	0.000150	1.504866	0.509862	-0.012145
1256	6.2750e-01	-10.1660	-18.319894	0.000276	2.755389	0.933551	-0.022237
1257	6.2800e-01	-10.2222	-18.350256	0.000075	0.752433	0.254931	-0.006072
1258	6.2850e-01	-10.2751	-18.346407	-0.000010	-0.095379	-0.032315	0.000770
1259	6.2900e-01	-10.2912	-18.472557	0.000313	3.126307	1.059221	-0.025230
1260	6.2950e-01	-10.3056	-18.570483	0.000243	2.426862	0.822243	-0.019585
1261	6.3000e-01	-10.3553	-18.632061	0.000153	1.526061	0.517044	-0.012316
1262	6.3050e-01	-10.4051	-18.664133	0.000079	0.794824	0.269294	-0.006414
1263	6.3100e-01	-10.4452	-18.735546	0.000177	1.769807	0.599627	-0.014283
1264	6.3150e-01	-10.4949	-18.731698	-0.000010	-0.095379	-0.032315	0.000770
1265	6.3200e-01	-10.5414	-18.789427	0.000143	1.430683	0.484728	-0.011546
1266	6.3250e-01	-10.5687	-18.888636	0.000246	2.458655	0.833015	-0.019842
1267	6.3300e-01	-10.6409	-18.916432	0.000069	0.688847	0.233388	-0.005559
1268	6.3350e-01	-10.6553	-18.957056	0.000101	1.006777	0.341105	-0.008125
1269	6.3400e-01	-10.6890	-19.037877	0.000200	2.002956	0.678620	-0.016164
1270	6.3450e-01	-10.7179	-19.093469	0.000138	1.377694	0.466776	-0.011118
1271	6.3500e-01	-10.7740	-19.144784	0.000127	1.271718	0.430870	-0.010263
1272	6.3550e-01	-10.8238	-19.192678	0.000119	1.186937	0.402145	-0.009579
1273	6.3600e-01	-10.8526	-19.282479	0.000223	2.225506	0.754022	-0.017960
1274	6.3650e-01	-10.8943	-19.270078	-0.000031	-0.307332	-0.104127	0.002480
1275	6.3700e-01	-10.9328	-19.403924	0.000332	3.317064	1.123852	-0.026769
1276	6.3750e-01	-10.9826	-19.435996	0.000079	0.794824	0.269294	-0.006414
1277	6.3800e-01	-11.0195	-19.520239	0.000209	2.087737	0.707344	-0.016848
1278	6.3850e-01	-11.0580	-19.543758	0.000058	0.582871	0.197482	-0.004704
1279	6.3900e-01	-11.0885	-19.629711	0.000213	2.130128	0.721707	-0.017191
1280	6.3950e-01	-11.1350	-19.632276	0.000006	0.063586	0.021543	-0.000513
1281	6.4000e-01	-11.1959	-19.670335	0.000094	0.943191	0.319562	-0.007612
1282	6.4050e-01	-11.2328	-19.717374	0.000117	1.165741	0.394964	-0.009408
1283	6.4100e-01	-11.2633	-19.800761	0.000207	2.066542	0.700163	-0.016677
1284	6.4150e-01	-11.2778	-19.852503	0.000128	1.282316	0.434460	-0.010349
1285	6.4200e-01	-11.3403	-19.908522	0.000139	1.388292	0.470366	-0.011204
1286	6.4250e-01	-11.3676	-19.978653	0.000174	1.738014	0.588855	-0.014026
1287	6.4300e-01	-11.3917	-20.049211	0.000175	1.748612	0.592446	-0.014112
1288	6.4350e-01	-11.4494	-20.103519	0.000135	1.345901	0.456004	-0.010862
1289	6.4400e-01	-11.4975	-20.119342	0.000039	0.392113	0.132851	-0.003164
1290	6.4450e-01	-11.5601	-20.169801	0.000125	1.250523	0.423689	-0.010092
1291	6.4500e-01	-11.5729	-20.186051	0.000040	0.402711	0.136442	-0.003250
1292	6.4550e-01	-11.6243	-20.278846	0.000230	2.299690	0.779156	-0.018559
1293	6.4600e-01	-11.6628	-20.341707	0.000156	1.557854	0.527815	-0.012572
1294	6.4650e-01	-11.6981	-20.426804	0.000211	2.108932	0.714526	-0.017019
1295	6.4700e-01	-11.7462	-20.488382	0.000153	1.526061	0.517044	-0.012316
1296	6.4750e-01	-11.7526	-20.511046	0.000056	0.561675	0.190301	-0.004533
1297	6.4800e-01	-11.8248	-20.528579	0.000043	0.434504	0.147214	-0.003507
1298	6.4850e-01	-11.8473	-20.637196	0.000269	2.691803	0.912008	-0.021723
1299	6.4900e-01	-11.8954	-20.646604	0.000023	0.233148	0.078993	-0.001882
1300	6.4950e-01	-11.9403	-20.734694	0.000218	2.183116	0.739660	-0.017618
1301	6.5000e-01	-11.9724	-20.802259	0.000167	1.674429	0.567312	-0.013513
1302	6.5050e-01	-12.0334	-20.843311	0.000102	1.017374	0.344696	-0.008210
1303	6.5100e-01	-12.0686	-20.867258	0.000059	0.593468	0.201073	-0.004789
1304	6.5150e-01	-12.0991	-20.961336	0.000233	2.331483	0.789928	-0.018816
1305	6.5200e-01	-12.1537	-20.986138	0.000061	0.614664	0.208254	-0.004960
1306	6.5250e-01	-12.1745	-21.061400	0.000187	1.865186	0.631942	-0.015052
1307	6.5300e-01	-12.2419	-21.060545	-0.000002	-0.021195	-0.007181	0.000171
1308	6.5350e-01	-12.2644	-21.146497	0.000213	2.130128	0.721707	-0.017191
1309	6.5400e-01	-12.3237	-21.174293	0.000069	0.688847	0.233388	-0.005559
1310	6.5450e-01	-12.3366	-21.270936	0.000240	2.395069	0.811471	-0.019329
1311	6.5500e-01	-12.3702	-21.351758	0.000200	2.002956	0.678620	-0.016164
1312	6.5550e-01	-12.3991	-21.400079	0.000120	1.197534	0.405736	-0.009664
1313	6.5600e-01	-12.4777	-21.408632	0.000021	0.211953	0.071812	-0.001711
1314	6.5650e-01	-12.5002	-21.498005	0.000221	2.214909	0.750431	-0.017875
1315	6.5700e-01	-12.5242	-21.521097	0.000057	0.572273	0.193891	-0.004618
1316	6.5750e-01	-12.5692	-21.576688	0.000138	1.377694	0.466776	-0.011118
1317	6.5800e-01	-12.6253	-21.582248	0.000014	0.137769	0.046678	-0.001112
1318	6.5850e-01	-12.6365	-21.704976	0.000304	3.041525	1.030497	-0.024546
1319	6.5900e-01	-12.6783	-21.743035	0.000094	0.943191	0.319562	-0.007612
1320	6.5950e-01	-12.7520	-21.758002	0.000037	0.370918	0.125670	-0.002993
1321	6.6000e-01	-12.7633	-21.861915	0.000258	2.575229	0.872511	-0.020783
1322	6.6050e-01	-12.8226	-21.892704	0.000076	0.763031	0.258522	-0.006158
1323	6.6100e-01	-12.8387	-21.956847	0.000159	1.589647	0.538587	-0.012829
1324	6.6150e-01	-12.8611	-22.067602	0.000274	2.744791	0.929960	-0.022151
1325	6.6200e-01	-12.9542	-22.033392	-0.000085	-0.847812	-0.287246	0.006842
1326	6.6250e-01	-13.0007	-22.119345	0.000213	2.130128	0.721707	-0.017191
1327	6.6300e-01	-13.0200	-22.140299	0.000052	0.519285	0.175938	-0.004191
1328	6.6350e-01	-13.0424	-22.180923	0.000101	1.006777	0.341105	-0.008125
1329	6.6400e-01	-13.0809	-22.278849	0.000243	2.426862	0.822243	-0.019585
1330	6.6450e-01	-13.1322	-22.317335	0.000095	0.953788	0.323152	-0.007697
1331	6.6500e-01	-13.1611	-22.347697	0.000075	0.752433	0.254931	-0.006072
1332	6.6550e-01	-13.2028	-22.403716	0.000139	1.388292	0.470366	-0.011204
1333	6.6600e-01	-13.2654	-22.470853	0.000166	1.663831	0.563721	-0.013427
1334	6.6650e-01	-13.2847	-22.496083	0.000063	0.625261	0.211844	-0.005046
1335	6.6700e-01	-13.3568	-22.558944	0.000156	1.557854	0.527815	-0.012572
1336	6.6750e-01	-13.3665	-22.558088	-0.000002	-0.021195	-0.007181	0.000171
1337	6.6800e-01	-13.4258	-22.655587	0.000242	2.416264	0.818652	-0.019500
1338	6.6850e-01	-13.4723	-22.681672	0.000065	0.646457	0.219025	-0.005217
1339	6.6900e-01	-13.4836	-22.787296	0.000262	2.617619	0.886873	-0.021125
1340	6.6950e-01	-13.5494	-22.790289	0.000007	0.074184	0.025134	-0.000599
1341	6.7000e-01	-13.5879	-22.831769	0.000103	1.027972	0.348286	-0.008296
1342	6.7050e-01	-13.6087	-22.916011	0.000209	2.087737	0.707344	-0.016848
1343	6.7100e-01	-13.6488	-22.984431	0.000170	1.695624	0.574493	-0.013684
1344	6.7150e-01	-13.7098	-23.035746	0.000127	1.271718	0.430870	-0.010263
1345	6.7200e-01	-13.7274	-23.114001	0.000194	1.939370	0.657076	-0.015651
1346	6.7250e-01	-13.7739	-23.128113	0.000035	0.349722	0.118489	-0.002822
1347	6.7300e-01	-13.8173	-23.172586	0.000110	1.102156	0.373420	-0.008895
1348	6.7350e-01	-13.8445	-23.254262	0.000202	2.024151	0.685801	-0.016335
1349	6.7400e-01	-13.9135	-23.291038	0.000091	0.911398	0.308790	-0.007355
1350	6.7450e-01	-13.9392	-23.326959	0.000089	0.890203	0.301609	-0.007184
1351	6.7500e-01	-13.9793	-23.403076	0.000189	1.886382	0.639123	-0.015223
1352	6.7550e-01	-14.0178	-23.455246	0.000129	1.292913	0.438051	-0.010434
1353	6.7600e-01	-14.0547	-23.488601	0.000083	0.826617	0.280065	-0.006671
1354	6.7650e-01	-14.0900	-23.545903	0.000142	1.420085	0.481138	-0.011460
1355	6.7700e-01	-14.1541	-23.578402	0.000081	0.805421	0.272884	-0.006500
1356	6.7750e-01	-14.1894	-23.686164	0.000267	2.670608	0.904826	-0.021552
1357	6.7800e-01	-14.2263	-23.705407	0.000048	0.476894	0.161576	-0.003849
1358	6.7850e-01	-14.2600	-23.740472	0.000087	0.869007	0.294428	-0.007013
1359	6.7900e-01	-14.3033	-23.743893	0.000008	0.084781	0.028725	-0.000684
1360	6.7950e-01	-14.3306	-23.871753	0.000317	3.168697	1.073584	-0.025572
1361	6.8000e-01	-14.3659	-23.894417	0.000056	0.561675	0.190301	-0.004533
1362	6.8050e-01	-14.4269	-23.947871	0.000132	1.324706	0.448823	-0.010691
1363	6.8100e-01	-14.4926	-24.000896	0.000131	1.314109	0.445232	-0.010605
1364	6.8150e-01	-14.4894	-24.018856	-0.000045	-0.445101	-0.150804	-0.003592
1365	6.8200e-01	-14.5360	-24.145006	0.000313	3.126307	1.059221	-0.025230
1366	6.8250e-01	-14.5600	-24.200597	0.000138	1.377694	0.466776	-0.011118
1367	6.8300e-01	-14.6258	-24.176650	-0.000059	-0.593468	-0.201073	0.004789
1368	6.8350e-01	-14.6450	-24.263458	0.000215	2.151323	0.728888	-0.017362
1369	6.8400e-01	-14.6980	-24.301089	0.000093	0.932593	0.315971	-0.007526
1370	6.8450e-01	-14.7381	-24.359674	0.000145	1.451878	0.491910	-0.011717
1371	6.8500e-01	-14.8039	-24.358391	-0.000003	-0.031793	-0.010772	0.000257
1372	6.8550e-01	-14.8151	-24.434936	0.000190	1.896979	0.642714	-0.015309
1373	6.8600e-01	-14.8504	-24.528586	0.000232	2.320885	0.786337	-0.018730
1374	6.8650e-01	-14.9081	-24.497797	-0.000076	-0.763031	-0.258522	0.006158
1375	6.8700e-01	-14.9514	-24.581611	0.000208	2.077139	0.703754	-0.016763
1376	6.8750e-01	-14.9723	-24.642334	0.000150	1.504866	0.509862	-0.012145
1377	6.8800e-01	-15.0204	-24.706905	0.000160	1.600245	0.542178	-0.012914
1378	6.8850e-01	-15.0702	-24.741116	0.000085	0.847812	0.287246	-0.006842
1379	6.8900e-01	-15.0718	-24.795424	0.000135	1.345901	0.456004	-0.010862
1380	6.8950e-01	-15.1456	-24.827068	0.000078	0.784226	0.265703	-0.006329
1381	6.9000e-01	-15.1616	-24.896771	0.000173	1.727417	0.585265	-0.013941
1382	6.9050e-01	-15.2274	-24.958349	0.000153	1.526061	0.517044	-0.012316
1383	6.9100e-01	-15.2771	-24.982724	0.000060	0.604066	0.204663	-0.004875
1384	6.9150e-01	-15.2932	-25.045157	0.000155	1.547257	0.524225	-0.012487
1385	6.9200e-01	-15.3365	-25.076801	0.000078	0.784226	0.265703	-0.006329
1386	6.9250e-01	-15.3910	-25.130255	0.000132	1.324706	0.448823	-0.010691
1387	6.9300e-01	-15.4038	-25.229891	0.000247	2.469252	0.836605	-0.019927
1388	6.9350e-01	-15.4728	-25.281206	0.000127	1.271718	0.430870	-0.010263
1389	6.9400e-01	-15.4873	-25.276930	-0.000011	-0.105976	-0.035906	0.000855
1390	6.9450e-01	-15.5370	-25.363310	0.000214	2.140725	0.725297	-0.017276
1391	6.9500e-01	-15.5899	-25.397093	0.000084	0.837214	0.283656	-0.006756
1392	6.9550e-01	-15.5931	-25.480480	0.000207	2.066542	0.700163	-0.016677
1393	6.9600e-01	-15.6862	-25.504854	0.000060	0.604066	0.204663	-0.004875
1394	6.9650e-01	-15.7086	-25.530084	0.000063	0.625261	0.211844	-0.005046
1395	6.9700e-01	-15.7343	-25.598932	0.000171	1.706222	0.578084	-0.013770
1396	6.9750e-01	-15.7840	-25.653240	0.000135	1.345901	0.456004	-0.010862
1397	6.9800e-01	-15.8033	-25.703272	0.000124	1.239925	0.420098	-0.010006
1398	6.9850e-01	-15.8402	-25.801199	0.000243	2.426862	0.822243	-0.019585
1399	6.9900e-01	-15.9108	-25.761857	-0.000097	-0.974984	-0.330333	0.007868
1400	6.9950e-01	-15.9284	-25.849948	0.000218	2.183116	0.739660	-0.017618
1401	7.0000e-01	-16.0070	-25.908533	0.000145	1.451878	0.491910	-0.011717
1402	7.0050e-01	-16.0086	-25.980801	0.000179	1.791003	0.606808	-0.014454
1403	7.0100e-01	-16.0680	-25.976953	-0.000010	-0.095379	-0.032315	0.000770
1404	7.0150e-01	-16.1001	-26.057346	0.000199	1.992358	0.675029	-0.016079
1405	7.0200e-01	-16.1290	-26.170239	0.000280	2.797779	0.947913	-0.022579
1406	7.0250e-01	-16.1803	-26.151424	-0.000047	-0.466297	-0.157986	0.003763
1407	7.0300e-01	-16.2011	-26.237376	0.000213	2.130128	0.721707	-0.017191
1408	7.0350e-01	-16.2429	-26.271159	0.000084	0.837214	0.283656	-0.006756
1409	7.0400e-01	-16.3086	-26.273725	0.000006	0.063586	0.021543	-0.000513
1410	7.0450e-01	-16.3648	-26.344710	0.000176	1.759210	0.596036	-0.014197
1411	7.0500e-01	-16.3856	-26.331882	-0.000032	-0.317929	-0.107717	0.002566
1412	7.0550e-01	-16.4466	-26.459314	0.000316	3.158099	1.069993	-0.025486
1413	7.0600e-01	-16.4450	-26.464018	-0.000012	-0.116574	-0.039496	-0.000941
1414	7.0650e-01	-16.4851	-26.597437	0.000331	3.306467	1.120261	-0.026684
1415	7.0700e-01	-16.5525	-26.567503	-0.000074	-0.741835	-0.251341	0.005987
1416	7.0750e-01	-16.5830	-26.659015	0.000227	2.267897	0.768384	-0.018302
1417	7.0800e-01	-16.6215	-26.718455	0.000147	1.473073	0.499091	-0.011888
1418	7.0850e-01	-16.6600	-26.696218	-0.000055	-0.551078	-0.186710	0.004447
1419	7.0900e-01	-16.6776	-26.787302	0.000226	2.257299	0.764794	-0.018217
1420	7.0950e-01	-16.7338	-26.869834	0.000205	2.045346	0.692982	-0.016506
1421	7.1000e-01	-16.7690	-26.909603	0.000099	0.985581	0.333924	-0.007954
1422	7.1050e-01	-16.8156	-26.996839	0.000216	2.161920	0.732478	-0.017447
1423	7.1100e-01	-16.8364	-26.969471	-0.000068	-0.678250	-0.229797	0.005474
1424	7.1150e-01	-16.8894	-27.008385	0.000096	0.964386	0.326743	-0.007783
1425	7.1200e-01	-16.9423	-27.062693	0.000135	1.345901	0.456004	-0.010862
1426	7.1250e-01	-16.9840	-27.146508	0.000208	2.077139	0.703754	-0.016763
1427	7.1300e-01	-17.0001	-27.182001	0.000088	0.879605	0.298018	-0.007099
1428	7.1350e-01	-17.0562	-27.263677	0.000202	2.024151	0.685801	-0.016335
1429	7.1400e-01	-17.0899	-27.281637	0.000045	0.445101	0.150804	-0.003592
1430	7.1450e-01	-17.1300	-27.356472	0.000185	1.854589	0.628352	-0.014967
1431	7.1500e-01	-17.1733	-27.387261	0.000076	0.763031	0.258522	-0.006158
1432	7.1550e-01	-17.2134	-27.451405	0.000159	1.589647	0.538587	-0.012829
1433	7.1600e-01	-17.2631	-27.489463	0.000094	0.943191	0.319562	-0.007612
1434	7.1650e-01	-17.2744	-27.603639	0.000283	2.829572	0.958685	-0.022835
1435	7.1700e-01	-17.3353	-27.631435	0.000069	0.688847	0.233388	-0.005559
1436	7.1750e-01	-17.3835	-27.609198	-0.000055	-0.551078	-0.186710	0.004447
1437	7.1800e-01	-17.4172	-27.711828	0.000254	2.543436	0.861739	-0.020526
1438	7.1850e-01	-17.4476	-27.757584	0.000113	1.133948	0.384192	-0.009151
1439	7.1900e-01	-17.5022	-27.781959	0.000060	0.604066	0.204663	-0.004875
1440	7.1950e-01	-17.5295	-27.812748	0.000076	0.763031	0.258522	-0.006158
1441	7.2000e-01	-17.5583	-27.874326	0.000153	1.526061	0.517044	-0.012316
1442	7.2050e-01	-17.6000	-27.994916	0.000299	2.988537	1.012544	-0.024118
1443	7.2100e-01	-17.6482	-28.029126	0.000085	0.847812	0.287246	-0.006842
1444	7.2150e-01	-17.7171	-28.015015	-0.000035	-0.349722	-0.118489	0.002822
1445	7.2200e-01	-17.7300	-28.092842	0.000193	1.928772	0.653486	-0.015566
1446	7.2250e-01	-17.7829	-28.161690	0.000171	1.706222	0.578084	-0.013770
1447	7.2300e-01	-17.8214	-28.205308	0.000108	1.080960	0.366239	-0.008724
1448	7.2350e-01	-17.8679	-28.287412	0.000203	2.034749	0.689392	-0.016421
1449	7.2400e-01	-17.9081	-28.303662	0.000040	0.402711	0.136442	-0.003250
1450	7.2450e-01	-17.9145	-28.365667	0.000154	1.536659	0.520634	-0.012401
1451	7.2500e-01	-17.9867	-28.368233	0.000006	0.063586	0.021543	-0.000513
1452	7.2550e-01	-18.0107	-28.441785	0.000182	1.822796	0.617580	-0.014710
1453	7.2600e-01	-18.0669	-28.446489	0.000012	0.116574	0.039496	-0.000941
1454	7.2650e-01	-18.0957	-28.557243	0.000274	2.744791	0.929960	-0.022151
1455	7.2700e-01	-18.1391	-28.542704	-0.000036	-0.360320	-0.122080	0.002908
1456	7.2750e-01	-18.1744	-28.641913	0.000246	2.458655	0.833015	-0.019842
1457	7.2800e-01	-18.2048	-28.709478	0.000167	1.674429	0.567312	-0.013513
1458	7.2850e-01	-18.2353	-28.763786	0.000135	1.345901	0.456004	-0.010862
1459	7.2900e-01	-18.2995	-28.780464	0.000041	0.413308	0.140033	-0.003335
1460	7.2950e-01	-18.3492	-28.819805	0.000097	0.974984	0.330333	-0.007868
1461	7.3000e-01	-18.3925	-28.851022	0.000077	0.773628	0.262112	-0.006243
1462	7.3050e-01	-18.4246	-28.939968	0.000220	2.204311	0.746841	-0.017789
1463	7.3100e-01	-18.4455	-29.034046	0.000233	2.331483	0.789928	-0.018816
1464	7.3150e-01	-18.4904	-28.988717	-0.000112	-1.123351	-0.380602	0.009066
1465	7.3200e-01	-18.5337	-29.069111	0.000199	1.992358	0.675029	-0.016079
1466	7.3250e-01	-18.5674	-29.117860	0.000121	1.208132	0.409326	-0.009750
1467	7.3300e-01	-18.6059	-29.199537	0.000202	2.024151	0.685801	-0.016335
1468	7.3350e-01	-18.6877	-29.226477	0.000067	0.667652	0.226207	-0.005388
1469	7.3400e-01	-18.7005	-29.282068	0.000138	1.377694	0.466776	-0.011118
1470	7.3450e-01	-18.7342	-29.314995	0.000082	0.816019	0.276475	-0.006585
1471	7.3500e-01	-18.7759	-29.440290	0.000311	3.105111	1.052040	-0.025059
1472	7.3550e-01	-18.8289	-29.434731	-0.000014	-0.137769	-0.046678	0.001112
1473	7.3600e-01	-18.8545	-29.496309	0.000153	1.526061	0.517044	-0.012316
1474	7.3650e-01	-18.9059	-29.536933	0.000101	1.006777	0.341105	-0.008125
1475	7.3700e-01	-18.9299	-29.606208	0.000172	1.716819	0.581674	-0.013855
1476	7.3750e-01	-18.9973	-29.660944	0.000136	1.356499	0.459594	-0.010947
1477	7.3800e-01	-19.0086	-29.707983	0.000117	1.165741	0.394964	-0.009408
1478	7.3850e-01	-19.0583	-29.775975	0.000169	1.685026	0.570902	-0.013598
1479	7.3900e-01	-19.0856	-29.847817	0.000178	1.780405	0.603218	-0.014368
1480	7.3950e-01	-19.1401	-29.849955	0.000005	0.052988	0.017953	-0.000428
1481	7.4000e-01	-19.1818	-29.877323	0.000068	0.678250	0.229797	-0.005474
1482	7.4050e-01	-19.2011	-29.958571	0.000201	2.013553	0.682210	-0.016250
1483	7.4100e-01	-19.2556	-30.008176	0.000123	1.229327	0.416507	-0.009921
1484	7.4150e-01	-19.2893	-30.038537	0.000075	0.752433	0.254931	-0.006072
1485	7.4200e-01	-19.2957	-30.209588	0.000424	4.239060	1.436232	-0.034210
1486	7.4250e-01	-19.3984	-30.200607	-0.000022	-0.222551	-0.075402	0.001796
1487	7.4300e-01	-19.4096	-30.254916	0.000135	1.345901	0.456004	-0.010862
1488	7.4350e-01	-19.4577	-30.244225	-0.000026	-0.264941	-0.089765	0.002138
1489	7.4400e-01	-19.4866	-30.304520	0.000149	1.494269	0.506272	-0.012059
1490	7.4450e-01	-19.5299	-30.380638	0.000189	1.886382	0.639123	-0.015223
1491	7.4500e-01	-19.5861	-30.419124	0.000095	0.953788	0.323152	-0.007697
1492	7.4550e-01	-19.6053	-30.446492	0.000068	0.678250	0.229797	-0.005474
1493	7.4600e-01	-19.6486	-30.520899	0.000184	1.843991	0.624761	-0.014881
1494	7.4650e-01	-19.7128	-30.557247	0.000090	0.900800	0.305199	-0.007270
1495	7.4700e-01	-19.7513	-30.648331	0.000226	2.257299	0.764794	-0.018217
1496	7.4750e-01	-19.7914	-30.682113	0.000084	0.837214	0.283656	-0.006756
1497	7.4800e-01	-19.8203	-30.775336	0.000231	2.310288	0.782747	-0.018644
1498	7.4850e-01	-19.8347	-30.782178	0.000017	0.169562	0.057449	-0.001368
1499	7.4900e-01	-19.9133	-30.817671	0.000088	0.879605	0.298018	-0.007099
1500	7.4950e-01	-19.9310	-30.899347	0.000202	2.024151	0.685801	-0.016335
1501	7.5000e-01	-19.9711	-30.952800	0.000132	1.324706	0.448823	-0.010691
1502	7.5050e-01	-19.8973	-30.897637	0.000137	1.367097	0.463185	0.011033
1503	7.5100e-01	-19.8684	-30.853164	0.000110	1.102156	0.373420	0.008895
1504	7.5150e-01	-19.8187	-30.857012	-0.000010	-0.095379	-0.032315	-0.000770
1505	7.5200e-01	-19.8235	-30.826223	-0.000076	-0.763031	-0.258522	0.006158
1506	7.5250e-01	-19.7273	-30.820664	0.000014	0.137769	0.046678	0.001112
1507	7.5300e-01	-19.7176	-30.779612	0.000102	1.017374	0.344696	0.008210
1508	7.5350e-01	-19.6631	-30.732573	0.000117	1.165741	0.394964	0.009408
1509	7.5400e-01	-19.6214	-30.681258	0.000127	1.271718	0.430870	0.010263
1510	7.5450e-01	-19.5781	-30.680403	0.000002	0.021195	0.007181	0.000171
1511	7.5500e-01	-19.5572	-30.632937	0.000118	1.176339	0.398554	0.009493
1512	7.5550e-01	-19.5091	-30.613693	0.000048	0.476894	0.161576	0.003849
1513	7.5600e-01	-19.4738	-30.581194	0.000081	0.805421	0.272884	0.006500
1514	7.5650e-01	-19.4417	-30.496096	0.000211	2.108932	0.714526	0.017019
1515	7.5700e-01	-19.3920	-30.484551	0.000029	0.286137	0.096946	0.002309
1516	7.5750e-01	-19.3358	-30.458893	0.000064	0.635859	0.215435	0.005132
1517	7.5800e-01	-19.3150	-30.398170	0.000150	1.504866	0.509862	0.012145
1518	7.5850e-01	-19.3005	-30.335309	0.000156	1.557854	0.527815	0.012572
1519	7.5900e-01	-19.2396	-30.390473	-0.000137	-1.367097	-0.463185	-0.011033
1520	7.5950e-01	-19.1850	-30.281429	0.000270	2.702401	0.915598	0.021809
1521	7.6000e-01	-19.1481	-30.286560	-0.000013	-0.127172	-0.043087	-0.001026
1522	7.6050e-01	-19.1305	-30.283139	0.000008	0.084781	0.028725	0.000684
1523	7.6100e-01	-19.0647	-30.205739	0.000192	1.918175	0.649895	0.015480
1524	7.6150e-01	-19.0262	-30.151003	0.000136	1.356499	0.459594	0.010947
1525	7.6200e-01	-18.9877	-30.149720	0.000003	0.031793	0.010772	0.000257
1526	7.6250e-01	-18.9572	-30.061629	0.000218	2.183116	0.739660	0.017618
1527	7.6300e-01	-18.9139	-30.055642	0.000015	0.148367	0.050268	0.001197
1528	7.6350e-01	-18.8866	-29.995775	0.000148	1.483671	0.502681	0.011974
1529	7.6400e-01	-18.8353	-29.981663	0.000035	0.349722	0.118489	0.002822
1530	7.6450e-01	-18.8289	-29.903835	0.000193	1.928772	0.653486	0.015566
1531	7.6500e-01	-18.7487	-29.867060	0.000091	0.911398	0.308790	0.007355
1532	7.6550e-01	-18.7102	-29.841830	0.000063	0.625261	0.211844	0.005046
1533	7.6600e-01	-18.6588	-29.878606	-0.000091	-0.911398	-0.308790	-0.007355
1534	7.6650e-01	-18.6043	-29.796502	0.000203	2.034749	0.689392	0.016421
1535	7.6700e-01	-18.6027	-29.728509	0.000169	1.685026	0.570902	0.013598
1536	7.6750e-01	-18.5337	-29.691306	0.000092	0.921995	0.312381	0.007441
1537	7.6800e-01	-18.5096	-29.647260	0.000109	1.091558	0.369830	0.008809
1538	7.6850e-01	-18.4952	-29.609629	0.000093	0.932593	0.315971	0.007526
1539	7.6900e-01	-18.4342	-29.563018	0.000116	1.155144	0.391373	0.009322
1540	7.6950e-01	-18.3861	-29.556604	0.000016	0.158965	0.053859	0.001283
1541	7.7000e-01	-18.3572	-29.478776	0.000193	1.928772	0.653486	0.015566
1542	7.7050e-01	-18.3187	-29.527525	-0.000121	-1.208132	-0.409326	-0.009750
1543	7.7100e-01	-18.2850	-29.424895	0.000254	2.543436	0.861739	0.020526
1544	7.7150e-01	-18.2385	-29.353482	0.000177	1.769807	0.599627	0.014283
1545	7.7200e-01	-18.1920	-29.382133	-0.000071	-0.710043	-0.240569	-0.005730
1546	7.7250e-01	-18.1679	-29.276509	0.000262	2.617619	0.886873	0.021125
1547	7.7300e-01	-18.1214	-29.246575	0.000074	0.741835	0.251341	0.005987
1548	7.7350e-01	-18.0364	-29.243582	0.000007	0.074184	0.025134	0.000599
1549	7.7400e-01	-18.0396	-29.176445	-0.000166	-1.663831	-0.563721	0.013427
1550	7.7450e-01	-17.9963	-29.145656	0.000076	0.763031	0.258522	0.006158
1551	7.7500e-01	-17.9594	-29.073387	0.000179	1.791003	0.606808	0.014454
1552	7.7550e-01	-17.9064	-29.065690	0.000019	0.190758	0.064630	0.001539
1553	7.7600e-01	-17.8647	-29.031480	0.000085	0.847812	0.287246	0.006842
1554	7.7650e-01	-17.8407	-28.980165	0.000127	1.271718	0.430870	0.010263
1555	7.7700e-01	-17.7845	-28.906186	0.000183	1.833393	0.621170	0.014796
1556	7.7750e-01	-17.7460	-28.921153	-0.000037	-0.370918	-0.125670	-0.002993
1557	7.7800e-01	-17.7236	-28.847601	0.000182	1.822796	0.617580	0.014710
1558	7.7850e-01	-17.6754	-28.786451	0.000152	1.515464	0.513453	0.012230
1559	7.7900e-01	-17.6546	-28.732997	0.000132	1.324706	0.448823	0.010691
1560	7.7950e-01	-17.6049	-28.650466	0.000205	2.045346	0.692982	0.016506
1561	7.8000e-01	-17.5439	-28.712471	-0.000154	-1.536659	-0.520634	-0.012401
1562	7.8050e-01	-17.4845	-28.663295	0.000122	1.218730	0.412917	0.009835
1563	7.8100e-01	-17.4861	-28.578625	-0.000210	-2.098335	-0.710935	0.016934
1564	7.8150e-01	-17.4428	-28.550401	0.000070	0.699445	0.236978	0.005645
1565	7.8200e-01	-17.4011	-28.480271	0.000174	1.738014	0.588855	0.014026
1566	7.8250e-01	-17.3594	-28.458890	0.000053	0.529882	0.179529	0.004276
1567	7.8300e-01	-17.3225	-28.409713	0.000122	1.218730	0.412917	0.009835
1568	7.8350e-01	-17.2599	-28.423824	-0.000035	-0.349722	-0.118489	-0.002822
1569	7.8400e-01	-17.2327	-28.360536	0.000157	1.568452	0.531406	0.012658
1570	7.8450e-01	-17.1701	-28.305372	0.000137	1.367097	0.463185	0.011033
1571	7.8500e-01	-17.1557	-28.276294	0.000072	0.720640	0.244159	0.005816
1572	7.8550e-01	-17.1236	-28.174946	0.000251	2.511643	0.850968	0.020269
1573	7.8600e-01	-17.0738	-28.174519	0.000001	0.010598	0.003591	0.000086
1574	7.8650e-01	-17.0017	-28.159552	0.000037	0.370918	0.125670	0.002993
1575	7.8700e-01	-16.9728	-28.106954	0.000130	1.303511	0.441641	0.010520
1576	7.8750e-01	-16.9503	-28.044093	0.000156	1.557854	0.527815	0.012572
1577	7.8800e-01	-16.9439	-27.975673	0.000170	1.695624	0.574493	0.013684
1578	7.8850e-01	-16.8493	-28.019291	-0.000108	-1.080960	-0.366239	-0.008724
1579	7.8900e-01	-16.8380	-27.858931	0.000397	3.974118	1.346468	0.032072
1580	7.8950e-01	-16.8075	-27.838833	0.000050	0.498090	0.168757	0.004020
1581	7.9000e-01	-16.7787	-27.870477	-0.000078	-0.784226	-0.265703	-0.006329
1582	7.9050e-01	-16.7161	-27.770841	0.000247	2.469252	0.836605	0.019927
1583	7.9100e-01	-16.6728	-27.769558	0.000003	0.031793	0.010772	0.000257
1584	7.9150e-01	-16.6263	-27.705842	0.000158	1.579050	0.534997	0.012743
1585	7.9200e-01	-16.5605	-27.688737	0.000042	0.423906	0.143623	0.003421
1586	7.9250e-01	-16.5477	-27.601501	0.000216	2.161920	0.732478	0.017447
1587	7.9300e-01	-16.4835	-27.592521	0.000022	0.222551	0.075402	0.001796
1588	7.9350e-01	-16.4931	-27.461240	-0.000325	-3.253478	-1.102308	0.026256
1589	7.9400e-01	-16.4193	-27.455253	0.000015	0.148367	0.050268	0.001197
1590	7.9450e-01	-16.3744	-27.439859	0.000038	0.381515	0.129261	0.003079
1591	7.9500e-01	-16.3311	-27.357755	0.000203	2.034749	0.689392	0.016421
1592	7.9550e-01	-16.3006	-27.376142	-0.000046	-0.455699	-0.154395	-0.003678
1593	7.9600e-01	-16.2541	-27.292328	0.000208	2.077139	0.703754	0.016763
1594	7.9650e-01	-16.2236	-27.286769	0.000014	0.137769	0.046678	0.001112
1595	7.9700e-01	-16.1771	-27.223908	0.000156	1.557854	0.527815	0.012572
1596	7.9750e-01	-16.1354	-27.147791	0.000189	1.886382	0.639123	0.015223
1597	7.9800e-01	-16.1113	-27.155915	-0.000020	-0.201355	-0.068221	-0.001625
1598	7.9850e-01	-16.0728	-27.067825	0.000218	2.183116	0.739660	0.017618
1599	7.9900e-01	-16.0070	-27.063976	0.000010	0.095379	0.032315	0.000770
1600	7.9950e-01	-15.9974	-27.049437	0.000036	0.360320	0.122080	0.002908
1601	8.0000e-01	-15.9525	-26.938254	0.000276	2.755389	0.933551	0.022237
1602	8.0050e-01	-15.9332	-26.895492	0.000106	1.059765	0.359058	0.008553
1603	8.0100e-01	-15.8514	-26.830920	0.000160	1.600245	0.542178	0.012914
1604	8.0150e-01	-15.8338	-26.833914	-0.000007	-0.074184	-0.025134	-0.000599
1605	8.0200e-01	-15.7873	-26.862565	-0.000071	-0.710043	-0.240569	-0.005730
1606	8.0250e-01	-15.7696	-26.713323	0.000370	3.698580	1.253113	0.029848
1607	8.0300e-01	-15.7054	-26.685528	0.000069	0.688847	0.233388	0.005559
1608	8.0350e-01	-15.6589	-26.626943	0.000145	1.451878	0.491910	0.011717
1609	8.0400e-01	-15.6140	-26.597437	0.000073	0.731238	0.247750	0.005901
1610	8.0450e-01	-15.5980	-26.556385	0.000102	1.017374	0.344696	0.008210
1611	8.0500e-01	-15.5562	-26.512767	0.000108	1.080960	0.366239	0.008724
1612	8.0550e-01	-15.5129	-26.472570	0.000100	0.996179	0.337515	0.008039
1613	8.0600e-01	-15.4680	-26.468722	0.000010	0.095379	0.032315	0.000770
1614	8.0650e-01	-15.4472	-26.357967	0.000274	2.744791	0.929960	0.022151
1615	8.0700e-01	-15.4038	-26.347276	0.000026	0.264941	0.089765	0.002138
1616	8.0750e-01	-15.3557	-26.218561	0.000319	3.189892	1.080765	0.025743
1617	8.0800e-01	-15.3060	-26.259613	-0.000102	-1.017374	-0.344696	-0.008210
1618	8.0850e-01	-15.2595	-26.245501	0.000035	0.349722	0.118489	0.002822
1619	8.0900e-01	-15.2611	-26.153562	-0.000228	-2.278495	-0.771975	0.018388
1620	8.0950e-01	-15.1632	-26.120207	0.000083	0.826617	0.280065	0.006671
1621	8.1000e-01	-15.1632	-26.048366	-0.000178	-1.780405	-0.603218	0.014368
1622	8.1050e-01	-15.1231	-26.021426	0.000067	0.667652	0.226207	0.005388
1623	8.1100e-01	-15.0654	-25.932480	0.000220	2.204311	0.746841	0.017789
1624	8.1150e-01	-15.0268	-25.957709	-0.000063	-0.625261	-0.211844	-0.005046
1625	8.1200e-01	-14.9835	-25.914092	0.000108	1.080960	0.366239	0.008724
1626	8.1250e-01	-14.9531	-25.849093	0.000161	1.610843	0.545768	0.013000
1627	8.1300e-01	-14.9258	-25.791791	0.000142	1.420085	0.481138	0.011460
1628	8.1350e-01	-14.8744	-25.734061	0.000143	1.430683	0.484728	0.011546
1629	8.1400e-01	-14.8375	-25.721233	0.000032	0.317929	0.107717	0.002566
1630	8.1450e-01	-14.7974	-25.647253	0.000183	1.833393	0.621170	0.014796
1631	8.1500e-01	-14.7461	-25.620313	0.000067	0.667652	0.226207	0.005388
1632	8.1550e-01	-14.6964	-25.565577	0.000136	1.356499	0.459594	0.010947
1633	8.1600e-01	-14.6932	-25.540775	0.000061	0.614664	0.208254	0.004960
1634	8.1650e-01	-14.6450	-25.450118	0.000225	2.246702	0.761203	0.018131
1635	8.1700e-01	-14.5841	-25.419329	0.000076	0.763031	0.258522	0.006158
1636	8.1750e-01	-14.5504	-25.376994	0.000105	1.049167	0.355467	0.008467
1637	8.1800e-01	-14.5327	-25.315416	0.000153	1.526061	0.517044	0.012316
1638	8.1850e-01	-14.4926	-25.295745	0.000049	0.487492	0.165167	0.003934
1639	8.1900e-01	-14.4525	-25.208510	0.000216	2.161920	0.732478	0.017447
1640	8.1950e-01	-14.3723	-25.227325	-0.000047	-0.466297	-0.157986	-0.003763
1641	8.2000e-01	-14.3611	-25.196964	0.000075	0.752433	0.254931	0.006072
1642	8.2050e-01	-14.2921	-25.142228	0.000136	1.356499	0.459594	0.010947
1643	8.2100e-01	-14.2937	-24.997263	-0.000359	-3.592603	-1.217207	0.028993
1644	8.2150e-01	-14.2199	-25.035749	-0.000095	-0.953788	-0.323152	-0.007697
1645	8.2200e-01	-14.1574	-25.019072	0.000041	0.413308	0.140033	0.003335
1646	8.2250e-01	-14.1734	-24.901047	-0.000292	-2.924951	-0.991000	0.023605
1647	8.2300e-01	-14.1301	-24.847594	0.000132	1.324706	0.448823	0.010691
1648	8.2350e-01	-14.0820	-24.812101	0.000088	0.879605	0.298018	0.007099
1649	8.2400e-01	-14.0338	-24.750096	0.000154	1.536659	0.520634	0.012401
1650	8.2450e-01	-13.9825	-24.756082	-0.000015	-0.148367	-0.050268	-0.001197
1651	8.2500e-01	-13.9616	-24.646183	0.000272	2.723596	0.922779	0.021980
1652	8.2550e-01	-13.9071	-24.623946	0.000055	0.551078	0.186710	0.004447
1653	8.2600e-01	-13.8734	-24.648321	-0.000060	-0.604066	-0.204663	-0.004875
1654	8.2650e-01	-13.8173	-24.498224	0.000372	3.719775	1.260294	0.030019
1655	8.2700e-01	-13.7980	-24.543125	-0.000111	-1.112753	-0.377011	-0.008980
1656	8.2750e-01	-13.7403	-24.440067	0.000255	2.554033	0.865330	0.020612
1657	8.2800e-01	-13.7034	-24.420824	0.000048	0.476894	0.161576	0.003849
1658	8.2850e-01	-13.6761	-24.321187	0.000247	2.469252	0.836605	0.019927
1659	8.2900e-01	-13.6247	-24.333589	-0.000031	-0.307332	-0.104127	-0.002480
1660	8.2950e-01	-13.5911	-24.251912	0.000202	2.024151	0.685801	0.016335
1661	8.3000e-01	-13.5606	-24.231386	0.000051	0.508687	0.172348	0.004105
1662	8.3050e-01	-13.4980	-24.201880	0.000073	0.731238	0.247750	0.005901
1663	8.3100e-01	-13.4707	-24.147572	0.000135	1.345901	0.456004	0.010862
1664	8.3150e-01	-13.4515	-24.102243	0.000112	1.123351	0.380602	0.009066
1665	8.3200e-01	-13.3825	-24.053494	0.000121	1.208132	0.409326	0.009750
1666	8.3250e-01	-13.3199	-23.994909	0.000145	1.451878	0.491910	0.011717
1667	8.3300e-01	-13.3039	-23.941029	0.000134	1.335304	0.452413	0.010776
1668	8.3350e-01	-13.2702	-23.886293	0.000136	1.356499	0.459594	0.010947
1669	8.3400e-01	-13.2221	-23.801195	0.000211	2.108932	0.714526	0.017019
1670	8.3450e-01	-13.2109	-23.758005	0.000107	1.070363	0.362649	0.008638
1671	8.3500e-01	-13.1274	-23.732775	0.000063	0.625261	0.211844	0.005046
1672	8.3550e-01	-13.1162	-23.686164	0.000116	1.155144	0.391373	0.009322
1673	8.3600e-01	-13.0649	-23.634421	0.000128	1.282316	0.434460	0.010349
1674	8.3650e-01	-13.0665	-23.553600	-0.000200	-2.002956	-0.678620	0.016164
1675	8.3700e-01	-12.9702	-23.547186	0.000016	0.158965	0.053859	0.001283
1676	8.3750e-01	-12.9526	-23.463371	0.000208	2.077139	0.703754	0.016763
1677	8.3800e-01	-12.9173	-23.444128	0.000048	0.476894	0.161576	0.003849
1678	8.3850e-01	-12.8627	-23.404359	0.000099	0.985581	0.333924	0.007954
1679	8.3900e-01	-12.8611	-23.290611	0.000282	2.818975	0.955094	0.022750
1680	8.3950e-01	-12.8002	-23.283769	0.000017	0.169562	0.057449	0.001368
1681	8.4000e-01	-12.7617	-23.224329	0.000147	1.473073	0.499091	0.011888
1682	8.4050e-01	-12.7087	-23.219197	0.000013	0.127172	0.043087	0.001026
1683	8.4100e-01	-12.6879	-23.142652	0.000190	1.896979	0.642714	0.015309
1684	8.4150e-01	-12.6462	-23.110580	0.000079	0.794824	0.269294	0.006414
1685	8.4200e-01	-12.6012	-23.036601	0.000183	1.833393	0.621170	0.014796
1686	8.4250e-01	-12.5435	-23.063542	-0.000067	-0.667652	-0.226207	-0.005388
1687	8.4300e-01	-12.5258	-22.954925	0.000269	2.691803	0.912008	0.021723
1688	8.4350e-01	-12.4825	-22.909169	0.000113	1.133948	0.384192	0.009151
1689	8.4400e-01	-12.4472	-22.874531	0.000086	0.858410	0.290837	0.006928
1690	8.4450e-01	-12.3991	-22.833907	0.000101	1.006777	0.341105	0.008125
1691	8.4500e-01	-12.3221	-22.765487	0.000170	1.695624	0.574493	0.013684
1692	8.4550e-01	-12.2900	-22.688942	0.000190	1.896979	0.642714	0.015309
1693	8.4600e-01	-12.2820	-22.646607	0.000105	1.049167	0.355467	0.008467
1694	8.4650e-01	-12.2339	-22.558516	0.000218	2.183116	0.739660	0.017618
1695	8.4700e-01	-12.2114	-22.632923	-0.000184	-1.843991	-0.624761	-0.014881
1696	8.4750e-01	-12.1761	-22.478550	0.000383	3.825751	1.296200	0.030875
1697	8.4800e-01	-12.1087	-22.475129	0.000008	0.084781	0.028725	0.000684
1698	8.4850e-01	-12.0702	-22.390887	0.000209	2.087737	0.707344	0.016848
1699	8.4900e-01	-12.0462	-22.352401	0.000095	0.953788	0.323152	0.007697
1700	8.4950e-01	-11.9788	-22.314770	0.000093	0.932593	0.315971	0.007526
1701	8.5000e-01	-11.9483	-22.272862	0.000104	1.038570	0.351877	0.008381
1702	8.5050e-01	-11.9082	-22.174081	0.000245	2.448057	0.829424	0.019756
1703	8.5100e-01	-11.8777	-22.145002	0.000072	0.720640	0.244159	0.005816
1704	8.5150e-01	-11.8376	-22.091977	0.000131	1.314109	0.445232	0.010605
1705	8.5200e-01	-11.7847	-22.065892	0.000065	0.646457	0.219025	0.005217
1706	8.5250e-01	-11.7574	-22.005597	0.000149	1.494269	0.506272	0.012059
1707	8.5300e-01	-11.7093	-21.976090	0.000073	0.731238	0.247750	0.005901
1708	8.5350e-01	-11.6788	-21.888855	0.000216	2.161920	0.732478	0.017447
1709	8.5400e-01	-11.6082	-21.875599	0.000033	0.328527	0.111308	0.002651
1710	8.5450e-01	-11.5938	-21.796060	0.000197	1.971163	0.667848	0.015908
1711	8.5500e-01	-11.5328	-21.800764	-0.000012	-0.116574	-0.039496	-0.000941
1712	8.5550e-01	-11.5184	-21.707542	0.000231	2.310288	0.782747	0.018644
1713	8.5600e-01	-11.4799	-21.650240	0.000142	1.420085	0.481138	0.011460
1714	8.5650e-01	-11.4382	-21.608333	0.000104	1.038570	0.351877	0.008381
1715	8.5700e-01	-11.3901	-21.554452	0.000134	1.335304	0.452413	0.010776
1716	8.5750e-01	-11.3435	-21.492019	0.000155	1.547257	0.524225	0.012487
1717	8.5800e-01	-11.2986	-21.478335	0.000034	0.339125	0.114899	0.002737
1718	8.5850e-01	-11.2745	-21.406921	0.000177	1.769807	0.599627	0.014283
1719	8.5900e-01	-11.2264	-21.357317	0.000123	1.229327	0.416507	0.009921
1720	8.5950e-01	-11.1911	-21.286331	0.000176	1.759210	0.596036	0.014197
1721	8.6000e-01	-11.1574	-21.257680	0.000071	0.710043	0.240569	0.005730
1722	8.6050e-01	-11.1270	-21.172155	0.000212	2.119530	0.718116	0.017105
1723	8.6100e-01	-11.0724	-21.176004	-0.000010	-0.095379	-0.032315	-0.000770
1724	8.6150e-01	-11.0323	-21.145642	0.000075	0.752433	0.254931	0.006072
1725	8.6200e-01	-10.9649	-21.087913	0.000143	1.430683	0.484728	0.011546
1726	8.6250e-01	-10.9794	-20.969033	-0.000295	-2.946147	-0.998181	0.023776
1727	8.6300e-01	-10.9232	-20.882225	0.000215	2.151323	0.728888	0.017362
1728	8.6350e-01	-10.8927	-20.874100	0.000020	0.201355	0.068221	0.001625
1729	8.6400e-01	-10.8398	-20.818081	0.000139	1.388292	0.470366	0.011204
1730	8.6450e-01	-10.7901	-20.797128	0.000052	0.519285	0.175938	0.004191
1731	8.6500e-01	-10.7500	-20.730846	0.000164	1.642636	0.556540	0.013256
1732	8.6550e-01	-10.7115	-20.695780	0.000087	0.869007	0.294428	0.007013
1733	8.6600e-01	-10.6649	-20.626933	0.000171	1.706222	0.578084	0.013770
1734	8.6650e-01	-10.6473	-20.580322	0.000116	1.155144	0.391373	0.009322
1735	8.6700e-01	-10.5911	-20.564072	0.000040	0.402711	0.136442	0.003250
1736	8.6750e-01	-10.5462	-20.481113	0.000206	2.055944	0.696573	0.016592
1737	8.6800e-01	-10.4981	-20.443054	0.000094	0.943191	0.319562	0.007612
1738	8.6850e-01	-10.4676	-20.412265	0.000076	0.763031	0.258522	0.006158
1739	8.6900e-01	-10.4067	-20.298517	0.000282	2.818975	0.955094	0.022750
1740	8.6950e-01	-10.3714	-20.311345	-0.000032	-0.317929	-0.107717	-0.002566
1741	8.7000e-01	-10.3457	-20.188617	0.000304	3.041525	1.030497	0.024546
1742	8.7050e-01	-10.3088	-20.167236	0.000053	0.529882	0.179529	0.004276
1743	8.7100e-01	-10.2735	-20.100526	0.000165	1.653233	0.560131	0.013342
1744	8.7150e-01	-10.2366	-20.057336	0.000107	1.070363	0.362649	0.008638
1745	8.7200e-01	-10.1949	-20.017139	0.000100	0.996179	0.337515	0.008039
1746	8.7250e-01	-10.1612	-19.973949	0.000107	1.070363	0.362649	0.008638
1747	8.7300e-01	-10.1179	-19.899542	0.000184	1.843991	0.624761	0.014881
1748	8.7350e-01	-10.0746	-19.829839	0.000173	1.727417	0.585265	0.013941
1749	8.7400e-01	-10.0377	-19.756288	0.000182	1.822796	0.617580	0.014710
1750	8.7450e-01	-9.9815	-19.720795	0.000088	0.879605	0.298018	0.007099
1751	8.7500e-01	-9.9559	-19.668197	0.000130	1.303511	0.441641	0.010520
1752	8.7550e-01	-9.8901	-19.668625	-0.000001	-0.010598	-0.003591	-0.000086
1753	8.7600e-01	-9.8949	-19.566850	-0.000252	-2.522241	-0.854558	0.020355
1754	8.7650e-01	-9.8131	-19.512114	0.000136	1.356499	0.459594	0.010947
1755	8.7700e-01	-9.7938	-19.444976	0.000166	1.663831	0.563721	0.013427
1756	8.7750e-01	-9.7393	-19.424450	0.000051	0.508687	0.172348	0.004105
1757	8.7800e-01	-9.6767	-19.368004	0.000140	1.398890	0.473957	0.011289
1758	8.7850e-01	-9.6719	-19.289321	0.000195	1.949967	0.660667	0.015737
1759	8.7900e-01	-9.6190	-19.263236	0.000065	0.646457	0.219025	0.005217
1760	8.7950e-01	-9.5917	-19.125968	0.000340	3.401845	1.152576	0.027454
1761	8.8000e-01	-9.5596	-19.132382	-0.000016	-0.158965	-0.053859	-0.001283
1762	8.8050e-01	-9.4987	-19.110574	0.000054	0.540480	0.183120	0.004362
1763	8.8100e-01	-9.4634	-19.061824	0.000121	1.208132	0.409326	0.009750
1764	8.8150e-01	-9.4168	-18.979720	0.000203	2.034749	0.689392	0.016421
1765	8.8200e-01	-9.3912	-18.939096	0.000101	1.006777	0.341105	0.008125
1766	8.8250e-01	-9.3527	-18.881366	0.000143	1.430683	0.484728	0.011546
1767	8.8300e-01	-9.3142	-18.834755	0.000116	1.155144	0.391373	0.009322
1768	8.8350e-01	-9.2773	-18.717158	0.000291	2.914354	0.987410	0.023519
1769	8.8400e-01	-9.2243	-18.774888	-0.000143	-1.430683	-0.484728	-0.011546
1770	8.8450e-01	-9.1923	-18.629495	0.000360	3.603201	1.220797	0.029079
1771	8.8500e-01	-9.1233	-18.599989	0.000073	0.731238	0.247750	0.005901
1772	8.8550e-01	-9.1104	-18.492227	0.000267	2.670608	0.904826	0.021552
1773	8.8600e-01	-9.0751	-18.468708	0.000058	0.582871	0.197482	0.004704
1774	8.8650e-01	-9.0206	-18.448610	0.000050	0.498090	0.168757	0.004020
1775	8.8700e-01	-9.0078	-18.377196	0.000177	1.769807	0.599627	0.014283
1776	8.8750e-01	-8.9500	-18.342986	0.000085	0.847812	0.287246	0.006842
1777	8.8800e-01	-8.9003	-18.296375	0.000116	1.155144	0.391373	0.009322
1778	8.8850e-01	-8.8698	-18.252330	0.000109	1.091558	0.369830	0.008809
1779	8.8900e-01	-8.8169	-18.214271	0.000094	0.943191	0.319562	0.007612
1780	8.8950e-01	-8.8137	-18.030392	0.000456	4.556989	1.543950	0.036776
1781	8.9000e-01	-8.7591	-18.047497	-0.000042	-0.423906	-0.143623	-0.003421
1782	8.9050e-01	-8.6982	-18.006445	0.000102	1.017374	0.344696	0.008210
1783	8.9100e-01	-8.6645	-17.909374	0.000241	2.405666	0.815062	0.019414
1784	8.9150e-01	-8.6179	-17.867467	0.000104	1.038570	0.351877	0.008381
1785	8.9200e-01	-8.6035	-17.836678	0.000076	0.763031	0.258522	0.006158
1786	8.9250e-01	-8.5506	-17.793915	0.000106	1.059765	0.359058	0.008553
1787	8.9300e-01	-8.4880	-17.731910	0.000154	1.536659	0.520634	0.012401
1788	8.9350e-01	-8.4639	-17.625431	0.000264	2.638815	0.894055	0.021296
1789	8.9400e-01	-8.4206	-17.599346	0.000065	0.646457	0.219025	0.005217
1790	8.9450e-01	-8.3901	-17.527077	0.000179	1.791003	0.606808	0.014454
1791	8.9500e-01	-8.3548	-17.495005	0.000079	0.794824	0.269294	0.006414
1792	8.9550e-01	-8.3324	-17.406059	0.000220	2.204311	0.746841	0.017789
1793	8.9600e-01	-8.3003	-17.372277	0.000084	0.837214	0.283656	0.006756
1794	8.9650e-01	-8.2217	-17.308988	0.000157	1.568452	0.531406	0.012658
1795	8.9700e-01	-8.1928	-17.264515	0.000110	1.102156	0.373420	0.008895
1796	8.9750e-01	-8.1623	-17.263232	0.000003	0.031793	0.010772	0.000257
1797	8.9800e-01	-8.1062	-17.163596	0.000247	2.469252	0.836605	0.019927
1798	8.9850e-01	-8.0885	-17.024190	0.000345	3.454834	1.170529	0.027881
1799	8.9900e-01	-8.0180	-17.062248	-0.000094	-0.943191	-0.319562	-0.007612
1800	8.9950e-01	-8.0003	-16.966460	0.000237	2.373873	0.804290	0.019158
1801	9.0000e-01	-7.9426	-16.919422	0.000117	1.165741	0.394964	0.009408
1802	9.0050e-01	-7.8960	-16.879225	0.000100	0.996179	0.337515	0.008039
1803	9.0100e-01	-7.8832	-16.797548	0.000202	2.024151	0.685801	0.016335
1804	9.0150e-01	-7.8190	-16.730839	0.000165	1.653233	0.560131	0.013342
1805	9.0200e-01	-7.7934	-16.626071	0.000260	2.596424	0.879692	0.020954
1806	9.0250e-01	-7.7549	-16.583308	0.000106	1.059765	0.359058	0.008553
1807	9.0300e-01	-7.7148	-16.574756	0.000021	0.211953	0.071812	0.001711
1808	9.0350e-01	-7.6698	-16.481106	0.000232	2.320885	0.786337	0.018730
1809	9.0400e-01	-7.6233	-16.437916	0.000107	1.070363	0.362649	0.008638
1810	9.0450e-01	-7.6041	-16.409692	0.000070	0.699445	0.236978	0.005645
1811	9.0500e-01	-7.5543	-16.291240	0.000294	2.935549	0.994591	0.023690
1812	9.0550e-01	-7.5239	-16.242918	0.000120	1.197534	0.405736	0.009664
1813	9.0600e-01	-7.4629	-16.221537	0.000053	0.529882	0.179529	0.004276
1814	9.0650e-01	-7.4356	-16.200584	0.000052	0.519285	0.175938	0.004191
1815	9.0700e-01	-7.3955	-16.097098	0.000256	2.564631	0.868921	0.020697
1816	9.0750e-01	-7.3394	-16.028251	0.000171	1.706222	0.578084	0.013770
1817	9.0800e-01	-7.3105	-16.035520	-0.000018	-0.180160	-0.061040	-0.001454
1818	9.0850e-01	-7.2784	-15.885851	0.000371	3.709177	1.256703	0.029934
1819	9.0900e-01	-7.2399	-15.812300	0.000182	1.822796	0.617580	0.014710
1820	9.0950e-01	-7.1757	-15.810589	0.000004	0.042391	0.014362	0.000342
1821	9.1000e-01	-7.1436	-15.749439	0.000152	1.515464	0.513453	0.012230
1822	9.1050e-01	-7.0987	-15.677598	0.000178	1.780405	0.603218	0.014368
1823	9.1100e-01	-7.0602	-15.657072	0.000051	0.508687	0.172348	0.004105
1824	9.1150e-01	-7.0314	-15.568981	0.000218	2.183116	0.739660	0.017618
1825	9.1200e-01	-6.9961	-15.519376	0.000123	1.229327	0.416507	0.009921
1826	9.1250e-01	-6.9495	-15.450956	0.000170	1.695624	0.574493	0.013684
1827	9.1300e-01	-6.9094	-15.456088	-0.000013	-0.127172	-0.043087	-0.001026
1828	9.1350e-01	-6.8757	-15.295728	0.000397	3.974118	1.346468	0.032072
1829	9.1400e-01	-6.8292	-15.262374	0.000083	0.826617	0.280065	0.006671
1830	9.1450e-01	-6.7923	-15.155040	0.000266	2.660010	0.901236	0.021467
1831	9.1500e-01	-6.7346	-15.146915	0.000020	0.201355	0.068221	0.001625
1832	9.1550e-01	-6.7089	-15.057969	0.000220	2.204311	0.746841	0.017789
1833	9.1600e-01	-6.6544	-15.040864	0.000042	0.423906	0.143623	0.003421
1834	9.1650e-01	-6.6255	-14.937378	0.000256	2.564631	0.868921	0.020697
1835	9.1700e-01	-6.5774	-14.882642	0.000136	1.356499	0.459594	0.010947
1836	9.1750e-01	-6.5533	-14.817643	0.000161	1.610843	0.545768	0.013000
1837	9.1800e-01	-6.5164	-14.747085	0.000175	1.748612	0.592446	0.014112
1838	9.1850e-01	-6.4618	-14.712448	0.000086	0.858410	0.290837	0.006928
1839	9.1900e-01	-6.4346	-14.642745	0.000173	1.727417	0.585265	0.013941
1840	9.1950e-01	-6.4250	-14.474688	0.000416	4.164876	1.411098	0.033611
1841	9.2000e-01	-6.3592	-14.543108	-0.000170	-1.695624	-0.574493	-0.013684
1842	9.2050e-01	-6.3351	-14.441761	0.000251	2.511643	0.850968	0.020269
1843	9.2100e-01	-6.2709	-14.377617	0.000159	1.589647	0.538587	0.012829
1844	9.2150e-01	-6.2437	-14.293375	0.000209	2.087737	0.707344	0.016848
1845	9.2200e-01	-6.1972	-14.285250	0.000020	0.201355	0.068221	0.001625
1846	9.2250e-01	-6.1586	-14.210843	0.000184	1.843991	0.624761	0.014881
1847	9.2300e-01	-6.1314	-14.173640	0.000092	0.921995	0.312381	0.007441
1848	9.2350e-01	-6.0688	-14.100943	0.000180	1.801600	0.610399	0.014539
1849	9.2400e-01	-6.0351	-14.023971	0.000191	1.907577	0.646305	0.015395
1850	9.2450e-01	-6.0271	-13.926472	0.000242	2.416264	0.818652	0.019500
1851	9.2500e-01	-5.9501	-13.943150	-0.000041	-0.413308	-0.140033	-0.003335
1852	9.2550e-01	-5.9244	-13.864039	0.000196	1.960565	0.664257	0.015822
1853	9.2600e-01	-5.8843	-13.727199	0.000339	3.391248	1.148986	0.027368
1854	9.2650e-01	-5.8394	-13.721212	0.000015	0.148367	0.050268	0.001197
1855	9.2700e-01	-5.7833	-13.663055	0.000144	1.441280	0.488319	0.011631
1856	9.2750e-01	-5.7576	-13.592925	0.000174	1.738014	0.588855	0.014026
1857	9.2800e-01	-5.7127	-13.546313	0.000116	1.155144	0.391373	0.009322
1858	9.2850e-01	-5.6886	-13.497564	0.000121	1.208132	0.409326	0.009750
1859	9.2900e-01	-5.6276	-13.447104	0.000125	1.250523	0.423689	0.010092
1860	9.2950e-01	-5.5924	-13.366283	0.000200	2.002956	0.678620	0.016164
1861	9.3000e-01	-5.5522	-13.238851	0.000316	3.158099	1.069993	0.025486
1862	9.3050e-01	-5.5073	-13.179839	0.000146	1.462476	0.495500	0.011802
1863	9.3100e-01	-5.5041	-13.081912	0.000243	2.426862	0.822243	0.019585
1864	9.3150e-01	-5.4319	-13.074643	0.000018	0.180160	0.061040	0.001454
1865	9.3200e-01	-5.4079	-12.950631	0.000307	3.073318	1.041268	0.024802
1866	9.3250e-01	-5.3341	-12.924546	0.000065	0.646457	0.219025	0.005217
1867	9.3300e-01	-5.3277	-12.907014	0.000043	0.434504	0.147214	0.003507
1868	9.3350e-01	-5.2779	-12.817640	0.000221	2.214909	0.750431	0.017875
1869	9.3400e-01	-5.2105	-12.735964	0.000202	2.024151	0.685801	0.016335
1870	9.3450e-01	-5.2057	-12.605965	0.000322	3.221685	1.091537	0.026000
1871	9.3500e-01	-5.1512	-12.632906	-0.000067	-0.667652	-0.226207	-0.005388
1872	9.3550e-01	-5.1143	-12.539684	0.000231	2.310288	0.782747	0.018644
1873	9.3600e-01	-5.0822	-12.432350	0.000266	2.660010	0.901236	0.021467
1874	9.3650e-01	-5.0325	-12.414817	0.000043	0.434504	0.147214	0.003507
1875	9.3700e-01	-4.9892	-12.340838	0.000183	1.833393	0.621170	0.014796
1876	9.3750e-01	-4.9587	-12.286529	0.000135	1.345901	0.456004	0.010862
1877	9.3800e-01	-4.8993	-12.223241	0.000157	1.568452	0.531406	0.012658
1878	9.3850e-01	-4.8336	-12.140282	0.000206	2.055944	0.696573	0.016592
1879	9.3900e-01	-4.8207	-12.092388	0.000119	1.186937	0.402145	0.009579
1880	9.3950e-01	-4.7806	-12.049625	0.000106	1.059765	0.359058	0.008553
1881	9.4000e-01	-4.7838	-11.934166	-0.000286	-2.861365	-0.969457	0.023092
1882	9.4050e-01	-4.7020	-11.880285	0.000134	1.335304	0.452413	0.010776
1883	9.4100e-01	-4.6908	-11.786635	0.000232	2.320885	0.786337	0.018730
1884	9.4150e-01	-4.6362	-11.710091	0.000190	1.896979	0.642714	0.015309
1885	9.4200e-01	-4.5993	-11.654927	0.000137	1.367097	0.463185	0.011033
1886	9.4250e-01	-4.5512	-11.619006	0.000089	0.890203	0.301609	0.007184
1887	9.4300e-01	-4.5255	-11.463778	0.000385	3.846947	1.303381	0.031046
1888	9.4350e-01	-4.4822	-11.493712	-0.000074	-0.741835	-0.251341	-0.005987
1889	9.4400e-01	-4.4405	-11.441114	0.000130	1.303511	0.441641	0.010520
1890	9.4450e-01	-4.3972	-11.361148	0.000198	1.981760	0.671439	0.015993
1891	9.4500e-01	-4.3780	-11.193947	0.000414	4.143681	1.403917	0.033440
1892	9.4550e-01	-4.3090	-11.167434	0.000066	0.657054	0.222616	0.005303
1893	9.4600e-01	-4.2881	-11.077205	0.000224	2.236104	0.757613	0.018046
1894	9.4650e-01	-4.2544	-11.029311	0.000119	1.186937	0.402145	0.009579
1895	9.4700e-01	-4.2031	-10.971154	0.000144	1.441280	0.488319	0.011631
1896	9.4750e-01	-4.1341	-10.954049	0.000042	0.423906	0.143623	0.003421
1897	9.4800e-01	-4.1052	-10.822768	0.000325	3.253478	1.102308	0.026256
1898	9.4850e-01	-4.0475	-10.797966	0.000061	0.614664	0.208254	0.004960
1899	9.4900e-01	-4.0411	-10.754348	0.000108	1.080960	0.366239	0.008724
1900	9.4950e-01	-3.9913	-10.598265	0.000387	3.868142	1.310562	0.031217
1901	9.5000e-01	-3.9657	-10.525141	0.000181	1.812198	0.613989	0.014625
1902	9.5050e-01	-3.9127	-10.539253	-0.000035	-0.349722	-0.118489	-0.002822
1903	9.5100e-01	-3.8694	-10.357512	0.000450	4.504001	1.525997	0.036348
1904	9.5150e-01	-3.8277	-10.354518	0.000007	0.074184	0.025134	0.000599
1905	9.5200e-01	-3.7972	-10.278401	0.000189	1.886382	0.639123	0.015223
1906	9.5250e-01	-3.7699	-10.227514	0.000126	1.261120	0.427279	0.010177
1907	9.5300e-01	-3.7122	-10.085542	0.000352	3.518420	1.192073	0.028394
1908	9.5350e-01	-3.6432	-10.093667	-0.000020	-0.201355	-0.068221	-0.001625
1909	9.5400e-01	-3.6272	-9.993175	0.000249	2.490448	0.843786	0.020098
1910	9.5450e-01	-3.5935	-9.898670	0.000234	2.342080	0.793518	0.018901
1911	9.5500e-01	-3.5726	-9.833243	0.000162	1.621440	0.549359	0.013085
1912	9.5550e-01	-3.5325	-9.760975	0.000179	1.791003	0.606808	0.014454
1913	9.5600e-01	-3.4860	-9.633115	0.000317	3.168697	1.073584	0.025572
1914	9.5650e-01	-3.4266	-9.672884	-0.000099	-0.985581	-0.333924	-0.007954
1915	9.5700e-01	-3.3930	-9.530912	0.000352	3.518420	1.192073	0.028394
1916	9.5750e-01	-3.3432	-9.451801	0.000196	1.960565	0.664257	0.015822
1917	9.5800e-01	-3.3272	-9.372691	0.000196	1.960565	0.664257	0.015822
1918	9.5850e-01	-3.2646	-9.294863	0.000193	1.928772	0.653486	0.015566
1919	9.5900e-01	-3.2277	-9.242265	0.000130	1.303511	0.441641	0.010520
1920	9.5950e-01	-3.2053	-9.143484	0.000245	2.448057	0.829424	0.019756
1921	9.6000e-01	-3.1732	-9.096445	0.000117	1.165741	0.394964	0.009408
1922	9.6050e-01	-3.1218	-9.040854	0.000138	1.377694	0.466776	0.011118
1923	9.6100e-01	-3.0930	-8.916842	0.000307	3.073318	1.041268	0.024802
1924	9.6150e-01	-3.0176	-8.884770	0.000079	0.794824	0.269294	0.006414
1925	9.6200e-01	-3.0079	-8.785989	0.000245	2.448057	0.829424	0.019756
1926	9.6250e-01	-2.9630	-8.683786	0.000253	2.532838	0.858149	0.020440
1927	9.6300e-01	-2.9165	-8.659839	0.000059	0.593468	0.201073	0.004789
1928	9.6350e-01	-2.8876	-8.571321	0.000219	2.193713	0.743250	0.017704
1929	9.6400e-01	-2.8234	-8.541387	0.000074	0.741835	0.251341	0.005987
1930	9.6450e-01	-2.7882	-8.372475	0.000419	4.186071	1.418279	0.033782
1931	9.6500e-01	-2.7625	-8.261720	0.000274	2.744791	0.929960	0.022151
1932	9.6550e-01	-2.7272	-8.257872	0.000010	0.095379	0.032315	0.000770
1933	9.6600e-01	-2.6662	-8.164649	0.000231	2.310288	0.782747	0.018644
1934	9.6650e-01	-2.6374	-8.126591	0.000094	0.943191	0.319562	0.007612
1935	9.6700e-01	-2.6005	-7.976922	0.000371	3.709177	1.256703	0.029934
1936	9.6750e-01	-2.5395	-7.922186	0.000136	1.356499	0.459594	0.010947
1937	9.6800e-01	-2.5411	-7.837516	-0.000210	-2.098335	-0.710935	0.016934
1938	9.6850e-01	-2.4721	-7.740445	0.000241	2.405666	0.815062	0.019414
1939	9.6900e-01	-2.4272	-7.663045	0.000192	1.918175	0.649895	0.015480
1940	9.6950e-01	-2.3791	-7.586500	0.000190	1.896979	0.642714	0.015309
1941	9.7000e-01	-2.3342	-7.492850	0.000232	2.320885	0.786337	0.018730
1942	9.7050e-01	-2.3117	-7.482587	0.000025	0.254344	0.086174	0.002053
1943	9.7100e-01	-2.2796	-7.367556	0.000285	2.850768	0.965866	0.023006
1944	9.7150e-01	-2.2507	-7.251669	0.000287	2.871963	0.973047	0.023177
1945	9.7200e-01	-2.1850	-7.205486	0.000114	1.144546	0.387783	0.009237
1946	9.7250e-01	-2.1497	-7.112264	0.000231	2.310288	0.782747	0.018644
1947	9.7300e-01	-2.1208	-7.023318	0.000220	2.204311	0.746841	0.017789
1948	9.7350e-01	-2.0711	-6.934371	0.000220	2.204311	0.746841	0.017789
1949	9.7400e-01	-2.0454	-6.883484	0.000126	1.261120	0.427279	0.010177
1950	9.7450e-01	-1.9748	-6.795821	0.000217	2.172518	0.736069	0.017533
1951	9.7500e-01	-1.9620	-6.704309	0.000227	2.267897	0.768384	0.018302
1952	9.7550e-01	-1.9251	-6.587567	0.000289	2.893158	0.980229	0.023348
1953	9.7600e-01	-1.8786	-6.529410	0.000144	1.441280	0.488319	0.011631
1954	9.7650e-01	-1.8128	-6.441747	0.000217	2.172518	0.736069	0.017533
1955	9.7700e-01	-1.7999	-6.321584	0.000298	2.977939	1.008953	0.024033
1956	9.7750e-01	-1.7486	-6.263000	0.000145	1.451878	0.491910	0.011717
1957	9.7800e-01	-1.7246	-6.159942	0.000255	2.554033	0.865330	0.020612
1958	9.7850e-01	-1.6828	-6.069713	0.000224	2.236104	0.757613	0.018046
1959	9.7900e-01	-1.6074	-6.044056	0.000064	0.635859	0.215435	0.005132
1960	9.7950e-01	-1.5818	-5.877282	0.000413	4.133083	1.400327	0.033355
1961	9.8000e-01	-1.5577	-5.845210	0.000079	0.794824	0.269294	0.006414
1962	9.8050e-01	-1.5256	-5.708370	0.000339	3.391248	1.148986	0.027368
1963	9.8100e-01	-1.4807	-5.668601	0.000099	0.985581	0.333924	0.007954
1964	9.8150e-01	-1.4214	-5.568536	0.000248	2.479850	0.840196	0.020013
1965	9.8200e-01	-1.4278	-5.389789	-0.000443	-4.429817	-1.500863	0.035749
1966	9.8250e-01	-1.3443	-5.378671	0.000028	0.275539	0.093355	0.002224
1967	9.8300e-01	-1.2978	-5.272620	0.000263	2.628217	0.890464	0.021210
1968	9.8350e-01	-1.2770	-5.236699	0.000089	0.890203	0.301609	0.007184
1969	9.8400e-01	-1.2513	-5.066504	0.000422	4.217864	1.429051	0.034039
1970	9.8450e-01	-1.1984	-5.006209	0.000149	1.494269	0.506272	0.012059
1971	9.8500e-01	-1.1871	-4.928809	0.000192	1.918175	0.649895	0.015480
1972	9.8550e-01	-1.0957	-4.824896	0.000258	2.575229	0.872511	0.020783
1973	9.8600e-01	-1.0877	-4.702168	0.000304	3.041525	1.030497	0.024546
1974	9.8650e-01	-1.0347	-4.622629	0.000197	1.971163	0.667848	0.015908
1975	9.8700e-01	-0.9914	-4.596116	0.000066	0.657054	0.222616	0.005303
1976	9.8750e-01	-0.9465	-4.499473	0.000240	2.395069	0.811471	0.019329
1977	9.8800e-01	-0.9000	-4.390001	0.000271	2.712998	0.919189	0.021894
1978	9.8850e-01	-0.8743	-4.268555	0.000301	3.009732	1.019725	0.024289
1979	9.8900e-01	-0.8486	-4.131715	0.000339	3.391248	1.148986	0.027368
1980	9.8950e-01	-0.7877	-4.142834	-0.000028	-0.275539	-0.093355	-0.002224
1981	9.9000e-01	-0.7652	-3.996158	0.000363	3.634994	1.231569	0.029335
1982	9.9050e-01	-0.6866	-3.904646	0.000227	2.267897	0.768384	0.018302
1983	9.9100e-01	-0.6770	-3.823398	0.000201	2.013553	0.682210	0.016250
1984	9.9150e-01	-0.6690	-3.676294	0.000365	3.645591	1.235160	0.029421
1985	9.9200e-01	-0.5968	-3.627545	0.000121	1.208132	0.409326	0.009750
1986	9.9250e-01	-0.5406	-3.451364	0.000437	4.366232	1.479319	0.035236
1987	9.9300e-01	-0.5230	-3.391496	0.000148	1.483671	0.502681	0.011974
1988	9.9350e-01	-0.4604	-3.368404	0.000057	0.572273	0.193891	0.004618
1989	9.9400e-01	-0.4059	-3.249097	0.000296	2.956744	1.001772	0.023861
1990	9.9450e-01	-0.3995	-3.149033	0.000248	2.479850	0.840196	0.020013
1991	9.9500e-01	-0.3449	-3.064363	0.000210	2.098335	0.710935	0.016934
1992	9.9550e-01	-0.3305	-2.908279	0.000387	3.868142	1.310562	0.031217
1993	9.9600e-01	-0.2823	-2.845419	0.000156	1.557854	0.527815	0.012572
1994	9.9650e-01	-0.2262	-2.745354	0.000248	2.479850	0.840196	0.020013
1995	9.9700e-01	-0.1893	-2.655125	0.000224	2.236104	0.757613	0.018046
1996	9.9750e-01	-0.1588	-2.570883	0.000209	2.087737	0.707344	0.016848
1997	9.9800e-01	-0.1348	-2.430194	0.000349	3.486627	1.181301	0.028138
1998	9.9850e-01	-0.0882	-2.308749	0.000301	3.009732	1.019725	0.024289
1999	9.9900e-01	-0.0160	-2.304045	0.000012	0.116574	0.039496	0.000941
2000	9.9950e-01	0.0112	-2.178323	0.000312	3.115709	1.055631	0.025144
2001	1.0000e+00	0.0594	-2.087667	0.000312	3.115709	1.055631	0.018131

Center data before PMax,+/-Pr and +/-Vc Calc.

PMax (uC/cm2):	3.10e+01
Pr (uC/cm2):	6.59e-01
-Pr (uC/cm2):	-2.09e+00
PLoss (uC/cm2):	-1.31e+00
Vc:	3.81e-01
-Vc:	-2.60e-01
C (Max-Eff) (nF):	1.55e-01
K (Eff):	5.23e+02
Vert. (+/-Pr) Shift (uC/cm2):	-7.14e-01
Horiz. Shift (+/-Vc):	6.03e-02
Offset (uC/cm2):	7.41e-01

A (Loop Area - uC/cm2·Volts):	3.89e-02



Hysteresis Version: 5.48.1 - Radiant Technologies, Inc., 1999 - 9/12/24

