»»»»»»»»»»»»»»»»»»»»»»»»»»»»»»»»»»»» Hysteresis ««««««««««««««««««««««««««««««««««««
»»»  Executed Version:	5.48.1
»»»  Vision Version:	5.48.4 (R)
»»»  Vision Compiled:	9/18/24
»»»  Driver Version:	5.47.0
»»»  Windows Version:	Windows 8 or 8.1
»»»  Processor Information:	x86 (AMD or Intel) - 32 Processors
»»»  Tester Name:	PMF21124-494 (100V)
»»»  Tester S/N:	PMF21124-494
»»»  Internal Amp Type:	100V RevK 270k
»»»  Internal Amp S/N:	iAB2-596/K     
»»»  Execution Count:	1
»»»»»»»»»»»»»»»»»»»»»»»»»»»»»»»»»»»»»»»»»»««««««««««««««««««««««««««««««««««««««««««

Stored:	6/12/2025 - 12:2:29
Configured:	06/12/25 10:06:17 AM
Executed:	06/12/25 12:01:58 PM

»»»»»»»»»»»»»»»»»»»»»»»»»»»»»»»»»»» Sample Info ««««««««««««««««««««««««««««««««««««
Sample Name:	
Lot Name:	
Wafer Name:	
Die Row/Column:	0/0
Capacitor Number:	0
Sample Area (cm2):	1.00e-04
Sample Thickness (microns):	3.00e-01

Amplifier:	Internal

»»»»»»»»»»»»»»»»»»»»»»»»»»»»»»»»»»» Tester Info «««««««««««««««««««««««««««««««««««
Tester Name:	PMF21124-494 (100V)
Tester Serial Number:	PMF21124-494
Return Signal Amp. Level:	1.9 [Index: 2]

»»»»»»»»»»»»»»»»»»»»»»»»»»»»»»»» Hysteresis Info ««««««««««««««««««««««««««««««««««
Task Name:	Hyst-1390
Volts:	20.00
Field:	666.67 (kV/cm)
DCBias:	0.00
DCField:	0.00 (kV/cm)
Hysteresis Period (ms):	2.00e+02
Preset:	Enabled
Preset Delay (ms):	1.00e+03
Profile:	Standard Bipolar

»»»»»»»»»»»»»»»»»»»»»»»»»»»»»»»»»»»»»» Data «««««««««««««««««««««««««««««««««««««««
Points:	2009

Valid Data

Point	Time (ms)	Drive Voltage	Measured Polarization (uC/cm2)	Capacitance (uF)	Normalized Capacitance (uF/cm2)	Dielectric Constant	Instantaneous Current (mA)
   1	0.0000e+00	0.0273	-1.330584	0.000159	1.593265	0.539813	0.000064
   2	9.9500e-02	0.0722	-1.266632	0.000159	1.593265	0.539813	0.000064
   3	1.9900e-01	0.0930	-1.179460	0.000217	2.171712	0.735796	0.000088
   4	2.9850e-01	0.1203	-1.094733	0.000211	2.110823	0.715166	0.000085
   5	3.9800e-01	0.1813	-1.003081	0.000228	2.283342	0.773617	0.000092
   6	4.9750e-01	0.2406	-0.922835	0.000200	1.999193	0.677345	0.000081
   7	5.9700e-01	0.2551	-0.829553	0.000232	2.323935	0.787370	0.000094
   8	6.9650e-01	0.2743	-0.739938	0.000223	2.232601	0.756426	0.000090
   9	7.9600e-01	0.3433	-0.656433	0.000208	2.080378	0.704851	0.000084
  10	8.9550e-01	0.3786	-0.571705	0.000211	2.110823	0.715166	0.000085
  11	9.9500e-01	0.4251	-0.476387	0.000237	2.374676	0.804562	0.000096
  12	1.0945e+00	0.4556	-0.385957	0.000225	2.252897	0.763302	0.000091
  13	1.1940e+00	0.4941	-0.306933	0.000197	1.968748	0.667030	0.000079
  14	1.2935e+00	0.5230	-0.214059	0.000231	2.313787	0.783932	0.000093
  15	1.3930e+00	0.5519	-0.130553	0.000208	2.080378	0.704851	0.000084
  16	1.4925e+00	0.6208	-0.041753	0.000221	2.212305	0.749549	0.000089
  17	1.5920e+00	0.6481	0.044197	0.000214	2.141267	0.725481	0.000086
  18	1.6915e+00	0.6898	0.133405	0.000222	2.222453	0.752987	0.000090
  19	1.7910e+00	0.7235	0.214466	0.000202	2.019489	0.684221	0.000081
  20	1.8905e+00	0.7829	0.302045	0.000218	2.181860	0.739234	0.000088
  21	1.9900e+00	0.8133	0.390438	0.000220	2.202157	0.746111	0.000089
  22	2.0895e+00	0.8454	0.482090	0.000228	2.283342	0.773617	0.000092
  23	2.1890e+00	0.8807	0.566817	0.000211	2.110823	0.715166	0.000085
  24	2.2885e+00	0.9208	0.652359	0.000213	2.131119	0.722043	0.000086
  25	2.3880e+00	0.9866	0.737086	0.000211	2.110823	0.715166	0.000085
  26	2.4875e+00	1.0123	0.826294	0.000222	2.222453	0.752987	0.000090
  27	2.5870e+00	1.0700	0.910614	0.000210	2.100675	0.711728	0.000085
  28	2.6865e+00	1.1214	0.996971	0.000215	2.151416	0.728919	0.000087
  29	2.7860e+00	1.1182	1.080476	-0.000208	-2.080378	-0.704851	0.000084
  30	2.8855e+00	1.1743	1.172536	0.000229	2.293490	0.777056	0.000093
  31	2.9850e+00	1.2321	1.261336	0.000221	2.212305	0.749549	0.000089
  32	3.0845e+00	1.2545	1.340361	0.000197	1.968748	0.667030	0.000079
  33	3.1840e+00	1.3139	1.424273	0.000209	2.090526	0.708290	0.000084
  34	3.2835e+00	1.3540	1.512667	0.000220	2.202157	0.746111	0.000089
  35	3.3830e+00	1.3732	1.599431	0.000216	2.161564	0.732358	0.000087
  36	3.4825e+00	1.4053	1.682121	0.000206	2.060082	0.697975	0.000083
  37	3.5820e+00	1.4422	1.762368	0.000200	1.999193	0.677345	0.000081
  38	3.6815e+00	1.4695	1.841799	0.000198	1.978896	0.670468	0.000080
  39	3.7810e+00	1.5497	1.934266	0.000230	2.303638	0.780494	0.000093
  40	3.8805e+00	1.5834	2.017364	0.000207	2.070230	0.701413	0.000084
  41	3.9800e+00	1.6123	2.100869	0.000208	2.080378	0.704851	0.000084
  42	4.0795e+00	1.6492	2.183967	0.000207	2.070230	0.701413	0.000084
  43	4.1790e+00	1.6925	2.272768	0.000221	2.212305	0.749549	0.000089
  44	4.2785e+00	1.7374	2.353014	0.000200	1.999193	0.677345	0.000081
  45	4.3780e+00	1.7791	2.436927	0.000209	2.090526	0.708290	0.000084
  46	4.4775e+00	1.8016	2.520839	0.000209	2.090526	0.708290	0.000084
  47	4.5770e+00	1.8561	2.604345	0.000208	2.080378	0.704851	0.000084
  48	4.6765e+00	1.8882	2.682147	0.000194	1.938304	0.656715	0.000078
  49	4.7760e+00	1.9363	2.764023	0.000204	2.039786	0.691098	0.000082
  50	4.8755e+00	1.9588	2.846713	0.000206	2.060082	0.697975	0.000083
  51	4.9750e+00	2.0294	2.934292	0.000218	2.181860	0.739234	0.000088
  52	5.0745e+00	2.0663	3.016168	0.000204	2.039786	0.691098	0.000082
  53	5.1740e+00	2.0871	3.106598	0.000225	2.252897	0.763302	0.000091
  54	5.2735e+00	2.1352	3.184400	0.000194	1.938304	0.656715	0.000078
  55	5.3730e+00	2.1946	3.276460	0.000229	2.293490	0.777056	0.000093
  56	5.4725e+00	2.2010	3.363224	0.000216	2.161564	0.732358	0.000087
  57	5.5720e+00	2.2556	3.445100	0.000204	2.039786	0.691098	0.000082
  58	5.6715e+00	2.2764	3.530642	0.000213	2.131119	0.722043	0.000086
  59	5.7710e+00	2.3326	3.610073	0.000198	1.978896	0.670468	0.000080
  60	5.8705e+00	2.3534	3.698874	0.000221	2.212305	0.749549	0.000089
  61	5.9700e+00	2.4063	3.777491	0.000196	1.958600	0.663592	0.000079
  62	6.0695e+00	2.4497	3.867514	0.000224	2.242749	0.759864	0.000090
  63	6.1690e+00	2.4914	3.945724	0.000195	1.948452	0.660153	0.000079
  64	6.2685e+00	2.5154	4.029229	0.000208	2.080378	0.704851	0.000084
  65	6.3680e+00	2.5796	4.111105	0.000204	2.039786	0.691098	0.000082
  66	6.4675e+00	2.6309	4.198683	0.000218	2.181860	0.739234	0.000088
  67	6.5670e+00	2.6582	4.282596	0.000209	2.090526	0.708290	0.000084
  68	6.6665e+00	2.7047	4.362842	0.000200	1.999193	0.677345	0.000081
  69	6.7660e+00	2.7240	4.450014	0.000217	2.171712	0.735796	0.000088
  70	6.8655e+00	2.7930	4.532704	0.000206	2.060082	0.697975	0.000083
  71	6.9650e+00	2.8122	4.615395	0.000206	2.060082	0.697975	0.000083
  72	7.0645e+00	2.8555	4.695234	0.000199	1.989045	0.673907	0.000080
  73	7.1640e+00	2.9101	4.781998	0.000216	2.161564	0.732358	0.000087
  74	7.2635e+00	2.9197	4.866318	0.000210	2.100675	0.711728	0.000085
  75	7.3630e+00	2.9502	4.948601	0.000205	2.049934	0.694536	0.000083
  76	7.4625e+00	3.0079	5.028033	0.000198	1.978896	0.670468	0.000080
  77	7.5620e+00	3.0304	5.112353	0.000210	2.100675	0.711728	0.000085
  78	7.6615e+00	3.0737	5.190970	0.000196	1.958600	0.663592	0.000079
  79	7.7610e+00	3.0978	5.272031	0.000202	2.019489	0.684221	0.000081
  80	7.8605e+00	3.1876	5.358388	0.000215	2.151416	0.728919	0.000087
  81	7.9600e+00	3.2117	5.432524	0.000185	1.846970	0.625770	0.000075
  82	8.0595e+00	3.2406	5.515214	0.000206	2.060082	0.697975	0.000083
  83	8.1590e+00	3.2951	5.593017	0.000194	1.938304	0.656715	0.000078
  84	8.2585e+00	3.3192	5.676522	0.000208	2.080378	0.704851	0.000084
  85	8.3580e+00	3.3769	5.755139	0.000196	1.958600	0.663592	0.000079
  86	8.4575e+00	3.4090	5.833349	0.000195	1.948452	0.660153	0.000079
  87	8.5570e+00	3.4411	5.922964	0.000223	2.232601	0.756426	0.000090
  88	8.6565e+00	3.4764	6.002396	0.000198	1.978896	0.670468	0.000080
  89	8.7560e+00	3.5261	6.079791	0.000193	1.928156	0.653277	0.000078
  90	8.8555e+00	3.5614	6.159223	0.000198	1.978896	0.670468	0.000080
  91	8.9550e+00	3.6191	6.237025	0.000194	1.938304	0.656715	0.000078
  92	9.0545e+00	3.6448	6.316865	0.000199	1.989045	0.673907	0.000080
  93	9.1540e+00	3.7026	6.399962	0.000207	2.070230	0.701413	0.000084
  94	9.2535e+00	3.7106	6.472877	0.000182	1.816525	0.615455	0.000073
  95	9.3530e+00	3.7667	6.558826	0.000214	2.141267	0.725481	0.000086
  96	9.4525e+00	3.8213	6.636629	0.000194	1.938304	0.656715	0.000078
  97	9.5520e+00	3.8149	6.720134	-0.000208	-2.080378	-0.704851	0.000084
  98	9.6515e+00	3.8662	6.794677	0.000186	1.857118	0.629209	0.000075
  99	9.7510e+00	3.9127	6.880627	0.000214	2.141267	0.725481	0.000086
 100	9.8505e+00	3.9913	6.958836	0.000195	1.948452	0.660153	0.000079
 101	9.9500e+00	4.0010	7.039898	0.000202	2.019489	0.684221	0.000081
 102	1.0050e+01	4.0298	7.120959	0.000202	2.019489	0.684221	0.000081
 103	1.0149e+01	4.0876	7.204871	0.000209	2.090526	0.708290	0.000084
 104	1.0248e+01	4.1309	7.285933	0.000202	2.019489	0.684221	0.000081
 105	1.0348e+01	4.1790	7.364957	0.000197	1.968748	0.667030	0.000079
 106	1.0447e+01	4.2127	7.444389	0.000198	1.978896	0.670468	0.000080
 107	1.0547e+01	4.2352	7.523821	0.000198	1.978896	0.670468	0.000080
 108	1.0646e+01	4.2945	7.607733	0.000209	2.090526	0.708290	0.000084
 109	1.0746e+01	4.2961	7.688387	0.000201	2.009341	0.680783	0.000081
 110	1.0845e+01	4.3651	7.771078	0.000206	2.060082	0.697975	0.000083
 111	1.0945e+01	4.4277	7.844399	0.000183	1.826674	0.618894	0.000074
 112	1.1044e+01	4.4389	7.927497	0.000207	2.070230	0.701413	0.000084
 113	1.1144e+01	4.4886	8.008966	0.000203	2.029637	0.687660	0.000082
 114	1.1243e+01	4.5207	8.090841	0.000204	2.039786	0.691098	0.000082
 115	1.1343e+01	4.5689	8.166200	0.000188	1.877415	0.636085	0.000076
 116	1.1443e+01	4.6122	8.251334	0.000212	2.120971	0.718604	0.000086
 117	1.1542e+01	4.6394	8.332803	0.000203	2.029637	0.687660	0.000082
 118	1.1642e+01	4.6779	8.413457	0.000201	2.009341	0.680783	0.000081
 119	1.1741e+01	4.7245	8.493703	0.000200	1.999193	0.677345	0.000081
 120	1.1841e+01	4.7357	8.574764	0.000202	2.019489	0.684221	0.000081
 121	1.1940e+01	4.7886	8.653381	0.000196	1.958600	0.663592	0.000079
 122	1.2040e+01	4.8544	8.732813	0.000198	1.978896	0.670468	0.000080
 123	1.2139e+01	4.8801	8.815096	0.000205	2.049934	0.694536	0.000083
 124	1.2239e+01	4.9090	8.898194	0.000207	2.070230	0.701413	0.000084
 125	1.2338e+01	4.9651	8.972331	0.000185	1.846970	0.625770	0.000075
 126	1.2438e+01	5.0084	9.054614	0.000205	2.049934	0.694536	0.000083
 127	1.2537e+01	5.0614	9.140563	0.000214	2.141267	0.725481	0.000086
 128	1.2636e+01	5.0726	9.217958	0.000193	1.928156	0.653277	0.000078
 129	1.2736e+01	5.1111	9.295353	0.000193	1.928156	0.653277	0.000078
 130	1.2835e+01	5.1672	9.376415	0.000202	2.019489	0.684221	0.000081
 131	1.2935e+01	5.2057	9.459920	0.000208	2.080378	0.704851	0.000084
 132	1.3034e+01	5.2250	9.535685	0.000189	1.887563	0.639524	0.000076
 133	1.3134e+01	5.2779	9.624486	0.000221	2.212305	0.749549	0.000089
 134	1.3233e+01	5.3277	9.699030	0.000186	1.857118	0.629209	0.000075
 135	1.3333e+01	5.3662	9.777240	0.000195	1.948452	0.660153	0.000079
 136	1.3432e+01	5.3630	9.857079	-0.000199	-1.989045	-0.673907	0.000080
 137	1.3532e+01	5.4367	9.935696	0.000196	1.958600	0.663592	0.000079
 138	1.3632e+01	5.4945	10.007388	0.000179	1.786081	0.605141	0.000072
 139	1.3731e+01	5.5410	10.088449	0.000202	2.019489	0.684221	0.000081
 140	1.3831e+01	5.5619	10.164622	0.000190	1.897711	0.642962	0.000077
 141	1.3930e+01	5.6036	10.241203	0.000191	1.907859	0.646400	0.000077
 142	1.4030e+01	5.6212	10.316154	0.000187	1.867266	0.632647	0.000075
 143	1.4129e+01	5.7014	10.395586	0.000198	1.978896	0.670468	0.000080
 144	1.4229e+01	5.7159	10.471759	0.000190	1.897711	0.642962	0.000077
 145	1.4328e+01	5.7817	10.551598	0.000199	1.989045	0.673907	0.000080
 146	1.4428e+01	5.7977	10.624919	0.000183	1.826674	0.618894	0.000074
 147	1.4527e+01	5.8250	10.699870	0.000187	1.867266	0.632647	0.000075
 148	1.4627e+01	5.8811	10.778895	0.000197	1.968748	0.667030	0.000079
 149	1.4726e+01	5.9228	10.854253	0.000188	1.877415	0.636085	0.000076
 150	1.4825e+01	5.9613	10.934500	0.000200	1.999193	0.677345	0.000081
 151	1.4925e+01	5.9870	11.005785	0.000178	1.775933	0.601702	0.000072
 152	1.5024e+01	6.0464	11.079921	0.000185	1.846970	0.625770	0.000075
 153	1.5124e+01	6.0800	11.156501	0.000191	1.907859	0.646400	0.000077
 154	1.5223e+01	6.1298	11.232675	0.000190	1.897711	0.642962	0.000077
 155	1.5323e+01	6.1490	11.306811	0.000185	1.846970	0.625770	0.000075
 156	1.5422e+01	6.2020	11.381355	0.000186	1.857118	0.629209	0.000075
 157	1.5522e+01	6.2324	11.454676	0.000183	1.826674	0.618894	0.000074
 158	1.5621e+01	6.2645	11.533701	0.000197	1.968748	0.667030	0.000079
 159	1.5721e+01	6.3223	11.610281	0.000191	1.907859	0.646400	0.000077
 160	1.5820e+01	6.3544	11.681159	0.000177	1.765785	0.598264	0.000071
 161	1.5920e+01	6.3688	11.761813	0.000201	2.009341	0.680783	0.000081
 162	1.6020e+01	6.4250	11.839208	0.000193	1.928156	0.653277	0.000078
 163	1.6119e+01	6.4635	11.910085	0.000177	1.765785	0.598264	0.000071
 164	1.6218e+01	6.5116	11.984629	0.000186	1.857118	0.629209	0.000075
 165	1.6318e+01	6.5469	12.061617	0.000192	1.918007	0.649838	0.000077
 166	1.6418e+01	6.5886	12.135346	0.000184	1.836822	0.622332	0.000074
 167	1.6517e+01	6.6351	12.211926	0.000191	1.907859	0.646400	0.000077
 168	1.6616e+01	6.6656	12.288914	0.000192	1.918007	0.649838	0.000077
 169	1.6716e+01	6.7041	12.360606	0.000179	1.786081	0.605141	0.000072
 170	1.6816e+01	6.7650	12.434335	0.000184	1.836822	0.622332	0.000074
 171	1.6915e+01	6.7891	12.509286	0.000187	1.867266	0.632647	0.000075
 172	1.7015e+01	6.8276	12.585866	0.000191	1.907859	0.646400	0.000077
 173	1.7114e+01	6.8613	12.656337	0.000176	1.755636	0.594826	0.000071
 174	1.7213e+01	6.9046	12.731695	0.000188	1.877415	0.636085	0.000076
 175	1.7313e+01	6.9768	12.807461	0.000189	1.887563	0.639524	0.000076
 176	1.7413e+01	6.9704	12.885263	-0.000194	-1.938304	-0.656715	0.000078
 177	1.7512e+01	7.0458	12.961436	0.000190	1.897711	0.642962	0.000077
 178	1.7611e+01	7.0682	13.033536	0.000180	1.796229	0.608579	0.000072
 179	1.7711e+01	7.1180	13.102784	0.000173	1.725192	0.584511	0.000070
 180	1.7811e+01	7.1565	13.180587	0.000194	1.938304	0.656715	0.000078
 181	1.7910e+01	7.1950	13.250650	0.000175	1.745488	0.591387	0.000070
 182	1.8009e+01	7.2255	13.326415	0.000189	1.887563	0.639524	0.000076
 183	1.8109e+01	7.2527	13.394034	0.000168	1.684599	0.570758	0.000068
 184	1.8209e+01	7.3169	13.465726	0.000179	1.786081	0.605141	0.000072
 185	1.8308e+01	7.3410	13.538233	0.000181	1.806377	0.612017	0.000073
 186	1.8407e+01	7.3891	13.605852	0.000168	1.684599	0.570758	0.000068
 187	1.8507e+01	7.4260	13.675915	0.000175	1.745488	0.591387	0.000070
 188	1.8607e+01	7.4854	13.749644	0.000184	1.836822	0.622332	0.000074
 189	1.8706e+01	7.5030	13.821744	0.000180	1.796229	0.608579	0.000072
 190	1.8805e+01	7.5351	13.892214	0.000176	1.755636	0.594826	0.000071
 191	1.8905e+01	7.5880	13.963499	0.000178	1.775933	0.601702	0.000072
 192	1.9005e+01	7.6281	14.035599	0.000180	1.796229	0.608579	0.000072
 193	1.9104e+01	7.6779	14.108513	0.000182	1.816525	0.615455	0.000073
 194	1.9203e+01	7.7212	14.177761	0.000173	1.725192	0.584511	0.000070
 195	1.9303e+01	7.7404	14.244565	0.000166	1.664303	0.563881	0.000067
 196	1.9402e+01	7.7805	14.314221	0.000174	1.735340	0.587949	0.000070
 197	1.9502e+01	7.8431	14.383469	0.000173	1.725192	0.584511	0.000070
 198	1.9602e+01	7.8672	14.453939	0.000176	1.755636	0.594826	0.000071
 199	1.9701e+01	7.9089	14.526854	0.000182	1.816525	0.615455	0.000073
 200	1.9800e+01	7.9698	14.587955	0.000152	1.522228	0.515745	0.000061
 201	1.9900e+01	7.9859	14.660869	0.000182	1.816525	0.615455	0.000073
 202	2.0000e+01	8.0244	14.726044	0.000162	1.623710	0.550128	0.000066
 203	2.0099e+01	8.0677	14.793663	0.000168	1.684599	0.570758	0.000068
 204	2.0198e+01	8.1046	14.855987	0.000155	1.552673	0.526060	0.000063
 205	2.0298e+01	8.1303	14.928901	0.000182	1.816525	0.615455	0.000073
 206	2.0398e+01	8.1896	14.996112	0.000167	1.674451	0.567319	0.000068
 207	2.0497e+01	8.2393	15.063731	0.000168	1.684599	0.570758	0.000068
 208	2.0596e+01	8.2490	15.130943	0.000167	1.674451	0.567319	0.000068
 209	2.0696e+01	8.3131	15.198969	0.000169	1.694747	0.574196	0.000068
 210	2.0796e+01	8.3420	15.268217	0.000173	1.725192	0.584511	0.000070
 211	2.0895e+01	8.3693	15.334207	0.000164	1.644006	0.557004	0.000066
 212	2.0994e+01	8.4399	15.405084	0.000177	1.765785	0.598264	0.000071
 213	2.1094e+01	8.4559	15.464964	0.000149	1.491783	0.505430	0.000060
 214	2.1194e+01	8.5121	15.532990	0.000169	1.694747	0.574196	0.000068
 215	2.1293e+01	8.5297	15.598979	0.000164	1.644006	0.557004	0.000066
 216	2.1392e+01	8.5714	15.667006	0.000169	1.694747	0.574196	0.000068
 217	2.1492e+01	8.5987	15.730551	0.000158	1.583117	0.536375	0.000064
 218	2.1591e+01	8.6853	15.796133	0.000163	1.633858	0.553566	0.000066
 219	2.1691e+01	8.6998	15.862123	0.000164	1.644006	0.557004	0.000066
 220	2.1791e+01	8.7302	15.934630	0.000181	1.806377	0.612017	0.000073
 221	2.1890e+01	8.7848	15.998990	0.000160	1.603414	0.543251	0.000065
 222	2.1989e+01	8.8088	16.066201	0.000167	1.674451	0.567319	0.000068
 223	2.2089e+01	8.8538	16.134227	0.000169	1.694747	0.574196	0.000068
 224	2.2189e+01	8.8987	16.205920	0.000179	1.786081	0.605141	0.000072
 225	2.2288e+01	8.9436	16.269873	0.000159	1.593265	0.539813	0.000064
 226	2.2387e+01	8.9821	16.339121	0.000173	1.725192	0.584511	0.000070
 227	2.2487e+01	9.0350	16.407554	0.000170	1.704895	0.577634	0.000069
 228	2.2587e+01	9.0671	16.473544	0.000164	1.644006	0.557004	0.000066
 229	2.2686e+01	9.0976	16.542792	0.000173	1.725192	0.584511	0.000070
 230	2.2785e+01	9.1634	16.609596	0.000166	1.664303	0.563881	0.000067
 231	2.2885e+01	9.1826	16.671105	0.000153	1.532376	0.519183	0.000062
 232	2.2985e+01	9.2131	16.739946	0.000172	1.715044	0.581072	0.000069
 233	2.3084e+01	9.2596	16.811231	0.000178	1.775933	0.601702	0.000072
 234	2.3183e+01	9.3046	16.878442	0.000167	1.674451	0.567319	0.000068
 235	2.3283e+01	9.3286	16.942802	0.000160	1.603414	0.543251	0.000065
 236	2.3383e+01	9.4168	17.012458	0.000174	1.735340	0.587949	0.000070
 237	2.3482e+01	9.4361	17.078855	0.000165	1.654154	0.560443	0.000067
 238	2.3581e+01	9.4730	17.146474	0.000168	1.684599	0.570758	0.000068
 239	2.3681e+01	9.4987	17.212871	0.000165	1.654154	0.560443	0.000067
 240	2.3780e+01	9.5356	17.280489	0.000168	1.684599	0.570758	0.000068
 241	2.3880e+01	9.5773	17.349738	0.000173	1.725192	0.584511	0.000070
 242	2.3980e+01	9.6270	17.414912	0.000162	1.623710	0.550128	0.000066
 243	2.4079e+01	9.6639	17.477643	0.000156	1.562821	0.529498	0.000063
 244	2.4178e+01	9.6992	17.544447	0.000166	1.664303	0.563881	0.000067
 245	2.4278e+01	9.7489	17.606771	0.000155	1.552673	0.526060	0.000063
 246	2.4378e+01	9.7746	17.675204	0.000170	1.704895	0.577634	0.000069
 247	2.4477e+01	9.8243	17.740379	0.000162	1.623710	0.550128	0.000066
 248	2.4576e+01	9.8500	17.800666	0.000150	1.501932	0.508868	0.000061
 249	2.4676e+01	9.8901	17.868692	0.000169	1.694747	0.574196	0.000068
 250	2.4776e+01	9.9398	17.932645	0.000159	1.593265	0.539813	0.000064
 251	2.4875e+01	9.9880	17.998227	0.000163	1.633858	0.553566	0.000066
 252	2.4974e+01	10.0216	18.062994	0.000161	1.613562	0.546690	0.000065
 253	2.5074e+01	10.0634	18.128984	0.000164	1.644006	0.557004	0.000066
 254	2.5174e+01	10.0906	18.194159	0.000162	1.623710	0.550128	0.000066
 255	2.5273e+01	10.1404	18.262185	0.000169	1.694747	0.574196	0.000068
 256	2.5372e+01	10.1756	18.324101	0.000154	1.542524	0.522621	0.000062
 257	2.5472e+01	10.2174	18.388868	0.000161	1.613562	0.546690	0.000065
 258	2.5572e+01	10.2478	18.449970	0.000152	1.522228	0.515745	0.000061
 259	2.5671e+01	10.2719	18.519625	0.000174	1.735340	0.587949	0.000070
 260	2.5770e+01	10.3281	18.581542	0.000154	1.542524	0.522621	0.000062
 261	2.5870e+01	10.3746	18.645494	0.000159	1.593265	0.539813	0.000064
 262	2.5970e+01	10.4099	18.708632	0.000157	1.572969	0.532936	0.000063
 263	2.6069e+01	10.4500	18.771770	0.000157	1.572969	0.532936	0.000063
 264	2.6169e+01	10.5061	18.840204	0.000170	1.704895	0.577634	0.000069
 265	2.6268e+01	10.5462	18.904157	0.000159	1.593265	0.539813	0.000064
 266	2.6367e+01	10.5751	18.969332	0.000162	1.623710	0.550128	0.000066
 267	2.6467e+01	10.6409	19.033284	0.000159	1.593265	0.539813	0.000064
 268	2.6567e+01	10.6457	19.102533	0.000173	1.725192	0.584511	0.000070
 269	2.6666e+01	10.7099	19.170559	0.000169	1.694747	0.574196	0.000068
 270	2.6765e+01	10.7307	19.234512	0.000159	1.593265	0.539813	0.000064
 271	2.6865e+01	10.7708	19.300908	0.000165	1.654154	0.560443	0.000067
 272	2.6965e+01	10.8189	19.366898	0.000164	1.644006	0.557004	0.000066
 273	2.7064e+01	10.8286	19.430036	0.000157	1.572969	0.532936	0.000063
 274	2.7163e+01	10.8879	19.497248	0.000167	1.674451	0.567319	0.000068
 275	2.7263e+01	10.9441	19.564866	0.000168	1.684599	0.570758	0.000068
 276	2.7363e+01	10.9681	19.625560	0.000151	1.512080	0.512307	0.000061
 277	2.7462e+01	11.0179	19.689513	0.000159	1.593265	0.539813	0.000064
 278	2.7561e+01	11.0500	19.758354	0.000172	1.715044	0.581072	0.000069
 279	2.7661e+01	11.1109	19.821900	0.000158	1.583117	0.536375	0.000064
 280	2.7761e+01	11.1173	19.888704	0.000166	1.664303	0.563881	0.000067
 281	2.7860e+01	11.2024	19.951842	0.000157	1.572969	0.532936	0.000063
 282	2.7959e+01	11.2168	20.017017	0.000162	1.623710	0.550128	0.000066
 283	2.8059e+01	11.2537	20.083821	0.000166	1.664303	0.563881	0.000067
 284	2.8159e+01	11.3050	20.152254	0.000170	1.704895	0.577634	0.000069
 285	2.8258e+01	11.3275	20.221910	0.000174	1.735340	0.587949	0.000070
 286	2.8358e+01	11.3692	20.289529	0.000168	1.684599	0.570758	0.000068
 287	2.8457e+01	11.4157	20.356333	0.000166	1.664303	0.563881	0.000067
 288	2.8556e+01	11.4542	20.423952	0.000168	1.684599	0.570758	0.000068
 289	2.8656e+01	11.4687	20.493607	0.000174	1.735340	0.587949	0.000070
 290	2.8756e+01	11.5457	20.556338	0.000156	1.562821	0.529498	0.000063
 291	2.8855e+01	11.5617	20.622735	0.000165	1.654154	0.560443	0.000067
 292	2.8954e+01	11.6162	20.684651	0.000154	1.542524	0.522621	0.000062
 293	2.9054e+01	11.6612	20.750641	0.000164	1.644006	0.557004	0.000066
 294	2.9154e+01	11.7093	20.819481	0.000172	1.715044	0.581072	0.000069
 295	2.9253e+01	11.7558	20.890766	0.000178	1.775933	0.601702	0.000072
 296	2.9352e+01	11.7398	20.954312	-0.000158	-1.583117	-0.536375	0.000064
 297	2.9452e+01	11.8088	21.021523	0.000167	1.674451	0.567319	0.000068
 298	2.9552e+01	11.8649	21.084254	0.000156	1.562821	0.529498	0.000063
 299	2.9651e+01	11.8842	21.153502	0.000173	1.725192	0.584511	0.000070
 300	2.9750e+01	11.9403	21.218677	0.000162	1.623710	0.550128	0.000066
 301	2.9850e+01	11.9676	21.286703	0.000169	1.694747	0.574196	0.000068
 302	2.9950e+01	12.0301	21.353508	0.000166	1.664303	0.563881	0.000067
 303	3.0049e+01	12.0366	21.415424	0.000154	1.542524	0.522621	0.000062
 304	3.0148e+01	12.1055	21.481820	0.000165	1.654154	0.560443	0.000067
 305	3.0248e+01	12.1376	21.544144	0.000155	1.552673	0.526060	0.000063
 306	3.0348e+01	12.1793	21.607282	0.000157	1.572969	0.532936	0.000063
 307	3.0447e+01	12.2275	21.676530	0.000173	1.725192	0.584511	0.000070
 308	3.0547e+01	12.2563	21.736410	0.000149	1.491783	0.505430	0.000060
 309	3.0646e+01	12.3077	21.801992	0.000163	1.633858	0.553566	0.000066
 310	3.0745e+01	12.3141	21.862686	0.000151	1.512080	0.512307	0.000061
 311	3.0845e+01	12.3622	21.923787	0.000152	1.522228	0.515745	0.000061
 312	3.0945e+01	12.3911	21.995479	0.000179	1.786081	0.605141	0.000072
 313	3.1044e+01	12.4537	22.054544	0.000147	1.471487	0.498553	0.000059
 314	3.1143e+01	12.4729	22.117682	0.000157	1.572969	0.532936	0.000063
 315	3.1243e+01	12.5194	22.180006	0.000155	1.552673	0.526060	0.000063
 316	3.1343e+01	12.5724	22.243551	0.000158	1.583117	0.536375	0.000064
 317	3.1442e+01	12.6349	22.307911	0.000160	1.603414	0.543251	0.000065
 318	3.1541e+01	12.6478	22.370235	0.000155	1.552673	0.526060	0.000063
 319	3.1641e+01	12.6975	22.429707	0.000148	1.481635	0.501992	0.000060
 320	3.1741e+01	12.7440	22.496103	0.000165	1.654154	0.560443	0.000067
 321	3.1840e+01	12.7729	22.558834	0.000156	1.562821	0.529498	0.000063
 322	3.1939e+01	12.8162	22.620750	0.000154	1.542524	0.522621	0.000062
 323	3.2039e+01	12.8451	22.682666	0.000154	1.542524	0.522621	0.000062
 324	3.2139e+01	12.9012	22.748248	0.000163	1.633858	0.553566	0.000066
 325	3.2238e+01	12.9189	22.806498	0.000145	1.451191	0.491677	0.000059
 326	3.2337e+01	12.9686	22.872081	0.000163	1.633858	0.553566	0.000066
 327	3.2437e+01	13.0039	22.929516	0.000143	1.430894	0.484800	0.000058
 328	3.2536e+01	13.0280	22.987359	0.000144	1.441043	0.488238	0.000058
 329	3.2636e+01	13.0825	23.050497	0.000157	1.572969	0.532936	0.000063
 330	3.2736e+01	13.1322	23.121374	0.000177	1.765785	0.598264	0.000071
 331	3.2835e+01	13.1691	23.184105	0.000156	1.562821	0.529498	0.000063
 332	3.2934e+01	13.1948	23.247243	0.000157	1.572969	0.532936	0.000063
 333	3.3034e+01	13.2542	23.311603	0.000160	1.603414	0.543251	0.000065
 334	3.3133e+01	13.2814	23.373112	0.000153	1.532376	0.519183	0.000062
 335	3.3233e+01	13.3376	23.437065	0.000159	1.593265	0.539813	0.000064
 336	3.3333e+01	13.3697	23.501017	0.000159	1.593265	0.539813	0.000064
 337	3.3432e+01	13.4066	23.558045	0.000142	1.420746	0.481362	0.000057
 338	3.3532e+01	13.4547	23.623220	0.000162	1.623710	0.550128	0.000066
 339	3.3631e+01	13.4852	23.691246	0.000169	1.694747	0.574196	0.000068
 340	3.3730e+01	13.5301	23.746645	0.000138	1.380153	0.467609	0.000056
 341	3.3830e+01	13.5638	23.813042	0.000165	1.654154	0.560443	0.000067
 342	3.3929e+01	13.6055	23.874958	0.000154	1.542524	0.522621	0.000062
 343	3.4029e+01	13.6424	23.936467	0.000153	1.532376	0.519183	0.000062
 344	3.4129e+01	13.6889	24.000419	0.000159	1.593265	0.539813	0.000064
 345	3.4228e+01	13.7146	24.060299	0.000149	1.491783	0.505430	0.000060
 346	3.4328e+01	13.7643	24.123030	0.000156	1.562821	0.529498	0.000063
 347	3.4427e+01	13.7996	24.188612	0.000163	1.633858	0.553566	0.000066
 348	3.4526e+01	13.8461	24.246862	0.000145	1.451191	0.491677	0.000059
 349	3.4626e+01	13.8750	24.308370	0.000153	1.532376	0.519183	0.000062
 350	3.4725e+01	13.9151	24.370286	0.000154	1.542524	0.522621	0.000062
 351	3.4825e+01	13.9424	24.425685	0.000138	1.380153	0.467609	0.000056
 352	3.4925e+01	14.0001	24.487601	0.000154	1.542524	0.522621	0.000062
 353	3.5024e+01	14.0563	24.549110	0.000153	1.532376	0.519183	0.000062
 354	3.5123e+01	14.0980	24.605730	0.000141	1.410598	0.477924	0.000057
 355	3.5223e+01	14.1493	24.668869	0.000157	1.572969	0.532936	0.000063
 356	3.5322e+01	14.1718	24.727526	0.000146	1.461339	0.495115	0.000059
 357	3.5422e+01	14.2151	24.787813	0.000150	1.501932	0.508868	0.000061
 358	3.5522e+01	14.2488	24.842804	0.000137	1.370005	0.464170	0.000055
 359	3.5621e+01	14.2873	24.904313	0.000153	1.532376	0.519183	0.000062
 360	3.5721e+01	14.2953	24.965007	0.000151	1.512080	0.512307	0.000061
 361	3.5820e+01	14.3531	25.025293	0.000150	1.501932	0.508868	0.000061
 362	3.5919e+01	14.3948	25.082729	0.000143	1.430894	0.484800	0.000058
 363	3.6019e+01	14.4381	25.136905	0.000135	1.349709	0.457294	0.000054
 364	3.6118e+01	14.4894	25.202487	0.000163	1.633858	0.553566	0.000066
 365	3.6218e+01	14.5167	25.256664	0.000135	1.349709	0.457294	0.000054
 366	3.6318e+01	14.5584	25.318987	0.000155	1.552673	0.526060	0.000063
 367	3.6417e+01	14.5969	25.372349	0.000133	1.329412	0.450417	0.000054
 368	3.6517e+01	14.6627	25.433451	0.000152	1.522228	0.515745	0.000061
 369	3.6616e+01	14.6819	25.487627	0.000135	1.349709	0.457294	0.000054
 370	3.6715e+01	14.7301	25.542211	0.000136	1.359857	0.460732	0.000055
 371	3.6815e+01	14.7589	25.596795	0.000136	1.359857	0.460732	0.000055
 372	3.6914e+01	14.7974	25.655860	0.000147	1.471487	0.498553	0.000059
 373	3.7014e+01	14.8424	25.710851	0.000137	1.370005	0.464170	0.000055
 374	3.7114e+01	14.8825	25.774396	0.000158	1.583117	0.536375	0.000064
 375	3.7213e+01	14.9258	25.829388	0.000137	1.370005	0.464170	0.000055
 376	3.7313e+01	14.9434	25.884379	0.000137	1.370005	0.464170	0.000055
 377	3.7412e+01	14.9932	25.936926	0.000131	1.309116	0.443541	0.000053
 378	3.7511e+01	15.0333	25.998842	0.000154	1.542524	0.522621	0.000062
 379	3.7611e+01	15.0782	26.053426	0.000136	1.359857	0.460732	0.000055
 380	3.7711e+01	15.1087	26.109232	0.000139	1.390302	0.471047	0.000056
 381	3.7810e+01	15.1600	26.164223	0.000137	1.370005	0.464170	0.000055
 382	3.7910e+01	15.1825	26.223695	0.000148	1.481635	0.501992	0.000060
 383	3.8009e+01	15.2546	26.274613	0.000127	1.268523	0.429787	0.000051
 384	3.8108e+01	15.2530	26.328382	-0.000134	-1.339561	-0.453855	0.000054
 385	3.8208e+01	15.3172	26.382559	0.000135	1.349709	0.457294	0.000054
 386	3.8307e+01	15.3669	26.441216	0.000146	1.461339	0.495115	0.000059
 387	3.8407e+01	15.3798	26.499059	0.000144	1.441043	0.488238	0.000058
 388	3.8507e+01	15.4279	26.555272	0.000140	1.400450	0.474485	0.000056
 389	3.8606e+01	15.4825	26.614744	0.000148	1.481635	0.501992	0.000060
 390	3.8706e+01	15.5017	26.670550	0.000139	1.390302	0.471047	0.000056
 391	3.8805e+01	15.5530	26.730837	0.000150	1.501932	0.508868	0.000061
 392	3.8904e+01	15.5931	26.787865	0.000142	1.420746	0.481362	0.000057
 393	3.9004e+01	15.6204	26.843263	0.000138	1.380153	0.467609	0.000056
 394	3.9103e+01	15.6830	26.900698	0.000143	1.430894	0.484800	0.000058
 395	3.9203e+01	15.6958	26.958541	0.000144	1.441043	0.488238	0.000058
 396	3.9303e+01	15.7568	27.012718	0.000135	1.349709	0.457294	0.000054
 397	3.9402e+01	15.7905	27.073819	0.000152	1.522228	0.515745	0.000061
 398	3.9502e+01	15.8546	27.129625	0.000139	1.390302	0.471047	0.000056
 399	3.9601e+01	15.8931	27.184616	0.000137	1.370005	0.464170	0.000055
 400	3.9700e+01	15.9236	27.243681	0.000147	1.471487	0.498553	0.000059
 401	3.9800e+01	15.9477	27.302746	0.000147	1.471487	0.498553	0.000059
 402	3.9900e+01	15.9990	27.356107	0.000133	1.329412	0.450417	0.000054
 403	3.9999e+01	16.0151	27.411099	0.000137	1.370005	0.464170	0.000055
 404	4.0099e+01	16.0776	27.468941	0.000144	1.441043	0.488238	0.000058
 405	4.0198e+01	16.1290	27.531672	0.000156	1.562821	0.529498	0.000063
 406	4.0297e+01	16.1514	27.583405	0.000129	1.288820	0.436664	0.000052
 407	4.0397e+01	16.2028	27.642062	0.000146	1.461339	0.495115	0.000059
 408	4.0496e+01	16.2268	27.697868	0.000139	1.390302	0.471047	0.000056
 409	4.0596e+01	16.2669	27.756118	0.000145	1.451191	0.491677	0.000059
 410	4.0696e+01	16.3022	27.810702	0.000136	1.359857	0.460732	0.000055
 411	4.0795e+01	16.3616	27.865693	0.000137	1.370005	0.464170	0.000055
 412	4.0895e+01	16.3728	27.920277	0.000136	1.359857	0.460732	0.000055
 413	4.0994e+01	16.4161	27.978527	0.000145	1.451191	0.491677	0.000059
 414	4.1093e+01	16.4995	28.037184	0.000146	1.461339	0.495115	0.000059
 415	4.1193e+01	16.5236	28.086880	0.000124	1.238079	0.419472	0.000050
 416	4.1292e+01	16.5557	28.145537	0.000146	1.461339	0.495115	0.000059
 417	4.1392e+01	16.5862	28.196455	0.000127	1.268523	0.429787	0.000051
 418	4.1492e+01	16.6327	28.255112	0.000146	1.461339	0.495115	0.000059
 419	4.1591e+01	16.6920	28.306845	0.000129	1.288820	0.436664	0.000052
 420	4.1691e+01	16.7033	28.363058	0.000140	1.400450	0.474485	0.000056
 421	4.1790e+01	16.7803	28.417235	0.000135	1.349709	0.457294	0.000054
 422	4.1889e+01	16.7674	28.473448	-0.000140	-1.400450	-0.474485	0.000056
 423	4.1989e+01	16.8701	28.530883	0.000143	1.430894	0.484800	0.000058
 424	4.2089e+01	16.8829	28.585467	0.000136	1.359857	0.460732	0.000055
 425	4.2188e+01	16.9231	28.639236	0.000134	1.339561	0.453855	0.000054
 426	4.2288e+01	16.9567	28.699930	0.000151	1.512080	0.512307	0.000061
 427	4.2387e+01	16.9920	28.750848	0.000127	1.268523	0.429787	0.000051
 428	4.2486e+01	17.0337	28.801359	0.000126	1.258375	0.426349	0.000051
 429	4.2586e+01	17.0867	28.856350	0.000137	1.370005	0.464170	0.000055
 430	4.2685e+01	17.1124	28.912563	0.000140	1.400450	0.474485	0.000056
 431	4.2785e+01	17.1332	28.970813	0.000145	1.451191	0.491677	0.000059
 432	4.2885e+01	17.2022	29.022546	0.000129	1.288820	0.436664	0.000052
 433	4.2984e+01	17.2230	29.081610	0.000147	1.471487	0.498553	0.000059
 434	4.3084e+01	17.2808	29.140268	0.000146	1.461339	0.495115	0.000059
 435	4.3183e+01	17.2872	29.193222	0.000132	1.319264	0.446979	0.000053
 436	4.3282e+01	17.3418	29.249028	0.000139	1.390302	0.471047	0.000056
 437	4.3382e+01	17.3787	29.307278	0.000145	1.451191	0.491677	0.000059
 438	4.3481e+01	17.4204	29.361862	0.000136	1.359857	0.460732	0.000055
 439	4.3581e+01	17.4861	29.422556	0.000151	1.512080	0.512307	0.000061
 440	4.3681e+01	17.5214	29.480806	0.000145	1.451191	0.491677	0.000059
 441	4.3780e+01	17.5439	29.537019	0.000140	1.400450	0.474485	0.000056
 442	4.3880e+01	17.5856	29.589567	0.000131	1.309116	0.443541	0.000053
 443	4.3979e+01	17.6273	29.647409	0.000144	1.441043	0.488238	0.000058
 444	4.4078e+01	17.6867	29.700364	0.000132	1.319264	0.446979	0.000053
 445	4.4178e+01	17.6931	29.760243	0.000149	1.491783	0.505430	0.000060
 446	4.4278e+01	17.7749	29.813605	0.000133	1.329412	0.450417	0.000054
 447	4.4377e+01	17.7942	29.871040	0.000143	1.430894	0.484800	0.000058
 448	4.4477e+01	17.8214	29.927254	0.000140	1.400450	0.474485	0.000056
 449	4.4576e+01	17.8744	29.984282	0.000142	1.420746	0.481362	0.000057
 450	4.4675e+01	17.9321	30.039273	0.000137	1.370005	0.464170	0.000055
 451	4.4775e+01	17.9433	30.097930	0.000146	1.461339	0.495115	0.000059
 452	4.4874e+01	17.9931	30.158217	0.000150	1.501932	0.508868	0.000061
 453	4.4974e+01	18.0171	30.216874	0.000146	1.461339	0.495115	0.000059
 454	4.5074e+01	18.0765	30.275124	0.000145	1.451191	0.491677	0.000059
 455	4.5173e+01	18.1070	30.334189	0.000147	1.471487	0.498553	0.000059
 456	4.5273e+01	18.1326	30.390809	0.000141	1.410598	0.477924	0.000057
 457	4.5372e+01	18.2129	30.448652	0.000144	1.441043	0.488238	0.000058
 458	4.5471e+01	18.2257	30.508124	0.000148	1.481635	0.501992	0.000060
 459	4.5571e+01	18.2674	30.562708	0.000136	1.359857	0.460732	0.000055
 460	4.5670e+01	18.3107	30.617699	0.000137	1.370005	0.464170	0.000055
 461	4.5770e+01	18.3364	30.676357	0.000146	1.461339	0.495115	0.000059
 462	4.5870e+01	18.3781	30.735829	0.000148	1.481635	0.501992	0.000060
 463	4.5969e+01	18.4262	30.796523	0.000151	1.512080	0.512307	0.000061
 464	4.6069e+01	18.4615	30.853551	0.000142	1.420746	0.481362	0.000057
 465	4.6168e+01	18.5193	30.905690	0.000130	1.298968	0.440102	0.000052
 466	4.6267e+01	18.5642	30.968828	0.000157	1.572969	0.532936	0.000063
 467	4.6367e+01	18.5898	31.030337	0.000153	1.532376	0.519183	0.000062
 468	4.6467e+01	18.6251	31.083292	0.000132	1.319264	0.446979	0.000053
 469	4.6566e+01	18.6524	31.141542	0.000145	1.451191	0.491677	0.000059
 470	4.6666e+01	18.7102	31.198162	0.000141	1.410598	0.477924	0.000057
 471	4.6765e+01	18.7198	31.256820	0.000146	1.461339	0.495115	0.000059
 472	4.6864e+01	18.7920	31.310182	0.000133	1.329412	0.450417	0.000054
 473	4.6964e+01	18.8433	31.361099	0.000127	1.268523	0.429787	0.000051
 474	4.7063e+01	18.8722	31.426274	0.000162	1.623710	0.550128	0.000066
 475	4.7163e+01	18.9187	31.474341	0.000120	1.197486	0.405719	0.000048
 476	4.7263e+01	18.9765	31.534220	0.000149	1.491783	0.505430	0.000060
 477	4.7362e+01	18.9733	31.587174	-0.000132	-1.319264	-0.446979	0.000053
 478	4.7462e+01	19.0070	31.644202	0.000142	1.420746	0.481362	0.000057
 479	4.7561e+01	19.0567	31.699601	0.000138	1.380153	0.467609	0.000056
 480	4.7660e+01	19.1225	31.755407	0.000139	1.390302	0.471047	0.000056
 481	4.7760e+01	19.1289	31.807954	0.000131	1.309116	0.443541	0.000053
 482	4.7859e+01	19.1834	31.864575	0.000141	1.410598	0.477924	0.000057
 483	4.7959e+01	19.2187	31.919973	0.000138	1.380153	0.467609	0.000056
 484	4.8059e+01	19.2636	31.974965	0.000137	1.370005	0.464170	0.000055
 485	4.8158e+01	19.3021	32.030771	0.000139	1.390302	0.471047	0.000056
 486	4.8258e+01	19.3422	32.084132	0.000133	1.329412	0.450417	0.000054
 487	4.8357e+01	19.3695	32.138716	0.000136	1.359857	0.460732	0.000055
 488	4.8456e+01	19.4273	32.192486	0.000134	1.339561	0.453855	0.000054
 489	4.8556e+01	19.4690	32.246255	0.000134	1.339561	0.453855	0.000054
 490	4.8656e+01	19.5267	32.301653	0.000138	1.380153	0.467609	0.000056
 491	4.8755e+01	19.5748	32.357052	0.000138	1.380153	0.467609	0.000056
 492	4.8855e+01	19.5941	32.413265	0.000140	1.400450	0.474485	0.000056
 493	4.8954e+01	19.6182	32.467849	0.000136	1.359857	0.460732	0.000055
 494	4.9053e+01	19.6647	32.518767	0.000127	1.268523	0.429787	0.000051
 495	4.9153e+01	19.6984	32.577017	0.000145	1.451191	0.491677	0.000059
 496	4.9252e+01	19.7401	32.629157	0.000130	1.298968	0.440102	0.000052
 497	4.9352e+01	19.8010	32.685777	0.000141	1.410598	0.477924	0.000057
 498	4.9452e+01	19.8219	32.740361	0.000136	1.359857	0.460732	0.000055
 499	4.9551e+01	19.8460	32.799019	0.000146	1.461339	0.495115	0.000059
 500	4.9651e+01	19.9133	32.853602	0.000136	1.359857	0.460732	0.000055
 501	4.9750e+01	19.9486	32.911445	0.000144	1.441043	0.488238	0.000058
 502	4.9849e+01	19.9775	32.967251	0.000139	1.390302	0.471047	0.000056
 503	4.9949e+01	20.0240	33.021835	0.000136	1.359857	0.460732	0.000055
 504	5.0048e+01	19.9695	32.985174	0.000091	0.913337	0.309447	-0.000037
 505	5.0148e+01	19.9534	32.944847	0.000100	1.004670	0.340392	-0.000041
 506	5.0248e+01	19.9214	32.899225	0.000114	1.136597	0.385089	-0.000046
 507	5.0347e+01	19.8620	32.859305	0.000099	0.994522	0.336953	-0.000040
 508	5.0447e+01	19.8267	32.822237	0.000092	0.923485	0.312885	-0.000037
 509	5.0546e+01	19.7770	32.776207	0.000115	1.146745	0.388528	-0.000046
 510	5.0645e+01	19.7337	32.731807	0.000111	1.106152	0.374775	-0.000045
 511	5.0745e+01	19.6968	32.692295	0.000098	0.984374	0.333515	-0.000040
 512	5.0844e+01	19.6535	32.649524	0.000107	1.065560	0.361021	-0.000043
 513	5.0944e+01	19.6246	32.610419	0.000097	0.974226	0.330077	-0.000039
 514	5.1044e+01	19.5861	32.562353	0.000120	1.197486	0.405719	-0.000048
 515	5.1143e+01	19.5412	32.519582	0.000107	1.065560	0.361021	-0.000043
 516	5.1242e+01	19.5187	32.474367	0.000113	1.126449	0.381651	-0.000045
 517	5.1342e+01	19.4738	32.432410	0.000105	1.045263	0.354145	-0.000042
 518	5.1441e+01	19.4224	32.379863	0.000131	1.309116	0.443541	-0.000053
 519	5.1541e+01	19.3855	32.339536	0.000100	1.004670	0.340392	-0.000041
 520	5.1641e+01	19.3454	32.293099	0.000116	1.156893	0.391966	-0.000047
 521	5.1740e+01	19.3134	32.245033	0.000120	1.197486	0.405719	-0.000048
 522	5.1840e+01	19.2636	32.199410	0.000114	1.136597	0.385089	-0.000046
 523	5.1939e+01	19.2171	32.148493	0.000127	1.268523	0.429787	-0.000051
 524	5.2038e+01	19.1995	32.101241	0.000118	1.177190	0.398843	-0.000047
 525	5.2138e+01	19.1529	32.053174	0.000120	1.197486	0.405719	-0.000048
 526	5.2237e+01	19.1096	32.014477	0.000096	0.964078	0.326638	-0.000039
 527	5.2337e+01	19.0888	31.963966	0.000126	1.258375	0.426349	-0.000051
 528	5.2437e+01	19.0294	31.919159	0.000112	1.116301	0.378213	-0.000045
 529	5.2536e+01	18.9813	31.868648	0.000126	1.258375	0.426349	-0.000051
 530	5.2636e+01	18.9428	31.823026	0.000114	1.136597	0.385089	-0.000046
 531	5.2735e+01	18.9043	31.770886	0.000130	1.298968	0.440102	-0.000052
 532	5.2834e+01	18.8401	31.724856	0.000115	1.146745	0.388528	-0.000046
 533	5.2934e+01	18.8305	31.674346	0.000126	1.258375	0.426349	-0.000051
 534	5.3033e+01	18.7791	31.624650	0.000124	1.238079	0.419472	-0.000050
 535	5.3133e+01	18.7230	31.574954	0.000124	1.238079	0.419472	-0.000050
 536	5.3233e+01	18.7134	31.525666	0.000123	1.227931	0.416034	-0.000050
 537	5.3332e+01	18.6717	31.473119	0.000131	1.309116	0.443541	-0.000053
 538	5.3431e+01	18.6332	31.420571	0.000131	1.309116	0.443541	-0.000053
 539	5.3531e+01	18.5738	31.372912	0.000119	1.187338	0.402281	-0.000048
 540	5.3630e+01	18.5353	31.319550	0.000133	1.329412	0.450417	-0.000054
 541	5.3730e+01	18.5112	31.271484	0.000120	1.197486	0.405719	-0.000048
 542	5.3830e+01	18.4615	31.221381	0.000125	1.248227	0.422911	-0.000050
 543	5.3929e+01	18.4278	31.173722	0.000119	1.187338	0.402281	-0.000048
 544	5.4029e+01	18.4070	31.119953	0.000134	1.339561	0.453855	-0.000054
 545	5.4128e+01	18.3492	31.066591	0.000133	1.329412	0.450417	-0.000054
 546	5.4227e+01	18.3444	31.015673	0.000127	1.268523	0.429787	-0.000051
 547	5.4327e+01	18.2578	30.965570	0.000125	1.248227	0.422911	-0.000050
 548	5.4426e+01	18.2417	30.914245	0.000128	1.278672	0.433226	-0.000052
 549	5.4526e+01	18.1888	30.862512	0.000129	1.288820	0.436664	-0.000052
 550	5.4626e+01	18.1487	30.806706	0.000139	1.390302	0.471047	-0.000056
 551	5.4725e+01	18.1102	30.754974	0.000129	1.288820	0.436664	-0.000052
 552	5.4825e+01	18.0717	30.702426	0.000131	1.309116	0.443541	-0.000053
 553	5.4924e+01	18.0396	30.651101	0.000128	1.278672	0.433226	-0.000052
 554	5.5023e+01	17.9915	30.601813	0.000123	1.227931	0.416034	-0.000050
 555	5.5123e+01	17.9530	30.554561	0.000118	1.177190	0.398843	-0.000047
 556	5.5222e+01	17.9225	30.498755	0.000139	1.390302	0.471047	-0.000056
 557	5.5322e+01	17.8776	30.451911	0.000117	1.167041	0.395404	-0.000047
 558	5.5422e+01	17.8294	30.397327	0.000136	1.359857	0.460732	-0.000055
 559	5.5521e+01	17.7861	30.349260	0.000120	1.197486	0.405719	-0.000048
 560	5.5620e+01	17.7460	30.299157	0.000125	1.248227	0.422911	-0.000050
 561	5.5720e+01	17.6995	30.253535	0.000114	1.136597	0.385089	-0.000046
 562	5.5819e+01	17.6642	30.198544	0.000137	1.370005	0.464170	-0.000055
 563	5.5919e+01	17.6289	30.146811	0.000129	1.288820	0.436664	-0.000052
 564	5.6019e+01	17.5936	30.093857	0.000132	1.319264	0.446979	-0.000053
 565	5.6118e+01	17.5583	30.048234	0.000114	1.136597	0.385089	-0.000046
 566	5.6218e+01	17.5182	29.995687	0.000131	1.309116	0.443541	-0.000053
 567	5.6317e+01	17.4589	29.943547	0.000130	1.298968	0.440102	-0.000052
 568	5.6416e+01	17.4300	29.892629	0.000127	1.268523	0.429787	-0.000051
 569	5.6516e+01	17.3787	29.839675	0.000132	1.319264	0.446979	-0.000053
 570	5.6615e+01	17.3514	29.789979	0.000124	1.238079	0.419472	-0.000050
 571	5.6715e+01	17.3113	29.735395	0.000136	1.359857	0.460732	-0.000055
 572	5.6815e+01	17.2776	29.687736	0.000119	1.187338	0.402281	-0.000048
 573	5.6914e+01	17.2118	29.636818	0.000127	1.268523	0.429787	-0.000051
 574	5.7014e+01	17.1990	29.588345	0.000121	1.207634	0.409158	-0.000049
 575	5.7113e+01	17.1460	29.534983	0.000133	1.329412	0.450417	-0.000054
 576	5.7212e+01	17.1124	29.486102	0.000122	1.217782	0.412596	-0.000049
 577	5.7312e+01	17.0771	29.433147	0.000132	1.319264	0.446979	-0.000053
 578	5.7411e+01	17.0402	29.385081	0.000120	1.197486	0.405719	-0.000048
 579	5.7511e+01	16.9808	29.326831	0.000145	1.451191	0.491677	-0.000059
 580	5.7611e+01	16.9519	29.275913	0.000127	1.268523	0.429787	-0.000051
 581	5.7710e+01	16.9006	29.222958	0.000132	1.319264	0.446979	-0.000053
 582	5.7809e+01	16.8797	29.173263	0.000124	1.238079	0.419472	-0.000050
 583	5.7909e+01	16.8412	29.115420	0.000144	1.441043	0.488238	-0.000058
 584	5.8008e+01	16.7915	29.066539	0.000122	1.217782	0.412596	-0.000049
 585	5.8108e+01	16.7514	29.005030	0.000153	1.532376	0.519183	-0.000062
 586	5.8208e+01	16.7225	28.956964	0.000120	1.197486	0.405719	-0.000048
 587	5.8307e+01	16.6632	28.903602	0.000133	1.329412	0.450417	-0.000054
 588	5.8407e+01	16.6295	28.851462	0.000130	1.298968	0.440102	-0.000052
 589	5.8506e+01	16.5990	28.798100	0.000133	1.329412	0.450417	-0.000054
 590	5.8605e+01	16.5589	28.745960	0.000130	1.298968	0.440102	-0.000052
 591	5.8705e+01	16.5076	28.693413	0.000131	1.309116	0.443541	-0.000053
 592	5.8804e+01	16.5011	28.642495	0.000127	1.268523	0.429787	-0.000051
 593	5.8904e+01	16.4241	28.586282	0.000140	1.400450	0.474485	-0.000056
 594	5.9004e+01	16.3872	28.531698	0.000136	1.359857	0.460732	-0.000055
 595	5.9103e+01	16.3600	28.477929	0.000134	1.339561	0.453855	-0.000054
 596	5.9203e+01	16.3231	28.425382	0.000131	1.309116	0.443541	-0.000053
 597	5.9302e+01	16.2894	28.370390	0.000137	1.370005	0.464170	-0.000055
 598	5.9401e+01	16.2156	28.318658	0.000129	1.288820	0.436664	-0.000052
 599	5.9501e+01	16.1899	28.262852	0.000139	1.390302	0.471047	-0.000056
 600	5.9600e+01	16.1290	28.211119	0.000129	1.288820	0.436664	-0.000052
 601	5.9700e+01	16.1097	28.161424	0.000124	1.238079	0.419472	-0.000050
 602	5.9800e+01	16.0953	28.108062	0.000133	1.329412	0.450417	-0.000054
 603	5.9899e+01	16.0311	28.053071	0.000137	1.370005	0.464170	-0.000055
 604	5.9998e+01	15.9990	28.006226	0.000117	1.167041	0.395404	-0.000047
 605	6.0098e+01	15.9429	27.954086	0.000130	1.298968	0.440102	-0.000052
 606	6.0197e+01	15.9092	27.898688	0.000138	1.380153	0.467609	-0.000056
 607	6.0297e+01	15.8771	27.851029	0.000119	1.187338	0.402281	-0.000048
 608	6.0397e+01	15.8434	27.795630	0.000138	1.380153	0.467609	-0.000056
 609	6.0496e+01	15.7873	27.746342	0.000123	1.227931	0.416034	-0.000050
 610	6.0596e+01	15.7455	27.693387	0.000132	1.319264	0.446979	-0.000053
 611	6.0695e+01	15.7263	27.640433	0.000132	1.319264	0.446979	-0.000053
 612	6.0794e+01	15.6766	27.588293	0.000130	1.298968	0.440102	-0.000052
 613	6.0894e+01	15.6349	27.536153	0.000130	1.298968	0.440102	-0.000052
 614	6.0993e+01	15.6060	27.485642	0.000126	1.258375	0.426349	-0.000051
 615	6.1093e+01	15.5386	27.432688	0.000132	1.319264	0.446979	-0.000053
 616	6.1193e+01	15.5145	27.379326	0.000133	1.329412	0.450417	-0.000054
 617	6.1292e+01	15.4825	27.325149	0.000135	1.349709	0.457294	-0.000054
 618	6.1392e+01	15.4263	27.277898	0.000118	1.177190	0.398843	-0.000047
 619	6.1491e+01	15.3718	27.226980	0.000127	1.268523	0.429787	-0.000051
 620	6.1590e+01	15.3573	27.174433	0.000131	1.309116	0.443541	-0.000053
 621	6.1690e+01	15.3044	27.122293	0.000130	1.298968	0.440102	-0.000052
 622	6.1789e+01	15.2787	27.073819	0.000121	1.207634	0.409158	-0.000049
 623	6.1889e+01	15.2354	27.018828	0.000137	1.370005	0.464170	-0.000055
 624	6.1989e+01	15.1969	26.971576	0.000118	1.177190	0.398843	-0.000047
 625	6.2088e+01	15.1616	26.914955	0.000141	1.410598	0.477924	-0.000057
 626	6.2188e+01	15.1135	26.867704	0.000118	1.177190	0.398843	-0.000047
 627	6.2287e+01	15.0974	26.814342	0.000133	1.329412	0.450417	-0.000054
 628	6.2386e+01	15.0236	26.768312	0.000115	1.146745	0.388528	-0.000046
 629	6.2486e+01	14.9900	26.713321	0.000137	1.370005	0.464170	-0.000055
 630	6.2586e+01	14.9563	26.663625	0.000124	1.238079	0.419472	-0.000050
 631	6.2685e+01	14.9194	26.613115	0.000126	1.258375	0.426349	-0.000051
 632	6.2785e+01	14.8873	26.564233	0.000122	1.217782	0.412596	-0.000049
 633	6.2884e+01	14.8424	26.508835	0.000138	1.380153	0.467609	-0.000056
 634	6.2983e+01	14.8087	26.459954	0.000122	1.217782	0.412596	-0.000049
 635	6.3083e+01	14.7557	26.406185	0.000134	1.339561	0.453855	-0.000054
 636	6.3182e+01	14.7156	26.356081	0.000125	1.248227	0.422911	-0.000050
 637	6.3282e+01	14.6771	26.304756	0.000128	1.278672	0.433226	-0.000052
 638	6.3382e+01	14.6434	26.249765	0.000137	1.370005	0.464170	-0.000055
 639	6.3481e+01	14.6065	26.195588	0.000135	1.349709	0.457294	-0.000054
 640	6.3581e+01	14.5600	26.149559	0.000115	1.146745	0.388528	-0.000046
 641	6.3680e+01	14.5311	26.091716	0.000144	1.441043	0.488238	-0.000058
 642	6.3779e+01	14.4734	26.039169	0.000131	1.309116	0.443541	-0.000053
 643	6.3879e+01	14.4397	25.984178	0.000137	1.370005	0.464170	-0.000055
 644	6.3978e+01	14.4124	25.928779	0.000138	1.380153	0.467609	-0.000056
 645	6.4078e+01	14.3627	25.875825	0.000132	1.319264	0.446979	-0.000053
 646	6.4177e+01	14.3098	25.821241	0.000136	1.359857	0.460732	-0.000055
 647	6.4277e+01	14.2745	25.764620	0.000141	1.410598	0.477924	-0.000057
 648	6.4376e+01	14.2392	25.708814	0.000139	1.390302	0.471047	-0.000056
 649	6.4476e+01	14.1862	25.657082	0.000129	1.288820	0.436664	-0.000052
 650	6.4576e+01	14.1558	25.602090	0.000137	1.370005	0.464170	-0.000055
 651	6.4675e+01	14.1285	25.549951	0.000130	1.298968	0.440102	-0.000052
 652	6.4775e+01	14.0820	25.495774	0.000135	1.349709	0.457294	-0.000054
 653	6.4874e+01	14.0515	25.440375	0.000138	1.380153	0.467609	-0.000056
 654	6.4974e+01	14.0033	25.382940	0.000143	1.430894	0.484800	-0.000058
 655	6.5073e+01	13.9584	25.329986	0.000132	1.319264	0.446979	-0.000053
 656	6.5172e+01	13.9167	25.273365	0.000141	1.410598	0.477924	-0.000057
 657	6.5272e+01	13.8862	25.214300	0.000147	1.471487	0.498553	-0.000059
 658	6.5371e+01	13.8509	25.163382	0.000127	1.268523	0.429787	-0.000051
 659	6.5471e+01	13.7900	25.105540	0.000144	1.441043	0.488238	-0.000058
 660	6.5570e+01	13.7675	25.053807	0.000129	1.288820	0.436664	-0.000052
 661	6.5670e+01	13.7274	24.997187	0.000141	1.410598	0.477924	-0.000057
 662	6.5769e+01	13.6825	24.942603	0.000136	1.359857	0.460732	-0.000055
 663	6.5869e+01	13.6777	24.887612	0.000137	1.370005	0.464170	-0.000055
 664	6.5969e+01	13.6183	24.829769	0.000144	1.441043	0.488238	-0.000058
 665	6.6068e+01	13.5814	24.782110	0.000119	1.187338	0.402281	-0.000048
 666	6.6168e+01	13.5044	24.725897	0.000140	1.400450	0.474485	-0.000056
 667	6.6267e+01	13.4852	24.671313	0.000136	1.359857	0.460732	-0.000055
 668	6.6367e+01	13.4547	24.616729	0.000136	1.359857	0.460732	-0.000055
 669	6.6466e+01	13.4210	24.563367	0.000133	1.329412	0.450417	-0.000054
 670	6.6566e+01	13.3633	24.509190	0.000135	1.349709	0.457294	-0.000054
 671	6.6665e+01	13.3376	24.453792	0.000138	1.380153	0.467609	-0.000056
 672	6.6764e+01	13.2718	24.396356	0.000143	1.430894	0.484800	-0.000058
 673	6.6864e+01	13.2542	24.339736	0.000141	1.410598	0.477924	-0.000057
 674	6.6963e+01	13.2205	24.284337	0.000138	1.380153	0.467609	-0.000056
 675	6.7063e+01	13.1595	24.228939	0.000138	1.380153	0.467609	-0.000056
 676	6.7162e+01	13.1290	24.174355	0.000136	1.359857	0.460732	-0.000055
 677	6.7262e+01	13.1018	24.120586	0.000134	1.339561	0.453855	-0.000054
 678	6.7362e+01	13.0360	24.063965	0.000141	1.410598	0.477924	-0.000057
 679	6.7461e+01	12.9831	24.009788	0.000135	1.349709	0.457294	-0.000054
 680	6.7561e+01	12.9542	23.949094	0.000151	1.512080	0.512307	-0.000061
 681	6.7660e+01	12.9381	23.903879	0.000113	1.126449	0.381651	-0.000045
 682	6.7760e+01	12.8916	23.846851	0.000142	1.420746	0.481362	-0.000057
 683	6.7859e+01	12.8515	23.787379	0.000148	1.481635	0.501992	-0.000060
 684	6.7959e+01	12.8146	23.734425	0.000132	1.319264	0.446979	-0.000053
 685	6.8058e+01	12.7601	23.675767	0.000146	1.461339	0.495115	-0.000059
 686	6.8157e+01	12.7248	23.616295	0.000148	1.481635	0.501992	-0.000060
 687	6.8257e+01	12.6895	23.556416	0.000149	1.491783	0.505430	-0.000060
 688	6.8356e+01	12.6494	23.498166	0.000145	1.451191	0.491677	-0.000059
 689	6.8456e+01	12.6029	23.444804	0.000133	1.329412	0.450417	-0.000054
 690	6.8555e+01	12.6093	23.385740	-0.000147	-1.471487	-0.498553	-0.000059
 691	6.8655e+01	12.5403	23.324638	0.000152	1.522228	0.515745	-0.000061
 692	6.8754e+01	12.4873	23.267610	0.000142	1.420746	0.481362	-0.000057
 693	6.8854e+01	12.4488	23.206509	0.000152	1.522228	0.515745	-0.000061
 694	6.8954e+01	12.4103	23.149888	0.000141	1.410598	0.477924	-0.000057
 695	6.9053e+01	12.3734	23.091231	0.000146	1.461339	0.495115	-0.000059
 696	6.9153e+01	12.3366	23.030537	0.000151	1.512080	0.512307	-0.000061
 697	6.9252e+01	12.2916	22.975138	0.000138	1.380153	0.467609	-0.000056
 698	6.9352e+01	12.2676	22.912000	0.000157	1.572969	0.532936	-0.000063
 699	6.9451e+01	12.2050	22.851306	0.000151	1.512080	0.512307	-0.000061
 700	6.9550e+01	12.1649	22.796315	0.000137	1.370005	0.464170	-0.000055
 701	6.9650e+01	12.1424	22.735621	0.000151	1.512080	0.512307	-0.000061
 702	6.9749e+01	12.1104	22.670853	0.000161	1.613562	0.546690	-0.000065
 703	6.9849e+01	12.0510	22.612196	0.000146	1.461339	0.495115	-0.000059
 704	6.9948e+01	12.0061	22.544577	0.000168	1.684599	0.570758	-0.000068
 705	7.0048e+01	11.9676	22.483476	0.000152	1.522228	0.515745	-0.000061
 706	7.0147e+01	11.9467	22.428485	0.000137	1.370005	0.464170	-0.000055
 707	7.0247e+01	11.9018	22.362088	0.000165	1.654154	0.560443	-0.000067
 708	7.0347e+01	11.8617	22.294876	0.000167	1.674451	0.567319	-0.000068
 709	7.0446e+01	11.8296	22.239478	0.000138	1.380153	0.467609	-0.000056
 710	7.0546e+01	11.7510	22.177969	0.000153	1.532376	0.519183	-0.000062
 711	7.0645e+01	11.7334	22.116868	0.000152	1.522228	0.515745	-0.000061
 712	7.0745e+01	11.7141	22.052915	0.000159	1.593265	0.539813	-0.000064
 713	7.0844e+01	11.6580	21.995479	0.000143	1.430894	0.484800	-0.000058
 714	7.0944e+01	11.6179	21.931527	0.000159	1.593265	0.539813	-0.000064
 715	7.1043e+01	11.6066	21.867981	0.000158	1.583117	0.536375	-0.000064
 716	7.1142e+01	11.5184	21.802399	0.000163	1.633858	0.553566	-0.000066
 717	7.1242e+01	11.4927	21.742112	0.000150	1.501932	0.508868	-0.000061
 718	7.1341e+01	11.4687	21.673679	0.000170	1.704895	0.577634	-0.000069
 719	7.1441e+01	11.4125	21.619095	0.000136	1.359857	0.460732	-0.000055
 720	7.1540e+01	11.3516	21.554327	0.000161	1.613562	0.546690	-0.000065
 721	7.1640e+01	11.3548	21.492819	-0.000153	-1.532376	-0.519183	-0.000062
 722	7.1740e+01	11.3227	21.428459	0.000160	1.603414	0.543251	-0.000065
 723	7.1839e+01	11.2553	21.368987	0.000148	1.481635	0.501992	-0.000060
 724	7.1939e+01	11.2056	21.309515	0.000148	1.481635	0.501992	-0.000060
 725	7.2038e+01	11.1719	21.241488	0.000169	1.694747	0.574196	-0.000068
 726	7.2138e+01	11.1590	21.185275	0.000140	1.400450	0.474485	-0.000056
 727	7.2237e+01	11.0820	21.121730	0.000158	1.583117	0.536375	-0.000064
 728	7.2337e+01	11.0628	21.065109	0.000141	1.410598	0.477924	-0.000057
 729	7.2436e+01	11.0259	21.001564	0.000158	1.583117	0.536375	-0.000064
 730	7.2535e+01	10.9569	20.938833	0.000156	1.562821	0.529498	-0.000063
 731	7.2635e+01	10.9505	20.874473	0.000160	1.603414	0.543251	-0.000065
 732	7.2734e+01	10.9136	20.813371	0.000152	1.522228	0.515745	-0.000061
 733	7.2834e+01	10.8703	20.756343	0.000142	1.420746	0.481362	-0.000057
 734	7.2933e+01	10.8093	20.694020	0.000155	1.552673	0.526060	-0.000063
 735	7.3033e+01	10.7804	20.627216	0.000166	1.664303	0.563881	-0.000067
 736	7.3132e+01	10.7371	20.568558	0.000146	1.461339	0.495115	-0.000059
 737	7.3232e+01	10.7034	20.505420	0.000157	1.572969	0.532936	-0.000063
 738	7.3332e+01	10.6681	20.446356	0.000147	1.471487	0.498553	-0.000059
 739	7.3431e+01	10.6457	20.379959	0.000165	1.654154	0.560443	-0.000067
 740	7.3531e+01	10.5687	20.320080	0.000149	1.491783	0.505430	-0.000060
 741	7.3630e+01	10.5414	20.263459	0.000141	1.410598	0.477924	-0.000057
 742	7.3730e+01	10.4997	20.198691	0.000161	1.613562	0.546690	-0.000065
 743	7.3829e+01	10.4708	20.135553	0.000157	1.572969	0.532936	-0.000063
 744	7.3928e+01	10.3954	20.072823	0.000156	1.562821	0.529498	-0.000063
 745	7.4028e+01	10.3666	20.004796	0.000169	1.694747	0.574196	-0.000068
 746	7.4127e+01	10.3601	19.946954	0.000144	1.441043	0.488238	-0.000058
 747	7.4227e+01	10.2928	19.882594	0.000160	1.603414	0.543251	-0.000065
 748	7.4326e+01	10.2510	19.815789	0.000166	1.664303	0.563881	-0.000067
 749	7.4426e+01	10.2270	19.754688	0.000152	1.522228	0.515745	-0.000061
 750	7.4525e+01	10.1644	19.688699	0.000164	1.644006	0.557004	-0.000066
 751	7.4625e+01	10.1436	19.624338	0.000160	1.603414	0.543251	-0.000065
 752	7.4725e+01	10.1035	19.556720	0.000168	1.684599	0.570758	-0.000068
 753	7.4824e+01	10.0521	19.494804	0.000154	1.542524	0.522621	-0.000062
 754	7.4924e+01	10.0136	19.428814	0.000164	1.644006	0.557004	-0.000066
 755	7.5023e+01	10.0008	19.368935	0.000149	1.491783	0.505430	-0.000060
 756	7.5123e+01	9.9478	19.301723	0.000167	1.674451	0.567319	-0.000068
 757	7.5222e+01	9.9222	19.246325	0.000138	1.380153	0.467609	-0.000056
 758	7.5322e+01	9.8757	19.177484	0.000172	1.715044	0.581072	-0.000069
 759	7.5421e+01	9.8372	19.114753	0.000156	1.562821	0.529498	-0.000063
 760	7.5520e+01	9.7938	19.044283	0.000176	1.755636	0.594826	-0.000071
 761	7.5620e+01	9.7489	18.977886	0.000165	1.654154	0.560443	-0.000067
 762	7.5719e+01	9.7056	18.913933	0.000159	1.593265	0.539813	-0.000064
 763	7.5819e+01	9.6703	18.857312	0.000141	1.410598	0.477924	-0.000057
 764	7.5918e+01	9.6270	18.783176	0.000185	1.846970	0.625770	-0.000075
 765	7.6018e+01	9.5805	18.722889	0.000150	1.501932	0.508868	-0.000061
 766	7.6118e+01	9.5291	18.659344	0.000158	1.583117	0.536375	-0.000064
 767	7.6217e+01	9.5035	18.595798	0.000158	1.583117	0.536375	-0.000064
 768	7.6317e+01	9.4682	18.531846	0.000159	1.593265	0.539813	-0.000064
 769	7.6416e+01	9.4233	18.469522	0.000155	1.552673	0.526060	-0.000063
 770	7.6516e+01	9.3848	18.403125	0.000165	1.654154	0.560443	-0.000067
 771	7.6615e+01	9.3447	18.343653	0.000148	1.481635	0.501992	-0.000060
 772	7.6715e+01	9.2901	18.281330	0.000155	1.552673	0.526060	-0.000063
 773	7.6814e+01	9.2709	18.215341	0.000164	1.644006	0.557004	-0.000066
 774	7.6913e+01	9.2388	18.155054	0.000150	1.501932	0.508868	-0.000061
 775	7.7013e+01	9.1778	18.086213	0.000172	1.715044	0.581072	-0.000069
 776	7.7112e+01	9.1441	18.026334	0.000149	1.491783	0.505430	-0.000060
 777	7.7212e+01	9.0832	17.960344	0.000164	1.644006	0.557004	-0.000066
 778	7.7311e+01	9.0767	17.894762	0.000163	1.633858	0.553566	-0.000066
 779	7.7411e+01	9.0110	17.831217	0.000158	1.583117	0.536375	-0.000064
 780	7.7510e+01	8.9901	17.769300	0.000154	1.542524	0.522621	-0.000062
 781	7.7610e+01	8.9372	17.706162	0.000157	1.572969	0.532936	-0.000063
 782	7.7710e+01	8.9115	17.643839	0.000155	1.552673	0.526060	-0.000063
 783	7.7809e+01	8.8778	17.574998	0.000172	1.715044	0.581072	-0.000069
 784	7.7909e+01	8.8441	17.513897	0.000152	1.522228	0.515745	-0.000061
 785	7.8008e+01	8.7703	17.453610	0.000150	1.501932	0.508868	-0.000061
 786	7.8108e+01	8.7463	17.390879	0.000156	1.562821	0.529498	-0.000063
 787	7.8207e+01	8.6869	17.323668	0.000167	1.674451	0.567319	-0.000068
 788	7.8306e+01	8.6548	17.262974	0.000151	1.512080	0.512307	-0.000061
 789	7.8406e+01	8.6179	17.201058	0.000154	1.542524	0.522621	-0.000062
 790	7.8505e+01	8.5810	17.140771	0.000150	1.501932	0.508868	-0.000061
 791	7.8605e+01	8.5441	17.081299	0.000148	1.481635	0.501992	-0.000060
 792	7.8704e+01	8.5105	17.014087	0.000167	1.674451	0.567319	-0.000068
 793	7.8804e+01	8.4591	16.946876	0.000167	1.674451	0.567319	-0.000068
 794	7.8903e+01	8.4367	16.888219	0.000146	1.461339	0.495115	-0.000059
 795	7.9003e+01	8.3773	16.821414	0.000166	1.664303	0.563881	-0.000067
 796	7.9103e+01	8.3645	16.759498	0.000154	1.542524	0.522621	-0.000062
 797	7.9202e+01	8.3067	16.696360	0.000157	1.572969	0.532936	-0.000063
 798	7.9302e+01	8.2618	16.630371	0.000164	1.644006	0.557004	-0.000066
 799	7.9401e+01	8.2313	16.572121	0.000145	1.451191	0.491677	-0.000059
 800	7.9501e+01	8.1800	16.502872	0.000173	1.725192	0.584511	-0.000070
 801	7.9600e+01	8.1479	16.441364	0.000153	1.532376	0.519183	-0.000062
 802	7.9700e+01	8.0982	16.381484	0.000149	1.491783	0.505430	-0.000060
 803	7.9799e+01	8.0532	16.319976	0.000153	1.532376	0.519183	-0.000062
 804	7.9898e+01	8.0067	16.253171	0.000166	1.664303	0.563881	-0.000067
 805	7.9998e+01	7.9827	16.187182	0.000164	1.644006	0.557004	-0.000066
 806	8.0097e+01	7.9169	16.123229	0.000159	1.593265	0.539813	-0.000064
 807	8.0197e+01	7.9265	16.060091	-0.000157	-1.572969	-0.532936	-0.000063
 808	8.0296e+01	7.8591	15.995324	0.000161	1.613562	0.546690	-0.000065
 809	8.0396e+01	7.8463	15.927705	0.000168	1.684599	0.570758	-0.000068
 810	8.0496e+01	7.8014	15.858457	0.000173	1.725192	0.584511	-0.000070
 811	8.0595e+01	7.7452	15.795726	0.000156	1.562821	0.529498	-0.000063
 812	8.0695e+01	7.6714	15.730144	0.000163	1.633858	0.553566	-0.000066
 813	8.0794e+01	7.6795	15.663339	-0.000166	-1.664303	-0.563881	-0.000067
 814	8.0894e+01	7.6249	15.595313	0.000169	1.694747	0.574196	-0.000068
 815	8.0993e+01	7.5960	15.527694	0.000168	1.684599	0.570758	-0.000068
 816	8.1093e+01	7.5463	15.464149	0.000158	1.583117	0.536375	-0.000064
 817	8.1192e+01	7.5062	15.401418	0.000156	1.562821	0.529498	-0.000063
 818	8.1291e+01	7.4854	15.328911	0.000181	1.806377	0.612017	-0.000073
 819	8.1391e+01	7.4228	15.261292	0.000168	1.684599	0.570758	-0.000068
 820	8.1490e+01	7.3875	15.192044	0.000173	1.725192	0.584511	-0.000070
 821	8.1590e+01	7.3394	15.128906	0.000157	1.572969	0.532936	-0.000063
 822	8.1689e+01	7.2961	15.060472	0.000170	1.704895	0.577634	-0.000069
 823	8.1789e+01	7.2720	14.992446	0.000169	1.694747	0.574196	-0.000068
 824	8.1888e+01	7.2078	14.921161	0.000178	1.775933	0.601702	-0.000072
 825	8.1988e+01	7.1805	14.853135	0.000169	1.694747	0.574196	-0.000068
 826	8.2088e+01	7.1501	14.787960	0.000162	1.623710	0.550128	-0.000066
 827	8.2187e+01	7.1116	14.720341	0.000168	1.684599	0.570758	-0.000068
 828	8.2287e+01	7.0586	14.654352	0.000164	1.644006	0.557004	-0.000066
 829	8.2386e+01	7.0249	14.584289	0.000175	1.745488	0.591387	-0.000070
 830	8.2486e+01	6.9993	14.516263	0.000169	1.694747	0.574196	-0.000068
 831	8.2585e+01	6.9752	14.445385	0.000177	1.765785	0.598264	-0.000071
 832	8.2684e+01	6.9094	14.383062	0.000155	1.552673	0.526060	-0.000063
 833	8.2784e+01	6.8918	14.312184	0.000177	1.765785	0.598264	-0.000071
 834	8.2883e+01	6.8276	14.251898	0.000150	1.501932	0.508868	-0.000061
 835	8.2983e+01	6.7731	14.180205	0.000179	1.786081	0.605141	-0.000072
 836	8.3082e+01	6.7362	14.115030	0.000162	1.623710	0.550128	-0.000066
 837	8.3182e+01	6.7121	14.044560	0.000176	1.755636	0.594826	-0.000071
 838	8.3281e+01	6.6640	13.979385	0.000162	1.623710	0.550128	-0.000066
 839	8.3381e+01	6.6431	13.909322	0.000175	1.745488	0.591387	-0.000070
 840	8.3481e+01	6.6078	13.841704	0.000168	1.684599	0.570758	-0.000068
 841	8.3580e+01	6.5597	13.774085	0.000168	1.684599	0.570758	-0.000068
 842	8.3680e+01	6.5116	13.704836	0.000173	1.725192	0.584511	-0.000070
 843	8.3779e+01	6.4458	13.644550	0.000150	1.501932	0.508868	-0.000061
 844	8.3879e+01	6.4426	13.569599	0.000187	1.867266	0.632647	-0.000075
 845	8.3978e+01	6.3913	13.499943	0.000174	1.735340	0.587949	-0.000070
 846	8.4078e+01	6.3576	13.433546	0.000165	1.654154	0.560443	-0.000067
 847	8.4177e+01	6.3062	13.365520	0.000169	1.694747	0.574196	-0.000068
 848	8.4276e+01	6.2758	13.297901	0.000168	1.684599	0.570758	-0.000068
 849	8.4376e+01	6.2292	13.225802	0.000180	1.796229	0.608579	-0.000072
 850	8.4475e+01	6.2084	13.158590	0.000167	1.674451	0.567319	-0.000068
 851	8.4575e+01	6.1538	13.093008	0.000163	1.633858	0.553566	-0.000066
 852	8.4674e+01	6.1089	13.016020	0.000192	1.918007	0.649838	-0.000077
 853	8.4774e+01	6.0849	12.944735	0.000178	1.775933	0.601702	-0.000072
 854	8.4874e+01	6.0287	12.872228	0.000181	1.806377	0.612017	-0.000073
 855	8.4973e+01	6.0159	12.800129	0.000180	1.796229	0.608579	-0.000072
 856	8.5073e+01	5.9485	12.726400	0.000184	1.836822	0.622332	-0.000074
 857	8.5172e+01	5.9244	12.658781	0.000168	1.684599	0.570758	-0.000068
 858	8.5272e+01	5.8923	12.585052	0.000184	1.836822	0.622332	-0.000074
 859	8.5371e+01	5.8571	12.512545	0.000181	1.806377	0.612017	-0.000073
 860	8.5471e+01	5.8362	12.438816	0.000184	1.836822	0.622332	-0.000074
 861	8.5570e+01	5.7624	12.369975	0.000172	1.715044	0.581072	-0.000069
 862	8.5669e+01	5.7303	12.293802	0.000190	1.897711	0.642962	-0.000077
 863	8.5769e+01	5.6822	12.222924	0.000177	1.765785	0.598264	-0.000071
 864	8.5868e+01	5.6645	12.146344	0.000191	1.907859	0.646400	-0.000077
 865	8.5968e+01	5.5891	12.079947	0.000165	1.654154	0.560443	-0.000067
 866	8.6067e+01	5.5635	12.007440	0.000181	1.806377	0.612017	-0.000073
 867	8.6167e+01	5.5170	11.928416	0.000197	1.968748	0.667030	-0.000079
 868	8.6266e+01	5.4624	11.855501	0.000182	1.816525	0.615455	-0.000073
 869	8.6366e+01	5.4480	11.787475	0.000169	1.694747	0.574196	-0.000068
 870	8.6466e+01	5.3918	11.707229	0.000200	1.999193	0.677345	-0.000081
 871	8.6565e+01	5.3597	11.630241	0.000192	1.918007	0.649838	-0.000077
 872	8.6665e+01	5.3261	11.549180	0.000202	2.019489	0.684221	-0.000081
 873	8.6764e+01	5.2827	11.482376	0.000166	1.664303	0.563881	-0.000067
 874	8.6864e+01	5.2474	11.404980	0.000193	1.928156	0.653277	-0.000078
 875	8.6963e+01	5.2025	11.324734	0.000200	1.999193	0.677345	-0.000081
 876	8.7063e+01	5.1640	11.245302	0.000198	1.978896	0.670468	-0.000080
 877	8.7162e+01	5.1351	11.174832	0.000176	1.755636	0.594826	-0.000071
 878	8.7261e+01	5.0886	11.100696	0.000185	1.846970	0.625770	-0.000075
 879	8.7361e+01	5.0373	11.024115	0.000191	1.907859	0.646400	-0.000077
 880	8.7460e+01	5.0004	10.947127	0.000192	1.918007	0.649838	-0.000077
 881	8.7560e+01	4.9667	10.867696	0.000198	1.978896	0.670468	-0.000080
 882	8.7659e+01	4.9282	10.794781	0.000182	1.816525	0.615455	-0.000073
 883	8.7759e+01	4.8865	10.714127	0.000201	2.009341	0.680783	-0.000081
 884	8.7859e+01	4.8384	10.638362	0.000189	1.887563	0.639524	-0.000076
 885	8.7958e+01	4.7886	10.558523	0.000199	1.989045	0.673907	-0.000080
 886	8.8058e+01	4.7710	10.479498	0.000197	1.968748	0.667030	-0.000079
 887	8.8157e+01	4.7100	10.403325	0.000190	1.897711	0.642962	-0.000077
 888	8.8257e+01	4.6763	10.327559	0.000189	1.887563	0.639524	-0.000076
 889	8.8356e+01	4.6426	10.249350	0.000195	1.948452	0.660153	-0.000079
 890	8.8456e+01	4.5977	10.176028	0.000183	1.826674	0.618894	-0.000074
 891	8.8555e+01	4.5689	10.097003	0.000197	1.968748	0.667030	-0.000079
 892	8.8654e+01	4.5239	10.025311	0.000179	1.786081	0.605141	-0.000072
 893	8.8754e+01	4.4790	9.946694	0.000196	1.958600	0.663592	-0.000079
 894	8.8853e+01	4.4485	9.864411	0.000205	2.049934	0.694536	-0.000083
 895	8.8953e+01	4.3924	9.795163	0.000173	1.725192	0.584511	-0.000070
 896	8.9052e+01	4.3667	9.717768	0.000193	1.928156	0.653277	-0.000078
 897	8.9152e+01	4.3218	9.638743	0.000197	1.968748	0.667030	-0.000079
 898	8.9251e+01	4.2913	9.562977	0.000189	1.887563	0.639524	-0.000076
 899	8.9351e+01	4.2528	9.483953	0.000197	1.968748	0.667030	-0.000079
 900	8.9451e+01	4.2127	9.405743	0.000195	1.948452	0.660153	-0.000079
 901	8.9550e+01	4.1806	9.327126	0.000196	1.958600	0.663592	-0.000079
 902	8.9650e+01	4.1325	9.252175	0.000187	1.867266	0.632647	-0.000075
 903	8.9749e+01	4.1084	9.179668	0.000181	1.806377	0.612017	-0.000073
 904	8.9849e+01	4.0555	9.096978	0.000206	2.060082	0.697975	-0.000083
 905	8.9948e+01	4.0010	9.017138	0.000199	1.989045	0.673907	-0.000080
 906	9.0047e+01	3.9673	8.939336	0.000194	1.938304	0.656715	-0.000078
 907	9.0147e+01	3.9175	8.864385	0.000187	1.867266	0.632647	-0.000075
 908	9.0246e+01	3.8871	8.783731	0.000201	2.009341	0.680783	-0.000081
 909	9.0346e+01	3.8341	8.710409	0.000183	1.826674	0.618894	-0.000074
 910	9.0445e+01	3.8133	8.637495	0.000182	1.816525	0.615455	-0.000073
 911	9.0545e+01	3.7603	8.556027	0.000203	2.029637	0.687660	-0.000082
 912	9.0644e+01	3.7138	8.473336	0.000206	2.060082	0.697975	-0.000083
 913	9.0744e+01	3.6817	8.395534	0.000194	1.938304	0.656715	-0.000078
 914	9.0844e+01	3.6544	8.316509	0.000197	1.968748	0.667030	-0.000079
 915	9.0943e+01	3.6063	8.242373	0.000185	1.846970	0.625770	-0.000075
 916	9.1043e+01	3.5758	8.154387	0.000219	2.192008	0.742673	-0.000088
 917	9.1142e+01	3.5101	8.078621	0.000189	1.887563	0.639524	-0.000076
 918	9.1242e+01	3.5036	7.993894	0.000211	2.110823	0.715166	-0.000085
 919	9.1341e+01	3.4443	7.915684	0.000195	1.948452	0.660153	-0.000079
 920	9.1441e+01	3.4138	7.833808	0.000204	2.039786	0.691098	-0.000082
 921	9.1540e+01	3.3577	7.752340	0.000203	2.029637	0.687660	-0.000082
 922	9.1639e+01	3.3224	7.676981	0.000188	1.877415	0.636085	-0.000076
 923	9.1739e+01	3.2807	7.594698	0.000205	2.049934	0.694536	-0.000083
 924	9.1838e+01	3.2470	7.515266	0.000198	1.978896	0.670468	-0.000080
 925	9.1938e+01	3.2037	7.436649	0.000196	1.958600	0.663592	-0.000079
 926	9.2037e+01	3.1764	7.354366	0.000205	2.049934	0.694536	-0.000083
 927	9.2137e+01	3.1010	7.267602	0.000216	2.161564	0.732358	-0.000087
 928	9.2237e+01	3.0753	7.187763	0.000199	1.989045	0.673907	-0.000080
 929	9.2336e+01	3.0513	7.106702	0.000202	2.019489	0.684221	-0.000081
 930	9.2436e+01	3.0095	7.024826	0.000204	2.039786	0.691098	-0.000082
 931	9.2535e+01	2.9742	6.944579	0.000200	1.999193	0.677345	-0.000081
 932	9.2635e+01	2.9341	6.858630	0.000214	2.141267	0.725481	-0.000086
 933	9.2734e+01	2.8860	6.774718	0.000209	2.090526	0.708290	-0.000084
 934	9.2834e+01	2.8603	6.698952	0.000189	1.887563	0.639524	-0.000076
 935	9.2933e+01	2.8170	6.617891	0.000202	2.019489	0.684221	-0.000081
 936	9.3032e+01	2.7753	6.533164	0.000211	2.110823	0.715166	-0.000085
 937	9.3132e+01	2.7128	6.451695	0.000203	2.029637	0.687660	-0.000082
 938	9.3231e+01	2.6743	6.372671	0.000197	1.968748	0.667030	-0.000079
 939	9.3331e+01	2.6454	6.292424	0.000200	1.999193	0.677345	-0.000081
 940	9.3430e+01	2.6245	6.211363	0.000202	2.019489	0.684221	-0.000081
 941	9.3530e+01	2.5732	6.128672	0.000206	2.060082	0.697975	-0.000083
 942	9.3629e+01	2.5186	6.054129	0.000186	1.857118	0.629209	-0.000075
 943	9.3729e+01	2.4994	5.966143	0.000219	2.192008	0.742673	-0.000088
 944	9.3829e+01	2.4545	5.886711	0.000198	1.978896	0.670468	-0.000080
 945	9.3928e+01	2.3999	5.802798	0.000209	2.090526	0.708290	-0.000084
 946	9.4028e+01	2.3582	5.722552	0.000200	1.999193	0.677345	-0.000081
 947	9.4127e+01	2.3342	5.638232	0.000210	2.100675	0.711728	-0.000085
 948	9.4227e+01	2.3037	5.555541	0.000206	2.060082	0.697975	-0.000083
 949	9.4326e+01	2.2379	5.474888	0.000201	2.009341	0.680783	-0.000081
 950	9.4425e+01	2.2122	5.399122	0.000189	1.887563	0.639524	-0.000076
 951	9.4525e+01	2.1705	5.311136	0.000219	2.192008	0.742673	-0.000088
 952	9.4624e+01	2.1128	5.227223	0.000209	2.090526	0.708290	-0.000084
 953	9.4724e+01	2.1096	5.146569	0.000201	2.009341	0.680783	-0.000081
 954	9.4823e+01	2.0518	5.069582	0.000192	1.918007	0.649838	-0.000077
 955	9.4923e+01	2.0278	4.989743	0.000199	1.989045	0.673907	-0.000080
 956	9.5022e+01	1.9828	4.902164	0.000218	2.181860	0.739234	-0.000088
 957	9.5122e+01	1.9411	4.823139	0.000197	1.968748	0.667030	-0.000079
 958	9.5222e+01	1.9042	4.744930	0.000195	1.948452	0.660153	-0.000079
 959	9.5321e+01	1.8609	4.659795	0.000212	2.120971	0.718604	-0.000086
 960	9.5421e+01	1.7823	4.573846	0.000214	2.141267	0.725481	-0.000086
 961	9.5520e+01	1.7823	4.499709	0.000185	1.846970	0.625770	-0.000075
 962	9.5620e+01	1.7149	4.415390	0.000210	2.100675	0.711728	-0.000085
 963	9.5719e+01	1.6973	4.331477	0.000209	2.090526	0.708290	-0.000084
 964	9.5819e+01	1.6363	4.243898	0.000218	2.181860	0.739234	-0.000088
 965	9.5918e+01	1.6219	4.162430	0.000203	2.029637	0.687660	-0.000082
 966	9.6017e+01	1.5657	4.086257	0.000190	1.897711	0.642962	-0.000077
 967	9.6117e+01	1.5689	4.001530	-0.000211	-2.110823	-0.715166	-0.000085
 968	9.6216e+01	1.4839	3.920061	0.000203	2.029637	0.687660	-0.000082
 969	9.6316e+01	1.4582	3.839815	0.000200	1.999193	0.677345	-0.000081
 970	9.6415e+01	1.4037	3.757124	0.000206	2.060082	0.697975	-0.000083
 971	9.6515e+01	1.3764	3.670767	0.000215	2.151416	0.728919	-0.000087
 972	9.6615e+01	1.3427	3.591336	0.000198	1.978896	0.670468	-0.000080
 973	9.6714e+01	1.3042	3.502128	0.000222	2.222453	0.752987	-0.000090
 974	9.6814e+01	1.2577	3.415771	0.000215	2.151416	0.728919	-0.000087
 975	9.6913e+01	1.2144	3.336339	0.000198	1.978896	0.670468	-0.000080
 976	9.7013e+01	1.1887	3.245909	0.000225	2.252897	0.763302	-0.000091
 977	9.7112e+01	1.1470	3.152628	0.000232	2.323935	0.787370	-0.000094
 978	9.7212e+01	1.0861	3.070752	0.000204	2.039786	0.691098	-0.000082
 979	9.7311e+01	1.0588	2.986839	0.000209	2.090526	0.708290	-0.000084
 980	9.7410e+01	1.0283	2.895187	0.000228	2.283342	0.773617	-0.000092
 981	9.7510e+01	0.9625	2.811275	0.000209	2.090526	0.708290	-0.000084
 982	9.7609e+01	0.9417	2.722067	0.000222	2.222453	0.752987	-0.000090
 983	9.7709e+01	0.8711	2.634895	0.000217	2.171712	0.735796	-0.000088
 984	9.7808e+01	0.8631	2.555871	0.000197	1.968748	0.667030	-0.000079
 985	9.7908e+01	0.8037	2.463811	0.000229	2.293490	0.777056	-0.000093
 986	9.8007e+01	0.7732	2.376640	0.000217	2.171712	0.735796	-0.000088
 987	9.8107e+01	0.7460	2.286210	0.000225	2.252897	0.763302	-0.000091
 988	9.8207e+01	0.7123	2.201890	0.000210	2.100675	0.711728	-0.000085
 989	9.8306e+01	0.6465	2.111867	0.000224	2.242749	0.759864	-0.000090
 990	9.8406e+01	0.6240	2.024289	0.000218	2.181860	0.739234	-0.000088
 991	9.8505e+01	0.5647	1.933044	0.000227	2.273194	0.770179	-0.000092
 992	9.8605e+01	0.5326	1.849539	0.000208	2.080378	0.704851	-0.000084
 993	9.8704e+01	0.4893	1.751777	0.000244	2.435565	0.825192	-0.000098
 994	9.8803e+01	0.4444	1.668271	0.000208	2.080378	0.704851	-0.000084
 995	9.8903e+01	0.4347	1.578656	0.000223	2.232601	0.756426	-0.000090
 996	9.9002e+01	0.3818	1.490670	0.000219	2.192008	0.742673	-0.000088
 997	9.9102e+01	0.3529	1.403091	0.000218	2.181860	0.739234	-0.000088
 998	9.9201e+01	0.2984	1.313069	0.000224	2.242749	0.759864	-0.000090
 999	9.9301e+01	0.2390	1.222639	0.000225	2.252897	0.763302	-0.000091
1000	9.9400e+01	0.2438	1.138319	-0.000210	-2.100675	-0.711728	-0.000085
1001	9.9500e+01	0.2021	1.050333	0.000219	2.192008	0.742673	-0.000088
1002	9.9600e+01	0.1460	0.963161	0.000217	2.171712	0.735796	-0.000088
1003	9.9699e+01	0.0914	0.874361	0.000221	2.212305	0.749549	-0.000089
1004	9.9799e+01	0.0770	0.784745	0.000223	2.232601	0.756426	-0.000090
1005	9.9898e+01	0.0144	0.718756	0.000164	1.644006	0.557004	-0.000066
1006	9.9998e+01	-0.0176	0.627104	0.000228	2.283342	0.773617	-0.000092
1007	1.0010e+02	-0.0674	0.540747	0.000215	2.151416	0.728919	-0.000087
1008	1.0020e+02	-0.0866	0.446244	0.000235	2.354379	0.797685	-0.000095
1009	1.0030e+02	-0.1380	0.356221	0.000224	2.242749	0.759864	-0.000090
1010	1.0040e+02	-0.1797	0.270272	0.000214	2.141267	0.725481	-0.000086
1011	1.0050e+02	-0.2134	0.183100	0.000217	2.171712	0.735796	-0.000088
1012	1.0059e+02	-0.2471	0.091856	0.000227	2.273194	0.770179	-0.000092
1013	1.0069e+02	-0.2968	0.001426	0.000225	2.252897	0.763302	-0.000091
1014	1.0079e+02	-0.3353	-0.083302	0.000211	2.110823	0.715166	-0.000085
1015	1.0089e+02	-0.3497	-0.175361	0.000229	2.293490	0.777056	-0.000093
1016	1.0099e+02	-0.3995	-0.265384	0.000224	2.242749	0.759864	-0.000090
1017	1.0109e+02	-0.4556	-0.352962	0.000218	2.181860	0.739234	-0.000088
1018	1.0119e+02	-0.4732	-0.449910	0.000242	2.415268	0.818315	-0.000097
1019	1.0129e+02	-0.5486	-0.530971	0.000202	2.019489	0.684221	-0.000081
1020	1.0139e+02	-0.5727	-0.629548	0.000246	2.455861	0.832068	-0.000099
1021	1.0149e+02	-0.5904	-0.717941	0.000220	2.202157	0.746111	-0.000089
1022	1.0159e+02	-0.6337	-0.808371	0.000225	2.252897	0.763302	-0.000091
1023	1.0169e+02	-0.6978	-0.897987	0.000223	2.232601	0.756426	-0.000090
1024	1.0179e+02	-0.7396	-0.989639	0.000228	2.283342	0.773617	-0.000092
1025	1.0189e+02	-0.7620	-1.080476	0.000226	2.263046	0.766741	-0.000091
1026	1.0199e+02	-0.8133	-1.177831	0.000243	2.425417	0.821753	-0.000098
1027	1.0209e+02	-0.8615	-1.263373	0.000213	2.131119	0.722043	-0.000086
1028	1.0219e+02	-0.8952	-1.357469	0.000234	2.344231	0.794247	-0.000095
1029	1.0229e+02	-0.9337	-1.451565	0.000234	2.344231	0.794247	-0.000095
1030	1.0239e+02	-0.9882	-1.543217	0.000228	2.283342	0.773617	-0.000092
1031	1.0248e+02	-1.0059	-1.634055	0.000226	2.263046	0.766741	-0.000091
1032	1.0258e+02	-1.0460	-1.720819	0.000216	2.161564	0.732358	-0.000087
1033	1.0268e+02	-1.0780	-1.814915	0.000234	2.344231	0.794247	-0.000095
1034	1.0278e+02	-1.1262	-1.907381	0.000230	2.303638	0.780494	-0.000093
1035	1.0288e+02	-1.1855	-2.001070	0.000233	2.334083	0.790809	-0.000094
1036	1.0298e+02	-1.1919	-2.083761	0.000206	2.060082	0.697975	-0.000083
1037	1.0308e+02	-1.2497	-2.175006	0.000227	2.273194	0.770179	-0.000092
1038	1.0318e+02	-1.2786	-2.274397	0.000248	2.476158	0.838945	-0.000100
1039	1.0328e+02	-1.3508	-2.368493	0.000234	2.344231	0.794247	-0.000095
1040	1.0338e+02	-1.3556	-2.456072	0.000218	2.181860	0.739234	-0.000088
1041	1.0348e+02	-1.4117	-2.552612	0.000241	2.405120	0.814877	-0.000097
1042	1.0358e+02	-1.4502	-2.643857	0.000227	2.273194	0.770179	-0.000092
1043	1.0368e+02	-1.4823	-2.738360	0.000235	2.354379	0.797685	-0.000095
1044	1.0378e+02	-1.5240	-2.829198	0.000226	2.263046	0.766741	-0.000091
1045	1.0388e+02	-1.5834	-2.918406	0.000222	2.222453	0.752987	-0.000090
1046	1.0398e+02	-1.6395	-3.008428	0.000224	2.242749	0.759864	-0.000090
1047	1.0408e+02	-1.6492	-3.101303	0.000231	2.313787	0.783932	-0.000093
1048	1.0418e+02	-1.6652	-3.192955	0.000228	2.283342	0.773617	-0.000092
1049	1.0428e+02	-1.7229	-3.285014	0.000229	2.293490	0.777056	-0.000093
1050	1.0438e+02	-1.7663	-3.373407	0.000220	2.202157	0.746111	-0.000089
1051	1.0447e+02	-1.8144	-3.467911	0.000235	2.354379	0.797685	-0.000095
1052	1.0457e+02	-1.8433	-3.559156	0.000227	2.273194	0.770179	-0.000092
1053	1.0467e+02	-1.8818	-3.652030	0.000231	2.313787	0.783932	-0.000093
1054	1.0477e+02	-1.9138	-3.748162	0.000239	2.394972	0.811439	-0.000097
1055	1.0487e+02	-1.9764	-3.836148	0.000219	2.192008	0.742673	-0.000088
1056	1.0497e+02	-2.0197	-3.924949	0.000221	2.212305	0.749549	-0.000089
1057	1.0507e+02	-2.0438	-4.017823	0.000231	2.313787	0.783932	-0.000093
1058	1.0517e+02	-2.0919	-4.104587	0.000216	2.161564	0.732358	-0.000087
1059	1.0527e+02	-2.1096	-4.187685	0.000207	2.070230	0.701413	-0.000084
1060	1.0537e+02	-2.1769	-4.277300	0.000223	2.232601	0.756426	-0.000090
1061	1.0547e+02	-2.1930	-4.368138	0.000226	2.263046	0.766741	-0.000091
1062	1.0557e+02	-2.2299	-4.453680	0.000213	2.131119	0.722043	-0.000086
1063	1.0567e+02	-2.2941	-4.538000	0.000210	2.100675	0.711728	-0.000085
1064	1.0577e+02	-2.3261	-4.628022	0.000224	2.242749	0.759864	-0.000090
1065	1.0587e+02	-2.3550	-4.712750	0.000211	2.110823	0.715166	-0.000085
1066	1.0597e+02	-2.4128	-4.806846	0.000234	2.344231	0.794247	-0.000095
1067	1.0607e+02	-2.4416	-4.886685	0.000199	1.989045	0.673907	-0.000080
1068	1.0617e+02	-2.4914	-4.979152	0.000230	2.303638	0.780494	-0.000093
1069	1.0627e+02	-2.5235	-5.061842	0.000206	2.060082	0.697975	-0.000083
1070	1.0637e+02	-2.5748	-5.146977	0.000212	2.120971	0.718604	-0.000086
1071	1.0647e+02	-2.5892	-5.230889	0.000209	2.090526	0.708290	-0.000084
1072	1.0656e+02	-2.6438	-5.320097	0.000222	2.222453	0.752987	-0.000090
1073	1.0666e+02	-2.6743	-5.403195	0.000207	2.070230	0.701413	-0.000084
1074	1.0676e+02	-2.7416	-5.492811	0.000223	2.232601	0.756426	-0.000090
1075	1.0686e+02	-2.7705	-5.573464	0.000201	2.009341	0.680783	-0.000081
1076	1.0696e+02	-2.7994	-5.655340	0.000204	2.039786	0.691098	-0.000082
1077	1.0706e+02	-2.8668	-5.741290	0.000214	2.141267	0.725481	-0.000086
1078	1.0716e+02	-2.8764	-5.830090	0.000221	2.212305	0.749549	-0.000089
1079	1.0726e+02	-2.9213	-5.909929	0.000199	1.989045	0.673907	-0.000080
1080	1.0736e+02	-2.9646	-5.995471	0.000213	2.131119	0.722043	-0.000086
1081	1.0746e+02	-3.0079	-6.084272	0.000221	2.212305	0.749549	-0.000089
1082	1.0756e+02	-3.0464	-6.167370	0.000207	2.070230	0.701413	-0.000084
1083	1.0766e+02	-3.0705	-6.250875	0.000208	2.080378	0.704851	-0.000084
1084	1.0776e+02	-3.1427	-6.333158	0.000205	2.049934	0.694536	-0.000083
1085	1.0786e+02	-3.1523	-6.421552	0.000220	2.202157	0.746111	-0.000089
1086	1.0796e+02	-3.1972	-6.500983	0.000198	1.978896	0.670468	-0.000080
1087	1.0806e+02	-3.2598	-6.588155	0.000217	2.171712	0.735796	-0.000088
1088	1.0816e+02	-3.2951	-6.670031	0.000204	2.039786	0.691098	-0.000082
1089	1.0826e+02	-3.2919	-6.755165	-0.000212	-2.120971	-0.718604	-0.000086
1090	1.0836e+02	-3.3432	-6.832560	0.000193	1.928156	0.653277	-0.000078
1091	1.0845e+02	-3.3946	-6.914029	0.000203	2.029637	0.687660	-0.000082
1092	1.0855e+02	-3.4475	-6.997941	0.000209	2.090526	0.708290	-0.000084
1093	1.0865e+02	-3.4635	-7.082669	0.000211	2.110823	0.715166	-0.000085
1094	1.0875e+02	-3.5213	-7.162508	0.000199	1.989045	0.673907	-0.000080
1095	1.0885e+02	-3.5566	-7.243569	0.000202	2.019489	0.684221	-0.000081
1096	1.0895e+02	-3.5983	-7.329518	0.000214	2.141267	0.725481	-0.000086
1097	1.0905e+02	-3.6416	-7.412616	0.000207	2.070230	0.701413	-0.000084
1098	1.0915e+02	-3.6625	-7.490826	0.000195	1.948452	0.660153	-0.000079
1099	1.0925e+02	-3.7154	-7.575960	0.000212	2.120971	0.718604	-0.000086
1100	1.0935e+02	-3.7491	-7.655800	0.000199	1.989045	0.673907	-0.000080
1101	1.0945e+02	-3.7860	-7.736861	0.000202	2.019489	0.684221	-0.000081
1102	1.0955e+02	-3.8662	-7.814663	0.000194	1.938304	0.656715	-0.000078
1103	1.0965e+02	-3.8774	-7.894502	0.000199	1.989045	0.673907	-0.000080
1104	1.0975e+02	-3.9047	-7.973934	0.000198	1.978896	0.670468	-0.000080
1105	1.0985e+02	-3.9609	-8.057032	0.000207	2.070230	0.701413	-0.000084
1106	1.0995e+02	-4.0042	-8.134427	0.000193	1.928156	0.653277	-0.000078
1107	1.1005e+02	-4.0282	-8.208971	0.000186	1.857118	0.629209	-0.000075
1108	1.1015e+02	-4.0699	-8.288403	0.000198	1.978896	0.670468	-0.000080
1109	1.1025e+02	-4.1133	-8.366205	0.000194	1.938304	0.656715	-0.000078
1110	1.1035e+02	-4.1887	-8.443600	0.000193	1.928156	0.653277	-0.000078
1111	1.1044e+02	-4.1903	-8.517736	0.000185	1.846970	0.625770	-0.000075
1112	1.1054e+02	-4.2624	-8.597576	0.000199	1.989045	0.673907	-0.000080
1113	1.1064e+02	-4.2737	-8.674563	0.000192	1.918007	0.649838	-0.000077
1114	1.1074e+02	-4.3202	-8.753995	0.000198	1.978896	0.670468	-0.000080
1115	1.1084e+02	-4.3523	-8.825280	0.000178	1.775933	0.601702	-0.000072
1116	1.1094e+02	-4.3908	-8.905527	0.000200	1.999193	0.677345	-0.000081
1117	1.1104e+02	-4.4646	-8.977219	0.000179	1.786081	0.605141	-0.000072
1118	1.1114e+02	-4.4566	-9.061131	-0.000209	-2.090526	-0.708290	-0.000084
1119	1.1124e+02	-4.5336	-9.129972	0.000172	1.715044	0.581072	-0.000069
1120	1.1134e+02	-4.5673	-9.208997	0.000197	1.968748	0.667030	-0.000079
1121	1.1144e+02	-4.5753	-9.277430	0.000170	1.704895	0.577634	-0.000069
1122	1.1154e+02	-4.6362	-9.354825	0.000193	1.928156	0.653277	-0.000078
1123	1.1164e+02	-4.6683	-9.427740	0.000182	1.816525	0.615455	-0.000073
1124	1.1174e+02	-4.7180	-9.500247	0.000181	1.806377	0.612017	-0.000073
1125	1.1184e+02	-4.7469	-9.570310	0.000175	1.745488	0.591387	-0.000070
1126	1.1194e+02	-4.8031	-9.644853	0.000186	1.857118	0.629209	-0.000075
1127	1.1204e+02	-4.8608	-9.717360	0.000181	1.806377	0.612017	-0.000073
1128	1.1214e+02	-4.9009	-9.791904	0.000186	1.857118	0.629209	-0.000075
1129	1.1224e+02	-4.9073	-9.863596	0.000179	1.786081	0.605141	-0.000072
1130	1.1234e+02	-4.9555	-9.940177	0.000191	1.907859	0.646400	-0.000077
1131	1.1244e+02	-4.9827	-10.012684	0.000181	1.806377	0.612017	-0.000073
1132	1.1253e+02	-5.0389	-10.081932	0.000173	1.725192	0.584511	-0.000070
1133	1.1263e+02	-5.0854	-10.151995	0.000175	1.745488	0.591387	-0.000070
1134	1.1273e+02	-5.1095	-10.223687	0.000179	1.786081	0.605141	-0.000072
1135	1.1283e+02	-5.1704	-10.299453	0.000189	1.887563	0.639524	-0.000076
1136	1.1293e+02	-5.1849	-10.367072	0.000168	1.684599	0.570758	-0.000068
1137	1.1303e+02	-5.2394	-10.436727	0.000174	1.735340	0.587949	-0.000070
1138	1.1313e+02	-5.2908	-10.504753	0.000169	1.694747	0.574196	-0.000068
1139	1.1323e+02	-5.3148	-10.580926	0.000190	1.897711	0.642962	-0.000077
1140	1.1333e+02	-5.3533	-10.648545	0.000168	1.684599	0.570758	-0.000068
1141	1.1343e+02	-5.3902	-10.727162	0.000196	1.958600	0.663592	-0.000079
1142	1.1353e+02	-5.4223	-10.796411	0.000173	1.725192	0.584511	-0.000070
1143	1.1363e+02	-5.4656	-10.866881	0.000176	1.755636	0.594826	-0.000071
1144	1.1373e+02	-5.4913	-10.940610	0.000184	1.836822	0.622332	-0.000074
1145	1.1383e+02	-5.5378	-11.018005	0.000193	1.928156	0.653277	-0.000078
1146	1.1393e+02	-5.5795	-11.080328	0.000155	1.552673	0.526060	-0.000063
1147	1.1403e+02	-5.6405	-11.156501	0.000190	1.897711	0.642962	-0.000077
1148	1.1413e+02	-5.6517	-11.230638	0.000185	1.846970	0.625770	-0.000075
1149	1.1423e+02	-5.6854	-11.305996	0.000188	1.877415	0.636085	-0.000076
1150	1.1433e+02	-5.7656	-11.377281	0.000178	1.775933	0.601702	-0.000072
1151	1.1442e+02	-5.8105	-11.449381	0.000180	1.796229	0.608579	-0.000072
1152	1.1452e+02	-5.8282	-11.512926	0.000158	1.583117	0.536375	-0.000064
1153	1.1462e+02	-5.8779	-11.588285	0.000188	1.877415	0.636085	-0.000076
1154	1.1472e+02	-5.8843	-11.659570	0.000178	1.775933	0.601702	-0.000072
1155	1.1482e+02	-5.9389	-11.729632	0.000175	1.745488	0.591387	-0.000070
1156	1.1492e+02	-5.9982	-11.801732	0.000180	1.796229	0.608579	-0.000072
1157	1.1502e+02	-6.0319	-11.875461	0.000184	1.836822	0.622332	-0.000074
1158	1.1512e+02	-6.0544	-11.948375	0.000182	1.816525	0.615455	-0.000073
1159	1.1522e+02	-6.1250	-12.013550	0.000162	1.623710	0.550128	-0.000066
1160	1.1532e+02	-6.1410	-12.087279	0.000184	1.836822	0.622332	-0.000074
1161	1.1542e+02	-6.1972	-12.156120	0.000172	1.715044	0.581072	-0.000069
1162	1.1552e+02	-6.2389	-12.231478	0.000188	1.877415	0.636085	-0.000076
1163	1.1562e+02	-6.2726	-12.295024	0.000158	1.583117	0.536375	-0.000064
1164	1.1572e+02	-6.3303	-12.370382	0.000188	1.877415	0.636085	-0.000076
1165	1.1582e+02	-6.3383	-12.435964	0.000163	1.633858	0.553566	-0.000066
1166	1.1592e+02	-6.3848	-12.506842	0.000177	1.765785	0.598264	-0.000071
1167	1.1602e+02	-6.4121	-12.569165	0.000155	1.552673	0.526060	-0.000063
1168	1.1612e+02	-6.4522	-12.635970	0.000166	1.664303	0.563881	-0.000067
1169	1.1622e+02	-6.4907	-12.699922	0.000159	1.593265	0.539813	-0.000064
1170	1.1632e+02	-6.5501	-12.776503	0.000191	1.907859	0.646400	-0.000077
1171	1.1642e+02	-6.5645	-12.842492	0.000164	1.644006	0.557004	-0.000066
1172	1.1651e+02	-6.6511	-12.910111	0.000168	1.684599	0.570758	-0.000068
1173	1.1661e+02	-6.6592	-12.978952	0.000172	1.715044	0.581072	-0.000069
1174	1.1671e+02	-6.7249	-13.047793	0.000172	1.715044	0.581072	-0.000069
1175	1.1681e+02	-6.7506	-13.117041	0.000173	1.725192	0.584511	-0.000070
1176	1.1691e+02	-6.8068	-13.189141	0.000180	1.796229	0.608579	-0.000072
1177	1.1701e+02	-6.8356	-13.250650	0.000153	1.532376	0.519183	-0.000062
1178	1.1711e+02	-6.8870	-13.322342	0.000179	1.786081	0.605141	-0.000072
1179	1.1721e+02	-6.9110	-13.384665	0.000155	1.552673	0.526060	-0.000063
1180	1.1731e+02	-6.9495	-13.460024	0.000188	1.877415	0.636085	-0.000076
1181	1.1741e+02	-7.0009	-13.520718	0.000151	1.512080	0.512307	-0.000061
1182	1.1751e+02	-7.0137	-13.589966	0.000173	1.725192	0.584511	-0.000070
1183	1.1761e+02	-7.0570	-13.658807	0.000172	1.715044	0.581072	-0.000069
1184	1.1771e+02	-7.1116	-13.730499	0.000179	1.786081	0.605141	-0.000072
1185	1.1781e+02	-7.1356	-13.798933	0.000170	1.704895	0.577634	-0.000069
1186	1.1791e+02	-7.2014	-13.861663	0.000156	1.562821	0.529498	-0.000063
1187	1.1801e+02	-7.2174	-13.931726	0.000175	1.745488	0.591387	-0.000070
1188	1.1811e+02	-7.2640	-13.996086	0.000160	1.603414	0.543251	-0.000065
1189	1.1821e+02	-7.2800	-14.072259	0.000190	1.897711	0.642962	-0.000077
1190	1.1831e+02	-7.3346	-14.137842	0.000163	1.633858	0.553566	-0.000066
1191	1.1841e+02	-7.3875	-14.207090	0.000173	1.725192	0.584511	-0.000070
1192	1.1850e+02	-7.4180	-14.273894	0.000166	1.664303	0.563881	-0.000067
1193	1.1860e+02	-7.4597	-14.347216	0.000183	1.826674	0.618894	-0.000074
1194	1.1870e+02	-7.5014	-14.416464	0.000173	1.725192	0.584511	-0.000070
1195	1.1880e+02	-7.5206	-14.480824	0.000160	1.603414	0.543251	-0.000065
1196	1.1890e+02	-7.5768	-14.548036	0.000167	1.674451	0.567319	-0.000068
1197	1.1900e+02	-7.6281	-14.621357	0.000183	1.826674	0.618894	-0.000074
1198	1.1910e+02	-7.6618	-14.684495	0.000157	1.572969	0.532936	-0.000063
1199	1.1920e+02	-7.7035	-14.754966	0.000176	1.755636	0.594826	-0.000071
1200	1.1930e+02	-7.7549	-14.821362	0.000165	1.654154	0.560443	-0.000067
1201	1.1940e+02	-7.7982	-14.890611	0.000173	1.725192	0.584511	-0.000070
1202	1.1950e+02	-7.8030	-14.959859	0.000173	1.725192	0.584511	-0.000070
1203	1.1960e+02	-7.8704	-15.022997	0.000157	1.572969	0.532936	-0.000063
1204	1.1970e+02	-7.8591	-15.092653	-0.000174	-1.735340	-0.587949	-0.000070
1205	1.1980e+02	-7.9666	-15.168011	0.000188	1.877415	0.636085	-0.000076
1206	1.1990e+02	-7.9811	-15.237259	0.000173	1.725192	0.584511	-0.000070
1207	1.2000e+02	-8.0260	-15.310173	0.000182	1.816525	0.615455	-0.000073
1208	1.2010e+02	-8.0581	-15.376978	0.000166	1.664303	0.563881	-0.000067
1209	1.2020e+02	-8.1094	-15.441745	0.000161	1.613562	0.546690	-0.000065
1210	1.2030e+02	-8.1399	-15.515067	0.000183	1.826674	0.618894	-0.000074
1211	1.2039e+02	-8.1896	-15.582278	0.000167	1.674451	0.567319	-0.000068
1212	1.2049e+02	-8.2361	-15.651527	0.000173	1.725192	0.584511	-0.000070
1213	1.2059e+02	-8.2666	-15.716701	0.000162	1.623710	0.550128	-0.000066
1214	1.2069e+02	-8.2923	-15.789616	0.000182	1.816525	0.615455	-0.000073
1215	1.2079e+02	-8.3548	-15.858049	0.000170	1.704895	0.577634	-0.000069
1216	1.2089e+02	-8.3757	-15.928112	0.000175	1.745488	0.591387	-0.000070
1217	1.2099e+02	-8.4174	-15.992472	0.000160	1.603414	0.543251	-0.000065
1218	1.2109e+02	-8.4703	-16.064979	0.000181	1.806377	0.612017	-0.000073
1219	1.2119e+02	-8.4912	-16.132191	0.000167	1.674451	0.567319	-0.000068
1220	1.2129e+02	-8.5554	-16.207549	0.000188	1.877415	0.636085	-0.000076
1221	1.2139e+02	-8.5618	-16.268243	0.000151	1.512080	0.512307	-0.000061
1222	1.2149e+02	-8.6228	-16.339935	0.000179	1.786081	0.605141	-0.000072
1223	1.2159e+02	-8.6837	-16.412442	0.000181	1.806377	0.612017	-0.000073
1224	1.2169e+02	-8.7062	-16.477210	0.000161	1.613562	0.546690	-0.000065
1225	1.2179e+02	-8.7415	-16.541977	0.000161	1.613562	0.546690	-0.000065
1226	1.2189e+02	-8.7848	-16.610004	0.000169	1.694747	0.574196	-0.000068
1227	1.2199e+02	-8.8072	-16.676808	0.000166	1.664303	0.563881	-0.000067
1228	1.2209e+02	-8.8506	-16.744834	0.000169	1.694747	0.574196	-0.000068
1229	1.2219e+02	-8.9099	-16.807972	0.000157	1.572969	0.532936	-0.000063
1230	1.2229e+02	-8.9420	-16.869481	0.000153	1.532376	0.519183	-0.000062
1231	1.2239e+02	-8.9693	-16.934248	0.000161	1.613562	0.546690	-0.000065
1232	1.2248e+02	-9.0286	-17.007570	0.000183	1.826674	0.618894	-0.000074
1233	1.2258e+02	-9.0623	-17.070301	0.000156	1.562821	0.529498	-0.000063
1234	1.2268e+02	-9.1008	-17.136290	0.000164	1.644006	0.557004	-0.000066
1235	1.2278e+02	-9.1297	-17.205946	0.000174	1.735340	0.587949	-0.000070
1236	1.2288e+02	-9.1826	-17.267047	0.000152	1.522228	0.515745	-0.000061
1237	1.2298e+02	-9.2035	-17.333444	0.000165	1.654154	0.560443	-0.000067
1238	1.2308e+02	-9.2516	-17.399841	0.000165	1.654154	0.560443	-0.000067
1239	1.2318e+02	-9.2853	-17.465016	0.000162	1.623710	0.550128	-0.000066
1240	1.2328e+02	-9.3334	-17.522451	0.000143	1.430894	0.484800	-0.000058
1241	1.2338e+02	-9.3543	-17.588848	0.000165	1.654154	0.560443	-0.000067
1242	1.2348e+02	-9.4329	-17.654837	0.000164	1.644006	0.557004	-0.000066
1243	1.2358e+02	-9.4553	-17.721641	0.000166	1.664303	0.563881	-0.000067
1244	1.2368e+02	-9.4778	-17.785594	0.000159	1.593265	0.539813	-0.000064
1245	1.2378e+02	-9.5404	-17.851584	0.000164	1.644006	0.557004	-0.000066
1246	1.2388e+02	-9.5805	-17.916351	0.000161	1.613562	0.546690	-0.000065
1247	1.2398e+02	-9.6029	-17.976230	0.000149	1.491783	0.505430	-0.000060
1248	1.2408e+02	-9.6511	-18.040998	0.000161	1.613562	0.546690	-0.000065
1249	1.2418e+02	-9.6944	-18.105765	0.000161	1.613562	0.546690	-0.000065
1250	1.2428e+02	-9.7441	-18.175828	0.000175	1.745488	0.591387	-0.000070
1251	1.2438e+02	-9.7922	-18.238559	0.000156	1.562821	0.529498	-0.000063
1252	1.2447e+02	-9.8163	-18.301697	0.000157	1.572969	0.532936	-0.000063
1253	1.2457e+02	-9.8869	-18.370538	0.000172	1.715044	0.581072	-0.000069
1254	1.2467e+02	-9.8773	-18.436935	-0.000165	-1.654154	-0.560443	-0.000067
1255	1.2477e+02	-9.9398	-18.502517	0.000163	1.633858	0.553566	-0.000066
1256	1.2487e+02	-9.9591	-18.562396	0.000149	1.491783	0.505430	-0.000060
1257	1.2497e+02	-10.0377	-18.628793	0.000165	1.654154	0.560443	-0.000067
1258	1.2507e+02	-10.0393	-18.692746	0.000159	1.593265	0.539813	-0.000064
1259	1.2517e+02	-10.1019	-18.758328	0.000163	1.633858	0.553566	-0.000066
1260	1.2527e+02	-10.1275	-18.821059	0.000156	1.562821	0.529498	-0.000063
1261	1.2537e+02	-10.1740	-18.888678	0.000168	1.684599	0.570758	-0.000068
1262	1.2547e+02	-10.2029	-18.949779	0.000152	1.522228	0.515745	-0.000061
1263	1.2557e+02	-10.2398	-19.013732	0.000159	1.593265	0.539813	-0.000064
1264	1.2567e+02	-10.2912	-19.080129	0.000165	1.654154	0.560443	-0.000067
1265	1.2577e+02	-10.3537	-19.141638	0.000153	1.532376	0.519183	-0.000062
1266	1.2587e+02	-10.3762	-19.212108	0.000176	1.755636	0.594826	-0.000071
1267	1.2597e+02	-10.4018	-19.270358	0.000145	1.451191	0.491677	-0.000059
1268	1.2607e+02	-10.4516	-19.338791	0.000170	1.704895	0.577634	-0.000069
1269	1.2617e+02	-10.4917	-19.401115	0.000155	1.552673	0.526060	-0.000063
1270	1.2627e+02	-10.5206	-19.462623	0.000153	1.532376	0.519183	-0.000062
1271	1.2636e+02	-10.5607	-19.525354	0.000156	1.562821	0.529498	-0.000063
1272	1.2646e+02	-10.6329	-19.584012	0.000146	1.461339	0.495115	-0.000059
1273	1.2656e+02	-10.6457	-19.647557	0.000158	1.583117	0.536375	-0.000064
1274	1.2666e+02	-10.6890	-19.709066	0.000153	1.532376	0.519183	-0.000062
1275	1.2676e+02	-10.7323	-19.773018	0.000159	1.593265	0.539813	-0.000064
1276	1.2686e+02	-10.7692	-19.836157	0.000157	1.572969	0.532936	-0.000063
1277	1.2696e+02	-10.8173	-19.895629	0.000148	1.481635	0.501992	-0.000060
1278	1.2706e+02	-10.8526	-19.954693	0.000147	1.471487	0.498553	-0.000059
1279	1.2716e+02	-10.8719	-20.016609	0.000154	1.542524	0.522621	-0.000062
1280	1.2726e+02	-10.9409	-20.078118	0.000153	1.532376	0.519183	-0.000062
1281	1.2736e+02	-10.9762	-20.138812	0.000151	1.512080	0.512307	-0.000061
1282	1.2746e+02	-11.0002	-20.201543	0.000156	1.562821	0.529498	-0.000063
1283	1.2756e+02	-11.0564	-20.260607	0.000147	1.471487	0.498553	-0.000059
1284	1.2766e+02	-11.1077	-20.325782	0.000162	1.623710	0.550128	-0.000066
1285	1.2776e+02	-11.1221	-20.385254	0.000148	1.481635	0.501992	-0.000060
1286	1.2786e+02	-11.1350	-20.441060	0.000139	1.390302	0.471047	-0.000056
1287	1.2796e+02	-11.2088	-20.503791	0.000156	1.562821	0.529498	-0.000063
1288	1.2806e+02	-11.2280	-20.556746	0.000132	1.319264	0.446979	-0.000053
1289	1.2816e+02	-11.3018	-20.621513	0.000161	1.613562	0.546690	-0.000065
1290	1.2826e+02	-11.3227	-20.676912	0.000138	1.380153	0.467609	-0.000056
1291	1.2835e+02	-11.3836	-20.731088	0.000135	1.349709	0.457294	-0.000054
1292	1.2845e+02	-11.4029	-20.793819	0.000156	1.562821	0.529498	-0.000063
1293	1.2855e+02	-11.4526	-20.852884	0.000147	1.471487	0.498553	-0.000059
1294	1.2865e+02	-11.5007	-20.907467	0.000136	1.359857	0.460732	-0.000055
1295	1.2875e+02	-11.5280	-20.968569	0.000152	1.522228	0.515745	-0.000061
1296	1.2885e+02	-11.5745	-21.026004	0.000143	1.430894	0.484800	-0.000058
1297	1.2895e+02	-11.5954	-21.083439	0.000143	1.430894	0.484800	-0.000058
1298	1.2905e+02	-11.6564	-21.144948	0.000153	1.532376	0.519183	-0.000062
1299	1.2915e+02	-11.6852	-21.206050	0.000152	1.522228	0.515745	-0.000061
1300	1.2925e+02	-11.7285	-21.255338	0.000123	1.227931	0.416034	-0.000050
1301	1.2935e+02	-11.7703	-21.316847	0.000153	1.532376	0.519183	-0.000062
1302	1.2945e+02	-11.7991	-21.371023	0.000135	1.349709	0.457294	-0.000054
1303	1.2955e+02	-11.8569	-21.427644	0.000141	1.410598	0.477924	-0.000057
1304	1.2965e+02	-11.8970	-21.487523	0.000149	1.491783	0.505430	-0.000060
1305	1.2975e+02	-11.9371	-21.545773	0.000145	1.451191	0.491677	-0.000059
1306	1.2985e+02	-11.9644	-21.603616	0.000144	1.441043	0.488238	-0.000058
1307	1.2995e+02	-11.9788	-21.662681	0.000147	1.471487	0.498553	-0.000059
1308	1.3005e+02	-12.0558	-21.717264	0.000136	1.359857	0.460732	-0.000055
1309	1.3015e+02	-12.0799	-21.773478	0.000140	1.400450	0.474485	-0.000056
1310	1.3025e+02	-12.1296	-21.835801	0.000155	1.552673	0.526060	-0.000063
1311	1.3034e+02	-12.1601	-21.894051	0.000145	1.451191	0.491677	-0.000059
1312	1.3044e+02	-12.1986	-21.955153	0.000152	1.522228	0.515745	-0.000061
1313	1.3054e+02	-12.2291	-22.013810	0.000146	1.461339	0.495115	-0.000059
1314	1.3064e+02	-12.2788	-22.072060	0.000145	1.451191	0.491677	-0.000059
1315	1.3074e+02	-12.3077	-22.129088	0.000142	1.420746	0.481362	-0.000057
1316	1.3084e+02	-12.3574	-22.188967	0.000149	1.491783	0.505430	-0.000060
1317	1.3094e+02	-12.4119	-22.250069	0.000152	1.522228	0.515745	-0.000061
1318	1.3104e+02	-12.4488	-22.305060	0.000137	1.370005	0.464170	-0.000055
1319	1.3114e+02	-12.4665	-22.367383	0.000155	1.552673	0.526060	-0.000063
1320	1.3124e+02	-12.5355	-22.421560	0.000135	1.349709	0.457294	-0.000054
1321	1.3134e+02	-12.5772	-22.482661	0.000152	1.522228	0.515745	-0.000061
1322	1.3144e+02	-12.5980	-22.538060	0.000138	1.380153	0.467609	-0.000056
1323	1.3154e+02	-12.6542	-22.599976	0.000154	1.542524	0.522621	-0.000062
1324	1.3164e+02	-12.6718	-22.658226	0.000145	1.451191	0.491677	-0.000059
1325	1.3174e+02	-12.7103	-22.713217	0.000137	1.370005	0.464170	-0.000055
1326	1.3184e+02	-12.7857	-22.778392	0.000162	1.623710	0.550128	-0.000066
1327	1.3194e+02	-12.8050	-22.829717	0.000128	1.278672	0.433226	-0.000052
1328	1.3204e+02	-12.8355	-22.888782	0.000147	1.471487	0.498553	-0.000059
1329	1.3214e+02	-12.8916	-22.952327	0.000158	1.583117	0.536375	-0.000064
1330	1.3224e+02	-12.9221	-23.007726	0.000138	1.380153	0.467609	-0.000056
1331	1.3234e+02	-12.9574	-23.064754	0.000142	1.420746	0.481362	-0.000057
1332	1.3243e+02	-12.9959	-23.120152	0.000138	1.380153	0.467609	-0.000056
1333	1.3253e+02	-13.0312	-23.179217	0.000147	1.471487	0.498553	-0.000059
1334	1.3263e+02	-13.1274	-23.236652	0.000143	1.430894	0.484800	-0.000058
1335	1.3273e+02	-13.1018	-23.294087	-0.000143	-1.430894	-0.484800	-0.000058
1336	1.3283e+02	-13.1659	-23.346227	0.000130	1.298968	0.440102	-0.000052
1337	1.3293e+02	-13.1932	-23.403663	0.000143	1.430894	0.484800	-0.000058
1338	1.3303e+02	-13.2125	-23.462320	0.000146	1.461339	0.495115	-0.000059
1339	1.3313e+02	-13.2911	-23.517719	0.000138	1.380153	0.467609	-0.000056
1340	1.3323e+02	-13.3071	-23.574746	0.000142	1.420746	0.481362	-0.000057
1341	1.3333e+02	-13.3584	-23.634626	0.000149	1.491783	0.505430	-0.000060
1342	1.3343e+02	-13.4034	-23.689210	0.000136	1.359857	0.460732	-0.000055
1343	1.3353e+02	-13.4354	-23.750311	0.000152	1.522228	0.515745	-0.000061
1344	1.3363e+02	-13.4996	-23.804488	0.000135	1.349709	0.457294	-0.000054
1345	1.3373e+02	-13.5253	-23.862330	0.000144	1.441043	0.488238	-0.000058
1346	1.3383e+02	-13.5638	-23.914063	0.000129	1.288820	0.436664	-0.000052
1347	1.3393e+02	-13.6071	-23.971905	0.000144	1.441043	0.488238	-0.000058
1348	1.3403e+02	-13.6280	-24.029748	0.000144	1.441043	0.488238	-0.000058
1349	1.3413e+02	-13.6905	-24.084332	0.000136	1.359857	0.460732	-0.000055
1350	1.3423e+02	-13.7338	-24.136472	0.000130	1.298968	0.440102	-0.000052
1351	1.3432e+02	-13.7627	-24.197166	0.000151	1.512080	0.512307	-0.000061
1352	1.3442e+02	-13.7691	-24.256231	0.000147	1.471487	0.498553	-0.000059
1353	1.3452e+02	-13.8301	-24.310000	0.000134	1.339561	0.453855	-0.000054
1354	1.3462e+02	-13.8622	-24.368657	0.000146	1.461339	0.495115	-0.000059
1355	1.3472e+02	-13.9312	-24.430981	0.000155	1.552673	0.526060	-0.000063
1356	1.3482e+02	-13.9344	-24.482713	0.000129	1.288820	0.436664	-0.000052
1357	1.3492e+02	-14.0033	-24.542185	0.000148	1.481635	0.501992	-0.000060
1358	1.3502e+02	-14.0386	-24.599213	0.000142	1.420746	0.481362	-0.000057
1359	1.3512e+02	-14.1012	-24.661944	0.000156	1.562821	0.529498	-0.000063
1360	1.3522e+02	-14.1429	-24.719379	0.000143	1.430894	0.484800	-0.000058
1361	1.3532e+02	-14.1590	-24.777629	0.000145	1.451191	0.491677	-0.000059
1362	1.3542e+02	-14.1926	-24.834250	0.000141	1.410598	0.477924	-0.000057
1363	1.3552e+02	-14.2376	-24.892500	0.000145	1.451191	0.491677	-0.000059
1364	1.3562e+02	-14.2825	-24.951157	0.000146	1.461339	0.495115	-0.000059
1365	1.3572e+02	-14.3306	-25.008592	0.000143	1.430894	0.484800	-0.000058
1366	1.3582e+02	-14.3675	-25.065620	0.000142	1.420746	0.481362	-0.000057
1367	1.3592e+02	-14.4172	-25.127129	0.000153	1.532376	0.519183	-0.000062
1368	1.3602e+02	-14.4397	-25.182120	0.000137	1.370005	0.464170	-0.000055
1369	1.3612e+02	-14.4718	-25.243222	0.000152	1.522228	0.515745	-0.000061
1370	1.3622e+02	-14.5183	-25.301064	0.000144	1.441043	0.488238	-0.000058
1371	1.3631e+02	-14.5841	-25.358092	0.000142	1.420746	0.481362	-0.000057
1372	1.3641e+02	-14.5809	-25.419194	-0.000152	-1.522228	-0.515745	-0.000061
1373	1.3651e+02	-14.6338	-25.475407	0.000140	1.400450	0.474485	-0.000056
1374	1.3661e+02	-14.6755	-25.539360	0.000159	1.593265	0.539813	-0.000064
1375	1.3671e+02	-14.7060	-25.599239	0.000149	1.491783	0.505430	-0.000060
1376	1.3681e+02	-14.7477	-25.655452	0.000140	1.400450	0.474485	-0.000056
1377	1.3691e+02	-14.7926	-25.713295	0.000144	1.441043	0.488238	-0.000058
1378	1.3701e+02	-14.8135	-25.773989	0.000151	1.512080	0.512307	-0.000061
1379	1.3711e+02	-14.8648	-25.833461	0.000148	1.481635	0.501992	-0.000060
1380	1.3721e+02	-14.9242	-25.890896	0.000143	1.430894	0.484800	-0.000058
1381	1.3731e+02	-14.9659	-25.948739	0.000144	1.441043	0.488238	-0.000058
1382	1.3741e+02	-15.0028	-26.011470	0.000156	1.562821	0.529498	-0.000063
1383	1.3751e+02	-15.0493	-26.074200	0.000156	1.562821	0.529498	-0.000063
1384	1.3761e+02	-15.0814	-26.132043	0.000144	1.441043	0.488238	-0.000058
1385	1.3771e+02	-15.1119	-26.186220	0.000135	1.349709	0.457294	-0.000054
1386	1.3781e+02	-15.1760	-26.250172	0.000159	1.593265	0.539813	-0.000064
1387	1.3791e+02	-15.1776	-26.314940	0.000161	1.613562	0.546690	-0.000065
1388	1.3801e+02	-15.2370	-26.369524	0.000136	1.359857	0.460732	-0.000055
1389	1.3811e+02	-15.2755	-26.430218	0.000151	1.512080	0.512307	-0.000061
1390	1.3821e+02	-15.3204	-26.487246	0.000142	1.420746	0.481362	-0.000057
1391	1.3831e+02	-15.3365	-26.546718	0.000148	1.481635	0.501992	-0.000060
1392	1.3840e+02	-15.3846	-26.601302	0.000136	1.359857	0.460732	-0.000055
1393	1.3850e+02	-15.4215	-26.657922	0.000141	1.410598	0.477924	-0.000057
1394	1.3860e+02	-15.4744	-26.716987	0.000147	1.471487	0.498553	-0.000059
1395	1.3870e+02	-15.5097	-26.779310	0.000155	1.552673	0.526060	-0.000063
1396	1.3880e+02	-15.5562	-26.833894	0.000136	1.359857	0.460732	-0.000055
1397	1.3890e+02	-15.5675	-26.892552	0.000146	1.461339	0.495115	-0.000059
1398	1.3900e+02	-15.6220	-26.944284	0.000129	1.288820	0.436664	-0.000052
1399	1.3910e+02	-15.6589	-27.002534	0.000145	1.451191	0.491677	-0.000059
1400	1.3920e+02	-15.7359	-27.062413	0.000149	1.491783	0.505430	-0.000060
1401	1.3930e+02	-15.7712	-27.114553	0.000130	1.298968	0.440102	-0.000052
1402	1.3940e+02	-15.7873	-27.174433	0.000149	1.491783	0.505430	-0.000060
1403	1.3950e+02	-15.8177	-27.236349	0.000154	1.542524	0.522621	-0.000062
1404	1.3960e+02	-15.8418	-27.288489	0.000130	1.298968	0.440102	-0.000052
1405	1.3970e+02	-15.8979	-27.348775	0.000150	1.501932	0.508868	-0.000061
1406	1.3980e+02	-15.9669	-27.399286	0.000126	1.258375	0.426349	-0.000051
1407	1.3990e+02	-15.9846	-27.462424	0.000157	1.572969	0.532936	-0.000063
1408	1.4000e+02	-16.0327	-27.521081	0.000146	1.461339	0.495115	-0.000059
1409	1.4010e+02	-16.0584	-27.576072	0.000137	1.370005	0.464170	-0.000055
1410	1.4020e+02	-16.0921	-27.628620	0.000131	1.309116	0.443541	-0.000053
1411	1.4029e+02	-16.1370	-27.679945	0.000128	1.278672	0.433226	-0.000052
1412	1.4039e+02	-16.1899	-27.741453	0.000153	1.532376	0.519183	-0.000062
1413	1.4049e+02	-16.2364	-27.796852	0.000138	1.380153	0.467609	-0.000056
1414	1.4059e+02	-16.3006	-27.854695	0.000144	1.441043	0.488238	-0.000058
1415	1.4069e+02	-16.3167	-27.909686	0.000137	1.370005	0.464170	-0.000055
1416	1.4079e+02	-16.3471	-27.969158	0.000148	1.481635	0.501992	-0.000060
1417	1.4089e+02	-16.3904	-28.023335	0.000135	1.349709	0.457294	-0.000054
1418	1.4099e+02	-16.4370	-28.082807	0.000148	1.481635	0.501992	-0.000060
1419	1.4109e+02	-16.4723	-28.140649	0.000144	1.441043	0.488238	-0.000058
1420	1.4119e+02	-16.4995	-28.198492	0.000144	1.441043	0.488238	-0.000058
1421	1.4129e+02	-16.5477	-28.255520	0.000142	1.420746	0.481362	-0.000057
1422	1.4139e+02	-16.5846	-28.316214	0.000151	1.512080	0.512307	-0.000061
1423	1.4149e+02	-16.6182	-28.368761	0.000131	1.309116	0.443541	-0.000053
1424	1.4159e+02	-16.6696	-28.434750	0.000164	1.644006	0.557004	-0.000066
1425	1.4169e+02	-16.7145	-28.484854	0.000125	1.248227	0.422911	-0.000050
1426	1.4179e+02	-16.7450	-28.545140	0.000150	1.501932	0.508868	-0.000061
1427	1.4189e+02	-16.8011	-28.596465	0.000128	1.278672	0.433226	-0.000052
1428	1.4199e+02	-16.8059	-28.651049	0.000136	1.359857	0.460732	-0.000055
1429	1.4209e+02	-16.8717	-28.715002	0.000159	1.593265	0.539813	-0.000064
1430	1.4219e+02	-16.8958	-28.768364	0.000133	1.329412	0.450417	-0.000054
1431	1.4228e+02	-16.9551	-28.825392	0.000142	1.420746	0.481362	-0.000057
1432	1.4238e+02	-16.9744	-28.887715	0.000155	1.552673	0.526060	-0.000063
1433	1.4248e+02	-17.0402	-28.938226	0.000126	1.258375	0.426349	-0.000051
1434	1.4258e+02	-17.0514	-29.001771	0.000158	1.583117	0.536375	-0.000064
1435	1.4268e+02	-17.0915	-29.057170	0.000138	1.380153	0.467609	-0.000056
1436	1.4278e+02	-17.1476	-29.116642	0.000148	1.481635	0.501992	-0.000060
1437	1.4288e+02	-17.1765	-29.170411	0.000134	1.339561	0.453855	-0.000054
1438	1.4298e+02	-17.2182	-29.227439	0.000142	1.420746	0.481362	-0.000057
1439	1.4308e+02	-17.2760	-29.281208	0.000134	1.339561	0.453855	-0.000054
1440	1.4318e+02	-17.3225	-29.339458	0.000145	1.451191	0.491677	-0.000059
1441	1.4328e+02	-17.3369	-29.388747	0.000123	1.227931	0.416034	-0.000050
1442	1.4338e+02	-17.3690	-29.449033	0.000150	1.501932	0.508868	-0.000061
1443	1.4348e+02	-17.4188	-29.501581	0.000131	1.309116	0.443541	-0.000053
1444	1.4358e+02	-17.4508	-29.556165	0.000136	1.359857	0.460732	-0.000055
1445	1.4368e+02	-17.4893	-29.613600	0.000143	1.430894	0.484800	-0.000058
1446	1.4378e+02	-17.5246	-29.667776	0.000135	1.349709	0.457294	-0.000054
1447	1.4388e+02	-17.5760	-29.722360	0.000136	1.359857	0.460732	-0.000055
1448	1.4398e+02	-17.6417	-29.778166	0.000139	1.390302	0.471047	-0.000056
1449	1.4408e+02	-17.6802	-29.834787	0.000141	1.410598	0.477924	-0.000057
1450	1.4418e+02	-17.6819	-29.888149	0.000133	1.329412	0.450417	-0.000054
1451	1.4428e+02	-17.7316	-29.945584	0.000143	1.430894	0.484800	-0.000058
1452	1.4437e+02	-17.7942	-30.000575	0.000137	1.370005	0.464170	-0.000055
1453	1.4447e+02	-17.8118	-30.050271	0.000124	1.238079	0.419472	-0.000050
1454	1.4457e+02	-17.8423	-30.104448	0.000135	1.349709	0.457294	-0.000054
1455	1.4467e+02	-17.8984	-30.162698	0.000145	1.451191	0.491677	-0.000059
1456	1.4477e+02	-17.9417	-30.218096	0.000138	1.380153	0.467609	-0.000056
1457	1.4487e+02	-17.9754	-30.269829	0.000129	1.288820	0.436664	-0.000052
1458	1.4497e+02	-18.0268	-30.322783	0.000132	1.319264	0.446979	-0.000053
1459	1.4507e+02	-18.0653	-30.372479	0.000124	1.238079	0.419472	-0.000050
1460	1.4517e+02	-18.0990	-30.425026	0.000131	1.309116	0.443541	-0.000053
1461	1.4527e+02	-18.1583	-30.475944	0.000127	1.268523	0.429787	-0.000051
1462	1.4537e+02	-18.1727	-30.527677	0.000129	1.288820	0.436664	-0.000052
1463	1.4547e+02	-18.2449	-30.580631	0.000132	1.319264	0.446979	-0.000053
1464	1.4557e+02	-18.2353	-30.640103	-0.000148	-1.481635	-0.501992	-0.000060
1465	1.4567e+02	-18.2979	-30.693872	0.000134	1.339561	0.453855	-0.000054
1466	1.4577e+02	-18.3556	-30.748049	0.000135	1.349709	0.457294	-0.000054
1467	1.4587e+02	-18.3749	-30.801003	0.000132	1.319264	0.446979	-0.000053
1468	1.4597e+02	-18.4150	-30.851106	0.000125	1.248227	0.422911	-0.000050
1469	1.4607e+02	-18.4583	-30.908949	0.000144	1.441043	0.488238	-0.000058
1470	1.4617e+02	-18.5177	-30.959867	0.000127	1.268523	0.429787	-0.000051
1471	1.4626e+02	-18.5513	-31.011599	0.000129	1.288820	0.436664	-0.000052
1472	1.4636e+02	-18.5465	-31.069035	-0.000143	-1.430894	-0.484800	-0.000058
1473	1.4646e+02	-18.6508	-31.118731	0.000124	1.238079	0.419472	-0.000050
1474	1.4656e+02	-18.6556	-31.167612	0.000122	1.217782	0.412596	-0.000049
1475	1.4666e+02	-18.7038	-31.231972	0.000160	1.603414	0.543251	-0.000065
1476	1.4676e+02	-18.7246	-31.286556	0.000136	1.359857	0.460732	-0.000055
1477	1.4686e+02	-18.7535	-31.337473	0.000127	1.268523	0.429787	-0.000051
1478	1.4696e+02	-18.8353	-31.388799	0.000128	1.278672	0.433226	-0.000052
1479	1.4706e+02	-18.8562	-31.449085	0.000150	1.501932	0.508868	-0.000061
1480	1.4716e+02	-18.8866	-31.510594	0.000153	1.532376	0.519183	-0.000062
1481	1.4726e+02	-18.9299	-31.558253	0.000119	1.187338	0.402281	-0.000048
1482	1.4736e+02	-18.9717	-31.615281	0.000142	1.420746	0.481362	-0.000057
1483	1.4746e+02	-19.0070	-31.670680	0.000138	1.380153	0.467609	-0.000056
1484	1.4756e+02	-19.0695	-31.728930	0.000145	1.451191	0.491677	-0.000059
1485	1.4766e+02	-19.1176	-31.781477	0.000131	1.309116	0.443541	-0.000053
1486	1.4776e+02	-19.1481	-31.841356	0.000149	1.491783	0.505430	-0.000060
1487	1.4786e+02	-19.1979	-31.898384	0.000142	1.420746	0.481362	-0.000057
1488	1.4796e+02	-19.2171	-31.957449	0.000147	1.471487	0.498553	-0.000059
1489	1.4806e+02	-19.2588	-32.008367	0.000127	1.268523	0.429787	-0.000051
1490	1.4816e+02	-19.3021	-32.062951	0.000136	1.359857	0.460732	-0.000055
1491	1.4825e+02	-19.3374	-32.124459	0.000153	1.532376	0.519183	-0.000062
1492	1.4835e+02	-19.3679	-32.173340	0.000122	1.217782	0.412596	-0.000049
1493	1.4845e+02	-19.4032	-32.235664	0.000155	1.552673	0.526060	-0.000063
1494	1.4855e+02	-19.4273	-32.289840	0.000135	1.349709	0.457294	-0.000054
1495	1.4865e+02	-19.4930	-32.347276	0.000143	1.430894	0.484800	-0.000058
1496	1.4875e+02	-19.5251	-32.404304	0.000142	1.420746	0.481362	-0.000057
1497	1.4885e+02	-19.5925	-32.459702	0.000138	1.380153	0.467609	-0.000056
1498	1.4895e+02	-19.5861	-32.517545	-0.000144	-1.441043	-0.488238	-0.000058
1499	1.4905e+02	-19.6599	-32.577424	0.000149	1.491783	0.505430	-0.000060
1500	1.4915e+02	-19.6839	-32.635267	0.000144	1.441043	0.488238	-0.000058
1501	1.4925e+02	-19.7224	-32.688629	0.000133	1.329412	0.450417	-0.000054
1502	1.4935e+02	-19.7706	-32.744027	0.000138	1.380153	0.467609	-0.000056
1503	1.4945e+02	-19.8155	-32.805536	0.000153	1.532376	0.519183	-0.000062
1504	1.4955e+02	-19.8684	-32.857676	0.000130	1.298968	0.440102	-0.000052
1505	1.4965e+02	-19.9053	-32.909408	0.000129	1.288820	0.436664	-0.000052
1506	1.4975e+02	-19.9342	-32.966436	0.000142	1.420746	0.481362	-0.000057
1507	1.4985e+02	-19.9695	-33.021835	0.000138	1.380153	0.467609	-0.000056
1508	1.4995e+02	-19.9246	-32.993321	0.000071	0.710373	0.240681	0.000029
1509	1.5005e+02	-19.8845	-32.955438	0.000094	0.943781	0.319762	0.000038
1510	1.5015e+02	-19.8588	-32.924073	0.000078	0.781410	0.264749	0.000032
1511	1.5025e+02	-19.8075	-32.888227	0.000089	0.893040	0.302570	0.000036
1512	1.5034e+02	-19.7658	-32.851973	0.000090	0.903189	0.306009	0.000036
1513	1.5044e+02	-19.7160	-32.808387	0.000109	1.085856	0.367898	0.000044
1514	1.5054e+02	-19.6920	-32.772134	0.000090	0.903189	0.306009	0.000036
1515	1.5064e+02	-19.6551	-32.732622	0.000098	0.984374	0.333515	0.000040
1516	1.5074e+02	-19.6101	-32.695554	0.000092	0.923485	0.312885	0.000037
1517	1.5084e+02	-19.5797	-32.652375	0.000108	1.075708	0.364460	0.000043
1518	1.5094e+02	-19.5331	-32.612048	0.000100	1.004670	0.340392	0.000041
1519	1.5104e+02	-19.4994	-32.574573	0.000093	0.933633	0.316323	0.000038
1520	1.5114e+02	-19.4321	-32.532209	0.000106	1.055411	0.357583	0.000043
1521	1.5124e+02	-19.4096	-32.492697	0.000098	0.984374	0.333515	0.000040
1522	1.5134e+02	-19.3631	-32.459702	0.000082	0.822003	0.278502	0.000033
1523	1.5144e+02	-19.3021	-32.414487	0.000113	1.126449	0.381651	0.000045
1524	1.5154e+02	-19.3166	-32.379048	-0.000088	-0.882892	-0.299132	0.000036
1525	1.5164e+02	-19.2428	-32.339536	0.000098	0.984374	0.333515	0.000040
1526	1.5174e+02	-19.2091	-32.300431	0.000097	0.974226	0.330077	0.000039
1527	1.5184e+02	-19.1674	-32.257660	0.000107	1.065560	0.361021	0.000043
1528	1.5194e+02	-19.1529	-32.218148	0.000098	0.984374	0.333515	0.000040
1529	1.5204e+02	-19.0952	-32.175377	0.000107	1.065560	0.361021	0.000043
1530	1.5214e+02	-19.0487	-32.132606	0.000107	1.065560	0.361021	0.000043
1531	1.5224e+02	-19.0230	-32.094316	0.000095	0.953930	0.323200	0.000038
1532	1.5233e+02	-18.9957	-32.049916	0.000111	1.106152	0.374775	0.000045
1533	1.5243e+02	-18.9299	-32.010811	0.000097	0.974226	0.330077	0.000039
1534	1.5253e+02	-18.9075	-31.970891	0.000099	0.994522	0.336953	0.000040
1535	1.5263e+02	-18.8513	-31.927306	0.000109	1.085856	0.367898	0.000044
1536	1.5273e+02	-18.8321	-31.888608	0.000096	0.964078	0.326638	0.000039
1537	1.5283e+02	-18.8000	-31.842578	0.000115	1.146745	0.388528	0.000046
1538	1.5293e+02	-18.7214	-31.805917	0.000091	0.913337	0.309447	0.000037
1539	1.5303e+02	-18.6797	-31.763146	0.000107	1.065560	0.361021	0.000043
1540	1.5313e+02	-18.6685	-31.719968	0.000108	1.075708	0.364460	0.000043
1541	1.5323e+02	-18.6300	-31.680863	0.000097	0.974226	0.330077	0.000039
1542	1.5333e+02	-18.5690	-31.636870	0.000110	1.096004	0.371336	0.000044
1543	1.5343e+02	-18.5433	-31.605098	0.000079	0.791559	0.268187	0.000032
1544	1.5353e+02	-18.4952	-31.560697	0.000111	1.106152	0.374775	0.000045
1545	1.5363e+02	-18.4503	-31.518741	0.000105	1.045263	0.354145	0.000042
1546	1.5373e+02	-18.4358	-31.479229	0.000098	0.984374	0.333515	0.000040
1547	1.5383e+02	-18.3717	-31.431570	0.000119	1.187338	0.402281	0.000048
1548	1.5393e+02	-18.3203	-31.394094	0.000093	0.933633	0.316323	0.000038
1549	1.5403e+02	-18.3043	-31.348472	0.000114	1.136597	0.385089	0.000046
1550	1.5413e+02	-18.2465	-31.311404	0.000092	0.923485	0.312885	0.000037
1551	1.5422e+02	-18.2048	-31.263744	0.000119	1.187338	0.402281	0.000048
1552	1.5432e+02	-18.1888	-31.230750	0.000082	0.822003	0.278502	0.000033
1553	1.5442e+02	-18.1391	-31.185942	0.000112	1.116301	0.378213	0.000045
1554	1.5452e+02	-18.1102	-31.138690	0.000118	1.177190	0.398843	0.000047
1555	1.5462e+02	-18.0669	-31.099585	0.000097	0.974226	0.330077	0.000039
1556	1.5472e+02	-18.0300	-31.057629	0.000105	1.045263	0.354145	0.000042
1557	1.5482e+02	-17.9834	-31.018932	0.000096	0.964078	0.326638	0.000039
1558	1.5492e+02	-17.9177	-30.975346	0.000109	1.085856	0.367898	0.000044
1559	1.5502e+02	-17.8952	-30.931760	0.000109	1.085856	0.367898	0.000044
1560	1.5512e+02	-17.8567	-30.887360	0.000111	1.106152	0.374775	0.000045
1561	1.5522e+02	-17.8327	-30.841330	0.000115	1.146745	0.388528	0.000046
1562	1.5532e+02	-17.7893	-30.798559	0.000107	1.065560	0.361021	0.000043
1563	1.5542e+02	-17.7621	-30.755381	0.000108	1.075708	0.364460	0.000043
1564	1.5552e+02	-17.6786	-30.710166	0.000113	1.126449	0.381651	0.000045
1565	1.5562e+02	-17.6642	-30.660063	0.000125	1.248227	0.422911	0.000050
1566	1.5572e+02	-17.6081	-30.618921	0.000102	1.024967	0.347268	0.000041
1567	1.5582e+02	-17.6032	-30.576150	0.000107	1.065560	0.361021	0.000043
1568	1.5592e+02	-17.5647	-30.526454	0.000124	1.238079	0.419472	0.000050
1569	1.5602e+02	-17.5054	-30.484091	0.000106	1.055411	0.357583	0.000043
1570	1.5612e+02	-17.4653	-30.440505	0.000109	1.085856	0.367898	0.000044
1571	1.5622e+02	-17.4557	-30.394475	0.000115	1.146745	0.388528	0.000046
1572	1.5631e+02	-17.3947	-30.343150	0.000128	1.278672	0.433226	0.000052
1573	1.5641e+02	-17.3434	-30.306897	0.000090	0.903189	0.306009	0.000036
1574	1.5651e+02	-17.3225	-30.254757	0.000130	1.298968	0.440102	0.000052
1575	1.5661e+02	-17.2904	-30.214023	0.000101	1.014819	0.343830	0.000041
1576	1.5671e+02	-17.2182	-30.164327	0.000124	1.238079	0.419472	0.000050
1577	1.5681e+02	-17.1717	-30.118297	0.000115	1.146745	0.388528	0.000046
1578	1.5691e+02	-17.1380	-30.071860	0.000116	1.156893	0.391966	0.000047
1579	1.5701e+02	-17.1124	-30.026238	0.000114	1.136597	0.385089	0.000046
1580	1.5711e+02	-17.0771	-29.978579	0.000119	1.187338	0.402281	0.000048
1581	1.5721e+02	-17.0337	-29.930512	0.000120	1.197486	0.405719	0.000048
1582	1.5731e+02	-17.0001	-29.889778	0.000101	1.014819	0.343830	0.000041
1583	1.5741e+02	-16.9471	-29.838453	0.000128	1.278672	0.433226	0.000052
1584	1.5751e+02	-16.8990	-29.792831	0.000114	1.136597	0.385089	0.000046
1585	1.5761e+02	-16.8717	-29.742727	0.000125	1.248227	0.422911	0.000050
1586	1.5771e+02	-16.8092	-29.701178	0.000104	1.035115	0.350706	0.000042
1587	1.5781e+02	-16.7739	-29.661666	0.000098	0.984374	0.333515	0.000040
1588	1.5791e+02	-16.7386	-29.612785	0.000122	1.217782	0.412596	0.000049
1589	1.5801e+02	-16.6936	-29.568792	0.000110	1.096004	0.371336	0.000044
1590	1.5811e+02	-16.6664	-29.521948	0.000117	1.167041	0.395404	0.000047
1591	1.5821e+02	-16.6263	-29.474289	0.000119	1.187338	0.402281	0.000048
1592	1.5830e+02	-16.5958	-29.430296	0.000110	1.096004	0.371336	0.000044
1593	1.5840e+02	-16.5396	-29.381007	0.000123	1.227931	0.416034	0.000050
1594	1.5850e+02	-16.5076	-29.335385	0.000114	1.136597	0.385089	0.000046
1595	1.5860e+02	-16.4578	-29.287726	0.000119	1.187338	0.402281	0.000048
1596	1.5870e+02	-16.3937	-29.240067	0.000119	1.187338	0.402281	0.000048
1597	1.5880e+02	-16.3760	-29.191593	0.000121	1.207634	0.409158	0.000049
1598	1.5890e+02	-16.3327	-29.150859	0.000101	1.014819	0.343830	0.000041
1599	1.5900e+02	-16.3054	-29.100348	0.000126	1.258375	0.426349	0.000051
1600	1.5910e+02	-16.2910	-29.057577	0.000107	1.065560	0.361021	0.000043
1601	1.5920e+02	-16.2413	-29.008289	0.000123	1.227931	0.416034	0.000050
1602	1.5930e+02	-16.1979	-28.961444	0.000117	1.167041	0.395404	0.000047
1603	1.5940e+02	-16.1466	-28.914193	0.000118	1.177190	0.398843	0.000047
1604	1.5950e+02	-16.1001	-28.868978	0.000113	1.126449	0.381651	0.000045
1605	1.5960e+02	-16.0840	-28.819282	0.000124	1.238079	0.419472	0.000050
1606	1.5970e+02	-16.0135	-28.767142	0.000130	1.298968	0.440102	0.000052
1607	1.5980e+02	-15.9846	-28.719483	0.000119	1.187338	0.402281	0.000048
1608	1.5990e+02	-15.9541	-28.666121	0.000133	1.329412	0.450417	0.000054
1609	1.6000e+02	-15.9332	-28.623757	0.000106	1.055411	0.357583	0.000043
1610	1.6010e+02	-15.8402	-28.571210	0.000131	1.309116	0.443541	0.000053
1611	1.6019e+02	-15.8225	-28.521922	0.000123	1.227931	0.416034	0.000050
1612	1.6029e+02	-15.7792	-28.471004	0.000127	1.268523	0.429787	0.000051
1613	1.6039e+02	-15.7584	-28.421716	0.000123	1.227931	0.416034	0.000050
1614	1.6049e+02	-15.7215	-28.371612	0.000125	1.248227	0.422911	0.000050
1615	1.6059e+02	-15.6766	-28.323953	0.000119	1.187338	0.402281	0.000048
1616	1.6069e+02	-15.6300	-28.270184	0.000134	1.339561	0.453855	0.000054
1617	1.6079e+02	-15.5915	-28.222525	0.000119	1.187338	0.402281	0.000048
1618	1.6089e+02	-15.5418	-28.172829	0.000124	1.238079	0.419472	0.000050
1619	1.6099e+02	-15.5226	-28.123541	0.000123	1.227931	0.416034	0.000050
1620	1.6109e+02	-15.4664	-28.071808	0.000129	1.288820	0.436664	0.000052
1621	1.6119e+02	-15.4520	-28.023335	0.000121	1.207634	0.409158	0.000049
1622	1.6129e+02	-15.3910	-27.968751	0.000136	1.359857	0.460732	0.000055
1623	1.6139e+02	-15.3637	-27.920277	0.000121	1.207634	0.409158	0.000049
1624	1.6149e+02	-15.3156	-27.866508	0.000134	1.339561	0.453855	0.000054
1625	1.6159e+02	-15.2675	-27.813146	0.000133	1.329412	0.450417	0.000054
1626	1.6169e+02	-15.2113	-27.754081	0.000147	1.471487	0.498553	0.000059
1627	1.6179e+02	-15.2210	-27.704385	-0.000124	-1.238079	-0.419472	0.000050
1628	1.6189e+02	-15.1343	-27.648987	0.000138	1.380153	0.467609	0.000056
1629	1.6199e+02	-15.1103	-27.598884	0.000125	1.248227	0.422911	0.000050
1630	1.6209e+02	-15.0702	-27.543892	0.000137	1.370005	0.464170	0.000055
1631	1.6219e+02	-15.0333	-27.495826	0.000120	1.197486	0.405719	0.000048
1632	1.6228e+02	-14.9723	-27.442871	0.000132	1.319264	0.446979	0.000053
1633	1.6238e+02	-14.9370	-27.384621	0.000145	1.451191	0.491677	0.000059
1634	1.6248e+02	-14.9033	-27.336962	0.000119	1.187338	0.402281	0.000048
1635	1.6258e+02	-14.8568	-27.283600	0.000133	1.329412	0.450417	0.000054
1636	1.6268e+02	-14.8055	-27.227794	0.000139	1.390302	0.471047	0.000056
1637	1.6278e+02	-14.8023	-27.172396	0.000138	1.380153	0.467609	0.000056
1638	1.6288e+02	-14.7525	-27.122293	0.000125	1.248227	0.422911	0.000050
1639	1.6298e+02	-14.7349	-27.063635	0.000146	1.461339	0.495115	0.000059
1640	1.6308e+02	-14.6932	-27.010274	0.000133	1.329412	0.450417	0.000054
1641	1.6318e+02	-14.6579	-26.955690	0.000136	1.359857	0.460732	0.000055
1642	1.6328e+02	-14.6017	-26.908845	0.000117	1.167041	0.395404	0.000047
1643	1.6338e+02	-14.5680	-26.853039	0.000139	1.390302	0.471047	0.000056
1644	1.6348e+02	-14.5408	-26.803751	0.000123	1.227931	0.416034	0.000050
1645	1.6358e+02	-14.4654	-26.752018	0.000129	1.288820	0.436664	0.000052
1646	1.6368e+02	-14.4333	-26.697027	0.000137	1.370005	0.464170	0.000055
1647	1.6378e+02	-14.4060	-26.637962	0.000147	1.471487	0.498553	0.000059
1648	1.6388e+02	-14.3322	-26.591118	0.000117	1.167041	0.395404	0.000047
1649	1.6398e+02	-14.2889	-26.538978	0.000130	1.298968	0.440102	0.000052
1650	1.6408e+02	-14.2632	-26.482358	0.000141	1.410598	0.477924	0.000057
1651	1.6418e+02	-14.2392	-26.433884	0.000121	1.207634	0.409158	0.000049
1652	1.6427e+02	-14.1910	-26.379707	0.000135	1.349709	0.457294	0.000054
1653	1.6437e+02	-14.1686	-26.325938	0.000134	1.339561	0.453855	0.000054
1654	1.6447e+02	-14.1221	-26.274613	0.000128	1.278672	0.433226	0.000052
1655	1.6457e+02	-14.0595	-26.220844	0.000134	1.339561	0.453855	0.000054
1656	1.6467e+02	-14.0226	-26.164223	0.000141	1.410598	0.477924	0.000057
1657	1.6477e+02	-13.9953	-26.116971	0.000118	1.177190	0.398843	0.000047
1658	1.6487e+02	-13.9376	-26.064424	0.000131	1.309116	0.443541	0.000053
1659	1.6497e+02	-13.9312	-26.008618	0.000139	1.390302	0.471047	0.000056
1660	1.6507e+02	-13.8766	-25.955256	0.000133	1.329412	0.450417	0.000054
1661	1.6517e+02	-13.8429	-25.906375	0.000122	1.217782	0.412596	0.000049
1662	1.6527e+02	-13.8060	-25.854643	0.000129	1.288820	0.436664	0.000052
1663	1.6537e+02	-13.7675	-25.797615	0.000142	1.420746	0.481362	0.000057
1664	1.6547e+02	-13.7194	-25.748326	0.000123	1.227931	0.416034	0.000050
1665	1.6557e+02	-13.6777	-25.692520	0.000139	1.390302	0.471047	0.000056
1666	1.6567e+02	-13.6103	-25.635492	0.000142	1.420746	0.481362	0.000057
1667	1.6577e+02	-13.6071	-25.584575	0.000127	1.268523	0.429787	0.000051
1668	1.6587e+02	-13.5686	-25.534064	0.000126	1.258375	0.426349	0.000051
1669	1.6597e+02	-13.5349	-25.472963	0.000152	1.522228	0.515745	0.000061
1670	1.6607e+02	-13.4788	-25.416750	0.000140	1.400450	0.474485	0.000056
1671	1.6616e+02	-13.4306	-25.368683	0.000120	1.197486	0.405719	0.000048
1672	1.6626e+02	-13.4162	-25.313285	0.000138	1.380153	0.467609	0.000056
1673	1.6636e+02	-13.3552	-25.256257	0.000142	1.420746	0.481362	0.000057
1674	1.6646e+02	-13.3488	-25.197192	0.000147	1.471487	0.498553	0.000059
1675	1.6656e+02	-13.3023	-25.142608	0.000136	1.359857	0.460732	0.000055
1676	1.6666e+02	-13.2157	-25.089653	0.000132	1.319264	0.446979	0.000053
1677	1.6676e+02	-13.1852	-25.038328	0.000128	1.278672	0.433226	0.000052
1678	1.6686e+02	-13.1274	-24.980893	0.000143	1.430894	0.484800	0.000058
1679	1.6696e+02	-13.1403	-24.932827	-0.000120	-1.197486	-0.405719	0.000048
1680	1.6706e+02	-13.0905	-24.878243	0.000136	1.359857	0.460732	0.000055
1681	1.6716e+02	-13.0312	-24.815919	0.000155	1.552673	0.526060	0.000063
1682	1.6726e+02	-13.0216	-24.764594	0.000128	1.278672	0.433226	0.000052
1683	1.6736e+02	-12.9446	-24.707566	0.000142	1.420746	0.481362	0.000057
1684	1.6746e+02	-12.9157	-24.651760	0.000139	1.390302	0.471047	0.000056
1685	1.6756e+02	-12.8724	-24.595140	0.000141	1.410598	0.477924	0.000057
1686	1.6766e+02	-12.8515	-24.543814	0.000128	1.278672	0.433226	0.000052
1687	1.6776e+02	-12.7825	-24.486379	0.000143	1.430894	0.484800	0.000058
1688	1.6786e+02	-12.7537	-24.433017	0.000133	1.329412	0.450417	0.000054
1689	1.6796e+02	-12.7424	-24.378026	0.000137	1.370005	0.464170	0.000055
1690	1.6806e+02	-12.6783	-24.322220	0.000139	1.390302	0.471047	0.000056
1691	1.6816e+02	-12.6526	-24.266821	0.000138	1.380153	0.467609	0.000056
1692	1.6825e+02	-12.6157	-24.220384	0.000116	1.156893	0.391966	0.000047
1693	1.6835e+02	-12.5772	-24.164171	0.000140	1.400450	0.474485	0.000056
1694	1.6845e+02	-12.5194	-24.112031	0.000130	1.298968	0.440102	0.000052
1695	1.6855e+02	-12.4729	-24.055003	0.000142	1.420746	0.481362	0.000057
1696	1.6865e+02	-12.4553	-24.000012	0.000137	1.370005	0.464170	0.000055
1697	1.6875e+02	-12.4136	-23.948280	0.000129	1.288820	0.436664	0.000052
1698	1.6885e+02	-12.3526	-23.900213	0.000120	1.197486	0.405719	0.000048
1699	1.6895e+02	-12.3189	-23.838704	0.000153	1.532376	0.519183	0.000062
1700	1.6905e+02	-12.2948	-23.782084	0.000141	1.410598	0.477924	0.000057
1701	1.6915e+02	-12.2515	-23.728315	0.000134	1.339561	0.453855	0.000054
1702	1.6925e+02	-12.1954	-23.676582	0.000129	1.288820	0.436664	0.000052
1703	1.6935e+02	-12.1697	-23.624850	0.000129	1.288820	0.436664	0.000052
1704	1.6945e+02	-12.1392	-23.568229	0.000141	1.410598	0.477924	0.000057
1705	1.6955e+02	-12.0863	-23.511201	0.000142	1.420746	0.481362	0.000057
1706	1.6965e+02	-12.0366	-23.461913	0.000123	1.227931	0.416034	0.000050
1707	1.6975e+02	-11.9965	-23.403255	0.000146	1.461339	0.495115	0.000059
1708	1.6985e+02	-11.9820	-23.350708	0.000131	1.309116	0.443541	0.000053
1709	1.6995e+02	-11.9146	-23.296939	0.000134	1.339561	0.453855	0.000054
1710	1.7005e+02	-11.8922	-23.248872	0.000120	1.197486	0.405719	0.000048
1711	1.7015e+02	-11.8681	-23.195511	0.000133	1.329412	0.450417	0.000054
1712	1.7024e+02	-11.8072	-23.141334	0.000135	1.349709	0.457294	0.000054
1713	1.7034e+02	-11.7622	-23.089602	0.000129	1.288820	0.436664	0.000052
1714	1.7044e+02	-11.6981	-23.036647	0.000132	1.319264	0.446979	0.000053
1715	1.7054e+02	-11.6981	-22.984507	-0.000130	-1.298968	-0.440102	0.000052
1716	1.7064e+02	-11.6644	-22.927887	0.000141	1.410598	0.477924	0.000057
1717	1.7074e+02	-11.5922	-22.876154	0.000129	1.288820	0.436664	0.000052
1718	1.7084e+02	-11.5826	-22.821977	0.000135	1.349709	0.457294	0.000054
1719	1.7094e+02	-11.5328	-22.771467	0.000126	1.258375	0.426349	0.000051
1720	1.7104e+02	-11.4959	-22.712402	0.000147	1.471487	0.498553	0.000059
1721	1.7114e+02	-11.4462	-22.663114	0.000123	1.227931	0.416034	0.000050
1722	1.7124e+02	-11.3949	-22.610159	0.000132	1.319264	0.446979	0.000053
1723	1.7134e+02	-11.3644	-22.556797	0.000133	1.329412	0.450417	0.000054
1724	1.7144e+02	-11.3195	-22.507916	0.000122	1.217782	0.412596	0.000049
1725	1.7154e+02	-11.2970	-22.452925	0.000137	1.370005	0.464170	0.000055
1726	1.7164e+02	-11.2778	-22.395082	0.000144	1.441043	0.488238	0.000058
1727	1.7174e+02	-11.2088	-22.338869	0.000140	1.400450	0.474485	0.000056
1728	1.7184e+02	-11.1639	-22.287137	0.000129	1.288820	0.436664	0.000052
1729	1.7194e+02	-11.1478	-22.229294	0.000144	1.441043	0.488238	0.000058
1730	1.7204e+02	-11.0548	-22.171451	0.000144	1.441043	0.488238	0.000058
1731	1.7213e+02	-11.0484	-22.116868	0.000136	1.359857	0.460732	0.000055
1732	1.7223e+02	-10.9938	-22.064320	0.000131	1.309116	0.443541	0.000053
1733	1.7233e+02	-10.9569	-22.002404	0.000154	1.542524	0.522621	0.000062
1734	1.7243e+02	-10.9361	-21.946598	0.000139	1.390302	0.471047	0.000056
1735	1.7253e+02	-10.8911	-21.888348	0.000145	1.451191	0.491677	0.000059
1736	1.7263e+02	-10.8574	-21.830506	0.000144	1.441043	0.488238	0.000058
1737	1.7273e+02	-10.8109	-21.776329	0.000135	1.349709	0.457294	0.000054
1738	1.7283e+02	-10.7885	-21.721338	0.000137	1.370005	0.464170	0.000055
1739	1.7293e+02	-10.7419	-21.662273	0.000147	1.471487	0.498553	0.000059
1740	1.7303e+02	-10.6810	-21.609319	0.000132	1.319264	0.446979	0.000053
1741	1.7313e+02	-10.6473	-21.548217	0.000152	1.522228	0.515745	0.000061
1742	1.7323e+02	-10.6200	-21.492411	0.000139	1.390302	0.471047	0.000056
1743	1.7333e+02	-10.5719	-21.432532	0.000149	1.491783	0.505430	0.000060
1744	1.7343e+02	-10.5446	-21.374689	0.000144	1.441043	0.488238	0.000058
1745	1.7353e+02	-10.4933	-21.314810	0.000149	1.491783	0.505430	0.000060
1746	1.7363e+02	-10.4452	-21.265522	0.000123	1.227931	0.416034	0.000050
1747	1.7373e+02	-10.4163	-21.203606	0.000154	1.542524	0.522621	0.000062
1748	1.7383e+02	-10.3778	-21.146170	0.000143	1.430894	0.484800	0.000058
1749	1.7393e+02	-10.3297	-21.089550	0.000141	1.410598	0.477924	0.000057
1750	1.7403e+02	-10.2847	-21.033336	0.000140	1.400450	0.474485	0.000056
1751	1.7413e+02	-10.2671	-20.974272	0.000147	1.471487	0.498553	0.000059
1752	1.7422e+02	-10.2045	-20.917651	0.000141	1.410598	0.477924	0.000057
1753	1.7432e+02	-10.1532	-20.858994	0.000146	1.461339	0.495115	0.000059
1754	1.7442e+02	-10.1404	-20.807261	0.000129	1.288820	0.436664	0.000052
1755	1.7452e+02	-10.0842	-20.748197	0.000147	1.471487	0.498553	0.000059
1756	1.7462e+02	-10.0682	-20.691576	0.000141	1.410598	0.477924	0.000057
1757	1.7472e+02	-10.0232	-20.632104	0.000148	1.481635	0.501992	0.000060
1758	1.7482e+02	-9.9575	-20.573447	0.000146	1.461339	0.495115	0.000059
1759	1.7492e+02	-9.9366	-20.522121	0.000128	1.278672	0.433226	0.000052
1760	1.7502e+02	-9.8837	-20.455725	0.000165	1.654154	0.560443	0.000067
1761	1.7512e+02	-9.8532	-20.402363	0.000133	1.329412	0.450417	0.000054
1762	1.7522e+02	-9.8179	-20.344927	0.000143	1.430894	0.484800	0.000058
1763	1.7532e+02	-9.7746	-20.285455	0.000148	1.481635	0.501992	0.000060
1764	1.7542e+02	-9.7313	-20.229242	0.000140	1.400450	0.474485	0.000056
1765	1.7552e+02	-9.6976	-20.171399	0.000144	1.441043	0.488238	0.000058
1766	1.7562e+02	-9.6446	-20.113149	0.000145	1.451191	0.491677	0.000059
1767	1.7572e+02	-9.6078	-20.059380	0.000134	1.339561	0.453855	0.000054
1768	1.7582e+02	-9.5885	-19.999501	0.000149	1.491783	0.505430	0.000060
1769	1.7592e+02	-9.5147	-19.942473	0.000142	1.420746	0.481362	0.000057
1770	1.7602e+02	-9.4987	-19.881372	0.000152	1.522228	0.515745	0.000061
1771	1.7612e+02	-9.4650	-19.821492	0.000149	1.491783	0.505430	0.000060
1772	1.7621e+02	-9.4104	-19.762428	0.000147	1.471487	0.498553	0.000059
1773	1.7631e+02	-9.3944	-19.704992	0.000143	1.430894	0.484800	0.000058
1774	1.7641e+02	-9.3463	-19.642669	0.000155	1.552673	0.526060	0.000063
1775	1.7651e+02	-9.2981	-19.582789	0.000149	1.491783	0.505430	0.000060
1776	1.7661e+02	-9.2436	-19.520059	0.000156	1.562821	0.529498	0.000063
1777	1.7671e+02	-9.2259	-19.461401	0.000146	1.461339	0.495115	0.000059
1778	1.7681e+02	-9.1666	-19.398263	0.000157	1.572969	0.532936	0.000063
1779	1.7691e+02	-9.1634	-19.337977	0.000150	1.501932	0.508868	0.000061
1780	1.7701e+02	-9.1024	-19.276875	0.000152	1.522228	0.515745	0.000061
1781	1.7711e+02	-9.0671	-19.216589	0.000150	1.501932	0.508868	0.000061
1782	1.7721e+02	-9.0094	-19.155487	0.000152	1.522228	0.515745	0.000061
1783	1.7731e+02	-8.9677	-19.090720	0.000161	1.613562	0.546690	0.000065
1784	1.7741e+02	-8.9404	-19.030026	0.000151	1.512080	0.512307	0.000061
1785	1.7751e+02	-8.9003	-18.966480	0.000158	1.583117	0.536375	0.000064
1786	1.7761e+02	-8.8522	-18.911896	0.000136	1.359857	0.460732	0.000055
1787	1.7771e+02	-8.8024	-18.848351	0.000158	1.583117	0.536375	0.000064
1788	1.7781e+02	-8.7848	-18.781139	0.000167	1.674451	0.567319	0.000068
1789	1.7791e+02	-8.7350	-18.715965	0.000162	1.623710	0.550128	0.000066
1790	1.7801e+02	-8.6789	-18.654456	0.000153	1.532376	0.519183	0.000062
1791	1.7810e+02	-8.6484	-18.591725	0.000156	1.562821	0.529498	0.000063
1792	1.7820e+02	-8.6244	-18.526550	0.000162	1.623710	0.550128	0.000066
1793	1.7830e+02	-8.5778	-18.457302	0.000173	1.725192	0.584511	0.000070
1794	1.7840e+02	-8.5425	-18.395793	0.000153	1.532376	0.519183	0.000062
1795	1.7850e+02	-8.5121	-18.325323	0.000176	1.755636	0.594826	0.000071
1796	1.7860e+02	-8.4463	-18.264222	0.000152	1.522228	0.515745	0.000061
1797	1.7870e+02	-8.4110	-18.203935	0.000150	1.501932	0.508868	0.000061
1798	1.7880e+02	-8.3821	-18.142426	0.000153	1.532376	0.519183	0.000062
1799	1.7890e+02	-8.3436	-18.073993	0.000170	1.704895	0.577634	0.000069
1800	1.7900e+02	-8.3147	-18.010040	0.000159	1.593265	0.539813	0.000064
1801	1.7910e+02	-8.2891	-17.940792	0.000173	1.725192	0.584511	0.000070
1802	1.7920e+02	-8.2008	-17.877654	0.000157	1.572969	0.532936	0.000063
1803	1.7930e+02	-8.1655	-17.810442	0.000167	1.674451	0.567319	0.000068
1804	1.7940e+02	-8.1286	-17.747711	0.000156	1.562821	0.529498	0.000063
1805	1.7950e+02	-8.1206	-17.681722	0.000164	1.644006	0.557004	0.000066
1806	1.7960e+02	-8.0340	-17.616954	0.000161	1.613562	0.546690	0.000065
1807	1.7970e+02	-8.0196	-17.548113	0.000172	1.715044	0.581072	0.000069
1808	1.7980e+02	-7.9859	-17.485790	0.000155	1.552673	0.526060	0.000063
1809	1.7990e+02	-7.9474	-17.418986	0.000166	1.664303	0.563881	0.000067
1810	1.8000e+02	-7.9025	-17.350552	0.000170	1.704895	0.577634	0.000069
1811	1.8009e+02	-7.8623	-17.287414	0.000157	1.572969	0.532936	0.000063
1812	1.8019e+02	-7.8174	-17.227942	0.000148	1.481635	0.501992	0.000060
1813	1.8029e+02	-7.7982	-17.157065	0.000177	1.765785	0.598264	0.000071
1814	1.8039e+02	-7.7372	-17.090668	0.000165	1.654154	0.560443	0.000067
1815	1.8049e+02	-7.6923	-17.032825	0.000144	1.441043	0.488238	0.000058
1816	1.8059e+02	-7.6570	-16.965206	0.000168	1.684599	0.570758	0.000068
1817	1.8069e+02	-7.6185	-16.900846	0.000160	1.603414	0.543251	0.000065
1818	1.8079e+02	-7.5591	-16.836079	0.000161	1.613562	0.546690	0.000065
1819	1.8089e+02	-7.5271	-16.768052	0.000169	1.694747	0.574196	0.000068
1820	1.8099e+02	-7.5014	-16.703692	0.000160	1.603414	0.543251	0.000065
1821	1.8109e+02	-7.4517	-16.639740	0.000159	1.593265	0.539813	0.000064
1822	1.8119e+02	-7.4276	-16.573750	0.000164	1.644006	0.557004	0.000066
1823	1.8129e+02	-7.3939	-16.505317	0.000170	1.704895	0.577634	0.000069
1824	1.8139e+02	-7.3217	-16.440956	0.000160	1.603414	0.543251	0.000065
1825	1.8149e+02	-7.3025	-16.377818	0.000157	1.572969	0.532936	0.000063
1826	1.8159e+02	-7.2415	-16.313458	0.000160	1.603414	0.543251	0.000065
1827	1.8169e+02	-7.2207	-16.249098	0.000160	1.603414	0.543251	0.000065
1828	1.8179e+02	-7.1918	-16.183923	0.000162	1.623710	0.550128	0.000066
1829	1.8189e+02	-7.1436	-16.118341	0.000163	1.633858	0.553566	0.000066
1830	1.8199e+02	-7.0875	-16.047871	0.000176	1.755636	0.594826	0.000071
1831	1.8209e+02	-7.0586	-15.981474	0.000165	1.654154	0.560443	0.000067
1832	1.8218e+02	-7.0233	-15.917521	0.000159	1.593265	0.539813	0.000064
1833	1.8228e+02	-6.9993	-15.852346	0.000162	1.623710	0.550128	0.000066
1834	1.8238e+02	-6.9560	-15.788801	0.000158	1.583117	0.536375	0.000064
1835	1.8248e+02	-6.8950	-15.718331	0.000176	1.755636	0.594826	0.000071
1836	1.8258e+02	-6.8597	-15.651119	0.000167	1.674451	0.567319	0.000068
1837	1.8268e+02	-6.8308	-15.582278	0.000172	1.715044	0.581072	0.000069
1838	1.8278e+02	-6.7875	-15.514252	0.000169	1.694747	0.574196	0.000068
1839	1.8288e+02	-6.7506	-15.445411	0.000172	1.715044	0.581072	0.000069
1840	1.8298e+02	-6.6961	-15.376570	0.000172	1.715044	0.581072	0.000069
1841	1.8308e+02	-6.6351	-15.305285	0.000178	1.775933	0.601702	0.000072
1842	1.8318e+02	-6.6351	-15.237666	-0.000168	-1.684599	-0.570758	0.000068
1843	1.8328e+02	-6.5902	-15.172899	0.000161	1.613562	0.546690	0.000065
1844	1.8338e+02	-6.5565	-15.105280	0.000168	1.684599	0.570758	0.000068
1845	1.8348e+02	-6.4875	-15.034403	0.000177	1.765785	0.598264	0.000071
1846	1.8358e+02	-6.4506	-14.969635	0.000161	1.613562	0.546690	0.000065
1847	1.8368e+02	-6.4394	-14.906497	0.000157	1.572969	0.532936	0.000063
1848	1.8378e+02	-6.3977	-14.837656	0.000172	1.715044	0.581072	0.000069
1849	1.8388e+02	-6.3367	-14.770445	0.000167	1.674451	0.567319	0.000068
1850	1.8398e+02	-6.3030	-14.699974	0.000176	1.755636	0.594826	0.000071
1851	1.8407e+02	-6.2774	-14.634392	0.000163	1.633858	0.553566	0.000066
1852	1.8417e+02	-6.2260	-14.564329	0.000175	1.745488	0.591387	0.000070
1853	1.8427e+02	-6.1955	-14.493452	0.000177	1.765785	0.598264	0.000071
1854	1.8437e+02	-6.1554	-14.427462	0.000164	1.644006	0.557004	0.000066
1855	1.8447e+02	-6.1169	-14.352918	0.000186	1.857118	0.629209	0.000075
1856	1.8457e+02	-6.0736	-14.287744	0.000162	1.623710	0.550128	0.000066
1857	1.8467e+02	-5.9982	-14.221347	0.000165	1.654154	0.560443	0.000067
1858	1.8477e+02	-6.0079	-14.157801	-0.000158	-1.583117	-0.536375	0.000064
1859	1.8487e+02	-5.9437	-14.088146	0.000174	1.735340	0.587949	0.000070
1860	1.8497e+02	-5.9052	-14.016861	0.000178	1.775933	0.601702	0.000072
1861	1.8507e+02	-5.8715	-13.946391	0.000176	1.755636	0.594826	0.000071
1862	1.8517e+02	-5.8314	-13.879586	0.000166	1.664303	0.563881	0.000067
1863	1.8527e+02	-5.7977	-13.813190	0.000165	1.654154	0.560443	0.000067
1864	1.8537e+02	-5.7512	-13.750866	0.000155	1.552673	0.526060	0.000063
1865	1.8547e+02	-5.7191	-13.679989	0.000177	1.765785	0.598264	0.000071
1866	1.8557e+02	-5.6758	-13.609926	0.000175	1.745488	0.591387	0.000070
1867	1.8567e+02	-5.6485	-13.541085	0.000172	1.715044	0.581072	0.000069
1868	1.8577e+02	-5.5667	-13.469800	0.000178	1.775933	0.601702	0.000072
1869	1.8587e+02	-5.5651	-13.402588	0.000167	1.674451	0.567319	0.000068
1870	1.8597e+02	-5.5057	-13.334155	0.000170	1.704895	0.577634	0.000069
1871	1.8606e+02	-5.4448	-13.266129	0.000169	1.694747	0.574196	0.000068
1872	1.8616e+02	-5.4255	-13.197695	0.000170	1.704895	0.577634	0.000069
1873	1.8626e+02	-5.4047	-13.133742	0.000159	1.593265	0.539813	0.000064
1874	1.8636e+02	-5.3742	-13.063679	0.000175	1.745488	0.591387	0.000070
1875	1.8646e+02	-5.3164	-12.998504	0.000162	1.623710	0.550128	0.000066
1876	1.8656e+02	-5.2699	-12.923146	0.000188	1.877415	0.636085	0.000076
1877	1.8666e+02	-5.2539	-12.860008	0.000157	1.572969	0.532936	0.000063
1878	1.8676e+02	-5.1592	-12.798499	0.000153	1.532376	0.519183	0.000062
1879	1.8686e+02	-5.1656	-12.725992	-0.000181	-1.806377	-0.612017	0.000073
1880	1.8696e+02	-5.1175	-12.657151	0.000172	1.715044	0.581072	0.000069
1881	1.8706e+02	-5.0549	-12.588311	0.000172	1.715044	0.581072	0.000069
1882	1.8716e+02	-5.0261	-12.520692	0.000168	1.684599	0.570758	0.000068
1883	1.8726e+02	-5.0100	-12.453480	0.000167	1.674451	0.567319	0.000068
1884	1.8736e+02	-4.9426	-12.384232	0.000173	1.725192	0.584511	0.000070
1885	1.8746e+02	-4.8993	-12.309281	0.000187	1.867266	0.632647	0.000075
1886	1.8756e+02	-4.8785	-12.249402	0.000149	1.491783	0.505430	0.000060
1887	1.8766e+02	-4.8127	-12.176487	0.000182	1.816525	0.615455	0.000073
1888	1.8776e+02	-4.8047	-12.108461	0.000169	1.694747	0.574196	0.000068
1889	1.8786e+02	-4.7549	-12.039620	0.000172	1.715044	0.581072	0.000069
1890	1.8796e+02	-4.7405	-11.967928	0.000179	1.786081	0.605141	0.000072
1891	1.8806e+02	-4.6715	-11.903975	0.000159	1.593265	0.539813	0.000064
1892	1.8815e+02	-4.6282	-11.837171	0.000166	1.664303	0.563881	0.000067
1893	1.8825e+02	-4.5721	-11.761813	0.000188	1.877415	0.636085	0.000076
1894	1.8835e+02	-4.5336	-11.691750	0.000175	1.745488	0.591387	0.000070
1895	1.8845e+02	-4.5143	-11.620057	0.000179	1.786081	0.605141	0.000072
1896	1.8855e+02	-4.4790	-11.553660	0.000165	1.654154	0.560443	0.000067
1897	1.8865e+02	-4.4341	-11.476265	0.000193	1.928156	0.653277	0.000078
1898	1.8875e+02	-4.3924	-11.405388	0.000177	1.765785	0.598264	0.000071
1899	1.8885e+02	-4.3411	-11.330844	0.000186	1.857118	0.629209	0.000075
1900	1.8895e+02	-4.3138	-11.265669	0.000162	1.623710	0.550128	0.000066
1901	1.8905e+02	-4.2608	-11.192348	0.000183	1.826674	0.618894	0.000074
1902	1.8915e+02	-4.2239	-11.116175	0.000190	1.897711	0.642962	0.000077
1903	1.8925e+02	-4.1710	-11.037965	0.000195	1.948452	0.660153	0.000079
1904	1.8935e+02	-4.1710	-10.971975	-0.000164	-1.644006	-0.557004	0.000066
1905	1.8945e+02	-4.1277	-10.894988	0.000192	1.918007	0.649838	0.000077
1906	1.8955e+02	-4.0796	-10.826961	0.000169	1.694747	0.574196	0.000068
1907	1.8965e+02	-4.0346	-10.754047	0.000182	1.816525	0.615455	0.000073
1908	1.8975e+02	-3.9865	-10.675837	0.000195	1.948452	0.660153	0.000079
1909	1.8985e+02	-3.9480	-10.601701	0.000185	1.846970	0.625770	0.000075
1910	1.8995e+02	-3.9079	-10.525935	0.000189	1.887563	0.639524	0.000076
1911	1.9004e+02	-3.8822	-10.452614	0.000183	1.826674	0.618894	0.000074
1912	1.9014e+02	-3.8566	-10.375626	0.000192	1.918007	0.649838	0.000077
1913	1.9024e+02	-3.8036	-10.306785	0.000172	1.715044	0.581072	0.000069
1914	1.9034e+02	-3.7587	-10.229390	0.000193	1.928156	0.653277	0.000078
1915	1.9044e+02	-3.7379	-10.152402	0.000192	1.918007	0.649838	0.000077
1916	1.9054e+02	-3.6801	-10.075414	0.000192	1.918007	0.649838	0.000077
1917	1.9064e+02	-3.6528	-10.008203	0.000167	1.674451	0.567319	0.000068
1918	1.9074e+02	-3.5903	-9.930808	0.000193	1.928156	0.653277	0.000078
1919	1.9084e+02	-3.5598	-9.854635	0.000190	1.897711	0.642962	0.000077
1920	1.9094e+02	-3.5261	-9.778462	0.000190	1.897711	0.642962	0.000077
1921	1.9104e+02	-3.4748	-9.705140	0.000183	1.826674	0.618894	0.000074
1922	1.9114e+02	-3.4411	-9.629374	0.000189	1.887563	0.639524	0.000076
1923	1.9124e+02	-3.4106	-9.556460	0.000182	1.816525	0.615455	0.000073
1924	1.9134e+02	-3.3625	-9.478250	0.000195	1.948452	0.660153	0.000079
1925	1.9144e+02	-3.3240	-9.411853	0.000165	1.654154	0.560443	0.000067
1926	1.9154e+02	-3.2903	-9.330792	0.000202	2.019489	0.684221	0.000081
1927	1.9164e+02	-3.2710	-9.258285	0.000181	1.806377	0.612017	0.000073
1928	1.9174e+02	-3.1700	-9.175187	0.000207	2.070230	0.701413	0.000084
1929	1.9184e+02	-3.1668	-9.100644	0.000186	1.857118	0.629209	0.000075
1930	1.9194e+02	-3.0994	-9.023656	0.000192	1.918007	0.649838	0.000077
1931	1.9203e+02	-3.0673	-8.955630	0.000169	1.694747	0.574196	0.000068
1932	1.9213e+02	-3.0737	-8.870088	-0.000213	-2.131119	-0.722043	0.000086
1933	1.9223e+02	-3.0224	-8.797173	0.000182	1.816525	0.615455	0.000073
1934	1.9233e+02	-2.9823	-8.715298	0.000204	2.039786	0.691098	0.000082
1935	1.9243e+02	-2.9390	-8.644827	0.000176	1.755636	0.594826	0.000071
1936	1.9253e+02	-2.9021	-8.565396	0.000198	1.978896	0.670468	0.000080
1937	1.9263e+02	-2.8427	-8.485556	0.000199	1.989045	0.673907	0.000080
1938	1.9273e+02	-2.8074	-8.407347	0.000195	1.948452	0.660153	0.000079
1939	1.9283e+02	-2.7641	-8.329544	0.000194	1.938304	0.656715	0.000078
1940	1.9293e+02	-2.7352	-8.253371	0.000190	1.897711	0.642962	0.000077
1941	1.9303e+02	-2.6887	-8.165385	0.000219	2.192008	0.742673	0.000088
1942	1.9313e+02	-2.6694	-8.087990	0.000193	1.928156	0.653277	0.000078
1943	1.9323e+02	-2.6293	-8.009780	0.000195	1.948452	0.660153	0.000079
1944	1.9333e+02	-2.5555	-7.925053	0.000211	2.110823	0.715166	0.000085
1945	1.9343e+02	-2.5283	-7.839511	0.000213	2.131119	0.722043	0.000086
1946	1.9353e+02	-2.4882	-7.762116	0.000193	1.928156	0.653277	0.000078
1947	1.9363e+02	-2.4545	-7.684314	0.000194	1.938304	0.656715	0.000078
1948	1.9373e+02	-2.3935	-7.602030	0.000205	2.049934	0.694536	0.000083
1949	1.9383e+02	-2.3630	-7.517303	0.000211	2.110823	0.715166	0.000085
1950	1.9393e+02	-2.3245	-7.436649	0.000201	2.009341	0.680783	0.000081
1951	1.9403e+02	-2.2812	-7.349071	0.000218	2.181860	0.739234	0.000088
1952	1.9412e+02	-2.2459	-7.272490	0.000191	1.907859	0.646400	0.000077
1953	1.9422e+02	-2.2154	-7.186541	0.000214	2.141267	0.725481	0.000086
1954	1.9432e+02	-2.1769	-7.101814	0.000211	2.110823	0.715166	0.000085
1955	1.9442e+02	-2.1304	-7.018716	0.000207	2.070230	0.701413	0.000084
1956	1.9452e+02	-2.0935	-6.935211	0.000208	2.080378	0.704851	0.000084
1957	1.9462e+02	-2.0486	-6.852520	0.000206	2.060082	0.697975	0.000083
1958	1.9472e+02	-2.0005	-6.766571	0.000214	2.141267	0.725481	0.000086
1959	1.9482e+02	-1.9443	-6.678585	0.000219	2.192008	0.742673	0.000088
1960	1.9492e+02	-1.9347	-6.594672	0.000209	2.090526	0.708290	0.000084
1961	1.9502e+02	-1.8721	-6.503835	0.000226	2.263046	0.766741	0.000091
1962	1.9512e+02	-1.8417	-6.417478	0.000215	2.151416	0.728919	0.000087
1963	1.9522e+02	-1.8128	-6.329900	0.000218	2.181860	0.739234	0.000088
1964	1.9532e+02	-1.7935	-6.237025	0.000231	2.313787	0.783932	0.000093
1965	1.9542e+02	-1.7294	-6.152298	0.000211	2.110823	0.715166	0.000085
1966	1.9552e+02	-1.6716	-6.065534	0.000216	2.161564	0.732358	0.000087
1967	1.9562e+02	-1.6443	-5.983658	0.000204	2.039786	0.691098	0.000082
1968	1.9572e+02	-1.5946	-5.889970	0.000233	2.334083	0.790809	0.000094
1969	1.9582e+02	-1.5561	-5.804428	0.000213	2.131119	0.722043	0.000086
1970	1.9592e+02	-1.5048	-5.715627	0.000221	2.212305	0.749549	0.000089
1971	1.9601e+02	-1.4807	-5.626012	0.000223	2.232601	0.756426	0.000090
1972	1.9611e+02	-1.4262	-5.533138	0.000231	2.313787	0.783932	0.000093
1973	1.9621e+02	-1.4181	-5.447188	0.000214	2.141267	0.725481	0.000086
1974	1.9631e+02	-1.3556	-5.356351	0.000226	2.263046	0.766741	0.000091
1975	1.9641e+02	-1.3427	-5.266736	0.000223	2.232601	0.756426	0.000090
1976	1.9651e+02	-1.2770	-5.173454	0.000232	2.323935	0.787370	0.000094
1977	1.9661e+02	-1.2641	-5.086283	0.000217	2.171712	0.735796	0.000088
1978	1.9671e+02	-1.2064	-5.000333	0.000214	2.141267	0.725481	0.000086
1979	1.9681e+02	-1.1518	-4.910311	0.000224	2.242749	0.759864	0.000090
1980	1.9691e+02	-1.1214	-4.821510	0.000221	2.212305	0.749549	0.000089
1981	1.9701e+02	-1.0957	-4.731080	0.000225	2.252897	0.763302	0.000091
1982	1.9711e+02	-1.0476	-4.640650	0.000225	2.252897	0.763302	0.000091
1983	1.9721e+02	-0.9946	-4.557552	0.000207	2.070230	0.701413	0.000084
1984	1.9731e+02	-0.9994	-4.462641	-0.000236	-2.364528	-0.801124	0.000095
1985	1.9741e+02	-0.9240	-4.374248	0.000220	2.202157	0.746111	0.000089
1986	1.9751e+02	-0.9080	-4.285040	0.000222	2.222453	0.752987	0.000090
1987	1.9761e+02	-0.8567	-4.189314	0.000238	2.384824	0.808000	0.000096
1988	1.9771e+02	-0.8133	-4.109475	0.000199	1.989045	0.673907	0.000080
1989	1.9781e+02	-0.7492	-4.010084	0.000248	2.476158	0.838945	0.000100
1990	1.9791e+02	-0.7251	-3.922098	0.000219	2.192008	0.742673	0.000088
1991	1.9800e+02	-0.6850	-3.828409	0.000233	2.334083	0.790809	0.000094
1992	1.9810e+02	-0.6481	-3.744089	0.000210	2.100675	0.711728	0.000085
1993	1.9820e+02	-0.5968	-3.649993	0.000234	2.344231	0.794247	0.000095
1994	1.9830e+02	-0.5759	-3.561192	0.000221	2.212305	0.749549	0.000089
1995	1.9840e+02	-0.5294	-3.469948	0.000227	2.273194	0.770179	0.000092
1996	1.9850e+02	-0.5134	-3.377073	0.000231	2.313787	0.783932	0.000093
1997	1.9860e+02	-0.4716	-3.285829	0.000227	2.273194	0.770179	0.000092
1998	1.9870e+02	-0.4283	-3.199472	0.000215	2.151416	0.728919	0.000087
1999	1.9880e+02	-0.3706	-3.098858	0.000251	2.506602	0.849260	0.000101
2000	1.9890e+02	-0.3128	-3.013724	0.000212	2.120971	0.718604	0.000086
2001	1.9900e+02	-0.3000	-2.921257	0.000230	2.303638	0.780494	0.000093
2002	1.9910e+02	-0.2438	-2.827161	0.000234	2.344231	0.794247	0.000095
2003	1.9920e+02	-0.1829	-2.733065	0.000234	2.344231	0.794247	0.000095
2004	1.9930e+02	-0.1460	-2.638154	0.000236	2.364528	0.801124	0.000095
2005	1.9940e+02	-0.1476	-2.549761	-0.000220	-2.202157	-0.746111	0.000089
2006	1.9950e+02	-0.0914	-2.453628	0.000239	2.394972	0.811439	0.000097
2007	1.9960e+02	-0.0594	-2.357902	0.000238	2.384824	0.808000	0.000096
2008	1.9970e+02	-0.0032	-2.262992	0.000236	2.364528	0.801124	0.000095
2009	1.9980e+02	0.0080	-2.170932	0.000236	2.364528	0.801124	0.000093

Center data before PMax,+/-Pr and +/-Vc Calc.

PMax (uC/cm2):	3.30e+01
Pr (uC/cm2):	6.78e-01
-Pr (uC/cm2):	-2.17e+00
PLoss (uC/cm2):	-8.40e-01
Vc:	6.34e-01
-Vc:	-2.97e-01
C (Max-Eff) (nF):	1.65e-01
K (Eff):	5.59e+02
Vert. (+/-Pr) Shift (uC/cm2):	-7.47e-01
Horiz. Shift (+/-Vc):	1.68e-01
Offset (uC/cm2):	1.34e+00

A (Loop Area - uC/cm2·Volts):	-2.34e-02



Hysteresis Version: 5.48.1 - Radiant Technologies, Inc., 1999 - 9/12/24

