»»»»»»»»»»»»»»»»»»»»»»»»»»»»»»»»»»»» Hysteresis ««««««««««««««««««««««««««««««««««««
»»»  Executed Version:	5.48.1
»»»  Vision Version:	5.48.4 (R)
»»»  Vision Compiled:	9/18/24
»»»  Driver Version:	5.47.0
»»»  Windows Version:	Windows 8 or 8.1
»»»  Processor Information:	x86 (AMD or Intel) - 32 Processors
»»»  Tester Name:	PMF21124-494 (100V)
»»»  Tester S/N:	PMF21124-494
»»»  Internal Amp Type:	100V RevK 270k
»»»  Internal Amp S/N:	iAB2-596/K     
»»»  Execution Count:	1
»»»»»»»»»»»»»»»»»»»»»»»»»»»»»»»»»»»»»»»»»»««««««««««««««««««««««««««««««««««««««««««

Stored:	6/12/2025 - 12:25:31
Configured:	06/12/25 10:06:17 AM
Executed:	06/12/25 12:25:07 PM

»»»»»»»»»»»»»»»»»»»»»»»»»»»»»»»»»»» Sample Info ««««««««««««««««««««««««««««««««««««
Sample Name:	
Lot Name:	
Wafer Name:	
Die Row/Column:	0/0
Capacitor Number:	0
Sample Area (cm2):	1.00e-04
Sample Thickness (microns):	3.00e-01

Amplifier:	Internal

»»»»»»»»»»»»»»»»»»»»»»»»»»»»»»»»»»» Tester Info «««««««««««««««««««««««««««««««««««
Tester Name:	PMF21124-494 (100V)
Tester Serial Number:	PMF21124-494
Return Signal Amp. Level:	1.79 [Index: 2]

»»»»»»»»»»»»»»»»»»»»»»»»»»»»»»»» Hysteresis Info ««««««««««««««««««««««««««««««««««
Task Name:	Hyst-1390
Volts:	20.00
Field:	666.67 (kV/cm)
DCBias:	0.00
DCField:	0.00 (kV/cm)
Hysteresis Period (ms):	1.00e+00
Preset:	Enabled
Preset Delay (ms):	1.00e+03
Profile:	Standard Bipolar

»»»»»»»»»»»»»»»»»»»»»»»»»»»»»»»»»»»»»» Data «««««««««««««««««««««««««««««««««««««««
Points:	2001

Valid Data

Point	Time (ms)	Drive Voltage	Measured Polarization (uC/cm2)	Capacitance (uF)	Normalized Capacitance (uF/cm2)	Dielectric Constant	Instantaneous Current (mA)
   1	0.0000e+00	0.0594	-0.558051	-0.000083	-0.833842	-0.282513	0.006756
   2	5.0000e-04	0.0578	-0.524269	-0.000083	-0.833842	-0.282513	0.006756
   3	1.0000e-03	0.1492	-0.514433	0.000024	0.242764	0.082251	0.001967
   4	1.5000e-03	0.1893	-0.462691	0.000128	1.277151	0.432710	0.010349
   5	2.0000e-03	0.2118	-0.410093	0.000130	1.298261	0.439863	0.010520
   6	2.5000e-03	0.2294	-0.356212	0.000133	1.329926	0.450591	0.010776
   7	3.0000e-03	0.2872	-0.287792	0.000169	1.688795	0.572179	0.013684
   8	3.5000e-03	0.3016	-0.233483	0.000134	1.340481	0.454167	0.010862
   9	4.0000e-03	0.3995	-0.200984	0.000080	0.802178	0.271785	0.006500
  10	4.5000e-03	0.3930	-0.136412	-0.000159	-1.593800	-0.539994	0.012914
  11	5.0000e-03	0.4620	-0.091512	0.000111	1.108272	0.375493	0.008980
  12	5.5000e-03	0.4620	-0.036348	-0.000136	-1.361591	-0.461319	0.011033
  13	6.0000e-03	0.5118	0.029934	0.000164	1.636020	0.554299	0.013256
  14	6.5000e-03	0.5631	0.079538	0.000122	1.224376	0.414830	0.009921
  15	7.0000e-03	0.5984	0.137695	0.000144	1.435476	0.486352	0.011631
  16	7.5000e-03	0.6417	0.190721	0.000131	1.308816	0.443439	0.010605
  17	8.0000e-03	0.6786	0.236477	0.000113	1.129382	0.382645	0.009151
  18	8.5000e-03	0.6914	0.301048	0.000159	1.593800	0.539994	0.012914
  19	9.0000e-03	0.7379	0.366047	0.000160	1.604355	0.543570	0.013000
  20	9.5000e-03	0.7909	0.408810	0.000106	1.055497	0.357612	0.008553
  21	1.0000e-02	0.8759	0.461835	0.000131	1.308816	0.443439	0.010605
  22	1.0500e-02	0.9032	0.515288	0.000132	1.319371	0.447015	0.010691
  23	1.1000e-02	0.9272	0.571735	0.000139	1.393256	0.472048	0.011289
  24	1.1500e-02	0.9674	0.628182	0.000139	1.393256	0.472048	0.011289
  25	1.2000e-02	1.0107	0.676503	0.000119	1.192711	0.404102	0.009664
  26	1.2500e-02	1.0411	0.739364	0.000155	1.551580	0.525690	0.012572
  27	1.3000e-02	1.0684	0.791107	0.000128	1.277151	0.432710	0.010349
  28	1.3500e-02	1.1165	0.850119	0.000146	1.456585	0.493505	0.011802
  29	1.4000e-02	1.1567	0.908704	0.000145	1.446031	0.489928	0.011717
  30	1.4500e-02	1.2353	0.948900	0.000099	0.992167	0.336155	0.008039
  31	1.5000e-02	1.2385	1.004919	0.000138	1.382701	0.468472	0.011204
  32	1.5500e-02	1.2689	1.067353	0.000154	1.541025	0.522113	0.012487
  33	1.6000e-02	1.3139	1.122944	0.000137	1.372146	0.464896	0.011118
  34	1.6500e-02	1.3748	1.151595	0.000071	0.707183	0.239600	0.005730
  35	1.7000e-02	1.4149	1.223436	0.000177	1.773235	0.600788	0.014368
  36	1.7500e-02	1.4422	1.290573	0.000166	1.657130	0.561451	0.013427
  37	1.8000e-02	1.4647	1.341460	0.000126	1.256041	0.425558	0.010177
  38	1.8500e-02	1.5593	1.381230	0.000098	0.981612	0.332579	0.007954
  39	1.9000e-02	1.5641	1.441952	0.000150	1.498805	0.507809	0.012145
  40	1.9500e-02	1.5962	1.489846	0.000118	1.182156	0.400525	0.009579
  41	2.0000e-02	1.6363	1.549714	0.000148	1.477695	0.500657	0.011974
  42	2.0500e-02	1.6636	1.610009	0.000149	1.488250	0.504233	0.012059
  43	2.1000e-02	1.7246	1.662607	0.000130	1.298261	0.439863	0.010520
  44	2.1500e-02	1.7550	1.711784	0.000121	1.213821	0.411254	0.009835
  45	2.2000e-02	1.8144	1.765665	0.000133	1.329926	0.450591	0.010776
  46	2.2500e-02	1.8561	1.809283	0.000108	1.076607	0.364764	0.008724
  47	2.3000e-02	1.8946	1.868722	0.000147	1.467140	0.497081	0.011888
  48	2.3500e-02	1.9331	1.932866	0.000158	1.583245	0.536418	0.012829
  49	2.4000e-02	1.9892	1.974346	0.000102	1.023832	0.346884	0.008296
  50	2.4500e-02	2.0165	2.041483	0.000166	1.657130	0.561451	0.013427
  51	2.5000e-02	2.0486	2.082535	0.000101	1.013277	0.343307	0.008210
  52	2.5500e-02	2.0951	2.142403	0.000148	1.477695	0.500657	0.011974
  53	2.6000e-02	2.1352	2.199704	0.000141	1.414366	0.479200	0.011460
  54	2.6500e-02	2.1593	2.246743	0.000116	1.161046	0.393373	0.009408
  55	2.7000e-02	2.1946	2.305328	0.000145	1.446031	0.489928	0.011717
  56	2.7500e-02	2.2395	2.354505	0.000121	1.213821	0.411254	0.009835
  57	2.8000e-02	2.2876	2.419076	0.000159	1.593800	0.539994	0.012914
  58	2.8500e-02	2.3005	2.463122	0.000109	1.087162	0.368340	0.008809
  59	2.9000e-02	2.3614	2.518713	0.000137	1.372146	0.464896	0.011118
  60	2.9500e-02	2.4256	2.563614	0.000111	1.108272	0.375493	0.008980
  61	3.0000e-02	2.4497	2.627757	0.000158	1.583245	0.536418	0.012829
  62	3.0500e-02	2.4994	2.672658	0.000111	1.108272	0.375493	0.008980
  63	3.1000e-02	2.5411	2.718841	0.000114	1.139936	0.386221	0.009237
  64	3.1500e-02	2.5716	2.778709	0.000148	1.477695	0.500657	0.011974
  65	3.2000e-02	2.6165	2.833445	0.000135	1.351036	0.457743	0.010947
  66	3.2500e-02	2.6422	2.882622	0.000121	1.213821	0.411254	0.009835
  67	3.3000e-02	2.6678	2.937358	0.000135	1.351036	0.457743	0.010947
  68	3.3500e-02	2.7063	2.998936	0.000152	1.519915	0.514961	0.012316
  69	3.4000e-02	2.7625	3.038705	0.000098	0.981612	0.332579	0.007954
  70	3.4500e-02	2.7833	3.096435	0.000142	1.424921	0.482776	0.011546
  71	3.5000e-02	2.8411	3.149033	0.000130	1.298261	0.439863	0.010520
  72	3.5500e-02	2.8972	3.206334	0.000141	1.414366	0.479200	0.011460
  73	3.6000e-02	2.9422	3.245676	0.000097	0.971057	0.329003	0.007868
  74	3.6500e-02	2.9759	3.300839	0.000136	1.361591	0.461319	0.011033
  75	3.7000e-02	3.0095	3.351299	0.000125	1.245486	0.421982	0.010092
  76	3.7500e-02	3.0416	3.410739	0.000147	1.467140	0.497081	0.011888
  77	3.8000e-02	3.0609	3.463765	0.000131	1.308816	0.443439	0.010605
  78	3.8500e-02	3.1379	3.506527	0.000106	1.055497	0.357612	0.008553
  79	3.9000e-02	3.1603	3.558698	0.000129	1.287706	0.436287	0.010434
  80	3.9500e-02	3.1956	3.617282	0.000145	1.446031	0.489928	0.011717
  81	4.0000e-02	3.2550	3.668170	0.000126	1.256041	0.425558	0.010177
  82	4.0500e-02	3.3031	3.713926	0.000113	1.129382	0.382645	0.009151
  83	4.1000e-02	3.3176	3.770800	0.000140	1.403811	0.475624	0.011375
  84	4.1500e-02	3.3785	3.815273	0.000110	1.097717	0.371916	0.008895
  85	4.2000e-02	3.4074	3.872147	0.000140	1.403811	0.475624	0.011375
  86	4.2500e-02	3.4539	3.915765	0.000108	1.076607	0.364764	0.008724
  87	4.3000e-02	3.4475	3.983329	-0.000167	-1.667685	-0.565027	0.013513
  88	4.3500e-02	3.5662	4.009415	0.000064	0.643853	0.218143	0.005217
  89	4.4000e-02	3.5678	4.076124	0.000165	1.646575	0.557875	0.013342
  90	4.4500e-02	3.5967	4.126584	0.000125	1.245486	0.421982	0.010092
  91	4.5000e-02	3.6352	4.183030	0.000139	1.393256	0.472048	0.011289
  92	4.5500e-02	3.6721	4.233918	0.000126	1.256041	0.425558	0.010177
  93	4.6000e-02	3.7330	4.280101	0.000114	1.139936	0.386221	0.009237
  94	4.6500e-02	3.7860	4.321153	0.000101	1.013277	0.343307	0.008210
  95	4.7000e-02	3.7972	4.378883	0.000142	1.424921	0.482776	0.011546
  96	4.7500e-02	3.8341	4.430198	0.000127	1.266596	0.429134	0.010263
  97	4.8000e-02	3.8726	4.491348	0.000151	1.509360	0.511385	0.012230
  98	4.8500e-02	3.9240	4.532400	0.000101	1.013277	0.343307	0.008210
  99	4.9000e-02	3.9576	4.587992	0.000137	1.372146	0.464896	0.011118
 100	4.9500e-02	3.9994	4.639307	0.000127	1.266596	0.429134	0.010263
 101	5.0000e-02	4.0619	4.690194	0.000126	1.256041	0.425558	0.010177
 102	5.0500e-02	4.0667	4.730818	0.000100	1.002722	0.339731	0.008125
 103	5.1000e-02	4.1197	4.765884	0.000087	0.865507	0.293242	0.007013
 104	5.1500e-02	4.1598	4.826606	0.000150	1.498805	0.507809	0.012145
 105	5.2000e-02	4.2031	4.883908	0.000141	1.414366	0.479200	0.011460
 106	5.2500e-02	4.2753	4.936506	0.000130	1.298261	0.439863	0.010520
 107	5.3000e-02	4.2769	4.985683	0.000121	1.213821	0.411254	0.009835
 108	5.3500e-02	4.3186	5.041702	0.000138	1.382701	0.468472	0.011204
 109	5.4000e-02	4.3443	5.086175	0.000110	1.097717	0.371916	0.008895
 110	5.4500e-02	4.4036	5.137918	0.000128	1.277151	0.432710	0.010349
 111	5.5000e-02	4.4806	5.181108	0.000107	1.066052	0.361188	0.008638
 112	5.5500e-02	4.4854	5.231568	0.000125	1.245486	0.421982	0.010092
 113	5.6000e-02	4.5095	5.287587	0.000138	1.382701	0.468472	0.011204
 114	5.6500e-02	4.6074	5.322224	0.000085	0.854952	0.289666	0.006928
 115	5.7000e-02	4.6122	5.379526	0.000141	1.414366	0.479200	0.011460
 116	5.7500e-02	4.6346	5.432979	0.000132	1.319371	0.447015	0.010691
 117	5.8000e-02	4.6812	5.481728	0.000120	1.203266	0.407678	0.009750
 118	5.8500e-02	4.6828	5.545017	0.000156	1.562135	0.529266	0.012658
 119	5.9000e-02	4.7533	5.585214	0.000099	0.992167	0.336155	0.008039
 120	5.9500e-02	4.7999	5.627121	0.000103	1.034387	0.350460	0.008381
 121	6.0000e-02	4.8400	5.687416	0.000149	1.488250	0.504233	0.012059
 122	6.0500e-02	4.8881	5.729751	0.000104	1.044942	0.354036	0.008467
 123	6.1000e-02	4.9202	5.783632	0.000133	1.329926	0.450591	0.010776
 124	6.1500e-02	4.9827	5.817414	0.000083	0.833842	0.282513	0.006756
 125	6.2000e-02	4.9988	5.876854	0.000147	1.467140	0.497081	0.011888
 126	6.2500e-02	5.0405	5.934584	0.000142	1.424921	0.482776	0.011546
 127	6.3000e-02	5.1063	5.976063	0.000102	1.023832	0.346884	0.008296
 128	6.3500e-02	5.1287	6.023530	0.000117	1.171601	0.396949	0.009493
 129	6.4000e-02	5.1737	6.075700	0.000129	1.287706	0.436287	0.010434
 130	6.4500e-02	5.1961	6.124877	0.000121	1.213821	0.411254	0.009835
 131	6.5000e-02	5.2202	6.177047	0.000129	1.287706	0.436287	0.010434
 132	6.5500e-02	5.2699	6.227507	0.000125	1.245486	0.421982	0.010092
 133	6.6000e-02	5.3341	6.268131	0.000100	1.002722	0.339731	0.008125
 134	6.6500e-02	5.3806	6.318163	0.000123	1.234931	0.418406	0.010006
 135	6.7000e-02	5.3886	6.372472	0.000134	1.340481	0.454167	0.010862
 136	6.7500e-02	5.4640	6.417800	0.000112	1.118827	0.379069	0.009066
 137	6.8000e-02	5.4833	6.464839	0.000116	1.161046	0.393373	0.009408
 138	6.8500e-02	5.5282	6.506746	0.000103	1.034387	0.350460	0.008381
 139	6.9000e-02	5.5667	6.562765	0.000138	1.382701	0.468472	0.011204
 140	6.9500e-02	5.6036	6.611514	0.000120	1.203266	0.407678	0.009750
 141	7.0000e-02	5.6357	6.659836	0.000119	1.192711	0.404102	0.009664
 142	7.0500e-02	5.6629	6.704737	0.000111	1.108272	0.375493	0.008980
 143	7.1000e-02	5.7127	6.762894	0.000144	1.435476	0.486352	0.011631
 144	7.1500e-02	5.7560	6.809505	0.000115	1.150491	0.389797	0.009322
 145	7.2000e-02	5.7961	6.844570	0.000087	0.865507	0.293242	0.007013
 146	7.2500e-02	5.8442	6.900589	0.000138	1.382701	0.468472	0.011204
 147	7.3000e-02	5.8859	6.950194	0.000122	1.224376	0.414830	0.009921
 148	7.3500e-02	5.9308	6.999798	0.000122	1.224376	0.414830	0.009921
 149	7.4000e-02	5.9774	7.036146	0.000090	0.897172	0.303970	0.007270
 150	7.4500e-02	5.9870	7.102428	0.000164	1.636020	0.554299	0.013256
 151	7.5000e-02	6.0399	7.144335	0.000103	1.034387	0.350460	0.008381
 152	7.5500e-02	6.0993	7.192657	0.000119	1.192711	0.404102	0.009664
 153	7.6000e-02	6.1266	7.237985	0.000112	1.118827	0.379069	0.009066
 154	7.6500e-02	6.1859	7.277755	0.000098	0.981612	0.332579	0.007954
 155	7.7000e-02	6.1811	7.334629	-0.000140	-1.403811	-0.475624	0.011375
 156	7.7500e-02	6.2645	7.377819	0.000107	1.066052	0.361188	0.008638
 157	7.8000e-02	6.2822	7.422720	0.000111	1.108272	0.375493	0.008980
 158	7.8500e-02	6.3239	7.479594	0.000140	1.403811	0.475624	0.011375
 159	7.9000e-02	6.3816	7.521073	0.000102	1.023832	0.346884	0.008296
 160	7.9500e-02	6.4266	7.569823	0.000120	1.203266	0.407678	0.009750
 161	8.0000e-02	6.4538	7.618144	0.000119	1.192711	0.404102	0.009664
 162	8.0500e-02	6.4618	7.672453	0.000134	1.340481	0.454167	0.010862
 163	8.1000e-02	6.5244	7.726333	0.000133	1.329926	0.450591	0.010776
 164	8.1500e-02	6.5758	7.755412	0.000072	0.717738	0.243176	0.005816
 165	8.2000e-02	6.5998	7.795181	0.000098	0.981612	0.332579	0.007954
 166	8.2500e-02	6.6271	7.851200	0.000138	1.382701	0.468472	0.011204
 167	8.3000e-02	6.6993	7.893963	0.000106	1.055497	0.357612	0.008553
 168	8.3500e-02	6.7282	7.941857	0.000118	1.182156	0.400525	0.009579
 169	8.4000e-02	6.7923	7.976067	0.000084	0.844397	0.286090	0.006842
 170	8.4500e-02	6.8116	8.037645	0.000152	1.519915	0.514961	0.012316
 171	8.5000e-02	6.8549	8.073565	0.000089	0.886617	0.300394	0.007184
 172	8.5500e-02	6.8966	8.140702	0.000166	1.657130	0.561451	0.013427
 173	8.6000e-02	6.8998	8.186031	0.000112	1.118827	0.379069	0.009066
 174	8.6500e-02	6.9832	8.229648	0.000108	1.076607	0.364764	0.008724
 175	8.7000e-02	6.9993	8.270273	0.000100	1.002722	0.339731	0.008125
 176	8.7500e-02	7.0506	8.320305	0.000123	1.234931	0.418406	0.010006
 177	8.8000e-02	7.0650	8.361357	0.000101	1.013277	0.343307	0.008210
 178	8.8500e-02	7.0987	8.411817	0.000125	1.245486	0.421982	0.010092
 179	8.9000e-02	7.1902	8.456717	0.000111	1.108272	0.375493	0.008980
 180	8.9500e-02	7.1966	8.498197	0.000102	1.023832	0.346884	0.008296
 181	9.0000e-02	7.2543	8.550367	0.000129	1.287706	0.436287	0.010434
 182	9.0500e-02	7.2864	8.600827	0.000125	1.245486	0.421982	0.010092
 183	9.1000e-02	7.3201	8.647438	0.000115	1.150491	0.389797	0.009322
 184	9.1500e-02	7.3650	8.686780	0.000097	0.971057	0.329003	0.007868
 185	9.2000e-02	7.3987	8.741943	0.000136	1.361591	0.461319	0.011033
 186	9.2500e-02	7.4645	8.781285	0.000097	0.971057	0.329003	0.007868
 187	9.3000e-02	7.4918	8.837732	0.000139	1.393256	0.472048	0.011289
 188	9.3500e-02	7.5110	8.879639	0.000103	1.034387	0.350460	0.008381
 189	9.4000e-02	7.5800	8.917270	0.000093	0.928837	0.314699	0.007526
 190	9.4500e-02	7.6073	8.967730	0.000125	1.245486	0.421982	0.010092
 191	9.5000e-02	7.6570	9.010492	0.000106	1.055497	0.357612	0.008553
 192	9.5500e-02	7.6891	9.066083	0.000137	1.372146	0.464896	0.011118
 193	9.6000e-02	7.7180	9.109701	0.000108	1.076607	0.364764	0.008724
 194	9.6500e-02	7.7452	9.157595	0.000118	1.182156	0.400525	0.009579
 195	9.7000e-02	7.8142	9.200358	0.000106	1.055497	0.357612	0.008553
 196	9.7500e-02	7.8527	9.249107	0.000120	1.203266	0.407678	0.009750
 197	9.8000e-02	7.8928	9.288449	0.000097	0.971057	0.329003	0.007868
 198	9.8500e-02	7.9233	9.337625	0.000121	1.213821	0.411254	0.009835
 199	9.9000e-02	7.9730	9.377822	0.000099	0.992167	0.336155	0.008039
 200	9.9500e-02	8.0067	9.427427	0.000122	1.224376	0.414830	0.009921
 201	1.0000e-01	8.0196	9.465058	0.000093	0.928837	0.314699	0.007526
 202	1.0050e-01	8.0885	9.519794	0.000135	1.351036	0.457743	0.010947
 203	1.0100e-01	8.1078	9.575385	0.000137	1.372146	0.464896	0.011118
 204	1.0150e-01	8.1463	9.617292	0.000103	1.034387	0.350460	0.008381
 205	1.0200e-01	8.2089	9.659627	0.000104	1.044942	0.354036	0.008467
 206	1.0250e-01	8.2458	9.698969	0.000097	0.971057	0.329003	0.007868
 207	1.0300e-01	8.2827	9.743870	0.000111	1.108272	0.375493	0.008980
 208	1.0350e-01	8.3099	9.793902	0.000123	1.234931	0.418406	0.010006
 209	1.0400e-01	8.3436	9.843934	0.000123	1.234931	0.418406	0.010006
 210	1.0450e-01	8.3837	9.890545	0.000115	1.150491	0.389797	0.009322
 211	1.0500e-01	8.4399	9.925183	0.000085	0.854952	0.289666	0.006928
 212	1.0550e-01	8.4864	9.967518	0.000104	1.044942	0.354036	0.008467
 213	1.0600e-01	8.5072	10.027813	0.000149	1.488250	0.504233	0.012059
 214	1.0650e-01	8.5971	10.056464	0.000071	0.707183	0.239600	0.005730
 215	1.0700e-01	8.5923	10.103930	-0.000117	-1.171601	-0.396949	0.009493
 216	1.0750e-01	8.6452	10.152679	0.000120	1.203266	0.407678	0.009750
 217	1.0800e-01	8.6821	10.198435	0.000113	1.129382	0.382645	0.009151
 218	1.0850e-01	8.7062	10.242053	0.000108	1.076607	0.364764	0.008724
 219	1.0900e-01	8.7623	10.287381	0.000112	1.118827	0.379069	0.009066
 220	1.0950e-01	8.7944	10.336558	0.000121	1.213821	0.411254	0.009835
 221	1.1000e-01	8.8554	10.381031	0.000110	1.097717	0.371916	0.008895
 222	1.1050e-01	8.8858	10.412248	0.000077	0.770513	0.261057	0.006243
 223	1.1100e-01	8.9420	10.465701	0.000132	1.319371	0.447015	0.010691
 224	1.1150e-01	8.9789	10.512740	0.000116	1.161046	0.393373	0.009408
 225	1.1200e-01	9.0078	10.558068	0.000112	1.118827	0.379069	0.009066
 226	1.1250e-01	9.0431	10.599975	0.000103	1.034387	0.350460	0.008381
 227	1.1300e-01	9.0928	10.641455	0.000102	1.023832	0.346884	0.008296
 228	1.1350e-01	9.1120	10.694908	0.000132	1.319371	0.447015	0.010691
 229	1.1400e-01	9.1457	10.743230	0.000119	1.192711	0.404102	0.009664
 230	1.1450e-01	9.2259	10.772736	0.000073	0.728293	0.246752	0.005901
 231	1.1500e-01	9.2468	10.827900	0.000136	1.361591	0.461319	0.011033
 232	1.1550e-01	9.2949	10.875794	0.000118	1.182156	0.400525	0.009579
 233	1.1600e-01	9.3238	10.911287	0.000088	0.876062	0.296818	0.007099
 234	1.1650e-01	9.3543	10.957898	0.000115	1.150491	0.389797	0.009322
 235	1.1700e-01	9.3864	10.994246	0.000090	0.897172	0.303970	0.007270
 236	1.1750e-01	9.4537	11.042567	0.000119	1.192711	0.404102	0.009664
 237	1.1800e-01	9.4714	11.094310	0.000128	1.277151	0.432710	0.010349
 238	1.1850e-01	9.5195	11.136645	0.000104	1.044942	0.354036	0.008467
 239	1.1900e-01	9.5660	11.178125	0.000102	1.023832	0.346884	0.008296
 240	1.1950e-01	9.6174	11.220460	0.000104	1.044942	0.354036	0.008467
 241	1.2000e-01	9.6414	11.268781	0.000119	1.192711	0.404102	0.009664
 242	1.2050e-01	9.6799	11.316675	0.000118	1.182156	0.400525	0.009579
 243	1.2100e-01	9.7217	11.350030	0.000082	0.823287	0.278937	0.006671
 244	1.2150e-01	9.7618	11.405194	0.000136	1.361591	0.461319	0.011033
 245	1.2200e-01	9.7970	11.443680	0.000095	0.949947	0.321851	0.007697
 246	1.2250e-01	9.8676	11.478318	0.000085	0.854952	0.289666	0.006928
 247	1.2300e-01	9.8981	11.524929	0.000115	1.150491	0.389797	0.009322
 248	1.2350e-01	9.9222	11.566836	0.000103	1.034387	0.350460	0.008381
 249	1.2400e-01	9.9462	11.623283	0.000139	1.393256	0.472048	0.011289
 250	1.2450e-01	10.0216	11.660486	0.000092	0.918282	0.311122	0.007441
 251	1.2500e-01	10.0489	11.696834	0.000090	0.897172	0.303970	0.007270
 252	1.2550e-01	10.0970	11.743018	0.000114	1.139936	0.386221	0.009237
 253	1.2600e-01	10.1371	11.784925	0.000103	1.034387	0.350460	0.008381
 254	1.2650e-01	10.1644	11.844792	0.000148	1.477695	0.500657	0.011974
 255	1.2700e-01	10.2238	11.871305	0.000065	0.654408	0.221719	0.005303
 256	1.2750e-01	10.2382	11.918772	0.000117	1.171601	0.396949	0.009493
 257	1.2800e-01	10.2671	11.974363	0.000137	1.372146	0.464896	0.011118
 258	1.2850e-01	10.3409	11.998738	0.000060	0.601633	0.203839	0.004875
 259	1.2900e-01	10.3826	12.043211	0.000110	1.097717	0.371916	0.008895
 260	1.2950e-01	10.4002	12.094953	0.000128	1.277151	0.432710	0.010349
 261	1.3000e-01	10.4500	12.135578	0.000100	1.002722	0.339731	0.008125
 262	1.3050e-01	10.4885	12.182616	0.000116	1.161046	0.393373	0.009408
 263	1.3100e-01	10.5190	12.223668	0.000101	1.013277	0.343307	0.008210
 264	1.3150e-01	10.5639	12.267286	0.000108	1.076607	0.364764	0.008724
 265	1.3200e-01	10.5944	12.303207	0.000089	0.886617	0.300394	0.007184
 266	1.3250e-01	10.6345	12.349818	0.000115	1.150491	0.389797	0.009322
 267	1.3300e-01	10.6681	12.400278	0.000125	1.245486	0.421982	0.010092
 268	1.3350e-01	10.7307	12.431494	0.000077	0.770513	0.261057	0.006243
 269	1.3400e-01	10.7580	12.481527	0.000123	1.234931	0.418406	0.010006
 270	1.3450e-01	10.8045	12.535407	0.000133	1.329926	0.450591	0.010776
 271	1.3500e-01	10.8623	12.561920	0.000065	0.654408	0.221719	0.005303
 272	1.3550e-01	10.8687	12.610669	0.000120	1.203266	0.407678	0.009750
 273	1.3600e-01	10.9136	12.651721	0.000101	1.013277	0.343307	0.008210
 274	1.3650e-01	10.9665	12.697050	0.000112	1.118827	0.379069	0.009066
 275	1.3700e-01	11.0018	12.732543	0.000088	0.876062	0.296818	0.007099
 276	1.3750e-01	11.0580	12.773595	0.000101	1.013277	0.343307	0.008210
 277	1.3800e-01	11.0740	12.829613	0.000138	1.382701	0.468472	0.011204
 278	1.3850e-01	11.1414	12.857409	0.000069	0.686073	0.232448	0.005559
 279	1.3900e-01	11.1767	12.895468	0.000094	0.939392	0.318275	0.007612
 280	1.3950e-01	11.2104	12.941651	0.000114	1.139936	0.386221	0.009237
 281	1.4000e-01	11.2425	12.989545	0.000118	1.182156	0.400525	0.009579
 282	1.4050e-01	11.2778	13.035729	0.000114	1.139936	0.386221	0.009237
 283	1.4100e-01	11.3403	13.067801	0.000079	0.791623	0.268209	0.006414
 284	1.4150e-01	11.3451	13.125103	0.000141	1.414366	0.479200	0.011460
 285	1.4200e-01	11.3949	13.164872	0.000098	0.981612	0.332579	0.007954
 286	1.4250e-01	11.4751	13.189674	0.000061	0.612188	0.207415	0.004960
 287	1.4300e-01	11.4895	13.244838	0.000136	1.361591	0.461319	0.011033
 288	1.4350e-01	11.4927	13.290594	0.000113	1.129382	0.382645	0.009151
 289	1.4400e-01	11.5826	13.320100	0.000073	0.728293	0.246752	0.005901
 290	1.4450e-01	11.5665	13.378684	-0.000145	-1.446031	-0.489928	0.011717
 291	1.4500e-01	11.6531	13.416315	0.000093	0.928837	0.314699	0.007526
 292	1.4550e-01	11.6612	13.450098	0.000083	0.833842	0.282513	0.006756
 293	1.4600e-01	11.7125	13.494143	0.000109	1.087162	0.368340	0.008809
 294	1.4650e-01	11.7542	13.536478	0.000104	1.044942	0.354036	0.008467
 295	1.4700e-01	11.8007	13.581379	0.000111	1.108272	0.375493	0.008980
 296	1.4750e-01	11.8457	13.620293	0.000096	0.960502	0.325427	0.007783
 297	1.4800e-01	11.8826	13.654075	0.000083	0.833842	0.282513	0.006756
 298	1.4850e-01	11.9259	13.697265	0.000107	1.066052	0.361188	0.008638
 299	1.4900e-01	11.9499	13.741311	0.000109	1.087162	0.368340	0.008809
 300	1.4950e-01	11.9948	13.788777	0.000117	1.171601	0.396949	0.009493
 301	1.5000e-01	12.0478	13.823842	0.000087	0.865507	0.293242	0.007013
 302	1.5050e-01	12.1023	13.864467	0.000100	1.002722	0.339731	0.008125
 303	1.5100e-01	12.1087	13.909795	0.000112	1.118827	0.379069	0.009066
 304	1.5150e-01	12.1440	13.956406	0.000115	1.150491	0.389797	0.009322
 305	1.5200e-01	12.1890	13.994037	0.000093	0.928837	0.314699	0.007526
 306	1.5250e-01	12.2387	14.026537	0.000080	0.802178	0.271785	0.006500
 307	1.5300e-01	12.2644	14.078707	0.000129	1.287706	0.436287	0.010434
 308	1.5350e-01	12.2948	14.105647	0.000066	0.664963	0.225296	0.005388
 309	1.5400e-01	12.3414	14.169363	0.000157	1.572690	0.532842	0.012743
 310	1.5450e-01	12.4280	14.198442	0.000072	0.717738	0.243176	0.005816
 311	1.5500e-01	12.4537	14.236928	0.000095	0.949947	0.321851	0.007697
 312	1.5550e-01	12.4729	14.280118	0.000107	1.066052	0.361188	0.008638
 313	1.5600e-01	12.5114	14.319032	0.000096	0.960502	0.325427	0.007783
 314	1.5650e-01	12.5627	14.360940	0.000103	1.034387	0.350460	0.008381
 315	1.5700e-01	12.5868	14.408406	0.000117	1.171601	0.396949	0.009493
 316	1.5750e-01	12.6381	14.440478	0.000079	0.791623	0.268209	0.006414
 317	1.5800e-01	12.6911	14.481530	0.000101	1.013277	0.343307	0.008210
 318	1.5850e-01	12.7071	14.524720	0.000107	1.066052	0.361188	0.008638
 319	1.5900e-01	12.7601	14.570048	0.000112	1.118827	0.379069	0.009066
 320	1.5950e-01	12.7922	14.604258	0.000084	0.844397	0.286090	0.006842
 321	1.6000e-01	12.8483	14.641462	0.000092	0.918282	0.311122	0.007441
 322	1.6050e-01	12.8948	14.678665	0.000092	0.918282	0.311122	0.007441
 323	1.6100e-01	12.9109	14.723138	0.000110	1.097717	0.371916	0.008895
 324	1.6150e-01	12.9413	14.787282	0.000158	1.583245	0.536418	0.012829
 325	1.6200e-01	12.9750	14.802677	0.000038	0.379979	0.128740	0.003079
 326	1.6250e-01	13.0424	14.845011	0.000104	1.044942	0.354036	0.008467
 327	1.6300e-01	13.0713	14.889912	0.000111	1.108272	0.375493	0.008980
 328	1.6350e-01	13.1403	14.918135	0.000070	0.696628	0.236024	0.005645
 329	1.6400e-01	13.1708	14.962181	0.000109	1.087162	0.368340	0.008809
 330	1.6450e-01	13.1996	15.004943	0.000106	1.055497	0.357612	0.008553
 331	1.6500e-01	13.2429	15.049416	0.000110	1.097717	0.371916	0.008895
 332	1.6550e-01	13.2766	15.086620	0.000092	0.918282	0.311122	0.007441
 333	1.6600e-01	13.3248	15.130237	0.000108	1.076607	0.364764	0.008724
 334	1.6650e-01	13.3857	15.159316	0.000072	0.717738	0.243176	0.005816
 335	1.6700e-01	13.4306	15.200796	0.000102	1.023832	0.346884	0.008296
 336	1.6750e-01	13.4483	15.240992	0.000099	0.992167	0.336155	0.008039
 337	1.6800e-01	13.4756	15.292307	0.000127	1.266596	0.429134	0.010263
 338	1.6850e-01	13.5317	15.319675	0.000068	0.675518	0.228872	0.005474
 339	1.6900e-01	13.5494	15.374411	0.000135	1.351036	0.457743	0.010947
 340	1.6950e-01	13.5943	15.405201	0.000076	0.759958	0.257481	0.006158
 341	1.7000e-01	13.6199	15.450956	0.000113	1.129382	0.382645	0.009151
 342	1.7050e-01	13.6953	15.479607	0.000071	0.707183	0.239600	0.005730
 343	1.7100e-01	13.7114	15.523653	0.000109	1.087162	0.368340	0.008809
 344	1.7150e-01	13.7435	15.571974	0.000119	1.192711	0.404102	0.009664
 345	1.7200e-01	13.8092	15.610888	0.000096	0.960502	0.325427	0.007783
 346	1.7250e-01	13.8734	15.641250	0.000075	0.749403	0.253905	0.006072
 347	1.7300e-01	13.8830	15.682729	0.000102	1.023832	0.346884	0.008296
 348	1.7350e-01	13.9167	15.718222	0.000088	0.876062	0.296818	0.007099
 349	1.7400e-01	13.9456	15.763978	0.000113	1.129382	0.382645	0.009151
 350	1.7450e-01	14.0017	15.802892	0.000096	0.960502	0.325427	0.007783
 351	1.7500e-01	14.0787	15.831971	0.000072	0.717738	0.243176	0.005816
 352	1.7550e-01	14.0755	15.883286	-0.000127	-1.266596	-0.429134	0.010263
 353	1.7600e-01	14.1317	15.926048	0.000106	1.055497	0.357612	0.008553
 354	1.7650e-01	14.1734	15.959831	0.000083	0.833842	0.282513	0.006756
 355	1.7700e-01	14.1959	15.999600	0.000098	0.981612	0.332579	0.007954
 356	1.7750e-01	14.2344	16.039369	0.000098	0.981612	0.332579	0.007954
 357	1.7800e-01	14.2761	16.074006	0.000085	0.854952	0.289666	0.006928
 358	1.7850e-01	14.3049	16.121900	0.000118	1.182156	0.400525	0.009579
 359	1.7900e-01	14.3739	16.149268	0.000068	0.675518	0.228872	0.005474
 360	1.7950e-01	14.4237	16.194169	0.000111	1.108272	0.375493	0.008980
 361	1.8000e-01	14.4461	16.228807	0.000085	0.854952	0.289666	0.006928
 362	1.8050e-01	14.4573	16.280122	0.000127	1.266596	0.429134	0.010263
 363	1.8100e-01	14.5151	16.316042	0.000089	0.886617	0.300394	0.007184
 364	1.8150e-01	14.5664	16.350252	0.000084	0.844397	0.286090	0.006842
 365	1.8200e-01	14.6001	16.393443	0.000107	1.066052	0.361188	0.008638
 366	1.8250e-01	14.6515	16.423376	0.000074	0.738848	0.250328	0.005987
 367	1.8300e-01	14.6643	16.472553	0.000121	1.213821	0.411254	0.009835
 368	1.8350e-01	14.7204	16.502915	0.000075	0.749403	0.253905	0.006072
 369	1.8400e-01	14.7638	16.545677	0.000106	1.055497	0.357612	0.008553
 370	1.8450e-01	14.8087	16.590578	0.000111	1.108272	0.375493	0.008980
 371	1.8500e-01	14.8231	16.628636	0.000094	0.939392	0.318275	0.007612
 372	1.8550e-01	14.8761	16.665412	0.000091	0.907727	0.307546	0.007355
 373	1.8600e-01	14.9258	16.701333	0.000089	0.886617	0.300394	0.007184
 374	1.8650e-01	14.9675	16.741957	0.000100	1.002722	0.339731	0.008125
 375	1.8700e-01	14.9867	16.782154	0.000099	0.992167	0.336155	0.008039
 376	1.8750e-01	15.0413	16.812088	0.000074	0.738848	0.250328	0.005987
 377	1.8800e-01	15.0942	16.850574	0.000095	0.949947	0.321851	0.007697
 378	1.8850e-01	15.1199	16.888205	0.000093	0.928837	0.314699	0.007526
 379	1.8900e-01	15.1536	16.927546	0.000097	0.971057	0.329003	0.007868
 380	1.8950e-01	15.2145	16.967743	0.000099	0.992167	0.336155	0.008039
 381	1.9000e-01	15.2546	16.996822	0.000072	0.717738	0.243176	0.005816
 382	1.9050e-01	15.3028	17.047282	0.000125	1.245486	0.421982	0.010092
 383	1.9100e-01	15.3092	17.081492	0.000084	0.844397	0.286090	0.006842
 384	1.9150e-01	15.3477	17.120405	0.000096	0.960502	0.325427	0.007783
 385	1.9200e-01	15.4071	17.158464	0.000094	0.939392	0.318275	0.007612
 386	1.9250e-01	15.4632	17.191819	0.000082	0.823287	0.278937	0.006671
 387	1.9300e-01	15.4632	17.238430	-0.000115	-1.150491	-0.389797	0.009322
 388	1.9350e-01	15.5033	17.277344	0.000096	0.960502	0.325427	0.007783
 389	1.9400e-01	15.5723	17.307705	0.000075	0.749403	0.253905	0.006072
 390	1.9450e-01	15.5964	17.343626	0.000089	0.886617	0.300394	0.007184
 391	1.9500e-01	15.6509	17.386816	0.000107	1.066052	0.361188	0.008638
 392	1.9550e-01	15.7006	17.416750	0.000074	0.738848	0.250328	0.005987
 393	1.9600e-01	15.7119	17.459940	0.000107	1.066052	0.361188	0.008638
 394	1.9650e-01	15.7295	17.512110	0.000129	1.287706	0.436287	0.010434
 395	1.9700e-01	15.8193	17.529643	0.000043	0.432754	0.146621	0.003507
 396	1.9750e-01	15.8466	17.577965	0.000119	1.192711	0.404102	0.009664
 397	1.9800e-01	15.8627	17.613457	0.000088	0.876062	0.296818	0.007099
 398	1.9850e-01	15.9188	17.653654	0.000099	0.992167	0.336155	0.008039
 399	1.9900e-01	15.9653	17.693423	0.000098	0.981612	0.332579	0.007954
 400	1.9950e-01	15.9862	17.724640	0.000077	0.770513	0.261057	0.006243
 401	2.0000e-01	16.0439	17.761416	0.000091	0.907727	0.307546	0.007355
 402	2.0050e-01	16.0664	17.806744	0.000112	1.118827	0.379069	0.009066
 403	2.0100e-01	16.1225	17.843092	0.000090	0.897172	0.303970	0.007270
 404	2.0150e-01	16.1739	17.867039	0.000059	0.591078	0.200263	0.004789
 405	2.0200e-01	16.1771	17.918782	0.000128	1.277151	0.432710	0.010349
 406	2.0250e-01	16.2413	17.946578	0.000069	0.686073	0.232448	0.005559
 407	2.0300e-01	16.2669	17.991051	0.000110	1.097717	0.371916	0.008895
 408	2.0350e-01	16.3279	18.026543	0.000088	0.876062	0.296818	0.007099
 409	2.0400e-01	16.3535	18.066313	0.000098	0.981612	0.332579	0.007954
 410	2.0450e-01	16.3985	18.107365	0.000101	1.013277	0.343307	0.008210
 411	2.0500e-01	16.4514	18.130884	0.000058	0.580523	0.196687	0.004704
 412	2.0550e-01	16.4771	18.173647	0.000106	1.055497	0.357612	0.008553
 413	2.0600e-01	16.4867	18.214271	0.000100	1.002722	0.339731	0.008125
 414	2.0650e-01	16.5653	18.244205	0.000074	0.738848	0.250328	0.005987
 415	2.0700e-01	16.6054	18.287822	0.000108	1.076607	0.364764	0.008724
 416	2.0750e-01	16.6166	18.325454	0.000093	0.928837	0.314699	0.007526
 417	2.0800e-01	16.6840	18.361374	0.000089	0.886617	0.300394	0.007184
 418	2.0850e-01	16.7257	18.390880	0.000073	0.728293	0.246752	0.005901
 419	2.0900e-01	16.7594	18.432360	0.000102	1.023832	0.346884	0.008296
 420	2.0950e-01	16.8252	18.469991	0.000093	0.928837	0.314699	0.007526
 421	2.1000e-01	16.8653	18.502490	0.000080	0.802178	0.271785	0.006500
 422	2.1050e-01	16.8926	18.541404	0.000096	0.960502	0.325427	0.007783
 423	2.1100e-01	16.8829	18.575187	-0.000083	-0.833842	-0.282513	0.006756
 424	2.1150e-01	16.9792	18.613245	0.000094	0.939392	0.318275	0.007612
 425	2.1200e-01	17.0209	18.654297	0.000101	1.013277	0.343307	0.008210
 426	2.1250e-01	17.0353	18.694067	0.000098	0.981612	0.332579	0.007954
 427	2.1300e-01	17.0931	18.724428	0.000075	0.749403	0.253905	0.006072
 428	2.1350e-01	17.1300	18.757783	0.000082	0.823287	0.278937	0.006671
 429	2.1400e-01	17.1460	18.805249	0.000117	1.171601	0.396949	0.009493
 430	2.1450e-01	17.2263	18.830479	0.000062	0.622743	0.210991	0.005046
 431	2.1500e-01	17.2503	18.876235	0.000113	1.129382	0.382645	0.009151
 432	2.1550e-01	17.2728	18.904458	0.000070	0.696628	0.236024	0.005645
 433	2.1600e-01	17.3161	18.953207	0.000120	1.203266	0.407678	0.009750
 434	2.1650e-01	17.3530	18.985279	0.000079	0.791623	0.268209	0.006414
 435	2.1700e-01	17.3915	19.027614	0.000104	1.044942	0.354036	0.008467
 436	2.1750e-01	17.4364	19.057976	0.000075	0.749403	0.253905	0.006072
 437	2.1800e-01	17.4893	19.095179	0.000092	0.918282	0.311122	0.007441
 438	2.1850e-01	17.5278	19.126396	0.000077	0.770513	0.261057	0.006243
 439	2.1900e-01	17.5744	19.160606	0.000084	0.844397	0.286090	0.006842
 440	2.1950e-01	17.5824	19.204223	0.000108	1.076607	0.364764	0.008724
 441	2.2000e-01	17.6321	19.234585	0.000075	0.749403	0.253905	0.006072
 442	2.2050e-01	17.6642	19.278630	0.000109	1.087162	0.368340	0.008809
 443	2.2100e-01	17.7011	19.309419	0.000076	0.759958	0.257481	0.006158
 444	2.2150e-01	17.7637	19.344057	0.000085	0.854952	0.289666	0.006928
 445	2.2200e-01	17.7893	19.374418	0.000075	0.749403	0.253905	0.006072
 446	2.2250e-01	17.8663	19.403497	0.000072	0.717738	0.243176	0.005816
 447	2.2300e-01	17.8792	19.449680	0.000114	1.139936	0.386221	0.009237
 448	2.2350e-01	17.9305	19.481325	0.000078	0.781068	0.264633	0.006329
 449	2.2400e-01	17.9482	19.533067	0.000128	1.277151	0.432710	0.010349
 450	2.2450e-01	18.0027	19.555731	0.000056	0.559413	0.189534	0.004533
 451	2.2500e-01	18.0444	19.591652	0.000089	0.886617	0.300394	0.007184
 452	2.2550e-01	18.0749	19.642112	0.000125	1.245486	0.421982	0.010092
 453	2.2600e-01	18.1086	19.668197	0.000064	0.643853	0.218143	0.005217
 454	2.2650e-01	18.1519	19.709677	0.000102	1.023832	0.346884	0.008296
 455	2.2700e-01	18.2113	19.733196	0.000058	0.580523	0.196687	0.004704
 456	2.2750e-01	18.2530	19.769116	0.000089	0.886617	0.300394	0.007184
 457	2.2800e-01	18.2995	19.801616	0.000080	0.802178	0.271785	0.006500
 458	2.2850e-01	18.3284	19.842668	0.000101	1.013277	0.343307	0.008210
 459	2.2900e-01	18.3604	19.875168	0.000080	0.802178	0.271785	0.006500
 460	2.2950e-01	18.4198	19.912799	0.000093	0.928837	0.314699	0.007526
 461	2.3000e-01	18.4471	19.950857	0.000094	0.939392	0.318275	0.007612
 462	2.3050e-01	18.4824	19.986778	0.000089	0.886617	0.300394	0.007184
 463	2.3100e-01	18.5225	20.025692	0.000096	0.960502	0.325427	0.007783
 464	2.3150e-01	18.5690	20.059474	0.000083	0.833842	0.282513	0.006756
 465	2.3200e-01	18.5898	20.095822	0.000090	0.897172	0.303970	0.007270
 466	2.3250e-01	18.6300	20.123618	0.000069	0.686073	0.232448	0.005559
 467	2.3300e-01	18.6733	20.169801	0.000114	1.139936	0.386221	0.009237
 468	2.3350e-01	18.7310	20.195886	0.000064	0.643853	0.218143	0.005217
 469	2.3400e-01	18.7759	20.235228	0.000097	0.971057	0.329003	0.007868
 470	2.3450e-01	18.8305	20.266445	0.000077	0.770513	0.261057	0.006243
 471	2.3500e-01	18.8529	20.300655	0.000084	0.844397	0.286090	0.006842
 472	2.3550e-01	18.8947	20.342990	0.000104	1.044942	0.354036	0.008467
 473	2.3600e-01	18.9251	20.378482	0.000088	0.876062	0.296818	0.007099
 474	2.3650e-01	18.9508	20.416113	0.000093	0.928837	0.314699	0.007526
 475	2.3700e-01	18.9957	20.445192	0.000072	0.717738	0.243176	0.005816
 476	2.3750e-01	19.0390	20.488382	0.000107	1.066052	0.361188	0.008638
 477	2.3800e-01	19.1096	20.505060	0.000041	0.411644	0.139469	0.003335
 478	2.3850e-01	19.0968	20.562361	-0.000141	-1.414366	-0.479200	0.011460
 479	2.3900e-01	19.1626	20.587164	0.000061	0.612188	0.207415	0.004960
 480	2.3950e-01	19.2139	20.620091	0.000081	0.812732	0.275361	0.006585
 481	2.4000e-01	19.2524	20.656011	0.000089	0.886617	0.300394	0.007184
 482	2.4050e-01	19.2845	20.697919	0.000103	1.034387	0.350460	0.008381
 483	2.4100e-01	19.3214	20.729135	0.000077	0.770513	0.261057	0.006243
 484	2.4150e-01	19.3615	20.761207	0.000079	0.791623	0.268209	0.006414
 485	2.4200e-01	19.4064	20.800549	0.000097	0.971057	0.329003	0.007868
 486	2.4250e-01	19.4273	20.852291	0.000128	1.277151	0.432710	0.010349
 487	2.4300e-01	19.4898	20.869824	0.000043	0.432754	0.146621	0.003507
 488	2.4350e-01	19.5315	20.889922	0.000050	0.496083	0.168078	0.004020
 489	2.4400e-01	19.5652	20.930547	0.000100	1.002722	0.339731	0.008125
 490	2.4450e-01	19.5861	20.968178	0.000093	0.928837	0.314699	0.007526
 491	2.4500e-01	19.6326	21.010085	0.000103	1.034387	0.350460	0.008381
 492	2.4550e-01	19.6984	21.028901	0.000046	0.464419	0.157349	0.003763
 493	2.4600e-01	19.7192	21.068670	0.000098	0.981612	0.332579	0.007954
 494	2.4650e-01	19.7577	21.107584	0.000096	0.960502	0.325427	0.007783
 495	2.4700e-01	19.8171	21.137090	0.000073	0.728293	0.246752	0.005901
 496	2.4750e-01	19.8492	21.177714	0.000100	1.002722	0.339731	0.008125
 497	2.4800e-01	19.8716	21.208931	0.000077	0.770513	0.261057	0.006243
 498	2.4850e-01	19.9470	21.242713	0.000083	0.833842	0.282513	0.006756
 499	2.4900e-01	19.9839	21.282910	0.000099	0.992167	0.336155	0.008039
 500	2.4950e-01	19.9936	21.317548	0.000085	0.854952	0.289666	0.006928
 501	2.5000e-01	20.0337	21.354751	0.000092	0.918282	0.311122	0.007441
 502	2.5050e-01	19.9952	21.349619	0.000013	0.126660	0.042913	-0.001026
 503	2.5100e-01	19.9278	21.328666	0.000052	0.517193	0.175230	-0.004191
 504	2.5150e-01	19.8604	21.311133	0.000043	0.432754	0.146621	-0.003507
 505	2.5200e-01	19.8813	21.267088	-0.000109	-1.087162	-0.368340	-0.008809
 506	2.5250e-01	19.8251	21.229884	0.000092	0.918282	0.311122	-0.007441
 507	2.5300e-01	19.7914	21.211496	0.000045	0.453864	0.153773	-0.003678
 508	2.5350e-01	19.7465	21.177714	0.000083	0.833842	0.282513	-0.006756
 509	2.5400e-01	19.6952	21.152912	0.000061	0.612188	0.207415	-0.004960
 510	2.5450e-01	19.6631	21.112715	0.000099	0.992167	0.336155	-0.008039
 511	2.5500e-01	19.6150	21.092617	0.000050	0.496083	0.168078	-0.004020
 512	2.5550e-01	19.5957	21.058407	0.000084	0.844397	0.286090	-0.006842
 513	2.5600e-01	19.5187	21.044295	0.000035	0.348314	0.118012	-0.002822
 514	2.5650e-01	19.4850	20.992552	0.000128	1.277151	0.432710	-0.010349
 515	2.5700e-01	19.4497	20.969461	0.000057	0.569968	0.193110	-0.004618
 516	2.5750e-01	19.4224	20.937816	0.000078	0.781068	0.264633	-0.006329
 517	2.5800e-01	19.4128	20.886074	0.000128	1.277151	0.432710	-0.010349
 518	2.5850e-01	19.3454	20.873673	0.000031	0.306094	0.103707	-0.002480
 519	2.5900e-01	19.2877	20.846732	0.000066	0.664963	0.225296	-0.005388
 520	2.5950e-01	19.2684	20.809529	0.000092	0.918282	0.311122	-0.007441
 521	2.6000e-01	19.1962	20.789430	0.000050	0.496083	0.168078	-0.004020
 522	2.6050e-01	19.1786	20.753510	0.000089	0.886617	0.300394	-0.007184
 523	2.6100e-01	19.1385	20.711175	0.000104	1.044942	0.354036	-0.008467
 524	2.6150e-01	19.1144	20.679958	0.000077	0.770513	0.261057	-0.006243
 525	2.6200e-01	19.0471	20.650452	0.000073	0.728293	0.246752	-0.005901
 526	2.6250e-01	19.0102	20.627788	0.000056	0.559413	0.189534	-0.004533
 527	2.6300e-01	18.9957	20.592295	0.000088	0.876062	0.296818	-0.007099
 528	2.6350e-01	18.9380	20.564927	0.000068	0.675518	0.228872	-0.005474
 529	2.6400e-01	18.9027	20.527724	0.000092	0.918282	0.311122	-0.007441
 530	2.6450e-01	18.8497	20.507625	0.000050	0.496083	0.168078	-0.004020
 531	2.6500e-01	18.8160	20.474698	0.000081	0.812732	0.275361	-0.006585
 532	2.6550e-01	18.7663	20.428942	0.000113	1.129382	0.382645	-0.009151
 533	2.6600e-01	18.7118	20.407989	0.000052	0.517193	0.175230	-0.004191
 534	2.6650e-01	18.6813	20.367792	0.000099	0.992167	0.336155	-0.008039
 535	2.6700e-01	18.6316	20.338286	0.000073	0.728293	0.246752	-0.005901
 536	2.6750e-01	18.6219	20.305359	0.000081	0.812732	0.275361	-0.006585
 537	2.6800e-01	18.5979	20.272431	0.000081	0.812732	0.275361	-0.006585
 538	2.6850e-01	18.5626	20.235228	0.000092	0.918282	0.311122	-0.007441
 539	2.6900e-01	18.5032	20.204439	0.000076	0.759958	0.257481	-0.006158
 540	2.6950e-01	18.4439	20.189472	0.000037	0.369424	0.125164	-0.002993
 541	2.7000e-01	18.4054	20.153979	0.000088	0.876062	0.296818	-0.007099
 542	2.7050e-01	18.3813	20.112500	0.000102	1.023832	0.346884	-0.008296
 543	2.7100e-01	18.3300	20.085132	0.000068	0.675518	0.228872	-0.005474
 544	2.7150e-01	18.3091	20.051777	0.000082	0.823287	0.278937	-0.006671
 545	2.7200e-01	18.2610	20.018422	0.000082	0.823287	0.278937	-0.006671
 546	2.7250e-01	18.2209	19.980363	0.000094	0.939392	0.318275	-0.007612
 547	2.7300e-01	18.1760	19.951712	0.000071	0.707183	0.239600	-0.005730
 548	2.7350e-01	18.1487	19.914509	0.000092	0.918282	0.311122	-0.007441
 549	2.7400e-01	18.0974	19.881582	0.000081	0.812732	0.275361	-0.006585
 550	2.7450e-01	18.0492	19.849938	0.000078	0.781068	0.264633	-0.006329
 551	2.7500e-01	18.0284	19.828129	0.000054	0.538303	0.182382	-0.004362
 552	2.7550e-01	17.9738	19.789642	0.000095	0.949947	0.321851	-0.007697
 553	2.7600e-01	17.9401	19.757143	0.000080	0.802178	0.271785	-0.006500
 554	2.7650e-01	17.8776	19.727209	0.000074	0.738848	0.250328	-0.005987
 555	2.7700e-01	17.8487	19.691289	0.000089	0.886617	0.300394	-0.007184
 556	2.7750e-01	17.8102	19.656223	0.000087	0.865507	0.293242	-0.007013
 557	2.7800e-01	17.7685	19.629283	0.000066	0.664963	0.225296	-0.005388
 558	2.7850e-01	17.7508	19.587803	0.000102	1.023832	0.346884	-0.008296
 559	2.7900e-01	17.6851	19.565139	0.000056	0.559413	0.189534	-0.004533
 560	2.7950e-01	17.6594	19.525798	0.000097	0.971057	0.329003	-0.007868
 561	2.8000e-01	17.6145	19.489450	0.000090	0.897172	0.303970	-0.007270
 562	2.8050e-01	17.5615	19.456095	0.000082	0.823287	0.278937	-0.006671
 563	2.8100e-01	17.5295	19.424023	0.000079	0.791623	0.268209	-0.006414
 564	2.8150e-01	17.4829	19.397082	0.000066	0.664963	0.225296	-0.005388
 565	2.8200e-01	17.4524	19.358596	0.000095	0.949947	0.321851	-0.007697
 566	2.8250e-01	17.4059	19.322676	0.000089	0.886617	0.300394	-0.007184
 567	2.8300e-01	17.3546	19.295308	0.000068	0.675518	0.228872	-0.005474
 568	2.8350e-01	17.3273	19.266657	0.000071	0.707183	0.239600	-0.005730
 569	2.8400e-01	17.3145	19.220901	0.000113	1.129382	0.382645	-0.009151
 570	2.8450e-01	17.2744	19.173007	0.000118	1.182156	0.400525	-0.009579
 571	2.8500e-01	17.2054	19.163599	0.000023	0.232209	0.078675	-0.001882
 572	2.8550e-01	17.1829	19.132382	0.000077	0.770513	0.261057	-0.006243
 573	2.8600e-01	17.1573	19.084488	0.000118	1.182156	0.400525	-0.009579
 574	2.8650e-01	17.1043	19.051989	0.000080	0.802178	0.271785	-0.006500
 575	2.8700e-01	17.0771	19.017779	0.000084	0.844397	0.286090	-0.006842
 576	2.8750e-01	17.0241	18.992977	0.000061	0.612188	0.207415	-0.004960
 577	2.8800e-01	16.9920	18.961332	0.000078	0.781068	0.264633	-0.006329
 578	2.8850e-01	16.9519	18.914721	0.000115	1.150491	0.389797	-0.009322
 579	2.8900e-01	16.8829	18.890347	0.000060	0.601633	0.203839	-0.004875
 580	2.8950e-01	16.8428	18.855281	0.000087	0.865507	0.293242	-0.007013
 581	2.9000e-01	16.8300	18.818505	0.000091	0.907727	0.307546	-0.007355
 582	2.9050e-01	16.7674	18.791993	0.000065	0.654408	0.221719	-0.005303
 583	2.9100e-01	16.7321	18.752224	0.000098	0.981612	0.332579	-0.007954
 584	2.9150e-01	16.6776	18.722290	0.000074	0.738848	0.250328	-0.005987
 585	2.9200e-01	16.6840	18.674823	-0.000117	-1.171601	-0.396949	-0.009493
 586	2.9250e-01	16.6199	18.644462	0.000075	0.749403	0.253905	-0.006072
 587	2.9300e-01	16.5621	18.608969	0.000088	0.876062	0.296818	-0.007099
 588	2.9350e-01	16.5284	18.586305	0.000056	0.559413	0.189534	-0.004533
 589	2.9400e-01	16.4674	18.555516	0.000076	0.759958	0.257481	-0.006158
 590	2.9450e-01	16.4562	18.510188	0.000112	1.118827	0.379069	-0.009066
 591	2.9500e-01	16.4225	18.473412	0.000091	0.907727	0.307546	-0.007355
 592	2.9550e-01	16.3568	18.449892	0.000058	0.580523	0.196687	-0.004704
 593	2.9600e-01	16.3439	18.409268	0.000100	1.002722	0.339731	-0.008125
 594	2.9650e-01	16.3070	18.371637	0.000093	0.928837	0.314699	-0.007526
 595	2.9700e-01	16.2525	18.331868	0.000098	0.981612	0.332579	-0.007954
 596	2.9750e-01	16.2156	18.297658	0.000084	0.844397	0.286090	-0.006842
 597	2.9800e-01	16.1707	18.269007	0.000071	0.707183	0.239600	-0.005730
 598	2.9850e-01	16.1402	18.227527	0.000102	1.023832	0.346884	-0.008296
 599	2.9900e-01	16.0856	18.204863	0.000056	0.559413	0.189534	-0.004533
 600	2.9950e-01	16.0439	18.161245	0.000108	1.076607	0.364764	-0.008724
 601	3.0000e-01	16.0231	18.138581	0.000056	0.559413	0.189534	-0.004533
 602	3.0050e-01	15.9830	18.093681	0.000111	1.108272	0.375493	-0.008980
 603	3.0100e-01	15.9509	18.060753	0.000081	0.812732	0.275361	-0.006585
 604	3.0150e-01	15.8963	18.017136	0.000108	1.076607	0.364764	-0.008724
 605	3.0200e-01	15.8498	18.002169	0.000037	0.369424	0.125164	-0.002993
 606	3.0250e-01	15.7969	17.962400	0.000098	0.981612	0.332579	-0.007954
 607	3.0300e-01	15.7744	17.925624	0.000091	0.907727	0.307546	-0.007355
 608	3.0350e-01	15.7471	17.884572	0.000101	1.013277	0.343307	-0.008210
 609	3.0400e-01	15.7151	17.851217	0.000082	0.823287	0.278937	-0.006671
 610	3.0450e-01	15.6894	17.810593	0.000100	1.002722	0.339731	-0.008125
 611	3.0500e-01	15.6108	17.773817	0.000091	0.907727	0.307546	-0.007355
 612	3.0550e-01	15.5707	17.745166	0.000071	0.707183	0.239600	-0.005730
 613	3.0600e-01	15.5129	17.707963	0.000092	0.918282	0.311122	-0.007441
 614	3.0650e-01	15.4969	17.683160	0.000061	0.612188	0.207415	-0.004960
 615	3.0700e-01	15.4568	17.643391	0.000098	0.981612	0.332579	-0.007954
 616	3.0750e-01	15.4359	17.597208	0.000114	1.139936	0.386221	-0.009237
 617	3.0800e-01	15.3718	17.557866	0.000097	0.971057	0.329003	-0.007868
 618	3.0850e-01	15.3252	17.531353	0.000065	0.654408	0.221719	-0.005303
 619	3.0900e-01	15.2787	17.493295	0.000094	0.939392	0.318275	-0.007612
 620	3.0950e-01	15.2210	17.471058	0.000055	0.548858	0.185958	-0.004447
 621	3.1000e-01	15.2210	17.426585	0.000110	1.097717	0.371916	-0.008895
 622	3.1050e-01	15.1776	17.391520	0.000087	0.865507	0.293242	-0.007013
 623	3.1100e-01	15.1311	17.349613	0.000103	1.034387	0.350460	-0.008381
 624	3.1150e-01	15.1006	17.317113	0.000080	0.802178	0.271785	-0.006500
 625	3.1200e-01	15.0477	17.282903	0.000084	0.844397	0.286090	-0.006842
 626	3.1250e-01	15.0076	17.240141	0.000106	1.055497	0.357612	-0.008553
 627	3.1300e-01	14.9579	17.210207	0.000074	0.738848	0.250328	-0.005987
 628	3.1350e-01	14.9482	17.173859	0.000090	0.897172	0.303970	-0.007270
 629	3.1400e-01	14.8969	17.133234	0.000100	1.002722	0.339731	-0.008125
 630	3.1450e-01	14.8424	17.107577	0.000063	0.633298	0.214567	-0.005132
 631	3.1500e-01	14.8119	17.063104	0.000110	1.097717	0.371916	-0.008895
 632	3.1550e-01	14.7718	17.031459	0.000078	0.781068	0.264633	-0.006329
 633	3.1600e-01	14.7429	16.989552	0.000103	1.034387	0.350460	-0.008381
 634	3.1650e-01	14.7044	16.954059	0.000088	0.876062	0.296818	-0.007099
 635	3.1700e-01	14.6354	16.923270	0.000076	0.759958	0.257481	-0.006158
 636	3.1750e-01	14.6482	16.880080	-0.000107	-1.066052	-0.361188	-0.008638
 637	3.1800e-01	14.5937	16.841166	0.000096	0.960502	0.325427	-0.007783
 638	3.1850e-01	14.5616	16.806529	0.000085	0.854952	0.289666	-0.006928
 639	3.1900e-01	14.4894	16.773601	0.000081	0.812732	0.275361	-0.006585
 640	3.1950e-01	14.4766	16.735970	0.000093	0.928837	0.314699	-0.007526
 641	3.2000e-01	14.4317	16.698767	0.000092	0.918282	0.311122	-0.007441
 642	3.2050e-01	14.3547	16.658998	0.000098	0.981612	0.332579	-0.007954
 643	3.2100e-01	14.3643	16.630775	-0.000070	-0.696628	-0.236024	-0.005645
 644	3.2150e-01	14.3049	16.590150	0.000100	1.002722	0.339731	-0.008125
 645	3.2200e-01	14.2616	16.558934	0.000077	0.770513	0.261057	-0.006243
 646	3.2250e-01	14.2135	16.522585	0.000090	0.897172	0.303970	-0.007270
 647	3.2300e-01	14.1686	16.482816	0.000098	0.981612	0.332579	-0.007954
 648	3.2350e-01	14.1349	16.449034	0.000083	0.833842	0.282513	-0.006756
 649	3.2400e-01	14.0836	16.410548	0.000095	0.949947	0.321851	-0.007697
 650	3.2450e-01	14.0675	16.388739	0.000054	0.538303	0.182382	-0.004362
 651	3.2500e-01	14.0194	16.334858	0.000133	1.329926	0.450591	-0.010776
 652	3.2550e-01	14.0178	16.287391	0.000117	1.171601	0.396949	-0.009493
 653	3.2600e-01	13.9167	16.263017	0.000060	0.601633	0.203839	-0.004875
 654	3.2650e-01	13.9103	16.228379	0.000085	0.854952	0.289666	-0.006928
 655	3.2700e-01	13.8750	16.182196	0.000114	1.139936	0.386221	-0.009237
 656	3.2750e-01	13.8157	16.147986	0.000084	0.844397	0.286090	-0.006842
 657	3.2800e-01	13.7579	16.125749	0.000055	0.548858	0.185958	-0.004447
 658	3.2850e-01	13.7082	16.082987	0.000106	1.055497	0.357612	-0.008553
 659	3.2900e-01	13.6809	16.044928	0.000094	0.939392	0.318275	-0.007612
 660	3.2950e-01	13.6568	16.006014	0.000096	0.960502	0.325427	-0.007783
 661	3.3000e-01	13.6119	15.968811	0.000092	0.918282	0.311122	-0.007441
 662	3.3050e-01	13.5782	15.930324	0.000095	0.949947	0.321851	-0.007697
 663	3.3100e-01	13.5205	15.882430	0.000118	1.182156	0.400525	-0.009579
 664	3.3150e-01	13.4723	15.862332	0.000050	0.496083	0.168078	-0.004020
 665	3.3200e-01	13.4435	15.821280	0.000101	1.013277	0.343307	-0.008210
 666	3.3250e-01	13.4162	15.778945	0.000104	1.044942	0.354036	-0.008467
 667	3.3300e-01	13.3649	15.747301	0.000078	0.781068	0.264633	-0.006329
 668	3.3350e-01	13.3408	15.697269	0.000123	1.234931	0.418406	-0.010006
 669	3.3400e-01	13.2638	15.678453	0.000046	0.464419	0.157349	-0.003763
 670	3.3450e-01	13.2670	15.628421	-0.000123	-1.234931	-0.418406	-0.010006
 671	3.3500e-01	13.2157	15.588224	0.000099	0.992167	0.336155	-0.008039
 672	3.3550e-01	13.1884	15.547600	0.000100	1.002722	0.339731	-0.008125
 673	3.3600e-01	13.1499	15.515955	0.000078	0.781068	0.264633	-0.006329
 674	3.3650e-01	13.0970	15.477042	0.000096	0.960502	0.325427	-0.007783
 675	3.3700e-01	13.0617	15.438555	0.000095	0.949947	0.321851	-0.007697
 676	3.3750e-01	12.9895	15.407766	0.000076	0.759958	0.257481	-0.006158
 677	3.3800e-01	12.9782	15.370135	0.000093	0.928837	0.314699	-0.007526
 678	3.3850e-01	12.9413	15.319675	0.000125	1.245486	0.421982	-0.010092
 679	3.3900e-01	12.9285	15.266650	0.000131	1.308816	0.443439	-0.010605
 680	3.3950e-01	12.8307	15.253394	0.000033	0.327204	0.110860	-0.002651
 681	3.4000e-01	12.8210	15.215763	0.000093	0.928837	0.314699	-0.007526
 682	3.4050e-01	12.7986	15.160599	0.000136	1.361591	0.461319	-0.011033
 683	3.4100e-01	12.7360	15.141356	0.000047	0.474974	0.160925	-0.003849
 684	3.4150e-01	12.6927	15.099448	0.000103	1.034387	0.350460	-0.008381
 685	3.4200e-01	12.6542	15.059252	0.000099	0.992167	0.336155	-0.008039
 686	3.4250e-01	12.6109	15.020765	0.000095	0.949947	0.321851	-0.007697
 687	3.4300e-01	12.5611	14.992542	0.000070	0.696628	0.236024	-0.005645
 688	3.4350e-01	12.5291	14.951918	0.000100	1.002722	0.339731	-0.008125
 689	3.4400e-01	12.5034	14.903168	0.000120	1.203266	0.407678	-0.009750
 690	3.4450e-01	12.4553	14.868958	0.000084	0.844397	0.286090	-0.006842
 691	3.4500e-01	12.4200	14.830900	0.000094	0.939392	0.318275	-0.007612
 692	3.4550e-01	12.3751	14.794124	0.000091	0.907727	0.307546	-0.007355
 693	3.4600e-01	12.3189	14.756065	0.000094	0.939392	0.318275	-0.007612
 694	3.4650e-01	12.2932	14.722711	0.000082	0.823287	0.278937	-0.006671
 695	3.4700e-01	12.2579	14.679948	0.000106	1.055497	0.357612	-0.008553
 696	3.4750e-01	12.2146	14.637186	0.000106	1.055497	0.357612	-0.008553
 697	3.4800e-01	12.1665	14.597416	0.000098	0.981612	0.332579	-0.007954
 698	3.4850e-01	12.1392	14.563206	0.000084	0.844397	0.286090	-0.006842
 699	3.4900e-01	12.1120	14.517450	0.000113	1.129382	0.382645	-0.009151
 700	3.4950e-01	12.0606	14.479392	0.000094	0.939392	0.318275	-0.007612
 701	3.5000e-01	12.0253	14.436202	0.000107	1.066052	0.361188	-0.008638
 702	3.5050e-01	11.9531	14.407978	0.000070	0.696628	0.236024	-0.005645
 703	3.5100e-01	11.9499	14.366926	0.000101	1.013277	0.343307	-0.008210
 704	3.5150e-01	11.9243	14.319888	0.000116	1.161046	0.393373	-0.009408
 705	3.5200e-01	11.8697	14.283112	0.000091	0.907727	0.307546	-0.007355
 706	3.5250e-01	11.8120	14.242915	0.000099	0.992167	0.336155	-0.008039
 707	3.5300e-01	11.7654	14.210843	0.000079	0.791623	0.268209	-0.006414
 708	3.5350e-01	11.7350	14.168081	0.000106	1.055497	0.357612	-0.008553
 709	3.5400e-01	11.6916	14.130022	0.000094	0.939392	0.318275	-0.007612
 710	3.5450e-01	11.6483	14.088115	0.000103	1.034387	0.350460	-0.008381
 711	3.5500e-01	11.6162	14.056470	0.000078	0.781068	0.264633	-0.006329
 712	3.5550e-01	11.5826	14.011570	0.000111	1.108272	0.375493	-0.008980
 713	3.5600e-01	11.5441	13.963248	0.000119	1.192711	0.404102	-0.009664
 714	3.5650e-01	11.5264	13.922624	0.000100	1.002722	0.339731	-0.008125
 715	3.5700e-01	11.4574	13.893545	0.000072	0.717738	0.243176	-0.005816
 716	3.5750e-01	11.4109	13.855059	0.000095	0.949947	0.321851	-0.007697
 717	3.5800e-01	11.3708	13.819138	0.000089	0.886617	0.300394	-0.007184
 718	3.5850e-01	11.3275	13.775093	0.000109	1.087162	0.368340	-0.008809
 719	3.5900e-01	11.3050	13.728482	0.000115	1.150491	0.389797	-0.009322
 720	3.5950e-01	11.2585	13.688713	0.000098	0.981612	0.332579	-0.007954
 721	3.6000e-01	11.2168	13.648944	0.000098	0.981612	0.332579	-0.007954
 722	3.6050e-01	11.1719	13.621575	0.000068	0.675518	0.228872	-0.005474
 723	3.6100e-01	11.1494	13.569405	0.000129	1.287706	0.436287	-0.010434
 724	3.6150e-01	11.1045	13.528781	0.000100	1.002722	0.339731	-0.008125
 725	3.6200e-01	11.0901	13.484735	0.000109	1.087162	0.368340	-0.008809
 726	3.6250e-01	10.9874	13.458223	0.000065	0.654408	0.221719	-0.005303
 727	3.6300e-01	10.9697	13.421019	0.000092	0.918282	0.311122	-0.007441
 728	3.6350e-01	10.9425	13.376974	0.000109	1.087162	0.368340	-0.008809
 729	3.6400e-01	10.9361	13.334211	0.000106	1.055497	0.357612	-0.008553
 730	3.6450e-01	10.8895	13.289311	0.000111	1.108272	0.375493	-0.008980
 731	3.6500e-01	10.8254	13.249969	0.000097	0.971057	0.329003	-0.007868
 732	3.6550e-01	10.8077	13.199509	0.000125	1.245486	0.421982	-0.010092
 733	3.6600e-01	10.7227	13.167865	0.000078	0.781068	0.264633	-0.006329
 734	3.6650e-01	10.7083	13.133227	0.000085	0.854952	0.289666	-0.006928
 735	3.6700e-01	10.6585	13.104577	0.000071	0.707183	0.239600	-0.005730
 736	3.6750e-01	10.6200	13.052406	0.000129	1.287706	0.436287	-0.010434
 737	3.6800e-01	10.5767	13.011782	0.000100	1.002722	0.339731	-0.008125
 738	3.6850e-01	10.5125	12.974151	0.000093	0.928837	0.314699	-0.007526
 739	3.6900e-01	10.4772	12.934382	0.000098	0.981612	0.332579	-0.007954
 740	3.6950e-01	10.4548	12.891619	0.000106	1.055497	0.357612	-0.008553
 741	3.7000e-01	10.3970	12.859120	0.000080	0.802178	0.271785	-0.006500
 742	3.7050e-01	10.3537	12.809943	0.000121	1.213821	0.411254	-0.009835
 743	3.7100e-01	10.3393	12.770601	0.000097	0.971057	0.329003	-0.007868
 744	3.7150e-01	10.2815	12.728694	0.000103	1.034387	0.350460	-0.008381
 745	3.7200e-01	10.2543	12.686359	0.000104	1.044942	0.354036	-0.008467
 746	3.7250e-01	10.1981	12.644879	0.000102	1.023832	0.346884	-0.008296
 747	3.7300e-01	10.1692	12.602972	0.000103	1.034387	0.350460	-0.008381
 748	3.7350e-01	10.1115	12.562775	0.000099	0.992167	0.336155	-0.008039
 749	3.7400e-01	10.0938	12.518730	0.000109	1.087162	0.368340	-0.008809
 750	3.7450e-01	10.0970	12.471264	-0.000117	-1.171601	-0.396949	-0.009493
 751	3.7500e-01	10.0072	12.440474	0.000076	0.759958	0.257481	-0.006158
 752	3.7550e-01	9.9671	12.405837	0.000085	0.854952	0.289666	-0.006928
 753	3.7600e-01	9.9206	12.363930	0.000103	1.034387	0.350460	-0.008381
 754	3.7650e-01	9.8773	12.314753	0.000121	1.213821	0.411254	-0.009835
 755	3.7700e-01	9.8628	12.271135	0.000108	1.076607	0.364764	-0.008724
 756	3.7750e-01	9.8051	12.226234	0.000111	1.108272	0.375493	-0.008980
 757	3.7800e-01	9.7826	12.189458	0.000091	0.907727	0.307546	-0.007355
 758	3.7850e-01	9.7521	12.147124	0.000104	1.044942	0.354036	-0.008467
 759	3.7900e-01	9.7249	12.092388	0.000135	1.351036	0.457743	-0.010947
 760	3.7950e-01	9.6591	12.056039	0.000090	0.897172	0.303970	-0.007270
 761	3.8000e-01	9.6206	12.017125	0.000096	0.960502	0.325427	-0.007783
 762	3.8050e-01	9.5869	11.983771	0.000082	0.823287	0.278937	-0.006671
 763	3.8100e-01	9.5372	11.936304	0.000117	1.171601	0.396949	-0.009493
 764	3.8150e-01	9.4730	11.904232	0.000079	0.791623	0.268209	-0.006414
 765	3.8200e-01	9.4778	11.865318	-0.000096	-0.960502	-0.325427	-0.007783
 766	3.8250e-01	9.4168	11.814859	0.000125	1.245486	0.421982	-0.010092
 767	3.8300e-01	9.3799	11.777228	0.000093	0.928837	0.314699	-0.007526
 768	3.8350e-01	9.3623	11.724630	0.000130	1.298261	0.439863	-0.010520
 769	3.8400e-01	9.3142	11.678019	0.000115	1.150491	0.389797	-0.009322
 770	3.8450e-01	9.2532	11.646374	0.000078	0.781068	0.264633	-0.006329
 771	3.8500e-01	9.2147	11.604467	0.000103	1.034387	0.350460	-0.008381
 772	3.8550e-01	9.1794	11.555718	0.000120	1.203266	0.407678	-0.009750
 773	3.8600e-01	9.1457	11.512955	0.000106	1.055497	0.357612	-0.008553
 774	3.8650e-01	9.0800	11.480883	0.000079	0.791623	0.268209	-0.006414
 775	3.8700e-01	9.0495	11.442397	0.000095	0.949947	0.321851	-0.007697
 776	3.8750e-01	9.0366	11.390654	0.000128	1.277151	0.432710	-0.010349
 777	3.8800e-01	8.9596	11.355589	0.000087	0.865507	0.293242	-0.007013
 778	3.8850e-01	8.9260	11.311971	0.000108	1.076607	0.364764	-0.008724
 779	3.8900e-01	8.9035	11.268781	0.000107	1.066052	0.361188	-0.008638
 780	3.8950e-01	8.8522	11.218749	0.000123	1.234931	0.418406	-0.010006
 781	3.9000e-01	8.8104	11.184111	0.000085	0.854952	0.289666	-0.006928
 782	3.9050e-01	8.7752	11.130658	0.000132	1.319371	0.447015	-0.010691
 783	3.9100e-01	8.7254	11.093455	0.000092	0.918282	0.311122	-0.007441
 784	3.9150e-01	8.6805	11.065659	0.000069	0.686073	0.232448	-0.005559
 785	3.9200e-01	8.6532	11.013061	0.000130	1.298261	0.439863	-0.010520
 786	3.9250e-01	8.6228	10.968588	0.000110	1.097717	0.371916	-0.008895
 787	3.9300e-01	8.5490	10.933951	0.000085	0.854952	0.289666	-0.006928
 788	3.9350e-01	8.5297	10.879642	0.000134	1.340481	0.454167	-0.010862
 789	3.9400e-01	8.4960	10.832603	0.000116	1.161046	0.393373	-0.009408
 790	3.9450e-01	8.4495	10.787275	0.000112	1.118827	0.379069	-0.009066
 791	3.9500e-01	8.4078	10.756914	0.000075	0.749403	0.253905	-0.006072
 792	3.9550e-01	8.3773	10.703888	0.000131	1.308816	0.443439	-0.010605
 793	3.9600e-01	8.3131	10.661126	0.000106	1.055497	0.357612	-0.008553
 794	3.9650e-01	8.3019	10.617080	0.000109	1.087162	0.368340	-0.008809
 795	3.9700e-01	8.2586	10.576456	0.000100	1.002722	0.339731	-0.008125
 796	3.9750e-01	8.2153	10.541818	0.000085	0.854952	0.289666	-0.006928
 797	3.9800e-01	8.1976	10.489220	0.000130	1.298261	0.439863	-0.010520
 798	3.9850e-01	8.1399	10.438333	0.000126	1.256041	0.425558	-0.010177
 799	3.9900e-01	8.1014	10.402412	0.000089	0.886617	0.300394	-0.007184
 800	3.9950e-01	8.0709	10.357084	0.000112	1.118827	0.379069	-0.009066
 801	4.0000e-01	7.9971	10.313466	0.000108	1.076607	0.364764	-0.008724
 802	4.0050e-01	7.9907	10.264289	0.000121	1.213821	0.411254	-0.009835
 803	4.0100e-01	7.9169	10.230935	0.000082	0.823287	0.278937	-0.006671
 804	4.0150e-01	7.9089	10.188600	0.000104	1.044942	0.354036	-0.008467
 805	4.0200e-01	7.8591	10.138140	0.000125	1.245486	0.421982	-0.010092
 806	4.0250e-01	7.8383	10.085970	0.000129	1.287706	0.436287	-0.010434
 807	4.0300e-01	7.7452	10.063733	0.000055	0.548858	0.185958	-0.004447
 808	4.0350e-01	7.7388	10.009425	0.000134	1.340481	0.454167	-0.010862
 809	4.0400e-01	7.7003	9.973932	0.000088	0.876062	0.296818	-0.007099
 810	4.0450e-01	7.6506	9.920906	0.000131	1.308816	0.443439	-0.010605
 811	4.0500e-01	7.6057	9.875150	0.000113	1.129382	0.382645	-0.009151
 812	4.0550e-01	7.5912	9.824263	0.000126	1.256041	0.425558	-0.010177
 813	4.0600e-01	7.5543	9.791336	0.000081	0.812732	0.275361	-0.006585
 814	4.0650e-01	7.4854	9.741731	0.000122	1.224376	0.414830	-0.009921
 815	4.0700e-01	7.4549	9.703245	0.000095	0.949947	0.321851	-0.007697
 816	4.0750e-01	7.4035	9.656634	0.000115	1.150491	0.389797	-0.009322
 817	4.0800e-01	7.3843	9.612589	0.000109	1.087162	0.368340	-0.008809
 818	4.0850e-01	7.3506	9.562984	0.000122	1.224376	0.414830	-0.009921
 819	4.0900e-01	7.2896	9.516373	0.000115	1.150491	0.389797	-0.009322
 820	4.0950e-01	7.2559	9.465058	0.000127	1.266596	0.429134	-0.010263
 821	4.1000e-01	7.2158	9.432131	0.000081	0.812732	0.275361	-0.006585
 822	4.1050e-01	7.1789	9.380388	0.000128	1.277151	0.432710	-0.010349
 823	4.1100e-01	7.1356	9.342329	0.000094	0.939392	0.318275	-0.007612
 824	4.1150e-01	7.1068	9.292725	0.000122	1.224376	0.414830	-0.009921
 825	4.1200e-01	7.0410	9.252528	0.000099	0.992167	0.336155	-0.008039
 826	4.1250e-01	7.0121	9.205489	0.000116	1.161046	0.393373	-0.009408
 827	4.1300e-01	6.9688	9.170852	0.000085	0.854952	0.289666	-0.006928
 828	4.1350e-01	6.9447	9.110556	0.000149	1.488250	0.504233	-0.012059
 829	4.1400e-01	6.8966	9.074208	0.000090	0.897172	0.303970	-0.007270
 830	4.1450e-01	6.8661	9.021183	0.000131	1.308816	0.443439	-0.010605
 831	4.1500e-01	6.8260	8.977137	0.000109	1.087162	0.368340	-0.008809
 832	4.1550e-01	6.7667	8.941644	0.000088	0.876062	0.296818	-0.007099
 833	4.1600e-01	6.7298	8.897599	0.000109	1.087162	0.368340	-0.008809
 834	4.1650e-01	6.7041	8.842435	0.000136	1.361591	0.461319	-0.011033
 835	4.1700e-01	6.6511	8.795397	0.000116	1.161046	0.393373	-0.009408
 836	4.1750e-01	6.6014	8.759476	0.000089	0.886617	0.300394	-0.007184
 837	4.1800e-01	6.5902	8.712010	0.000117	1.171601	0.396949	-0.009493
 838	4.1850e-01	6.5196	8.661550	0.000125	1.245486	0.421982	-0.010092
 839	4.1900e-01	6.4811	8.626485	0.000087	0.865507	0.293242	-0.007013
 840	4.1950e-01	6.4667	8.561913	0.000159	1.593800	0.539994	-0.012914
 841	4.2000e-01	6.4089	8.534118	0.000069	0.686073	0.232448	-0.005559
 842	4.2050e-01	6.3897	8.475961	0.000144	1.435476	0.486352	-0.011631
 843	4.2100e-01	6.3512	8.433626	0.000104	1.044942	0.354036	-0.008467
 844	4.2150e-01	6.2822	8.397705	0.000089	0.886617	0.300394	-0.007184
 845	4.2200e-01	6.2421	8.345107	0.000130	1.298261	0.439863	-0.010520
 846	4.2250e-01	6.2212	8.289088	0.000138	1.382701	0.468472	-0.011204
 847	4.2300e-01	6.1779	8.257016	0.000079	0.791623	0.268209	-0.006414
 848	4.2350e-01	6.1586	8.203136	0.000133	1.329926	0.450591	-0.010776
 849	4.2400e-01	6.1121	8.156097	0.000116	1.161046	0.393373	-0.009408
 850	4.2450e-01	6.0592	8.119321	0.000091	0.907727	0.307546	-0.007355
 851	4.2500e-01	6.0207	8.059881	0.000147	1.467140	0.497081	-0.011888
 852	4.2550e-01	5.9886	8.026526	0.000082	0.823287	0.278937	-0.006671
 853	4.2600e-01	5.9308	7.978205	0.000119	1.192711	0.404102	-0.009664
 854	4.2650e-01	5.8811	7.937153	0.000101	1.013277	0.343307	-0.008210
 855	4.2700e-01	5.8426	7.902943	0.000084	0.844397	0.286090	-0.006842
 856	4.2750e-01	5.8073	7.832385	0.000174	1.741570	0.590060	-0.014112
 857	4.2800e-01	5.7849	7.782780	0.000122	1.224376	0.414830	-0.009921
 858	4.2850e-01	5.7415	7.744721	0.000094	0.939392	0.318275	-0.007612
 859	4.2900e-01	5.6662	7.702386	0.000104	1.044942	0.354036	-0.008467
 860	4.2950e-01	5.6613	7.648078	0.000134	1.340481	0.454167	-0.010862
 861	4.3000e-01	5.6164	7.603605	0.000110	1.097717	0.371916	-0.008895
 862	4.3050e-01	5.5779	7.557421	0.000114	1.139936	0.386221	-0.009237
 863	4.3100e-01	5.5426	7.506106	0.000127	1.266596	0.429134	-0.010263
 864	4.3150e-01	5.5025	7.450943	0.000136	1.361591	0.461319	-0.011033
 865	4.3200e-01	5.4400	7.411174	0.000098	0.981612	0.332579	-0.007954
 866	4.3250e-01	5.4351	7.369694	0.000102	1.023832	0.346884	-0.008296
 867	4.3300e-01	5.3806	7.313675	0.000138	1.382701	0.468472	-0.011204
 868	4.3350e-01	5.3180	7.274334	0.000097	0.971057	0.329003	-0.007868
 869	4.3400e-01	5.3020	7.220453	0.000133	1.329926	0.450591	-0.010776
 870	4.3450e-01	5.2474	7.176835	0.000108	1.076607	0.364764	-0.008724
 871	4.3500e-01	5.2186	7.126375	0.000125	1.245486	0.421982	-0.010092
 872	4.3550e-01	5.2041	7.075060	0.000127	1.266596	0.429134	-0.010263
 873	4.3600e-01	5.1512	7.019469	0.000137	1.372146	0.464896	-0.011118
 874	4.3650e-01	5.0966	6.985686	0.000083	0.833842	0.282513	-0.006756
 875	4.3700e-01	5.0565	6.932233	0.000132	1.319371	0.447015	-0.010691
 876	4.3750e-01	5.0116	6.886905	0.000112	1.118827	0.379069	-0.009066
 877	4.3800e-01	4.9571	6.841149	0.000113	1.129382	0.382645	-0.009151
 878	4.3850e-01	4.9362	6.788979	0.000129	1.287706	0.436287	-0.010434
 879	4.3900e-01	4.9090	6.738947	0.000123	1.234931	0.418406	-0.010006
 880	4.3950e-01	4.8769	6.684638	0.000134	1.340481	0.454167	-0.010862
 881	4.4000e-01	4.8255	6.643159	0.000102	1.023832	0.346884	-0.008296
 882	4.4050e-01	4.7614	6.598686	0.000110	1.097717	0.371916	-0.008895
 883	4.4100e-01	4.7213	6.558061	0.000100	1.002722	0.339731	-0.008125
 884	4.4150e-01	4.6860	6.510167	0.000118	1.182156	0.400525	-0.009579
 885	4.4200e-01	4.6651	6.457142	0.000131	1.308816	0.443439	-0.010605
 886	4.4250e-01	4.6009	6.404116	0.000131	1.308816	0.443439	-0.010605
 887	4.4300e-01	4.5865	6.353229	0.000126	1.256041	0.425558	-0.010177
 888	4.4350e-01	4.5352	6.307900	0.000112	1.118827	0.379069	-0.009066
 889	4.4400e-01	4.4983	6.260434	0.000117	1.171601	0.396949	-0.009493
 890	4.4450e-01	4.4630	6.210829	0.000122	1.224376	0.414830	-0.009921
 891	4.4500e-01	4.4068	6.152245	0.000145	1.446031	0.489928	-0.011717
 892	4.4550e-01	4.3619	6.119318	0.000081	0.812732	0.275361	-0.006585
 893	4.4600e-01	4.3314	6.065009	0.000134	1.340481	0.454167	-0.010862
 894	4.4650e-01	4.3170	6.006425	0.000145	1.446031	0.489928	-0.011717
 895	4.4700e-01	4.2464	5.957675	0.000120	1.203266	0.407678	-0.009750
 896	4.4750e-01	4.2015	5.914485	0.000107	1.066052	0.361188	-0.008638
 897	4.4800e-01	4.1806	5.864881	0.000122	1.224376	0.414830	-0.009921
 898	4.4850e-01	4.1405	5.814848	0.000123	1.234931	0.418406	-0.010006
 899	4.4900e-01	4.1068	5.766099	0.000120	1.203266	0.407678	-0.009750
 900	4.4950e-01	4.0651	5.713074	0.000131	1.308816	0.443439	-0.010605
 901	4.5000e-01	4.0026	5.670739	0.000104	1.044942	0.354036	-0.008467
 902	4.5050e-01	3.9416	5.624983	0.000113	1.129382	0.382645	-0.009151
 903	4.5100e-01	3.9609	5.565971	-0.000146	-1.456585	-0.493505	-0.011802
 904	4.5150e-01	3.9079	5.513373	0.000130	1.298261	0.439863	-0.010520
 905	4.5200e-01	3.8678	5.463341	0.000123	1.234931	0.418406	-0.010006
 906	4.5250e-01	3.8068	5.416729	0.000115	1.150491	0.389797	-0.009322
 907	4.5300e-01	3.7699	5.366270	0.000125	1.245486	0.421982	-0.010092
 908	4.5350e-01	3.7491	5.311534	0.000135	1.351036	0.457743	-0.010947
 909	4.5400e-01	3.6913	5.264922	0.000115	1.150491	0.389797	-0.009322
 910	4.5450e-01	3.6544	5.216601	0.000119	1.192711	0.404102	-0.009664
 911	4.5500e-01	3.6336	5.161009	0.000137	1.372146	0.464896	-0.011118
 912	4.5550e-01	3.5598	5.124234	0.000091	0.907727	0.307546	-0.007355
 913	4.5600e-01	3.5373	5.060945	0.000156	1.562135	0.529266	-0.012658
 914	4.5650e-01	3.5004	5.009630	0.000127	1.266596	0.429134	-0.010263
 915	4.5700e-01	3.4507	4.952756	0.000140	1.403811	0.475624	-0.011375
 916	4.5750e-01	3.4122	4.909138	0.000108	1.076607	0.364764	-0.008724
 917	4.5800e-01	3.3913	4.857395	0.000128	1.277151	0.432710	-0.010349
 918	4.5850e-01	3.3159	4.807363	0.000123	1.234931	0.418406	-0.010006
 919	4.5900e-01	3.2726	4.765456	0.000103	1.034387	0.350460	-0.008381
 920	4.5950e-01	3.2694	4.709437	0.000138	1.382701	0.468472	-0.011204
 921	4.6000e-01	3.2389	4.643583	0.000163	1.625465	0.550722	-0.013171
 922	4.6050e-01	3.1812	4.605097	0.000095	0.949947	0.321851	-0.007697
 923	4.6100e-01	3.1427	4.545229	0.000148	1.477695	0.500657	-0.011974
 924	4.6150e-01	3.0898	4.501184	0.000109	1.087162	0.368340	-0.008809
 925	4.6200e-01	3.0641	4.443454	0.000142	1.424921	0.482776	-0.011546
 926	4.6250e-01	3.0144	4.399409	0.000109	1.087162	0.368340	-0.008809
 927	4.6300e-01	2.9646	4.338258	0.000151	1.509360	0.511385	-0.012230
 928	4.6350e-01	2.9117	4.296779	0.000102	1.023832	0.346884	-0.008296
 929	4.6400e-01	2.8764	4.245036	0.000128	1.277151	0.432710	-0.010349
 930	4.6450e-01	2.8732	4.195432	0.000122	1.224376	0.414830	-0.009921
 931	4.6500e-01	2.8315	4.131288	0.000158	1.583245	0.536418	-0.012829
 932	4.6550e-01	2.7769	4.085532	0.000113	1.129382	0.382645	-0.009151
 933	4.6600e-01	2.7352	4.029941	0.000137	1.372146	0.464896	-0.011118
 934	4.6650e-01	2.7112	3.985040	0.000111	1.108272	0.375493	-0.008980
 935	4.6700e-01	2.6534	3.925172	0.000148	1.477695	0.500657	-0.011974
 936	4.6750e-01	2.6454	3.870436	0.000135	1.351036	0.457743	-0.010947
 937	4.6800e-01	2.5571	3.827246	0.000107	1.066052	0.361188	-0.008638
 938	4.6850e-01	2.5347	3.771655	0.000137	1.372146	0.464896	-0.011118
 939	4.6900e-01	2.4817	3.714353	0.000141	1.414366	0.479200	-0.011460
 940	4.6950e-01	2.4432	3.666459	0.000118	1.182156	0.400525	-0.009579
 941	4.7000e-01	2.3807	3.616427	0.000123	1.234931	0.418406	-0.010006
 942	4.7050e-01	2.3662	3.559553	0.000140	1.403811	0.475624	-0.011375
 943	4.7100e-01	2.3358	3.507383	0.000129	1.287706	0.436287	-0.010434
 944	4.7150e-01	2.3069	3.442811	0.000159	1.593800	0.539994	-0.012914
 945	4.7200e-01	2.2443	3.397483	0.000112	1.118827	0.379069	-0.009066
 946	4.7250e-01	2.2170	3.340181	0.000141	1.414366	0.479200	-0.011460
 947	4.7300e-01	2.1609	3.294853	0.000112	1.118827	0.379069	-0.009066
 948	4.7350e-01	2.1417	3.232847	0.000153	1.530470	0.518537	-0.012401
 949	4.7400e-01	2.0935	3.177683	0.000136	1.361591	0.461319	-0.011033
 950	4.7450e-01	2.0630	3.129789	0.000118	1.182156	0.400525	-0.009579
 951	4.7500e-01	2.0278	3.073770	0.000138	1.382701	0.468472	-0.011204
 952	4.7550e-01	1.9844	3.022028	0.000128	1.277151	0.432710	-0.010349
 953	4.7600e-01	1.9251	2.966437	0.000137	1.372146	0.464896	-0.011118
 954	4.7650e-01	1.8850	2.910845	0.000137	1.372146	0.464896	-0.011118
 955	4.7700e-01	1.8737	2.847984	0.000155	1.551580	0.525690	-0.012572
 956	4.7750e-01	1.8320	2.797097	0.000126	1.256041	0.425558	-0.010177
 957	4.7800e-01	1.7727	2.753052	0.000109	1.087162	0.368340	-0.008809
 958	4.7850e-01	1.7246	2.696177	0.000140	1.403811	0.475624	-0.011375
 959	4.7900e-01	1.7069	2.632034	0.000158	1.583245	0.536418	-0.012829
 960	4.7950e-01	1.6556	2.580719	0.000127	1.266596	0.429134	-0.010263
 961	4.8000e-01	1.6042	2.524700	0.000138	1.382701	0.468472	-0.011204
 962	4.8050e-01	1.5705	2.473812	0.000126	1.256041	0.425558	-0.010177
 963	4.8100e-01	1.5449	2.410524	0.000156	1.562135	0.529266	-0.012658
 964	4.8150e-01	1.4984	2.361347	0.000121	1.213821	0.411254	-0.009835
 965	4.8200e-01	1.4566	2.304473	0.000140	1.403811	0.475624	-0.011375
 966	4.8250e-01	1.4406	2.246316	0.000144	1.435476	0.486352	-0.011631
 967	4.8300e-01	1.3684	2.198849	0.000117	1.171601	0.396949	-0.009493
 968	4.8350e-01	1.3347	2.137699	0.000151	1.509360	0.511385	-0.012230
 969	4.8400e-01	1.2930	2.080825	0.000140	1.403811	0.475624	-0.011375
 970	4.8450e-01	1.2738	2.019247	0.000152	1.519915	0.514961	-0.012316
 971	4.8500e-01	1.2096	1.966649	0.000130	1.298261	0.439863	-0.010520
 972	4.8550e-01	1.1711	1.919182	0.000117	1.171601	0.396949	-0.009493
 973	4.8600e-01	1.1534	1.849052	0.000173	1.731015	0.586484	-0.014026
 974	4.8650e-01	1.0861	1.801585	0.000117	1.171601	0.396949	-0.009493
 975	4.8700e-01	1.0748	1.749843	0.000128	1.277151	0.432710	-0.010349
 976	4.8750e-01	1.0139	1.693396	0.000139	1.393256	0.472048	-0.011289
 977	4.8800e-01	0.9657	1.629252	0.000158	1.583245	0.536418	-0.012829
 978	4.8850e-01	0.9449	1.575799	0.000132	1.319371	0.447015	-0.010691
 979	4.8900e-01	0.9064	1.515504	0.000149	1.488250	0.504233	-0.012059
 980	4.8950e-01	0.9032	1.451788	0.000157	1.572690	0.532842	-0.012743
 981	4.9000e-01	0.8278	1.398762	0.000131	1.308816	0.443439	-0.010605
 982	4.9050e-01	0.7492	1.353862	0.000111	1.108272	0.375493	-0.008980
 983	4.9100e-01	0.6978	1.294422	0.000147	1.467140	0.497081	-0.011888
 984	4.9150e-01	0.6866	1.234982	0.000147	1.467140	0.497081	-0.011888
 985	4.9200e-01	0.6513	1.170838	0.000158	1.583245	0.536418	-0.012829
 986	4.9250e-01	0.5823	1.123799	0.000116	1.161046	0.393373	-0.009408
 987	4.9300e-01	0.5759	1.057945	0.000163	1.625465	0.550722	-0.013171
 988	4.9350e-01	0.5246	1.006202	0.000128	1.277151	0.432710	-0.010349
 989	4.9400e-01	0.4700	0.952321	0.000133	1.329926	0.450591	-0.010776
 990	4.9450e-01	0.4813	0.883901	-0.000169	-1.688795	-0.572179	-0.013684
 991	4.9500e-01	0.4043	0.832159	0.000128	1.277151	0.432710	-0.010349
 992	4.9550e-01	0.3642	0.756469	0.000187	1.868229	0.632973	-0.015138
 993	4.9600e-01	0.3369	0.721831	0.000085	0.854952	0.289666	-0.006928
 994	4.9650e-01	0.3064	0.658115	0.000157	1.572690	0.532842	-0.012743
 995	4.9700e-01	0.2535	0.599103	0.000146	1.456585	0.493505	-0.011802
 996	4.9750e-01	0.2294	0.532393	0.000165	1.646575	0.557875	-0.013342
 997	4.9800e-01	0.1845	0.470388	0.000153	1.530470	0.518537	-0.012401
 998	4.9850e-01	0.1492	0.408810	0.000152	1.519915	0.514961	-0.012316
 999	4.9900e-01	0.0882	0.359633	0.000121	1.213821	0.411254	-0.009835
1000	4.9950e-01	0.0433	0.304469	0.000136	1.361591	0.461319	-0.011033
1001	5.0000e-01	0.0385	0.225786	0.000194	1.942114	0.658006	-0.015737
1002	5.0050e-01	-0.0337	0.200129	0.000063	0.633298	0.214567	-0.005132
1003	5.0100e-01	-0.0754	0.138978	0.000151	1.509360	0.511385	-0.012230
1004	5.0150e-01	-0.0914	0.077400	0.000152	1.519915	0.514961	-0.012316
1005	5.0200e-01	-0.1556	0.012829	0.000159	1.593800	0.539994	-0.012914
1006	5.0250e-01	-0.1620	-0.037203	0.000123	1.234931	0.418406	-0.010006
1007	5.0300e-01	-0.2390	-0.085525	0.000119	1.192711	0.404102	-0.009664
1008	5.0350e-01	-0.2519	-0.148814	0.000156	1.562135	0.529266	-0.012658
1009	5.0400e-01	-0.3112	-0.214240	0.000161	1.614910	0.547146	-0.013085
1010	5.0450e-01	-0.3273	-0.270687	0.000139	1.393256	0.472048	-0.011289
1011	5.0500e-01	-0.3770	-0.344238	0.000182	1.815454	0.615093	-0.014710
1012	5.0550e-01	-0.4347	-0.387856	0.000108	1.076607	0.364764	-0.008724
1013	5.0600e-01	-0.4925	-0.443447	0.000137	1.372146	0.464896	-0.011118
1014	5.0650e-01	-0.5118	-0.499039	0.000137	1.372146	0.464896	-0.011118
1015	5.0700e-01	-0.5326	-0.566176	0.000166	1.657130	0.561451	-0.013427
1016	5.0750e-01	-0.5711	-0.629464	0.000156	1.562135	0.529266	-0.012658
1017	5.0800e-01	-0.6016	-0.686766	0.000141	1.414366	0.479200	-0.011460
1018	5.0850e-01	-0.6722	-0.742357	0.000137	1.372146	0.464896	-0.011118
1019	5.0900e-01	-0.7027	-0.800942	0.000145	1.446031	0.489928	-0.011717
1020	5.0950e-01	-0.7379	-0.858244	0.000141	1.414366	0.479200	-0.011460
1021	5.1000e-01	-0.7989	-0.910842	0.000130	1.298261	0.439863	-0.010520
1022	5.1050e-01	-0.8278	-0.973275	0.000154	1.541025	0.522113	-0.012487
1023	5.1100e-01	-0.8615	-1.025018	0.000128	1.277151	0.432710	-0.010349
1024	5.1150e-01	-0.9000	-1.088734	0.000157	1.572690	0.532842	-0.012743
1025	5.1200e-01	-0.9144	-1.157582	0.000170	1.699350	0.575755	-0.013770
1026	5.1250e-01	-0.9577	-1.219587	0.000153	1.530470	0.518537	-0.012401
1027	5.1300e-01	-1.0059	-1.270047	0.000125	1.245486	0.421982	-0.010092
1028	5.1350e-01	-1.0732	-1.316658	0.000115	1.150491	0.389797	-0.009322
1029	5.1400e-01	-1.0748	-1.385506	0.000170	1.699350	0.575755	-0.013770
1030	5.1450e-01	-1.1406	-1.441097	0.000137	1.372146	0.464896	-0.011118
1031	5.1500e-01	-1.2112	-1.497971	0.000140	1.403811	0.475624	-0.011375
1032	5.1550e-01	-1.2240	-1.554418	0.000139	1.393256	0.472048	-0.011289
1033	5.1600e-01	-1.2401	-1.616424	0.000153	1.530470	0.518537	-0.012401
1034	5.1650e-01	-1.2882	-1.674581	0.000144	1.435476	0.486352	-0.011631
1035	5.1700e-01	-1.3299	-1.735731	0.000151	1.509360	0.511385	-0.012230
1036	5.1750e-01	-1.3556	-1.786191	0.000125	1.245486	0.421982	-0.010092
1037	5.1800e-01	-1.4197	-1.845631	0.000147	1.467140	0.497081	-0.011888
1038	5.1850e-01	-1.4438	-1.911485	0.000163	1.625465	0.550722	-0.013171
1039	5.1900e-01	-1.4919	-1.966649	0.000136	1.361591	0.461319	-0.011033
1040	5.1950e-01	-1.5641	-2.010694	0.000109	1.087162	0.368340	-0.008809
1041	5.2000e-01	-1.5786	-2.075693	0.000160	1.604355	0.543570	-0.013000
1042	5.2050e-01	-1.6058	-2.135988	0.000149	1.488250	0.504233	-0.012059
1043	5.2100e-01	-1.6620	-2.186876	0.000126	1.256041	0.425558	-0.010177
1044	5.2150e-01	-1.6893	-2.247598	0.000150	1.498805	0.507809	-0.012145
1045	5.2200e-01	-1.7454	-2.307894	0.000149	1.488250	0.504233	-0.012059
1046	5.2250e-01	-1.7919	-2.362202	0.000134	1.340481	0.454167	-0.010862
1047	5.2300e-01	-1.8176	-2.424635	0.000154	1.541025	0.522113	-0.012487
1048	5.2350e-01	-1.8737	-2.477661	0.000131	1.308816	0.443439	-0.010605
1049	5.2400e-01	-1.9283	-2.526838	0.000121	1.213821	0.411254	-0.009835
1050	5.2450e-01	-1.9475	-2.589271	0.000154	1.541025	0.522113	-0.012487
1051	5.2500e-01	-1.9604	-2.649994	0.000150	1.498805	0.507809	-0.012145
1052	5.2550e-01	-2.0261	-2.702164	0.000129	1.287706	0.436287	-0.010434
1053	5.2600e-01	-2.0711	-2.753907	0.000128	1.277151	0.432710	-0.010349
1054	5.2650e-01	-2.1128	-2.810353	0.000139	1.393256	0.472048	-0.011289
1055	5.2700e-01	-2.1433	-2.865945	0.000137	1.372146	0.464896	-0.011118
1056	5.2750e-01	-2.1866	-2.924102	0.000144	1.435476	0.486352	-0.011631
1057	5.2800e-01	-2.2187	-2.988673	0.000159	1.593800	0.539994	-0.012914
1058	5.2850e-01	-2.2572	-3.041699	0.000131	1.308816	0.443439	-0.010605
1059	5.2900e-01	-2.2876	-3.101138	0.000147	1.467140	0.497081	-0.011888
1060	5.2950e-01	-2.3213	-3.145612	0.000110	1.097717	0.371916	-0.008895
1061	5.3000e-01	-2.3903	-3.200775	0.000136	1.361591	0.461319	-0.011033
1062	5.3050e-01	-2.4176	-3.263636	0.000155	1.551580	0.525690	-0.012572
1063	5.3100e-01	-2.4561	-3.322221	0.000145	1.446031	0.489928	-0.011717
1064	5.3150e-01	-2.5202	-3.366266	0.000109	1.087162	0.368340	-0.008809
1065	5.3200e-01	-2.5251	-3.428272	0.000153	1.530470	0.518537	-0.012401
1066	5.3250e-01	-2.5924	-3.477021	0.000120	1.203266	0.407678	-0.009750
1067	5.3300e-01	-2.6245	-3.539027	0.000153	1.530470	0.518537	-0.012401
1068	5.3350e-01	-2.6646	-3.587776	0.000120	1.203266	0.407678	-0.009750
1069	5.3400e-01	-2.7047	-3.645505	0.000142	1.424921	0.482776	-0.011546
1070	5.3450e-01	-2.7448	-3.700242	0.000135	1.351036	0.457743	-0.010947
1071	5.3500e-01	-2.7673	-3.756260	0.000138	1.382701	0.468472	-0.011204
1072	5.3550e-01	-2.8315	-3.812707	0.000139	1.393256	0.472048	-0.011289
1073	5.3600e-01	-2.8507	-3.863594	0.000126	1.256041	0.425558	-0.010177
1074	5.3650e-01	-2.8972	-3.918330	0.000135	1.351036	0.457743	-0.010947
1075	5.3700e-01	-2.9374	-3.961521	0.000107	1.066052	0.361188	-0.008638
1076	5.3750e-01	-2.9871	-4.019250	0.000142	1.424921	0.482776	-0.011546
1077	5.3800e-01	-3.0208	-4.077407	0.000144	1.435476	0.486352	-0.011631
1078	5.3850e-01	-3.0400	-4.133854	0.000139	1.393256	0.472048	-0.011289
1079	5.3900e-01	-3.0817	-4.189445	0.000137	1.372146	0.464896	-0.011118
1080	5.3950e-01	-3.1363	-4.231780	0.000104	1.044942	0.354036	-0.008467
1081	5.4000e-01	-3.1635	-4.290792	0.000146	1.456585	0.493505	-0.011802
1082	5.4050e-01	-3.2357	-4.343390	0.000130	1.298261	0.439863	-0.010520
1083	5.4100e-01	-3.2582	-4.388718	0.000112	1.118827	0.379069	-0.009066
1084	5.4150e-01	-3.3031	-4.440888	0.000129	1.287706	0.436287	-0.010434
1085	5.4200e-01	-3.3272	-4.500328	0.000147	1.467140	0.497081	-0.011888
1086	5.4250e-01	-3.3721	-4.554637	0.000134	1.340481	0.454167	-0.010862
1087	5.4300e-01	-3.4218	-4.597827	0.000107	1.066052	0.361188	-0.008638
1088	5.4350e-01	-3.4571	-4.649570	0.000128	1.277151	0.432710	-0.010349
1089	5.4400e-01	-3.4988	-4.708154	0.000145	1.446031	0.489928	-0.011717
1090	5.4450e-01	-3.5341	-4.765028	0.000140	1.403811	0.475624	-0.011375
1091	5.4500e-01	-3.5903	-4.810784	0.000113	1.129382	0.382645	-0.009151
1092	5.4550e-01	-3.5967	-4.877494	0.000165	1.646575	0.557875	-0.013342
1093	5.4600e-01	-3.6737	-4.902724	0.000062	0.622743	0.210991	-0.005046
1094	5.4650e-01	-3.6913	-4.969006	0.000164	1.636020	0.554299	-0.013256
1095	5.4700e-01	-3.7732	-5.013051	0.000109	1.087162	0.368340	-0.008809
1096	5.4750e-01	-3.7876	-5.067787	0.000135	1.351036	0.457743	-0.010947
1097	5.4800e-01	-3.8181	-5.117392	0.000122	1.224376	0.414830	-0.009921
1098	5.4850e-01	-3.8774	-5.161437	0.000109	1.087162	0.368340	-0.008809
1099	5.4900e-01	-3.8838	-5.223015	0.000152	1.519915	0.514961	-0.012316
1100	5.4950e-01	-3.9432	-5.269626	0.000115	1.150491	0.389797	-0.009322
1101	5.5000e-01	-3.9785	-5.322224	0.000130	1.298261	0.439863	-0.010520
1102	5.5050e-01	-4.0250	-5.371829	0.000122	1.224376	0.414830	-0.009921
1103	5.5100e-01	-4.0860	-5.421861	0.000123	1.234931	0.418406	-0.010006
1104	5.5150e-01	-4.1181	-5.471038	0.000121	1.213821	0.411254	-0.009835
1105	5.5200e-01	-4.1502	-5.522780	0.000128	1.277151	0.432710	-0.010349
1106	5.5250e-01	-4.1999	-5.570674	0.000118	1.182156	0.400525	-0.009579
1107	5.5300e-01	-4.1999	-5.631397	0.000150	1.498805	0.507809	-0.012145
1108	5.5350e-01	-4.2592	-5.674587	0.000107	1.066052	0.361188	-0.008638
1109	5.5400e-01	-4.3026	-5.725475	0.000126	1.256041	0.425558	-0.010177
1110	5.5450e-01	-4.3635	-5.768237	0.000106	1.055497	0.357612	-0.008553
1111	5.5500e-01	-4.3619	-5.834519	-0.000164	-1.636020	-0.554299	-0.013256
1112	5.5550e-01	-4.4229	-5.878992	0.000110	1.097717	0.371916	-0.008895
1113	5.5600e-01	-4.4598	-5.928597	0.000122	1.224376	0.414830	-0.009921
1114	5.5650e-01	-4.4854	-5.980767	0.000129	1.287706	0.436287	-0.010434
1115	5.5700e-01	-4.5496	-6.020536	0.000098	0.981612	0.332579	-0.007954
1116	5.5750e-01	-4.5721	-6.079121	0.000145	1.446031	0.489928	-0.011717
1117	5.5800e-01	-4.6186	-6.121883	0.000106	1.055497	0.357612	-0.008553
1118	5.5850e-01	-4.6683	-6.171060	0.000121	1.213821	0.411254	-0.009835
1119	5.5900e-01	-4.7229	-6.211685	0.000100	1.002722	0.339731	-0.008125
1120	5.5950e-01	-4.7180	-6.266848	-0.000136	-1.361591	-0.461319	-0.011033
1121	5.6000e-01	-4.7630	-6.326288	0.000147	1.467140	0.497081	-0.011888
1122	5.6050e-01	-4.8239	-6.367768	0.000102	1.023832	0.346884	-0.008296
1123	5.6100e-01	-4.8977	-6.414807	0.000116	1.161046	0.393373	-0.009408
1124	5.6150e-01	-4.8977	-6.463128	0.000119	1.192711	0.404102	-0.009664
1125	5.6200e-01	-4.9442	-6.504608	0.000102	1.023832	0.346884	-0.008296
1126	5.6250e-01	-4.9699	-6.558061	0.000132	1.319371	0.447015	-0.010691
1127	5.6300e-01	-5.0052	-6.608949	0.000126	1.256041	0.425558	-0.010177
1128	5.6350e-01	-5.0501	-6.659836	0.000126	1.256041	0.425558	-0.010177
1129	5.6400e-01	-5.1079	-6.698750	0.000096	0.960502	0.325427	-0.007783
1130	5.6450e-01	-5.1608	-6.756479	0.000142	1.424921	0.482776	-0.011546
1131	5.6500e-01	-5.1464	-6.809932	-0.000132	-1.319371	-0.447015	-0.010691
1132	5.6550e-01	-5.2073	-6.853550	0.000108	1.076607	0.364764	-0.008724
1133	5.6600e-01	-5.2667	-6.899306	0.000113	1.129382	0.382645	-0.009151
1134	5.6650e-01	-5.3036	-6.947628	0.000119	1.192711	0.404102	-0.009664
1135	5.6700e-01	-5.3373	-6.995094	0.000117	1.171601	0.396949	-0.009493
1136	5.6750e-01	-5.3886	-7.037857	0.000106	1.055497	0.357612	-0.008553
1137	5.6800e-01	-5.4143	-7.092593	0.000135	1.351036	0.457743	-0.010947
1138	5.6850e-01	-5.4560	-7.144335	0.000128	1.277151	0.432710	-0.010349
1139	5.6900e-01	-5.4977	-7.185387	0.000101	1.013277	0.343307	-0.008210
1140	5.6950e-01	-5.5426	-7.231571	0.000114	1.139936	0.386221	-0.009237
1141	5.7000e-01	-5.6180	-7.274334	0.000106	1.055497	0.357612	-0.008553
1142	5.7050e-01	-5.6148	-7.323083	-0.000120	-1.203266	-0.407678	-0.009750
1143	5.7100e-01	-5.6613	-7.375681	0.000130	1.298261	0.439863	-0.010520
1144	5.7150e-01	-5.6886	-7.423575	0.000118	1.182156	0.400525	-0.009579
1145	5.7200e-01	-5.7415	-7.471469	0.000118	1.182156	0.400525	-0.009579
1146	5.7250e-01	-5.7817	-7.515942	0.000110	1.097717	0.371916	-0.008895
1147	5.7300e-01	-5.8378	-7.559132	0.000107	1.066052	0.361188	-0.008638
1148	5.7350e-01	-5.8667	-7.608737	0.000122	1.224376	0.414830	-0.009921
1149	5.7400e-01	-5.9196	-7.655348	0.000115	1.150491	0.389797	-0.009322
1150	5.7450e-01	-5.9132	-7.706235	-0.000126	-1.256041	-0.425558	-0.010177
1151	5.7500e-01	-5.9918	-7.746432	0.000099	0.992167	0.336155	-0.008039
1152	5.7550e-01	-6.0223	-7.799457	0.000131	1.308816	0.443439	-0.010605
1153	5.7600e-01	-6.0608	-7.848634	0.000121	1.213821	0.411254	-0.009835
1154	5.7650e-01	-6.1057	-7.887548	0.000096	0.960502	0.325427	-0.007783
1155	5.7700e-01	-6.1346	-7.934159	0.000115	1.150491	0.389797	-0.009322
1156	5.7750e-01	-6.1843	-7.978205	0.000109	1.087162	0.368340	-0.008809
1157	5.7800e-01	-6.2276	-8.022678	0.000110	1.097717	0.371916	-0.008895
1158	5.7850e-01	-6.2485	-8.079552	0.000140	1.403811	0.475624	-0.011375
1159	5.7900e-01	-6.2854	-8.123170	0.000108	1.076607	0.364764	-0.008724
1160	5.7950e-01	-6.3319	-8.162511	0.000097	0.971057	0.329003	-0.007868
1161	5.8000e-01	-6.3865	-8.209550	0.000116	1.161046	0.393373	-0.009408
1162	5.8050e-01	-6.4266	-8.254451	0.000111	1.108272	0.375493	-0.008980
1163	5.8100e-01	-6.4153	-8.331851	-0.000191	-1.910449	-0.647278	-0.015480
1164	5.8150e-01	-6.5244	-8.342541	0.000026	0.263874	0.089403	-0.002138
1165	5.8200e-01	-6.5405	-8.395567	0.000131	1.308816	0.443439	-0.010605
1166	5.8250e-01	-6.5677	-8.434909	0.000097	0.971057	0.329003	-0.007868
1167	5.8300e-01	-6.6030	-8.484085	0.000121	1.213821	0.411254	-0.009835
1168	5.8350e-01	-6.6544	-8.531979	0.000118	1.182156	0.400525	-0.009579
1169	5.8400e-01	-6.7169	-8.572176	0.000099	0.992167	0.336155	-0.008039
1170	5.8450e-01	-6.7330	-8.619215	0.000116	1.161046	0.393373	-0.009408
1171	5.8500e-01	-6.8148	-8.655136	0.000089	0.886617	0.300394	-0.007184
1172	5.8550e-01	-6.8116	-8.712437	-0.000141	-1.414366	-0.479200	-0.011460
1173	5.8600e-01	-6.8822	-8.750496	0.000094	0.939392	0.318275	-0.007612
1174	5.8650e-01	-6.8741	-8.800956	-0.000125	-1.245486	-0.421982	-0.010092
1175	5.8700e-01	-6.9463	-8.844574	0.000108	1.076607	0.364764	-0.008724
1176	5.8750e-01	-6.9576	-8.894178	0.000122	1.224376	0.414830	-0.009921
1177	5.8800e-01	-7.0169	-8.930954	0.000091	0.907727	0.307546	-0.007355
1178	5.8850e-01	-7.0618	-8.976710	0.000113	1.129382	0.382645	-0.009151
1179	5.8900e-01	-7.1051	-9.022893	0.000114	1.139936	0.386221	-0.009237
1180	5.8950e-01	-7.1501	-9.063945	0.000101	1.013277	0.343307	-0.008210
1181	5.9000e-01	-7.2062	-9.107135	0.000107	1.066052	0.361188	-0.008638
1182	5.9050e-01	-7.2463	-9.152036	0.000111	1.108272	0.375493	-0.008980
1183	5.9100e-01	-7.2688	-9.198647	0.000115	1.150491	0.389797	-0.009322
1184	5.9150e-01	-7.3313	-9.243548	0.000111	1.108272	0.375493	-0.008980
1185	5.9200e-01	-7.3458	-9.280324	0.000091	0.907727	0.307546	-0.007355
1186	5.9250e-01	-7.3891	-9.336770	0.000139	1.393256	0.472048	-0.011289
1187	5.9300e-01	-7.4180	-9.373118	0.000090	0.897172	0.303970	-0.007270
1188	5.9350e-01	-7.4501	-9.424861	0.000128	1.277151	0.432710	-0.010349
1189	5.9400e-01	-7.4709	-9.467624	0.000106	1.055497	0.357612	-0.008553
1190	5.9450e-01	-7.5255	-9.511669	0.000109	1.087162	0.368340	-0.008809
1191	5.9500e-01	-7.5848	-9.551866	0.000099	0.992167	0.336155	-0.008039
1192	5.9550e-01	-7.6121	-9.599760	0.000118	1.182156	0.400525	-0.009579
1193	5.9600e-01	-7.6522	-9.647654	0.000118	1.182156	0.400525	-0.009579
1194	5.9650e-01	-7.6843	-9.686995	0.000097	0.971057	0.329003	-0.007868
1195	5.9700e-01	-7.7244	-9.731041	0.000109	1.087162	0.368340	-0.008809
1196	5.9750e-01	-7.7902	-9.772093	0.000101	1.013277	0.343307	-0.008210
1197	5.9800e-01	-7.8238	-9.798606	0.000065	0.654408	0.221719	-0.005303
1198	5.9850e-01	-7.8511	-9.857618	0.000146	1.456585	0.493505	-0.011802
1199	5.9900e-01	-7.9410	-9.897815	0.000099	0.992167	0.336155	-0.008039
1200	5.9950e-01	-7.9458	-9.945709	0.000118	1.182156	0.400525	-0.009579
1201	6.0000e-01	-7.9827	-9.994886	0.000121	1.213821	0.411254	-0.009835
1202	6.0050e-01	-8.0180	-10.035510	0.000100	1.002722	0.339731	-0.008125
1203	6.0100e-01	-8.0677	-10.087253	0.000128	1.277151	0.432710	-0.010349
1204	6.0150e-01	-8.1126	-10.113765	0.000065	0.654408	0.221719	-0.005303
1205	6.0200e-01	-8.1415	-10.165080	0.000127	1.266596	0.429134	-0.010263
1206	6.0250e-01	-8.1768	-10.206988	0.000103	1.034387	0.350460	-0.008381
1207	6.0300e-01	-8.2057	-10.262151	0.000136	1.361591	0.461319	-0.011033
1208	6.0350e-01	-8.2490	-10.301920	0.000098	0.981612	0.332579	-0.007954
1209	6.0400e-01	-8.3260	-10.334420	0.000080	0.802178	0.271785	-0.006500
1210	6.0450e-01	-8.3581	-10.372051	0.000093	0.928837	0.314699	-0.007526
1211	6.0500e-01	-8.3757	-10.425077	0.000131	1.308816	0.443439	-0.010605
1212	6.0550e-01	-8.4014	-10.474681	0.000122	1.224376	0.414830	-0.009921
1213	6.0600e-01	-8.4495	-10.510602	0.000089	0.886617	0.300394	-0.007184
1214	6.0650e-01	-8.4960	-10.550371	0.000098	0.981612	0.332579	-0.007954
1215	6.0700e-01	-8.5040	-10.602541	0.000129	1.287706	0.436287	-0.010434
1216	6.0750e-01	-8.5746	-10.638462	0.000089	0.886617	0.300394	-0.007184
1217	6.0800e-01	-8.6083	-10.681652	0.000107	1.066052	0.361188	-0.008638
1218	6.0850e-01	-8.6645	-10.725270	0.000108	1.076607	0.364764	-0.008724
1219	6.0900e-01	-8.7190	-10.757769	0.000080	0.802178	0.271785	-0.006500
1220	6.0950e-01	-8.7575	-10.806518	0.000120	1.203266	0.407678	-0.009750
1221	6.1000e-01	-8.7880	-10.849281	0.000106	1.055497	0.357612	-0.008553
1222	6.1050e-01	-8.8072	-10.891616	0.000104	1.044942	0.354036	-0.008467
1223	6.1100e-01	-8.8137	-10.946352	0.000135	1.351036	0.457743	-0.010947
1224	6.1150e-01	-8.9115	-10.976286	0.000074	0.738848	0.250328	-0.005987
1225	6.1200e-01	-8.9404	-11.016482	0.000099	0.992167	0.336155	-0.008039
1226	6.1250e-01	-8.9837	-11.059245	0.000106	1.055497	0.357612	-0.008553
1227	6.1300e-01	-9.0030	-11.109277	0.000123	1.234931	0.418406	-0.010006
1228	6.1350e-01	-9.0800	-11.147336	0.000094	0.939392	0.318275	-0.007612
1229	6.1400e-01	-9.0800	-11.194374	0.000116	1.161046	0.393373	-0.009408
1230	6.1450e-01	-9.1313	-11.231150	0.000091	0.907727	0.307546	-0.007355
1231	6.1500e-01	-9.1762	-11.273485	0.000104	1.044942	0.354036	-0.008467
1232	6.1550e-01	-9.2243	-11.308978	0.000088	0.876062	0.296818	-0.007099
1233	6.1600e-01	-9.2757	-11.354306	0.000112	1.118827	0.379069	-0.009066
1234	6.1650e-01	-9.3302	-11.392365	0.000094	0.939392	0.318275	-0.007612
1235	6.1700e-01	-9.3286	-11.442825	-0.000125	-1.245486	-0.421982	-0.010092
1236	6.1750e-01	-9.3848	-11.479173	0.000090	0.897172	0.303970	-0.007270
1237	6.1800e-01	-9.4393	-11.511672	0.000080	0.802178	0.271785	-0.006500
1238	6.1850e-01	-9.4602	-11.564698	0.000131	1.308816	0.443439	-0.010605
1239	6.1900e-01	-9.5019	-11.603612	0.000096	0.960502	0.325427	-0.007783
1240	6.1950e-01	-9.5596	-11.643381	0.000098	0.981612	0.332579	-0.007954
1241	6.2000e-01	-9.5676	-11.687426	0.000109	1.087162	0.368340	-0.008809
1242	6.2050e-01	-9.6078	-11.734038	0.000115	1.150491	0.389797	-0.009322
1243	6.2100e-01	-9.6527	-11.780221	0.000114	1.139936	0.386221	-0.009237
1244	6.2150e-01	-9.6767	-11.815286	0.000087	0.865507	0.293242	-0.007013
1245	6.2200e-01	-9.7200	-11.861042	0.000113	1.129382	0.382645	-0.009151
1246	6.2250e-01	-9.7874	-11.895252	0.000084	0.844397	0.286090	-0.006842
1247	6.2300e-01	-9.8307	-11.935449	0.000099	0.992167	0.336155	-0.008039
1248	6.2350e-01	-9.8676	-11.969231	0.000083	0.833842	0.282513	-0.006756
1249	6.2400e-01	-9.9158	-12.014560	0.000112	1.118827	0.379069	-0.009066
1250	6.2450e-01	-9.9495	-12.052618	0.000094	0.939392	0.318275	-0.007612
1251	6.2500e-01	-9.9799	-12.102651	0.000123	1.234931	0.418406	-0.010006
1252	6.2550e-01	-10.0008	-12.141137	0.000095	0.949947	0.321851	-0.007697
1253	6.2600e-01	-10.0762	-12.173209	0.000079	0.791623	0.268209	-0.006414
1254	6.2650e-01	-10.0890	-12.224524	0.000127	1.266596	0.429134	-0.010263
1255	6.2700e-01	-10.1612	-12.259589	0.000087	0.865507	0.293242	-0.007013
1256	6.2750e-01	-10.1596	-12.304490	-0.000111	-1.108272	-0.375493	-0.008980
1257	6.2800e-01	-10.2077	-12.345542	0.000101	1.013277	0.343307	-0.008210
1258	6.2850e-01	-10.2751	-12.380607	0.000087	0.865507	0.293242	-0.007013
1259	6.2900e-01	-10.3216	-12.422514	0.000103	1.034387	0.350460	-0.008381
1260	6.2950e-01	-10.3329	-12.465704	0.000107	1.066052	0.361188	-0.008638
1261	6.3000e-01	-10.3762	-12.506756	0.000101	1.013277	0.343307	-0.008210
1262	6.3050e-01	-10.4002	-12.548236	0.000102	1.023832	0.346884	-0.008296
1263	6.3100e-01	-10.4484	-12.589716	0.000102	1.023832	0.346884	-0.008296
1264	6.3150e-01	-10.5157	-12.624781	0.000087	0.865507	0.293242	-0.007013
1265	6.3200e-01	-10.5446	-12.665833	0.000101	1.013277	0.343307	-0.008210
1266	6.3250e-01	-10.5911	-12.708168	0.000104	1.044942	0.354036	-0.008467
1267	6.3300e-01	-10.6008	-12.759055	0.000126	1.256041	0.425558	-0.010177
1268	6.3350e-01	-10.6553	-12.787706	0.000071	0.707183	0.239600	-0.005730
1269	6.3400e-01	-10.6778	-12.839449	0.000128	1.277151	0.432710	-0.010349
1270	6.3450e-01	-10.7612	-12.862968	0.000058	0.580523	0.196687	-0.004704
1271	6.3500e-01	-10.7965	-12.895468	0.000080	0.802178	0.271785	-0.006500
1272	6.3550e-01	-10.8302	-12.950631	0.000136	1.361591	0.461319	-0.011033
1273	6.3600e-01	-10.8510	-12.990401	0.000098	0.981612	0.332579	-0.007954
1274	6.3650e-01	-10.8687	-13.040433	0.000123	1.234931	0.418406	-0.010006
1275	6.3700e-01	-10.9409	-13.066946	0.000065	0.654408	0.221719	-0.005303
1276	6.3750e-01	-10.9746	-13.111846	0.000111	1.108272	0.375493	-0.008980
1277	6.3800e-01	-11.0018	-13.152471	0.000100	1.002722	0.339731	-0.008125
1278	6.3850e-01	-11.0580	-13.194378	0.000103	1.034387	0.350460	-0.008381
1279	6.3900e-01	-11.0933	-13.222601	0.000070	0.696628	0.236024	-0.005645
1280	6.3950e-01	-11.1302	-13.270068	0.000117	1.171601	0.396949	-0.009493
1281	6.4000e-01	-11.1606	-13.316251	0.000114	1.139936	0.386221	-0.009237
1282	6.4050e-01	-11.2296	-13.347895	0.000078	0.781068	0.264633	-0.006329
1283	6.4100e-01	-11.2665	-13.386809	0.000096	0.960502	0.325427	-0.007783
1284	6.4150e-01	-11.2906	-13.427861	0.000101	1.013277	0.343307	-0.008210
1285	6.4200e-01	-11.3147	-13.474472	0.000115	1.150491	0.389797	-0.009322
1286	6.4250e-01	-11.3644	-13.509965	0.000088	0.876062	0.296818	-0.007099
1287	6.4300e-01	-11.4205	-13.539044	0.000072	0.717738	0.243176	-0.005816
1288	6.4350e-01	-11.4318	-13.589504	0.000125	1.245486	0.421982	-0.010092
1289	6.4400e-01	-11.4959	-13.623286	0.000083	0.833842	0.282513	-0.006756
1290	6.4450e-01	-11.5457	-13.656641	0.000082	0.823287	0.278937	-0.006671
1291	6.4500e-01	-11.5874	-13.707101	0.000125	1.245486	0.421982	-0.010092
1292	6.4550e-01	-11.6162	-13.740028	0.000081	0.812732	0.275361	-0.006585
1293	6.4600e-01	-11.6612	-13.784928	0.000111	1.108272	0.375493	-0.008980
1294	6.4650e-01	-11.6916	-13.821704	0.000091	0.907727	0.307546	-0.007355
1295	6.4700e-01	-11.7574	-13.858480	0.000091	0.907727	0.307546	-0.007355
1296	6.4750e-01	-11.7815	-13.897394	0.000096	0.960502	0.325427	-0.007783
1297	6.4800e-01	-11.8136	-13.930321	0.000081	0.812732	0.275361	-0.006585
1298	6.4850e-01	-11.8986	-13.966241	0.000089	0.886617	0.300394	-0.007184
1299	6.4900e-01	-11.9275	-14.006438	0.000099	0.992167	0.336155	-0.008039
1300	6.4950e-01	-11.9596	-14.046207	0.000098	0.981612	0.332579	-0.007954
1301	6.5000e-01	-11.9515	-14.096667	-0.000125	-1.245486	-0.421982	-0.010092
1302	6.5050e-01	-12.0045	-14.137719	0.000101	1.013277	0.343307	-0.008210
1303	6.5100e-01	-12.0799	-14.170646	0.000081	0.812732	0.275361	-0.006585
1304	6.5150e-01	-12.0783	-14.211698	-0.000101	-1.013277	-0.343307	-0.008210
1305	6.5200e-01	-12.1521	-14.247619	0.000089	0.886617	0.300394	-0.007184
1306	6.5250e-01	-12.1858	-14.286533	0.000096	0.960502	0.325427	-0.007783
1307	6.5300e-01	-12.2403	-14.312618	0.000064	0.643853	0.218143	-0.005217
1308	6.5350e-01	-12.2868	-14.352815	0.000099	0.992167	0.336155	-0.008039
1309	6.5400e-01	-12.2900	-14.402419	0.000122	1.224376	0.414830	-0.009921
1310	6.5450e-01	-12.3366	-14.437485	0.000087	0.865507	0.293242	-0.007013
1311	6.5500e-01	-12.3831	-14.476398	0.000096	0.960502	0.325427	-0.007783
1312	6.5550e-01	-12.4296	-14.513174	0.000091	0.907727	0.307546	-0.007355
1313	6.5600e-01	-12.4873	-14.553799	0.000100	1.002722	0.339731	-0.008125
1314	6.5650e-01	-12.4873	-14.599982	0.000114	1.139936	0.386221	-0.009237
1315	6.5700e-01	-12.5515	-14.625640	0.000063	0.633298	0.214567	-0.005132
1316	6.5750e-01	-12.6077	-14.661988	0.000090	0.897172	0.303970	-0.007270
1317	6.5800e-01	-12.6109	-14.710309	0.000119	1.192711	0.404102	-0.009664
1318	6.5850e-01	-12.6750	-14.748796	0.000095	0.949947	0.321851	-0.007697
1319	6.5900e-01	-12.7007	-14.787282	0.000095	0.949947	0.321851	-0.007697
1320	6.5950e-01	-12.7376	-14.823203	0.000089	0.886617	0.300394	-0.007184
1321	6.6000e-01	-12.7825	-14.862544	0.000097	0.971057	0.329003	-0.007868
1322	6.6050e-01	-12.8274	-14.892478	0.000074	0.738848	0.250328	-0.005987
1323	6.6100e-01	-12.8290	-14.939944	0.000117	1.171601	0.396949	-0.009493
1324	6.6150e-01	-12.8932	-14.998101	0.000144	1.435476	0.486352	-0.011631
1325	6.6200e-01	-12.9510	-15.003660	0.000014	0.137215	0.046490	-0.001112
1326	6.6250e-01	-12.9798	-15.049844	0.000114	1.139936	0.386221	-0.009237
1327	6.6300e-01	-13.0135	-15.089185	0.000097	0.971057	0.329003	-0.007868
1328	6.6350e-01	-13.0921	-15.122540	0.000082	0.823287	0.278937	-0.006671
1329	6.6400e-01	-13.1210	-15.158461	0.000089	0.886617	0.300394	-0.007184
1330	6.6450e-01	-13.1371	-15.202079	0.000108	1.076607	0.364764	-0.008724
1331	6.6500e-01	-13.1740	-15.239710	0.000093	0.928837	0.314699	-0.007526
1332	6.6550e-01	-13.2269	-15.270499	0.000076	0.759958	0.257481	-0.006158
1333	6.6600e-01	-13.2510	-15.323096	0.000130	1.298261	0.439863	-0.010520
1334	6.6650e-01	-13.3007	-15.356879	0.000083	0.833842	0.282513	-0.006756
1335	6.6700e-01	-13.3440	-15.388523	0.000078	0.781068	0.264633	-0.006329
1336	6.6750e-01	-13.3617	-15.421450	0.000081	0.812732	0.275361	-0.006585
1337	6.6800e-01	-13.4258	-15.458654	0.000092	0.918282	0.311122	-0.007441
1338	6.6850e-01	-13.4387	-15.501416	0.000106	1.055497	0.357612	-0.008553
1339	6.6900e-01	-13.5125	-15.539902	0.000095	0.949947	0.321851	-0.007697
1340	6.6950e-01	-13.5413	-15.574540	0.000085	0.854952	0.289666	-0.006928
1341	6.7000e-01	-13.5991	-15.603619	0.000072	0.717738	0.243176	-0.005816
1342	6.7050e-01	-13.6087	-15.648947	0.000112	1.118827	0.379069	-0.009066
1343	6.7100e-01	-13.6440	-15.693420	0.000110	1.097717	0.371916	-0.008895
1344	6.7150e-01	-13.6616	-15.733617	0.000099	0.992167	0.336155	-0.008039
1345	6.7200e-01	-13.7066	-15.772531	0.000096	0.960502	0.325427	-0.007783
1346	6.7250e-01	-13.7852	-15.800754	0.000070	0.696628	0.236024	-0.005645
1347	6.7300e-01	-13.8397	-15.838813	0.000094	0.939392	0.318275	-0.007612
1348	6.7350e-01	-13.8814	-15.870884	0.000079	0.791623	0.268209	-0.006414
1349	6.7400e-01	-13.9103	-15.911936	0.000101	1.013277	0.343307	-0.008210
1350	6.7450e-01	-13.9408	-15.947429	0.000088	0.876062	0.296818	-0.007099
1351	6.7500e-01	-13.9681	-15.985916	0.000095	0.949947	0.321851	-0.007697
1352	6.7550e-01	-14.0146	-16.020553	0.000085	0.854952	0.289666	-0.006928
1353	6.7600e-01	-14.0771	-16.058612	0.000094	0.939392	0.318275	-0.007612
1354	6.7650e-01	-14.0836	-16.099664	0.000101	1.013277	0.343307	-0.008210
1355	6.7700e-01	-14.1333	-16.130025	0.000075	0.749403	0.253905	-0.006072
1356	6.7750e-01	-14.1670	-16.172788	0.000106	1.055497	0.357612	-0.008553
1357	6.7800e-01	-14.2231	-16.204005	0.000077	0.770513	0.261057	-0.006243
1358	6.7850e-01	-14.2536	-16.244629	0.000100	1.002722	0.339731	-0.008125
1359	6.7900e-01	-14.2809	-16.285253	0.000100	1.002722	0.339731	-0.008125
1360	6.7950e-01	-14.3707	-16.307062	0.000054	0.538303	0.182382	-0.004362
1361	6.8000e-01	-14.4028	-16.354956	0.000118	1.182156	0.400525	-0.009579
1362	6.8050e-01	-14.4188	-16.387456	0.000080	0.802178	0.271785	-0.006500
1363	6.8100e-01	-14.4590	-16.426797	0.000097	0.971057	0.329003	-0.007868
1364	6.8150e-01	-14.4782	-16.472553	0.000113	1.129382	0.382645	-0.009151
1365	6.8200e-01	-14.5263	-16.507191	0.000085	0.854952	0.289666	-0.006928
1366	6.8250e-01	-14.5953	-16.533276	0.000064	0.643853	0.218143	-0.005217
1367	6.8300e-01	-14.6162	-16.571762	0.000095	0.949947	0.321851	-0.007697
1368	6.8350e-01	-14.6611	-16.612814	0.000101	1.013277	0.343307	-0.008210
1369	6.8400e-01	-14.7028	-16.647880	0.000087	0.865507	0.293242	-0.007013
1370	6.8450e-01	-14.7445	-16.681662	0.000083	0.833842	0.282513	-0.006756
1371	6.8500e-01	-14.8007	-16.713306	0.000078	0.781068	0.264633	-0.006329
1372	6.8550e-01	-14.8247	-16.750082	0.000091	0.907727	0.307546	-0.007355
1373	6.8600e-01	-14.8375	-16.798831	0.000120	1.203266	0.407678	-0.009750
1374	6.8650e-01	-14.8857	-16.832186	0.000082	0.823287	0.278937	-0.006671
1375	6.8700e-01	-14.9627	-16.863403	0.000077	0.770513	0.261057	-0.006243
1376	6.8750e-01	-14.9932	-16.899323	0.000089	0.886617	0.300394	-0.007184
1377	6.8800e-01	-15.0333	-16.938665	0.000097	0.971057	0.329003	-0.007868
1378	6.8850e-01	-15.0573	-16.972447	0.000083	0.833842	0.282513	-0.006756
1379	6.8900e-01	-15.0750	-17.013499	0.000101	1.013277	0.343307	-0.008210
1380	6.8950e-01	-15.1472	-17.048992	0.000088	0.876062	0.296818	-0.007099
1381	6.9000e-01	-15.1712	-17.087906	0.000096	0.960502	0.325427	-0.007783
1382	6.9050e-01	-15.2081	-17.117412	0.000073	0.728293	0.246752	-0.005901
1383	6.9100e-01	-15.2627	-17.147346	0.000074	0.738848	0.250328	-0.005987
1384	6.9150e-01	-15.2787	-17.190536	0.000107	1.066052	0.361188	-0.008638
1385	6.9200e-01	-15.3349	-17.228595	0.000094	0.939392	0.318275	-0.007612
1386	6.9250e-01	-15.3718	-17.267509	0.000096	0.960502	0.325427	-0.007783
1387	6.9300e-01	-15.4215	-17.296587	0.000072	0.717738	0.243176	-0.005816
1388	6.9350e-01	-15.4664	-17.328231	0.000078	0.781068	0.264633	-0.006329
1389	6.9400e-01	-15.5049	-17.371849	0.000108	1.076607	0.364764	-0.008724
1390	6.9450e-01	-15.5482	-17.407342	0.000088	0.876062	0.296818	-0.007099
1391	6.9500e-01	-15.5771	-17.443690	0.000090	0.897172	0.303970	-0.007270
1392	6.9550e-01	-15.6092	-17.480466	0.000091	0.907727	0.307546	-0.007355
1393	6.9600e-01	-15.6621	-17.518097	0.000093	0.928837	0.314699	-0.007526
1394	6.9650e-01	-15.7199	-17.545037	0.000066	0.664963	0.225296	-0.005388
1395	6.9700e-01	-15.7327	-17.589938	0.000111	1.108272	0.375493	-0.008980
1396	6.9750e-01	-15.7616	-17.621155	0.000077	0.770513	0.261057	-0.006243
1397	6.9800e-01	-15.8161	-17.655792	0.000085	0.854952	0.289666	-0.006928
1398	6.9850e-01	-15.8835	-17.689575	0.000083	0.833842	0.282513	-0.006756
1399	6.9900e-01	-15.9044	-17.728489	0.000096	0.960502	0.325427	-0.007783
1400	6.9950e-01	-15.9493	-17.757567	0.000072	0.717738	0.243176	-0.005816
1401	7.0000e-01	-15.9942	-17.796481	0.000096	0.960502	0.325427	-0.007783
1402	7.0050e-01	-16.0167	-17.852072	0.000137	1.372146	0.464896	-0.011118
1403	7.0100e-01	-16.0744	-17.869605	0.000043	0.432754	0.146621	-0.003507
1404	7.0150e-01	-16.1145	-17.897401	0.000069	0.686073	0.232448	-0.005559
1405	7.0200e-01	-16.1081	-17.953420	-0.000138	-1.382701	-0.468472	-0.011204
1406	7.0250e-01	-16.1979	-17.970525	0.000042	0.422199	0.143045	-0.003421
1407	7.0300e-01	-16.2220	-18.010294	0.000098	0.981612	0.332579	-0.007954
1408	7.0350e-01	-16.2669	-18.054767	0.000110	1.097717	0.371916	-0.008895
1409	7.0400e-01	-16.3199	-18.088977	0.000084	0.844397	0.286090	-0.006842
1410	7.0450e-01	-16.3279	-18.127035	0.000094	0.939392	0.318275	-0.007612
1411	7.0500e-01	-16.3680	-18.162101	0.000087	0.865507	0.293242	-0.007013
1412	7.0550e-01	-16.4306	-18.189469	0.000068	0.675518	0.228872	-0.005474
1413	7.0600e-01	-16.4386	-18.234797	0.000112	1.118827	0.379069	-0.009066
1414	7.0650e-01	-16.4931	-18.265158	0.000075	0.749403	0.253905	-0.006072
1415	7.0700e-01	-16.5236	-18.298513	0.000082	0.823287	0.278937	-0.006671
1416	7.0750e-01	-16.5830	-18.333151	0.000085	0.854952	0.289666	-0.006928
1417	7.0800e-01	-16.6215	-18.367361	0.000084	0.844397	0.286090	-0.006842
1418	7.0850e-01	-16.6551	-18.404137	0.000091	0.907727	0.307546	-0.007355
1419	7.0900e-01	-16.6744	-18.442195	0.000094	0.939392	0.318275	-0.007612
1420	7.0950e-01	-16.7209	-18.478543	0.000090	0.897172	0.303970	-0.007270
1421	7.1000e-01	-16.7867	-18.506767	0.000070	0.696628	0.236024	-0.005645
1422	7.1050e-01	-16.8236	-18.545253	0.000095	0.949947	0.321851	-0.007697
1423	7.1100e-01	-16.8444	-18.589298	0.000109	1.087162	0.368340	-0.008809
1424	7.1150e-01	-16.9006	-18.617949	0.000071	0.707183	0.239600	-0.005730
1425	7.1200e-01	-16.9423	-18.653014	0.000087	0.865507	0.293242	-0.007013
1426	7.1250e-01	-16.9792	-18.694067	0.000101	1.013277	0.343307	-0.008210
1427	7.1300e-01	-17.0289	-18.718014	0.000059	0.591078	0.200263	-0.004789
1428	7.1350e-01	-17.0546	-18.758638	0.000100	1.002722	0.339731	-0.008125
1429	7.1400e-01	-17.1027	-18.794986	0.000090	0.897172	0.303970	-0.007270
1430	7.1450e-01	-17.1188	-18.834755	0.000098	0.981612	0.332579	-0.007954
1431	7.1500e-01	-17.1669	-18.867255	0.000080	0.802178	0.271785	-0.006500
1432	7.1550e-01	-17.2263	-18.902320	0.000087	0.865507	0.293242	-0.007013
1433	7.1600e-01	-17.2631	-18.942517	0.000099	0.992167	0.336155	-0.008039
1434	7.1650e-01	-17.3193	-18.968602	0.000064	0.643853	0.218143	-0.005217
1435	7.1700e-01	-17.3289	-19.007088	0.000095	0.949947	0.321851	-0.007697
1436	7.1750e-01	-17.3722	-19.046430	0.000097	0.971057	0.329003	-0.007868
1437	7.1800e-01	-17.4091	-19.080640	0.000084	0.844397	0.286090	-0.006842
1438	7.1850e-01	-17.4492	-19.110146	0.000073	0.728293	0.246752	-0.005901
1439	7.1900e-01	-17.5134	-19.146066	0.000089	0.886617	0.300394	-0.007184
1440	7.1950e-01	-17.5375	-19.189257	0.000107	1.066052	0.361188	-0.008638
1441	7.2000e-01	-17.5968	-19.215342	0.000064	0.643853	0.218143	-0.005217
1442	7.2050e-01	-17.6065	-19.259387	0.000109	1.087162	0.368340	-0.008809
1443	7.2100e-01	-17.6706	-19.288038	0.000071	0.707183	0.239600	-0.005730
1444	7.2150e-01	-17.6947	-19.323103	0.000087	0.865507	0.293242	-0.007013
1445	7.2200e-01	-17.7220	-19.364583	0.000102	1.023832	0.346884	-0.008296
1446	7.2250e-01	-17.7829	-19.396655	0.000079	0.791623	0.268209	-0.006414
1447	7.2300e-01	-17.7974	-19.430865	0.000084	0.844397	0.286090	-0.006842
1448	7.2350e-01	-17.8679	-19.459088	0.000070	0.696628	0.236024	-0.005645
1449	7.2400e-01	-17.8872	-19.515962	0.000140	1.403811	0.475624	-0.011375
1450	7.2450e-01	-17.9417	-19.530502	0.000036	0.358869	0.121588	-0.002908
1451	7.2500e-01	-17.9802	-19.570698	0.000099	0.992167	0.336155	-0.008039
1452	7.2550e-01	-18.0123	-19.601060	0.000075	0.749403	0.253905	-0.006072
1453	7.2600e-01	-18.0524	-19.639974	0.000096	0.960502	0.325427	-0.007783
1454	7.2650e-01	-18.0797	-19.678460	0.000095	0.949947	0.321851	-0.007697
1455	7.2700e-01	-18.1054	-19.715236	0.000091	0.907727	0.307546	-0.007355
1456	7.2750e-01	-18.1760	-19.751156	0.000089	0.886617	0.300394	-0.007184
1457	7.2800e-01	-18.2417	-19.778097	0.000066	0.664963	0.225296	-0.005388
1458	7.2850e-01	-18.2481	-19.822142	0.000109	1.087162	0.368340	-0.008809
1459	7.2900e-01	-18.2963	-19.855497	0.000082	0.823287	0.278937	-0.006671
1460	7.2950e-01	-18.3284	-19.885431	0.000074	0.738848	0.250328	-0.005987
1461	7.3000e-01	-18.3797	-19.917930	0.000080	0.802178	0.271785	-0.006500
1462	7.3050e-01	-18.4006	-19.956844	0.000096	0.960502	0.325427	-0.007783
1463	7.3100e-01	-18.4808	-19.986778	0.000074	0.738848	0.250328	-0.005987
1464	7.3150e-01	-18.4904	-20.033389	0.000115	1.150491	0.389797	-0.009322
1465	7.3200e-01	-18.5369	-20.071448	0.000094	0.939392	0.318275	-0.007612
1466	7.3250e-01	-18.5963	-20.100526	0.000072	0.717738	0.243176	-0.005816
1467	7.3300e-01	-18.6364	-20.135591	0.000087	0.865507	0.293242	-0.007013
1468	7.3350e-01	-18.6652	-20.169374	0.000083	0.833842	0.282513	-0.006756
1469	7.3400e-01	-18.6669	-20.217268	0.000118	1.182156	0.400525	-0.009579
1470	7.3450e-01	-18.7150	-20.250195	0.000081	0.812732	0.275361	-0.006585
1471	7.3500e-01	-18.7711	-20.271576	0.000053	0.527748	0.178806	-0.004276
1472	7.3550e-01	-18.8128	-20.310062	0.000095	0.949947	0.321851	-0.007697
1473	7.3600e-01	-18.8626	-20.343845	0.000083	0.833842	0.282513	-0.006756
1474	7.3650e-01	-18.8979	-20.384897	0.000101	1.013277	0.343307	-0.008210
1475	7.3700e-01	-18.9283	-20.419962	0.000087	0.865507	0.293242	-0.007013
1476	7.3750e-01	-18.9829	-20.457593	0.000093	0.928837	0.314699	-0.007526
1477	7.3800e-01	-19.0214	-20.490520	0.000081	0.812732	0.275361	-0.006585
1478	7.3850e-01	-19.0663	-20.525158	0.000085	0.854952	0.289666	-0.006928
1479	7.3900e-01	-19.0936	-20.565355	0.000099	0.992167	0.336155	-0.008039
1480	7.3950e-01	-19.1337	-20.596571	0.000077	0.770513	0.261057	-0.006243
1481	7.4000e-01	-19.1802	-20.628643	0.000079	0.791623	0.268209	-0.006414
1482	7.4050e-01	-19.2299	-20.674399	0.000113	1.129382	0.382645	-0.009151
1483	7.4100e-01	-19.2444	-20.706471	0.000079	0.791623	0.268209	-0.006414
1484	7.4150e-01	-19.2829	-20.743247	0.000091	0.907727	0.307546	-0.007355
1485	7.4200e-01	-19.3198	-20.787720	0.000110	1.097717	0.371916	-0.008895
1486	7.4250e-01	-19.3743	-20.809529	0.000054	0.538303	0.182382	-0.004362
1487	7.4300e-01	-19.4192	-20.842884	0.000082	0.823287	0.278937	-0.006671
1488	7.4350e-01	-19.4417	-20.879659	0.000091	0.907727	0.307546	-0.007355
1489	7.4400e-01	-19.4914	-20.916007	0.000090	0.897172	0.303970	-0.007270
1490	7.4450e-01	-19.5444	-20.945086	0.000072	0.717738	0.243176	-0.005816
1491	7.4500e-01	-19.6101	-20.983572	0.000095	0.949947	0.321851	-0.007697
1492	7.4550e-01	-19.6182	-21.024624	0.000101	1.013277	0.343307	-0.008210
1493	7.4600e-01	-19.6679	-21.049854	0.000062	0.622743	0.210991	-0.005046
1494	7.4650e-01	-19.6695	-21.094755	0.000111	1.108272	0.375493	-0.008980
1495	7.4700e-01	-19.7577	-21.132813	0.000094	0.939392	0.318275	-0.007612
1496	7.4750e-01	-19.7802	-21.162747	0.000074	0.738848	0.250328	-0.005987
1497	7.4800e-01	-19.8379	-21.193536	0.000076	0.759958	0.257481	-0.006158
1498	7.4850e-01	-19.8492	-21.241430	0.000118	1.182156	0.400525	-0.009579
1499	7.4900e-01	-19.8957	-21.265805	0.000060	0.601633	0.203839	-0.004875
1500	7.4950e-01	-19.9262	-21.314554	0.000120	1.203266	0.407678	-0.009750
1501	7.5000e-01	-19.9791	-21.345771	0.000077	0.770513	0.261057	-0.006243
1502	7.5050e-01	-19.8941	-21.354751	-0.000022	-0.221654	-0.075099	-0.001796
1503	7.5100e-01	-19.8716	-21.336791	0.000044	0.443309	0.150197	0.003592
1504	7.5150e-01	-19.8107	-21.312844	0.000059	0.591078	0.200263	0.004789
1505	7.5200e-01	-19.7994	-21.286759	0.000064	0.643853	0.218143	0.005217
1506	7.5250e-01	-19.7609	-21.255542	0.000077	0.770513	0.261057	0.006243
1507	7.5300e-01	-19.7192	-21.228174	0.000068	0.675518	0.228872	0.005474
1508	7.5350e-01	-19.6695	-21.212779	0.000038	0.379979	0.128740	0.003079
1509	7.5400e-01	-19.6374	-21.179425	0.000082	0.823287	0.278937	0.006671
1510	7.5450e-01	-19.5957	-21.158043	0.000053	0.527748	0.178806	0.004276
1511	7.5500e-01	-19.5380	-21.128537	0.000073	0.728293	0.246752	0.005901
1512	7.5550e-01	-19.5155	-21.098603	0.000074	0.738848	0.250328	0.005987
1513	7.5600e-01	-19.4770	-21.075084	0.000058	0.580523	0.196687	0.004704
1514	7.5650e-01	-19.4241	-21.042585	0.000080	0.802178	0.271785	0.006500
1515	7.5700e-01	-19.4016	-21.016927	0.000063	0.633298	0.214567	0.005132
1516	7.5750e-01	-19.3503	-20.991697	0.000062	0.622743	0.210991	0.005046
1517	7.5800e-01	-19.2973	-20.963901	0.000069	0.686073	0.232448	0.005559
1518	7.5850e-01	-19.2749	-20.930974	0.000081	0.812732	0.275361	0.006585
1519	7.5900e-01	-19.2299	-20.907455	0.000058	0.580523	0.196687	0.004704
1520	7.5950e-01	-19.1706	-20.884363	0.000057	0.569968	0.193110	0.004618
1521	7.6000e-01	-19.1176	-20.854857	0.000073	0.728293	0.246752	0.005901
1522	7.6050e-01	-19.1096	-20.818081	0.000091	0.907727	0.307546	0.007355
1523	7.6100e-01	-19.0872	-20.792424	0.000063	0.633298	0.214567	0.005132
1524	7.6150e-01	-19.0326	-20.761635	0.000076	0.759958	0.257481	0.006158
1525	7.6200e-01	-18.9877	-20.741536	0.000050	0.496083	0.168078	0.004020
1526	7.6250e-01	-18.9765	-20.704761	0.000091	0.907727	0.307546	0.007355
1527	7.6300e-01	-18.8433	-20.697919	0.000017	0.168879	0.057218	0.001368
1528	7.6350e-01	-18.8610	-20.656439	-0.000102	-1.023832	-0.346884	0.008296
1529	7.6400e-01	-18.8257	-20.623512	0.000081	0.812732	0.275361	0.006585
1530	7.6450e-01	-18.8032	-20.589302	0.000084	0.844397	0.286090	0.006842
1531	7.6500e-01	-18.7294	-20.574335	0.000037	0.369424	0.125164	0.002993
1532	7.6550e-01	-18.7246	-20.533710	0.000100	1.002722	0.339731	0.008125
1533	7.6600e-01	-18.6524	-20.505060	0.000071	0.707183	0.239600	0.005730
1534	7.6650e-01	-18.6316	-20.470850	0.000084	0.844397	0.286090	0.006842
1535	7.6700e-01	-18.5578	-20.449041	0.000054	0.538303	0.182382	0.004362
1536	7.6750e-01	-18.5497	-20.417396	0.000078	0.781068	0.264633	0.006329
1537	7.6800e-01	-18.4840	-20.390028	0.000068	0.675518	0.228872	0.005474
1538	7.6850e-01	-18.4776	-20.352825	0.000092	0.918282	0.311122	0.007441
1539	7.6900e-01	-18.4262	-20.331444	0.000053	0.527748	0.178806	0.004276
1540	7.6950e-01	-18.3877	-20.292102	0.000097	0.971057	0.329003	0.007868
1541	7.7000e-01	-18.3508	-20.261313	0.000076	0.759958	0.257481	0.006158
1542	7.7050e-01	-18.3203	-20.233090	0.000070	0.696628	0.236024	0.005645
1543	7.7100e-01	-18.2850	-20.201873	0.000077	0.770513	0.261057	0.006243
1544	7.7150e-01	-18.2514	-20.168946	0.000081	0.812732	0.275361	0.006585
1545	7.7200e-01	-18.2048	-20.140723	0.000070	0.696628	0.236024	0.005645
1546	7.7250e-01	-18.1647	-20.119342	0.000053	0.527748	0.178806	0.004276
1547	7.7300e-01	-18.0829	-20.092829	0.000065	0.654408	0.221719	0.005303
1548	7.7350e-01	-18.0701	-20.047501	0.000112	1.118827	0.379069	0.009066
1549	7.7400e-01	-18.0412	-20.023981	0.000058	0.580523	0.196687	0.004704
1550	7.7450e-01	-17.9770	-19.994475	0.000073	0.728293	0.246752	0.005901
1551	7.7500e-01	-17.9706	-19.960265	0.000084	0.844397	0.286090	0.006842
1552	7.7550e-01	-17.9145	-19.926483	0.000083	0.833842	0.282513	0.006756
1553	7.7600e-01	-17.8679	-19.899542	0.000066	0.664963	0.225296	0.005388
1554	7.7650e-01	-17.8166	-19.869608	0.000074	0.738848	0.250328	0.005987
1555	7.7700e-01	-17.8086	-19.833688	0.000089	0.886617	0.300394	0.007184
1556	7.7750e-01	-17.7653	-19.797340	0.000090	0.897172	0.303970	0.007270
1557	7.7800e-01	-17.6963	-19.780235	0.000042	0.422199	0.143045	0.003421
1558	7.7850e-01	-17.6770	-19.741748	0.000095	0.949947	0.321851	0.007697
1559	7.7900e-01	-17.6305	-19.715663	0.000064	0.643853	0.218143	0.005217
1560	7.7950e-01	-17.5535	-19.687012	0.000071	0.707183	0.239600	0.005730
1561	7.8000e-01	-17.5663	-19.647671	-0.000097	-0.971057	-0.329003	0.007868
1562	7.8050e-01	-17.4781	-19.637835	0.000024	0.242764	0.082251	0.001967
1563	7.8100e-01	-17.4813	-19.591652	-0.000114	-1.139936	-0.386221	0.009237
1564	7.8150e-01	-17.4172	-19.565139	0.000065	0.654408	0.221719	0.005303
1565	7.8200e-01	-17.4107	-19.522377	0.000106	1.055497	0.357612	0.008553
1566	7.8250e-01	-17.3450	-19.498857	0.000058	0.580523	0.196687	0.004704
1567	7.8300e-01	-17.3161	-19.465930	0.000081	0.812732	0.275361	0.006585
1568	7.8350e-01	-17.2551	-19.444121	0.000054	0.538303	0.182382	0.004362
1569	7.8400e-01	-17.2439	-19.398365	0.000113	1.129382	0.382645	0.009151
1570	7.8450e-01	-17.2022	-19.365438	0.000081	0.812732	0.275361	0.006585
1571	7.8500e-01	-17.1573	-19.339781	0.000063	0.633298	0.214567	0.005132
1572	7.8550e-01	-17.1396	-19.304288	0.000088	0.876062	0.296818	0.007099
1573	7.8600e-01	-17.0787	-19.280341	0.000059	0.591078	0.200263	0.004789
1574	7.8650e-01	-17.0386	-19.238006	0.000104	1.044942	0.354036	0.008467
1575	7.8700e-01	-16.9567	-19.213631	0.000060	0.601633	0.203839	0.004875
1576	7.8750e-01	-16.9567	-19.185408	-0.000070	-0.696628	-0.236024	0.005645
1577	7.8800e-01	-16.9295	-19.146066	0.000097	0.971057	0.329003	0.007868
1578	7.8850e-01	-16.8653	-19.113567	0.000080	0.802178	0.271785	0.006500
1579	7.8900e-01	-16.8075	-19.090048	0.000058	0.580523	0.196687	0.004704
1580	7.8950e-01	-16.7819	-19.050706	0.000097	0.971057	0.329003	0.007868
1581	7.9000e-01	-16.7498	-19.021627	0.000072	0.717738	0.243176	0.005816
1582	7.9050e-01	-16.7305	-18.986135	0.000088	0.876062	0.296818	0.007099
1583	7.9100e-01	-16.6953	-18.952780	0.000082	0.823287	0.278937	0.006671
1584	7.9150e-01	-16.6407	-18.920280	0.000080	0.802178	0.271785	0.006500
1585	7.9200e-01	-16.6006	-18.891202	0.000072	0.717738	0.243176	0.005816
1586	7.9250e-01	-16.5621	-18.859985	0.000077	0.770513	0.261057	0.006243
1587	7.9300e-01	-16.4995	-18.828341	0.000078	0.781068	0.264633	0.006329
1588	7.9350e-01	-16.4755	-18.794131	0.000084	0.844397	0.286090	0.006842
1589	7.9400e-01	-16.4225	-18.769329	0.000061	0.612188	0.207415	0.004960
1590	7.9450e-01	-16.3872	-18.733408	0.000089	0.886617	0.300394	0.007184
1591	7.9500e-01	-16.3423	-18.706895	0.000065	0.654408	0.221719	0.005303
1592	7.9550e-01	-16.3359	-18.660712	0.000114	1.139936	0.386221	0.009237
1593	7.9600e-01	-16.2814	-18.626502	0.000084	0.844397	0.286090	0.006842
1594	7.9650e-01	-16.2509	-18.599561	0.000066	0.664963	0.225296	0.005388
1595	7.9700e-01	-16.1626	-18.575614	0.000059	0.591078	0.200263	0.004789
1596	7.9750e-01	-16.1594	-18.535845	0.000098	0.981612	0.332579	0.007954
1597	7.9800e-01	-16.1161	-18.509332	0.000065	0.654408	0.221719	0.005303
1598	7.9850e-01	-16.1129	-18.464432	0.000111	1.108272	0.375493	0.008980
1599	7.9900e-01	-16.0455	-18.439629	0.000061	0.612188	0.207415	0.004960
1600	7.9950e-01	-15.9830	-18.405847	0.000083	0.833842	0.282513	0.006756
1601	8.0000e-01	-15.9589	-18.367788	0.000094	0.939392	0.318275	0.007612
1602	8.0050e-01	-15.9156	-18.338710	0.000072	0.717738	0.243176	0.005816
1603	8.0100e-01	-15.8514	-18.310059	0.000071	0.707183	0.239600	0.005730
1604	8.0150e-01	-15.8258	-18.282691	0.000068	0.675518	0.228872	0.005474
1605	8.0200e-01	-15.7969	-18.241639	0.000101	1.013277	0.343307	0.008210
1606	8.0250e-01	-15.7391	-18.214699	0.000066	0.664963	0.225296	0.005388
1607	8.0300e-01	-15.7343	-18.169798	0.000111	1.108272	0.375493	0.008980
1608	8.0350e-01	-15.6701	-18.142002	0.000069	0.686073	0.232448	0.005559
1609	8.0400e-01	-15.6509	-18.115917	0.000064	0.643853	0.218143	0.005217
1610	8.0450e-01	-15.5755	-18.077003	0.000096	0.960502	0.325427	0.007783
1611	8.0500e-01	-15.5434	-18.046642	0.000075	0.749403	0.253905	0.006072
1612	8.0550e-01	-15.5129	-18.011577	0.000087	0.865507	0.293242	0.007013
1613	8.0600e-01	-15.4841	-17.982926	0.000071	0.707183	0.239600	0.005730
1614	8.0650e-01	-15.4520	-17.947433	0.000088	0.876062	0.296818	0.007099
1615	8.0700e-01	-15.3894	-17.915361	0.000079	0.791623	0.268209	0.006414
1616	8.0750e-01	-15.3204	-17.884999	0.000075	0.749403	0.253905	0.006072
1617	8.0800e-01	-15.3284	-17.850789	-0.000084	-0.844397	-0.286090	0.006842
1618	8.0850e-01	-15.2755	-17.814441	0.000090	0.897172	0.303970	0.007270
1619	8.0900e-01	-15.2033	-17.787073	0.000068	0.675518	0.228872	0.005474
1620	8.0950e-01	-15.1857	-17.742600	0.000110	1.097717	0.371916	0.008895
1621	8.1000e-01	-15.1552	-17.718653	0.000059	0.591078	0.200263	0.004789
1622	8.1050e-01	-15.1215	-17.677601	0.000101	1.013277	0.343307	0.008210
1623	8.1100e-01	-15.0702	-17.645957	0.000078	0.781068	0.264633	0.006329
1624	8.1150e-01	-15.0060	-17.609609	0.000090	0.897172	0.303970	0.007270
1625	8.1200e-01	-14.9916	-17.575399	0.000084	0.844397	0.286090	0.006842
1626	8.1250e-01	-14.9659	-17.544182	0.000077	0.770513	0.261057	0.006243
1627	8.1300e-01	-14.8873	-17.512538	0.000078	0.781068	0.264633	0.006329
1628	8.1350e-01	-14.8696	-17.487736	0.000061	0.612188	0.207415	0.004960
1629	8.1400e-01	-14.8408	-17.438986	0.000120	1.203266	0.407678	0.009750
1630	8.1450e-01	-14.7638	-17.417177	0.000054	0.538303	0.182382	0.004362
1631	8.1500e-01	-14.7477	-17.374843	0.000104	1.044942	0.354036	0.008467
1632	8.1550e-01	-14.7028	-17.342771	0.000079	0.791623	0.268209	0.006414
1633	8.1600e-01	-14.6787	-17.306422	0.000090	0.897172	0.303970	0.007270
1634	8.1650e-01	-14.6242	-17.275206	0.000077	0.770513	0.261057	0.006243
1635	8.1700e-01	-14.5777	-17.239285	0.000089	0.886617	0.300394	0.007184
1636	8.1750e-01	-14.5584	-17.205931	0.000082	0.823287	0.278937	0.006671
1637	8.1800e-01	-14.5183	-17.173859	0.000079	0.791623	0.268209	0.006414
1638	8.1850e-01	-14.4830	-17.137511	0.000090	0.897172	0.303970	0.007270
1639	8.1900e-01	-14.4333	-17.102445	0.000087	0.865507	0.293242	0.007013
1640	8.1950e-01	-14.3771	-17.070801	0.000078	0.781068	0.264633	0.006329
1641	8.2000e-01	-14.3643	-17.029749	0.000101	1.013277	0.343307	0.008210
1642	8.2050e-01	-14.2680	-17.011361	0.000045	0.453864	0.153773	0.003678
1643	8.2100e-01	-14.2841	-16.964750	-0.000115	-1.150491	-0.389797	0.009322
1644	8.2150e-01	-14.2279	-16.929257	0.000088	0.876062	0.296818	0.007099
1645	8.2200e-01	-14.1750	-16.903172	0.000064	0.643853	0.218143	0.005217
1646	8.2250e-01	-14.1541	-16.857416	0.000113	1.129382	0.382645	0.009151
1647	8.2300e-01	-14.1012	-16.825344	0.000079	0.791623	0.268209	0.006414
1648	8.2350e-01	-14.0739	-16.795838	0.000073	0.728293	0.246752	0.005901
1649	8.2400e-01	-14.0402	-16.758207	0.000093	0.928837	0.314699	0.007526
1650	8.2450e-01	-13.9873	-16.722714	0.000088	0.876062	0.296818	0.007099
1651	8.2500e-01	-13.9408	-16.695346	0.000068	0.675518	0.228872	0.005474
1652	8.2550e-01	-13.9231	-16.653866	0.000102	1.023832	0.346884	0.008296
1653	8.2600e-01	-13.8622	-16.621367	0.000080	0.802178	0.271785	0.006500
1654	8.2650e-01	-13.8590	-16.576039	0.000112	1.118827	0.379069	0.009066
1655	8.2700e-01	-13.7739	-16.551664	0.000060	0.601633	0.203839	0.004875
1656	8.2750e-01	-13.7579	-16.514460	0.000092	0.918282	0.311122	0.007441
1657	8.2800e-01	-13.7082	-16.484527	0.000074	0.738848	0.250328	0.005987
1658	8.2850e-01	-13.6809	-16.444758	0.000098	0.981612	0.332579	0.007954
1659	8.2900e-01	-13.6264	-16.410120	0.000085	0.854952	0.289666	0.006928
1660	8.2950e-01	-13.5959	-16.378476	0.000078	0.781068	0.264633	0.006329
1661	8.3000e-01	-13.5558	-16.342983	0.000088	0.876062	0.296818	0.007099
1662	8.3050e-01	-13.5349	-16.296799	0.000114	1.139936	0.386221	0.009237
1663	8.3100e-01	-13.4740	-16.272852	0.000059	0.591078	0.200263	0.004789
1664	8.3150e-01	-13.4306	-16.234794	0.000094	0.939392	0.318275	0.007612
1665	8.3200e-01	-13.3841	-16.202722	0.000079	0.791623	0.268209	0.006414
1666	8.3250e-01	-13.3424	-16.163808	0.000096	0.960502	0.325427	0.007783
1667	8.3300e-01	-13.3280	-16.124039	0.000098	0.981612	0.332579	0.007954
1668	8.3350e-01	-13.2510	-16.103940	0.000050	0.496083	0.168078	0.004020
1669	8.3400e-01	-13.2269	-16.058612	0.000112	1.118827	0.379069	0.009066
1670	8.3450e-01	-13.1884	-16.026540	0.000079	0.791623	0.268209	0.006414
1671	8.3500e-01	-13.1194	-15.996179	0.000075	0.749403	0.253905	0.006072
1672	8.3550e-01	-13.1322	-15.953844	-0.000104	-1.044942	-0.354036	0.008467
1673	8.3600e-01	-13.0617	-15.919206	0.000085	0.854952	0.289666	0.006928
1674	8.3650e-01	-13.0376	-15.880720	0.000095	0.949947	0.321851	0.007697
1675	8.3700e-01	-12.9702	-15.852497	0.000070	0.696628	0.236024	0.005645
1676	8.3750e-01	-12.9397	-15.817859	0.000085	0.854952	0.289666	0.006928
1677	8.3800e-01	-12.9269	-15.774241	0.000108	1.076607	0.364764	0.008724
1678	8.3850e-01	-12.8563	-15.749439	0.000061	0.612188	0.207415	0.004960
1679	8.3900e-01	-12.8611	-15.689999	-0.000147	-1.467140	-0.497081	0.011888
1680	8.3950e-01	-12.7905	-15.671611	0.000045	0.453864	0.153773	0.003678
1681	8.4000e-01	-12.7408	-15.637829	0.000083	0.833842	0.282513	0.006756
1682	8.4050e-01	-12.7119	-15.597632	0.000099	0.992167	0.336155	0.008039
1683	8.4100e-01	-12.6766	-15.561284	0.000090	0.897172	0.303970	0.007270
1684	8.4150e-01	-12.6478	-15.522797	0.000095	0.949947	0.321851	0.007697
1685	8.4200e-01	-12.5676	-15.497995	0.000061	0.612188	0.207415	0.004960
1686	8.4250e-01	-12.5499	-15.456088	0.000103	1.034387	0.350460	0.008381
1687	8.4300e-01	-12.5146	-15.423588	0.000080	0.802178	0.271785	0.006500
1688	8.4350e-01	-12.4553	-15.385957	0.000093	0.928837	0.314699	0.007526
1689	8.4400e-01	-12.4071	-15.354741	0.000077	0.770513	0.261057	0.006243
1690	8.4450e-01	-12.3767	-15.316254	0.000095	0.949947	0.321851	0.007697
1691	8.4500e-01	-12.3366	-15.277768	0.000095	0.949947	0.321851	0.007697
1692	8.4550e-01	-12.3109	-15.246552	0.000077	0.770513	0.261057	0.006243
1693	8.4600e-01	-12.2852	-15.198658	0.000118	1.182156	0.400525	0.009579
1694	8.4650e-01	-12.2194	-15.165303	0.000082	0.823287	0.278937	0.006671
1695	8.4700e-01	-12.1922	-15.131520	0.000083	0.833842	0.282513	0.006756
1696	8.4750e-01	-12.1280	-15.092179	0.000097	0.971057	0.329003	0.007868
1697	8.4800e-01	-12.0991	-15.057969	0.000084	0.844397	0.286090	0.006842
1698	8.4850e-01	-12.0847	-15.022048	0.000089	0.886617	0.300394	0.007184
1699	8.4900e-01	-12.0398	-14.975865	0.000114	1.139936	0.386221	0.009237
1700	8.4950e-01	-11.9580	-14.955766	0.000050	0.496083	0.168078	0.004020
1701	8.5000e-01	-11.9435	-14.913431	0.000104	1.044942	0.354036	0.008467
1702	8.5050e-01	-11.8986	-14.882215	0.000077	0.770513	0.261057	0.006243
1703	8.5100e-01	-11.9002	-14.841163	-0.000101	-1.013277	-0.343307	0.008210
1704	8.5150e-01	-11.8424	-14.799256	0.000103	1.034387	0.350460	0.008381
1705	8.5200e-01	-11.8023	-14.774453	0.000061	0.612188	0.207415	0.004960
1706	8.5250e-01	-11.7558	-14.726132	0.000119	1.192711	0.404102	0.009664
1707	8.5300e-01	-11.7221	-14.694487	0.000078	0.781068	0.264633	0.006329
1708	8.5350e-01	-11.6965	-14.655146	0.000097	0.971057	0.329003	0.007868
1709	8.5400e-01	-11.6339	-14.615377	0.000098	0.981612	0.332579	0.007954
1710	8.5450e-01	-11.5938	-14.576890	0.000095	0.949947	0.321851	0.007697
1711	8.5500e-01	-11.5681	-14.535838	0.000101	1.013277	0.343307	0.008210
1712	8.5550e-01	-11.5040	-14.509326	0.000065	0.654408	0.221719	0.005303
1713	8.5600e-01	-11.5007	-14.466563	0.000106	1.055497	0.357612	0.008553
1714	8.5650e-01	-11.4286	-14.433636	0.000081	0.812732	0.275361	0.006585
1715	8.5700e-01	-11.3868	-14.393439	0.000099	0.992167	0.336155	0.008039
1716	8.5750e-01	-11.3772	-14.353242	0.000099	0.992167	0.336155	0.008039
1717	8.5800e-01	-11.2922	-14.330578	0.000056	0.559413	0.189534	0.004533
1718	8.5850e-01	-11.2681	-14.281401	0.000121	1.213821	0.411254	0.009835
1719	8.5900e-01	-11.2104	-14.248474	0.000081	0.812732	0.275361	0.006585
1720	8.5950e-01	-11.1895	-14.213837	0.000085	0.854952	0.289666	0.006928
1721	8.6000e-01	-11.1623	-14.170646	0.000107	1.066052	0.361188	0.008638
1722	8.6050e-01	-11.1270	-14.135153	0.000088	0.876062	0.296818	0.007099
1723	8.6100e-01	-11.0564	-14.106075	0.000072	0.717738	0.243176	0.005816
1724	8.6150e-01	-11.0323	-14.065878	0.000099	0.992167	0.336155	0.008039
1725	8.6200e-01	-10.9986	-14.019267	0.000115	1.150491	0.389797	0.009322
1726	8.6250e-01	-10.9794	-13.977787	0.000102	1.023832	0.346884	0.008296
1727	8.6300e-01	-10.9328	-13.941012	0.000091	0.907727	0.307546	0.007355
1728	8.6350e-01	-10.8799	-13.905946	0.000087	0.865507	0.293242	0.007013
1729	8.6400e-01	-10.8173	-13.874302	0.000078	0.781068	0.264633	0.006329
1730	8.6450e-01	-10.7917	-13.828119	0.000114	1.139936	0.386221	0.009237
1731	8.6500e-01	-10.7532	-13.797329	0.000076	0.759958	0.257481	0.006158
1732	8.6550e-01	-10.7211	-13.760554	0.000091	0.907727	0.307546	0.007355
1733	8.6600e-01	-10.6730	-13.722495	0.000094	0.939392	0.318275	0.007612
1734	8.6650e-01	-10.6329	-13.687857	0.000085	0.854952	0.289666	0.006928
1735	8.6700e-01	-10.5895	-13.644240	0.000108	1.076607	0.364764	0.008724
1736	8.6750e-01	-10.5478	-13.606181	0.000094	0.939392	0.318275	0.007612
1737	8.6800e-01	-10.5254	-13.565129	0.000101	1.013277	0.343307	0.008210
1738	8.6850e-01	-10.4740	-13.535623	0.000073	0.728293	0.246752	0.005901
1739	8.6900e-01	-10.4387	-13.497564	0.000094	0.939392	0.318275	0.007612
1740	8.6950e-01	-10.3906	-13.453946	0.000108	1.076607	0.364764	0.008724
1741	8.7000e-01	-10.3409	-13.418026	0.000089	0.886617	0.300394	0.007184
1742	8.7050e-01	-10.2879	-13.382961	0.000087	0.865507	0.293242	0.007013
1743	8.7100e-01	-10.2591	-13.342764	0.000099	0.992167	0.336155	0.008039
1744	8.7150e-01	-10.2302	-13.302139	0.000100	1.002722	0.339731	0.008125
1745	8.7200e-01	-10.2013	-13.255101	0.000116	1.161046	0.393373	0.009408
1746	8.7250e-01	-10.1516	-13.224739	0.000075	0.749403	0.253905	0.006072
1747	8.7300e-01	-10.1211	-13.186681	0.000094	0.939392	0.318275	0.007612
1748	8.7350e-01	-10.0954	-13.145629	0.000101	1.013277	0.343307	0.008210
1749	8.7400e-01	-10.0409	-13.104149	0.000102	1.023832	0.346884	0.008296
1750	8.7450e-01	-9.9703	-13.075926	0.000070	0.696628	0.236024	0.005645
1751	8.7500e-01	-9.9446	-13.037867	0.000094	0.939392	0.318275	0.007612
1752	8.7550e-01	-9.8965	-13.001519	0.000090	0.897172	0.303970	0.007270
1753	8.7600e-01	-9.8612	-12.948921	0.000130	1.298261	0.439863	0.010520
1754	8.7650e-01	-9.8275	-12.919842	0.000072	0.717738	0.243176	0.005816
1755	8.7700e-01	-9.8067	-12.874514	0.000112	1.118827	0.379069	0.009066
1756	8.7750e-01	-9.7457	-12.835173	0.000097	0.971057	0.329003	0.007868
1757	8.7800e-01	-9.7120	-12.794121	0.000101	1.013277	0.343307	0.008210
1758	8.7850e-01	-9.6799	-12.759055	0.000087	0.865507	0.293242	0.007013
1759	8.7900e-01	-9.6110	-12.722280	0.000091	0.907727	0.307546	0.007355
1760	8.7950e-01	-9.5949	-12.679089	0.000107	1.066052	0.361188	0.008638
1761	8.8000e-01	-9.5372	-12.648728	0.000075	0.749403	0.253905	0.006072
1762	8.8050e-01	-9.5275	-12.605110	0.000108	1.076607	0.364764	0.008724
1763	8.8100e-01	-9.4858	-12.568334	0.000091	0.907727	0.307546	0.007355
1764	8.8150e-01	-9.4457	-12.521723	0.000115	1.150491	0.389797	0.009322
1765	8.8200e-01	-9.3783	-12.490507	0.000077	0.770513	0.261057	0.006243
1766	8.8250e-01	-9.3238	-12.459718	0.000076	0.759958	0.257481	0.006158
1767	8.8300e-01	-9.3046	-12.407975	0.000128	1.277151	0.432710	0.010349
1768	8.8350e-01	-9.2837	-12.364785	0.000107	1.066052	0.361188	0.008638
1769	8.8400e-01	-9.2340	-12.323305	0.000102	1.023832	0.346884	0.008296
1770	8.8450e-01	-9.2099	-12.285247	0.000094	0.939392	0.318275	0.007612
1771	8.8500e-01	-9.1233	-12.257878	0.000068	0.675518	0.228872	0.005474
1772	8.8550e-01	-9.1120	-12.212978	0.000111	1.108272	0.375493	0.008980
1773	8.8600e-01	-9.0495	-12.174919	0.000094	0.939392	0.318275	0.007612
1774	8.8650e-01	-9.0302	-12.137288	0.000093	0.928837	0.314699	0.007526
1775	8.8700e-01	-8.9997	-12.095381	0.000103	1.034387	0.350460	0.008381
1776	8.8750e-01	-8.9709	-12.048770	0.000115	1.150491	0.389797	0.009322
1777	8.8800e-01	-8.9308	-12.014560	0.000084	0.844397	0.286090	0.006842
1778	8.8850e-01	-8.8682	-11.972652	0.000103	1.034387	0.350460	0.008381
1779	8.8900e-01	-8.8265	-11.944857	0.000069	0.686073	0.232448	0.005559
1780	8.8950e-01	-8.7719	-11.890121	0.000135	1.351036	0.457743	0.010947
1781	8.9000e-01	-8.7784	-11.840516	-0.000122	-1.224376	-0.414830	0.009921
1782	8.9050e-01	-8.6837	-11.818280	0.000055	0.548858	0.185958	0.004447
1783	8.9100e-01	-8.6580	-11.771241	0.000116	1.161046	0.393373	0.009408
1784	8.9150e-01	-8.6163	-11.734038	0.000092	0.918282	0.311122	0.007441
1785	8.9200e-01	-8.5730	-11.694696	0.000097	0.971057	0.329003	0.007868
1786	8.9250e-01	-8.5425	-11.654072	0.000100	1.002722	0.339731	0.008125
1787	8.9300e-01	-8.5072	-11.607460	0.000115	1.150491	0.389797	0.009322
1788	8.9350e-01	-8.4591	-11.574533	0.000081	0.812732	0.275361	0.006585
1789	8.9400e-01	-8.4206	-11.531771	0.000106	1.055497	0.357612	0.008553
1790	8.9450e-01	-8.4110	-11.479600	0.000129	1.287706	0.436287	0.010434
1791	8.9500e-01	-8.3356	-11.448384	0.000077	0.770513	0.261057	0.006243
1792	8.9550e-01	-8.2891	-11.415457	0.000081	0.812732	0.275361	0.006585
1793	8.9600e-01	-8.2730	-11.366280	0.000121	1.213821	0.411254	0.009835
1794	8.9650e-01	-8.2105	-11.326511	0.000098	0.981612	0.332579	0.007954
1795	8.9700e-01	-8.1768	-11.285031	0.000102	1.023832	0.346884	0.008296
1796	8.9750e-01	-8.1671	-11.239275	0.000113	1.129382	0.382645	0.009151
1797	8.9800e-01	-8.1335	-11.204210	0.000087	0.865507	0.293242	0.007013
1798	8.9850e-01	-8.0725	-11.161875	0.000104	1.044942	0.354036	0.008467
1799	8.9900e-01	-8.0212	-11.113553	0.000119	1.192711	0.404102	0.009664
1800	8.9950e-01	-7.9971	-11.073784	0.000098	0.981612	0.332579	0.007954
1801	9.0000e-01	-7.9426	-11.039146	0.000085	0.854952	0.289666	0.006928
1802	9.0050e-01	-7.8784	-11.010068	0.000072	0.717738	0.243176	0.005816
1803	9.0100e-01	-7.8752	-10.954904	0.000136	1.361591	0.461319	0.011033
1804	9.0150e-01	-7.8238	-10.913425	0.000102	1.023832	0.346884	0.008296
1805	9.0200e-01	-7.7581	-10.878787	0.000085	0.854952	0.289666	0.006928
1806	9.0250e-01	-7.7436	-10.834314	0.000110	1.097717	0.371916	0.008895
1807	9.0300e-01	-7.7003	-10.793690	0.000100	1.002722	0.339731	0.008125
1808	9.0350e-01	-7.6474	-10.753920	0.000098	0.981612	0.332579	0.007954
1809	9.0400e-01	-7.6249	-10.712868	0.000101	1.013277	0.343307	0.008210
1810	9.0450e-01	-7.5816	-10.669678	0.000107	1.066052	0.361188	0.008638
1811	9.0500e-01	-7.5351	-10.632902	0.000091	0.907727	0.307546	0.007355
1812	9.0550e-01	-7.5062	-10.586291	0.000115	1.150491	0.389797	0.009322
1813	9.0600e-01	-7.4677	-10.547805	0.000095	0.949947	0.321851	0.007697
1814	9.0650e-01	-7.4372	-10.506325	0.000102	1.023832	0.346884	0.008296
1815	9.0700e-01	-7.4035	-10.451589	0.000135	1.351036	0.457743	0.010947
1816	9.0750e-01	-7.3747	-10.410537	0.000101	1.013277	0.343307	0.008210
1817	9.0800e-01	-7.2944	-10.374189	0.000090	0.897172	0.303970	0.007270
1818	9.0850e-01	-7.2784	-10.338696	0.000088	0.876062	0.296818	0.007099
1819	9.0900e-01	-7.2383	-10.287809	0.000126	1.256041	0.425558	0.010177
1820	9.0950e-01	-7.1998	-10.247612	0.000099	0.992167	0.336155	0.008039
1821	9.1000e-01	-7.1533	-10.211264	0.000090	0.897172	0.303970	0.007270
1822	9.1050e-01	-7.1019	-10.166363	0.000111	1.108272	0.375493	0.008980
1823	9.1100e-01	-7.0554	-10.123601	0.000106	1.055497	0.357612	0.008553
1824	9.1150e-01	-7.0490	-10.074851	0.000120	1.203266	0.407678	0.009750
1825	9.1200e-01	-6.9993	-10.033372	0.000102	1.023832	0.346884	0.008296
1826	9.1250e-01	-6.9672	-9.984195	0.000121	1.213821	0.411254	0.009835
1827	9.1300e-01	-6.9126	-9.948274	0.000089	0.886617	0.300394	0.007184
1828	9.1350e-01	-6.8549	-9.904657	0.000108	1.076607	0.364764	0.008724
1829	9.1400e-01	-6.8116	-9.872157	0.000080	0.802178	0.271785	0.006500
1830	9.1450e-01	-6.7650	-9.829822	0.000104	1.044942	0.354036	0.008467
1831	9.1500e-01	-6.7731	-9.778080	-0.000128	-1.277151	-0.432710	0.010349
1832	9.1550e-01	-6.7073	-9.740021	0.000094	0.939392	0.318275	0.007612
1833	9.1600e-01	-6.6913	-9.690416	0.000122	1.224376	0.414830	0.009921
1834	9.1650e-01	-6.6159	-9.656206	0.000084	0.844397	0.286090	0.006842
1835	9.1700e-01	-6.5902	-9.613016	0.000107	1.066052	0.361188	0.008638
1836	9.1750e-01	-6.5453	-9.565977	0.000116	1.161046	0.393373	0.009408
1837	9.1800e-01	-6.5132	-9.526636	0.000097	0.971057	0.329003	0.007868
1838	9.1850e-01	-6.4731	-9.474038	0.000130	1.298261	0.439863	0.010520
1839	9.1900e-01	-6.4217	-9.436835	0.000092	0.918282	0.311122	0.007441
1840	9.1950e-01	-6.4233	-9.374401	-0.000154	-1.541025	-0.522113	0.012487
1841	9.2000e-01	-6.3800	-9.344040	0.000075	0.749403	0.253905	0.006072
1842	9.2050e-01	-6.2918	-9.313678	0.000075	0.749403	0.253905	0.006072
1843	9.2100e-01	-6.2726	-9.268778	0.000111	1.108272	0.375493	0.008980
1844	9.2150e-01	-6.2629	-9.219601	0.000121	1.213821	0.411254	0.009835
1845	9.2200e-01	-6.1988	-9.177266	0.000104	1.044942	0.354036	0.008467
1846	9.2250e-01	-6.1490	-9.131938	0.000112	1.118827	0.379069	0.009066
1847	9.2300e-01	-6.1041	-9.095590	0.000090	0.897172	0.303970	0.007270
1848	9.2350e-01	-6.0720	-9.056248	0.000097	0.971057	0.329003	0.007868
1849	9.2400e-01	-6.0303	-9.007071	0.000121	1.213821	0.411254	0.009835
1850	9.2450e-01	-6.0014	-8.964309	0.000106	1.055497	0.357612	0.008553
1851	9.2500e-01	-5.9437	-8.919408	0.000111	1.108272	0.375493	0.008980
1852	9.2550e-01	-5.8891	-8.879211	0.000099	0.992167	0.336155	0.008039
1853	9.2600e-01	-5.8779	-8.821054	0.000144	1.435476	0.486352	0.011631
1854	9.2650e-01	-5.8202	-8.780002	0.000101	1.013277	0.343307	0.008210
1855	9.2700e-01	-5.7833	-8.736384	0.000108	1.076607	0.364764	0.008724
1856	9.2750e-01	-5.7560	-8.688063	0.000119	1.192711	0.404102	0.009664
1857	9.2800e-01	-5.7159	-8.656418	0.000078	0.781068	0.264633	0.006329
1858	9.2850e-01	-5.6678	-8.602538	0.000133	1.329926	0.450591	0.010776
1859	9.2900e-01	-5.6084	-8.567045	0.000088	0.876062	0.296818	0.007099
1860	9.2950e-01	-5.6148	-8.516157	-0.000126	-1.256041	-0.425558	0.010177
1861	9.3000e-01	-5.5410	-8.473395	0.000106	1.055497	0.357612	0.008553
1862	9.3050e-01	-5.5170	-8.420797	0.000130	1.298261	0.439863	0.010520
1863	9.3100e-01	-5.4913	-8.374186	0.000115	1.150491	0.389797	0.009322
1864	9.3150e-01	-5.4111	-8.338693	0.000088	0.876062	0.296818	0.007099
1865	9.3200e-01	-5.3694	-8.295930	0.000106	1.055497	0.357612	0.008553
1866	9.3250e-01	-5.3533	-8.242905	0.000131	1.308816	0.443439	0.010605
1867	9.3300e-01	-5.2876	-8.197577	0.000112	1.118827	0.379069	0.009066
1868	9.3350e-01	-5.2635	-8.154814	0.000106	1.055497	0.357612	0.008553
1869	9.3400e-01	-5.2346	-8.110341	0.000110	1.097717	0.371916	0.008895
1870	9.3450e-01	-5.1737	-8.073138	0.000092	0.918282	0.311122	0.007441
1871	9.3500e-01	-5.1287	-8.023961	0.000121	1.213821	0.411254	0.009835
1872	9.3550e-01	-5.1127	-7.975211	0.000120	1.203266	0.407678	0.009750
1873	9.3600e-01	-5.0758	-7.932021	0.000107	1.066052	0.361188	0.008638
1874	9.3650e-01	-5.0453	-7.882844	0.000121	1.213821	0.411254	0.009835
1875	9.3700e-01	-4.9795	-7.836233	0.000115	1.150491	0.389797	0.009322
1876	9.3750e-01	-4.9491	-7.787484	0.000120	1.203266	0.407678	0.009750
1877	9.3800e-01	-4.8961	-7.746004	0.000102	1.023832	0.346884	0.008296
1878	9.3850e-01	-4.8336	-7.713077	0.000081	0.812732	0.275361	0.006585
1879	9.3900e-01	-4.8352	-7.647650	-0.000161	-1.614910	-0.547146	0.013085
1880	9.3950e-01	-4.7694	-7.612585	0.000087	0.865507	0.293242	0.007013
1881	9.4000e-01	-4.7405	-7.565119	0.000117	1.171601	0.396949	0.009493
1882	9.4050e-01	-4.7148	-7.515087	0.000123	1.234931	0.418406	0.010006
1883	9.4100e-01	-4.6651	-7.463344	0.000128	1.277151	0.432710	0.010349
1884	9.4150e-01	-4.6058	-7.419726	0.000108	1.076607	0.364764	0.008724
1885	9.4200e-01	-4.5721	-7.380385	0.000097	0.971057	0.329003	0.007868
1886	9.4250e-01	-4.5320	-7.338477	0.000103	1.034387	0.350460	0.008381
1887	9.4300e-01	-4.5255	-7.278182	0.000149	1.488250	0.504233	0.012059
1888	9.4350e-01	-4.4469	-7.237985	0.000099	0.992167	0.336155	0.008039
1889	9.4400e-01	-4.4197	-7.195650	0.000104	1.044942	0.354036	0.008467
1890	9.4450e-01	-4.3619	-7.146046	0.000122	1.224376	0.414830	0.009921
1891	9.4500e-01	-4.3234	-7.094731	0.000127	1.266596	0.429134	0.010263
1892	9.4550e-01	-4.2977	-7.052396	0.000104	1.044942	0.354036	0.008467
1893	9.4600e-01	-4.2576	-7.006212	0.000114	1.139936	0.386221	0.009237
1894	9.4650e-01	-4.2448	-6.954042	0.000129	1.287706	0.436287	0.010434
1895	9.4700e-01	-4.1870	-6.907859	0.000114	1.139936	0.386221	0.009237
1896	9.4750e-01	-4.1389	-6.859537	0.000119	1.192711	0.404102	0.009664
1897	9.4800e-01	-4.1133	-6.801808	0.000142	1.424921	0.482776	0.011546
1898	9.4850e-01	-4.0876	-6.767598	0.000084	0.844397	0.286090	0.006842
1899	9.4900e-01	-4.0379	-6.716710	0.000126	1.256041	0.425558	0.010177
1900	9.4950e-01	-3.9673	-6.669244	0.000117	1.171601	0.396949	0.009493
1901	9.5000e-01	-3.9480	-6.621350	0.000118	1.182156	0.400525	0.009579
1902	9.5050e-01	-3.9175	-6.570890	0.000125	1.245486	0.421982	0.010092
1903	9.5100e-01	-3.8806	-6.519575	0.000127	1.266596	0.429134	0.010263
1904	9.5150e-01	-3.8181	-6.487503	0.000079	0.791623	0.268209	0.006414
1905	9.5200e-01	-3.7956	-6.428918	0.000145	1.446031	0.489928	0.011717
1906	9.5250e-01	-3.7507	-6.381452	0.000117	1.171601	0.396949	0.009493
1907	9.5300e-01	-3.7010	-6.339972	0.000102	1.023832	0.346884	0.008296
1908	9.5350e-01	-3.6657	-6.286519	0.000132	1.319371	0.447015	0.010691
1909	9.5400e-01	-3.6464	-6.221520	0.000160	1.604355	0.543570	0.013000
1910	9.5450e-01	-3.5919	-6.188165	0.000082	0.823287	0.278937	0.006671
1911	9.5500e-01	-3.5582	-6.141127	0.000116	1.161046	0.393373	0.009408
1912	9.5550e-01	-3.4972	-6.093660	0.000117	1.171601	0.396949	0.009493
1913	9.5600e-01	-3.4475	-6.050898	0.000106	1.055497	0.357612	0.008553
1914	9.5650e-01	-3.4218	-5.992313	0.000145	1.446031	0.489928	0.011717
1915	9.5700e-01	-3.4074	-5.936294	0.000138	1.382701	0.468472	0.011204
1916	9.5750e-01	-3.3416	-5.890111	0.000114	1.139936	0.386221	0.009237
1917	9.5800e-01	-3.3143	-5.840506	0.000122	1.224376	0.414830	0.009921
1918	9.5850e-01	-3.2582	-5.799454	0.000101	1.013277	0.343307	0.008210
1919	9.5900e-01	-3.2486	-5.746856	0.000130	1.298261	0.439863	0.010520
1920	9.5950e-01	-3.1700	-5.692120	0.000135	1.351036	0.457743	0.010947
1921	9.6000e-01	-3.1876	-5.635673	-0.000139	-1.393256	-0.472048	0.011289
1922	9.6050e-01	-3.1074	-5.584786	0.000126	1.256041	0.425558	0.010177
1923	9.6100e-01	-3.0817	-5.538175	0.000115	1.150491	0.389797	0.009322
1924	9.6150e-01	-3.0448	-5.491564	0.000115	1.150491	0.389797	0.009322
1925	9.6200e-01	-2.9791	-5.446235	0.000112	1.118827	0.379069	0.009066
1926	9.6250e-01	-2.9213	-5.393638	0.000130	1.298261	0.439863	0.010520
1927	9.6300e-01	-2.8876	-5.349592	0.000109	1.087162	0.368340	0.008809
1928	9.6350e-01	-2.8475	-5.301698	0.000118	1.182156	0.400525	0.009579
1929	9.6400e-01	-2.8411	-5.238410	0.000156	1.562135	0.529266	0.012658
1930	9.6450e-01	-2.8010	-5.187095	0.000127	1.266596	0.429134	0.010263
1931	9.6500e-01	-2.7593	-5.128510	0.000145	1.446031	0.489928	0.011717
1932	9.6550e-01	-2.7112	-5.084465	0.000109	1.087162	0.368340	0.008809
1933	9.6600e-01	-2.6967	-5.034860	0.000122	1.224376	0.414830	0.009921
1934	9.6650e-01	-2.6518	-4.978413	0.000139	1.393256	0.472048	0.011289
1935	9.6700e-01	-2.5523	-4.938644	0.000098	0.981612	0.332579	0.007954
1936	9.6750e-01	-2.5427	-4.880915	0.000142	1.424921	0.482776	0.011546
1937	9.6800e-01	-2.5363	-4.821047	0.000148	1.477695	0.500657	0.011974
1938	9.6850e-01	-2.4994	-4.776574	0.000110	1.097717	0.371916	0.008895
1939	9.6900e-01	-2.4449	-4.721838	0.000135	1.351036	0.457743	0.010947
1940	9.6950e-01	-2.3855	-4.683352	0.000095	0.949947	0.321851	0.007697
1941	9.7000e-01	-2.3502	-4.617070	0.000164	1.636020	0.554299	0.013256
1942	9.7050e-01	-2.2924	-4.570459	0.000115	1.150491	0.389797	0.009322
1943	9.7100e-01	-2.2844	-4.511019	0.000147	1.467140	0.497081	0.011888
1944	9.7150e-01	-2.2267	-4.460132	0.000126	1.256041	0.425558	0.010177
1945	9.7200e-01	-2.1850	-4.418652	0.000102	1.023832	0.346884	0.008296
1946	9.7250e-01	-2.1689	-4.357929	0.000150	1.498805	0.507809	0.012145
1947	9.7300e-01	-2.1192	-4.306614	0.000127	1.266596	0.429134	0.010263
1948	9.7350e-01	-2.0855	-4.255299	0.000127	1.266596	0.429134	0.010263
1949	9.7400e-01	-2.0101	-4.197570	0.000142	1.424921	0.482776	0.011546
1950	9.7450e-01	-1.9860	-4.149248	0.000119	1.192711	0.404102	0.009664
1951	9.7500e-01	-1.9347	-4.094084	0.000136	1.361591	0.461319	0.011033
1952	9.7550e-01	-1.9122	-4.038921	0.000136	1.361591	0.461319	0.011033
1953	9.7600e-01	-1.8770	-3.982474	0.000139	1.393256	0.472048	0.011289
1954	9.7650e-01	-1.8080	-3.937574	0.000111	1.108272	0.375493	0.008980
1955	9.7700e-01	-1.7935	-3.879416	0.000144	1.435476	0.486352	0.011631
1956	9.7750e-01	-1.7197	-3.837509	0.000103	1.034387	0.350460	0.008381
1957	9.7800e-01	-1.6989	-3.775076	0.000154	1.541025	0.522113	0.012487
1958	9.7850e-01	-1.6828	-3.716919	0.000144	1.435476	0.486352	0.011631
1959	9.7900e-01	-1.6459	-3.666031	0.000126	1.256041	0.425558	0.010177
1960	9.7950e-01	-1.5705	-3.612578	0.000132	1.319371	0.447015	0.010691
1961	9.8000e-01	-1.5465	-3.551856	0.000150	1.498805	0.507809	0.012145
1962	9.8050e-01	-1.5160	-3.499258	0.000130	1.298261	0.439863	0.010520
1963	9.8100e-01	-1.4839	-3.447087	0.000129	1.287706	0.436287	0.010434
1964	9.8150e-01	-1.4133	-3.395345	0.000128	1.277151	0.432710	0.010349
1965	9.8200e-01	-1.3877	-3.335050	0.000149	1.488250	0.504233	0.012059
1966	9.8250e-01	-1.3315	-3.286728	0.000119	1.192711	0.404102	0.009664
1967	9.8300e-01	-1.3074	-3.221729	0.000160	1.604355	0.543570	0.013000
1968	9.8350e-01	-1.2978	-3.167848	0.000133	1.329926	0.450591	0.010776
1969	9.8400e-01	-1.2385	-3.109691	0.000144	1.435476	0.486352	0.011631
1970	9.8450e-01	-1.1759	-3.067356	0.000104	1.044942	0.354036	0.008467
1971	9.8500e-01	-1.1406	-3.008344	0.000146	1.456585	0.493505	0.011802
1972	9.8550e-01	-1.1246	-2.944628	0.000157	1.572690	0.532842	0.012743
1973	9.8600e-01	-1.0684	-2.887753	0.000140	1.403811	0.475624	0.011375
1974	9.8650e-01	-1.0315	-2.835583	0.000129	1.287706	0.436287	0.010434
1975	9.8700e-01	-1.0091	-2.778281	0.000141	1.414366	0.479200	0.011460
1976	9.8750e-01	-0.9513	-2.723118	0.000136	1.361591	0.461319	0.011033
1977	9.8800e-01	-0.9032	-2.670092	0.000131	1.308816	0.443439	0.010605
1978	9.8850e-01	-0.8695	-2.610652	0.000147	1.467140	0.497081	0.011888
1979	9.8900e-01	-0.8230	-2.557627	0.000131	1.308816	0.443439	0.010605
1980	9.8950e-01	-0.7893	-2.499042	0.000145	1.446031	0.489928	0.011717
1981	9.9000e-01	-0.7877	-2.431905	0.000166	1.657130	0.561451	0.013427
1982	9.9050e-01	-0.7010	-2.385294	0.000115	1.150491	0.389797	0.009322
1983	9.9100e-01	-0.6722	-2.316874	0.000169	1.688795	0.572179	0.013684
1984	9.9150e-01	-0.6273	-2.265559	0.000127	1.266596	0.429134	0.010263
1985	9.9200e-01	-0.5984	-2.205264	0.000149	1.488250	0.504233	0.012059
1986	9.9250e-01	-0.5695	-2.156087	0.000121	1.213821	0.411254	0.009835
1987	9.9300e-01	-0.5053	-2.094081	0.000153	1.530470	0.518537	0.012401
1988	9.9350e-01	-0.4508	-2.040200	0.000133	1.329926	0.450591	0.010776
1989	9.9400e-01	-0.4380	-1.987175	0.000131	1.308816	0.443439	0.010605
1990	9.9450e-01	-0.4059	-1.924741	0.000154	1.541025	0.522113	0.012487
1991	9.9500e-01	-0.3305	-1.879841	0.000111	1.108272	0.375493	0.008980
1992	9.9550e-01	-0.3032	-1.812704	0.000166	1.657130	0.561451	0.013427
1993	9.9600e-01	-0.2663	-1.754547	0.000144	1.435476	0.486352	0.011631
1994	9.9650e-01	-0.2454	-1.688265	0.000164	1.636020	0.554299	0.013256
1995	9.9700e-01	-0.2037	-1.634384	0.000133	1.329926	0.450591	0.010776
1996	9.9750e-01	-0.1588	-1.577082	0.000141	1.414366	0.479200	0.011460
1997	9.9800e-01	-0.0850	-1.524056	0.000131	1.308816	0.443439	0.010605
1998	9.9850e-01	-0.0674	-1.463334	0.000150	1.498805	0.507809	0.012145
1999	9.9900e-01	-0.0144	-1.410308	0.000131	1.308816	0.443439	0.010605
2000	9.9950e-01	0.0144	-1.354717	0.000137	1.372146	0.464896	0.011118
2001	1.0000e+00	0.0417	-1.282021	0.000137	1.372146	0.464896	0.014539

Center data before PMax,+/-Pr and +/-Vc Calc.

PMax (uC/cm2):	2.14e+01
Pr (uC/cm2):	2.12e-01
-Pr (uC/cm2):	-1.28e+00
PLoss (uC/cm2):	-7.24e-01
Vc:	4.89e-01
-Vc:	-1.57e-01
C (Max-Eff) (nF):	1.07e-01
K (Eff):	3.61e+02
Vert. (+/-Pr) Shift (uC/cm2):	-5.35e-01
Horiz. Shift (+/-Vc):	1.66e-01
Offset (uC/cm2):	5.57e-01

A (Loop Area - uC/cm2·Volts):	2.68e-02



Hysteresis Version: 5.48.1 - Radiant Technologies, Inc., 1999 - 9/12/24

