»»»»»»»»»»»»»»»»»»»»»»»»»»»»»»»»»»»» Hysteresis ««««««««««««««««««««««««««««««««««««
»»»  Executed Version:	5.48.1
»»»  Vision Version:	5.48.4 (R)
»»»  Vision Compiled:	9/18/24
»»»  Driver Version:	5.47.0
»»»  Windows Version:	Windows 8 or 8.1
»»»  Processor Information:	x86 (AMD or Intel) - 32 Processors
»»»  Tester Name:	PMF21124-494 (100V)
»»»  Tester S/N:	PMF21124-494
»»»  Internal Amp Type:	100V RevK 270k
»»»  Internal Amp S/N:	iAB2-596/K     
»»»  Execution Count:	1
»»»»»»»»»»»»»»»»»»»»»»»»»»»»»»»»»»»»»»»»»»««««««««««««««««««««««««««««««««««««««««««

Stored:	6/12/2025 - 12:18:4
Configured:	06/12/25 10:06:17 AM
Executed:	06/12/25 12:17:32 PM

»»»»»»»»»»»»»»»»»»»»»»»»»»»»»»»»»»» Sample Info ««««««««««««««««««««««««««««««««««««
Sample Name:	
Lot Name:	
Wafer Name:	
Die Row/Column:	0/0
Capacitor Number:	0
Sample Area (cm2):	1.00e-04
Sample Thickness (microns):	3.00e-01

Amplifier:	Internal

»»»»»»»»»»»»»»»»»»»»»»»»»»»»»»»»»»» Tester Info «««««««««««««««««««««««««««««««««««
Tester Name:	PMF21124-494 (100V)
Tester Serial Number:	PMF21124-494
Return Signal Amp. Level:	1.9 [Index: 2]

»»»»»»»»»»»»»»»»»»»»»»»»»»»»»»»» Hysteresis Info ««««««««««««««««««««««««««««««««««
Task Name:	Hyst-1390
Volts:	20.00
Field:	666.67 (kV/cm)
DCBias:	0.00
DCField:	0.00 (kV/cm)
Hysteresis Period (ms):	2.00e+02
Preset:	Enabled
Preset Delay (ms):	1.00e+03
Profile:	Standard Bipolar

»»»»»»»»»»»»»»»»»»»»»»»»»»»»»»»»»»»»»» Data «««««««««««««««««««««««««««««««««««««««
Points:	2009

Valid Data

Point	Time (ms)	Drive Voltage	Measured Polarization (uC/cm2)	Capacitance (uF)	Normalized Capacitance (uF/cm2)	Dielectric Constant	Instantaneous Current (mA)
   1	0.0000e+00	0.0385	-1.210011	0.000115	1.148785	0.389219	0.000046
   2	9.9500e-02	0.0529	-1.163981	0.000115	1.148785	0.389219	0.000046
   3	1.9900e-01	0.0946	-1.096770	0.000168	1.677430	0.568329	0.000068
   4	2.9850e-01	0.1332	-1.033224	0.000159	1.585934	0.537329	0.000064
   5	3.9800e-01	0.1989	-0.961125	0.000180	1.799425	0.609662	0.000072
   6	4.9750e-01	0.2150	-0.896765	0.000161	1.606266	0.544218	0.000065
   7	5.9700e-01	0.2487	-0.831997	0.000162	1.616432	0.547662	0.000065
   8	6.9650e-01	0.2968	-0.759083	0.000182	1.819757	0.616550	0.000073
   9	7.9600e-01	0.3706	-0.699611	0.000148	1.484271	0.502885	0.000060
  10	8.9550e-01	0.3754	-0.635658	0.000160	1.596100	0.540773	0.000064
  11	9.9500e-01	0.4203	-0.570076	0.000164	1.636765	0.554551	0.000066
  12	1.0945e+00	0.4684	-0.502457	0.000169	1.687596	0.571773	0.000068
  13	1.1940e+00	0.4861	-0.434023	0.000171	1.707928	0.578662	0.000069
  14	1.2935e+00	0.5390	-0.368849	0.000163	1.626599	0.551107	0.000066
  15	1.3930e+00	0.5743	-0.310599	0.000145	1.453772	0.492551	0.000059
  16	1.4925e+00	0.6144	-0.240128	0.000176	1.758760	0.595884	0.000071
  17	1.5920e+00	0.6561	-0.172510	0.000169	1.687596	0.571773	0.000068
  18	1.6915e+00	0.6930	-0.108557	0.000160	1.596100	0.540773	0.000064
  19	1.7910e+00	0.7251	-0.045011	0.000159	1.585934	0.537329	0.000064
  20	1.8905e+00	0.7781	0.023422	0.000171	1.707928	0.578662	0.000069
  21	1.9900e+00	0.8085	0.086560	0.000158	1.575767	0.533884	0.000063
  22	2.0895e+00	0.8743	0.155809	0.000173	1.728261	0.585551	0.000070
  23	2.1890e+00	0.9144	0.225871	0.000175	1.748593	0.592440	0.000070
  24	2.2885e+00	0.9256	0.288602	0.000157	1.565601	0.530440	0.000063
  25	2.3880e+00	0.9706	0.358665	0.000175	1.748593	0.592440	0.000070
  26	2.4875e+00	1.0267	0.427506	0.000172	1.718095	0.582106	0.000069
  27	2.5870e+00	1.0668	0.490644	0.000158	1.575767	0.533884	0.000063
  28	2.6865e+00	1.0813	0.558263	0.000169	1.687596	0.571773	0.000068
  29	2.7860e+00	1.1342	0.622623	0.000161	1.606266	0.544218	0.000065
  30	2.8855e+00	1.1599	0.689020	0.000166	1.657097	0.561440	0.000067
  31	2.9850e+00	1.2016	0.757453	0.000171	1.707928	0.578662	0.000069
  32	3.0845e+00	1.2449	0.821406	0.000160	1.596100	0.540773	0.000064
  33	3.1840e+00	1.2962	0.892284	0.000177	1.768926	0.599328	0.000071
  34	3.2835e+00	1.3058	0.954607	0.000156	1.555435	0.526996	0.000063
  35	3.3830e+00	1.3796	1.021004	0.000166	1.657097	0.561440	0.000067
  36	3.4825e+00	1.4197	1.090252	0.000173	1.728261	0.585551	0.000070
  37	3.5820e+00	1.4438	1.157871	0.000169	1.687596	0.571773	0.000068
  38	3.6815e+00	1.4759	1.222231	0.000161	1.606266	0.544218	0.000065
  39	3.7810e+00	1.5256	1.289850	0.000169	1.687596	0.571773	0.000068
  40	3.8805e+00	1.5834	1.352174	0.000156	1.555435	0.526996	0.000063
  41	3.9800e+00	1.6074	1.420200	0.000170	1.697762	0.575217	0.000068
  42	4.0795e+00	1.6684	1.484560	0.000161	1.606266	0.544218	0.000065
  43	4.1790e+00	1.6780	1.552179	0.000169	1.687596	0.571773	0.000068
  44	4.2785e+00	1.7294	1.616946	0.000162	1.616432	0.547662	0.000065
  45	4.3780e+00	1.7839	1.687009	0.000175	1.748593	0.592440	0.000070
  46	4.4775e+00	1.8032	1.743222	0.000140	1.402941	0.475329	0.000056
  47	4.5770e+00	1.8609	1.807990	0.000162	1.616432	0.547662	0.000065
  48	4.6765e+00	1.8834	1.876831	0.000172	1.718095	0.582106	0.000069
  49	4.7760e+00	1.9507	1.939969	0.000158	1.575767	0.533884	0.000063
  50	4.8755e+00	1.9556	2.001885	0.000155	1.545269	0.523551	0.000062
  51	4.9750e+00	2.0021	2.066652	0.000162	1.616432	0.547662	0.000065
  52	5.0745e+00	2.0663	2.134271	0.000169	1.687596	0.571773	0.000068
  53	5.1740e+00	2.0791	2.203520	0.000173	1.728261	0.585551	0.000070
  54	5.2735e+00	2.1288	2.265028	0.000154	1.535102	0.520107	0.000062
  55	5.3730e+00	2.1689	2.327352	0.000156	1.555435	0.526996	0.000063
  56	5.4725e+00	2.1914	2.388453	0.000152	1.524936	0.516662	0.000061
  57	5.5720e+00	2.2556	2.454035	0.000164	1.636765	0.554551	0.000066
  58	5.6715e+00	2.2989	2.524098	0.000175	1.748593	0.592440	0.000070
  59	5.7710e+00	2.3181	2.588051	0.000160	1.596100	0.540773	0.000064
  60	5.8705e+00	2.3646	2.654040	0.000165	1.646931	0.557995	0.000066
  61	5.9700e+00	2.4096	2.715142	0.000152	1.524936	0.516662	0.000061
  62	6.0695e+00	2.4352	2.785205	0.000175	1.748593	0.592440	0.000070
  63	6.1690e+00	2.4737	2.846713	0.000154	1.535102	0.520107	0.000062
  64	6.2685e+00	2.5010	2.911074	0.000161	1.606266	0.544218	0.000065
  65	6.3680e+00	2.5796	2.979100	0.000170	1.697762	0.575217	0.000068
  66	6.4675e+00	2.6149	3.041016	0.000155	1.545269	0.523551	0.000062
  67	6.5670e+00	2.6438	3.107413	0.000166	1.657097	0.561440	0.000067
  68	6.6665e+00	2.6839	3.175439	0.000170	1.697762	0.575217	0.000068
  69	6.7660e+00	2.7256	3.233689	0.000145	1.453772	0.492551	0.000059
  70	6.8655e+00	2.7657	3.298864	0.000163	1.626599	0.551107	0.000066
  71	6.9650e+00	2.8090	3.368519	0.000174	1.738427	0.588995	0.000070
  72	7.0645e+00	2.8443	3.429621	0.000152	1.524936	0.516662	0.000061
  73	7.1640e+00	2.8812	3.496832	0.000168	1.677430	0.568329	0.000068
  74	7.2635e+00	2.9213	3.560378	0.000159	1.585934	0.537329	0.000064
  75	7.3630e+00	2.9646	3.625552	0.000163	1.626599	0.551107	0.000066
  76	7.4625e+00	2.9839	3.690320	0.000162	1.616432	0.547662	0.000065
  77	7.5620e+00	3.0577	3.756309	0.000165	1.646931	0.557995	0.000066
  78	7.6615e+00	3.0898	3.824336	0.000170	1.697762	0.575217	0.000068
  79	7.7610e+00	3.1202	3.885030	0.000151	1.514770	0.513218	0.000061
  80	7.8605e+00	3.1555	3.951834	0.000167	1.667264	0.564884	0.000067
  81	7.9600e+00	3.2165	4.013750	0.000155	1.545269	0.523551	0.000062
  82	8.0595e+00	3.2774	4.078517	0.000162	1.616432	0.547662	0.000065
  83	8.1590e+00	3.2919	4.140026	0.000154	1.535102	0.520107	0.000062
  84	8.2585e+00	3.3272	4.208052	0.000170	1.697762	0.575217	0.000068
  85	8.3580e+00	3.3705	4.275671	0.000169	1.687596	0.571773	0.000068
  86	8.4575e+00	3.4010	4.335958	0.000150	1.504604	0.509774	0.000061
  87	8.5570e+00	3.4507	4.404391	0.000171	1.707928	0.578662	0.000069
  88	8.6565e+00	3.5036	4.467937	0.000159	1.585934	0.537329	0.000064
  89	8.7560e+00	3.5004	4.539222	-0.000178	-1.779092	-0.602773	0.000072
  90	8.8555e+00	3.5582	4.605211	0.000165	1.646931	0.557995	0.000066
  91	8.9550e+00	3.5999	4.669979	0.000162	1.616432	0.547662	0.000065
  92	9.0545e+00	3.6352	4.733117	0.000158	1.575767	0.533884	0.000063
  93	9.1540e+00	3.6753	4.801550	0.000171	1.707928	0.578662	0.000069
  94	9.2535e+00	3.7234	4.869577	0.000170	1.697762	0.575217	0.000068
  95	9.3530e+00	3.7651	4.937603	0.000170	1.697762	0.575217	0.000068
  96	9.4525e+00	3.8101	4.999111	0.000154	1.535102	0.520107	0.000062
  97	9.5520e+00	3.8453	5.068767	0.000174	1.738427	0.588995	0.000070
  98	9.6515e+00	3.8758	5.129868	0.000152	1.524936	0.516662	0.000061
  99	9.7510e+00	3.9127	5.201561	0.000179	1.789258	0.606217	0.000072
 100	9.8505e+00	3.9528	5.265513	0.000160	1.596100	0.540773	0.000064
 101	9.9500e+00	3.9929	5.335984	0.000176	1.758760	0.595884	0.000071
 102	1.0050e+01	4.0106	5.401566	0.000164	1.636765	0.554551	0.000066
 103	1.0149e+01	4.0764	5.465926	0.000161	1.606266	0.544218	0.000065
 104	1.0248e+01	4.1229	5.535989	0.000175	1.748593	0.592440	0.000070
 105	1.0348e+01	4.1566	5.601164	0.000163	1.626599	0.551107	0.000066
 106	1.0447e+01	4.2079	5.667561	0.000166	1.657097	0.561440	0.000067
 107	1.0547e+01	4.2544	5.731513	0.000160	1.596100	0.540773	0.000064
 108	1.0646e+01	4.2737	5.804428	0.000182	1.819757	0.616550	0.000073
 109	1.0746e+01	4.3250	5.860641	0.000140	1.402941	0.475329	0.000056
 110	1.0845e+01	4.3539	5.934370	0.000184	1.840090	0.623439	0.000074
 111	1.0945e+01	4.4181	5.999137	0.000162	1.616432	0.547662	0.000065
 112	1.1044e+01	4.4582	6.063905	0.000162	1.616432	0.547662	0.000065
 113	1.1144e+01	4.4919	6.131116	0.000168	1.677430	0.568329	0.000068
 114	1.1243e+01	4.5304	6.199957	0.000172	1.718095	0.582106	0.000069
 115	1.1343e+01	4.5384	6.264317	0.000161	1.606266	0.544218	0.000065
 116	1.1443e+01	4.5945	6.327863	0.000159	1.585934	0.537329	0.000064
 117	1.1542e+01	4.6330	6.395482	0.000169	1.687596	0.571773	0.000068
 118	1.1642e+01	4.6892	6.463915	0.000171	1.707928	0.578662	0.000069
 119	1.1741e+01	4.7116	6.523795	0.000149	1.494437	0.506329	0.000060
 120	1.1841e+01	4.7533	6.591413	0.000169	1.687596	0.571773	0.000068
 121	1.1940e+01	4.7983	6.660254	0.000172	1.718095	0.582106	0.000069
 122	1.2040e+01	4.8239	6.727466	0.000168	1.677430	0.568329	0.000068
 123	1.2139e+01	4.8945	6.789789	0.000156	1.555435	0.526996	0.000063
 124	1.2239e+01	4.9073	6.859038	0.000173	1.728261	0.585551	0.000070
 125	1.2338e+01	4.9491	6.922176	0.000158	1.575767	0.533884	0.000063
 126	1.2438e+01	4.9876	6.988572	0.000166	1.657097	0.561440	0.000067
 127	1.2537e+01	5.0341	7.057821	0.000173	1.728261	0.585551	0.000070
 128	1.2636e+01	5.0630	7.125440	0.000169	1.687596	0.571773	0.000068
 129	1.2736e+01	5.1207	7.186948	0.000154	1.535102	0.520107	0.000062
 130	1.2835e+01	5.1737	7.257826	0.000177	1.768926	0.599328	0.000071
 131	1.2935e+01	5.1945	7.320557	0.000157	1.565601	0.530440	0.000063
 132	1.3034e+01	5.2378	7.390620	0.000175	1.748593	0.592440	0.000070
 133	1.3134e+01	5.2715	7.462312	0.000179	1.789258	0.606217	0.000072
 134	1.3233e+01	5.3164	7.524635	0.000156	1.555435	0.526996	0.000063
 135	1.3333e+01	5.3517	7.589403	0.000162	1.616432	0.547662	0.000065
 136	1.3432e+01	5.3790	7.656614	0.000168	1.677430	0.568329	0.000068
 137	1.3532e+01	5.4255	7.721382	0.000162	1.616432	0.547662	0.000065
 138	1.3632e+01	5.4720	7.786964	0.000164	1.636765	0.554551	0.000066
 139	1.3731e+01	5.5298	7.856619	0.000174	1.738427	0.588995	0.000070
 140	1.3831e+01	5.5747	7.923016	0.000166	1.657097	0.561440	0.000067
 141	1.3930e+01	5.5891	7.986562	0.000159	1.585934	0.537329	0.000064
 142	1.4030e+01	5.6276	8.054588	0.000170	1.697762	0.575217	0.000068
 143	1.4129e+01	5.6694	8.120577	0.000165	1.646931	0.557995	0.000066
 144	1.4229e+01	5.7351	8.185752	0.000163	1.626599	0.551107	0.000066
 145	1.4328e+01	5.7736	8.255000	0.000173	1.728261	0.585551	0.000070
 146	1.4428e+01	5.7817	8.320583	0.000164	1.636765	0.554551	0.000066
 147	1.4527e+01	5.8651	8.384128	0.000159	1.585934	0.537329	0.000064
 148	1.4627e+01	5.8843	8.444822	0.000151	1.514770	0.513218	0.000061
 149	1.4726e+01	5.9068	8.509590	0.000162	1.616432	0.547662	0.000065
 150	1.4825e+01	5.9389	8.577616	0.000170	1.697762	0.575217	0.000068
 151	1.4925e+01	5.9918	8.639939	0.000156	1.555435	0.526996	0.000063
 152	1.5024e+01	6.0319	8.701855	0.000155	1.545269	0.523551	0.000062
 153	1.5124e+01	6.0672	8.767845	0.000165	1.646931	0.557995	0.000066
 154	1.5223e+01	6.1185	8.833834	0.000165	1.646931	0.557995	0.000066
 155	1.5323e+01	6.1811	8.903490	0.000174	1.738427	0.588995	0.000070
 156	1.5422e+01	6.2020	8.961332	0.000144	1.443606	0.489107	0.000058
 157	1.5522e+01	6.2308	9.028951	0.000169	1.687596	0.571773	0.000068
 158	1.5621e+01	6.2934	9.093311	0.000161	1.606266	0.544218	0.000065
 159	1.5721e+01	6.3014	9.156450	0.000158	1.575767	0.533884	0.000063
 160	1.5820e+01	6.3544	9.216736	0.000150	1.504604	0.509774	0.000061
 161	1.5920e+01	6.4073	9.281504	0.000162	1.616432	0.547662	0.000065
 162	1.6020e+01	6.4442	9.349123	0.000169	1.687596	0.571773	0.000068
 163	1.6119e+01	6.4667	9.411446	0.000156	1.555435	0.526996	0.000063
 164	1.6218e+01	6.5100	9.472955	0.000154	1.535102	0.520107	0.000062
 165	1.6318e+01	6.5469	9.536500	0.000159	1.585934	0.537329	0.000064
 166	1.6418e+01	6.5854	9.599231	0.000157	1.565601	0.530440	0.000063
 167	1.6517e+01	6.6062	9.665220	0.000165	1.646931	0.557995	0.000066
 168	1.6616e+01	6.6800	9.728766	0.000159	1.585934	0.537329	0.000064
 169	1.6716e+01	6.7089	9.787016	0.000145	1.453772	0.492551	0.000059
 170	1.6816e+01	6.7362	9.851783	0.000162	1.616432	0.547662	0.000065
 171	1.6915e+01	6.7811	9.911663	0.000149	1.494437	0.506329	0.000060
 172	1.7015e+01	6.8292	9.978059	0.000166	1.657097	0.561440	0.000067
 173	1.7114e+01	6.8709	10.032236	0.000135	1.352110	0.458107	0.000054
 174	1.7213e+01	6.8998	10.092523	0.000150	1.504604	0.509774	0.000061
 175	1.7313e+01	6.9463	10.152809	0.000150	1.504604	0.509774	0.000061
 176	1.7413e+01	6.9816	10.215948	0.000158	1.575767	0.533884	0.000063
 177	1.7512e+01	7.0314	10.276642	0.000151	1.514770	0.513218	0.000061
 178	1.7611e+01	7.0747	10.336928	0.000150	1.504604	0.509774	0.000061
 179	1.7711e+01	7.1051	10.394771	0.000144	1.443606	0.489107	0.000058
 180	1.7811e+01	7.1533	10.457094	0.000156	1.555435	0.526996	0.000063
 181	1.7910e+01	7.1998	10.515752	0.000146	1.463939	0.495996	0.000059
 182	1.8009e+01	7.2126	10.573594	0.000144	1.443606	0.489107	0.000058
 183	1.8109e+01	7.2720	10.633881	0.000150	1.504604	0.509774	0.000061
 184	1.8209e+01	7.3137	10.692538	0.000146	1.463939	0.495996	0.000059
 185	1.8308e+01	7.3458	10.755676	0.000158	1.575767	0.533884	0.000063
 186	1.8407e+01	7.4116	10.808224	0.000131	1.311445	0.444330	0.000053
 187	1.8507e+01	7.4276	10.870547	0.000156	1.555435	0.526996	0.000063
 188	1.8607e+01	7.4677	10.928390	0.000144	1.443606	0.489107	0.000058
 189	1.8706e+01	7.5062	10.986640	0.000145	1.453772	0.492551	0.000059
 190	1.8805e+01	7.5736	11.048556	0.000155	1.545269	0.523551	0.000062
 191	1.8905e+01	7.6057	11.106806	0.000145	1.453772	0.492551	0.000059
 192	1.9005e+01	7.6313	11.161390	0.000136	1.362276	0.461552	0.000055
 193	1.9104e+01	7.6827	11.223306	0.000155	1.545269	0.523551	0.000062
 194	1.9203e+01	7.7067	11.281963	0.000146	1.463939	0.495996	0.000059
 195	1.9303e+01	7.7372	11.339398	0.000143	1.433440	0.485663	0.000058
 196	1.9402e+01	7.8014	11.396019	0.000141	1.413108	0.478774	0.000057
 197	1.9502e+01	7.8078	11.452640	0.000141	1.413108	0.478774	0.000057
 198	1.9602e+01	7.8720	11.510075	0.000143	1.433440	0.485663	0.000058
 199	1.9701e+01	7.9089	11.570769	0.000151	1.514770	0.513218	0.000061
 200	1.9800e+01	7.9393	11.625760	0.000137	1.372443	0.464996	0.000055
 201	1.9900e+01	7.9987	11.684010	0.000145	1.453772	0.492551	0.000059
 202	2.0000e+01	8.0484	11.739409	0.000138	1.382609	0.468441	0.000056
 203	2.0099e+01	8.0725	11.794807	0.000138	1.382609	0.468441	0.000056
 204	2.0198e+01	8.1094	11.856723	0.000155	1.545269	0.523551	0.000062
 205	2.0298e+01	8.1704	11.914973	0.000145	1.453772	0.492551	0.000059
 206	2.0398e+01	8.1832	11.970372	0.000138	1.382609	0.468441	0.000056
 207	2.0497e+01	8.2313	12.028215	0.000144	1.443606	0.489107	0.000058
 208	2.0596e+01	8.2490	12.080762	0.000131	1.311445	0.444330	0.000053
 209	2.0696e+01	8.2891	12.136975	0.000140	1.402941	0.475329	0.000056
 210	2.0796e+01	8.3452	12.195632	0.000146	1.463939	0.495996	0.000059
 211	2.0895e+01	8.4014	12.249809	0.000135	1.352110	0.458107	0.000054
 212	2.0994e+01	8.4383	12.306837	0.000142	1.423274	0.482218	0.000057
 213	2.1094e+01	8.4447	12.361013	0.000135	1.352110	0.458107	0.000054
 214	2.1194e+01	8.5201	12.416819	0.000139	1.392775	0.471885	0.000056
 215	2.1293e+01	8.5506	12.468144	0.000128	1.280946	0.433996	0.000052
 216	2.1392e+01	8.6019	12.526394	0.000145	1.453772	0.492551	0.000059
 217	2.1492e+01	8.6244	12.575683	0.000123	1.230115	0.416774	0.000050
 218	2.1591e+01	8.6725	12.631082	0.000138	1.382609	0.468441	0.000056
 219	2.1691e+01	8.6805	12.687702	0.000141	1.413108	0.478774	0.000057
 220	2.1791e+01	8.7543	12.741879	0.000135	1.352110	0.458107	0.000054
 221	2.1890e+01	8.7832	12.796463	0.000136	1.362276	0.461552	0.000055
 222	2.1989e+01	8.8281	12.852269	0.000139	1.392775	0.471885	0.000056
 223	2.2089e+01	8.8778	12.904816	0.000131	1.311445	0.444330	0.000053
 224	2.2189e+01	8.8955	12.958992	0.000135	1.352110	0.458107	0.000054
 225	2.2288e+01	8.9388	13.013169	0.000135	1.352110	0.458107	0.000054
 226	2.2387e+01	8.9885	13.066123	0.000132	1.321611	0.447774	0.000053
 227	2.2487e+01	9.0302	13.119078	0.000132	1.321611	0.447774	0.000053
 228	2.2587e+01	9.0671	13.174884	0.000139	1.392775	0.471885	0.000056
 229	2.2686e+01	9.1056	13.227431	0.000131	1.311445	0.444330	0.000053
 230	2.2785e+01	9.1425	13.280386	0.000132	1.321611	0.447774	0.000053
 231	2.2885e+01	9.1778	13.336599	0.000140	1.402941	0.475329	0.000056
 232	2.2985e+01	9.2131	13.389146	0.000131	1.311445	0.444330	0.000053
 233	2.3084e+01	9.2741	13.444545	0.000138	1.382609	0.468441	0.000056
 234	2.3183e+01	9.2933	13.501573	0.000142	1.423274	0.482218	0.000057
 235	2.3283e+01	9.3366	13.556156	0.000136	1.362276	0.461552	0.000055
 236	2.3383e+01	9.3816	13.606260	0.000125	1.250448	0.423663	0.000050
 237	2.3482e+01	9.4120	13.662066	0.000139	1.392775	0.471885	0.000056
 238	2.3581e+01	9.4618	13.717057	0.000137	1.372443	0.464996	0.000055
 239	2.3681e+01	9.5115	13.766345	0.000123	1.230115	0.416774	0.000050
 240	2.3780e+01	9.5452	13.820114	0.000134	1.341944	0.454663	0.000054
 241	2.3880e+01	9.5965	13.877142	0.000142	1.423274	0.482218	0.000057
 242	2.3980e+01	9.6094	13.931319	0.000135	1.352110	0.458107	0.000054
 243	2.4079e+01	9.6366	13.986718	0.000138	1.382609	0.468441	0.000056
 244	2.4178e+01	9.7024	14.036413	0.000124	1.240281	0.420219	0.000050
 245	2.4278e+01	9.7345	14.094256	0.000144	1.443606	0.489107	0.000058
 246	2.4378e+01	9.7922	14.143544	0.000123	1.230115	0.416774	0.000050
 247	2.4477e+01	9.8227	14.200572	0.000142	1.423274	0.482218	0.000057
 248	2.4576e+01	9.8420	14.247824	0.000118	1.179284	0.399552	0.000047
 249	2.4676e+01	9.9013	14.306074	0.000145	1.453772	0.492551	0.000059
 250	2.4776e+01	9.9366	14.356585	0.000126	1.260614	0.427108	0.000051
 251	2.4875e+01	9.9863	14.409132	0.000131	1.311445	0.444330	0.000053
 252	2.4974e+01	10.0216	14.462494	0.000133	1.331778	0.451218	0.000054
 253	2.5074e+01	10.0457	14.516263	0.000134	1.341944	0.454663	0.000054
 254	2.5174e+01	10.1002	14.569625	0.000133	1.331778	0.451218	0.000054
 255	2.5273e+01	10.1371	14.629504	0.000149	1.494437	0.506329	0.000060
 256	2.5372e+01	10.1773	14.682866	0.000133	1.331778	0.451218	0.000054
 257	2.5472e+01	10.2061	14.736228	0.000133	1.331778	0.451218	0.000054
 258	2.5572e+01	10.2735	14.789182	0.000132	1.321611	0.447774	0.000053
 259	2.5671e+01	10.2912	14.844988	0.000139	1.392775	0.471885	0.000056
 260	2.5770e+01	10.3569	14.902831	0.000144	1.443606	0.489107	0.000058
 261	2.5870e+01	10.3810	14.952934	0.000125	1.250448	0.423663	0.000050
 262	2.5970e+01	10.4083	15.012813	0.000149	1.494437	0.506329	0.000060
 263	2.6069e+01	10.4452	15.065361	0.000131	1.311445	0.444330	0.000053
 264	2.6169e+01	10.4837	15.123611	0.000145	1.453772	0.492551	0.000059
 265	2.6268e+01	10.5302	15.180231	0.000141	1.413108	0.478774	0.000057
 266	2.6367e+01	10.5591	15.233186	0.000132	1.321611	0.447774	0.000053
 267	2.6467e+01	10.6168	15.291843	0.000146	1.463939	0.495996	0.000059
 268	2.6567e+01	10.6553	15.346427	0.000136	1.362276	0.461552	0.000055
 269	2.6666e+01	10.6922	15.401418	0.000137	1.372443	0.464996	0.000055
 270	2.6765e+01	10.7564	15.456409	0.000137	1.372443	0.464996	0.000055
 271	2.6865e+01	10.7676	15.509771	0.000133	1.331778	0.451218	0.000054
 272	2.6965e+01	10.8189	15.568429	0.000146	1.463939	0.495996	0.000059
 273	2.7064e+01	10.8767	15.624235	0.000139	1.392775	0.471885	0.000056
 274	2.7163e+01	10.9056	15.675967	0.000129	1.291113	0.437441	0.000052
 275	2.7263e+01	10.9393	15.730144	0.000135	1.352110	0.458107	0.000054
 276	2.7363e+01	10.9762	15.787172	0.000142	1.423274	0.482218	0.000057
 277	2.7462e+01	11.0082	15.845422	0.000145	1.453772	0.492551	0.000059
 278	2.7561e+01	11.0724	15.898376	0.000132	1.321611	0.447774	0.000053
 279	2.7661e+01	11.0981	15.950923	0.000131	1.311445	0.444330	0.000053
 280	2.7761e+01	11.1302	16.004693	0.000134	1.341944	0.454663	0.000054
 281	2.7860e+01	11.1671	16.060498	0.000139	1.392775	0.471885	0.000056
 282	2.7959e+01	11.2056	16.115897	0.000138	1.382609	0.468441	0.000056
 283	2.8059e+01	11.2393	16.166408	0.000126	1.260614	0.427108	0.000051
 284	2.8159e+01	11.3018	16.227916	0.000154	1.535102	0.520107	0.000062
 285	2.8258e+01	11.3355	16.283722	0.000139	1.392775	0.471885	0.000056
 286	2.8358e+01	11.3708	16.338306	0.000136	1.362276	0.461552	0.000055
 287	2.8457e+01	11.4398	16.391668	0.000133	1.331778	0.451218	0.000054
 288	2.8556e+01	11.4671	16.448289	0.000141	1.413108	0.478774	0.000057
 289	2.8656e+01	11.4943	16.500836	0.000131	1.311445	0.444330	0.000053
 290	2.8756e+01	11.5296	16.557456	0.000141	1.413108	0.478774	0.000057
 291	2.8855e+01	11.5569	16.611633	0.000135	1.352110	0.458107	0.000054
 292	2.8954e+01	11.6050	16.661736	0.000125	1.250448	0.423663	0.000050
 293	2.9054e+01	11.6644	16.724874	0.000158	1.575767	0.533884	0.000063
 294	2.9154e+01	11.6804	16.774977	0.000125	1.250448	0.423663	0.000050
 295	2.9253e+01	11.7334	16.832820	0.000144	1.443606	0.489107	0.000058
 296	2.9352e+01	11.7815	16.885367	0.000131	1.311445	0.444330	0.000053
 297	2.9452e+01	11.8328	16.948505	0.000158	1.575767	0.533884	0.000063
 298	2.9552e+01	11.8392	17.001052	0.000131	1.311445	0.444330	0.000053
 299	2.9651e+01	11.8954	17.058080	0.000142	1.423274	0.482218	0.000057
 300	2.9750e+01	11.9066	17.115923	0.000144	1.443606	0.489107	0.000058
 301	2.9850e+01	11.9580	17.168878	0.000132	1.321611	0.447774	0.000053
 302	2.9950e+01	12.0334	17.224276	0.000138	1.382609	0.468441	0.000056
 303	3.0049e+01	12.0526	17.278860	0.000136	1.362276	0.461552	0.000055
 304	3.0148e+01	12.1120	17.333851	0.000137	1.372443	0.464996	0.000055
 305	3.0248e+01	12.1104	17.393323	-0.000148	-1.484271	-0.502885	0.000060
 306	3.0348e+01	12.1777	17.444241	0.000127	1.270780	0.430552	0.000051
 307	3.0447e+01	12.2355	17.502491	0.000145	1.453772	0.492551	0.000059
 308	3.0547e+01	12.2692	17.561148	0.000146	1.463939	0.495996	0.000059
 309	3.0646e+01	12.2852	17.614103	0.000132	1.321611	0.447774	0.000053
 310	3.0745e+01	12.3141	17.668687	0.000136	1.362276	0.461552	0.000055
 311	3.0845e+01	12.3718	17.725715	0.000142	1.423274	0.482218	0.000057
 312	3.0945e+01	12.4136	17.780299	0.000136	1.362276	0.461552	0.000055
 313	3.1044e+01	12.4633	17.839363	0.000147	1.474105	0.499440	0.000059
 314	3.1143e+01	12.4906	17.890689	0.000128	1.280946	0.433996	0.000052
 315	3.1243e+01	12.5178	17.946494	0.000139	1.392775	0.471885	0.000056
 316	3.1343e+01	12.5708	17.999449	0.000132	1.321611	0.447774	0.000053
 317	3.1442e+01	12.6045	18.052404	0.000132	1.321611	0.447774	0.000053
 318	3.1541e+01	12.6702	18.105358	0.000132	1.321611	0.447774	0.000053
 319	3.1641e+01	12.6991	18.157905	0.000131	1.311445	0.444330	0.000053
 320	3.1741e+01	12.7344	18.214526	0.000141	1.413108	0.478774	0.000057
 321	3.1840e+01	12.7729	18.271961	0.000143	1.433440	0.485663	0.000058
 322	3.1939e+01	12.8082	18.329396	0.000143	1.433440	0.485663	0.000058
 323	3.2039e+01	12.8499	18.377056	0.000119	1.189450	0.402997	0.000048
 324	3.2139e+01	12.9109	18.436935	0.000149	1.494437	0.506329	0.000060
 325	3.2238e+01	12.9494	18.493963	0.000142	1.423274	0.482218	0.000057
 326	3.2337e+01	12.9766	18.541622	0.000119	1.189450	0.402997	0.000048
 327	3.2437e+01	12.9927	18.589281	0.000119	1.189450	0.402997	0.000048
 328	3.2536e+01	13.0360	18.649975	0.000151	1.514770	0.513218	0.000061
 329	3.2636e+01	13.0809	18.701708	0.000129	1.291113	0.437441	0.000052
 330	3.2736e+01	13.1242	18.756699	0.000137	1.372443	0.464996	0.000055
 331	3.2835e+01	13.1579	18.810875	0.000135	1.352110	0.458107	0.000054
 332	3.2934e+01	13.2205	18.863015	0.000130	1.301279	0.440885	0.000052
 333	3.3034e+01	13.2462	18.916377	0.000133	1.331778	0.451218	0.000054
 334	3.3133e+01	13.2863	18.970961	0.000136	1.362276	0.461552	0.000055
 335	3.3233e+01	13.3264	19.024730	0.000134	1.341944	0.454663	0.000054
 336	3.3333e+01	13.3536	19.076870	0.000130	1.301279	0.440885	0.000052
 337	3.3432e+01	13.3729	19.131454	0.000136	1.362276	0.461552	0.000055
 338	3.3532e+01	13.4274	19.183186	0.000129	1.291113	0.437441	0.000052
 339	3.3631e+01	13.4611	19.232882	0.000124	1.240281	0.420219	0.000050
 340	3.3730e+01	13.5413	19.281356	0.000121	1.209783	0.409885	0.000049
 341	3.3830e+01	13.5943	19.329830	0.000121	1.209783	0.409885	0.000049
 342	3.3929e+01	13.5927	19.385228	-0.000138	-1.382609	-0.468441	0.000056
 343	3.4029e+01	13.6296	19.438590	0.000133	1.331778	0.451218	0.000054
 344	3.4129e+01	13.6809	19.490323	0.000129	1.291113	0.437441	0.000052
 345	3.4228e+01	13.7194	19.538389	0.000120	1.199616	0.406441	0.000048
 346	3.4328e+01	13.7948	19.585641	0.000118	1.179284	0.399552	0.000047
 347	3.4427e+01	13.8076	19.638188	0.000131	1.311445	0.444330	0.000053
 348	3.4526e+01	13.8526	19.688291	0.000125	1.250448	0.423663	0.000050
 349	3.4626e+01	13.8734	19.739209	0.000127	1.270780	0.430552	0.000051
 350	3.4725e+01	13.9151	19.788905	0.000124	1.240281	0.420219	0.000050
 351	3.4825e+01	13.9665	19.841452	0.000131	1.311445	0.444330	0.000053
 352	3.4925e+01	14.0033	19.888704	0.000118	1.179284	0.399552	0.000047
 353	3.5024e+01	14.0338	19.941251	0.000131	1.311445	0.444330	0.000053
 354	3.5123e+01	14.1044	19.987281	0.000115	1.148785	0.389219	0.000046
 355	3.5223e+01	14.1205	20.040235	0.000132	1.321611	0.447774	0.000053
 356	3.5322e+01	14.1654	20.084636	0.000111	1.108120	0.375441	0.000045
 357	3.5422e+01	14.1975	20.136368	0.000129	1.291113	0.437441	0.000052
 358	3.5522e+01	14.2376	20.183212	0.000117	1.169118	0.396108	0.000047
 359	3.5621e+01	14.2809	20.235760	0.000131	1.311445	0.444330	0.000053
 360	3.5721e+01	14.3290	20.287899	0.000130	1.301279	0.440885	0.000052
 361	3.5820e+01	14.3755	20.335966	0.000120	1.199616	0.406441	0.000048
 362	3.5919e+01	14.3836	20.385254	0.000123	1.230115	0.416774	0.000050
 363	3.6019e+01	14.4429	20.434135	0.000122	1.219949	0.413330	0.000049
 364	3.6118e+01	14.4670	20.480165	0.000115	1.148785	0.389219	0.000046
 365	3.6218e+01	14.5007	20.531898	0.000129	1.291113	0.437441	0.000052
 366	3.6318e+01	14.5600	20.581186	0.000123	1.230115	0.416774	0.000050
 367	3.6417e+01	14.5985	20.626808	0.000114	1.138619	0.385775	0.000046
 368	3.6517e+01	14.6595	20.674468	0.000119	1.189450	0.402997	0.000048
 369	3.6616e+01	14.6884	20.723756	0.000123	1.230115	0.416774	0.000050
 370	3.6715e+01	14.7060	20.773044	0.000123	1.230115	0.416774	0.000050
 371	3.6815e+01	14.7814	20.819074	0.000115	1.148785	0.389219	0.000046
 372	3.6914e+01	14.7942	20.871621	0.000131	1.311445	0.444330	0.000053
 373	3.7014e+01	14.8440	20.916429	0.000112	1.118287	0.378886	0.000045
 374	3.7114e+01	14.8696	20.966532	0.000125	1.250448	0.423663	0.000050
 375	3.7213e+01	14.9242	21.015006	0.000121	1.209783	0.409885	0.000049
 376	3.7313e+01	14.9755	21.059814	0.000112	1.118287	0.378886	0.000045
 377	3.7412e+01	15.0124	21.109102	0.000123	1.230115	0.416774	0.000050
 378	3.7511e+01	15.0285	21.160835	0.000129	1.291113	0.437441	0.000052
 379	3.7611e+01	15.0846	21.203198	0.000106	1.057289	0.358219	0.000043
 380	3.7711e+01	15.1231	21.250450	0.000118	1.179284	0.399552	0.000047
 381	3.7810e+01	15.1600	21.293628	0.000108	1.077622	0.365108	0.000043
 382	3.7910e+01	15.1841	21.338029	0.000111	1.108120	0.375441	0.000045
 383	3.8009e+01	15.2434	21.386095	0.000120	1.199616	0.406441	0.000048
 384	3.8108e+01	15.3044	21.434161	0.000120	1.199616	0.406441	0.000048
 385	3.8208e+01	15.3028	21.478154	-0.000110	-1.097954	-0.371997	0.000044
 386	3.8307e+01	15.3461	21.524184	0.000115	1.148785	0.389219	0.000046
 387	3.8407e+01	15.3846	21.573880	0.000124	1.240281	0.420219	0.000050
 388	3.8507e+01	15.4279	21.619095	0.000113	1.128453	0.382330	0.000045
 389	3.8606e+01	15.4841	21.665939	0.000117	1.169118	0.396108	0.000047
 390	3.8706e+01	15.5017	21.708710	0.000107	1.067455	0.361664	0.000043
 391	3.8805e+01	15.5659	21.753518	0.000112	1.118287	0.378886	0.000045
 392	3.8904e+01	15.5980	21.798733	0.000113	1.128453	0.382330	0.000045
 393	3.9004e+01	15.6332	21.846392	0.000119	1.189450	0.402997	0.000048
 394	3.9103e+01	15.6926	21.893236	0.000117	1.169118	0.396108	0.000047
 395	3.9203e+01	15.7231	21.939673	0.000116	1.158951	0.392663	0.000047
 396	3.9303e+01	15.7632	21.985703	0.000115	1.148785	0.389219	0.000046
 397	3.9402e+01	15.7985	22.032140	0.000116	1.158951	0.392663	0.000047
 398	3.9502e+01	15.8482	22.074911	0.000107	1.067455	0.361664	0.000043
 399	3.9601e+01	15.8370	22.121348	-0.000116	-1.158951	-0.392663	0.000047
 400	3.9700e+01	15.9220	22.170229	0.000122	1.219949	0.413330	0.000049
 401	3.9800e+01	15.9509	22.217074	0.000117	1.169118	0.396108	0.000047
 402	3.9900e+01	16.0231	22.264326	0.000118	1.179284	0.399552	0.000047
 403	3.9999e+01	16.0327	22.305874	0.000104	1.036957	0.351330	0.000042
 404	4.0099e+01	16.0840	22.350275	0.000111	1.108120	0.375441	0.000045
 405	4.0198e+01	16.1129	22.395490	0.000113	1.128453	0.382330	0.000045
 406	4.0297e+01	16.1610	22.443556	0.000120	1.199616	0.406441	0.000048
 407	4.0397e+01	16.2011	22.489179	0.000114	1.138619	0.385775	0.000046
 408	4.0496e+01	16.2316	22.533986	0.000112	1.118287	0.378886	0.000045
 409	4.0596e+01	16.2653	22.581238	0.000118	1.179284	0.399552	0.000047
 410	4.0696e+01	16.3199	22.629304	0.000120	1.199616	0.406441	0.000048
 411	4.0795e+01	16.3552	22.674519	0.000113	1.128453	0.382330	0.000045
 412	4.0895e+01	16.4017	22.719734	0.000113	1.128453	0.382330	0.000045
 413	4.0994e+01	16.4450	22.766986	0.000118	1.179284	0.399552	0.000047
 414	4.1093e+01	16.4707	22.811794	0.000112	1.118287	0.378886	0.000045
 415	4.1193e+01	16.5124	22.855787	0.000110	1.097954	0.371997	0.000044
 416	4.1292e+01	16.5573	22.900187	0.000111	1.108120	0.375441	0.000045
 417	4.1392e+01	16.6070	22.947846	0.000119	1.189450	0.402997	0.000048
 418	4.1492e+01	16.6263	22.996320	0.000121	1.209783	0.409885	0.000049
 419	4.1591e+01	16.6856	23.041128	0.000112	1.118287	0.378886	0.000045
 420	4.1691e+01	16.7113	23.089602	0.000121	1.209783	0.409885	0.000049
 421	4.1790e+01	16.7418	23.133187	0.000109	1.087788	0.368552	0.000044
 422	4.1889e+01	16.7995	23.182883	0.000124	1.240281	0.420219	0.000050
 423	4.1989e+01	16.8509	23.228505	0.000114	1.138619	0.385775	0.000046
 424	4.2089e+01	16.8701	23.274535	0.000115	1.148785	0.389219	0.000046
 425	4.2188e+01	16.8878	23.321787	0.000118	1.179284	0.399552	0.000047
 426	4.2288e+01	16.9632	23.373112	0.000128	1.280946	0.433996	0.000052
 427	4.2387e+01	16.9856	23.416290	0.000108	1.077622	0.365108	0.000043
 428	4.2486e+01	17.0353	23.467208	0.000127	1.270780	0.430552	0.000051
 429	4.2586e+01	17.0755	23.516497	0.000123	1.230115	0.416774	0.000050
 430	4.2685e+01	17.1075	23.564970	0.000121	1.209783	0.409885	0.000049
 431	4.2785e+01	17.1621	23.611407	0.000116	1.158951	0.392663	0.000047
 432	4.2885e+01	17.1894	23.663955	0.000131	1.311445	0.444330	0.000053
 433	4.2984e+01	17.2263	23.707133	0.000108	1.077622	0.365108	0.000043
 434	4.3084e+01	17.2744	23.757643	0.000126	1.260614	0.427108	0.000051
 435	4.3183e+01	17.3113	23.803673	0.000115	1.148785	0.389219	0.000046
 436	4.3282e+01	17.3546	23.852961	0.000123	1.230115	0.416774	0.000050
 437	4.3382e+01	17.3770	23.901028	0.000120	1.199616	0.406441	0.000048
 438	4.3481e+01	17.4268	23.946243	0.000113	1.128453	0.382330	0.000045
 439	4.3581e+01	17.4589	23.998790	0.000131	1.311445	0.444330	0.000053
 440	4.3681e+01	17.5038	24.044412	0.000114	1.138619	0.385775	0.000046
 441	4.3780e+01	17.5503	24.096960	0.000131	1.311445	0.444330	0.000053
 442	4.3880e+01	17.5808	24.142175	0.000113	1.128453	0.382330	0.000045
 443	4.3979e+01	17.6289	24.191463	0.000123	1.230115	0.416774	0.000050
 444	4.4078e+01	17.6658	24.239122	0.000119	1.189450	0.402997	0.000048
 445	4.4178e+01	17.7091	24.287596	0.000121	1.209783	0.409885	0.000049
 446	4.4278e+01	17.7589	24.336884	0.000123	1.230115	0.416774	0.000050
 447	4.4377e+01	17.8102	24.380877	0.000110	1.097954	0.371997	0.000044
 448	4.4477e+01	17.8359	24.430166	0.000123	1.230115	0.416774	0.000050
 449	4.4576e+01	17.8679	24.481491	0.000128	1.280946	0.433996	0.000052
 450	4.4675e+01	17.8984	24.524262	0.000107	1.067455	0.361664	0.000043
 451	4.4775e+01	17.9594	24.573143	0.000122	1.219949	0.413330	0.000049
 452	4.4874e+01	17.9963	24.623654	0.000126	1.260614	0.427108	0.000051
 453	4.4974e+01	18.0107	24.670905	0.000118	1.179284	0.399552	0.000047
 454	4.5074e+01	18.0909	24.716935	0.000115	1.148785	0.389219	0.000046
 455	4.5173e+01	18.1118	24.765409	0.000121	1.209783	0.409885	0.000049
 456	4.5273e+01	18.1342	24.813475	0.000120	1.199616	0.406441	0.000048
 457	4.5372e+01	18.1808	24.861542	0.000120	1.199616	0.406441	0.000048
 458	4.5471e+01	18.2337	24.912459	0.000127	1.270780	0.430552	0.000051
 459	4.5571e+01	18.2465	24.958082	0.000114	1.138619	0.385775	0.000046
 460	4.5670e+01	18.2979	25.003704	0.000114	1.138619	0.385775	0.000046
 461	4.5770e+01	18.3540	25.059917	0.000140	1.402941	0.475329	0.000056
 462	4.5870e+01	18.3877	25.108391	0.000121	1.209783	0.409885	0.000049
 463	4.5969e+01	18.4455	25.156458	0.000120	1.199616	0.406441	0.000048
 464	4.6069e+01	18.4599	25.205339	0.000122	1.219949	0.413330	0.000049
 465	4.6168e+01	18.4824	25.256664	0.000128	1.280946	0.433996	0.000052
 466	4.6267e+01	18.5497	25.307582	0.000127	1.270780	0.430552	0.000051
 467	4.6367e+01	18.5963	25.360944	0.000133	1.331778	0.451218	0.000054
 468	4.6467e+01	18.6332	25.409417	0.000121	1.209783	0.409885	0.000049
 469	4.6566e+01	18.6701	25.457076	0.000119	1.189450	0.402997	0.000048
 470	4.6666e+01	18.6925	25.506365	0.000123	1.230115	0.416774	0.000050
 471	4.6765e+01	18.7358	25.557283	0.000127	1.270780	0.430552	0.000051
 472	4.6864e+01	18.7711	25.606571	0.000123	1.230115	0.416774	0.000050
 473	4.6964e+01	18.8321	25.654638	0.000120	1.199616	0.406441	0.000048
 474	4.7063e+01	18.8850	25.706370	0.000129	1.291113	0.437441	0.000052
 475	4.7163e+01	18.8930	25.754029	0.000119	1.189450	0.402997	0.000048
 476	4.7263e+01	18.9572	25.806576	0.000131	1.311445	0.444330	0.000053
 477	4.7362e+01	18.9925	25.855457	0.000122	1.219949	0.413330	0.000049
 478	4.7462e+01	19.0134	25.906783	0.000128	1.280946	0.433996	0.000052
 479	4.7561e+01	19.0503	25.954442	0.000119	1.189450	0.402997	0.000048
 480	4.7660e+01	19.1225	26.003323	0.000122	1.219949	0.413330	0.000049
 481	4.7760e+01	19.1594	26.049352	0.000115	1.148785	0.389219	0.000046
 482	4.7859e+01	19.1818	26.099048	0.000124	1.240281	0.420219	0.000050
 483	4.7959e+01	19.2139	26.147115	0.000120	1.199616	0.406441	0.000048
 484	4.8059e+01	19.2620	26.195996	0.000122	1.219949	0.413330	0.000049
 485	4.8158e+01	19.2829	26.243655	0.000119	1.189450	0.402997	0.000048
 486	4.8258e+01	19.3551	26.292129	0.000121	1.209783	0.409885	0.000049
 487	4.8357e+01	19.3904	26.338973	0.000117	1.169118	0.396108	0.000047
 488	4.8456e+01	19.4208	26.390298	0.000128	1.280946	0.433996	0.000052
 489	4.8556e+01	19.4481	26.439994	0.000124	1.240281	0.420219	0.000050
 490	4.8656e+01	19.5027	26.485616	0.000114	1.138619	0.385775	0.000046
 491	4.8755e+01	19.5299	26.536534	0.000127	1.270780	0.430552	0.000051
 492	4.8855e+01	19.5877	26.582564	0.000115	1.148785	0.389219	0.000046
 493	4.8954e+01	19.6342	26.631445	0.000122	1.219949	0.413330	0.000049
 494	4.9053e+01	19.6438	26.682770	0.000128	1.280946	0.433996	0.000052
 495	4.9153e+01	19.7000	26.730429	0.000119	1.189450	0.402997	0.000048
 496	4.9252e+01	19.7224	26.776866	0.000116	1.158951	0.392663	0.000047
 497	4.9352e+01	19.7690	26.825747	0.000122	1.219949	0.413330	0.000049
 498	4.9452e+01	19.8347	26.875443	0.000124	1.240281	0.420219	0.000050
 499	4.9551e+01	19.8604	26.926361	0.000127	1.270780	0.430552	0.000051
 500	4.9651e+01	19.8989	26.973613	0.000118	1.179284	0.399552	0.000047
 501	4.9750e+01	19.9534	27.019235	0.000114	1.138619	0.385775	0.000046
 502	4.9849e+01	19.9759	27.070153	0.000127	1.270780	0.430552	0.000051
 503	4.9949e+01	20.0208	27.119034	0.000122	1.219949	0.413330	0.000049
 504	5.0048e+01	19.9807	27.089298	0.000074	0.742136	0.251442	-0.000030
 505	5.0148e+01	19.9310	27.059969	0.000073	0.731969	0.247998	-0.000029
 506	5.0248e+01	19.9037	27.024531	0.000088	0.884463	0.299664	-0.000036
 507	5.0347e+01	19.8668	26.990721	0.000084	0.843798	0.285887	-0.000034
 508	5.0447e+01	19.8235	26.952838	0.000095	0.945460	0.320331	-0.000038
 509	5.0546e+01	19.7834	26.917807	0.000087	0.874297	0.296220	-0.000035
 510	5.0645e+01	19.7417	26.883590	0.000085	0.853964	0.289331	-0.000034
 511	5.0745e+01	19.7064	26.848559	0.000087	0.874297	0.296220	-0.000035
 512	5.0844e+01	19.6390	26.809454	0.000098	0.975959	0.330664	-0.000039
 513	5.0944e+01	19.6117	26.778496	0.000077	0.772634	0.261776	-0.000031
 514	5.1044e+01	19.5893	26.738576	0.000100	0.996292	0.337553	-0.000040
 515	5.1143e+01	19.5299	26.701101	0.000094	0.935294	0.316886	-0.000038
 516	5.1242e+01	19.5187	26.666069	0.000087	0.874297	0.296220	-0.000035
 517	5.1342e+01	19.4626	26.628594	0.000094	0.935294	0.316886	-0.000038
 518	5.1441e+01	19.4337	26.593155	0.000088	0.884463	0.299664	-0.000036
 519	5.1541e+01	19.3679	26.555679	0.000094	0.935294	0.316886	-0.000038
 520	5.1641e+01	19.3535	26.512094	0.000109	1.087788	0.368552	-0.000044
 521	5.1740e+01	19.2877	26.478284	0.000084	0.843798	0.285887	-0.000034
 522	5.1840e+01	19.2444	26.437550	0.000102	1.016624	0.344442	-0.000041
 523	5.1939e+01	19.2011	26.400889	0.000091	0.914962	0.309997	-0.000037
 524	5.2038e+01	19.1898	26.363414	0.000094	0.935294	0.316886	-0.000038
 525	5.2138e+01	19.1353	26.327160	0.000090	0.904795	0.306553	-0.000036
 526	5.2237e+01	19.0936	26.288463	0.000097	0.965793	0.327219	-0.000039
 527	5.2337e+01	19.0679	26.248543	0.000100	0.996292	0.337553	-0.000040
 528	5.2437e+01	19.0214	26.210253	0.000096	0.955627	0.323775	-0.000038
 529	5.2536e+01	18.9765	26.167889	0.000106	1.057289	0.358219	-0.000043
 530	5.2636e+01	18.9460	26.127155	0.000102	1.016624	0.344442	-0.000041
 531	5.2735e+01	18.8979	26.088865	0.000096	0.955627	0.323775	-0.000038
 532	5.2834e+01	18.8626	26.053426	0.000088	0.884463	0.299664	-0.000036
 533	5.2934e+01	18.8209	26.009433	0.000110	1.097954	0.371997	-0.000044
 534	5.3033e+01	18.8000	25.969921	0.000099	0.986125	0.334108	-0.000040
 535	5.3133e+01	18.7439	25.932853	0.000093	0.925128	0.313442	-0.000037
 536	5.3233e+01	18.7038	25.892118	0.000102	1.016624	0.344442	-0.000041
 537	5.3332e+01	18.6556	25.851384	0.000102	1.016624	0.344442	-0.000041
 538	5.3431e+01	18.6348	25.812279	0.000098	0.975959	0.330664	-0.000039
 539	5.3531e+01	18.5898	25.771545	0.000102	1.016624	0.344442	-0.000041
 540	5.3630e+01	18.5321	25.730403	0.000103	1.026790	0.347886	-0.000041
 541	5.3730e+01	18.5064	25.688854	0.000104	1.036957	0.351330	-0.000042
 542	5.3830e+01	18.4792	25.648527	0.000101	1.006458	0.340997	-0.000041
 543	5.3929e+01	18.4455	25.608201	0.000101	1.006458	0.340997	-0.000041
 544	5.4029e+01	18.4102	25.564615	0.000109	1.087788	0.368552	-0.000044
 545	5.4128e+01	18.3476	25.525917	0.000097	0.965793	0.327219	-0.000039
 546	5.4227e+01	18.3203	25.481517	0.000111	1.108120	0.375441	-0.000045
 547	5.4327e+01	18.2642	25.439153	0.000106	1.057289	0.358219	-0.000043
 548	5.4426e+01	18.2465	25.398012	0.000103	1.026790	0.347886	-0.000041
 549	5.4526e+01	18.1727	25.354833	0.000108	1.077622	0.365108	-0.000043
 550	5.4626e+01	18.1214	25.305545	0.000123	1.230115	0.416774	-0.000050
 551	5.4725e+01	18.0941	25.263181	0.000106	1.057289	0.358219	-0.000043
 552	5.4825e+01	18.0556	25.223669	0.000099	0.986125	0.334108	-0.000040
 553	5.4924e+01	18.0348	25.176825	0.000117	1.169118	0.396108	-0.000047
 554	5.5023e+01	17.9867	25.134868	0.000105	1.047123	0.354775	-0.000042
 555	5.5123e+01	17.9433	25.091690	0.000108	1.077622	0.365108	-0.000043
 556	5.5222e+01	17.9273	25.050141	0.000104	1.036957	0.351330	-0.000042
 557	5.5322e+01	17.8808	25.008185	0.000105	1.047123	0.354775	-0.000042
 558	5.5422e+01	17.8150	24.964192	0.000110	1.097954	0.371997	-0.000044
 559	5.5521e+01	17.7974	24.919384	0.000112	1.118287	0.378886	-0.000045
 560	5.5620e+01	17.7573	24.871318	0.000120	1.199616	0.406441	-0.000048
 561	5.5720e+01	17.7011	24.831806	0.000099	0.986125	0.334108	-0.000040
 562	5.5819e+01	17.6562	24.783332	0.000121	1.209783	0.409885	-0.000049
 563	5.5919e+01	17.6434	24.739339	0.000110	1.097954	0.371997	-0.000044
 564	5.6019e+01	17.5840	24.695753	0.000109	1.087788	0.368552	-0.000044
 565	5.6118e+01	17.5487	24.655426	0.000101	1.006458	0.340997	-0.000041
 566	5.6218e+01	17.5006	24.610619	0.000112	1.118287	0.378886	-0.000045
 567	5.6317e+01	17.4701	24.567440	0.000108	1.077622	0.365108	-0.000043
 568	5.6416e+01	17.4220	24.523447	0.000110	1.097954	0.371997	-0.000044
 569	5.6516e+01	17.3851	24.477418	0.000115	1.148785	0.389219	-0.000046
 570	5.6615e+01	17.3466	24.437091	0.000101	1.006458	0.340997	-0.000041
 571	5.6715e+01	17.3081	24.393505	0.000109	1.087788	0.368552	-0.000044
 572	5.6815e+01	17.2728	24.342180	0.000128	1.280946	0.433996	-0.000052
 573	5.6914e+01	17.2263	24.298187	0.000110	1.097954	0.371997	-0.000044
 574	5.7014e+01	17.2022	24.260304	0.000095	0.945460	0.320331	-0.000038
 575	5.7113e+01	17.1589	24.215089	0.000113	1.128453	0.382330	-0.000045
 576	5.7212e+01	17.1284	24.169059	0.000115	1.148785	0.389219	-0.000046
 577	5.7312e+01	17.0706	24.122622	0.000116	1.158951	0.392663	-0.000047
 578	5.7411e+01	17.0466	24.081481	0.000103	1.026790	0.347886	-0.000041
 579	5.7511e+01	16.9920	24.040339	0.000103	1.026790	0.347886	-0.000041
 580	5.7611e+01	16.9487	23.992273	0.000120	1.199616	0.406441	-0.000048
 581	5.7710e+01	16.9022	23.948280	0.000110	1.097954	0.371997	-0.000044
 582	5.7809e+01	16.8701	23.900621	0.000119	1.189450	0.402997	-0.000048
 583	5.7909e+01	16.8332	23.858257	0.000106	1.057289	0.358219	-0.000043
 584	5.8008e+01	16.7915	23.816301	0.000105	1.047123	0.354775	-0.000042
 585	5.8108e+01	16.7514	23.766197	0.000125	1.250448	0.423663	-0.000050
 586	5.8208e+01	16.7097	23.726685	0.000099	0.986125	0.334108	-0.000040
 587	5.8307e+01	16.6744	23.680248	0.000116	1.158951	0.392663	-0.000047
 588	5.8407e+01	16.6327	23.637070	0.000108	1.077622	0.365108	-0.000043
 589	5.8506e+01	16.5846	23.593077	0.000110	1.097954	0.371997	-0.000044
 590	5.8605e+01	16.5493	23.549491	0.000109	1.087788	0.368552	-0.000044
 591	5.8705e+01	16.5188	23.508350	0.000103	1.026790	0.347886	-0.000041
 592	5.8804e+01	16.4835	23.462727	0.000114	1.138619	0.385775	-0.000046
 593	5.8904e+01	16.4273	23.418734	0.000110	1.097954	0.371997	-0.000044
 594	5.9004e+01	16.4193	23.376778	0.000105	1.047123	0.354775	-0.000042
 595	5.9103e+01	16.3423	23.331970	0.000112	1.118287	0.378886	-0.000045
 596	5.9203e+01	16.3359	23.292458	0.000099	0.986125	0.334108	-0.000040
 597	5.9302e+01	16.2782	23.249280	0.000108	1.077622	0.365108	-0.000043
 598	5.9401e+01	16.2364	23.204879	0.000111	1.108120	0.375441	-0.000045
 599	5.9501e+01	16.1915	23.165367	0.000099	0.986125	0.334108	-0.000040
 600	5.9600e+01	16.1723	23.123004	0.000106	1.057289	0.358219	-0.000043
 601	5.9700e+01	16.1129	23.081047	0.000105	1.047123	0.354775	-0.000042
 602	5.9800e+01	16.0632	23.037462	0.000109	1.087788	0.368552	-0.000044
 603	5.9899e+01	16.0503	22.996320	0.000103	1.026790	0.347886	-0.000041
 604	5.9998e+01	15.9830	22.951920	0.000111	1.108120	0.375441	-0.000045
 605	6.0098e+01	15.9830	22.910371	0.000104	1.036957	0.351330	-0.000042
 606	6.0197e+01	15.9236	22.866378	0.000110	1.097954	0.371997	-0.000044
 607	6.0297e+01	15.8787	22.824422	0.000105	1.047123	0.354775	-0.000042
 608	6.0397e+01	15.8306	22.780021	0.000111	1.108120	0.375441	-0.000045
 609	6.0496e+01	15.8065	22.739287	0.000102	1.016624	0.344442	-0.000041
 610	6.0596e+01	15.7648	22.699367	0.000100	0.996292	0.337553	-0.000040
 611	6.0695e+01	15.7167	22.650079	0.000123	1.230115	0.416774	-0.000050
 612	6.0794e+01	15.6734	22.613418	0.000091	0.914962	0.309997	-0.000037
 613	6.0894e+01	15.6557	22.570240	0.000108	1.077622	0.365108	-0.000043
 614	6.0993e+01	15.5851	22.525432	0.000112	1.118287	0.378886	-0.000045
 615	6.1093e+01	15.5482	22.482254	0.000108	1.077622	0.365108	-0.000043
 616	6.1193e+01	15.4985	22.438668	0.000109	1.087788	0.368552	-0.000044
 617	6.1292e+01	15.4889	22.393453	0.000113	1.128453	0.382330	-0.000045
 618	6.1392e+01	15.4263	22.351497	0.000105	1.047123	0.354775	-0.000042
 619	6.1491e+01	15.3974	22.311170	0.000101	1.006458	0.340997	-0.000041
 620	6.1590e+01	15.3461	22.263918	0.000118	1.179284	0.399552	-0.000047
 621	6.1690e+01	15.3300	22.219518	0.000111	1.108120	0.375441	-0.000045
 622	6.1789e+01	15.2851	22.178784	0.000102	1.016624	0.344442	-0.000041
 623	6.1889e+01	15.2290	22.137235	0.000104	1.036957	0.351330	-0.000042
 624	6.1989e+01	15.1889	22.097315	0.000100	0.996292	0.337553	-0.000040
 625	6.2088e+01	15.1680	22.049656	0.000119	1.189450	0.402997	-0.000048
 626	6.2188e+01	15.0798	22.009736	0.000100	0.996292	0.337553	-0.000040
 627	6.2287e+01	15.0894	21.964929	-0.000112	-1.118287	-0.378886	-0.000045
 628	6.2386e+01	15.0461	21.922565	0.000106	1.057289	0.358219	-0.000043
 629	6.2486e+01	14.9900	21.877350	0.000113	1.128453	0.382330	-0.000045
 630	6.2586e+01	14.9547	21.837838	0.000099	0.986125	0.334108	-0.000040
 631	6.2685e+01	14.9162	21.797918	0.000100	0.996292	0.337553	-0.000040
 632	6.2785e+01	14.8728	21.753111	0.000112	1.118287	0.378886	-0.000045
 633	6.2884e+01	14.8263	21.712376	0.000102	1.016624	0.344442	-0.000041
 634	6.2983e+01	14.8087	21.670827	0.000104	1.036957	0.351330	-0.000042
 635	6.3083e+01	14.7782	21.630500	0.000101	1.006458	0.340997	-0.000041
 636	6.3182e+01	14.7092	21.588137	0.000106	1.057289	0.358219	-0.000043
 637	6.3282e+01	14.6739	21.545773	0.000106	1.057289	0.358219	-0.000043
 638	6.3382e+01	14.6370	21.502595	0.000108	1.077622	0.365108	-0.000043
 639	6.3481e+01	14.5921	21.457787	0.000112	1.118287	0.378886	-0.000045
 640	6.3581e+01	14.5696	21.417053	0.000102	1.016624	0.344442	-0.000041
 641	6.3680e+01	14.5119	21.375504	0.000104	1.036957	0.351330	-0.000042
 642	6.3779e+01	14.4734	21.334362	0.000103	1.026790	0.347886	-0.000041
 643	6.3879e+01	14.4573	21.291999	0.000106	1.057289	0.358219	-0.000043
 644	6.3978e+01	14.3964	21.252079	0.000100	0.996292	0.337553	-0.000040
 645	6.4078e+01	14.3691	21.208494	0.000109	1.087788	0.368552	-0.000044
 646	6.4177e+01	14.3162	21.163279	0.000113	1.128453	0.382330	-0.000045
 647	6.4277e+01	14.2777	21.118471	0.000112	1.118287	0.378886	-0.000045
 648	6.4376e+01	14.2504	21.076515	0.000105	1.047123	0.354775	-0.000042
 649	6.4476e+01	14.2007	21.034558	0.000105	1.047123	0.354775	-0.000042
 650	6.4576e+01	14.1574	20.989343	0.000113	1.128453	0.382330	-0.000045
 651	6.4675e+01	14.1317	20.944536	0.000112	1.118287	0.378886	-0.000045
 652	6.4775e+01	14.0820	20.901357	0.000108	1.077622	0.365108	-0.000043
 653	6.4874e+01	14.0499	20.856957	0.000111	1.108120	0.375441	-0.000045
 654	6.4974e+01	14.0130	20.811742	0.000113	1.128453	0.382330	-0.000045
 655	6.5073e+01	13.9616	20.771008	0.000102	1.016624	0.344442	-0.000041
 656	6.5172e+01	13.9328	20.727015	0.000110	1.097954	0.371997	-0.000044
 657	6.5272e+01	13.8718	20.684651	0.000106	1.057289	0.358219	-0.000043
 658	6.5371e+01	13.8542	20.641880	0.000107	1.067455	0.361664	-0.000043
 659	6.5471e+01	13.8044	20.599109	0.000107	1.067455	0.361664	-0.000043
 660	6.5570e+01	13.7643	20.555524	0.000109	1.087788	0.368552	-0.000044
 661	6.5670e+01	13.7258	20.509494	0.000115	1.148785	0.389219	-0.000046
 662	6.5769e+01	13.6841	20.465908	0.000109	1.087788	0.368552	-0.000044
 663	6.5869e+01	13.6424	20.417434	0.000121	1.209783	0.409885	-0.000049
 664	6.5969e+01	13.5846	20.373849	0.000109	1.087788	0.368552	-0.000044
 665	6.6068e+01	13.5590	20.331485	0.000106	1.057289	0.358219	-0.000043
 666	6.6168e+01	13.5253	20.287899	0.000109	1.087788	0.368552	-0.000044
 667	6.6267e+01	13.4788	20.245943	0.000105	1.047123	0.354775	-0.000042
 668	6.6367e+01	13.4419	20.199913	0.000115	1.148785	0.389219	-0.000046
 669	6.6466e+01	13.3857	20.153476	0.000116	1.158951	0.392663	-0.000047
 670	6.6566e+01	13.3649	20.109076	0.000111	1.108120	0.375441	-0.000045
 671	6.6665e+01	13.3392	20.063861	0.000113	1.128453	0.382330	-0.000045
 672	6.6764e+01	13.3007	20.020683	0.000108	1.077622	0.365108	-0.000043
 673	6.6864e+01	13.2638	19.972209	0.000121	1.209783	0.409885	-0.000049
 674	6.6963e+01	13.2253	19.926587	0.000114	1.138619	0.385775	-0.000046
 675	6.7063e+01	13.1579	19.877298	0.000123	1.230115	0.416774	-0.000050
 676	6.7162e+01	13.1194	19.830861	0.000116	1.158951	0.392663	-0.000047
 677	6.7262e+01	13.0857	19.781980	0.000122	1.219949	0.413330	-0.000049
 678	6.7362e+01	13.0312	19.737580	0.000111	1.108120	0.375441	-0.000045
 679	6.7461e+01	13.0216	19.687477	0.000125	1.250448	0.423663	-0.000050
 680	6.7561e+01	12.9446	19.640632	0.000117	1.169118	0.396108	-0.000047
 681	6.7660e+01	12.9125	19.597454	0.000108	1.077622	0.365108	-0.000043
 682	6.7760e+01	12.8836	19.548980	0.000121	1.209783	0.409885	-0.000049
 683	6.7859e+01	12.8323	19.496433	0.000131	1.311445	0.444330	-0.000053
 684	6.7959e+01	12.7857	19.452033	0.000111	1.108120	0.375441	-0.000045
 685	6.8058e+01	12.7569	19.402337	0.000124	1.240281	0.420219	-0.000050
 686	6.8157e+01	12.7424	19.351012	0.000128	1.280946	0.433996	-0.000052
 687	6.8257e+01	12.6718	19.303353	0.000119	1.189450	0.402997	-0.000048
 688	6.8356e+01	12.6702	19.253657	0.000124	1.240281	0.420219	-0.000050
 689	6.8456e+01	12.5948	19.204368	0.000123	1.230115	0.416774	-0.000050
 690	6.8555e+01	12.5611	19.161597	0.000107	1.067455	0.361664	-0.000043
 691	6.8655e+01	12.5226	19.109457	0.000130	1.301279	0.440885	-0.000052
 692	6.8754e+01	12.4841	19.061391	0.000120	1.199616	0.406441	-0.000048
 693	6.8854e+01	12.4617	19.012103	0.000123	1.230115	0.416774	-0.000050
 694	6.8954e+01	12.4087	18.961185	0.000127	1.270780	0.430552	-0.000051
 695	6.9053e+01	12.3751	18.912304	0.000122	1.219949	0.413330	-0.000049
 696	6.9153e+01	12.3349	18.861386	0.000127	1.270780	0.430552	-0.000051
 697	6.9252e+01	12.2820	18.814134	0.000118	1.179284	0.399552	-0.000047
 698	6.9352e+01	12.2403	18.763624	0.000126	1.260614	0.427108	-0.000051
 699	6.9451e+01	12.2098	18.715965	0.000119	1.189450	0.402997	-0.000048
 700	6.9550e+01	12.1745	18.663010	0.000132	1.321611	0.447774	-0.000053
 701	6.9650e+01	12.1264	18.612092	0.000127	1.270780	0.430552	-0.000051
 702	6.9749e+01	12.1039	18.564026	0.000120	1.199616	0.406441	-0.000048
 703	6.9849e+01	12.0285	18.513923	0.000125	1.250448	0.423663	-0.000050
 704	6.9948e+01	12.0045	18.465042	0.000122	1.219949	0.413330	-0.000049
 705	7.0048e+01	11.9644	18.411272	0.000134	1.341944	0.454663	-0.000054
 706	7.0147e+01	11.9211	18.364428	0.000117	1.169118	0.396108	-0.000047
 707	7.0247e+01	11.9002	18.315139	0.000123	1.230115	0.416774	-0.000050
 708	7.0347e+01	11.8424	18.260556	0.000136	1.362276	0.461552	-0.000055
 709	7.0446e+01	11.8104	18.215748	0.000112	1.118287	0.378886	-0.000045
 710	7.0546e+01	11.7815	18.159127	0.000141	1.413108	0.478774	-0.000057
 711	7.0645e+01	11.7334	18.110246	0.000122	1.219949	0.413330	-0.000049
 712	7.0745e+01	11.6933	18.059736	0.000126	1.260614	0.427108	-0.000051
 713	7.0844e+01	11.6548	18.003522	0.000140	1.402941	0.475329	-0.000056
 714	7.0944e+01	11.6066	17.955049	0.000121	1.209783	0.409885	-0.000049
 715	7.1043e+01	11.5794	17.903316	0.000129	1.291113	0.437441	-0.000052
 716	7.1142e+01	11.5264	17.849954	0.000133	1.331778	0.451218	-0.000054
 717	7.1242e+01	11.4847	17.795778	0.000135	1.352110	0.458107	-0.000054
 718	7.1341e+01	11.4606	17.740786	0.000137	1.372443	0.464996	-0.000055
 719	7.1441e+01	11.4093	17.691091	0.000124	1.240281	0.420219	-0.000050
 720	7.1540e+01	11.3836	17.636507	0.000136	1.362276	0.461552	-0.000055
 721	7.1640e+01	11.3259	17.584367	0.000130	1.301279	0.440885	-0.000052
 722	7.1740e+01	11.2874	17.528561	0.000139	1.392775	0.471885	-0.000056
 723	7.1839e+01	11.2489	17.476421	0.000130	1.301279	0.440885	-0.000052
 724	7.1939e+01	11.2232	17.425911	0.000126	1.260614	0.427108	-0.000051
 725	7.2038e+01	11.1847	17.373363	0.000131	1.311445	0.444330	-0.000053
 726	7.2138e+01	11.1318	17.319594	0.000134	1.341944	0.454663	-0.000054
 727	7.2237e+01	11.1045	17.261752	0.000144	1.443606	0.489107	-0.000058
 728	7.2337e+01	11.0323	17.213685	0.000120	1.199616	0.406441	-0.000048
 729	7.2436e+01	11.0227	17.157065	0.000141	1.413108	0.478774	-0.000057
 730	7.2535e+01	10.9730	17.105332	0.000129	1.291113	0.437441	-0.000052
 731	7.2635e+01	10.9216	17.045045	0.000150	1.504604	0.509774	-0.000061
 732	7.2734e+01	10.9072	16.995757	0.000123	1.230115	0.416774	-0.000050
 733	7.2834e+01	10.8446	16.943210	0.000131	1.311445	0.444330	-0.000053
 734	7.2933e+01	10.8302	16.888626	0.000136	1.362276	0.461552	-0.000055
 735	7.3033e+01	10.7917	16.835264	0.000133	1.331778	0.451218	-0.000054
 736	7.3132e+01	10.7548	16.785161	0.000125	1.250448	0.423663	-0.000050
 737	7.3232e+01	10.6922	16.733428	0.000129	1.291113	0.437441	-0.000052
 738	7.3332e+01	10.6601	16.679659	0.000134	1.341944	0.454663	-0.000054
 739	7.3431e+01	10.6136	16.623853	0.000139	1.392775	0.471885	-0.000056
 740	7.3531e+01	10.5607	16.570899	0.000132	1.321611	0.447774	-0.000053
 741	7.3630e+01	10.5478	16.517537	0.000133	1.331778	0.451218	-0.000054
 742	7.3730e+01	10.4933	16.465397	0.000130	1.301279	0.440885	-0.000052
 743	7.3829e+01	10.4628	16.408369	0.000142	1.423274	0.482218	-0.000057
 744	7.3928e+01	10.4147	16.357451	0.000127	1.270780	0.430552	-0.000051
 745	7.4028e+01	10.3890	16.301238	0.000140	1.402941	0.475329	-0.000056
 746	7.4127e+01	10.3425	16.249913	0.000128	1.280946	0.433996	-0.000052
 747	7.4227e+01	10.2928	16.198995	0.000127	1.270780	0.430552	-0.000051
 748	7.4326e+01	10.2462	16.142782	0.000140	1.402941	0.475329	-0.000056
 749	7.4426e+01	10.2093	16.086568	0.000140	1.402941	0.475329	-0.000056
 750	7.4525e+01	10.1612	16.034021	0.000131	1.311445	0.444330	-0.000053
 751	7.4625e+01	10.1371	15.976179	0.000144	1.443606	0.489107	-0.000058
 752	7.4725e+01	10.0810	15.920373	0.000139	1.392775	0.471885	-0.000056
 753	7.4824e+01	10.0377	15.868233	0.000130	1.301279	0.440885	-0.000052
 754	7.4924e+01	10.0216	15.811205	0.000142	1.423274	0.482218	-0.000057
 755	7.5023e+01	9.9478	15.762324	0.000122	1.219949	0.413330	-0.000049
 756	7.5123e+01	9.9174	15.709777	0.000131	1.311445	0.444330	-0.000053
 757	7.5222e+01	9.8933	15.655193	0.000136	1.362276	0.461552	-0.000055
 758	7.5322e+01	9.8548	15.599387	0.000139	1.392775	0.471885	-0.000056
 759	7.5421e+01	9.8500	15.551320	0.000120	1.199616	0.406441	-0.000048
 760	7.5520e+01	9.7714	15.498773	0.000131	1.311445	0.444330	-0.000053
 761	7.5620e+01	9.7393	15.449077	0.000124	1.240281	0.420219	-0.000050
 762	7.5719e+01	9.6880	15.394901	0.000135	1.352110	0.458107	-0.000054
 763	7.5819e+01	9.6511	15.341946	0.000132	1.321611	0.447774	-0.000053
 764	7.5918e+01	9.6286	15.291028	0.000127	1.270780	0.430552	-0.000051
 765	7.6018e+01	9.5805	15.240518	0.000126	1.260614	0.427108	-0.000051
 766	7.6118e+01	9.5596	15.185934	0.000136	1.362276	0.461552	-0.000055
 767	7.6217e+01	9.4987	15.133794	0.000130	1.301279	0.440885	-0.000052
 768	7.6317e+01	9.4553	15.085728	0.000120	1.199616	0.406441	-0.000048
 769	7.6416e+01	9.4393	15.032773	0.000132	1.321611	0.447774	-0.000053
 770	7.6516e+01	9.3816	14.978597	0.000135	1.352110	0.458107	-0.000054
 771	7.6615e+01	9.3414	14.929308	0.000123	1.230115	0.416774	-0.000050
 772	7.6715e+01	9.3142	14.875539	0.000134	1.341944	0.454663	-0.000054
 773	7.6814e+01	9.2757	14.818104	0.000143	1.433440	0.485663	-0.000058
 774	7.6913e+01	9.2275	14.766779	0.000128	1.280946	0.433996	-0.000052
 775	7.7013e+01	9.1618	14.717897	0.000122	1.219949	0.413330	-0.000049
 776	7.7112e+01	9.1185	14.662091	0.000139	1.392775	0.471885	-0.000056
 777	7.7212e+01	9.0896	14.611988	0.000125	1.250448	0.423663	-0.000050
 778	7.7311e+01	9.0735	14.561478	0.000126	1.260614	0.427108	-0.000051
 779	7.7411e+01	9.0286	14.509745	0.000129	1.291113	0.437441	-0.000052
 780	7.7510e+01	8.9805	14.454347	0.000138	1.382609	0.468441	-0.000056
 781	7.7610e+01	8.9516	14.403022	0.000128	1.280946	0.433996	-0.000052
 782	7.7710e+01	8.8891	14.353733	0.000123	1.230115	0.416774	-0.000050
 783	7.7809e+01	8.8794	14.294261	0.000148	1.484271	0.502885	-0.000060
 784	7.7909e+01	8.8329	14.245787	0.000121	1.209783	0.409885	-0.000049
 785	7.8008e+01	8.7976	14.195277	0.000126	1.260614	0.427108	-0.000051
 786	7.8108e+01	8.7415	14.139878	0.000138	1.382609	0.468441	-0.000056
 787	7.8207e+01	8.7030	14.088553	0.000128	1.280946	0.433996	-0.000052
 788	7.8306e+01	8.6564	14.033969	0.000136	1.362276	0.461552	-0.000055
 789	7.8406e+01	8.6147	13.982237	0.000129	1.291113	0.437441	-0.000052
 790	7.8505e+01	8.5875	13.928468	0.000134	1.341944	0.454663	-0.000054
 791	7.8605e+01	8.5361	13.874291	0.000135	1.352110	0.458107	-0.000054
 792	7.8704e+01	8.5153	13.826632	0.000119	1.189450	0.402997	-0.000048
 793	7.8804e+01	8.4639	13.769197	0.000143	1.433440	0.485663	-0.000058
 794	7.8903e+01	8.4639	13.718686	0.000126	1.260614	0.427108	-0.000051
 795	7.9003e+01	8.3725	13.664102	0.000136	1.362276	0.461552	-0.000055
 796	7.9103e+01	8.3613	13.620109	0.000110	1.097954	0.371997	-0.000044
 797	7.9202e+01	8.3131	13.558193	0.000155	1.545269	0.523551	-0.000062
 798	7.9302e+01	8.2762	13.505646	0.000131	1.311445	0.444330	-0.000053
 799	7.9401e+01	8.2073	13.454321	0.000128	1.280946	0.433996	-0.000052
 800	7.9501e+01	8.1736	13.401774	0.000131	1.311445	0.444330	-0.000053
 801	7.9600e+01	8.1383	13.354522	0.000118	1.179284	0.399552	-0.000047
 802	7.9700e+01	8.0869	13.301567	0.000132	1.321611	0.447774	-0.000053
 803	7.9799e+01	8.0821	13.250650	0.000127	1.270780	0.430552	-0.000051
 804	7.9898e+01	8.0196	13.198102	0.000131	1.311445	0.444330	-0.000053
 805	7.9998e+01	7.9795	13.143926	0.000135	1.352110	0.458107	-0.000054
 806	8.0097e+01	7.9538	13.093415	0.000126	1.260614	0.427108	-0.000051
 807	8.0197e+01	7.9137	13.040461	0.000132	1.321611	0.447774	-0.000053
 808	8.0296e+01	7.8816	12.989950	0.000126	1.260614	0.427108	-0.000051
 809	8.0396e+01	7.8431	12.934959	0.000137	1.372443	0.464996	-0.000055
 810	8.0496e+01	7.7869	12.881190	0.000134	1.341944	0.454663	-0.000054
 811	8.0595e+01	7.7340	12.833938	0.000118	1.179284	0.399552	-0.000047
 812	8.0695e+01	7.7003	12.778947	0.000137	1.372443	0.464996	-0.000055
 813	8.0794e+01	7.6586	12.729251	0.000124	1.240281	0.420219	-0.000050
 814	8.0894e+01	7.6474	12.673445	0.000139	1.392775	0.471885	-0.000056
 815	8.0993e+01	7.5912	12.618861	0.000136	1.362276	0.461552	-0.000055
 816	8.1093e+01	7.5511	12.566721	0.000130	1.301279	0.440885	-0.000052
 817	8.1192e+01	7.5190	12.516211	0.000126	1.260614	0.427108	-0.000051
 818	8.1291e+01	7.4870	12.459590	0.000141	1.413108	0.478774	-0.000057
 819	8.1391e+01	7.4436	12.402562	0.000142	1.423274	0.482218	-0.000057
 820	8.1490e+01	7.4003	12.348386	0.000135	1.352110	0.458107	-0.000054
 821	8.1590e+01	7.3602	12.297468	0.000127	1.270780	0.430552	-0.000051
 822	8.1689e+01	7.2961	12.246550	0.000127	1.270780	0.430552	-0.000051
 823	8.1789e+01	7.2896	12.189115	0.000143	1.433440	0.485663	-0.000058
 824	8.1888e+01	7.2142	12.136568	0.000131	1.311445	0.444330	-0.000053
 825	8.1988e+01	7.1966	12.082798	0.000134	1.341944	0.454663	-0.000054
 826	8.2088e+01	7.1388	12.030659	0.000130	1.301279	0.440885	-0.000052
 827	8.2187e+01	7.0987	11.976482	0.000135	1.352110	0.458107	-0.000054
 828	8.2287e+01	7.0715	11.922713	0.000134	1.341944	0.454663	-0.000054
 829	8.2386e+01	7.0522	11.863648	0.000147	1.474105	0.499440	-0.000059
 830	8.2486e+01	6.9929	11.811101	0.000131	1.311445	0.444330	-0.000053
 831	8.2585e+01	6.9399	11.754888	0.000140	1.402941	0.475329	-0.000056
 832	8.2684e+01	6.9319	11.703563	0.000128	1.280946	0.433996	-0.000052
 833	8.2784e+01	6.8485	11.643683	0.000149	1.494437	0.506329	-0.000060
 834	8.2883e+01	6.8308	11.595209	0.000121	1.209783	0.409885	-0.000049
 835	8.2983e+01	6.7939	11.537367	0.000144	1.443606	0.489107	-0.000058
 836	8.3082e+01	6.7282	11.482376	0.000137	1.372443	0.464996	-0.000055
 837	8.3182e+01	6.7137	11.426570	0.000139	1.392775	0.471885	-0.000056
 838	8.3281e+01	6.6736	11.373615	0.000132	1.321611	0.447774	-0.000053
 839	8.3381e+01	6.6351	11.313328	0.000150	1.504604	0.509774	-0.000061
 840	8.3481e+01	6.5693	11.259152	0.000135	1.352110	0.458107	-0.000054
 841	8.3580e+01	6.5725	11.197643	-0.000154	-1.535102	-0.520107	-0.000062
 842	8.3680e+01	6.5052	11.145096	0.000131	1.311445	0.444330	-0.000053
 843	8.3779e+01	6.4811	11.090105	0.000137	1.372443	0.464996	-0.000055
 844	8.3879e+01	6.4490	11.031447	0.000146	1.463939	0.495996	-0.000059
 845	8.3978e+01	6.3945	10.973197	0.000145	1.453772	0.492551	-0.000059
 846	8.4078e+01	6.3560	10.914133	0.000147	1.474105	0.499440	-0.000059
 847	8.4177e+01	6.3207	10.856290	0.000144	1.443606	0.489107	-0.000058
 848	8.4276e+01	6.2902	10.799262	0.000142	1.423274	0.482218	-0.000057
 849	8.4376e+01	6.2196	10.738975	0.000150	1.504604	0.509774	-0.000061
 850	8.4475e+01	6.1891	10.681947	0.000142	1.423274	0.482218	-0.000057
 851	8.4575e+01	6.1554	10.624512	0.000143	1.433440	0.485663	-0.000058
 852	8.4674e+01	6.1346	10.561781	0.000157	1.565601	0.530440	-0.000063
 853	8.4774e+01	6.0881	10.501087	0.000151	1.514770	0.513218	-0.000061
 854	8.4874e+01	6.0271	10.441615	0.000148	1.484271	0.502885	-0.000060
 855	8.4973e+01	6.0030	10.380107	0.000154	1.535102	0.520107	-0.000062
 856	8.5073e+01	5.9549	10.321449	0.000146	1.463939	0.495996	-0.000059
 857	8.5172e+01	5.9068	10.264829	0.000141	1.413108	0.478774	-0.000057
 858	8.5272e+01	5.8667	10.200061	0.000162	1.616432	0.547662	-0.000065
 859	8.5371e+01	5.8442	10.145477	0.000136	1.362276	0.461552	-0.000055
 860	8.5471e+01	5.7993	10.085191	0.000150	1.504604	0.509774	-0.000061
 861	8.5570e+01	5.7624	10.022460	0.000157	1.565601	0.530440	-0.000063
 862	8.5669e+01	5.7111	9.964617	0.000144	1.443606	0.489107	-0.000058
 863	8.5769e+01	5.6790	9.903923	0.000151	1.514770	0.513218	-0.000061
 864	8.5868e+01	5.6260	9.838748	0.000163	1.626599	0.551107	-0.000066
 865	8.5968e+01	5.6084	9.783757	0.000137	1.372443	0.464996	-0.000055
 866	8.6067e+01	5.5667	9.719397	0.000161	1.606266	0.544218	-0.000065
 867	8.6167e+01	5.5154	9.659925	0.000148	1.484271	0.502885	-0.000060
 868	8.6266e+01	5.4752	9.598416	0.000154	1.535102	0.520107	-0.000062
 869	8.6366e+01	5.4351	9.538537	0.000149	1.494437	0.506329	-0.000060
 870	8.6466e+01	5.3918	9.476213	0.000156	1.555435	0.526996	-0.000063
 871	8.6565e+01	5.3437	9.417556	0.000146	1.463939	0.495996	-0.000059
 872	8.6665e+01	5.3180	9.354418	0.000158	1.575767	0.533884	-0.000063
 873	8.6764e+01	5.2843	9.293724	0.000151	1.514770	0.513218	-0.000061
 874	8.6864e+01	5.2635	9.230993	0.000157	1.565601	0.530440	-0.000063
 875	8.6963e+01	5.1897	9.166226	0.000162	1.616432	0.547662	-0.000065
 876	8.7063e+01	5.1464	9.107976	0.000145	1.453772	0.492551	-0.000059
 877	8.7162e+01	5.1127	9.043616	0.000161	1.606266	0.544218	-0.000065
 878	8.7261e+01	5.0902	8.983736	0.000149	1.494437	0.506329	-0.000060
 879	8.7361e+01	5.0196	8.920598	0.000158	1.575767	0.533884	-0.000063
 880	8.7460e+01	4.9715	8.853794	0.000167	1.667264	0.564884	-0.000067
 881	8.7560e+01	4.9635	8.791878	0.000155	1.545269	0.523551	-0.000062
 882	8.7659e+01	4.9314	8.726703	0.000163	1.626599	0.551107	-0.000066
 883	8.7759e+01	4.8833	8.664787	0.000155	1.545269	0.523551	-0.000062
 884	8.7859e+01	4.8400	8.599612	0.000163	1.626599	0.551107	-0.000066
 885	8.7958e+01	4.8063	8.535252	0.000161	1.606266	0.544218	-0.000065
 886	8.8058e+01	4.7549	8.469670	0.000164	1.636765	0.554551	-0.000066
 887	8.8157e+01	4.7132	8.403273	0.000166	1.657097	0.561440	-0.000067
 888	8.8257e+01	4.6475	8.339320	0.000160	1.596100	0.540773	-0.000064
 889	8.8356e+01	4.6346	8.274960	0.000161	1.606266	0.544218	-0.000065
 890	8.8456e+01	4.6266	8.208563	0.000166	1.657097	0.561440	-0.000067
 891	8.8555e+01	4.5689	8.146240	0.000156	1.555435	0.526996	-0.000063
 892	8.8654e+01	4.5255	8.081880	0.000161	1.606266	0.544218	-0.000065
 893	8.8754e+01	4.4806	8.017520	0.000161	1.606266	0.544218	-0.000065
 894	8.8853e+01	4.4582	7.950308	0.000168	1.677430	0.568329	-0.000068
 895	8.8953e+01	4.4132	7.887577	0.000157	1.565601	0.530440	-0.000063
 896	8.9052e+01	4.3587	7.817107	0.000176	1.758760	0.595884	-0.000071
 897	8.9152e+01	4.3170	7.753969	0.000158	1.575767	0.533884	-0.000063
 898	8.9251e+01	4.2833	7.688794	0.000163	1.626599	0.551107	-0.000066
 899	8.9351e+01	4.2496	7.619139	0.000174	1.738427	0.588995	-0.000070
 900	8.9451e+01	4.2095	7.557223	0.000155	1.545269	0.523551	-0.000062
 901	8.9550e+01	4.1598	7.490419	0.000167	1.667264	0.564884	-0.000067
 902	8.9650e+01	4.1165	7.427280	0.000158	1.575767	0.533884	-0.000063
 903	8.9749e+01	4.0731	7.361698	0.000164	1.636765	0.554551	-0.000066
 904	8.9849e+01	4.0443	7.296116	0.000164	1.636765	0.554551	-0.000066
 905	8.9948e+01	3.9897	7.230127	0.000165	1.646931	0.557995	-0.000066
 906	9.0047e+01	3.9641	7.164137	0.000165	1.646931	0.557995	-0.000066
 907	9.0147e+01	3.9320	7.100592	0.000159	1.585934	0.537329	-0.000064
 908	9.0246e+01	3.8790	7.032158	0.000171	1.707928	0.578662	-0.000069
 909	9.0346e+01	3.8486	6.972279	0.000149	1.494437	0.506329	-0.000060
 910	9.0445e+01	3.7876	6.900179	0.000180	1.799425	0.609662	-0.000072
 911	9.0545e+01	3.7443	6.831338	0.000172	1.718095	0.582106	-0.000069
 912	9.0644e+01	3.7202	6.766978	0.000161	1.606266	0.544218	-0.000065
 913	9.0744e+01	3.6721	6.707099	0.000149	1.494437	0.506329	-0.000060
 914	9.0844e+01	3.6432	6.638665	0.000171	1.707928	0.578662	-0.000069
 915	9.0943e+01	3.6063	6.569824	0.000172	1.718095	0.582106	-0.000069
 916	9.1043e+01	3.5694	6.504242	0.000164	1.636765	0.554551	-0.000066
 917	9.1142e+01	3.5245	6.439882	0.000161	1.606266	0.544218	-0.000065
 918	9.1242e+01	3.4828	6.369412	0.000176	1.758760	0.595884	-0.000071
 919	9.1341e+01	3.4427	6.305866	0.000159	1.585934	0.537329	-0.000064
 920	9.1441e+01	3.4106	6.234174	0.000179	1.789258	0.606217	-0.000072
 921	9.1540e+01	3.3641	6.167777	0.000166	1.657097	0.561440	-0.000067
 922	9.1639e+01	3.3368	6.102602	0.000163	1.626599	0.551107	-0.000066
 923	9.1739e+01	3.2935	6.039872	0.000157	1.565601	0.530440	-0.000063
 924	9.1838e+01	3.2406	5.972253	0.000169	1.687596	0.571773	-0.000068
 925	9.1938e+01	3.2165	5.907078	0.000163	1.626599	0.551107	-0.000066
 926	9.2037e+01	3.1748	5.844755	0.000156	1.555435	0.526996	-0.000063
 927	9.2137e+01	3.1122	5.777543	0.000168	1.677430	0.568329	-0.000068
 928	9.2237e+01	3.0962	5.708295	0.000173	1.728261	0.585551	-0.000070
 929	9.2336e+01	3.0384	5.643935	0.000161	1.606266	0.544218	-0.000065
 930	9.2436e+01	3.0031	5.576316	0.000169	1.687596	0.571773	-0.000068
 931	9.2535e+01	2.9566	5.513992	0.000156	1.555435	0.526996	-0.000063
 932	9.2635e+01	2.9229	5.452484	0.000154	1.535102	0.520107	-0.000062
 933	9.2734e+01	2.8796	5.382013	0.000176	1.758760	0.595884	-0.000071
 934	9.2834e+01	2.8507	5.319690	0.000156	1.555435	0.526996	-0.000063
 935	9.2933e+01	2.8058	5.253701	0.000165	1.646931	0.557995	-0.000066
 936	9.3032e+01	2.7561	5.194229	0.000148	1.484271	0.502885	-0.000060
 937	9.3132e+01	2.7192	5.125388	0.000172	1.718095	0.582106	-0.000069
 938	9.3231e+01	2.6775	5.057361	0.000170	1.697762	0.575217	-0.000068
 939	9.3331e+01	2.6486	4.990150	0.000168	1.677430	0.568329	-0.000068
 940	9.3430e+01	2.5973	4.928641	0.000154	1.535102	0.520107	-0.000062
 941	9.3530e+01	2.5571	4.864688	0.000160	1.596100	0.540773	-0.000064
 942	9.3629e+01	2.5411	4.797477	0.000168	1.677430	0.568329	-0.000068
 943	9.3729e+01	2.4850	4.726599	0.000177	1.768926	0.599328	-0.000071
 944	9.3829e+01	2.4529	4.668757	0.000144	1.443606	0.489107	-0.000058
 945	9.3928e+01	2.4128	4.594620	0.000185	1.850256	0.626884	-0.000075
 946	9.4028e+01	2.3919	4.532297	0.000156	1.555435	0.526996	-0.000063
 947	9.4127e+01	2.3165	4.463456	0.000172	1.718095	0.582106	-0.000069
 948	9.4227e+01	2.2860	4.401947	0.000154	1.535102	0.520107	-0.000062
 949	9.4326e+01	2.2652	4.337180	0.000162	1.616432	0.547662	-0.000065
 950	9.4425e+01	2.2122	4.270783	0.000166	1.657097	0.561440	-0.000067
 951	9.4525e+01	2.1545	4.201127	0.000174	1.738427	0.588995	-0.000070
 952	9.4624e+01	2.1368	4.131879	0.000173	1.728261	0.585551	-0.000070
 953	9.4724e+01	2.1160	4.068334	0.000159	1.585934	0.537329	-0.000064
 954	9.4823e+01	2.0550	4.001122	0.000168	1.677430	0.568329	-0.000068
 955	9.4923e+01	2.0197	3.937169	0.000160	1.596100	0.540773	-0.000064
 956	9.5022e+01	1.9860	3.868736	0.000171	1.707928	0.578662	-0.000069
 957	9.5122e+01	1.9315	3.802746	0.000165	1.646931	0.557995	-0.000066
 958	9.5222e+01	1.8914	3.734720	0.000170	1.697762	0.575217	-0.000068
 959	9.5321e+01	1.8721	3.668323	0.000166	1.657097	0.561440	-0.000067
 960	9.5421e+01	1.8128	3.606000	0.000156	1.555435	0.526996	-0.000063
 961	9.5520e+01	1.7711	3.541232	0.000162	1.616432	0.547662	-0.000065
 962	9.5620e+01	1.7294	3.469133	0.000180	1.799425	0.609662	-0.000072
 963	9.5719e+01	1.6957	3.403958	0.000163	1.626599	0.551107	-0.000066
 964	9.5819e+01	1.6443	3.335932	0.000170	1.697762	0.575217	-0.000068
 965	9.5918e+01	1.6058	3.271979	0.000160	1.596100	0.540773	-0.000064
 966	9.6017e+01	1.5834	3.208026	0.000160	1.596100	0.540773	-0.000064
 967	9.6117e+01	1.5240	3.142444	0.000164	1.636765	0.554551	-0.000066
 968	9.6216e+01	1.4855	3.076862	0.000164	1.636765	0.554551	-0.000066
 969	9.6316e+01	1.4438	3.012909	0.000160	1.596100	0.540773	-0.000064
 970	9.6415e+01	1.4310	2.942032	0.000177	1.768926	0.599328	-0.000071
 971	9.6515e+01	1.3780	2.878893	0.000158	1.575767	0.533884	-0.000063
 972	9.6615e+01	1.3315	2.812904	0.000165	1.646931	0.557995	-0.000066
 973	9.6714e+01	1.2882	2.745285	0.000169	1.687596	0.571773	-0.000068
 974	9.6814e+01	1.2722	2.678074	0.000168	1.677430	0.568329	-0.000068
 975	9.6913e+01	1.2208	2.614936	0.000158	1.575767	0.533884	-0.000063
 976	9.7013e+01	1.1727	2.547317	0.000169	1.687596	0.571773	-0.000068
 977	9.7112e+01	1.1294	2.477254	0.000175	1.748593	0.592440	-0.000070
 978	9.7212e+01	1.0941	2.414523	0.000157	1.565601	0.530440	-0.000063
 979	9.7311e+01	1.0604	2.351792	0.000157	1.565601	0.530440	-0.000063
 980	9.7410e+01	1.0283	2.282951	0.000172	1.718095	0.582106	-0.000069
 981	9.7510e+01	0.9641	2.213703	0.000173	1.728261	0.585551	-0.000070
 982	9.7609e+01	0.9272	2.147714	0.000165	1.646931	0.557995	-0.000066
 983	9.7709e+01	0.9096	2.080909	0.000167	1.667264	0.564884	-0.000067
 984	9.7808e+01	0.8470	2.012883	0.000170	1.697762	0.575217	-0.000068
 985	9.7908e+01	0.8133	1.944450	0.000171	1.707928	0.578662	-0.000069
 986	9.8007e+01	0.7893	1.875201	0.000173	1.728261	0.585551	-0.000070
 987	9.8107e+01	0.7219	1.810027	0.000163	1.626599	0.551107	-0.000066
 988	9.8207e+01	0.6978	1.741593	0.000171	1.707928	0.578662	-0.000069
 989	9.8306e+01	0.6609	1.671123	0.000176	1.758760	0.595884	-0.000071
 990	9.8406e+01	0.6240	1.605541	0.000164	1.636765	0.554551	-0.000066
 991	9.8505e+01	0.5791	1.534256	0.000178	1.779092	0.602773	-0.000072
 992	9.8605e+01	0.5631	1.472340	0.000155	1.545269	0.523551	-0.000062
 993	9.8704e+01	0.4925	1.402277	0.000175	1.748593	0.592440	-0.000070
 994	9.8803e+01	0.4668	1.336695	0.000164	1.636765	0.554551	-0.000066
 995	9.8903e+01	0.4091	1.265002	0.000179	1.789258	0.606217	-0.000072
 996	9.9002e+01	0.3754	1.201050	0.000160	1.596100	0.540773	-0.000064
 997	9.9102e+01	0.3353	1.129357	0.000179	1.789258	0.606217	-0.000072
 998	9.9201e+01	0.3144	1.060516	0.000172	1.718095	0.582106	-0.000069
 999	9.9301e+01	0.2567	0.997378	0.000158	1.575767	0.533884	-0.000063
1000	9.9400e+01	0.2150	0.925686	0.000179	1.789258	0.606217	-0.000072
1001	9.9500e+01	0.1492	0.861733	0.000160	1.596100	0.540773	-0.000064
1002	9.9600e+01	0.1428	0.785967	0.000189	1.890921	0.640661	-0.000076
1003	9.9699e+01	0.1027	0.719978	0.000165	1.646931	0.557995	-0.000066
1004	9.9799e+01	0.0594	0.651137	0.000172	1.718095	0.582106	-0.000069
1005	9.9898e+01	0.0401	0.600627	0.000126	1.260614	0.427108	-0.000051
1006	9.9998e+01	-0.0144	0.528120	0.000181	1.809591	0.613106	-0.000073
1007	1.0010e+02	-0.0674	0.463759	0.000161	1.606266	0.544218	-0.000065
1008	1.0020e+02	-0.0946	0.388808	0.000187	1.870588	0.633772	-0.000075
1009	1.0030e+02	-0.1428	0.319153	0.000174	1.738427	0.588995	-0.000070
1010	1.0040e+02	-0.1797	0.251127	0.000170	1.697762	0.575217	-0.000068
1011	1.0050e+02	-0.2230	0.181064	0.000175	1.748593	0.592440	-0.000070
1012	1.0059e+02	-0.2422	0.104891	0.000190	1.901087	0.644106	-0.000077
1013	1.0069e+02	-0.3064	0.036457	0.000171	1.707928	0.578662	-0.000069
1014	1.0079e+02	-0.3273	-0.032791	0.000173	1.728261	0.585551	-0.000070
1015	1.0089e+02	-0.3577	-0.103261	0.000176	1.758760	0.595884	-0.000071
1016	1.0099e+02	-0.4123	-0.176176	0.000182	1.819757	0.616550	-0.000073
1017	1.0109e+02	-0.4428	-0.248275	0.000180	1.799425	0.609662	-0.000072
1018	1.0119e+02	-0.4829	-0.317931	0.000174	1.738427	0.588995	-0.000070
1019	1.0129e+02	-0.5406	-0.390030	0.000180	1.799425	0.609662	-0.000072
1020	1.0139e+02	-0.5791	-0.461315	0.000178	1.779092	0.602773	-0.000072
1021	1.0149e+02	-0.6064	-0.532600	0.000178	1.779092	0.602773	-0.000072
1022	1.0159e+02	-0.6593	-0.609181	0.000191	1.911253	0.647550	-0.000077
1023	1.0169e+02	-0.7010	-0.676800	0.000169	1.687596	0.571773	-0.000068
1024	1.0179e+02	-0.7315	-0.748899	0.000180	1.799425	0.609662	-0.000072
1025	1.0189e+02	-0.7732	-0.822221	0.000183	1.829923	0.619995	-0.000074
1026	1.0199e+02	-0.8294	-0.893913	0.000179	1.789258	0.606217	-0.000072
1027	1.0209e+02	-0.8470	-0.959903	0.000165	1.646931	0.557995	-0.000066
1028	1.0219e+02	-0.8807	-1.037705	0.000194	1.941752	0.657883	-0.000078
1029	1.0229e+02	-0.9353	-1.111841	0.000185	1.850256	0.626884	-0.000075
1030	1.0239e+02	-0.9770	-1.179460	0.000169	1.687596	0.571773	-0.000068
1031	1.0248e+02	-1.0026	-1.254411	0.000187	1.870588	0.633772	-0.000075
1032	1.0258e+02	-1.0299	-1.322030	0.000169	1.687596	0.571773	-0.000068
1033	1.0268e+02	-1.1069	-1.395352	0.000183	1.829923	0.619995	-0.000074
1034	1.0278e+02	-1.1406	-1.460934	0.000164	1.636765	0.554551	-0.000066
1035	1.0288e+02	-1.1695	-1.535478	0.000186	1.860422	0.630328	-0.000075
1036	1.0298e+02	-1.2112	-1.605133	0.000174	1.738427	0.588995	-0.000070
1037	1.0308e+02	-1.2529	-1.681714	0.000191	1.911253	0.647550	-0.000077
1038	1.0318e+02	-1.3042	-1.751777	0.000175	1.748593	0.592440	-0.000070
1039	1.0328e+02	-1.3251	-1.822247	0.000176	1.758760	0.595884	-0.000071
1040	1.0338e+02	-1.3652	-1.894754	0.000181	1.809591	0.613106	-0.000073
1041	1.0348e+02	-1.4053	-1.967261	0.000181	1.809591	0.613106	-0.000073
1042	1.0358e+02	-1.4534	-2.032436	0.000163	1.626599	0.551107	-0.000066
1043	1.0368e+02	-1.5000	-2.108201	0.000189	1.890921	0.640661	-0.000076
1044	1.0378e+02	-1.5417	-2.176228	0.000170	1.697762	0.575217	-0.000068
1045	1.0388e+02	-1.5625	-2.248327	0.000180	1.799425	0.609662	-0.000072
1046	1.0398e+02	-1.6219	-2.317983	0.000174	1.738427	0.588995	-0.000070
1047	1.0408e+02	-1.6475	-2.391712	0.000184	1.840090	0.623439	-0.000074
1048	1.0418e+02	-1.7069	-2.466255	0.000186	1.860422	0.630328	-0.000075
1049	1.0428e+02	-1.7310	-2.538355	0.000180	1.799425	0.609662	-0.000072
1050	1.0438e+02	-1.7695	-2.603530	0.000163	1.626599	0.551107	-0.000066
1051	1.0447e+02	-1.8192	-2.680110	0.000191	1.911253	0.647550	-0.000077
1052	1.0457e+02	-1.8368	-2.752210	0.000180	1.799425	0.609662	-0.000072
1053	1.0467e+02	-1.8882	-2.827976	0.000189	1.890921	0.640661	-0.000076
1054	1.0477e+02	-1.9267	-2.901705	0.000184	1.840090	0.623439	-0.000074
1055	1.0487e+02	-1.9652	-2.974212	0.000181	1.809591	0.613106	-0.000073
1056	1.0497e+02	-1.9941	-3.045089	0.000177	1.768926	0.599328	-0.000071
1057	1.0507e+02	-2.0486	-3.114745	0.000174	1.738427	0.588995	-0.000070
1058	1.0517e+02	-2.0871	-3.186844	0.000180	1.799425	0.609662	-0.000072
1059	1.0527e+02	-2.1336	-3.255685	0.000172	1.718095	0.582106	-0.000069
1060	1.0537e+02	-2.1433	-3.327785	0.000180	1.799425	0.609662	-0.000072
1061	1.0547e+02	-2.2219	-3.402736	0.000187	1.870588	0.633772	-0.000075
1062	1.0557e+02	-2.2732	-3.473614	0.000177	1.768926	0.599328	-0.000071
1063	1.0567e+02	-2.3053	-3.547343	0.000184	1.840090	0.623439	-0.000074
1064	1.0577e+02	-2.3310	-3.618628	0.000178	1.779092	0.602773	-0.000072
1065	1.0587e+02	-2.3534	-3.689913	0.000178	1.779092	0.602773	-0.000072
1066	1.0597e+02	-2.4208	-3.759975	0.000175	1.748593	0.592440	-0.000070
1067	1.0607e+02	-2.4432	-3.831260	0.000178	1.779092	0.602773	-0.000072
1068	1.0617e+02	-2.4657	-3.902138	0.000177	1.768926	0.599328	-0.000071
1069	1.0627e+02	-2.5154	-3.969757	0.000169	1.687596	0.571773	-0.000068
1070	1.0637e+02	-2.5716	-4.039005	0.000173	1.728261	0.585551	-0.000070
1071	1.0647e+02	-2.5812	-4.109068	0.000175	1.748593	0.592440	-0.000070
1072	1.0656e+02	-2.6486	-4.179131	0.000175	1.748593	0.592440	-0.000070
1073	1.0666e+02	-2.6759	-4.251231	0.000180	1.799425	0.609662	-0.000072
1074	1.0676e+02	-2.7416	-4.322515	0.000178	1.779092	0.602773	-0.000072
1075	1.0686e+02	-2.7657	-4.389320	0.000167	1.667264	0.564884	-0.000067
1076	1.0696e+02	-2.7946	-4.460605	0.000178	1.779092	0.602773	-0.000072
1077	1.0706e+02	-2.8571	-4.530260	0.000174	1.738427	0.588995	-0.000070
1078	1.0716e+02	-2.8780	-4.599101	0.000172	1.718095	0.582106	-0.000069
1079	1.0726e+02	-2.9325	-4.669979	0.000177	1.768926	0.599328	-0.000071
1080	1.0736e+02	-2.9646	-4.733931	0.000160	1.596100	0.540773	-0.000064
1081	1.0746e+02	-3.0079	-4.802365	0.000171	1.707928	0.578662	-0.000069
1082	1.0756e+02	-3.0496	-4.869169	0.000167	1.667264	0.564884	-0.000067
1083	1.0766e+02	-3.0881	-4.945750	0.000191	1.911253	0.647550	-0.000077
1084	1.0776e+02	-3.1411	-5.013368	0.000169	1.687596	0.571773	-0.000068
1085	1.0786e+02	-3.1716	-5.081802	0.000171	1.707928	0.578662	-0.000069
1086	1.0796e+02	-3.1844	-5.148199	0.000166	1.657097	0.561440	-0.000067
1087	1.0806e+02	-3.2438	-5.217040	0.000172	1.718095	0.582106	-0.000069
1088	1.0816e+02	-3.2935	-5.283844	0.000167	1.667264	0.564884	-0.000067
1089	1.0826e+02	-3.3448	-5.351055	0.000168	1.677430	0.568329	-0.000068
1090	1.0836e+02	-3.3737	-5.417452	0.000166	1.657097	0.561440	-0.000067
1091	1.0845e+02	-3.4074	-5.484664	0.000168	1.677430	0.568329	-0.000068
1092	1.0855e+02	-3.4571	-5.550653	0.000165	1.646931	0.557995	-0.000066
1093	1.0865e+02	-3.4892	-5.617457	0.000167	1.667264	0.564884	-0.000067
1094	1.0875e+02	-3.5197	-5.682632	0.000163	1.626599	0.551107	-0.000066
1095	1.0885e+02	-3.5550	-5.747400	0.000162	1.616432	0.547662	-0.000065
1096	1.0895e+02	-3.6208	-5.810945	0.000159	1.585934	0.537329	-0.000064
1097	1.0905e+02	-3.6625	-5.880193	0.000173	1.728261	0.585551	-0.000070
1098	1.0915e+02	-3.6897	-5.938443	0.000145	1.453772	0.492551	-0.000059
1099	1.0925e+02	-3.7170	-6.008099	0.000174	1.738427	0.588995	-0.000070
1100	1.0935e+02	-3.7491	-6.066756	0.000146	1.463939	0.495996	-0.000059
1101	1.0945e+02	-3.7892	-6.137227	0.000176	1.758760	0.595884	-0.000071
1102	1.0955e+02	-3.8325	-6.198735	0.000154	1.535102	0.520107	-0.000062
1103	1.0965e+02	-3.8822	-6.261466	0.000157	1.565601	0.530440	-0.000063
1104	1.0975e+02	-3.9288	-6.324197	0.000157	1.565601	0.530440	-0.000063
1105	1.0985e+02	-3.9576	-6.388150	0.000160	1.596100	0.540773	-0.000064
1106	1.0995e+02	-4.0058	-6.451695	0.000159	1.585934	0.537329	-0.000064
1107	1.1005e+02	-4.0379	-6.510352	0.000146	1.463939	0.495996	-0.000059
1108	1.1015e+02	-4.0699	-6.575120	0.000162	1.616432	0.547662	-0.000065
1109	1.1025e+02	-4.1116	-6.641517	0.000166	1.657097	0.561440	-0.000067
1110	1.1035e+02	-4.1502	-6.707099	0.000164	1.636765	0.554551	-0.000066
1111	1.1044e+02	-4.1887	-6.762090	0.000137	1.372443	0.464996	-0.000055
1112	1.1054e+02	-4.2464	-6.828080	0.000165	1.646931	0.557995	-0.000066
1113	1.1064e+02	-4.2961	-6.888774	0.000151	1.514770	0.513218	-0.000061
1114	1.1074e+02	-4.3154	-6.954763	0.000165	1.646931	0.557995	-0.000066
1115	1.1084e+02	-4.3635	-7.011384	0.000141	1.413108	0.478774	-0.000057
1116	1.1094e+02	-4.3988	-7.074522	0.000158	1.575767	0.533884	-0.000063
1117	1.1104e+02	-4.4325	-7.137253	0.000157	1.565601	0.530440	-0.000063
1118	1.1114e+02	-4.4870	-7.198761	0.000154	1.535102	0.520107	-0.000062
1119	1.1124e+02	-4.4967	-7.261899	0.000158	1.575767	0.533884	-0.000063
1120	1.1134e+02	-4.5432	-7.318113	0.000140	1.402941	0.475329	-0.000056
1121	1.1144e+02	-4.5961	-7.383287	0.000163	1.626599	0.551107	-0.000066
1122	1.1154e+02	-4.6346	-7.446426	0.000158	1.575767	0.533884	-0.000063
1123	1.1164e+02	-4.6683	-7.501417	0.000137	1.372443	0.464996	-0.000055
1124	1.1174e+02	-4.7004	-7.563740	0.000156	1.555435	0.526996	-0.000063
1125	1.1184e+02	-4.7437	-7.624027	0.000150	1.504604	0.509774	-0.000061
1126	1.1194e+02	-4.7951	-7.685943	0.000155	1.545269	0.523551	-0.000062
1127	1.1204e+02	-4.8448	-7.744600	0.000146	1.463939	0.495996	-0.000059
1128	1.1214e+02	-4.8656	-7.807738	0.000158	1.575767	0.533884	-0.000063
1129	1.1224e+02	-4.8945	-7.862730	0.000137	1.372443	0.464996	-0.000055
1130	1.1234e+02	-4.9555	-7.922202	0.000148	1.484271	0.502885	-0.000060
1131	1.1244e+02	-4.9924	-7.985747	0.000159	1.585934	0.537329	-0.000064
1132	1.1253e+02	-5.0325	-8.038702	0.000132	1.321611	0.447774	-0.000053
1133	1.1263e+02	-5.0950	-8.102654	0.000160	1.596100	0.540773	-0.000064
1134	1.1273e+02	-5.1319	-8.155609	0.000132	1.321611	0.447774	-0.000053
1135	1.1283e+02	-5.1688	-8.217525	0.000155	1.545269	0.523551	-0.000062
1136	1.1293e+02	-5.1865	-8.272516	0.000137	1.372443	0.464996	-0.000055
1137	1.1303e+02	-5.2234	-8.329952	0.000143	1.433440	0.485663	-0.000058
1138	1.1313e+02	-5.2635	-8.389424	0.000148	1.484271	0.502885	-0.000060
1139	1.1323e+02	-5.3277	-8.446451	0.000142	1.423274	0.482218	-0.000057
1140	1.1333e+02	-5.3405	-8.505109	0.000146	1.463939	0.495996	-0.000059
1141	1.1343e+02	-5.3790	-8.561729	0.000141	1.413108	0.478774	-0.000057
1142	1.1353e+02	-5.4351	-8.619979	0.000145	1.453772	0.492551	-0.000059
1143	1.1363e+02	-5.4656	-8.677007	0.000142	1.423274	0.482218	-0.000057
1144	1.1373e+02	-5.5137	-8.734443	0.000143	1.433440	0.485663	-0.000058
1145	1.1383e+02	-5.5571	-8.790249	0.000139	1.392775	0.471885	-0.000056
1146	1.1393e+02	-5.6004	-8.850128	0.000149	1.494437	0.506329	-0.000060
1147	1.1403e+02	-5.6196	-8.907156	0.000142	1.423274	0.482218	-0.000057
1148	1.1413e+02	-5.6870	-8.960518	0.000133	1.331778	0.451218	-0.000054
1149	1.1423e+02	-5.6934	-9.019582	0.000147	1.474105	0.499440	-0.000059
1150	1.1433e+02	-5.7704	-9.076203	0.000141	1.413108	0.478774	-0.000057
1151	1.1442e+02	-5.7993	-9.135268	0.000147	1.474105	0.499440	-0.000059
1152	1.1452e+02	-5.8635	-9.191888	0.000141	1.413108	0.478774	-0.000057
1153	1.1462e+02	-5.8603	-9.246065	-0.000135	-1.352110	-0.458107	-0.000054
1154	1.1472e+02	-5.9004	-9.306759	0.000151	1.514770	0.513218	-0.000061
1155	1.1482e+02	-5.9629	-9.364602	0.000144	1.443606	0.489107	-0.000058
1156	1.1492e+02	-5.9758	-9.420815	0.000140	1.402941	0.475329	-0.000056
1157	1.1502e+02	-6.0287	-9.475399	0.000136	1.362276	0.461552	-0.000055
1158	1.1512e+02	-6.0752	-9.533649	0.000145	1.453772	0.492551	-0.000059
1159	1.1522e+02	-6.1234	-9.589455	0.000139	1.392775	0.471885	-0.000056
1160	1.1532e+02	-6.1426	-9.645261	0.000139	1.392775	0.471885	-0.000056
1161	1.1542e+02	-6.1972	-9.700252	0.000137	1.372443	0.464996	-0.000055
1162	1.1552e+02	-6.2485	-9.754428	0.000135	1.352110	0.458107	-0.000054
1163	1.1562e+02	-6.2629	-9.811864	0.000143	1.433440	0.485663	-0.000058
1164	1.1572e+02	-6.3030	-9.868484	0.000141	1.413108	0.478774	-0.000057
1165	1.1582e+02	-6.3319	-9.923476	0.000137	1.372443	0.464996	-0.000055
1166	1.1592e+02	-6.3881	-9.983762	0.000150	1.504604	0.509774	-0.000061
1167	1.1602e+02	-6.4378	-10.035902	0.000130	1.301279	0.440885	-0.000052
1168	1.1612e+02	-6.4795	-10.086413	0.000126	1.260614	0.427108	-0.000051
1169	1.1622e+02	-6.5132	-10.136923	0.000126	1.260614	0.427108	-0.000051
1170	1.1632e+02	-6.5565	-10.200876	0.000160	1.596100	0.540773	-0.000064
1171	1.1642e+02	-6.5725	-10.258718	0.000144	1.443606	0.489107	-0.000058
1172	1.1651e+02	-6.6223	-10.310858	0.000130	1.301279	0.440885	-0.000052
1173	1.1661e+02	-6.6640	-10.366664	0.000139	1.392775	0.471885	-0.000056
1174	1.1671e+02	-6.7314	-10.421656	0.000137	1.372443	0.464996	-0.000055
1175	1.1681e+02	-6.7346	-10.476647	0.000137	1.372443	0.464996	-0.000055
1176	1.1691e+02	-6.7843	-10.535711	0.000147	1.474105	0.499440	-0.000059
1177	1.1701e+02	-6.8260	-10.590703	0.000137	1.372443	0.464996	-0.000055
1178	1.1711e+02	-6.8661	-10.654248	0.000159	1.585934	0.537329	-0.000064
1179	1.1721e+02	-6.9110	-10.700278	0.000115	1.148785	0.389219	-0.000046
1180	1.1731e+02	-6.9576	-10.767897	0.000169	1.687596	0.571773	-0.000068
1181	1.1741e+02	-6.9993	-10.821666	0.000134	1.341944	0.454663	-0.000054
1182	1.1751e+02	-7.0426	-10.878287	0.000141	1.413108	0.478774	-0.000057
1183	1.1761e+02	-7.0715	-10.939795	0.000154	1.535102	0.520107	-0.000062
1184	1.1771e+02	-7.1019	-10.997231	0.000143	1.433440	0.485663	-0.000058
1185	1.1781e+02	-7.1597	-11.056703	0.000148	1.484271	0.502885	-0.000060
1186	1.1791e+02	-7.1822	-11.103954	0.000118	1.179284	0.399552	-0.000047
1187	1.1801e+02	-7.2319	-11.165870	0.000155	1.545269	0.523551	-0.000062
1188	1.1811e+02	-7.2688	-11.222491	0.000141	1.413108	0.478774	-0.000057
1189	1.1821e+02	-7.3201	-11.284407	0.000155	1.545269	0.523551	-0.000062
1190	1.1831e+02	-7.3410	-11.342250	0.000144	1.443606	0.489107	-0.000058
1191	1.1841e+02	-7.3763	-11.401314	0.000147	1.474105	0.499440	-0.000059
1192	1.1850e+02	-7.4340	-11.459564	0.000145	1.453772	0.492551	-0.000059
1193	1.1860e+02	-7.4789	-11.513334	0.000134	1.341944	0.454663	-0.000054
1194	1.1870e+02	-7.5287	-11.571991	0.000146	1.463939	0.495996	-0.000059
1195	1.1880e+02	-7.5255	-11.627797	-0.000139	-1.392775	-0.471885	-0.000056
1196	1.1890e+02	-7.5800	-11.683603	0.000139	1.392775	0.471885	-0.000056
1197	1.1900e+02	-7.6153	-11.746333	0.000157	1.565601	0.530440	-0.000063
1198	1.1910e+02	-7.6458	-11.797659	0.000128	1.280946	0.433996	-0.000052
1199	1.1920e+02	-7.7003	-11.853465	0.000139	1.392775	0.471885	-0.000056
1200	1.1930e+02	-7.7484	-11.914159	0.000151	1.514770	0.513218	-0.000061
1201	1.1940e+02	-7.7613	-11.970372	0.000140	1.402941	0.475329	-0.000056
1202	1.1950e+02	-7.8126	-12.025770	0.000138	1.382609	0.468441	-0.000056
1203	1.1960e+02	-7.8527	-12.083206	0.000143	1.433440	0.485663	-0.000058
1204	1.1970e+02	-7.9185	-12.139419	0.000140	1.402941	0.475329	-0.000056
1205	1.1980e+02	-7.9233	-12.199298	0.000149	1.494437	0.506329	-0.000060
1206	1.1990e+02	-7.9955	-12.254697	0.000138	1.382609	0.468441	-0.000056
1207	1.2000e+02	-8.0260	-12.310096	0.000138	1.382609	0.468441	-0.000056
1208	1.2010e+02	-8.0324	-12.366716	0.000141	1.413108	0.478774	-0.000057
1209	1.2020e+02	-8.0950	-12.420078	0.000133	1.331778	0.451218	-0.000054
1210	1.2030e+02	-8.1351	-12.480772	0.000151	1.514770	0.513218	-0.000061
1211	1.2039e+02	-8.1639	-12.539429	0.000146	1.463939	0.495996	-0.000059
1212	1.2049e+02	-8.2474	-12.593199	0.000134	1.341944	0.454663	-0.000054
1213	1.2059e+02	-8.2634	-12.649819	0.000141	1.413108	0.478774	-0.000057
1214	1.2069e+02	-8.3003	-12.705625	0.000139	1.392775	0.471885	-0.000056
1215	1.2079e+02	-8.3212	-12.764690	0.000147	1.474105	0.499440	-0.000059
1216	1.2089e+02	-8.3757	-12.822940	0.000145	1.453772	0.492551	-0.000059
1217	1.2099e+02	-8.4318	-12.875080	0.000130	1.301279	0.440885	-0.000052
1218	1.2109e+02	-8.4479	-12.940255	0.000163	1.626599	0.551107	-0.000066
1219	1.2119e+02	-8.4896	-12.994838	0.000136	1.362276	0.461552	-0.000055
1220	1.2129e+02	-8.5377	-13.051459	0.000141	1.413108	0.478774	-0.000057
1221	1.2139e+02	-8.5762	-13.112153	0.000151	1.514770	0.513218	-0.000061
1222	1.2149e+02	-8.6179	-13.168774	0.000141	1.413108	0.478774	-0.000057
1223	1.2159e+02	-8.6564	-13.227024	0.000145	1.453772	0.492551	-0.000059
1224	1.2169e+02	-8.6998	-13.287718	0.000151	1.514770	0.513218	-0.000061
1225	1.2179e+02	-8.7399	-13.339858	0.000130	1.301279	0.440885	-0.000052
1226	1.2189e+02	-8.7960	-13.398108	0.000145	1.453772	0.492551	-0.000059
1227	1.2199e+02	-8.7800	-13.454321	-0.000140	-1.402941	-0.475329	-0.000056
1228	1.2209e+02	-8.8586	-13.516237	0.000155	1.545269	0.523551	-0.000062
1229	1.2219e+02	-8.8858	-13.574080	0.000144	1.443606	0.489107	-0.000058
1230	1.2229e+02	-8.9484	-13.626627	0.000131	1.311445	0.444330	-0.000053
1231	1.2239e+02	-8.9837	-13.685691	0.000147	1.474105	0.499440	-0.000059
1232	1.2248e+02	-9.0190	-13.742719	0.000142	1.423274	0.482218	-0.000057
1233	1.2258e+02	-9.0623	-13.800562	0.000144	1.443606	0.489107	-0.000058
1234	1.2268e+02	-9.0607	-13.858405	-0.000144	-1.443606	-0.489107	-0.000058
1235	1.2278e+02	-9.1377	-13.914211	0.000139	1.392775	0.471885	-0.000056
1236	1.2288e+02	-9.1618	-13.965943	0.000129	1.291113	0.437441	-0.000052
1237	1.2298e+02	-9.2163	-14.026637	0.000151	1.514770	0.513218	-0.000061
1238	1.2308e+02	-9.2773	-14.079184	0.000131	1.311445	0.444330	-0.000053
1239	1.2318e+02	-9.2965	-14.137434	0.000145	1.453772	0.492551	-0.000059
1240	1.2328e+02	-9.3318	-14.188352	0.000127	1.270780	0.430552	-0.000051
1241	1.2338e+02	-9.3703	-14.245787	0.000143	1.433440	0.485663	-0.000058
1242	1.2348e+02	-9.3992	-14.306074	0.000150	1.504604	0.509774	-0.000061
1243	1.2358e+02	-9.4505	-14.361065	0.000137	1.372443	0.464996	-0.000055
1244	1.2368e+02	-9.5243	-14.411983	0.000127	1.270780	0.430552	-0.000051
1245	1.2378e+02	-9.5596	-14.473492	0.000154	1.535102	0.520107	-0.000062
1246	1.2388e+02	-9.5821	-14.528483	0.000137	1.372443	0.464996	-0.000055
1247	1.2398e+02	-9.6495	-14.580216	0.000129	1.291113	0.437441	-0.000052
1248	1.2408e+02	-9.6735	-14.632355	0.000130	1.301279	0.440885	-0.000052
1249	1.2418e+02	-9.7056	-14.691827	0.000148	1.484271	0.502885	-0.000060
1250	1.2428e+02	-9.7249	-14.746411	0.000136	1.362276	0.461552	-0.000055
1251	1.2438e+02	-9.7714	-14.803439	0.000142	1.423274	0.482218	-0.000057
1252	1.2447e+02	-9.8147	-14.857209	0.000134	1.341944	0.454663	-0.000054
1253	1.2457e+02	-9.8468	-14.913829	0.000141	1.413108	0.478774	-0.000057
1254	1.2467e+02	-9.8837	-14.969635	0.000139	1.392775	0.471885	-0.000056
1255	1.2477e+02	-9.9527	-15.026256	0.000141	1.413108	0.478774	-0.000057
1256	1.2487e+02	-9.9799	-15.077174	0.000127	1.270780	0.430552	-0.000051
1257	1.2497e+02	-10.0040	-15.130943	0.000134	1.341944	0.454663	-0.000054
1258	1.2507e+02	-10.0393	-15.186341	0.000138	1.382609	0.468441	-0.000056
1259	1.2517e+02	-10.1067	-15.238889	0.000131	1.311445	0.444330	-0.000053
1260	1.2527e+02	-10.1307	-15.289806	0.000127	1.270780	0.430552	-0.000051
1261	1.2537e+02	-10.1564	-15.341946	0.000130	1.301279	0.440885	-0.000052
1262	1.2547e+02	-10.2302	-15.399381	0.000143	1.433440	0.485663	-0.000058
1263	1.2557e+02	-10.2719	-15.452336	0.000132	1.321611	0.447774	-0.000053
1264	1.2567e+02	-10.2944	-15.505291	0.000132	1.321611	0.447774	-0.000053
1265	1.2577e+02	-10.3441	-15.554172	0.000122	1.219949	0.413330	-0.000049
1266	1.2587e+02	-10.3553	-15.608348	0.000135	1.352110	0.458107	-0.000054
1267	1.2597e+02	-10.4115	-15.656822	0.000121	1.209783	0.409885	-0.000049
1268	1.2607e+02	-10.4628	-15.711406	0.000136	1.362276	0.461552	-0.000055
1269	1.2617e+02	-10.5013	-15.757436	0.000115	1.148785	0.389219	-0.000046
1270	1.2627e+02	-10.5478	-15.810797	0.000133	1.331778	0.451218	-0.000054
1271	1.2636e+02	-10.5735	-15.863345	0.000131	1.311445	0.444330	-0.000053
1272	1.2646e+02	-10.5976	-15.911004	0.000119	1.189450	0.402997	-0.000048
1273	1.2656e+02	-10.6585	-15.960700	0.000124	1.240281	0.420219	-0.000050
1274	1.2666e+02	-10.6922	-16.013654	0.000132	1.321611	0.447774	-0.000053
1275	1.2676e+02	-10.7291	-16.064572	0.000127	1.270780	0.430552	-0.000051
1276	1.2686e+02	-10.7837	-16.117934	0.000133	1.331778	0.451218	-0.000054
1277	1.2696e+02	-10.8157	-16.167222	0.000123	1.230115	0.416774	-0.000050
1278	1.2706e+02	-10.8526	-16.220991	0.000134	1.341944	0.454663	-0.000054
1279	1.2716e+02	-10.8815	-16.268650	0.000119	1.189450	0.402997	-0.000048
1280	1.2726e+02	-10.9296	-16.318346	0.000124	1.240281	0.420219	-0.000050
1281	1.2736e+02	-10.9842	-16.373338	0.000137	1.372443	0.464996	-0.000055
1282	1.2746e+02	-10.9906	-16.423033	0.000124	1.240281	0.420219	-0.000050
1283	1.2756e+02	-11.0355	-16.473136	0.000125	1.250448	0.423663	-0.000050
1284	1.2766e+02	-11.0901	-16.519574	0.000116	1.158951	0.392663	-0.000047
1285	1.2776e+02	-11.1366	-16.572528	0.000132	1.321611	0.447774	-0.000053
1286	1.2786e+02	-11.1542	-16.618150	0.000114	1.138619	0.385775	-0.000046
1287	1.2796e+02	-11.1943	-16.666624	0.000121	1.209783	0.409885	-0.000049
1288	1.2806e+02	-11.2360	-16.717949	0.000128	1.280946	0.433996	-0.000052
1289	1.2816e+02	-11.2890	-16.768460	0.000126	1.260614	0.427108	-0.000051
1290	1.2826e+02	-11.3082	-16.818970	0.000126	1.260614	0.427108	-0.000051
1291	1.2835e+02	-11.3628	-16.870295	0.000128	1.280946	0.433996	-0.000052
1292	1.2845e+02	-11.4221	-16.918362	0.000120	1.199616	0.406441	-0.000048
1293	1.2855e+02	-11.4462	-16.971316	0.000132	1.321611	0.447774	-0.000053
1294	1.2865e+02	-11.4831	-17.010421	0.000098	0.975959	0.330664	-0.000039
1295	1.2875e+02	-11.5328	-17.065005	0.000136	1.362276	0.461552	-0.000055
1296	1.2885e+02	-11.5665	-17.111850	0.000117	1.169118	0.396108	-0.000047
1297	1.2895e+02	-11.6243	-17.160323	0.000121	1.209783	0.409885	-0.000049
1298	1.2905e+02	-11.6483	-17.211648	0.000128	1.280946	0.433996	-0.000052
1299	1.2915e+02	-11.7045	-17.259308	0.000119	1.189450	0.402997	-0.000048
1300	1.2925e+02	-11.7318	-17.305745	0.000116	1.158951	0.392663	-0.000047
1301	1.2935e+02	-11.7606	-17.359107	0.000133	1.331778	0.451218	-0.000054
1302	1.2945e+02	-11.8055	-17.401877	0.000107	1.067455	0.361664	-0.000043
1303	1.2955e+02	-11.8296	-17.447907	0.000115	1.148785	0.389219	-0.000046
1304	1.2965e+02	-11.8922	-17.494752	0.000117	1.169118	0.396108	-0.000047
1305	1.2975e+02	-11.9291	-17.545262	0.000126	1.260614	0.427108	-0.000051
1306	1.2985e+02	-11.9692	-17.591699	0.000116	1.158951	0.392663	-0.000047
1307	1.2995e+02	-12.0013	-17.637729	0.000115	1.148785	0.389219	-0.000046
1308	1.3005e+02	-12.0558	-17.688239	0.000126	1.260614	0.427108	-0.000051
1309	1.3015e+02	-12.1039	-17.726529	0.000096	0.955627	0.323775	-0.000038
1310	1.3025e+02	-12.1248	-17.779077	0.000131	1.311445	0.444330	-0.000053
1311	1.3034e+02	-12.1601	-17.825514	0.000116	1.158951	0.392663	-0.000047
1312	1.3044e+02	-12.2146	-17.873173	0.000119	1.189450	0.402997	-0.000048
1313	1.3054e+02	-12.2194	-17.918388	0.000113	1.128453	0.382330	-0.000045
1314	1.3064e+02	-12.2964	-17.967269	0.000122	1.219949	0.413330	-0.000049
1315	1.3074e+02	-12.3157	-18.011669	0.000111	1.108120	0.375441	-0.000045
1316	1.3084e+02	-12.3606	-18.061365	0.000124	1.240281	0.420219	-0.000050
1317	1.3094e+02	-12.4152	-18.102507	0.000103	1.026790	0.347886	-0.000041
1318	1.3104e+02	-12.4360	-18.151388	0.000122	1.219949	0.413330	-0.000049
1319	1.3114e+02	-12.4713	-18.199047	0.000119	1.189450	0.402997	-0.000048
1320	1.3124e+02	-12.4938	-18.250372	0.000128	1.280946	0.433996	-0.000052
1321	1.3134e+02	-12.5820	-18.294772	0.000111	1.108120	0.375441	-0.000045
1322	1.3144e+02	-12.5996	-18.340802	0.000115	1.148785	0.389219	-0.000046
1323	1.3154e+02	-12.6301	-18.388054	0.000118	1.179284	0.399552	-0.000047
1324	1.3164e+02	-12.7135	-18.437342	0.000123	1.230115	0.416774	-0.000050
1325	1.3174e+02	-12.6895	-18.486223	-0.000122	-1.219949	-0.413330	-0.000049
1326	1.3184e+02	-12.7970	-18.533475	0.000118	1.179284	0.399552	-0.000047
1327	1.3194e+02	-12.8226	-18.572580	0.000098	0.975959	0.330664	-0.000039
1328	1.3204e+02	-12.8403	-18.619424	0.000117	1.169118	0.396108	-0.000047
1329	1.3214e+02	-12.9028	-18.668713	0.000123	1.230115	0.416774	-0.000050
1330	1.3224e+02	-12.9028	-18.711891	0.000108	1.077622	0.365108	-0.000043
1331	1.3234e+02	-12.9686	-18.757921	0.000115	1.148785	0.389219	-0.000046
1332	1.3243e+02	-12.9879	-18.808024	0.000125	1.250448	0.423663	-0.000050
1333	1.3253e+02	-13.0488	-18.850388	0.000106	1.057289	0.358219	-0.000043
1334	1.3263e+02	-13.0857	-18.900491	0.000125	1.250448	0.423663	-0.000050
1335	1.3273e+02	-13.1226	-18.944076	0.000109	1.087788	0.368552	-0.000044
1336	1.3283e+02	-13.1724	-18.993365	0.000123	1.230115	0.416774	-0.000050
1337	1.3293e+02	-13.2012	-19.038580	0.000113	1.128453	0.382330	-0.000045
1338	1.3303e+02	-13.2269	-19.082980	0.000111	1.108120	0.375441	-0.000045
1339	1.3313e+02	-13.2638	-19.134713	0.000129	1.291113	0.437441	-0.000052
1340	1.3323e+02	-13.3248	-19.178298	0.000109	1.087788	0.368552	-0.000044
1341	1.3333e+02	-13.3649	-19.228809	0.000126	1.260614	0.427108	-0.000051
1342	1.3343e+02	-13.4066	-19.275246	0.000116	1.158951	0.392663	-0.000047
1343	1.3353e+02	-13.4194	-19.321276	0.000115	1.148785	0.389219	-0.000046
1344	1.3363e+02	-13.4756	-19.364861	0.000109	1.087788	0.368552	-0.000044
1345	1.3373e+02	-13.5205	-19.414964	0.000125	1.250448	0.423663	-0.000050
1346	1.3383e+02	-13.5590	-19.464660	0.000124	1.240281	0.420219	-0.000050
1347	1.3393e+02	-13.6151	-19.514763	0.000125	1.250448	0.423663	-0.000050
1348	1.3403e+02	-13.6408	-19.558756	0.000110	1.097954	0.371997	-0.000044
1349	1.3413e+02	-13.6857	-19.610489	0.000129	1.291113	0.437441	-0.000052
1350	1.3423e+02	-13.7226	-19.657333	0.000117	1.169118	0.396108	-0.000047
1351	1.3432e+02	-13.7691	-19.711510	0.000135	1.352110	0.458107	-0.000054
1352	1.3442e+02	-13.7948	-19.755910	0.000111	1.108120	0.375441	-0.000045
1353	1.3452e+02	-13.8590	-19.801940	0.000115	1.148785	0.389219	-0.000046
1354	1.3462e+02	-13.8846	-19.849599	0.000119	1.189450	0.402997	-0.000048
1355	1.3472e+02	-13.9151	-19.905812	0.000140	1.402941	0.475329	-0.000056
1356	1.3482e+02	-13.9729	-19.955101	0.000123	1.230115	0.416774	-0.000050
1357	1.3492e+02	-13.9985	-20.001538	0.000116	1.158951	0.392663	-0.000047
1358	1.3502e+02	-14.0483	-20.048789	0.000118	1.179284	0.399552	-0.000047
1359	1.3512e+02	-14.0723	-20.106225	0.000143	1.433440	0.485663	-0.000058
1360	1.3522e+02	-14.1301	-20.150218	0.000110	1.097954	0.371997	-0.000044
1361	1.3532e+02	-14.1766	-20.200728	0.000126	1.260614	0.427108	-0.000051
1362	1.3542e+02	-14.2119	-20.246758	0.000115	1.148785	0.389219	-0.000046
1363	1.3552e+02	-14.2408	-20.293602	0.000117	1.169118	0.396108	-0.000047
1364	1.3562e+02	-14.2568	-20.340039	0.000116	1.158951	0.392663	-0.000047
1365	1.3572e+02	-14.3114	-20.389735	0.000124	1.240281	0.420219	-0.000050
1366	1.3582e+02	-14.3402	-20.439431	0.000124	1.240281	0.420219	-0.000050
1367	1.3592e+02	-14.4301	-20.489127	0.000124	1.240281	0.420219	-0.000050
1368	1.3602e+02	-14.4590	-20.540044	0.000127	1.270780	0.430552	-0.000051
1369	1.3612e+02	-14.4798	-20.587296	0.000118	1.179284	0.399552	-0.000047
1370	1.3622e+02	-14.5167	-20.640251	0.000132	1.321611	0.447774	-0.000053
1371	1.3631e+02	-14.5440	-20.681800	0.000104	1.036957	0.351330	-0.000042
1372	1.3641e+02	-14.5985	-20.729866	0.000120	1.199616	0.406441	-0.000048
1373	1.3651e+02	-14.6097	-20.785265	0.000138	1.382609	0.468441	-0.000056
1374	1.3661e+02	-14.6787	-20.833738	0.000121	1.209783	0.409885	-0.000049
1375	1.3671e+02	-14.7060	-20.881805	0.000120	1.199616	0.406441	-0.000048
1376	1.3681e+02	-14.7846	-20.930279	0.000121	1.209783	0.409885	-0.000049
1377	1.3691e+02	-14.7974	-20.976308	0.000115	1.148785	0.389219	-0.000046
1378	1.3701e+02	-14.8440	-21.027634	0.000128	1.280946	0.433996	-0.000052
1379	1.3711e+02	-14.8696	-21.071627	0.000110	1.097954	0.371997	-0.000044
1380	1.3721e+02	-14.9258	-21.123359	0.000129	1.291113	0.437441	-0.000052
1381	1.3731e+02	-14.9386	-21.176314	0.000132	1.321611	0.447774	-0.000053
1382	1.3741e+02	-15.0092	-21.221936	0.000114	1.138619	0.385775	-0.000046
1383	1.3751e+02	-15.0124	-21.272446	0.000126	1.260614	0.427108	-0.000051
1384	1.3761e+02	-15.0814	-21.318069	0.000114	1.138619	0.385775	-0.000046
1385	1.3771e+02	-15.1199	-21.369394	0.000128	1.280946	0.433996	-0.000052
1386	1.3781e+02	-15.1472	-21.422348	0.000132	1.321611	0.447774	-0.000053
1387	1.3791e+02	-15.1889	-21.476525	0.000135	1.352110	0.458107	-0.000054
1388	1.3801e+02	-15.2434	-21.524184	0.000119	1.189450	0.402997	-0.000048
1389	1.3811e+02	-15.2899	-21.574287	0.000125	1.250448	0.423663	-0.000050
1390	1.3821e+02	-15.3429	-21.628871	0.000136	1.362276	0.461552	-0.000055
1391	1.3831e+02	-15.3589	-21.678974	0.000125	1.250448	0.423663	-0.000050
1392	1.3840e+02	-15.3830	-21.726226	0.000118	1.179284	0.399552	-0.000047
1393	1.3850e+02	-15.4600	-21.777144	0.000127	1.270780	0.430552	-0.000051
1394	1.3860e+02	-15.4568	-21.826432	-0.000123	-1.230115	-0.416774	-0.000050
1395	1.3870e+02	-15.5097	-21.878979	0.000131	1.311445	0.444330	-0.000053
1396	1.3880e+02	-15.5771	-21.927046	0.000120	1.199616	0.406441	-0.000048
1397	1.3890e+02	-15.5915	-21.976334	0.000123	1.230115	0.416774	-0.000050
1398	1.3900e+02	-15.6268	-22.023586	0.000118	1.179284	0.399552	-0.000047
1399	1.3910e+02	-15.6910	-22.080207	0.000141	1.413108	0.478774	-0.000057
1400	1.3920e+02	-15.7167	-22.125422	0.000113	1.128453	0.382330	-0.000045
1401	1.3930e+02	-15.7536	-22.175932	0.000126	1.260614	0.427108	-0.000051
1402	1.3940e+02	-15.7840	-22.222777	0.000117	1.169118	0.396108	-0.000047
1403	1.3950e+02	-15.8209	-22.272880	0.000125	1.250448	0.423663	-0.000050
1404	1.3960e+02	-15.8643	-22.323798	0.000127	1.270780	0.430552	-0.000051
1405	1.3970e+02	-15.9028	-22.373086	0.000123	1.230115	0.416774	-0.000050
1406	1.3980e+02	-15.9493	-22.420338	0.000118	1.179284	0.399552	-0.000047
1407	1.3990e+02	-15.9862	-22.475736	0.000138	1.382609	0.468441	-0.000056
1408	1.4000e+02	-16.0279	-22.522581	0.000117	1.169118	0.396108	-0.000047
1409	1.4010e+02	-16.0680	-22.573091	0.000126	1.260614	0.427108	-0.000051
1410	1.4020e+02	-16.1161	-22.619121	0.000115	1.148785	0.389219	-0.000046
1411	1.4029e+02	-16.1610	-22.670853	0.000129	1.291113	0.437441	-0.000052
1412	1.4039e+02	-16.1947	-22.720142	0.000123	1.230115	0.416774	-0.000050
1413	1.4049e+02	-16.2220	-22.769023	0.000122	1.219949	0.413330	-0.000049
1414	1.4059e+02	-16.2605	-22.817089	0.000120	1.199616	0.406441	-0.000048
1415	1.4069e+02	-16.3022	-22.862304	0.000113	1.128453	0.382330	-0.000045
1416	1.4079e+02	-16.3359	-22.914444	0.000130	1.301279	0.440885	-0.000052
1417	1.4089e+02	-16.3872	-22.964955	0.000126	1.260614	0.427108	-0.000051
1418	1.4099e+02	-16.4354	-23.012614	0.000119	1.189450	0.402997	-0.000048
1419	1.4109e+02	-16.4514	-23.057829	0.000113	1.128453	0.382330	-0.000045
1420	1.4119e+02	-16.5092	-23.111598	0.000134	1.341944	0.454663	-0.000054
1421	1.4129e+02	-16.5685	-23.162923	0.000128	1.280946	0.433996	-0.000052
1422	1.4139e+02	-16.5926	-23.204472	0.000104	1.036957	0.351330	-0.000042
1423	1.4149e+02	-16.6215	-23.255390	0.000127	1.270780	0.430552	-0.000051
1424	1.4159e+02	-16.6680	-23.305900	0.000126	1.260614	0.427108	-0.000051
1425	1.4169e+02	-16.6872	-23.354374	0.000121	1.209783	0.409885	-0.000049
1426	1.4179e+02	-16.7434	-23.399589	0.000113	1.128453	0.382330	-0.000045
1427	1.4189e+02	-16.7947	-23.451322	0.000129	1.291113	0.437441	-0.000052
1428	1.4199e+02	-16.8284	-23.496537	0.000113	1.128453	0.382330	-0.000045
1429	1.4209e+02	-16.8605	-23.540530	0.000110	1.097954	0.371997	-0.000044
1430	1.4219e+02	-16.9102	-23.589003	0.000121	1.209783	0.409885	-0.000049
1431	1.4228e+02	-16.9583	-23.637477	0.000121	1.209783	0.409885	-0.000049
1432	1.4238e+02	-16.9840	-23.684729	0.000118	1.179284	0.399552	-0.000047
1433	1.4248e+02	-17.0193	-23.731981	0.000118	1.179284	0.399552	-0.000047
1434	1.4258e+02	-17.0835	-23.775974	0.000110	1.097954	0.371997	-0.000044
1435	1.4268e+02	-17.1140	-23.822818	0.000117	1.169118	0.396108	-0.000047
1436	1.4278e+02	-17.1541	-23.867626	0.000112	1.118287	0.378886	-0.000045
1437	1.4288e+02	-17.1845	-23.915692	0.000120	1.199616	0.406441	-0.000048
1438	1.4298e+02	-17.2343	-23.958871	0.000108	1.077622	0.365108	-0.000043
1439	1.4308e+02	-17.2664	-24.007344	0.000121	1.209783	0.409885	-0.000049
1440	1.4318e+02	-17.2968	-24.054596	0.000118	1.179284	0.399552	-0.000047
1441	1.4328e+02	-17.3402	-24.100626	0.000115	1.148785	0.389219	-0.000046
1442	1.4338e+02	-17.3562	-24.147877	0.000118	1.179284	0.399552	-0.000047
1443	1.4348e+02	-17.4348	-24.188612	0.000102	1.016624	0.344442	-0.000041
1444	1.4358e+02	-17.4524	-24.231790	0.000108	1.077622	0.365108	-0.000043
1445	1.4368e+02	-17.5166	-24.281893	0.000125	1.250448	0.423663	-0.000050
1446	1.4378e+02	-17.5407	-24.329552	0.000119	1.189450	0.402997	-0.000048
1447	1.4388e+02	-17.5792	-24.376397	0.000117	1.169118	0.396108	-0.000047
1448	1.4398e+02	-17.6209	-24.422834	0.000116	1.158951	0.392663	-0.000047
1449	1.4408e+02	-17.6770	-24.465197	0.000106	1.057289	0.358219	-0.000043
1450	1.4418e+02	-17.6963	-24.512856	0.000119	1.189450	0.402997	-0.000048
1451	1.4428e+02	-17.7332	-24.559701	0.000117	1.169118	0.396108	-0.000047
1452	1.4437e+02	-17.7813	-24.598806	0.000098	0.975959	0.330664	-0.000039
1453	1.4447e+02	-17.8166	-24.650131	0.000128	1.280946	0.433996	-0.000052
1454	1.4457e+02	-17.8439	-24.693716	0.000109	1.087788	0.368552	-0.000044
1455	1.4467e+02	-17.8760	-24.737709	0.000110	1.097954	0.371997	-0.000044
1456	1.4477e+02	-17.9401	-24.786591	0.000122	1.219949	0.413330	-0.000049
1457	1.4487e+02	-17.9915	-24.835064	0.000121	1.209783	0.409885	-0.000049
1458	1.4497e+02	-17.9963	-24.879465	0.000111	1.108120	0.375441	-0.000045
1459	1.4507e+02	-18.0588	-24.923050	0.000109	1.087788	0.368552	-0.000044
1460	1.4517e+02	-18.0974	-24.969487	0.000116	1.158951	0.392663	-0.000047
1461	1.4527e+02	-18.1407	-25.015517	0.000115	1.148785	0.389219	-0.000046
1462	1.4537e+02	-18.1808	-25.066435	0.000127	1.270780	0.430552	-0.000051
1463	1.4547e+02	-18.2177	-25.109613	0.000108	1.077622	0.365108	-0.000043
1464	1.4557e+02	-18.2770	-25.152792	0.000108	1.077622	0.365108	-0.000043
1465	1.4567e+02	-18.3091	-25.198821	0.000115	1.148785	0.389219	-0.000046
1466	1.4577e+02	-18.3252	-25.244444	0.000114	1.138619	0.385775	-0.000046
1467	1.4587e+02	-18.4246	-25.288437	0.000110	1.097954	0.371997	-0.000044
1468	1.4597e+02	-18.4310	-25.329986	0.000104	1.036957	0.351330	-0.000042
1469	1.4607e+02	-18.4695	-25.377237	0.000118	1.179284	0.399552	-0.000047
1470	1.4617e+02	-18.5112	-25.423267	0.000115	1.148785	0.389219	-0.000046
1471	1.4626e+02	-18.5257	-25.464816	0.000104	1.036957	0.351330	-0.000042
1472	1.4636e+02	-18.5834	-25.507587	0.000107	1.067455	0.361664	-0.000043
1473	1.4646e+02	-18.6187	-25.553209	0.000114	1.138619	0.385775	-0.000046
1474	1.4656e+02	-18.6524	-25.598832	0.000114	1.138619	0.385775	-0.000046
1475	1.4666e+02	-18.6717	-25.642417	0.000109	1.087788	0.368552	-0.000044
1476	1.4676e+02	-18.7551	-25.686818	0.000111	1.108120	0.375441	-0.000045
1477	1.4686e+02	-18.7920	-25.734477	0.000119	1.189450	0.402997	-0.000048
1478	1.4696e+02	-18.8353	-25.778877	0.000111	1.108120	0.375441	-0.000045
1479	1.4706e+02	-18.8417	-25.823685	0.000112	1.118287	0.378886	-0.000045
1480	1.4716e+02	-18.9027	-25.868085	0.000111	1.108120	0.375441	-0.000045
1481	1.4726e+02	-18.9444	-25.912893	0.000112	1.118287	0.378886	-0.000045
1482	1.4736e+02	-18.9845	-25.958515	0.000114	1.138619	0.385775	-0.000046
1483	1.4746e+02	-19.0118	-25.999657	0.000103	1.026790	0.347886	-0.000041
1484	1.4756e+02	-19.0551	-26.047723	0.000120	1.199616	0.406441	-0.000048
1485	1.4766e+02	-19.0936	-26.094568	0.000117	1.169118	0.396108	-0.000047
1486	1.4776e+02	-19.1305	-26.138561	0.000110	1.097954	0.371997	-0.000044
1487	1.4786e+02	-19.1802	-26.189478	0.000127	1.270780	0.430552	-0.000051
1488	1.4796e+02	-19.2203	-26.232657	0.000108	1.077622	0.365108	-0.000043
1489	1.4806e+02	-19.2460	-26.279908	0.000118	1.179284	0.399552	-0.000047
1490	1.4816e+02	-19.2845	-26.331641	0.000129	1.291113	0.437441	-0.000052
1491	1.4825e+02	-19.3358	-26.371153	0.000099	0.986125	0.334108	-0.000040
1492	1.4835e+02	-19.3679	-26.417183	0.000115	1.148785	0.389219	-0.000046
1493	1.4845e+02	-19.4305	-26.464027	0.000117	1.169118	0.396108	-0.000047
1494	1.4855e+02	-19.4417	-26.506391	0.000106	1.057289	0.358219	-0.000043
1495	1.4865e+02	-19.4914	-26.553643	0.000118	1.179284	0.399552	-0.000047
1496	1.4875e+02	-19.5219	-26.600487	0.000117	1.169118	0.396108	-0.000047
1497	1.4885e+02	-19.5989	-26.646924	0.000116	1.158951	0.392663	-0.000047
1498	1.4895e+02	-19.6069	-26.689288	0.000106	1.057289	0.358219	-0.000043
1499	1.4905e+02	-19.6631	-26.738576	0.000123	1.230115	0.416774	-0.000050
1500	1.4915e+02	-19.7192	-26.788272	0.000124	1.240281	0.420219	-0.000050
1501	1.4925e+02	-19.7192	-26.838782	0.000126	1.260614	0.427108	-0.000051
1502	1.4935e+02	-19.7706	-26.881961	0.000108	1.077622	0.365108	-0.000043
1503	1.4945e+02	-19.8059	-26.932471	0.000126	1.260614	0.427108	-0.000051
1504	1.4955e+02	-19.8620	-26.975242	0.000107	1.067455	0.361664	-0.000043
1505	1.4965e+02	-19.8877	-27.023716	0.000121	1.209783	0.409885	-0.000049
1506	1.4975e+02	-19.9631	-27.072190	0.000121	1.209783	0.409885	-0.000049
1507	1.4985e+02	-19.9807	-27.119034	0.000117	1.169118	0.396108	-0.000047
1508	1.4995e+02	-19.9053	-27.090927	0.000070	0.701471	0.237665	0.000028
1509	1.5005e+02	-19.8780	-27.063635	0.000068	0.681138	0.230776	0.000027
1510	1.5015e+02	-19.8588	-27.035529	0.000070	0.701471	0.237665	0.000028
1511	1.5025e+02	-19.8219	-27.005385	0.000075	0.752302	0.254887	0.000030
1512	1.5034e+02	-19.7497	-26.980538	0.000062	0.620141	0.210109	0.000025
1513	1.5044e+02	-19.7369	-26.951209	0.000073	0.731969	0.247998	0.000029
1514	1.5054e+02	-19.7048	-26.919844	0.000078	0.782801	0.265220	0.000032
1515	1.5064e+02	-19.6727	-26.886441	0.000083	0.833632	0.282442	0.000034
1516	1.5074e+02	-19.5781	-26.858742	0.000069	0.691304	0.234220	0.000028
1517	1.5084e+02	-19.5829	-26.827784	-0.000077	-0.772634	-0.261776	0.000031
1518	1.5094e+02	-19.5267	-26.800900	0.000067	0.670972	0.227331	0.000027
1519	1.5104e+02	-19.5123	-26.767497	0.000083	0.833632	0.282442	0.000034
1520	1.5114e+02	-19.4642	-26.735725	0.000079	0.792967	0.268664	0.000032
1521	1.5124e+02	-19.4241	-26.705174	0.000076	0.762468	0.258331	0.000031
1522	1.5134e+02	-19.3743	-26.674623	0.000076	0.762468	0.258331	0.000031
1523	1.5144e+02	-19.3519	-26.639185	0.000088	0.884463	0.299664	0.000036
1524	1.5154e+02	-19.2845	-26.607412	0.000079	0.792967	0.268664	0.000032
1525	1.5164e+02	-19.2797	-26.576454	0.000077	0.772634	0.261776	0.000031
1526	1.5174e+02	-19.2043	-26.547532	0.000072	0.721803	0.244554	0.000029
1527	1.5184e+02	-19.1818	-26.511279	0.000090	0.904795	0.306553	0.000036
1528	1.5194e+02	-19.1289	-26.475840	0.000088	0.884463	0.299664	0.000036
1529	1.5204e+02	-19.1016	-26.445697	0.000075	0.752302	0.254887	0.000030
1530	1.5214e+02	-19.0471	-26.413109	0.000081	0.813299	0.275553	0.000033
1531	1.5224e+02	-19.0198	-26.379300	0.000084	0.843798	0.285887	0.000034
1532	1.5233e+02	-18.9668	-26.345083	0.000085	0.853964	0.289331	0.000034
1533	1.5243e+02	-18.9348	-26.307200	0.000095	0.945460	0.320331	0.000038
1534	1.5253e+02	-18.9155	-26.274613	0.000081	0.813299	0.275553	0.000033
1535	1.5263e+02	-18.8594	-26.242026	0.000081	0.813299	0.275553	0.000033
1536	1.5273e+02	-18.8417	-26.203328	0.000097	0.965793	0.327219	0.000039
1537	1.5283e+02	-18.7968	-26.169519	0.000084	0.843798	0.285887	0.000034
1538	1.5293e+02	-18.7294	-26.138968	0.000076	0.762468	0.258331	0.000031
1539	1.5303e+02	-18.7150	-26.103122	0.000089	0.894629	0.303109	0.000036
1540	1.5313e+02	-18.6556	-26.070942	0.000080	0.803133	0.272109	0.000032
1541	1.5323e+02	-18.6187	-26.032651	0.000096	0.955627	0.323775	0.000038
1542	1.5333e+02	-18.5658	-26.001286	0.000078	0.782801	0.265220	0.000032
1543	1.5343e+02	-18.5369	-25.962589	0.000097	0.965793	0.327219	0.000039
1544	1.5353e+02	-18.5016	-25.930001	0.000081	0.813299	0.275553	0.000033
1545	1.5363e+02	-18.4615	-25.896192	0.000084	0.843798	0.285887	0.000034
1546	1.5373e+02	-18.4310	-25.861160	0.000087	0.874297	0.296220	0.000035
1547	1.5383e+02	-18.3925	-25.821241	0.000100	0.996292	0.337553	0.000040
1548	1.5393e+02	-18.3556	-25.790283	0.000077	0.772634	0.261776	0.000031
1549	1.5403e+02	-18.3059	-25.756881	0.000083	0.833632	0.282442	0.000034
1550	1.5413e+02	-18.2578	-25.721849	0.000087	0.874297	0.296220	0.000035
1551	1.5422e+02	-18.2096	-25.684781	0.000093	0.925128	0.313442	0.000037
1552	1.5432e+02	-18.1663	-25.651379	0.000083	0.833632	0.282442	0.000034
1553	1.5442e+02	-18.1246	-25.613496	0.000095	0.945460	0.320331	0.000038
1554	1.5452e+02	-18.1166	-25.582131	0.000078	0.782801	0.265220	0.000032
1555	1.5462e+02	-18.0605	-25.549136	0.000082	0.823466	0.278998	0.000033
1556	1.5472e+02	-18.0091	-25.514104	0.000087	0.874297	0.296220	0.000035
1557	1.5482e+02	-17.9883	-25.483961	0.000075	0.752302	0.254887	0.000030
1558	1.5492e+02	-17.9562	-25.446486	0.000094	0.935294	0.316886	0.000038
1559	1.5502e+02	-17.9048	-25.408195	0.000096	0.955627	0.323775	0.000038
1560	1.5512e+02	-17.8519	-25.369905	0.000096	0.955627	0.323775	0.000038
1561	1.5522e+02	-17.8166	-25.341798	0.000070	0.701471	0.237665	0.000028
1562	1.5532e+02	-17.7701	-25.306360	0.000088	0.884463	0.299664	0.000036
1563	1.5542e+02	-17.7492	-25.269699	0.000091	0.914962	0.309997	0.000037
1564	1.5552e+02	-17.6931	-25.238741	0.000077	0.772634	0.261776	0.000031
1565	1.5562e+02	-17.6337	-25.203709	0.000087	0.874297	0.296220	0.000035
1566	1.5572e+02	-17.6129	-25.167863	0.000089	0.894629	0.303109	0.000036
1567	1.5582e+02	-17.6016	-25.133646	0.000085	0.853964	0.289331	0.000034
1568	1.5592e+02	-17.5295	-25.096986	0.000091	0.914962	0.309997	0.000037
1569	1.5602e+02	-17.4910	-25.058288	0.000097	0.965793	0.327219	0.000039
1570	1.5612e+02	-17.4364	-25.022442	0.000089	0.894629	0.303109	0.000036
1571	1.5622e+02	-17.4204	-24.988225	0.000085	0.853964	0.289331	0.000034
1572	1.5631e+02	-17.3851	-24.952379	0.000089	0.894629	0.303109	0.000036
1573	1.5641e+02	-17.3369	-24.918977	0.000083	0.833632	0.282442	0.000034
1574	1.5651e+02	-17.3000	-24.879872	0.000098	0.975959	0.330664	0.000039
1575	1.5661e+02	-17.2696	-24.840767	0.000098	0.975959	0.330664	0.000039
1576	1.5671e+02	-17.2391	-24.803699	0.000093	0.925128	0.313442	0.000037
1577	1.5681e+02	-17.1974	-24.769482	0.000085	0.853964	0.289331	0.000034
1578	1.5691e+02	-17.1428	-24.734451	0.000087	0.874297	0.296220	0.000035
1579	1.5701e+02	-17.1220	-24.696568	0.000095	0.945460	0.320331	0.000038
1580	1.5711e+02	-17.0690	-24.661129	0.000088	0.884463	0.299664	0.000036
1581	1.5721e+02	-17.0193	-24.624876	0.000090	0.904795	0.306553	0.000036
1582	1.5731e+02	-16.9840	-24.586993	0.000095	0.945460	0.320331	0.000038
1583	1.5741e+02	-16.9519	-24.551147	0.000089	0.894629	0.303109	0.000036
1584	1.5751e+02	-16.8926	-24.510412	0.000102	1.016624	0.344442	0.000041
1585	1.5761e+02	-16.8733	-24.473752	0.000091	0.914962	0.309997	0.000037
1586	1.5771e+02	-16.8172	-24.436683	0.000093	0.925128	0.313442	0.000037
1587	1.5781e+02	-16.7931	-24.406133	0.000076	0.762468	0.258331	0.000031
1588	1.5791e+02	-16.7305	-24.362954	0.000108	1.077622	0.365108	0.000043
1589	1.5801e+02	-16.6856	-24.327516	0.000088	0.884463	0.299664	0.000036
1590	1.5811e+02	-16.6696	-24.290040	0.000094	0.935294	0.316886	0.000038
1591	1.5821e+02	-16.6359	-24.251342	0.000097	0.965793	0.327219	0.000039
1592	1.5830e+02	-16.5765	-24.215904	0.000088	0.884463	0.299664	0.000036
1593	1.5840e+02	-16.5509	-24.173947	0.000105	1.047123	0.354775	0.000042
1594	1.5850e+02	-16.5092	-24.137287	0.000091	0.914962	0.309997	0.000037
1595	1.5860e+02	-16.4594	-24.096145	0.000103	1.026790	0.347886	0.000041
1596	1.5870e+02	-16.4370	-24.061928	0.000085	0.853964	0.289331	0.000034
1597	1.5880e+02	-16.3792	-24.014676	0.000118	1.179284	0.399552	0.000047
1598	1.5890e+02	-16.3407	-23.974757	0.000100	0.996292	0.337553	0.000040
1599	1.5900e+02	-16.3118	-23.937689	0.000093	0.925128	0.313442	0.000037
1600	1.5910e+02	-16.2525	-23.894103	0.000109	1.087788	0.368552	0.000044
1601	1.5920e+02	-16.2124	-23.857035	0.000093	0.925128	0.313442	0.000037
1602	1.5930e+02	-16.2060	-23.820374	0.000091	0.914962	0.309997	0.000037
1603	1.5940e+02	-16.1546	-23.778825	0.000104	1.036957	0.351330	0.000042
1604	1.5950e+02	-16.0937	-23.734425	0.000111	1.108120	0.375441	0.000045
1605	1.5960e+02	-16.0648	-23.692061	0.000106	1.057289	0.358219	0.000043
1606	1.5970e+02	-15.9910	-23.650105	0.000105	1.047123	0.354775	0.000042
1607	1.5980e+02	-15.9878	-23.610593	0.000099	0.986125	0.334108	0.000040
1608	1.5990e+02	-15.9701	-23.566600	0.000110	1.097954	0.371997	0.000044
1609	1.6000e+02	-15.9124	-23.523829	0.000107	1.067455	0.361664	0.000043
1610	1.6010e+02	-15.8594	-23.487168	0.000091	0.914962	0.309997	0.000037
1611	1.6019e+02	-15.8274	-23.440731	0.000116	1.158951	0.392663	0.000047
1612	1.6029e+02	-15.7824	-23.398367	0.000106	1.057289	0.358219	0.000043
1613	1.6039e+02	-15.7696	-23.353967	0.000111	1.108120	0.375441	0.000045
1614	1.6049e+02	-15.7311	-23.318121	0.000089	0.894629	0.303109	0.000036
1615	1.6059e+02	-15.6734	-23.277794	0.000101	1.006458	0.340997	0.000041
1616	1.6069e+02	-15.6300	-23.235430	0.000106	1.057289	0.358219	0.000043
1617	1.6079e+02	-15.5867	-23.191030	0.000111	1.108120	0.375441	0.000045
1618	1.6089e+02	-15.5450	-23.143778	0.000118	1.179284	0.399552	0.000047
1619	1.6099e+02	-15.5258	-23.104673	0.000098	0.975959	0.330664	0.000039
1620	1.6109e+02	-15.4857	-23.061902	0.000107	1.067455	0.361664	0.000043
1621	1.6119e+02	-15.4343	-23.020761	0.000103	1.026790	0.347886	0.000041
1622	1.6129e+02	-15.4022	-22.980026	0.000102	1.016624	0.344442	0.000041
1623	1.6139e+02	-15.3397	-22.936441	0.000109	1.087788	0.368552	0.000044
1624	1.6149e+02	-15.3044	-22.891633	0.000112	1.118287	0.378886	0.000045
1625	1.6159e+02	-15.2627	-22.849269	0.000106	1.057289	0.358219	0.000043
1626	1.6169e+02	-15.2290	-22.807720	0.000104	1.036957	0.351330	0.000042
1627	1.6179e+02	-15.2097	-22.760876	0.000117	1.169118	0.396108	0.000047
1628	1.6189e+02	-15.1552	-22.719734	0.000103	1.026790	0.347886	0.000041
1629	1.6199e+02	-15.0846	-22.674927	0.000112	1.118287	0.378886	0.000045
1630	1.6209e+02	-15.0894	-22.629712	-0.000113	-1.128453	-0.382330	0.000045
1631	1.6219e+02	-15.0285	-22.590607	0.000098	0.975959	0.330664	0.000039
1632	1.6228e+02	-14.9723	-22.546614	0.000110	1.097954	0.371997	0.000044
1633	1.6238e+02	-14.9386	-22.503436	0.000108	1.077622	0.365108	0.000043
1634	1.6248e+02	-14.9097	-22.456184	0.000118	1.179284	0.399552	0.000047
1635	1.6258e+02	-14.8568	-22.408932	0.000118	1.179284	0.399552	0.000047
1636	1.6268e+02	-14.8327	-22.370642	0.000096	0.955627	0.323775	0.000038
1637	1.6278e+02	-14.8055	-22.321761	0.000122	1.219949	0.413330	0.000049
1638	1.6288e+02	-14.7766	-22.276138	0.000114	1.138619	0.385775	0.000046
1639	1.6298e+02	-14.7188	-22.232553	0.000109	1.087788	0.368552	0.000044
1640	1.6308e+02	-14.6547	-22.186116	0.000116	1.158951	0.392663	0.000047
1641	1.6318e+02	-14.6290	-22.137235	0.000122	1.219949	0.413330	0.000049
1642	1.6328e+02	-14.6001	-22.091612	0.000114	1.138619	0.385775	0.000046
1643	1.6338e+02	-14.5488	-22.048841	0.000107	1.067455	0.361664	0.000043
1644	1.6348e+02	-14.5231	-22.001590	0.000118	1.179284	0.399552	0.000047
1645	1.6358e+02	-14.4830	-21.955153	0.000116	1.158951	0.392663	0.000047
1646	1.6368e+02	-14.4381	-21.914418	0.000102	1.016624	0.344442	0.000041
1647	1.6378e+02	-14.3787	-21.866759	0.000119	1.189450	0.402997	0.000048
1648	1.6388e+02	-14.3643	-21.813805	0.000132	1.321611	0.447774	0.000053
1649	1.6398e+02	-14.3082	-21.769404	0.000111	1.108120	0.375441	0.000045
1650	1.6408e+02	-14.2600	-21.727448	0.000105	1.047123	0.354775	0.000042
1651	1.6418e+02	-14.2456	-21.681011	0.000116	1.158951	0.392663	0.000047
1652	1.6427e+02	-14.1910	-21.633352	0.000119	1.189450	0.402997	0.000048
1653	1.6437e+02	-14.1846	-21.589359	0.000110	1.097954	0.371997	0.000044
1654	1.6447e+02	-14.1269	-21.542922	0.000116	1.158951	0.392663	0.000047
1655	1.6457e+02	-14.0836	-21.500966	0.000105	1.047123	0.354775	0.000042
1656	1.6467e+02	-14.0515	-21.449233	0.000129	1.291113	0.437441	0.000052
1657	1.6477e+02	-13.9745	-21.408091	0.000103	1.026790	0.347886	0.000041
1658	1.6487e+02	-13.9697	-21.362876	0.000113	1.128453	0.382330	0.000045
1659	1.6497e+02	-13.9344	-21.316847	0.000115	1.148785	0.389219	0.000046
1660	1.6507e+02	-13.8782	-21.269595	0.000118	1.179284	0.399552	0.000047
1661	1.6517e+02	-13.8221	-21.220714	0.000122	1.219949	0.413330	0.000049
1662	1.6527e+02	-13.7980	-21.175092	0.000114	1.138619	0.385775	0.000046
1663	1.6537e+02	-13.7675	-21.129062	0.000115	1.148785	0.389219	0.000046
1664	1.6547e+02	-13.7114	-21.082625	0.000116	1.158951	0.392663	0.000047
1665	1.6557e+02	-13.6793	-21.038632	0.000110	1.097954	0.371997	0.000044
1666	1.6567e+02	-13.6440	-20.991787	0.000117	1.169118	0.396108	0.000047
1667	1.6577e+02	-13.5895	-20.944536	0.000118	1.179284	0.399552	0.000047
1668	1.6587e+02	-13.5510	-20.900135	0.000111	1.108120	0.375441	0.000045
1669	1.6597e+02	-13.5125	-20.853698	0.000116	1.158951	0.392663	0.000047
1670	1.6607e+02	-13.4707	-20.804817	0.000122	1.219949	0.413330	0.000049
1671	1.6616e+02	-13.4242	-20.764083	0.000102	1.016624	0.344442	0.000041
1672	1.6626e+02	-13.3953	-20.715202	0.000122	1.219949	0.413330	0.000049
1673	1.6636e+02	-13.3568	-20.665099	0.000125	1.250448	0.423663	0.000050
1674	1.6646e+02	-13.3232	-20.616625	0.000121	1.209783	0.409885	0.000049
1675	1.6656e+02	-13.2879	-20.574669	0.000105	1.047123	0.354775	0.000042
1676	1.6666e+02	-13.2381	-20.526602	0.000120	1.199616	0.406441	0.000048
1677	1.6676e+02	-13.2173	-20.480165	0.000116	1.158951	0.392663	0.000047
1678	1.6686e+02	-13.1306	-20.435357	0.000112	1.118287	0.378886	0.000045
1679	1.6696e+02	-13.1226	-20.394623	0.000102	1.016624	0.344442	0.000041
1680	1.6706e+02	-13.0857	-20.344113	0.000126	1.260614	0.427108	0.000051
1681	1.6716e+02	-13.0665	-20.302156	0.000105	1.047123	0.354775	0.000042
1682	1.6726e+02	-13.0071	-20.261830	0.000101	1.006458	0.340997	0.000041
1683	1.6736e+02	-12.9638	-20.211726	0.000125	1.250448	0.423663	0.000050
1684	1.6746e+02	-12.9125	-20.166919	0.000112	1.118287	0.378886	0.000045
1685	1.6756e+02	-12.8788	-20.123740	0.000108	1.077622	0.365108	0.000043
1686	1.6766e+02	-12.8467	-20.081377	0.000106	1.057289	0.358219	0.000043
1687	1.6776e+02	-12.7905	-20.031681	0.000124	1.240281	0.420219	0.000050
1688	1.6786e+02	-12.7585	-19.990947	0.000102	1.016624	0.344442	0.000041
1689	1.6796e+02	-12.7280	-19.946954	0.000110	1.097954	0.371997	0.000044
1690	1.6806e+02	-12.6718	-19.902961	0.000110	1.097954	0.371997	0.000044
1691	1.6816e+02	-12.6333	-19.862226	0.000102	1.016624	0.344442	0.000041
1692	1.6825e+02	-12.5932	-19.817826	0.000111	1.108120	0.375441	0.000045
1693	1.6835e+02	-12.5467	-19.770982	0.000117	1.169118	0.396108	0.000047
1694	1.6845e+02	-12.5467	-19.724545	-0.000116	-1.158951	-0.392663	0.000047
1695	1.6855e+02	-12.4793	-19.680144	0.000111	1.108120	0.375441	0.000045
1696	1.6865e+02	-12.4232	-19.638595	0.000104	1.036957	0.351330	0.000042
1697	1.6875e+02	-12.3863	-19.596232	0.000106	1.057289	0.358219	0.000043
1698	1.6885e+02	-12.3574	-19.552239	0.000110	1.097954	0.371997	0.000044
1699	1.6895e+02	-12.3430	-19.500099	0.000130	1.301279	0.440885	0.000052
1700	1.6905e+02	-12.2692	-19.457735	0.000106	1.057289	0.358219	0.000043
1701	1.6915e+02	-12.2226	-19.414557	0.000108	1.077622	0.365108	0.000043
1702	1.6925e+02	-12.2066	-19.366083	0.000121	1.209783	0.409885	0.000049
1703	1.6935e+02	-12.1649	-19.324942	0.000103	1.026790	0.347886	0.000041
1704	1.6945e+02	-12.1184	-19.282171	0.000107	1.067455	0.361664	0.000043
1705	1.6955e+02	-12.0751	-19.233290	0.000122	1.219949	0.413330	0.000049
1706	1.6965e+02	-12.0334	-19.188889	0.000111	1.108120	0.375441	0.000045
1707	1.6975e+02	-12.0205	-19.147748	0.000103	1.026790	0.347886	0.000041
1708	1.6985e+02	-11.9724	-19.097237	0.000126	1.260614	0.427108	0.000051
1709	1.6995e+02	-11.9355	-19.051615	0.000114	1.138619	0.385775	0.000046
1710	1.7005e+02	-11.8874	-19.011695	0.000100	0.996292	0.337553	0.000040
1711	1.7015e+02	-11.8601	-18.967295	0.000111	1.108120	0.375441	0.000045
1712	1.7024e+02	-11.8168	-18.917599	0.000124	1.240281	0.420219	0.000050
1713	1.7034e+02	-11.7943	-18.871977	0.000114	1.138619	0.385775	0.000046
1714	1.7044e+02	-11.7430	-18.829613	0.000106	1.057289	0.358219	0.000043
1715	1.7054e+02	-11.6756	-18.786435	0.000108	1.077622	0.365108	0.000043
1716	1.7064e+02	-11.6628	-18.739998	0.000116	1.158951	0.392663	0.000047
1717	1.7074e+02	-11.6002	-18.695597	0.000111	1.108120	0.375441	0.000045
1718	1.7084e+02	-11.5489	-18.652012	0.000109	1.087788	0.368552	0.000044
1719	1.7094e+02	-11.5312	-18.606389	0.000114	1.138619	0.385775	0.000046
1720	1.7104e+02	-11.4911	-18.565248	0.000103	1.026790	0.347886	0.000041
1721	1.7114e+02	-11.4253	-18.521662	0.000109	1.087788	0.368552	0.000044
1722	1.7124e+02	-11.3981	-18.474003	0.000119	1.189450	0.402997	0.000048
1723	1.7134e+02	-11.3949	-18.434491	0.000099	0.986125	0.334108	0.000040
1724	1.7144e+02	-11.3371	-18.388868	0.000114	1.138619	0.385775	0.000046
1725	1.7154e+02	-11.2842	-18.349356	0.000099	0.986125	0.334108	0.000040
1726	1.7164e+02	-11.2569	-18.302105	0.000118	1.179284	0.399552	0.000047
1727	1.7174e+02	-11.2120	-18.260963	0.000103	1.026790	0.347886	0.000041
1728	1.7184e+02	-11.1671	-18.215748	0.000113	1.128453	0.382330	0.000045
1729	1.7194e+02	-11.1318	-18.170126	0.000114	1.138619	0.385775	0.000046
1730	1.7204e+02	-11.1093	-18.124910	0.000113	1.128453	0.382330	0.000045
1731	1.7213e+02	-11.0435	-18.084584	0.000101	1.006458	0.340997	0.000041
1732	1.7223e+02	-11.0131	-18.038147	0.000116	1.158951	0.392663	0.000047
1733	1.7233e+02	-10.9778	-17.997412	0.000102	1.016624	0.344442	0.000041
1734	1.7243e+02	-10.9264	-17.947309	0.000125	1.250448	0.423663	0.000050
1735	1.7253e+02	-10.8927	-17.902501	0.000112	1.118287	0.378886	0.000045
1736	1.7263e+02	-10.8574	-17.859323	0.000108	1.077622	0.365108	0.000043
1737	1.7273e+02	-10.8189	-17.811664	0.000119	1.189450	0.402997	0.000048
1738	1.7283e+02	-10.7756	-17.770522	0.000103	1.026790	0.347886	0.000041
1739	1.7293e+02	-10.7163	-17.722456	0.000120	1.199616	0.406441	0.000048
1740	1.7303e+02	-10.7163	-17.672353	-0.000125	-1.250448	-0.423663	0.000050
1741	1.7313e+02	-10.6553	-17.632433	0.000100	0.996292	0.337553	0.000040
1742	1.7323e+02	-10.5863	-17.586404	0.000115	1.148785	0.389219	0.000046
1743	1.7333e+02	-10.5703	-17.540781	0.000114	1.138619	0.385775	0.000046
1744	1.7343e+02	-10.5270	-17.495974	0.000112	1.118287	0.378886	0.000045
1745	1.7353e+02	-10.5093	-17.449537	0.000116	1.158951	0.392663	0.000047
1746	1.7363e+02	-10.4580	-17.407173	0.000106	1.057289	0.358219	0.000043
1747	1.7373e+02	-10.3970	-17.362365	0.000112	1.118287	0.378886	0.000045
1748	1.7383e+02	-10.3698	-17.314706	0.000119	1.189450	0.402997	0.000048
1749	1.7393e+02	-10.3345	-17.268269	0.000116	1.158951	0.392663	0.000047
1750	1.7403e+02	-10.3072	-17.221425	0.000117	1.169118	0.396108	0.000047
1751	1.7413e+02	-10.2559	-17.172951	0.000121	1.209783	0.409885	0.000049
1752	1.7422e+02	-10.2109	-17.129365	0.000109	1.087788	0.368552	0.000044
1753	1.7432e+02	-10.1773	-17.080484	0.000122	1.219949	0.413330	0.000049
1754	1.7442e+02	-10.1355	-17.036084	0.000111	1.108120	0.375441	0.000045
1755	1.7452e+02	-10.0890	-16.986795	0.000123	1.230115	0.416774	0.000050
1756	1.7462e+02	-10.0489	-16.943617	0.000108	1.077622	0.365108	0.000043
1757	1.7472e+02	-10.0120	-16.895551	0.000120	1.199616	0.406441	0.000048
1758	1.7482e+02	-9.9703	-16.853594	0.000105	1.047123	0.354775	0.000042
1759	1.7492e+02	-9.9286	-16.803491	0.000125	1.250448	0.423663	0.000050
1760	1.7502e+02	-9.8933	-16.752573	0.000127	1.270780	0.430552	0.000051
1761	1.7512e+02	-9.8564	-16.703285	0.000123	1.230115	0.416774	0.000050
1762	1.7522e+02	-9.8195	-16.659292	0.000110	1.097954	0.371997	0.000044
1763	1.7532e+02	-9.7634	-16.607967	0.000128	1.280946	0.433996	0.000052
1764	1.7542e+02	-9.7265	-16.564381	0.000109	1.087788	0.368552	0.000044
1765	1.7552e+02	-9.7056	-16.510612	0.000134	1.341944	0.454663	0.000054
1766	1.7562e+02	-9.6639	-16.461324	0.000123	1.230115	0.416774	0.000050
1767	1.7572e+02	-9.6094	-16.411628	0.000124	1.240281	0.420219	0.000050
1768	1.7582e+02	-9.5869	-16.365598	0.000115	1.148785	0.389219	0.000046
1769	1.7592e+02	-9.5147	-16.313458	0.000130	1.301279	0.440885	0.000052
1770	1.7602e+02	-9.4906	-16.266614	0.000117	1.169118	0.396108	0.000047
1771	1.7612e+02	-9.4473	-16.211623	0.000137	1.372443	0.464996	0.000055
1772	1.7621e+02	-9.4185	-16.163963	0.000119	1.189450	0.402997	0.000048
1773	1.7631e+02	-9.3527	-16.109787	0.000135	1.352110	0.458107	0.000054
1774	1.7641e+02	-9.3318	-16.059276	0.000126	1.260614	0.427108	0.000051
1775	1.7651e+02	-9.3013	-16.011210	0.000120	1.199616	0.406441	0.000048
1776	1.7661e+02	-9.2660	-15.959885	0.000128	1.280946	0.433996	0.000052
1777	1.7671e+02	-9.2275	-15.911411	0.000121	1.209783	0.409885	0.000049
1778	1.7681e+02	-9.1666	-15.858864	0.000131	1.311445	0.444330	0.000053
1779	1.7691e+02	-9.1185	-15.806724	0.000130	1.301279	0.440885	0.000052
1780	1.7701e+02	-9.0832	-15.756214	0.000126	1.260614	0.427108	0.000051
1781	1.7711e+02	-9.0399	-15.707740	0.000121	1.209783	0.409885	0.000049
1782	1.7721e+02	-9.0222	-15.653563	0.000135	1.352110	0.458107	0.000054
1783	1.7731e+02	-8.9773	-15.602238	0.000128	1.280946	0.433996	0.000052
1784	1.7741e+02	-8.9468	-15.551728	0.000126	1.260614	0.427108	0.000051
1785	1.7751e+02	-8.8891	-15.501217	0.000126	1.260614	0.427108	0.000051
1786	1.7761e+02	-8.8586	-15.449077	0.000130	1.301279	0.440885	0.000052
1787	1.7771e+02	-8.7960	-15.394901	0.000135	1.352110	0.458107	0.000054
1788	1.7781e+02	-8.7703	-15.342354	0.000131	1.311445	0.444330	0.000053
1789	1.7791e+02	-8.7399	-15.288177	0.000135	1.352110	0.458107	0.000054
1790	1.7801e+02	-8.7286	-15.240111	0.000120	1.199616	0.406441	0.000048
1791	1.7810e+02	-8.6596	-15.185934	0.000135	1.352110	0.458107	0.000054
1792	1.7820e+02	-8.6436	-15.132572	0.000133	1.331778	0.451218	0.000054
1793	1.7830e+02	-8.5666	-15.083691	0.000122	1.219949	0.413330	0.000049
1794	1.7840e+02	-8.5377	-15.028292	0.000138	1.382609	0.468441	0.000056
1795	1.7850e+02	-8.5137	-14.975338	0.000132	1.321611	0.447774	0.000053
1796	1.7860e+02	-8.4720	-14.926457	0.000122	1.219949	0.413330	0.000049
1797	1.7870e+02	-8.4286	-14.867392	0.000147	1.474105	0.499440	0.000059
1798	1.7880e+02	-8.3966	-14.822992	0.000111	1.108120	0.375441	0.000045
1799	1.7890e+02	-8.3725	-14.763927	0.000147	1.474105	0.499440	0.000059
1800	1.7900e+02	-8.3019	-14.708529	0.000138	1.382609	0.468441	0.000056
1801	1.7910e+02	-8.2474	-14.652315	0.000140	1.402941	0.475329	0.000056
1802	1.7920e+02	-8.2249	-14.601397	0.000127	1.270780	0.430552	0.000051
1803	1.7930e+02	-8.1928	-14.549665	0.000129	1.291113	0.437441	0.000052
1804	1.7940e+02	-8.1383	-14.493044	0.000141	1.413108	0.478774	0.000057
1805	1.7950e+02	-8.1110	-14.436016	0.000142	1.423274	0.482218	0.000057
1806	1.7960e+02	-8.0677	-14.378581	0.000143	1.433440	0.485663	0.000058
1807	1.7970e+02	-8.0228	-14.328478	0.000125	1.250448	0.423663	0.000050
1808	1.7980e+02	-7.9939	-14.273079	0.000138	1.382609	0.468441	0.000056
1809	1.7990e+02	-7.9297	-14.218088	0.000137	1.372443	0.464996	0.000055
1810	1.8000e+02	-7.9041	-14.157394	0.000151	1.514770	0.513218	0.000061
1811	1.8009e+02	-7.8591	-14.101588	0.000139	1.392775	0.471885	0.000056
1812	1.8019e+02	-7.8351	-14.049041	0.000131	1.311445	0.444330	0.000053
1813	1.8029e+02	-7.7821	-13.991606	0.000143	1.433440	0.485663	0.000058
1814	1.8039e+02	-7.7276	-13.934578	0.000142	1.423274	0.482218	0.000057
1815	1.8049e+02	-7.6827	-13.880808	0.000134	1.341944	0.454663	0.000054
1816	1.8059e+02	-7.6329	-13.826632	0.000135	1.352110	0.458107	0.000054
1817	1.8069e+02	-7.6185	-13.775714	0.000127	1.270780	0.430552	0.000051
1818	1.8079e+02	-7.5784	-13.717057	0.000146	1.463939	0.495996	0.000059
1819	1.8089e+02	-7.5479	-13.659621	0.000143	1.433440	0.485663	0.000058
1820	1.8099e+02	-7.5110	-13.600557	0.000147	1.474105	0.499440	0.000059
1821	1.8109e+02	-7.4581	-13.550861	0.000124	1.240281	0.420219	0.000050
1822	1.8119e+02	-7.4260	-13.490574	0.000150	1.504604	0.509774	0.000061
1823	1.8129e+02	-7.3955	-13.437620	0.000132	1.321611	0.447774	0.000053
1824	1.8139e+02	-7.3394	-13.380184	0.000143	1.433440	0.485663	0.000058
1825	1.8149e+02	-7.3073	-13.326415	0.000134	1.341944	0.454663	0.000054
1826	1.8159e+02	-7.2640	-13.271017	0.000138	1.382609	0.468441	0.000056
1827	1.8169e+02	-7.2447	-13.216025	0.000137	1.372443	0.464996	0.000055
1828	1.8179e+02	-7.1918	-13.155739	0.000150	1.504604	0.509774	0.000061
1829	1.8189e+02	-7.1597	-13.103192	0.000131	1.311445	0.444330	0.000053
1830	1.8199e+02	-7.1051	-13.043720	0.000148	1.484271	0.502885	0.000060
1831	1.8209e+02	-7.0538	-12.987914	0.000139	1.392775	0.471885	0.000056
1832	1.8218e+02	-7.0330	-12.931293	0.000141	1.413108	0.478774	0.000057
1833	1.8228e+02	-6.9977	-12.876302	0.000137	1.372443	0.464996	0.000055
1834	1.8238e+02	-6.9431	-12.817644	0.000146	1.463939	0.495996	0.000059
1835	1.8248e+02	-6.8950	-12.764283	0.000133	1.331778	0.451218	0.000054
1836	1.8258e+02	-6.8661	-12.706033	0.000145	1.453772	0.492551	0.000059
1837	1.8268e+02	-6.8308	-12.646968	0.000147	1.474105	0.499440	0.000059
1838	1.8278e+02	-6.7907	-12.589125	0.000144	1.443606	0.489107	0.000058
1839	1.8288e+02	-6.7506	-12.536985	0.000130	1.301279	0.440885	0.000052
1840	1.8298e+02	-6.7089	-12.480772	0.000140	1.402941	0.475329	0.000056
1841	1.8308e+02	-6.6929	-12.421707	0.000147	1.474105	0.499440	0.000059
1842	1.8318e+02	-6.6303	-12.367531	0.000135	1.352110	0.458107	0.000054
1843	1.8328e+02	-6.5822	-12.308466	0.000147	1.474105	0.499440	0.000059
1844	1.8338e+02	-6.5629	-12.250216	0.000145	1.453772	0.492551	0.000059
1845	1.8348e+02	-6.5356	-12.193596	0.000141	1.413108	0.478774	0.000057
1846	1.8358e+02	-6.4586	-12.140641	0.000132	1.321611	0.447774	0.000053
1847	1.8368e+02	-6.4153	-12.087279	0.000133	1.331778	0.451218	0.000054
1848	1.8378e+02	-6.3800	-12.031881	0.000138	1.382609	0.468441	0.000056
1849	1.8388e+02	-6.3447	-11.979333	0.000131	1.311445	0.444330	0.000053
1850	1.8398e+02	-6.3127	-11.922305	0.000142	1.423274	0.482218	0.000057
1851	1.8407e+02	-6.2693	-11.872202	0.000125	1.250448	0.423663	0.000050
1852	1.8417e+02	-6.2308	-11.816804	0.000138	1.382609	0.468441	0.000056
1853	1.8427e+02	-6.1923	-11.758146	0.000146	1.463939	0.495996	0.000059
1854	1.8437e+02	-6.1586	-11.701526	0.000141	1.413108	0.478774	0.000057
1855	1.8447e+02	-6.1201	-11.646535	0.000137	1.372443	0.464996	0.000055
1856	1.8457e+02	-6.0656	-11.595209	0.000128	1.280946	0.433996	0.000052
1857	1.8467e+02	-6.0319	-11.543884	0.000128	1.280946	0.433996	0.000052
1858	1.8477e+02	-5.9870	-11.483190	0.000151	1.514770	0.513218	0.000061
1859	1.8487e+02	-5.9437	-11.431050	0.000130	1.301279	0.440885	0.000052
1860	1.8497e+02	-5.9084	-11.371986	0.000147	1.474105	0.499440	0.000059
1861	1.8507e+02	-5.8715	-11.323105	0.000122	1.219949	0.413330	0.000049
1862	1.8517e+02	-5.8234	-11.264040	0.000147	1.474105	0.499440	0.000059
1863	1.8527e+02	-5.7897	-11.209863	0.000135	1.352110	0.458107	0.000054
1864	1.8537e+02	-5.7464	-11.150799	0.000147	1.474105	0.499440	0.000059
1865	1.8547e+02	-5.7175	-11.097029	0.000134	1.341944	0.454663	0.000054
1866	1.8557e+02	-5.6918	-11.037965	0.000147	1.474105	0.499440	0.000059
1867	1.8567e+02	-5.6485	-10.982974	0.000137	1.372443	0.464996	0.000055
1868	1.8577e+02	-5.6164	-10.927575	0.000138	1.382609	0.468441	0.000056
1869	1.8587e+02	-5.5603	-10.872176	0.000138	1.382609	0.468441	0.000056
1870	1.8597e+02	-5.5009	-10.820444	0.000129	1.291113	0.437441	0.000052
1871	1.8606e+02	-5.4961	-10.765453	0.000137	1.372443	0.464996	0.000055
1872	1.8616e+02	-5.4223	-10.701092	0.000161	1.606266	0.544218	0.000065
1873	1.8626e+02	-5.3902	-10.648953	0.000130	1.301279	0.440885	0.000052
1874	1.8636e+02	-5.3228	-10.592332	0.000141	1.413108	0.478774	0.000057
1875	1.8646e+02	-5.3004	-10.540600	0.000129	1.291113	0.437441	0.000052
1876	1.8656e+02	-5.2715	-10.481128	0.000148	1.484271	0.502885	0.000060
1877	1.8666e+02	-5.2426	-10.422878	0.000145	1.453772	0.492551	0.000059
1878	1.8676e+02	-5.2073	-10.369108	0.000134	1.341944	0.454663	0.000054
1879	1.8686e+02	-5.1480	-10.312080	0.000142	1.423274	0.482218	0.000057
1880	1.8696e+02	-5.1191	-10.255052	0.000142	1.423274	0.482218	0.000057
1881	1.8706e+02	-5.0742	-10.199654	0.000138	1.382609	0.468441	0.000056
1882	1.8716e+02	-5.0453	-10.141404	0.000145	1.453772	0.492551	0.000059
1883	1.8726e+02	-5.0004	-10.091301	0.000125	1.250448	0.423663	0.000050
1884	1.8736e+02	-4.9587	-10.031014	0.000150	1.504604	0.509774	0.000061
1885	1.8746e+02	-4.9282	-9.975208	0.000139	1.392775	0.471885	0.000056
1886	1.8756e+02	-4.8705	-9.913292	0.000155	1.545269	0.523551	0.000062
1887	1.8766e+02	-4.8336	-9.860337	0.000132	1.321611	0.447774	0.000053
1888	1.8776e+02	-4.7774	-9.805754	0.000136	1.362276	0.461552	0.000055
1889	1.8786e+02	-4.7662	-9.756465	0.000123	1.230115	0.416774	0.000050
1890	1.8796e+02	-4.7309	-9.694956	0.000154	1.535102	0.520107	0.000062
1891	1.8806e+02	-4.6731	-9.642409	0.000131	1.311445	0.444330	0.000053
1892	1.8815e+02	-4.6378	-9.585789	0.000141	1.413108	0.478774	0.000057
1893	1.8825e+02	-4.6106	-9.527946	0.000144	1.443606	0.489107	0.000058
1894	1.8835e+02	-4.5464	-9.471325	0.000141	1.413108	0.478774	0.000057
1895	1.8845e+02	-4.5223	-9.415112	0.000140	1.402941	0.475329	0.000056
1896	1.8855e+02	-4.4614	-9.360936	0.000135	1.352110	0.458107	0.000054
1897	1.8865e+02	-4.4485	-9.303093	0.000144	1.443606	0.489107	0.000058
1898	1.8875e+02	-4.3924	-9.246880	0.000140	1.402941	0.475329	0.000056
1899	1.8885e+02	-4.3555	-9.191888	0.000137	1.372443	0.464996	0.000055
1900	1.8895e+02	-4.3250	-9.138119	0.000134	1.341944	0.454663	0.000054
1901	1.8905e+02	-4.2769	-9.076610	0.000154	1.535102	0.520107	0.000062
1902	1.8915e+02	-4.2496	-9.016324	0.000150	1.504604	0.509774	0.000061
1903	1.8925e+02	-4.2143	-8.964999	0.000128	1.280946	0.433996	0.000052
1904	1.8935e+02	-4.1742	-8.907563	0.000143	1.433440	0.485663	0.000058
1905	1.8945e+02	-4.1181	-8.851757	0.000139	1.392775	0.471885	0.000056
1906	1.8955e+02	-4.0812	-8.793507	0.000145	1.453772	0.492551	0.000059
1907	1.8965e+02	-4.0314	-8.732813	0.000151	1.514770	0.513218	0.000061
1908	1.8975e+02	-3.9994	-8.678637	0.000135	1.352110	0.458107	0.000054
1909	1.8985e+02	-3.9384	-8.614277	0.000161	1.606266	0.544218	0.000065
1910	1.8995e+02	-3.9143	-8.560100	0.000135	1.352110	0.458107	0.000054
1911	1.9004e+02	-3.8790	-8.503072	0.000142	1.423274	0.482218	0.000057
1912	1.9014e+02	-3.8389	-8.437490	0.000164	1.636765	0.554551	0.000066
1913	1.9024e+02	-3.8117	-8.383721	0.000134	1.341944	0.454663	0.000054
1914	1.9034e+02	-3.7587	-8.323027	0.000151	1.514770	0.513218	0.000061
1915	1.9044e+02	-3.7282	-8.269257	0.000134	1.341944	0.454663	0.000054
1916	1.9054e+02	-3.6817	-8.208156	0.000152	1.524936	0.516662	0.000061
1917	1.9064e+02	-3.6609	-8.150313	0.000144	1.443606	0.489107	0.000058
1918	1.9074e+02	-3.6127	-8.090841	0.000148	1.484271	0.502885	0.000060
1919	1.9084e+02	-3.5438	-8.025667	0.000163	1.626599	0.551107	0.000066
1920	1.9094e+02	-3.5004	-7.965380	0.000150	1.504604	0.509774	0.000061
1921	1.9104e+02	-3.4972	-7.909981	0.000138	1.382609	0.468441	0.000056
1922	1.9114e+02	-3.4443	-7.854990	0.000137	1.372443	0.464996	0.000055
1923	1.9124e+02	-3.4106	-7.792259	0.000157	1.565601	0.530440	0.000063
1924	1.9134e+02	-3.3673	-7.733602	0.000146	1.463939	0.495996	0.000059
1925	1.9144e+02	-3.3063	-7.675759	0.000144	1.443606	0.489107	0.000058
1926	1.9154e+02	-3.2742	-7.612621	0.000158	1.575767	0.533884	0.000063
1927	1.9164e+02	-3.2357	-7.553557	0.000147	1.474105	0.499440	0.000059
1928	1.9174e+02	-3.1860	-7.489196	0.000161	1.606266	0.544218	0.000065
1929	1.9184e+02	-3.1587	-7.428502	0.000151	1.514770	0.513218	0.000061
1930	1.9194e+02	-3.1058	-7.366179	0.000156	1.555435	0.526996	0.000063
1931	1.9203e+02	-3.0881	-7.305485	0.000151	1.514770	0.513218	0.000061
1932	1.9213e+02	-3.0368	-7.240310	0.000163	1.626599	0.551107	0.000066
1933	1.9223e+02	-2.9983	-7.177172	0.000158	1.575767	0.533884	0.000063
1934	1.9233e+02	-2.9759	-7.113219	0.000160	1.596100	0.540773	0.000064
1935	1.9243e+02	-2.9293	-7.052933	0.000150	1.504604	0.509774	0.000061
1936	1.9253e+02	-2.8812	-6.990202	0.000157	1.565601	0.530440	0.000063
1937	1.9263e+02	-2.8347	-6.919324	0.000177	1.768926	0.599328	0.000071
1938	1.9273e+02	-2.8010	-6.859852	0.000148	1.484271	0.502885	0.000060
1939	1.9283e+02	-2.7769	-6.796307	0.000159	1.585934	0.537329	0.000064
1940	1.9293e+02	-2.7416	-6.731539	0.000162	1.616432	0.547662	0.000065
1941	1.9303e+02	-2.6775	-6.664735	0.000167	1.667264	0.564884	0.000067
1942	1.9313e+02	-2.6422	-6.601597	0.000158	1.575767	0.533884	0.000063
1943	1.9323e+02	-2.5860	-6.535608	0.000165	1.646931	0.557995	0.000066
1944	1.9333e+02	-2.5748	-6.473284	0.000156	1.555435	0.526996	0.000063
1945	1.9343e+02	-2.5283	-6.403221	0.000175	1.748593	0.592440	0.000070
1946	1.9353e+02	-2.5042	-6.339268	0.000160	1.596100	0.540773	0.000064
1947	1.9363e+02	-2.4529	-6.265539	0.000184	1.840090	0.623439	0.000074
1948	1.9373e+02	-2.4176	-6.210141	0.000138	1.382609	0.468441	0.000056
1949	1.9383e+02	-2.3534	-6.142115	0.000170	1.697762	0.575217	0.000068
1950	1.9393e+02	-2.3390	-6.072459	0.000174	1.738427	0.588995	0.000070
1951	1.9403e+02	-2.2924	-6.013394	0.000147	1.474105	0.499440	0.000059
1952	1.9412e+02	-2.2395	-5.947405	0.000165	1.646931	0.557995	0.000066
1953	1.9422e+02	-2.1946	-5.879379	0.000170	1.697762	0.575217	0.000068
1954	1.9432e+02	-2.1721	-5.809316	0.000175	1.748593	0.592440	0.000070
1955	1.9442e+02	-2.1064	-5.744141	0.000163	1.626599	0.551107	0.000066
1956	1.9452e+02	-2.1048	-5.676522	0.000169	1.687596	0.571773	0.000068
1957	1.9462e+02	-2.0438	-5.609311	0.000168	1.677430	0.568329	0.000068
1958	1.9472e+02	-2.0053	-5.544136	0.000163	1.626599	0.551107	0.000066
1959	1.9482e+02	-1.9540	-5.473258	0.000177	1.768926	0.599328	0.000071
1960	1.9492e+02	-1.9187	-5.408083	0.000163	1.626599	0.551107	0.000066
1961	1.9502e+02	-1.8898	-5.340872	0.000168	1.677430	0.568329	0.000068
1962	1.9512e+02	-1.8577	-5.272438	0.000171	1.707928	0.578662	0.000069
1963	1.9522e+02	-1.8016	-5.204819	0.000169	1.687596	0.571773	0.000068
1964	1.9532e+02	-1.7550	-5.133127	0.000179	1.789258	0.606217	0.000072
1965	1.9542e+02	-1.7197	-5.064286	0.000172	1.718095	0.582106	0.000069
1966	1.9552e+02	-1.6796	-4.997482	0.000167	1.667264	0.564884	0.000067
1967	1.9562e+02	-1.6620	-4.932715	0.000162	1.616432	0.547662	0.000065
1968	1.9572e+02	-1.6074	-4.857356	0.000188	1.880755	0.637217	0.000076
1969	1.9582e+02	-1.5770	-4.792589	0.000162	1.616432	0.547662	0.000065
1970	1.9592e+02	-1.5144	-4.722526	0.000175	1.748593	0.592440	0.000070
1971	1.9601e+02	-1.4919	-4.647167	0.000188	1.880755	0.637217	0.000076
1972	1.9611e+02	-1.4631	-4.580771	0.000166	1.657097	0.561440	0.000067
1973	1.9621e+02	-1.4278	-4.506227	0.000186	1.860422	0.630328	0.000075
1974	1.9631e+02	-1.3764	-4.439830	0.000166	1.657097	0.561440	0.000067
1975	1.9641e+02	-1.3267	-4.365286	0.000186	1.860422	0.630328	0.000075
1976	1.9651e+02	-1.2850	-4.291557	0.000184	1.840090	0.623439	0.000074
1977	1.9661e+02	-1.2449	-4.221087	0.000176	1.758760	0.595884	0.000071
1978	1.9671e+02	-1.2304	-4.150210	0.000177	1.768926	0.599328	0.000071
1979	1.9681e+02	-1.1711	-4.078110	0.000180	1.799425	0.609662	0.000072
1980	1.9691e+02	-1.1567	-4.006010	0.000180	1.799425	0.609662	0.000072
1981	1.9701e+02	-1.0941	-3.934318	0.000179	1.789258	0.606217	0.000072
1982	1.9711e+02	-1.0363	-3.864662	0.000174	1.738427	0.588995	0.000070
1983	1.9721e+02	-1.0091	-3.792563	0.000180	1.799425	0.609662	0.000072
1984	1.9731e+02	-0.9657	-3.720463	0.000180	1.799425	0.609662	0.000072
1985	1.9741e+02	-0.9289	-3.649586	0.000177	1.768926	0.599328	0.000071
1986	1.9751e+02	-0.8968	-3.569339	0.000200	2.002749	0.678550	0.000081
1987	1.9761e+02	-0.8454	-3.497647	0.000179	1.789258	0.606217	0.000072
1988	1.9771e+02	-0.7893	-3.435323	0.000156	1.555435	0.526996	0.000063
1989	1.9781e+02	-0.7813	-3.360372	0.000187	1.870588	0.633772	0.000075
1990	1.9791e+02	-0.7460	-3.285014	0.000188	1.880755	0.637217	0.000076
1991	1.9800e+02	-0.6818	-3.211692	0.000183	1.829923	0.619995	0.000074
1992	1.9810e+02	-0.6561	-3.146925	0.000162	1.616432	0.547662	0.000065
1993	1.9820e+02	-0.6176	-3.069937	0.000192	1.921420	0.650995	0.000077
1994	1.9830e+02	-0.5663	-3.001911	0.000170	1.697762	0.575217	0.000068
1995	1.9840e+02	-0.5470	-2.924109	0.000194	1.941752	0.657883	0.000078
1996	1.9850e+02	-0.5005	-2.852009	0.000180	1.799425	0.609662	0.000072
1997	1.9860e+02	-0.4588	-2.777465	0.000186	1.860422	0.630328	0.000075
1998	1.9870e+02	-0.4187	-2.704958	0.000181	1.809591	0.613106	0.000073
1999	1.9880e+02	-0.3561	-2.633266	0.000179	1.789258	0.606217	0.000072
2000	1.9890e+02	-0.2952	-2.559944	0.000183	1.829923	0.619995	0.000074
2001	1.9900e+02	-0.3208	-2.485808	-0.000185	-1.850256	-0.626884	0.000075
2002	1.9910e+02	-0.2567	-2.418189	0.000169	1.687596	0.571773	0.000068
2003	1.9920e+02	-0.2326	-2.340794	0.000193	1.931586	0.654439	0.000078
2004	1.9930e+02	-0.1733	-2.269916	0.000177	1.768926	0.599328	0.000071
2005	1.9940e+02	-0.1444	-2.197002	0.000182	1.819757	0.616550	0.000073
2006	1.9950e+02	-0.0930	-2.124088	0.000182	1.819757	0.616550	0.000073
2007	1.9960e+02	-0.0738	-2.044249	0.000199	1.992583	0.675105	0.000080
2008	1.9970e+02	-0.0160	-1.972964	0.000178	1.779092	0.602773	0.000072
2009	1.9980e+02	0.0144	-1.900457	0.000178	1.779092	0.602773	0.000073

Center data before PMax,+/-Pr and +/-Vc Calc.

PMax (uC/cm2):	2.71e+01
Pr (uC/cm2):	5.47e-01
-Pr (uC/cm2):	-1.90e+00
PLoss (uC/cm2):	-6.90e-01
Vc:	7.60e-01
-Vc:	-3.17e-01
C (Max-Eff) (nF):	1.35e-01
K (Eff):	4.59e+02
Vert. (+/-Pr) Shift (uC/cm2):	-6.77e-01
Horiz. Shift (+/-Vc):	2.21e-01
Offset (uC/cm2):	1.23e+00

A (Loop Area - uC/cm2·Volts):	1.05e-03



Hysteresis Version: 5.48.1 - Radiant Technologies, Inc., 1999 - 9/12/24

