»»»»»»»»»»»»»»»»»»»»»»»»»»»»»»»»»»»» Hysteresis ««««««««««««««««««««««««««««««««««««
»»»  Executed Version:	5.48.1
»»»  Vision Version:	5.48.4 (R)
»»»  Vision Compiled:	9/18/24
»»»  Driver Version:	5.47.0
»»»  Windows Version:	Windows 8 or 8.1
»»»  Processor Information:	x86 (AMD or Intel) - 32 Processors
»»»  Tester Name:	PMF21124-494 (100V)
»»»  Tester S/N:	PMF21124-494
»»»  Internal Amp Type:	100V RevK 270k
»»»  Internal Amp S/N:	iAB2-596/K     
»»»  Execution Count:	1
»»»»»»»»»»»»»»»»»»»»»»»»»»»»»»»»»»»»»»»»»»««««««««««««««««««««««««««««««««««««««««««

Stored:	6/12/2025 - 15:7:31
Configured:	06/12/25 03:03:03 PM
Executed:	06/12/25 03:07:00 PM

»»»»»»»»»»»»»»»»»»»»»»»»»»»»»»»»»»» Sample Info ««««««««««««««««««««««««««««««««««««
Sample Name:	
Lot Name:	
Wafer Name:	
Die Row/Column:	0/0
Capacitor Number:	0
Sample Area (cm2):	1.00e-04
Sample Thickness (microns):	3.00e-01

Amplifier:	Internal

»»»»»»»»»»»»»»»»»»»»»»»»»»»»»»»»»»» Tester Info «««««««««««««««««««««««««««««««««««
Tester Name:	PMF21124-494 (100V)
Tester Serial Number:	PMF21124-494
Return Signal Amp. Level:	0.19 [Index: 3]

»»»»»»»»»»»»»»»»»»»»»»»»»»»»»»»» Hysteresis Info ««««««««««««««««««««««««««««««««««
Task Name:	Hyst-1570
Volts:	20.00
Field:	666.67 (kV/cm)
DCBias:	0.00
DCField:	0.00 (kV/cm)
Hysteresis Period (ms):	2.00e+02
Preset:	Enabled
Preset Delay (ms):	1.00e+03
Profile:	Standard Bipolar

»»»»»»»»»»»»»»»»»»»»»»»»»»»»»»»»»»»»»» Data «««««««««««««««««««««««««««««««««««««««
Points:	2009

Valid Data

Point	Time (ms)	Drive Voltage	Measured Polarization (uC/cm2)	Capacitance (uF)	Normalized Capacitance (uF/cm2)	Dielectric Constant	Instantaneous Current (mA)
   1	0.0000e+00	-0.0176	15.714551	0.000294	2.939579	0.995956	0.000118
   2	9.9500e-02	0.0064	15.831628	0.000294	2.939579	0.995956	0.000118
   3	1.9900e-01	0.0449	15.968890	0.000345	3.446403	1.167673	0.000138
   4	2.9850e-01	0.0834	16.098079	0.000324	3.243673	1.098986	0.000130
   5	3.9800e-01	0.1283	16.231304	0.000335	3.345038	1.133329	0.000134
   6	4.9750e-01	0.1717	16.380678	0.000375	3.750497	1.270703	0.000150
   7	5.9700e-01	0.2037	16.534089	0.000385	3.851862	1.305046	0.000154
   8	6.9650e-01	0.2535	16.626944	0.000233	2.331390	0.789896	0.000093
   9	7.9600e-01	0.2872	16.796503	0.000426	4.257321	1.442419	0.000170
  10	8.9550e-01	0.3385	16.905506	0.000274	2.736849	0.927270	0.000110
  11	9.9500e-01	0.3545	17.050843	0.000365	3.649132	1.236359	0.000146
  12	1.0945e+00	0.4139	17.232514	0.000456	4.561415	1.545449	0.000183
  13	1.1940e+00	0.4396	17.337479	0.000264	2.635484	0.892926	0.000105
  14	1.2935e+00	0.4813	17.486853	0.000375	3.750497	1.270703	0.000150
  15	1.3930e+00	0.5230	17.575670	0.000223	2.230025	0.755553	0.000089
  16	1.4925e+00	0.5663	17.757342	0.000456	4.561415	1.545449	0.000183
  17	1.5920e+00	0.5984	17.898641	0.000355	3.547767	1.202016	0.000142
  18	1.6915e+00	0.6481	18.019755	0.000304	3.040943	1.030300	0.000122
  19	1.7910e+00	0.6818	18.148944	0.000324	3.243673	1.098986	0.000130
  20	1.8905e+00	0.7139	18.266021	0.000294	2.939579	0.995956	0.000118
  21	1.9900e+00	0.7620	18.455766	0.000476	4.764145	1.614136	0.000191
  22	2.0895e+00	0.8069	18.560732	0.000264	2.635484	0.892926	0.000105
  23	2.1890e+00	0.8454	18.750477	0.000476	4.764145	1.614136	0.000191
  24	2.2885e+00	0.8855	18.875628	0.000314	3.142308	1.064643	0.000126
  25	2.3880e+00	0.9160	19.037114	0.000405	4.054591	1.373733	0.000162
  26	2.4875e+00	0.9609	19.166302	0.000324	3.243673	1.098986	0.000130
  27	2.5870e+00	0.9898	19.291453	0.000314	3.142308	1.064643	0.000126
  28	2.6865e+00	1.0395	19.448901	0.000395	3.953226	1.339389	0.000158
  29	2.7860e+00	1.0813	19.598275	0.000375	3.750497	1.270703	0.000150
  30	2.8855e+00	1.1165	19.711315	0.000284	2.838214	0.961613	0.000114
  31	2.9850e+00	1.1615	19.884912	0.000436	4.358686	1.476763	0.000174
  32	3.0845e+00	1.2016	20.010063	0.000314	3.142308	1.064643	0.000126
  33	3.1840e+00	1.2401	20.151363	0.000355	3.547767	1.202016	0.000142
  34	3.2835e+00	1.2786	20.288626	0.000345	3.446403	1.167673	0.000138
  35	3.3830e+00	1.3235	20.442037	0.000385	3.851862	1.305046	0.000154
  36	3.4825e+00	1.3492	20.587374	0.000365	3.649132	1.236359	0.000146
  37	3.5820e+00	1.4069	20.736748	0.000375	3.750497	1.270703	0.000150
  38	3.6815e+00	1.4390	20.869973	0.000335	3.345038	1.133329	0.000134
  39	3.7810e+00	1.4727	21.003199	0.000335	3.345038	1.133329	0.000134
  40	3.8805e+00	1.5224	21.124313	0.000304	3.040943	1.030300	0.000122
  41	3.9800e+00	1.5593	21.318095	0.000487	4.865509	1.648479	0.000195
  42	4.0795e+00	1.5914	21.435172	0.000294	2.939579	0.995956	0.000118
  43	4.1790e+00	1.6459	21.592620	0.000395	3.953226	1.339389	0.000158
  44	4.2785e+00	1.6780	21.733920	0.000355	3.547767	1.202016	0.000142
  45	4.3780e+00	1.7149	21.879257	0.000365	3.649132	1.236359	0.000146
  46	4.4775e+00	1.7566	22.008445	0.000324	3.243673	1.098986	0.000130
  47	4.5770e+00	1.8096	22.173968	0.000416	4.155956	1.408076	0.000166
  48	4.6765e+00	1.8368	22.311231	0.000345	3.446403	1.167673	0.000138
  49	4.7760e+00	1.8882	22.436382	0.000314	3.142308	1.064643	0.000126
  50	4.8755e+00	1.9122	22.581719	0.000365	3.649132	1.236359	0.000146
  51	4.9750e+00	1.9556	22.759353	0.000446	4.460050	1.511106	0.000179
  52	5.0745e+00	2.0021	22.888541	0.000324	3.243673	1.098986	0.000130
  53	5.1740e+00	2.0358	23.058101	0.000426	4.257321	1.442419	0.000170
  54	5.2735e+00	2.0711	23.191326	0.000335	3.345038	1.133329	0.000134
  55	5.3730e+00	2.1112	23.348775	0.000395	3.953226	1.339389	0.000158
  56	5.4725e+00	2.1561	23.477963	0.000324	3.243673	1.098986	0.000130
  57	5.5720e+00	2.1962	23.599077	0.000304	3.040943	1.030300	0.000122
  58	5.6715e+00	2.2379	23.772674	0.000436	4.358686	1.476763	0.000174
  59	5.7710e+00	2.2764	23.922048	0.000375	3.750497	1.270703	0.000150
  60	5.8705e+00	2.3133	24.035088	0.000284	2.838214	0.961613	0.000114
  61	5.9700e+00	2.3614	24.228870	0.000487	4.865509	1.648479	0.000195
  62	6.0695e+00	2.4063	24.329799	0.000253	2.534120	0.858583	0.000101
  63	6.1690e+00	2.4352	24.503395	0.000436	4.358686	1.476763	0.000174
  64	6.2685e+00	2.4721	24.636621	0.000335	3.345038	1.133329	0.000134
  65	6.3680e+00	2.5219	24.794069	0.000395	3.953226	1.339389	0.000158
  66	6.4675e+00	2.5539	24.882886	0.000223	2.230025	0.755553	0.000089
  67	6.5670e+00	2.5973	25.092817	0.000527	5.270969	1.785853	0.000211
  68	6.6665e+00	2.6374	25.169523	0.000193	1.925931	0.652523	0.000077
  69	6.7660e+00	2.6791	25.339082	0.000426	4.257321	1.442419	0.000170
  70	6.8655e+00	2.7224	25.536902	0.000497	4.966874	1.682823	0.000199
  71	6.9650e+00	2.7464	25.621682	0.000213	2.128660	0.721210	0.000085
  72	7.0645e+00	2.8010	25.779130	0.000395	3.953226	1.339389	0.000158
  73	7.1640e+00	2.8283	25.924467	0.000365	3.649132	1.236359	0.000146
  74	7.2635e+00	2.8780	26.089990	0.000416	4.155956	1.408076	0.000166
  75	7.3630e+00	2.9149	26.227252	0.000345	3.446403	1.167673	0.000138
  76	7.4625e+00	2.9534	26.360478	0.000335	3.345038	1.133329	0.000134
  77	7.5620e+00	2.9903	26.497740	0.000345	3.446403	1.167673	0.000138
  78	7.6615e+00	3.0400	26.622892	0.000314	3.142308	1.064643	0.000126
  79	7.7610e+00	3.0785	26.804563	0.000456	4.561415	1.545449	0.000183
  80	7.8605e+00	3.1218	26.970085	0.000416	4.155956	1.408076	0.000166
  81	7.9600e+00	3.1475	27.066977	0.000243	2.432755	0.824240	0.000097
  82	8.0595e+00	3.1956	27.244611	0.000446	4.460050	1.511106	0.000179
  83	8.1590e+00	3.2470	27.418207	0.000436	4.358686	1.476763	0.000174
  84	8.2585e+00	3.2710	27.527210	0.000274	2.736849	0.927270	0.000110
  85	8.3580e+00	3.3176	27.684658	0.000395	3.953226	1.339389	0.000158
  86	8.4575e+00	3.3561	27.817884	0.000335	3.345038	1.133329	0.000134
  87	8.5570e+00	3.3978	27.983406	0.000416	4.155956	1.408076	0.000166
  88	8.6565e+00	3.4282	28.108558	0.000314	3.142308	1.064643	0.000126
  89	8.7560e+00	3.4780	28.290229	0.000456	4.561415	1.545449	0.000183
  90	8.8555e+00	3.5149	28.395194	0.000264	2.635484	0.892926	0.000105
  91	8.9550e+00	3.5518	28.552643	0.000395	3.953226	1.339389	0.000158
  92	9.0545e+00	3.5887	28.702017	0.000375	3.750497	1.270703	0.000150
  93	9.1540e+00	3.6304	28.839279	0.000345	3.446403	1.167673	0.000138
  94	9.2535e+00	3.6689	29.008839	0.000426	4.257321	1.442419	0.000170
  95	9.3530e+00	3.7122	29.138027	0.000324	3.243673	1.098986	0.000130
  96	9.4525e+00	3.7491	29.311624	0.000436	4.358686	1.476763	0.000174
  97	9.5520e+00	3.7796	29.432738	0.000304	3.040943	1.030300	0.000122
  98	9.6515e+00	3.8341	29.553852	0.000304	3.040943	1.030300	0.000122
  99	9.7510e+00	3.8630	29.715338	0.000405	4.054591	1.373733	0.000162
 100	9.8505e+00	3.9111	29.848563	0.000335	3.345038	1.133329	0.000134
 101	9.9500e+00	3.9416	30.006011	0.000395	3.953226	1.339389	0.000158
 102	1.0050e+01	3.9865	30.143274	0.000345	3.446403	1.167673	0.000138
 103	1.0149e+01	4.0234	30.280537	0.000345	3.446403	1.167673	0.000138
 104	1.0248e+01	4.0699	30.450096	0.000426	4.257321	1.442419	0.000170
 105	1.0348e+01	4.1084	30.559099	0.000274	2.736849	0.927270	0.000110
 106	1.0447e+01	4.1550	30.700399	0.000355	3.547767	1.202016	0.000142
 107	1.0547e+01	4.1935	30.849773	0.000375	3.750497	1.270703	0.000150
 108	1.0646e+01	4.2288	31.027407	0.000446	4.460050	1.511106	0.000179
 109	1.0746e+01	4.2705	31.176781	0.000375	3.750497	1.270703	0.000150
 110	1.0845e+01	4.3106	31.293858	0.000294	2.939579	0.995956	0.000118
 111	1.0945e+01	4.3571	31.423046	0.000324	3.243673	1.098986	0.000130
 112	1.1044e+01	4.3940	31.576457	0.000385	3.851862	1.305046	0.000154
 113	1.1144e+01	4.4245	31.758128	0.000456	4.561415	1.545449	0.000183
 114	1.1243e+01	4.4726	31.859057	0.000253	2.534120	0.858583	0.000101
 115	1.1343e+01	4.5063	32.004394	0.000365	3.649132	1.236359	0.000146
 116	1.1443e+01	4.5384	32.198176	0.000487	4.865509	1.648479	0.000195
 117	1.1542e+01	4.5849	32.270845	0.000182	1.824566	0.618180	0.000073
 118	1.1642e+01	4.6314	32.456553	0.000466	4.662780	1.579793	0.000187
 119	1.1741e+01	4.6667	32.605927	0.000375	3.750497	1.270703	0.000150
 120	1.1841e+01	4.7100	32.714929	0.000274	2.736849	0.927270	0.000110
 121	1.1940e+01	4.7566	32.848155	0.000335	3.345038	1.133329	0.000134
 122	1.2040e+01	4.7951	33.001566	0.000385	3.851862	1.305046	0.000154
 123	1.2139e+01	4.8239	33.159014	0.000395	3.953226	1.339389	0.000158
 124	1.2239e+01	4.8753	33.284166	0.000314	3.142308	1.064643	0.000126
 125	1.2338e+01	4.9106	33.449688	0.000416	4.155956	1.408076	0.000166
 126	1.2438e+01	4.9491	33.595025	0.000365	3.649132	1.236359	0.000146
 127	1.2537e+01	4.9811	33.748436	0.000385	3.851862	1.305046	0.000154
 128	1.2636e+01	5.0357	33.885699	0.000345	3.446403	1.167673	0.000138
 129	1.2736e+01	5.0630	34.014887	0.000324	3.243673	1.098986	0.000130
 130	1.2835e+01	5.1159	34.164261	0.000375	3.750497	1.270703	0.000150
 131	1.2935e+01	5.1480	34.273264	0.000274	2.736849	0.927270	0.000110
 132	1.3034e+01	5.1945	34.418601	0.000365	3.649132	1.236359	0.000146
 133	1.3134e+01	5.2314	34.567975	0.000375	3.750497	1.270703	0.000150
 134	1.3233e+01	5.2635	34.693126	0.000314	3.142308	1.064643	0.000126
 135	1.3333e+01	5.3164	34.842500	0.000375	3.750497	1.270703	0.000150
 136	1.3432e+01	5.3421	35.003985	0.000405	4.054591	1.373733	0.000162
 137	1.3532e+01	5.3950	35.133174	0.000324	3.243673	1.098986	0.000130
 138	1.3632e+01	5.4303	35.278511	0.000365	3.649132	1.236359	0.000146
 139	1.3731e+01	5.4608	35.419810	0.000355	3.547767	1.202016	0.000142
 140	1.3831e+01	5.5105	35.581296	0.000405	4.054591	1.373733	0.000162
 141	1.3930e+01	5.5506	35.686261	0.000264	2.635484	0.892926	0.000105
 142	1.4030e+01	5.5827	35.827561	0.000355	3.547767	1.202016	0.000142
 143	1.4129e+01	5.6228	35.976935	0.000375	3.750497	1.270703	0.000150
 144	1.4229e+01	5.6710	36.122272	0.000365	3.649132	1.236359	0.000146
 145	1.4328e+01	5.6998	36.255497	0.000335	3.345038	1.133329	0.000134
 146	1.4428e+01	5.7528	36.360463	0.000264	2.635484	0.892926	0.000105
 147	1.4527e+01	5.7817	36.509837	0.000375	3.750497	1.270703	0.000150
 148	1.4627e+01	5.8266	36.639025	0.000324	3.243673	1.098986	0.000130
 149	1.4726e+01	5.8667	36.812622	0.000436	4.358686	1.476763	0.000174
 150	1.4825e+01	5.9116	36.949885	0.000345	3.446403	1.167673	0.000138
 151	1.4925e+01	5.9501	37.058888	0.000274	2.736849	0.927270	0.000110
 152	1.5024e+01	5.9838	37.232484	0.000436	4.358686	1.476763	0.000174
 153	1.5124e+01	6.0223	37.333413	0.000253	2.534120	0.858583	0.000101
 154	1.5223e+01	6.0720	37.494898	0.000405	4.054591	1.373733	0.000162
 155	1.5323e+01	6.1009	37.632161	0.000345	3.446403	1.167673	0.000138
 156	1.5422e+01	6.1314	37.733089	0.000253	2.534120	0.858583	0.000101
 157	1.5522e+01	6.1907	37.862278	0.000324	3.243673	1.098986	0.000130
 158	1.5621e+01	6.2228	38.011652	0.000375	3.750497	1.270703	0.000150
 159	1.5721e+01	6.2613	38.140840	0.000324	3.243673	1.098986	0.000130
 160	1.5820e+01	6.2982	38.310400	0.000426	4.257321	1.442419	0.000170
 161	1.5920e+01	6.3367	38.419402	0.000274	2.736849	0.927270	0.000110
 162	1.6020e+01	6.3881	38.576851	0.000395	3.953226	1.339389	0.000158
 163	1.6119e+01	6.4233	38.693927	0.000294	2.939579	0.995956	0.000118
 164	1.6218e+01	6.4554	38.831190	0.000345	3.446403	1.167673	0.000138
 165	1.6318e+01	6.4987	38.952304	0.000304	3.040943	1.030300	0.000122
 166	1.6418e+01	6.5437	39.089567	0.000345	3.446403	1.167673	0.000138
 167	1.6517e+01	6.5806	39.263164	0.000436	4.358686	1.476763	0.000174
 168	1.6616e+01	6.6126	39.384278	0.000304	3.040943	1.030300	0.000122
 169	1.6716e+01	6.6608	39.448872	0.000162	1.621836	0.549493	0.000065
 170	1.6816e+01	6.6945	39.626506	0.000446	4.460050	1.511106	0.000179
 171	1.6915e+01	6.7394	39.723397	0.000243	2.432755	0.824240	0.000097
 172	1.7015e+01	6.7843	39.896994	0.000436	4.358686	1.476763	0.000174
 173	1.7114e+01	6.8212	40.001959	0.000264	2.635484	0.892926	0.000105
 174	1.7213e+01	6.8597	40.159408	0.000395	3.953226	1.339389	0.000158
 175	1.7313e+01	6.8950	40.268410	0.000274	2.736849	0.927270	0.000110
 176	1.7413e+01	6.9463	40.409710	0.000355	3.547767	1.202016	0.000142
 177	1.7512e+01	6.9784	40.518713	0.000274	2.736849	0.927270	0.000110
 178	1.7611e+01	7.0153	40.672124	0.000385	3.851862	1.305046	0.000154
 179	1.7711e+01	7.0522	40.801312	0.000324	3.243673	1.098986	0.000130
 180	1.7811e+01	7.0923	40.906278	0.000264	2.635484	0.892926	0.000105
 181	1.7910e+01	7.1388	41.027392	0.000304	3.040943	1.030300	0.000122
 182	1.8009e+01	7.1822	41.160617	0.000335	3.345038	1.133329	0.000134
 183	1.8109e+01	7.2255	41.314029	0.000385	3.851862	1.305046	0.000154
 184	1.8209e+01	7.2559	41.447254	0.000335	3.345038	1.133329	0.000134
 185	1.8308e+01	7.3009	41.576442	0.000324	3.243673	1.098986	0.000130
 186	1.8407e+01	7.3362	41.677371	0.000253	2.534120	0.858583	0.000101
 187	1.8507e+01	7.3747	41.838856	0.000405	4.054591	1.373733	0.000162
 188	1.8607e+01	7.4196	41.976119	0.000345	3.446403	1.167673	0.000138
 189	1.8706e+01	7.4533	42.089159	0.000284	2.838214	0.961613	0.000114
 190	1.8805e+01	7.4950	42.246607	0.000395	3.953226	1.339389	0.000158
 191	1.8905e+01	7.5351	42.367721	0.000304	3.040943	1.030300	0.000122
 192	1.9005e+01	7.5768	42.476724	0.000274	2.736849	0.927270	0.000110
 193	1.9104e+01	7.6121	42.613986	0.000345	3.446403	1.167673	0.000138
 194	1.9203e+01	7.6554	42.735100	0.000304	3.040943	1.030300	0.000122
 195	1.9303e+01	7.6907	42.876400	0.000355	3.547767	1.202016	0.000142
 196	1.9402e+01	7.7324	43.017700	0.000355	3.547767	1.202016	0.000142
 197	1.9502e+01	7.7773	43.146888	0.000324	3.243673	1.098986	0.000130
 198	1.9602e+01	7.8222	43.268002	0.000304	3.040943	1.030300	0.000122
 199	1.9701e+01	7.8591	43.372968	0.000264	2.635484	0.892926	0.000105
 200	1.9800e+01	7.8944	43.461785	0.000223	2.230025	0.755553	0.000089
 201	1.9900e+01	7.9377	43.615196	0.000385	3.851862	1.305046	0.000154
 202	2.0000e+01	7.9746	43.744384	0.000324	3.243673	1.098986	0.000130
 203	2.0099e+01	8.0099	43.877610	0.000335	3.345038	1.133329	0.000134
 204	2.0198e+01	8.0484	44.002761	0.000314	3.142308	1.064643	0.000126
 205	2.0298e+01	8.0934	44.103689	0.000253	2.534120	0.858583	0.000101
 206	2.0398e+01	8.1367	44.240952	0.000345	3.446403	1.167673	0.000138
 207	2.0497e+01	8.1768	44.374177	0.000335	3.345038	1.133329	0.000134
 208	2.0596e+01	8.2185	44.418586	0.000112	1.115013	0.377776	0.000045
 209	2.0696e+01	8.2474	44.636591	0.000547	5.473698	1.854539	0.000219
 210	2.0796e+01	8.2987	44.745594	0.000274	2.736849	0.927270	0.000110
 211	2.0895e+01	8.3292	44.834411	0.000223	2.230025	0.755553	0.000089
 212	2.0994e+01	8.3693	44.979748	0.000365	3.649132	1.236359	0.000146
 213	2.1094e+01	8.4094	45.129122	0.000375	3.750497	1.270703	0.000150
 214	2.1194e+01	8.4463	45.230050	0.000253	2.534120	0.858583	0.000101
 215	2.1293e+01	8.4912	45.343090	0.000284	2.838214	0.961613	0.000114
 216	2.1392e+01	8.5361	45.472278	0.000324	3.243673	1.098986	0.000130
 217	2.1492e+01	8.5746	45.613578	0.000355	3.547767	1.202016	0.000142
 218	2.1591e+01	8.6163	45.750841	0.000345	3.446403	1.167673	0.000138
 219	2.1691e+01	8.6580	45.855806	0.000264	2.635484	0.892926	0.000105
 220	2.1791e+01	8.6869	45.968846	0.000284	2.838214	0.961613	0.000114
 221	2.1890e+01	8.7302	46.098034	0.000324	3.243673	1.098986	0.000130
 222	2.1989e+01	8.7703	46.219148	0.000304	3.040943	1.030300	0.000122
 223	2.2089e+01	8.8088	46.360448	0.000355	3.547767	1.202016	0.000142
 224	2.2189e+01	8.8538	46.449265	0.000223	2.230025	0.755553	0.000089
 225	2.2288e+01	8.8907	46.590565	0.000355	3.547767	1.202016	0.000142
 226	2.2387e+01	8.9227	46.691493	0.000253	2.534120	0.858583	0.000101
 227	2.2487e+01	8.9773	46.824719	0.000335	3.345038	1.133329	0.000134
 228	2.2587e+01	9.0110	46.978130	0.000385	3.851862	1.305046	0.000154
 229	2.2686e+01	9.0447	47.066947	0.000223	2.230025	0.755553	0.000089
 230	2.2785e+01	9.0848	47.220358	0.000385	3.851862	1.305046	0.000154
 231	2.2885e+01	9.1313	47.305138	0.000213	2.128660	0.721210	0.000085
 232	2.2985e+01	9.1730	47.450475	0.000365	3.649132	1.236359	0.000146
 233	2.3084e+01	9.2051	47.571589	0.000304	3.040943	1.030300	0.000122
 234	2.3183e+01	9.2452	47.700777	0.000324	3.243673	1.098986	0.000130
 235	2.3283e+01	9.2885	47.801706	0.000253	2.534120	0.858583	0.000101
 236	2.3383e+01	9.3270	47.926857	0.000314	3.142308	1.064643	0.000126
 237	2.3482e+01	9.3671	48.043934	0.000294	2.939579	0.995956	0.000118
 238	2.3581e+01	9.4104	48.173122	0.000324	3.243673	1.098986	0.000130
 239	2.3681e+01	9.4473	48.278088	0.000264	2.635484	0.892926	0.000105
 240	2.3780e+01	9.4890	48.362868	0.000213	2.128660	0.721210	0.000085
 241	2.3880e+01	9.5307	48.536464	0.000436	4.358686	1.476763	0.000174
 242	2.3980e+01	9.5692	48.677764	0.000355	3.547767	1.202016	0.000142
 243	2.4079e+01	9.6094	48.819064	0.000355	3.547767	1.202016	0.000142
 244	2.4178e+01	9.6511	48.875584	0.000142	1.419107	0.480806	0.000057
 245	2.4278e+01	9.6976	49.008809	0.000335	3.345038	1.133329	0.000134
 246	2.4378e+01	9.7329	49.146072	0.000345	3.446403	1.167673	0.000138
 247	2.4477e+01	9.7650	49.291409	0.000365	3.649132	1.236359	0.000146
 248	2.4576e+01	9.8115	49.396374	0.000264	2.635484	0.892926	0.000105
 249	2.4676e+01	9.8452	49.529600	0.000335	3.345038	1.133329	0.000134
 250	2.4776e+01	9.8869	49.606305	0.000193	1.925931	0.652523	0.000077
 251	2.4875e+01	9.9302	49.731457	0.000314	3.142308	1.064643	0.000126
 252	2.4974e+01	9.9655	49.840459	0.000274	2.736849	0.927270	0.000110
 253	2.5074e+01	10.0104	49.989833	0.000375	3.750497	1.270703	0.000150
 254	2.5174e+01	10.0505	50.135170	0.000365	3.649132	1.236359	0.000146
 255	2.5273e+01	10.0874	50.256284	0.000304	3.040943	1.030300	0.000122
 256	2.5372e+01	10.1227	50.389510	0.000335	3.345038	1.133329	0.000134
 257	2.5472e+01	10.1708	50.478327	0.000223	2.230025	0.755553	0.000089
 258	2.5572e+01	10.2029	50.607515	0.000324	3.243673	1.098986	0.000130
 259	2.5671e+01	10.2446	50.732666	0.000314	3.142308	1.064643	0.000126
 260	2.5770e+01	10.2895	50.853780	0.000304	3.040943	1.030300	0.000122
 261	2.5870e+01	10.3232	50.966820	0.000284	2.838214	0.961613	0.000114
 262	2.5970e+01	10.3682	51.096008	0.000324	3.243673	1.098986	0.000130
 263	2.6069e+01	10.4067	51.217123	0.000304	3.040943	1.030300	0.000122
 264	2.6169e+01	10.4403	51.318051	0.000253	2.534120	0.858583	0.000101
 265	2.6268e+01	10.4805	51.455314	0.000345	3.446403	1.167673	0.000138
 266	2.6367e+01	10.5174	51.600650	0.000365	3.649132	1.236359	0.000146
 267	2.6467e+01	10.5655	51.741950	0.000355	3.547767	1.202016	0.000142
 268	2.6567e+01	10.6040	51.810581	0.000172	1.723201	0.583836	0.000069
 269	2.6666e+01	10.6473	51.972067	0.000405	4.054591	1.373733	0.000162
 270	2.6765e+01	10.6794	52.028587	0.000142	1.419107	0.480806	0.000057
 271	2.6865e+01	10.7147	52.194109	0.000416	4.155956	1.408076	0.000166
 272	2.6965e+01	10.7660	52.299075	0.000264	2.635484	0.892926	0.000105
 273	2.7064e+01	10.8029	52.408078	0.000274	2.736849	0.927270	0.000110
 274	2.7163e+01	10.8446	52.541303	0.000335	3.345038	1.133329	0.000134
 275	2.7263e+01	10.8879	52.658380	0.000294	2.939579	0.995956	0.000118
 276	2.7363e+01	10.9168	52.763346	0.000264	2.635484	0.892926	0.000105
 277	2.7462e+01	10.9665	52.904645	0.000355	3.547767	1.202016	0.000142
 278	2.7561e+01	10.9954	53.029796	0.000314	3.142308	1.064643	0.000126
 279	2.7661e+01	11.0516	53.158985	0.000324	3.243673	1.098986	0.000130
 280	2.7761e+01	11.0788	53.251839	0.000233	2.331390	0.789896	0.000093
 281	2.7860e+01	11.1141	53.372953	0.000304	3.040943	1.030300	0.000122
 282	2.7959e+01	11.1623	53.522327	0.000375	3.750497	1.270703	0.000150
 283	2.8059e+01	11.1943	53.619218	0.000243	2.432755	0.824240	0.000097
 284	2.8159e+01	11.2393	53.772629	0.000385	3.851862	1.305046	0.000154
 285	2.8258e+01	11.2826	53.893744	0.000304	3.040943	1.030300	0.000122
 286	2.8358e+01	11.3323	53.970449	0.000193	1.925931	0.652523	0.000077
 287	2.8457e+01	11.3612	54.087526	0.000294	2.939579	0.995956	0.000118
 288	2.8556e+01	11.4045	54.212677	0.000314	3.142308	1.064643	0.000126
 289	2.8656e+01	11.4430	54.301494	0.000223	2.230025	0.755553	0.000089
 290	2.8756e+01	11.4847	54.422608	0.000304	3.040943	1.030300	0.000122
 291	2.8855e+01	11.5248	54.576019	0.000385	3.851862	1.305046	0.000154
 292	2.8954e+01	11.5537	54.693096	0.000294	2.939579	0.995956	0.000118
 293	2.9054e+01	11.6018	54.830359	0.000345	3.446403	1.167673	0.000138
 294	2.9154e+01	11.6371	54.927250	0.000243	2.432755	0.824240	0.000097
 295	2.9253e+01	11.6820	55.080661	0.000385	3.851862	1.305046	0.000154
 296	2.9352e+01	11.7173	55.181590	0.000253	2.534120	0.858583	0.000101
 297	2.9452e+01	11.7542	55.266370	0.000213	2.128660	0.721210	0.000085
 298	2.9552e+01	11.8023	55.403632	0.000345	3.446403	1.167673	0.000138
 299	2.9651e+01	11.8441	55.548969	0.000365	3.649132	1.236359	0.000146
 300	2.9750e+01	11.8858	55.637786	0.000223	2.230025	0.755553	0.000089
 301	2.9850e+01	11.9355	55.775049	0.000345	3.446403	1.167673	0.000138
 302	2.9950e+01	11.9596	55.888089	0.000284	2.838214	0.961613	0.000114
 303	3.0049e+01	12.0061	55.989017	0.000253	2.534120	0.858583	0.000101
 304	3.0148e+01	12.0398	56.138391	0.000375	3.750497	1.270703	0.000150
 305	3.0248e+01	12.0847	56.255468	0.000294	2.939579	0.995956	0.000118
 306	3.0348e+01	12.1136	56.332174	0.000193	1.925931	0.652523	0.000077
 307	3.0447e+01	12.1553	56.493659	0.000405	4.054591	1.373733	0.000162
 308	3.0547e+01	12.2098	56.562290	0.000172	1.723201	0.583836	0.000069
 309	3.0646e+01	12.2451	56.703590	0.000355	3.547767	1.202016	0.000142
 310	3.0745e+01	12.2788	56.808556	0.000264	2.635484	0.892926	0.000105
 311	3.0845e+01	12.3237	56.941781	0.000335	3.345038	1.133329	0.000134
 312	3.0945e+01	12.3574	57.054821	0.000284	2.838214	0.961613	0.000114
 313	3.1044e+01	12.4023	57.167861	0.000284	2.838214	0.961613	0.000114
 314	3.1143e+01	12.4424	57.256678	0.000223	2.230025	0.755553	0.000089
 315	3.1243e+01	12.4697	57.381829	0.000314	3.142308	1.064643	0.000126
 316	3.1343e+01	12.5258	57.490831	0.000274	2.736849	0.927270	0.000110
 317	3.1442e+01	12.5627	57.620020	0.000324	3.243673	1.098986	0.000130
 318	3.1541e+01	12.6029	57.724985	0.000264	2.635484	0.892926	0.000105
 319	3.1641e+01	12.6446	57.874359	0.000375	3.750497	1.270703	0.000150
 320	3.1741e+01	12.6799	57.967213	0.000233	2.331390	0.789896	0.000093
 321	3.1840e+01	12.7168	58.092365	0.000314	3.142308	1.064643	0.000126
 322	3.1939e+01	12.7585	58.217516	0.000314	3.142308	1.064643	0.000126
 323	3.2039e+01	12.7954	58.342667	0.000314	3.142308	1.064643	0.000126
 324	3.2139e+01	12.8387	58.451670	0.000274	2.736849	0.927270	0.000110
 325	3.2238e+01	12.8708	58.540487	0.000223	2.230025	0.755553	0.000089
 326	3.2337e+01	12.9189	58.613155	0.000182	1.824566	0.618180	0.000073
 327	3.2437e+01	12.9574	58.762529	0.000375	3.750497	1.270703	0.000150
 328	3.2536e+01	12.9943	58.875569	0.000284	2.838214	0.961613	0.000114
 329	3.2636e+01	13.0296	58.936126	0.000152	1.520472	0.515150	0.000061
 330	3.2736e+01	13.0745	59.117797	0.000456	4.561415	1.545449	0.000183
 331	3.2835e+01	13.1162	59.186428	0.000172	1.723201	0.583836	0.000069
 332	3.2934e+01	13.1531	59.307543	0.000304	3.040943	1.030300	0.000122
 333	3.3034e+01	13.1804	59.428657	0.000304	3.040943	1.030300	0.000122
 334	3.3133e+01	13.2317	59.533622	0.000264	2.635484	0.892926	0.000105
 335	3.3233e+01	13.2766	59.630513	0.000243	2.432755	0.824240	0.000097
 336	3.3333e+01	13.3135	59.783925	0.000385	3.851862	1.305046	0.000154
 337	3.3432e+01	13.3520	59.864667	0.000203	2.027296	0.686866	0.000081
 338	3.3532e+01	13.3921	59.985781	0.000304	3.040943	1.030300	0.000122
 339	3.3631e+01	13.4306	60.070561	0.000213	2.128660	0.721210	0.000085
 340	3.3730e+01	13.4756	60.191675	0.000304	3.040943	1.030300	0.000122
 341	3.3830e+01	13.5189	60.268381	0.000193	1.925931	0.652523	0.000077
 342	3.3929e+01	13.5510	60.421792	0.000385	3.851862	1.305046	0.000154
 343	3.4029e+01	13.5830	60.575203	0.000385	3.851862	1.305046	0.000154
 344	3.4129e+01	13.6344	60.647872	0.000182	1.824566	0.618180	0.000073
 345	3.4228e+01	13.6729	60.708429	0.000152	1.520472	0.515150	0.000061
 346	3.4328e+01	13.7050	60.833580	0.000314	3.142308	1.064643	0.000126
 347	3.4427e+01	13.7627	60.954694	0.000304	3.040943	1.030300	0.000122
 348	3.4526e+01	13.7916	61.079845	0.000314	3.142308	1.064643	0.000126
 349	3.4626e+01	13.8333	61.192885	0.000284	2.838214	0.961613	0.000114
 350	3.4725e+01	13.8686	61.257479	0.000162	1.621836	0.549493	0.000065
 351	3.4825e+01	13.9119	61.394742	0.000345	3.446403	1.167673	0.000138
 352	3.4925e+01	13.9488	61.487596	0.000233	2.331390	0.789896	0.000093
 353	3.5024e+01	13.9969	61.620821	0.000335	3.345038	1.133329	0.000134
 354	3.5123e+01	14.0290	61.709638	0.000223	2.230025	0.755553	0.000089
 355	3.5223e+01	14.0707	61.806530	0.000243	2.432755	0.824240	0.000097
 356	3.5322e+01	14.1108	61.951866	0.000365	3.649132	1.236359	0.000146
 357	3.5422e+01	14.1413	62.044721	0.000233	2.331390	0.789896	0.000093
 358	3.5522e+01	14.1830	62.137575	0.000233	2.331390	0.789896	0.000093
 359	3.5621e+01	14.2328	62.250615	0.000284	2.838214	0.961613	0.000114
 360	3.5721e+01	14.2648	62.331357	0.000203	2.027296	0.686866	0.000081
 361	3.5820e+01	14.3082	62.460546	0.000324	3.243673	1.098986	0.000130
 362	3.5919e+01	14.3531	62.577623	0.000294	2.939579	0.995956	0.000118
 363	3.6019e+01	14.3803	62.678551	0.000253	2.534120	0.858583	0.000101
 364	3.6118e+01	14.4317	62.795628	0.000294	2.939579	0.995956	0.000118
 365	3.6218e+01	14.4670	62.876371	0.000203	2.027296	0.686866	0.000081
 366	3.6318e+01	14.5055	63.009596	0.000335	3.345038	1.133329	0.000134
 367	3.6417e+01	14.5536	63.102450	0.000233	2.331390	0.789896	0.000093
 368	3.6517e+01	14.5889	63.179156	0.000193	1.925931	0.652523	0.000077
 369	3.6616e+01	14.6226	63.288158	0.000274	2.736849	0.927270	0.000110
 370	3.6715e+01	14.6707	63.381013	0.000233	2.331390	0.789896	0.000093
 371	3.6815e+01	14.7124	63.502127	0.000304	3.040943	1.030300	0.000122
 372	3.6914e+01	14.7429	63.615166	0.000284	2.838214	0.961613	0.000114
 373	3.7014e+01	14.7814	63.716095	0.000253	2.534120	0.858583	0.000101
 374	3.7114e+01	14.8327	63.792800	0.000193	1.925931	0.652523	0.000077
 375	3.7213e+01	14.8680	63.942174	0.000375	3.750497	1.270703	0.000150
 376	3.7313e+01	14.9065	64.030991	0.000223	2.230025	0.755553	0.000089
 377	3.7412e+01	14.9434	64.095586	0.000162	1.621836	0.549493	0.000065
 378	3.7511e+01	14.9787	64.253034	0.000395	3.953226	1.339389	0.000158
 379	3.7611e+01	15.0236	64.313591	0.000152	1.520472	0.515150	0.000061
 380	3.7711e+01	15.0718	64.406445	0.000233	2.331390	0.789896	0.000093
 381	3.7810e+01	15.1022	64.483151	0.000193	1.925931	0.652523	0.000077
 382	3.7910e+01	15.1520	64.652710	0.000426	4.257321	1.442419	0.000170
 383	3.8009e+01	15.1873	64.765750	0.000284	2.838214	0.961613	0.000114
 384	3.8108e+01	15.2306	64.846493	0.000203	2.027296	0.686866	0.000081
 385	3.8208e+01	15.2643	64.943384	0.000243	2.432755	0.824240	0.000097
 386	3.8307e+01	15.3076	65.064498	0.000304	3.040943	1.030300	0.000122
 387	3.8407e+01	15.3477	65.165427	0.000253	2.534120	0.858583	0.000101
 388	3.8507e+01	15.4006	65.250206	0.000213	2.128660	0.721210	0.000085
 389	3.8606e+01	15.4231	65.367283	0.000294	2.939579	0.995956	0.000118
 390	3.8706e+01	15.4600	65.439952	0.000182	1.824566	0.618180	0.000073
 391	3.8805e+01	15.5097	65.536843	0.000243	2.432755	0.824240	0.000097
 392	3.8904e+01	15.5450	65.633734	0.000243	2.432755	0.824240	0.000097
 393	3.9004e+01	15.5883	65.766960	0.000335	3.345038	1.133329	0.000134
 394	3.9103e+01	15.6204	65.863851	0.000243	2.432755	0.824240	0.000097
 395	3.9203e+01	15.6605	65.960742	0.000243	2.432755	0.824240	0.000097
 396	3.9303e+01	15.7022	66.057634	0.000243	2.432755	0.824240	0.000097
 397	3.9402e+01	15.7536	66.198933	0.000355	3.547767	1.202016	0.000142
 398	3.9502e+01	15.7905	66.251416	0.000132	1.317742	0.446463	0.000053
 399	3.9601e+01	15.8209	66.352344	0.000253	2.534120	0.858583	0.000101
 400	3.9700e+01	15.8530	66.481533	0.000324	3.243673	1.098986	0.000130
 401	3.9800e+01	15.9044	66.578424	0.000243	2.432755	0.824240	0.000097
 402	3.9900e+01	15.9381	66.655130	0.000193	1.925931	0.652523	0.000077
 403	3.9999e+01	15.9846	66.768169	0.000284	2.838214	0.961613	0.000114
 404	4.0099e+01	16.0231	66.877172	0.000274	2.736849	0.927270	0.000110
 405	4.0198e+01	16.0632	66.965989	0.000223	2.230025	0.755553	0.000089
 406	4.0297e+01	16.1129	67.111326	0.000365	3.649132	1.236359	0.000146
 407	4.0397e+01	16.1466	67.175920	0.000162	1.621836	0.549493	0.000065
 408	4.0496e+01	16.1803	67.284923	0.000274	2.736849	0.927270	0.000110
 409	4.0596e+01	16.2252	67.365665	0.000203	2.027296	0.686866	0.000081
 410	4.0696e+01	16.2541	67.466594	0.000253	2.534120	0.858583	0.000101
 411	4.0795e+01	16.2942	67.595782	0.000324	3.243673	1.098986	0.000130
 412	4.0895e+01	16.3407	67.684599	0.000223	2.230025	0.755553	0.000089
 413	4.0994e+01	16.3792	67.793602	0.000274	2.736849	0.927270	0.000110
 414	4.1093e+01	16.4129	67.910679	0.000294	2.939579	0.995956	0.000118
 415	4.1193e+01	16.4674	68.015644	0.000264	2.635484	0.892926	0.000105
 416	4.1292e+01	16.4995	68.100424	0.000213	2.128660	0.721210	0.000085
 417	4.1392e+01	16.5477	68.189241	0.000223	2.230025	0.755553	0.000089
 418	4.1492e+01	16.5814	68.286132	0.000243	2.432755	0.824240	0.000097
 419	4.1591e+01	16.6263	68.459729	0.000436	4.358686	1.476763	0.000174
 420	4.1691e+01	16.6696	68.520286	0.000152	1.520472	0.515150	0.000061
 421	4.1790e+01	16.6936	68.613140	0.000233	2.331390	0.789896	0.000093
 422	4.1889e+01	16.7386	68.705995	0.000233	2.331390	0.789896	0.000093
 423	4.1989e+01	16.7835	68.823071	0.000294	2.939579	0.995956	0.000118
 424	4.2089e+01	16.8156	68.903814	0.000203	2.027296	0.686866	0.000081
 425	4.2188e+01	16.8621	69.000705	0.000243	2.432755	0.824240	0.000097
 426	4.2288e+01	16.8942	69.121820	0.000304	3.040943	1.030300	0.000122
 427	4.2387e+01	16.9407	69.242934	0.000304	3.040943	1.030300	0.000122
 428	4.2486e+01	16.9744	69.315602	0.000182	1.824566	0.618180	0.000073
 429	4.2586e+01	17.0289	69.420568	0.000264	2.635484	0.892926	0.000105
 430	4.2685e+01	17.0626	69.541682	0.000304	3.040943	1.030300	0.000122
 431	4.2785e+01	17.0963	69.614350	0.000182	1.824566	0.618180	0.000073
 432	4.2885e+01	17.1316	69.747576	0.000335	3.345038	1.133329	0.000134
 433	4.2984e+01	17.1701	69.812170	0.000162	1.621836	0.549493	0.000065
 434	4.3084e+01	17.2150	69.929247	0.000294	2.939579	0.995956	0.000118
 435	4.3183e+01	17.2583	70.050361	0.000304	3.040943	1.030300	0.000122
 436	4.3282e+01	17.3000	70.114955	0.000162	1.621836	0.549493	0.000065
 437	4.3382e+01	17.3353	70.240106	0.000314	3.142308	1.064643	0.000126
 438	4.3481e+01	17.3787	70.345072	0.000264	2.635484	0.892926	0.000105
 439	4.3581e+01	17.4236	70.478297	0.000335	3.345038	1.133329	0.000134
 440	4.3681e+01	17.4541	70.538854	0.000152	1.520472	0.515150	0.000061
 441	4.3780e+01	17.5022	70.643820	0.000264	2.635484	0.892926	0.000105
 442	4.3880e+01	17.5439	70.744748	0.000253	2.534120	0.858583	0.000101
 443	4.3979e+01	17.5872	70.869899	0.000314	3.142308	1.064643	0.000126
 444	4.4078e+01	17.6097	70.934493	0.000162	1.621836	0.549493	0.000065
 445	4.4178e+01	17.6594	71.035422	0.000253	2.534120	0.858583	0.000101
 446	4.4278e+01	17.6851	71.164610	0.000324	3.243673	1.098986	0.000130
 447	4.4377e+01	17.7428	71.277650	0.000284	2.838214	0.961613	0.000114
 448	4.4477e+01	17.7685	71.354356	0.000193	1.925931	0.652523	0.000077
 449	4.4576e+01	17.8118	71.471433	0.000294	2.939579	0.995956	0.000118
 450	4.4675e+01	17.8583	71.544101	0.000182	1.824566	0.618180	0.000073
 451	4.4775e+01	17.9032	71.653104	0.000274	2.736849	0.927270	0.000110
 452	4.4874e+01	17.9449	71.737883	0.000213	2.128660	0.721210	0.000085
 453	4.4974e+01	17.9674	71.867072	0.000324	3.243673	1.098986	0.000130
 454	4.5074e+01	18.0171	71.988186	0.000304	3.040943	1.030300	0.000122
 455	4.5173e+01	18.0524	72.077003	0.000223	2.230025	0.755553	0.000089
 456	4.5273e+01	18.0990	72.153708	0.000193	1.925931	0.652523	0.000077
 457	4.5372e+01	18.1407	72.266748	0.000284	2.838214	0.961613	0.000114
 458	4.5471e+01	18.1727	72.395937	0.000324	3.243673	1.098986	0.000130
 459	4.5571e+01	18.2129	72.492828	0.000243	2.432755	0.824240	0.000097
 460	4.5670e+01	18.2578	72.581645	0.000223	2.230025	0.755553	0.000089
 461	4.5770e+01	18.2947	72.670462	0.000223	2.230025	0.755553	0.000089
 462	4.5870e+01	18.3380	72.759279	0.000223	2.230025	0.755553	0.000089
 463	4.5969e+01	18.3717	72.860207	0.000253	2.534120	0.858583	0.000101
 464	4.6069e+01	18.4150	72.989396	0.000324	3.243673	1.098986	0.000130
 465	4.6168e+01	18.4679	73.066101	0.000193	1.925931	0.652523	0.000077
 466	4.6267e+01	18.4936	73.175104	0.000274	2.736849	0.927270	0.000110
 467	4.6367e+01	18.5289	73.267958	0.000233	2.331390	0.789896	0.000093
 468	4.6467e+01	18.5690	73.397146	0.000324	3.243673	1.098986	0.000130
 469	4.6566e+01	18.6091	73.469815	0.000182	1.824566	0.618180	0.000073
 470	4.6666e+01	18.6588	73.590929	0.000304	3.040943	1.030300	0.000122
 471	4.6765e+01	18.6957	73.659560	0.000172	1.723201	0.583836	0.000069
 472	4.6864e+01	18.7310	73.796823	0.000345	3.446403	1.167673	0.000138
 473	4.6964e+01	18.7759	73.873528	0.000193	1.925931	0.652523	0.000077
 474	4.7063e+01	18.8144	73.986568	0.000284	2.838214	0.961613	0.000114
 475	4.7163e+01	18.8594	74.091534	0.000264	2.635484	0.892926	0.000105
 476	4.7263e+01	18.8947	74.184388	0.000233	2.331390	0.789896	0.000093
 477	4.7362e+01	18.9267	74.273205	0.000223	2.230025	0.755553	0.000089
 478	4.7462e+01	18.9749	74.414504	0.000355	3.547767	1.202016	0.000142
 479	4.7561e+01	19.0102	74.511396	0.000243	2.432755	0.824240	0.000097
 480	4.7660e+01	19.0422	74.588101	0.000193	1.925931	0.652523	0.000077
 481	4.7760e+01	19.0888	74.680955	0.000233	2.331390	0.789896	0.000093
 482	4.7859e+01	19.1305	74.789958	0.000274	2.736849	0.927270	0.000110
 483	4.7959e+01	19.1690	74.890887	0.000253	2.534120	0.858583	0.000101
 484	4.8059e+01	19.2075	74.995852	0.000264	2.635484	0.892926	0.000105
 485	4.8158e+01	19.2620	75.100818	0.000264	2.635484	0.892926	0.000105
 486	4.8258e+01	19.2893	75.197709	0.000243	2.432755	0.824240	0.000097
 487	4.8357e+01	19.3326	75.306711	0.000274	2.736849	0.927270	0.000110
 488	4.8456e+01	19.3823	75.407640	0.000253	2.534120	0.858583	0.000101
 489	4.8556e+01	19.4048	75.476271	0.000172	1.723201	0.583836	0.000069
 490	4.8656e+01	19.4481	75.597385	0.000304	3.040943	1.030300	0.000122
 491	4.8755e+01	19.4866	75.682165	0.000213	2.128660	0.721210	0.000085
 492	4.8855e+01	19.5251	75.787131	0.000264	2.635484	0.892926	0.000105
 493	4.8954e+01	19.5700	75.888059	0.000253	2.534120	0.858583	0.000101
 494	4.9053e+01	19.6085	75.964765	0.000193	1.925931	0.652523	0.000077
 495	4.9153e+01	19.6470	76.073767	0.000274	2.736849	0.927270	0.000110
 496	4.9252e+01	19.6823	76.158547	0.000213	2.128660	0.721210	0.000085
 497	4.9352e+01	19.7240	76.231216	0.000182	1.824566	0.618180	0.000073
 498	4.9452e+01	19.7706	76.364441	0.000335	3.345038	1.133329	0.000134
 499	4.9551e+01	19.8091	76.441147	0.000193	1.925931	0.652523	0.000077
 500	4.9651e+01	19.8412	76.554186	0.000284	2.838214	0.961613	0.000114
 501	4.9750e+01	19.8893	76.655115	0.000253	2.534120	0.858583	0.000101
 502	4.9849e+01	19.9310	76.764117	0.000274	2.736849	0.927270	0.000110
 503	4.9949e+01	19.9679	76.840823	0.000193	1.925931	0.652523	0.000077
 504	5.0048e+01	19.9278	76.796415	0.000112	1.115013	0.377776	-0.000045
 505	5.0148e+01	19.8829	76.727783	0.000172	1.723201	0.583836	-0.000069
 506	5.0248e+01	19.8428	76.655115	0.000182	1.824566	0.618180	-0.000073
 507	5.0347e+01	19.8059	76.610706	0.000112	1.115013	0.377776	-0.000045
 508	5.0447e+01	19.7706	76.550149	0.000152	1.520472	0.515150	-0.000061
 509	5.0546e+01	19.7305	76.477481	0.000182	1.824566	0.618180	-0.000073
 510	5.0645e+01	19.6823	76.420961	0.000142	1.419107	0.480806	-0.000057
 511	5.0745e+01	19.6551	76.372515	0.000122	1.216377	0.412120	-0.000049
 512	5.0844e+01	19.6037	76.311958	0.000152	1.520472	0.515150	-0.000061
 513	5.0944e+01	19.5716	76.219104	0.000233	2.331390	0.789896	-0.000093
 514	5.1044e+01	19.5267	76.158547	0.000152	1.520472	0.515150	-0.000061
 515	5.1143e+01	19.4882	76.106064	0.000132	1.317742	0.446463	-0.000053
 516	5.1242e+01	19.4529	75.993025	0.000284	2.838214	0.961613	-0.000114
 517	5.1342e+01	19.4112	75.936505	0.000142	1.419107	0.480806	-0.000057
 518	5.1441e+01	19.3727	75.855762	0.000203	2.027296	0.686866	-0.000081
 519	5.1541e+01	19.3198	75.795205	0.000152	1.520472	0.515150	-0.000061
 520	5.1641e+01	19.2893	75.734648	0.000152	1.520472	0.515150	-0.000061
 521	5.1740e+01	19.2460	75.698314	0.000091	0.912283	0.309090	-0.000037
 522	5.1840e+01	19.2171	75.589311	0.000274	2.736849	0.927270	-0.000110
 523	5.1939e+01	19.1722	75.544902	0.000112	1.115013	0.377776	-0.000045
 524	5.2038e+01	19.1241	75.464160	0.000203	2.027296	0.686866	-0.000081
 525	5.2138e+01	19.0936	75.371306	0.000233	2.331390	0.789896	-0.000093
 526	5.2237e+01	19.0567	75.310749	0.000152	1.520472	0.515150	-0.000061
 527	5.2337e+01	19.0182	75.238080	0.000182	1.824566	0.618180	-0.000073
 528	5.2437e+01	18.9668	75.185597	0.000132	1.317742	0.446463	-0.000053
 529	5.2536e+01	18.9316	75.084669	0.000253	2.534120	0.858583	-0.000101
 530	5.2636e+01	18.8834	75.036223	0.000122	1.216377	0.412120	-0.000049
 531	5.2735e+01	18.8529	74.947406	0.000223	2.230025	0.755553	-0.000089
 532	5.2834e+01	18.8128	74.866664	0.000203	2.027296	0.686866	-0.000081
 533	5.2934e+01	18.7695	74.769772	0.000243	2.432755	0.824240	-0.000097
 534	5.3033e+01	18.7342	74.749587	0.000051	0.506824	0.171717	-0.000020
 535	5.3133e+01	18.6925	74.636547	0.000284	2.838214	0.961613	-0.000114
 536	5.3233e+01	18.6540	74.575990	0.000152	1.520472	0.515150	-0.000061
 537	5.3332e+01	18.6155	74.483136	0.000233	2.331390	0.789896	-0.000093
 538	5.3431e+01	18.5706	74.394319	0.000223	2.230025	0.755553	-0.000089
 539	5.3531e+01	18.5273	74.362022	0.000081	0.810918	0.274747	-0.000032
 540	5.3630e+01	18.4904	74.269168	0.000233	2.331390	0.789896	-0.000093
 541	5.3730e+01	18.4487	74.156128	0.000284	2.838214	0.961613	-0.000114
 542	5.3830e+01	18.4150	74.123831	0.000081	0.810918	0.274747	-0.000032
 543	5.3929e+01	18.3733	74.006754	0.000294	2.939579	0.995956	-0.000118
 544	5.4029e+01	18.3380	73.921974	0.000213	2.128660	0.721210	-0.000085
 545	5.4128e+01	18.2883	73.857380	0.000162	1.621836	0.549493	-0.000065
 546	5.4227e+01	18.2562	73.796823	0.000152	1.520472	0.515150	-0.000061
 547	5.4327e+01	18.2209	73.651486	0.000365	3.649132	1.236359	-0.000146
 548	5.4426e+01	18.1727	73.599003	0.000132	1.317742	0.446463	-0.000053
 549	5.4526e+01	18.1278	73.526335	0.000182	1.824566	0.618180	-0.000073
 550	5.4626e+01	18.0990	73.449629	0.000193	1.925931	0.652523	-0.000077
 551	5.4725e+01	18.0524	73.389072	0.000152	1.520472	0.515150	-0.000061
 552	5.4825e+01	18.0171	73.320441	0.000172	1.723201	0.583836	-0.000069
 553	5.4924e+01	17.9786	73.219512	0.000253	2.534120	0.858583	-0.000101
 554	5.5023e+01	17.9417	73.122621	0.000243	2.432755	0.824240	-0.000097
 555	5.5123e+01	17.8904	73.058027	0.000162	1.621836	0.549493	-0.000065
 556	5.5222e+01	17.8487	72.944987	0.000284	2.838214	0.961613	-0.000114
 557	5.5322e+01	17.8214	72.896541	0.000122	1.216377	0.412120	-0.000049
 558	5.5422e+01	17.7781	72.815799	0.000203	2.027296	0.686866	-0.000081
 559	5.5521e+01	17.7380	72.726982	0.000223	2.230025	0.755553	-0.000089
 560	5.5620e+01	17.6963	72.654313	0.000182	1.824566	0.618180	-0.000073
 561	5.5720e+01	17.6530	72.565496	0.000223	2.230025	0.755553	-0.000089
 562	5.5819e+01	17.6097	72.460531	0.000264	2.635484	0.892926	-0.000105
 563	5.5919e+01	17.5792	72.404011	0.000142	1.419107	0.480806	-0.000057
 564	5.6019e+01	17.5455	72.295008	0.000274	2.736849	0.927270	-0.000110
 565	5.6118e+01	17.4990	72.214266	0.000203	2.027296	0.686866	-0.000081
 566	5.6218e+01	17.4524	72.129486	0.000213	2.128660	0.721210	-0.000085
 567	5.6317e+01	17.4236	72.093151	0.000091	0.912283	0.309090	-0.000037
 568	5.6416e+01	17.3770	71.992223	0.000253	2.534120	0.858583	-0.000101
 569	5.6516e+01	17.3321	71.895332	0.000243	2.432755	0.824240	-0.000097
 570	5.6615e+01	17.2984	71.810552	0.000213	2.128660	0.721210	-0.000085
 571	5.6715e+01	17.2631	71.717698	0.000233	2.331390	0.789896	-0.000093
 572	5.6815e+01	17.2182	71.640992	0.000193	1.925931	0.652523	-0.000077
 573	5.6914e+01	17.1861	71.572361	0.000172	1.723201	0.583836	-0.000069
 574	5.7014e+01	17.1348	71.475470	0.000243	2.432755	0.824240	-0.000097
 575	5.7113e+01	17.1043	71.394727	0.000203	2.027296	0.686866	-0.000081
 576	5.7212e+01	17.0594	71.309947	0.000213	2.128660	0.721210	-0.000085
 577	5.7312e+01	17.0145	71.237279	0.000182	1.824566	0.618180	-0.000073
 578	5.7411e+01	16.9776	71.116165	0.000304	3.040943	1.030300	-0.000122
 579	5.7511e+01	16.9455	71.067719	0.000122	1.216377	0.412120	-0.000049
 580	5.7611e+01	16.9022	70.962753	0.000264	2.635484	0.892926	-0.000105
 581	5.7710e+01	16.8605	70.902196	0.000152	1.520472	0.515150	-0.000061
 582	5.7809e+01	16.8124	70.793194	0.000274	2.736849	0.927270	-0.000110
 583	5.7909e+01	16.7771	70.732637	0.000152	1.520472	0.515150	-0.000061
 584	5.8008e+01	16.7370	70.631708	0.000253	2.534120	0.858583	-0.000101
 585	5.8108e+01	16.6953	70.559040	0.000182	1.824566	0.618180	-0.000073
 586	5.8208e+01	16.6551	70.458111	0.000253	2.534120	0.858583	-0.000101
 587	5.8307e+01	16.6247	70.405629	0.000132	1.317742	0.446463	-0.000053
 588	5.8407e+01	16.5797	70.276440	0.000324	3.243673	1.098986	-0.000130
 589	5.8506e+01	16.5412	70.236069	0.000101	1.013648	0.343433	-0.000041
 590	5.8605e+01	16.5027	70.191661	0.000112	1.115013	0.377776	-0.000045
 591	5.8705e+01	16.4530	70.058435	0.000335	3.345038	1.133329	-0.000134
 592	5.8804e+01	16.4225	69.941358	0.000294	2.939579	0.995956	-0.000118
 593	5.8904e+01	16.3808	69.900987	0.000101	1.013648	0.343433	-0.000041
 594	5.9004e+01	16.3375	69.828318	0.000182	1.824566	0.618180	-0.000073
 595	5.9103e+01	16.2990	69.739501	0.000223	2.230025	0.755553	-0.000089
 596	5.9203e+01	16.2557	69.654721	0.000213	2.128660	0.721210	-0.000085
 597	5.9302e+01	16.2188	69.549756	0.000264	2.635484	0.892926	-0.000105
 598	5.9401e+01	16.1851	69.464976	0.000213	2.128660	0.721210	-0.000085
 599	5.9501e+01	16.1418	69.355973	0.000274	2.736849	0.927270	-0.000110
 600	5.9600e+01	16.1033	69.311565	0.000112	1.115013	0.377776	-0.000045
 601	5.9700e+01	16.0632	69.230822	0.000203	2.027296	0.686866	-0.000081
 602	5.9800e+01	16.0263	69.125857	0.000264	2.635484	0.892926	-0.000105
 603	5.9899e+01	15.9814	69.045114	0.000203	2.027296	0.686866	-0.000081
 604	5.9998e+01	15.9445	68.919963	0.000314	3.142308	1.064643	-0.000126
 605	6.0098e+01	15.9076	68.875554	0.000112	1.115013	0.377776	-0.000045
 606	6.0197e+01	15.8627	68.782700	0.000233	2.331390	0.789896	-0.000093
 607	6.0297e+01	15.8242	68.710032	0.000182	1.824566	0.618180	-0.000073
 608	6.0397e+01	15.7937	68.621215	0.000223	2.230025	0.755553	-0.000089
 609	6.0496e+01	15.7455	68.544509	0.000193	1.925931	0.652523	-0.000077
 610	6.0596e+01	15.7038	68.407247	0.000345	3.446403	1.167673	-0.000138
 611	6.0695e+01	15.6637	68.374949	0.000081	0.810918	0.274747	-0.000032
 612	6.0794e+01	15.6252	68.257872	0.000294	2.939579	0.995956	-0.000118
 613	6.0894e+01	15.5883	68.185204	0.000182	1.824566	0.618180	-0.000073
 614	6.0993e+01	15.5434	68.104461	0.000203	2.027296	0.686866	-0.000081
 615	6.1093e+01	15.5065	68.064090	0.000101	1.013648	0.343433	-0.000041
 616	6.1193e+01	15.4664	67.930864	0.000335	3.345038	1.133329	-0.000134
 617	6.1292e+01	15.4327	67.854159	0.000193	1.925931	0.652523	-0.000077
 618	6.1392e+01	15.3942	67.757268	0.000243	2.432755	0.824240	-0.000097
 619	6.1491e+01	15.3445	67.692673	0.000162	1.621836	0.549493	-0.000065
 620	6.1590e+01	15.3108	67.571559	0.000304	3.040943	1.030300	-0.000122
 621	6.1690e+01	15.2723	67.506965	0.000162	1.621836	0.549493	-0.000065
 622	6.1789e+01	15.2274	67.442371	0.000162	1.621836	0.549493	-0.000065
 623	6.1889e+01	15.1744	67.337406	0.000264	2.635484	0.892926	-0.000105
 624	6.1989e+01	15.1552	67.232440	0.000264	2.635484	0.892926	-0.000105
 625	6.2088e+01	15.1039	67.167846	0.000162	1.621836	0.549493	-0.000065
 626	6.2188e+01	15.0670	67.046732	0.000304	3.040943	1.030300	-0.000122
 627	6.2287e+01	15.0252	66.970026	0.000193	1.925931	0.652523	-0.000077
 628	6.2386e+01	14.9900	66.917543	0.000132	1.317742	0.446463	-0.000053
 629	6.2486e+01	14.9386	66.828726	0.000223	2.230025	0.755553	-0.000089
 630	6.2586e+01	14.9129	66.723761	0.000264	2.635484	0.892926	-0.000105
 631	6.2685e+01	14.8744	66.630907	0.000233	2.331390	0.789896	-0.000093
 632	6.2785e+01	14.8279	66.562275	0.000172	1.723201	0.583836	-0.000069
 633	6.2884e+01	14.7830	66.429050	0.000335	3.345038	1.133329	-0.000134
 634	6.2983e+01	14.7477	66.364456	0.000162	1.621836	0.549493	-0.000065
 635	6.3083e+01	14.7140	66.311973	0.000132	1.317742	0.446463	-0.000053
 636	6.3182e+01	14.6723	66.194896	0.000294	2.939579	0.995956	-0.000118
 637	6.3282e+01	14.6290	66.134339	0.000152	1.520472	0.515150	-0.000061
 638	6.3382e+01	14.5921	66.033411	0.000253	2.534120	0.858583	-0.000101
 639	6.3481e+01	14.5440	65.912297	0.000304	3.040943	1.030300	-0.000122
 640	6.3581e+01	14.5119	65.851740	0.000152	1.520472	0.515150	-0.000061
 641	6.3680e+01	14.4766	65.783108	0.000172	1.723201	0.583836	-0.000069
 642	6.3779e+01	14.4172	65.641809	0.000355	3.547767	1.202016	-0.000142
 643	6.3879e+01	14.3964	65.605474	0.000091	0.912283	0.309090	-0.000037
 644	6.3978e+01	14.3499	65.488397	0.000294	2.939579	0.995956	-0.000118
 645	6.4078e+01	14.3114	65.407655	0.000203	2.027296	0.686866	-0.000081
 646	6.4177e+01	14.2680	65.290578	0.000294	2.939579	0.995956	-0.000118
 647	6.4277e+01	14.2263	65.230021	0.000152	1.520472	0.515150	-0.000061
 648	6.4376e+01	14.1798	65.125055	0.000264	2.635484	0.892926	-0.000105
 649	6.4476e+01	14.1541	65.028164	0.000243	2.432755	0.824240	-0.000097
 650	6.4576e+01	14.1076	64.971644	0.000142	1.419107	0.480806	-0.000057
 651	6.4675e+01	14.0755	64.878790	0.000233	2.331390	0.789896	-0.000093
 652	6.4775e+01	14.0306	64.741527	0.000345	3.446403	1.167673	-0.000138
 653	6.4874e+01	13.9985	64.664822	0.000193	1.925931	0.652523	-0.000077
 654	6.4974e+01	13.9504	64.563893	0.000253	2.534120	0.858583	-0.000101
 655	6.5073e+01	13.9167	64.507373	0.000142	1.419107	0.480806	-0.000057
 656	6.5172e+01	13.8686	64.418556	0.000223	2.230025	0.755553	-0.000089
 657	6.5272e+01	13.8381	64.289368	0.000324	3.243673	1.098986	-0.000130
 658	6.5371e+01	13.7884	64.208625	0.000203	2.027296	0.686866	-0.000081
 659	6.5471e+01	13.7483	64.139994	0.000172	1.723201	0.583836	-0.000069
 660	6.5570e+01	13.7114	64.026954	0.000284	2.838214	0.961613	-0.000114
 661	6.5670e+01	13.6713	63.954286	0.000182	1.824566	0.618180	-0.000073
 662	6.5769e+01	13.6328	63.877580	0.000193	1.925931	0.652523	-0.000077
 663	6.5869e+01	13.5879	63.764540	0.000284	2.838214	0.961613	-0.000114
 664	6.5969e+01	13.5558	63.667649	0.000243	2.432755	0.824240	-0.000097
 665	6.6068e+01	13.5189	63.558646	0.000274	2.736849	0.927270	-0.000110
 666	6.6168e+01	13.4772	63.469830	0.000223	2.230025	0.755553	-0.000089
 667	6.6267e+01	13.4338	63.360827	0.000274	2.736849	0.927270	-0.000110
 668	6.6367e+01	13.4002	63.259898	0.000253	2.534120	0.858583	-0.000101
 669	6.6466e+01	13.3520	63.191267	0.000172	1.723201	0.583836	-0.000069
 670	6.6566e+01	13.3248	63.066116	0.000314	3.142308	1.064643	-0.000126
 671	6.6665e+01	13.2702	62.985373	0.000203	2.027296	0.686866	-0.000081
 672	6.6764e+01	13.2397	62.888482	0.000243	2.432755	0.824240	-0.000097
 673	6.6864e+01	13.1948	62.795628	0.000233	2.331390	0.789896	-0.000093
 674	6.6963e+01	13.1579	62.698737	0.000243	2.432755	0.824240	-0.000097
 675	6.7063e+01	13.1082	62.557437	0.000355	3.547767	1.202016	-0.000142
 676	6.7162e+01	13.0777	62.513028	0.000112	1.115013	0.377776	-0.000045
 677	6.7262e+01	13.0264	62.420174	0.000233	2.331390	0.789896	-0.000093
 678	6.7362e+01	12.9959	62.307134	0.000284	2.838214	0.961613	-0.000114
 679	6.7461e+01	12.9542	62.186020	0.000304	3.040943	1.030300	-0.000122
 680	6.7561e+01	12.9109	62.105278	0.000203	2.027296	0.686866	-0.000081
 681	6.7660e+01	12.8740	62.036646	0.000172	1.723201	0.583836	-0.000069
 682	6.7760e+01	12.8371	61.915532	0.000304	3.040943	1.030300	-0.000122
 683	6.7859e+01	12.7905	61.814604	0.000253	2.534120	0.858583	-0.000101
 684	6.7959e+01	12.7537	61.701564	0.000284	2.838214	0.961613	-0.000114
 685	6.8058e+01	12.7328	61.657156	0.000112	1.115013	0.377776	-0.000045
 686	6.8157e+01	12.6750	61.519893	0.000345	3.446403	1.167673	-0.000138
 687	6.8257e+01	12.6381	61.439150	0.000203	2.027296	0.686866	-0.000081
 688	6.8356e+01	12.5964	61.313999	0.000314	3.142308	1.064643	-0.000126
 689	6.8456e+01	12.5515	61.245368	0.000172	1.723201	0.583836	-0.000069
 690	6.8555e+01	12.5210	61.132328	0.000284	2.838214	0.961613	-0.000114
 691	6.8655e+01	12.4713	61.027362	0.000264	2.635484	0.892926	-0.000105
 692	6.8754e+01	12.4408	60.902211	0.000314	3.142308	1.064643	-0.000126
 693	6.8854e+01	12.4039	60.821468	0.000203	2.027296	0.686866	-0.000081
 694	6.8954e+01	12.3574	60.720540	0.000253	2.534120	0.858583	-0.000101
 695	6.9053e+01	12.3157	60.627686	0.000233	2.331390	0.789896	-0.000093
 696	6.9153e+01	12.2740	60.555018	0.000182	1.824566	0.618180	-0.000073
 697	6.9252e+01	12.2387	60.409681	0.000365	3.649132	1.236359	-0.000146
 698	6.9352e+01	12.1986	60.353161	0.000142	1.419107	0.480806	-0.000057
 699	6.9451e+01	12.1601	60.252232	0.000253	2.534120	0.858583	-0.000101
 700	6.9550e+01	12.1168	60.143230	0.000274	2.736849	0.927270	-0.000110
 701	6.9650e+01	12.0767	60.026153	0.000294	2.939579	0.995956	-0.000118
 702	6.9749e+01	12.0462	59.929261	0.000243	2.432755	0.824240	-0.000097
 703	6.9849e+01	12.0013	59.808147	0.000304	3.040943	1.030300	-0.000122
 704	6.9948e+01	11.9563	59.719330	0.000223	2.230025	0.755553	-0.000089
 705	7.0048e+01	11.9162	59.602253	0.000294	2.939579	0.995956	-0.000118
 706	7.0147e+01	11.8809	59.509399	0.000233	2.331390	0.789896	-0.000093
 707	7.0247e+01	11.8457	59.388285	0.000304	3.040943	1.030300	-0.000122
 708	7.0347e+01	11.7991	59.287357	0.000253	2.534120	0.858583	-0.000101
 709	7.0446e+01	11.7654	59.214688	0.000182	1.824566	0.618180	-0.000073
 710	7.0546e+01	11.7205	59.093574	0.000304	3.040943	1.030300	-0.000122
 711	7.0645e+01	11.6884	58.984572	0.000274	2.736849	0.927270	-0.000110
 712	7.0745e+01	11.6323	58.883643	0.000253	2.534120	0.858583	-0.000101
 713	7.0844e+01	11.5938	58.762529	0.000304	3.040943	1.030300	-0.000122
 714	7.0944e+01	11.5569	58.673712	0.000223	2.230025	0.755553	-0.000089
 715	7.1043e+01	11.5328	58.556635	0.000294	2.939579	0.995956	-0.000118
 716	7.1142e+01	11.4815	58.467818	0.000223	2.230025	0.755553	-0.000089
 717	7.1242e+01	11.4398	58.322481	0.000365	3.649132	1.236359	-0.000146
 718	7.1341e+01	11.4093	58.261924	0.000152	1.520472	0.515150	-0.000061
 719	7.1441e+01	11.3740	58.144847	0.000294	2.939579	0.995956	-0.000118
 720	7.1540e+01	11.3147	57.999511	0.000365	3.649132	1.236359	-0.000146
 721	7.1640e+01	11.2874	57.914731	0.000213	2.128660	0.721210	-0.000085
 722	7.1740e+01	11.2425	57.813802	0.000253	2.534120	0.858583	-0.000101
 723	7.1839e+01	11.1927	57.737097	0.000193	1.925931	0.652523	-0.000077
 724	7.1939e+01	11.1735	57.652317	0.000213	2.128660	0.721210	-0.000085
 725	7.2038e+01	11.1254	57.527166	0.000314	3.142308	1.064643	-0.000126
 726	7.2138e+01	11.0804	57.397977	0.000324	3.243673	1.098986	-0.000130
 727	7.2237e+01	11.0467	57.301086	0.000243	2.432755	0.824240	-0.000097
 728	7.2337e+01	11.0147	57.184009	0.000294	2.939579	0.995956	-0.000118
 729	7.2436e+01	10.9681	57.095192	0.000223	2.230025	0.755553	-0.000089
 730	7.2535e+01	10.9280	56.998301	0.000243	2.432755	0.824240	-0.000097
 731	7.2635e+01	10.8863	56.861038	0.000345	3.446403	1.167673	-0.000138
 732	7.2734e+01	10.8446	56.743961	0.000294	2.939579	0.995956	-0.000118
 733	7.2834e+01	10.8029	56.634959	0.000274	2.736849	0.927270	-0.000110
 734	7.2933e+01	10.7628	56.562290	0.000182	1.824566	0.618180	-0.000073
 735	7.3033e+01	10.7179	56.433102	0.000324	3.243673	1.098986	-0.000130
 736	7.3132e+01	10.6794	56.340248	0.000233	2.331390	0.789896	-0.000093
 737	7.3232e+01	10.6425	56.231245	0.000274	2.736849	0.927270	-0.000110
 738	7.3332e+01	10.5992	56.114168	0.000294	2.939579	0.995956	-0.000118
 739	7.3431e+01	10.5639	56.001128	0.000284	2.838214	0.961613	-0.000114
 740	7.3531e+01	10.5366	55.896163	0.000264	2.635484	0.892926	-0.000105
 741	7.3630e+01	10.4853	55.791197	0.000264	2.635484	0.892926	-0.000105
 742	7.3730e+01	10.4436	55.706417	0.000213	2.128660	0.721210	-0.000085
 743	7.3829e+01	10.4018	55.585303	0.000304	3.040943	1.030300	-0.000122
 744	7.3928e+01	10.3698	55.488412	0.000243	2.432755	0.824240	-0.000097
 745	7.4028e+01	10.3200	55.351150	0.000345	3.446403	1.167673	-0.000138
 746	7.4127e+01	10.2831	55.270407	0.000203	2.027296	0.686866	-0.000081
 747	7.4227e+01	10.2478	55.181590	0.000223	2.230025	0.755553	-0.000089
 748	7.4326e+01	10.2029	55.060476	0.000304	3.040943	1.030300	-0.000122
 749	7.4426e+01	10.1676	54.951473	0.000274	2.736849	0.927270	-0.000110
 750	7.4525e+01	10.1371	54.886879	0.000162	1.621836	0.549493	-0.000065
 751	7.4625e+01	10.0922	54.757691	0.000324	3.243673	1.098986	-0.000130
 752	7.4725e+01	10.0425	54.616391	0.000355	3.547767	1.202016	-0.000142
 753	7.4824e+01	10.0056	54.535648	0.000203	2.027296	0.686866	-0.000081
 754	7.4924e+01	9.9607	54.426645	0.000274	2.736849	0.927270	-0.000110
 755	7.5023e+01	9.9238	54.301494	0.000314	3.142308	1.064643	-0.000126
 756	7.5123e+01	9.8869	54.204603	0.000243	2.432755	0.824240	-0.000097
 757	7.5222e+01	9.8532	54.071378	0.000335	3.345038	1.133329	-0.000134
 758	7.5322e+01	9.8131	53.998709	0.000182	1.824566	0.618180	-0.000073
 759	7.5421e+01	9.7666	53.865484	0.000335	3.345038	1.133329	-0.000134
 760	7.5520e+01	9.7297	53.748407	0.000294	2.939579	0.995956	-0.000118
 761	7.5620e+01	9.6928	53.675738	0.000182	1.824566	0.618180	-0.000073
 762	7.5719e+01	9.6414	53.554624	0.000304	3.040943	1.030300	-0.000122
 763	7.5819e+01	9.6158	53.441584	0.000284	2.838214	0.961613	-0.000114
 764	7.5918e+01	9.5692	53.332582	0.000274	2.736849	0.927270	-0.000110
 765	7.6018e+01	9.5307	53.215505	0.000294	2.939579	0.995956	-0.000118
 766	7.6118e+01	9.4922	53.090354	0.000314	3.142308	1.064643	-0.000126
 767	7.6217e+01	9.4521	52.993462	0.000243	2.432755	0.824240	-0.000097
 768	7.6317e+01	9.4136	52.908682	0.000213	2.128660	0.721210	-0.000085
 769	7.6416e+01	9.3639	52.799680	0.000274	2.736849	0.927270	-0.000110
 770	7.6516e+01	9.3302	52.690677	0.000274	2.736849	0.927270	-0.000110
 771	7.6615e+01	9.2901	52.561489	0.000324	3.243673	1.098986	-0.000130
 772	7.6715e+01	9.2420	52.476709	0.000213	2.128660	0.721210	-0.000085
 773	7.6814e+01	9.2067	52.371743	0.000264	2.635484	0.892926	-0.000105
 774	7.6913e+01	9.1714	52.299075	0.000182	1.824566	0.618180	-0.000073
 775	7.7013e+01	9.1361	52.129515	0.000426	4.257321	1.442419	-0.000170
 776	7.7112e+01	9.0992	52.032624	0.000243	2.432755	0.824240	-0.000097
 777	7.7212e+01	9.0543	51.939770	0.000233	2.331390	0.789896	-0.000093
 778	7.7311e+01	9.0222	51.818656	0.000304	3.040943	1.030300	-0.000122
 779	7.7411e+01	8.9661	51.681393	0.000345	3.446403	1.167673	-0.000138
 780	7.7510e+01	8.9308	51.596613	0.000213	2.128660	0.721210	-0.000085
 781	7.7610e+01	8.8923	51.471462	0.000314	3.142308	1.064643	-0.000126
 782	7.7710e+01	8.8554	51.394757	0.000193	1.925931	0.652523	-0.000077
 783	7.7809e+01	8.8104	51.257494	0.000345	3.446403	1.167673	-0.000138
 784	7.7909e+01	8.7687	51.144454	0.000284	2.838214	0.961613	-0.000114
 785	7.8008e+01	8.7222	51.023340	0.000304	3.040943	1.030300	-0.000122
 786	7.8108e+01	8.6901	50.938560	0.000213	2.128660	0.721210	-0.000085
 787	7.8207e+01	8.6516	50.845706	0.000233	2.331390	0.789896	-0.000093
 788	7.8306e+01	8.6099	50.692295	0.000385	3.851862	1.305046	-0.000154
 789	7.8406e+01	8.5714	50.595404	0.000243	2.432755	0.824240	-0.000097
 790	7.8505e+01	8.5409	50.514661	0.000203	2.027296	0.686866	-0.000081
 791	7.8605e+01	8.4912	50.365287	0.000375	3.750497	1.270703	-0.000150
 792	7.8704e+01	8.4575	50.252247	0.000284	2.838214	0.961613	-0.000114
 793	7.8804e+01	8.4110	50.163430	0.000223	2.230025	0.755553	-0.000089
 794	7.8903e+01	8.3709	50.066539	0.000243	2.432755	0.824240	-0.000097
 795	7.9003e+01	8.3356	49.917165	0.000375	3.750497	1.270703	-0.000150
 796	7.9103e+01	8.3003	49.844496	0.000182	1.824566	0.618180	-0.000073
 797	7.9202e+01	8.2554	49.711271	0.000335	3.345038	1.133329	-0.000134
 798	7.9302e+01	8.2153	49.614380	0.000243	2.432755	0.824240	-0.000097
 799	7.9401e+01	8.1720	49.481154	0.000335	3.345038	1.133329	-0.000134
 800	7.9501e+01	8.1351	49.368114	0.000284	2.838214	0.961613	-0.000114
 801	7.9600e+01	8.0918	49.279297	0.000223	2.230025	0.755553	-0.000089
 802	7.9700e+01	8.0516	49.170295	0.000274	2.736849	0.927270	-0.000110
 803	7.9799e+01	8.0212	49.053218	0.000294	2.939579	0.995956	-0.000118
 804	7.9898e+01	7.9698	48.899807	0.000385	3.851862	1.305046	-0.000154
 805	7.9998e+01	7.9361	48.798878	0.000253	2.534120	0.858583	-0.000101
 806	8.0097e+01	7.8928	48.706024	0.000233	2.331390	0.789896	-0.000093
 807	8.0197e+01	7.8607	48.617207	0.000223	2.230025	0.755553	-0.000089
 808	8.0296e+01	7.8174	48.479945	0.000345	3.446403	1.167673	-0.000138
 809	8.0396e+01	7.7789	48.362868	0.000294	2.939579	0.995956	-0.000118
 810	8.0496e+01	7.7308	48.249828	0.000284	2.838214	0.961613	-0.000114
 811	8.0595e+01	7.6955	48.128714	0.000304	3.040943	1.030300	-0.000122
 812	8.0695e+01	7.6522	48.023748	0.000264	2.635484	0.892926	-0.000105
 813	8.0794e+01	7.6217	47.918783	0.000264	2.635484	0.892926	-0.000105
 814	8.0894e+01	7.5752	47.801706	0.000294	2.939579	0.995956	-0.000118
 815	8.0993e+01	7.5351	47.664443	0.000345	3.446403	1.167673	-0.000138
 816	8.1093e+01	7.4998	47.567552	0.000243	2.432755	0.824240	-0.000097
 817	8.1192e+01	7.4661	47.422215	0.000365	3.649132	1.236359	-0.000146
 818	8.1291e+01	7.4132	47.369732	0.000132	1.317742	0.446463	-0.000053
 819	8.1391e+01	7.3859	47.200172	0.000426	4.257321	1.442419	-0.000170
 820	8.1490e+01	7.3394	47.095207	0.000264	2.635484	0.892926	-0.000105
 821	8.1590e+01	7.3025	46.986204	0.000274	2.736849	0.927270	-0.000110
 822	8.1689e+01	7.2543	46.848942	0.000345	3.446403	1.167673	-0.000138
 823	8.1789e+01	7.2126	46.752050	0.000243	2.432755	0.824240	-0.000097
 824	8.1888e+01	7.1789	46.630936	0.000304	3.040943	1.030300	-0.000122
 825	8.1988e+01	7.1388	46.525971	0.000264	2.635484	0.892926	-0.000105
 826	8.2088e+01	7.0923	46.388708	0.000345	3.446403	1.167673	-0.000138
 827	8.2187e+01	7.0554	46.267594	0.000304	3.040943	1.030300	-0.000122
 828	8.2287e+01	7.0137	46.170703	0.000243	2.432755	0.824240	-0.000097
 829	8.2386e+01	6.9768	46.037477	0.000335	3.345038	1.133329	-0.000134
 830	8.2486e+01	6.9415	45.924438	0.000284	2.838214	0.961613	-0.000114
 831	8.2585e+01	6.8934	45.779101	0.000365	3.649132	1.236359	-0.000146
 832	8.2684e+01	6.8581	45.686247	0.000233	2.331390	0.789896	-0.000093
 833	8.2784e+01	6.8196	45.508613	0.000446	4.460050	1.511106	-0.000179
 834	8.2883e+01	6.7827	45.452093	0.000142	1.419107	0.480806	-0.000057
 835	8.2983e+01	6.7346	45.302719	0.000375	3.750497	1.270703	-0.000150
 836	8.3082e+01	6.6929	45.201790	0.000253	2.534120	0.858583	-0.000101
 837	8.3182e+01	6.6592	45.076639	0.000314	3.142308	1.064643	-0.000126
 838	8.3281e+01	6.6207	44.999934	0.000193	1.925931	0.652523	-0.000077
 839	8.3381e+01	6.5774	44.818262	0.000456	4.561415	1.545449	-0.000183
 840	8.3481e+01	6.5389	44.737520	0.000203	2.027296	0.686866	-0.000081
 841	8.3580e+01	6.4971	44.584109	0.000385	3.851862	1.305046	-0.000154
 842	8.3680e+01	6.4602	44.471069	0.000284	2.838214	0.961613	-0.000114
 843	8.3779e+01	6.4282	44.358029	0.000284	2.838214	0.961613	-0.000114
 844	8.3879e+01	6.3929	44.184432	0.000436	4.358686	1.476763	-0.000174
 845	8.3978e+01	6.3479	44.063318	0.000304	3.040943	1.030300	-0.000122
 846	8.4078e+01	6.3046	43.986612	0.000193	1.925931	0.652523	-0.000077
 847	8.4177e+01	6.2613	43.841276	0.000365	3.649132	1.236359	-0.000146
 848	8.4276e+01	6.2244	43.720161	0.000304	3.040943	1.030300	-0.000122
 849	8.4376e+01	6.1763	43.623270	0.000243	2.432755	0.824240	-0.000097
 850	8.4475e+01	6.1362	43.461785	0.000405	4.054591	1.373733	-0.000162
 851	8.4575e+01	6.0993	43.377005	0.000213	2.128660	0.721210	-0.000085
 852	8.4674e+01	6.0784	43.231668	0.000365	3.649132	1.236359	-0.000146
 853	8.4774e+01	6.0191	43.110554	0.000304	3.040943	1.030300	-0.000122
 854	8.4874e+01	5.9806	42.997514	0.000284	2.838214	0.961613	-0.000114
 855	8.4973e+01	5.9517	42.827954	0.000426	4.257321	1.442419	-0.000170
 856	8.5073e+01	5.9004	42.731063	0.000243	2.432755	0.824240	-0.000097
 857	8.5172e+01	5.8667	42.626098	0.000264	2.635484	0.892926	-0.000105
 858	8.5272e+01	5.8186	42.468649	0.000395	3.953226	1.339389	-0.000158
 859	8.5371e+01	5.7801	42.375795	0.000233	2.331390	0.789896	-0.000093
 860	8.5471e+01	5.7512	42.234496	0.000355	3.547767	1.202016	-0.000142
 861	8.5570e+01	5.7047	42.101270	0.000335	3.345038	1.133329	-0.000134
 862	8.5669e+01	5.6710	41.992267	0.000274	2.736849	0.927270	-0.000110
 863	8.5769e+01	5.6357	41.855005	0.000345	3.446403	1.167673	-0.000138
 864	8.5868e+01	5.5859	41.713705	0.000355	3.547767	1.202016	-0.000142
 865	8.5968e+01	5.5442	41.620851	0.000233	2.331390	0.789896	-0.000093
 866	8.6067e+01	5.5009	41.447254	0.000436	4.358686	1.476763	-0.000174
 867	8.6167e+01	5.4560	41.354400	0.000233	2.331390	0.789896	-0.000093
 868	8.6266e+01	5.4303	41.209063	0.000365	3.649132	1.236359	-0.000146
 869	8.6366e+01	5.3886	41.108135	0.000253	2.534120	0.858583	-0.000101
 870	8.6466e+01	5.3517	40.962798	0.000365	3.649132	1.236359	-0.000146
 871	8.6565e+01	5.3052	40.813424	0.000375	3.750497	1.270703	-0.000150
 872	8.6665e+01	5.2683	40.660013	0.000385	3.851862	1.305046	-0.000154
 873	8.6764e+01	5.2250	40.583307	0.000193	1.925931	0.652523	-0.000077
 874	8.6864e+01	5.1881	40.417784	0.000416	4.155956	1.408076	-0.000166
 875	8.6963e+01	5.1464	40.337042	0.000203	2.027296	0.686866	-0.000081
 876	8.7063e+01	5.1079	40.179593	0.000395	3.953226	1.339389	-0.000158
 877	8.7162e+01	5.0646	40.050405	0.000324	3.243673	1.098986	-0.000130
 878	8.7261e+01	5.0373	39.917180	0.000335	3.345038	1.133329	-0.000134
 879	8.7361e+01	4.9860	39.787991	0.000324	3.243673	1.098986	-0.000130
 880	8.7460e+01	4.9442	39.610357	0.000446	4.460050	1.511106	-0.000179
 881	8.7560e+01	4.8945	39.517503	0.000233	2.331390	0.789896	-0.000093
 882	8.7659e+01	4.8688	39.368129	0.000375	3.750497	1.270703	-0.000150
 883	8.7759e+01	4.8223	39.247015	0.000304	3.040943	1.030300	-0.000122
 884	8.7859e+01	4.7790	39.105715	0.000355	3.547767	1.202016	-0.000142
 885	8.7958e+01	4.7485	39.012861	0.000233	2.331390	0.789896	-0.000093
 886	8.8058e+01	4.7132	38.875599	0.000345	3.446403	1.167673	-0.000138
 887	8.8157e+01	4.6747	38.706039	0.000426	4.257321	1.442419	-0.000170
 888	8.8257e+01	4.6266	38.592999	0.000284	2.838214	0.961613	-0.000114
 889	8.8356e+01	4.5929	38.467848	0.000314	3.142308	1.064643	-0.000126
 890	8.8456e+01	4.5480	38.334622	0.000335	3.345038	1.133329	-0.000134
 891	8.8555e+01	4.5079	38.205434	0.000324	3.243673	1.098986	-0.000130
 892	8.8654e+01	4.4694	38.064134	0.000355	3.547767	1.202016	-0.000142
 893	8.8754e+01	4.4325	37.894575	0.000426	4.257321	1.442419	-0.000170
 894	8.8853e+01	4.3908	37.825943	0.000172	1.723201	0.583836	-0.000069
 895	8.8953e+01	4.3427	37.648309	0.000446	4.460050	1.511106	-0.000179
 896	8.9052e+01	4.3170	37.539307	0.000274	2.736849	0.927270	-0.000110
 897	8.9152e+01	4.2737	37.365710	0.000436	4.358686	1.476763	-0.000174
 898	8.9251e+01	4.2288	37.228447	0.000345	3.446403	1.167673	-0.000138
 899	8.9351e+01	4.1774	37.111370	0.000294	2.939579	0.995956	-0.000118
 900	8.9451e+01	4.1453	37.006405	0.000264	2.635484	0.892926	-0.000105
 901	8.9550e+01	4.1149	36.836845	0.000426	4.257321	1.442419	-0.000170
 902	8.9650e+01	4.0715	36.723805	0.000284	2.838214	0.961613	-0.000114
 903	8.9749e+01	4.0250	36.574431	0.000375	3.750497	1.270703	-0.000150
 904	8.9849e+01	3.9961	36.481577	0.000233	2.331390	0.789896	-0.000093
 905	8.9948e+01	3.9512	36.316055	0.000416	4.155956	1.408076	-0.000166
 906	9.0047e+01	3.9191	36.178792	0.000345	3.446403	1.167673	-0.000138
 907	9.0147e+01	3.8806	36.057678	0.000304	3.040943	1.030300	-0.000122
 908	9.0246e+01	3.8357	35.904267	0.000385	3.851862	1.305046	-0.000154
 909	9.0346e+01	3.7796	35.754893	0.000375	3.750497	1.270703	-0.000150
 910	9.0445e+01	3.7523	35.605519	0.000375	3.750497	1.270703	-0.000150
 911	9.0545e+01	3.7074	35.480367	0.000314	3.142308	1.064643	-0.000126
 912	9.0644e+01	3.6625	35.330993	0.000375	3.750497	1.270703	-0.000150
 913	9.0744e+01	3.6384	35.205842	0.000314	3.142308	1.064643	-0.000126
 914	9.0844e+01	3.6031	35.125099	0.000203	2.027296	0.686866	-0.000081
 915	9.0943e+01	3.5438	34.967651	0.000395	3.953226	1.339389	-0.000158
 916	9.1043e+01	3.5229	34.830389	0.000345	3.446403	1.167673	-0.000138
 917	9.1142e+01	3.4812	34.668903	0.000405	4.054591	1.373733	-0.000162
 918	9.1242e+01	3.4315	34.519529	0.000375	3.750497	1.270703	-0.000150
 919	9.1341e+01	3.3978	34.406489	0.000284	2.838214	0.961613	-0.000114
 920	9.1441e+01	3.3528	34.265190	0.000355	3.547767	1.202016	-0.000142
 921	9.1540e+01	3.3127	34.152150	0.000284	2.838214	0.961613	-0.000114
 922	9.1639e+01	3.2630	34.010850	0.000355	3.547767	1.202016	-0.000142
 923	9.1739e+01	3.2293	33.889736	0.000304	3.040943	1.030300	-0.000122
 924	9.1838e+01	3.1892	33.716139	0.000436	4.358686	1.476763	-0.000174
 925	9.1938e+01	3.1587	33.603099	0.000284	2.838214	0.961613	-0.000114
 926	9.2037e+01	3.1122	33.429502	0.000436	4.358686	1.476763	-0.000174
 927	9.2137e+01	3.0753	33.344723	0.000213	2.128660	0.721210	-0.000085
 928	9.2237e+01	3.0432	33.199386	0.000365	3.649132	1.236359	-0.000146
 929	9.2336e+01	2.9919	33.045975	0.000385	3.851862	1.305046	-0.000154
 930	9.2436e+01	2.9598	32.856229	0.000476	4.764145	1.614136	-0.000191
 931	9.2535e+01	2.9133	32.783561	0.000182	1.824566	0.618180	-0.000073
 932	9.2635e+01	2.8668	32.630150	0.000385	3.851862	1.305046	-0.000154
 933	9.2734e+01	2.8443	32.492887	0.000345	3.446403	1.167673	-0.000138
 934	9.2834e+01	2.8042	32.351587	0.000355	3.547767	1.202016	-0.000142
 935	9.2933e+01	2.7561	32.186065	0.000416	4.155956	1.408076	-0.000166
 936	9.3032e+01	2.7256	32.040728	0.000365	3.649132	1.236359	-0.000146
 937	9.3132e+01	2.6727	31.923651	0.000294	2.939579	0.995956	-0.000118
 938	9.3231e+01	2.6358	31.830797	0.000233	2.331390	0.789896	-0.000093
 939	9.3331e+01	2.5973	31.637014	0.000487	4.865509	1.648479	-0.000195
 940	9.3430e+01	2.5588	31.511863	0.000314	3.142308	1.064643	-0.000126
 941	9.3530e+01	2.5138	31.370563	0.000355	3.547767	1.202016	-0.000142
 942	9.3629e+01	2.4753	31.237338	0.000335	3.345038	1.133329	-0.000134
 943	9.3729e+01	2.4304	31.108149	0.000324	3.243673	1.098986	-0.000130
 944	9.3829e+01	2.3983	30.958775	0.000375	3.750497	1.270703	-0.000150
 945	9.3928e+01	2.3630	30.813439	0.000365	3.649132	1.236359	-0.000146
 946	9.4028e+01	2.3229	30.680213	0.000335	3.345038	1.133329	-0.000134
 947	9.4127e+01	2.2732	30.518728	0.000405	4.054591	1.373733	-0.000162
 948	9.4227e+01	2.2347	30.381465	0.000345	3.446403	1.167673	-0.000138
 949	9.4326e+01	2.2058	30.268425	0.000284	2.838214	0.961613	-0.000114
 950	9.4425e+01	2.1481	30.106940	0.000405	4.054591	1.373733	-0.000162
 951	9.4525e+01	2.1144	29.969677	0.000345	3.446403	1.167673	-0.000138
 952	9.4624e+01	2.0791	29.824340	0.000365	3.649132	1.236359	-0.000146
 953	9.4724e+01	2.0358	29.695152	0.000324	3.243673	1.098986	-0.000130
 954	9.4823e+01	2.0021	29.525592	0.000426	4.257321	1.442419	-0.000170
 955	9.4923e+01	1.9588	29.368144	0.000395	3.953226	1.339389	-0.000158
 956	9.5022e+01	1.9219	29.242993	0.000314	3.142308	1.064643	-0.000126
 957	9.5122e+01	1.8770	29.121879	0.000304	3.040943	1.030300	-0.000122
 958	9.5222e+01	1.8352	28.948282	0.000436	4.358686	1.476763	-0.000174
 959	9.5321e+01	1.7887	28.827168	0.000304	3.040943	1.030300	-0.000122
 960	9.5421e+01	1.7566	28.661645	0.000416	4.155956	1.408076	-0.000166
 961	9.5520e+01	1.7165	28.552643	0.000274	2.736849	0.927270	-0.000110
 962	9.5620e+01	1.6877	28.383083	0.000426	4.257321	1.442419	-0.000170
 963	9.5719e+01	1.6475	28.257932	0.000314	3.142308	1.064643	-0.000126
 964	9.5819e+01	1.5946	28.124706	0.000335	3.345038	1.133329	-0.000134
 965	9.5918e+01	1.5529	27.967258	0.000395	3.953226	1.339389	-0.000158
 966	9.6017e+01	1.5176	27.821921	0.000365	3.649132	1.236359	-0.000146
 967	9.6117e+01	1.4823	27.704844	0.000294	2.939579	0.995956	-0.000118
 968	9.6216e+01	1.4310	27.515099	0.000476	4.764145	1.614136	-0.000191
 969	9.6316e+01	1.3957	27.389947	0.000314	3.142308	1.064643	-0.000126
 970	9.6415e+01	1.3684	27.256722	0.000335	3.345038	1.133329	-0.000134
 971	9.6515e+01	1.3187	27.083125	0.000436	4.358686	1.476763	-0.000174
 972	9.6615e+01	1.2722	26.945862	0.000345	3.446403	1.167673	-0.000138
 973	9.6714e+01	1.2417	26.800526	0.000365	3.649132	1.236359	-0.000146
 974	9.6814e+01	1.1952	26.647114	0.000385	3.851862	1.305046	-0.000154
 975	9.6913e+01	1.1599	26.501778	0.000365	3.649132	1.236359	-0.000146
 976	9.7013e+01	1.1133	26.356441	0.000365	3.649132	1.236359	-0.000146
 977	9.7112e+01	1.0845	26.211104	0.000365	3.649132	1.236359	-0.000146
 978	9.7212e+01	1.0411	26.053655	0.000395	3.953226	1.339389	-0.000158
 979	9.7311e+01	0.9962	25.932541	0.000304	3.040943	1.030300	-0.000122
 980	9.7410e+01	0.9609	25.730685	0.000507	5.068239	1.717166	-0.000203
 981	9.7510e+01	0.9224	25.597459	0.000335	3.345038	1.133329	-0.000134
 982	9.7609e+01	0.8727	25.472308	0.000314	3.142308	1.064643	-0.000126
 983	9.7709e+01	0.8486	25.286600	0.000466	4.662780	1.579793	-0.000187
 984	9.7808e+01	0.8053	25.161448	0.000314	3.142308	1.064643	-0.000126
 985	9.7908e+01	0.7668	25.008037	0.000385	3.851862	1.305046	-0.000154
 986	9.8007e+01	0.7187	24.858663	0.000375	3.750497	1.270703	-0.000150
 987	9.8107e+01	0.6866	24.676992	0.000456	4.561415	1.545449	-0.000183
 988	9.8207e+01	0.6417	24.559915	0.000294	2.939579	0.995956	-0.000118
 989	9.8306e+01	0.6160	24.382281	0.000446	4.460050	1.511106	-0.000179
 990	9.8406e+01	0.5663	24.240982	0.000355	3.547767	1.202016	-0.000142
 991	9.8505e+01	0.5182	24.107756	0.000335	3.345038	1.133329	-0.000134
 992	9.8605e+01	0.4861	23.913974	0.000487	4.865509	1.648479	-0.000195
 993	9.8704e+01	0.4396	23.784785	0.000324	3.243673	1.098986	-0.000130
 994	9.8803e+01	0.4107	23.667708	0.000294	2.939579	0.995956	-0.000118
 995	9.8903e+01	0.3481	23.453740	0.000537	5.372333	1.820196	-0.000215
 996	9.9002e+01	0.3273	23.332626	0.000304	3.040943	1.030300	-0.000122
 997	9.9102e+01	0.2791	23.138843	0.000487	4.865509	1.648479	-0.000195
 998	9.9201e+01	0.2487	23.005618	0.000335	3.345038	1.133329	-0.000134
 999	9.9301e+01	0.2021	22.840095	0.000416	4.155956	1.408076	-0.000166
1000	9.9400e+01	0.1572	22.690721	0.000375	3.750497	1.270703	-0.000150
1001	9.9500e+01	0.1348	22.557496	0.000335	3.345038	1.133329	-0.000134
1002	9.9600e+01	0.0818	22.359676	0.000497	4.966874	1.682823	-0.000199
1003	9.9699e+01	0.0481	22.210302	0.000375	3.750497	1.270703	-0.000150
1004	9.9799e+01	-0.0032	22.056891	0.000385	3.851862	1.305046	-0.000154
1005	9.9898e+01	-0.0193	21.931740	0.000314	3.142308	1.064643	-0.000126
1006	9.9998e+01	-0.0706	21.758143	0.000436	4.358686	1.476763	-0.000174
1007	1.0010e+02	-0.1123	21.612806	0.000365	3.649132	1.236359	-0.000146
1008	1.0020e+02	-0.1508	21.427098	0.000466	4.662780	1.579793	-0.000187
1009	1.0030e+02	-0.1877	21.305984	0.000304	3.040943	1.030300	-0.000122
1010	1.0040e+02	-0.2310	21.124313	0.000456	4.561415	1.545449	-0.000183
1011	1.0050e+02	-0.2711	20.946679	0.000446	4.460050	1.511106	-0.000179
1012	1.0059e+02	-0.3016	20.833639	0.000284	2.838214	0.961613	-0.000114
1013	1.0069e+02	-0.3433	20.607559	0.000568	5.676428	1.923226	-0.000227
1014	1.0079e+02	-0.3834	20.470297	0.000345	3.446403	1.167673	-0.000138
1015	1.0089e+02	-0.4299	20.280551	0.000476	4.764145	1.614136	-0.000191
1016	1.0099e+02	-0.4652	20.123103	0.000395	3.953226	1.339389	-0.000158
1017	1.0109e+02	-0.5053	19.973729	0.000375	3.750497	1.270703	-0.000150
1018	1.0119e+02	-0.5503	19.808206	0.000416	4.155956	1.408076	-0.000166
1019	1.0129e+02	-0.5807	19.662870	0.000365	3.649132	1.236359	-0.000146
1020	1.0139e+02	-0.6289	19.477161	0.000466	4.662780	1.579793	-0.000187
1021	1.0149e+02	-0.6658	19.327787	0.000375	3.750497	1.270703	-0.000150
1022	1.0159e+02	-0.7091	19.182450	0.000365	3.649132	1.236359	-0.000146
1023	1.0169e+02	-0.7363	19.000779	0.000456	4.561415	1.545449	-0.000183
1024	1.0179e+02	-0.7861	18.859480	0.000355	3.547767	1.202016	-0.000142
1025	1.0189e+02	-0.8246	18.673771	0.000466	4.662780	1.579793	-0.000187
1026	1.0199e+02	-0.8551	18.488063	0.000466	4.662780	1.579793	-0.000187
1027	1.0209e+02	-0.9048	18.338689	0.000375	3.750497	1.270703	-0.000150
1028	1.0219e+02	-0.9401	18.189315	0.000375	3.750497	1.270703	-0.000150
1029	1.0229e+02	-0.9834	17.979384	0.000527	5.270969	1.785853	-0.000211
1030	1.0239e+02	-1.0155	17.862307	0.000294	2.939579	0.995956	-0.000118
1031	1.0248e+02	-1.0636	17.660450	0.000507	5.068239	1.717166	-0.000203
1032	1.0258e+02	-1.0941	17.527225	0.000335	3.345038	1.133329	-0.000134
1033	1.0268e+02	-1.1550	17.381888	0.000365	3.649132	1.236359	-0.000146
1034	1.0278e+02	-1.1775	17.216365	0.000416	4.155956	1.408076	-0.000166
1035	1.0288e+02	-1.2160	17.014509	0.000507	5.068239	1.717166	-0.000203
1036	1.0298e+02	-1.2545	16.865135	0.000375	3.750497	1.270703	-0.000150
1037	1.0308e+02	-1.2994	16.699612	0.000416	4.155956	1.408076	-0.000166
1038	1.0318e+02	-1.3379	16.509867	0.000476	4.764145	1.614136	-0.000191
1039	1.0328e+02	-1.3812	16.348381	0.000405	4.054591	1.373733	-0.000162
1040	1.0338e+02	-1.4294	16.150562	0.000497	4.966874	1.682823	-0.000199
1041	1.0348e+02	-1.4695	15.997150	0.000385	3.851862	1.305046	-0.000154
1042	1.0358e+02	-1.4967	15.863925	0.000335	3.345038	1.133329	-0.000134
1043	1.0368e+02	-1.5481	15.641882	0.000558	5.575063	1.888882	-0.000223
1044	1.0378e+02	-1.5754	15.496546	0.000365	3.649132	1.236359	-0.000146
1045	1.0388e+02	-1.6267	15.355246	0.000355	3.547767	1.202016	-0.000142
1046	1.0398e+02	-1.6652	15.193760	0.000405	4.054591	1.373733	-0.000162
1047	1.0408e+02	-1.6989	15.016126	0.000446	4.460050	1.511106	-0.000179
1048	1.0418e+02	-1.7454	14.822344	0.000487	4.865509	1.648479	-0.000195
1049	1.0428e+02	-1.7887	14.668933	0.000385	3.851862	1.305046	-0.000154
1050	1.0438e+02	-1.8176	14.467076	0.000507	5.068239	1.717166	-0.000203
1051	1.0447e+02	-1.8641	14.329813	0.000345	3.446403	1.167673	-0.000138
1052	1.0457e+02	-1.9010	14.180439	0.000375	3.750497	1.270703	-0.000150
1053	1.0467e+02	-1.9459	14.002805	0.000446	4.460050	1.511106	-0.000179
1054	1.0477e+02	-1.9748	13.825171	0.000446	4.460050	1.511106	-0.000179
1055	1.0487e+02	-2.0165	13.679834	0.000365	3.649132	1.236359	-0.000146
1056	1.0497e+02	-2.0614	13.514312	0.000416	4.155956	1.408076	-0.000166
1057	1.0507e+02	-2.0951	13.348789	0.000416	4.155956	1.408076	-0.000166
1058	1.0517e+02	-2.1368	13.183267	0.000416	4.155956	1.408076	-0.000166
1059	1.0527e+02	-2.1737	13.005633	0.000446	4.460050	1.511106	-0.000179
1060	1.0537e+02	-2.2187	12.799739	0.000517	5.169604	1.751509	-0.000207
1061	1.0547e+02	-2.2668	12.694773	0.000264	2.635484	0.892926	-0.000105
1062	1.0557e+02	-2.3021	12.521176	0.000436	4.358686	1.476763	-0.000174
1063	1.0567e+02	-2.3326	12.339505	0.000456	4.561415	1.545449	-0.000183
1064	1.0577e+02	-2.3823	12.198206	0.000355	3.547767	1.202016	-0.000142
1065	1.0587e+02	-2.4144	12.016535	0.000456	4.561415	1.545449	-0.000183
1066	1.0597e+02	-2.4625	11.826789	0.000476	4.764145	1.614136	-0.000191
1067	1.0607e+02	-2.4978	11.709712	0.000294	2.939579	0.995956	-0.000118
1068	1.0617e+02	-2.5331	11.544190	0.000416	4.155956	1.408076	-0.000166
1069	1.0627e+02	-2.5764	11.362519	0.000456	4.561415	1.545449	-0.000183
1070	1.0637e+02	-2.6213	11.205070	0.000395	3.953226	1.339389	-0.000158
1071	1.0647e+02	-2.6566	11.027436	0.000446	4.460050	1.511106	-0.000179
1072	1.0656e+02	-2.7015	10.886137	0.000355	3.547767	1.202016	-0.000142
1073	1.0666e+02	-2.7416	10.696391	0.000476	4.764145	1.614136	-0.000191
1074	1.0676e+02	-2.7641	10.563166	0.000335	3.345038	1.133329	-0.000134
1075	1.0686e+02	-2.8170	10.421866	0.000355	3.547767	1.202016	-0.000142
1076	1.0696e+02	-2.8571	10.224046	0.000497	4.966874	1.682823	-0.000199
1077	1.0706e+02	-2.8956	10.102932	0.000304	3.040943	1.030300	-0.000122
1078	1.0716e+02	-2.9341	9.893001	0.000527	5.270969	1.785853	-0.000211
1079	1.0726e+02	-2.9855	9.755739	0.000345	3.446403	1.167673	-0.000138
1080	1.0736e+02	-3.0127	9.618476	0.000345	3.446403	1.167673	-0.000138
1081	1.0746e+02	-3.0609	9.416619	0.000507	5.068239	1.717166	-0.000203
1082	1.0756e+02	-3.0898	9.275319	0.000355	3.547767	1.202016	-0.000142
1083	1.0766e+02	-3.1315	9.129982	0.000365	3.649132	1.236359	-0.000146
1084	1.0776e+02	-3.1780	8.940237	0.000476	4.764145	1.614136	-0.000191
1085	1.0786e+02	-3.2085	8.815086	0.000314	3.142308	1.064643	-0.000126
1086	1.0796e+02	-3.2534	8.693972	0.000304	3.040943	1.030300	-0.000122
1087	1.0806e+02	-3.2967	8.516338	0.000446	4.460050	1.511106	-0.000179
1088	1.0816e+02	-3.3448	8.358890	0.000395	3.953226	1.339389	-0.000158
1089	1.0826e+02	-3.3769	8.205478	0.000385	3.851862	1.305046	-0.000154
1090	1.0836e+02	-3.4090	8.056104	0.000375	3.750497	1.270703	-0.000150
1091	1.0845e+02	-3.4507	7.902693	0.000385	3.851862	1.305046	-0.000154
1092	1.0855e+02	-3.4908	7.733134	0.000426	4.257321	1.442419	-0.000170
1093	1.0865e+02	-3.5261	7.555500	0.000446	4.460050	1.511106	-0.000179
1094	1.0875e+02	-3.5694	7.458608	0.000243	2.432755	0.824240	-0.000097
1095	1.0885e+02	-3.6143	7.293086	0.000416	4.155956	1.408076	-0.000166
1096	1.0895e+02	-3.6496	7.139675	0.000385	3.851862	1.305046	-0.000154
1097	1.0905e+02	-3.6913	6.974152	0.000416	4.155956	1.408076	-0.000166
1098	1.0915e+02	-3.7266	6.857075	0.000294	2.939579	0.995956	-0.000118
1099	1.0925e+02	-3.7683	6.711738	0.000365	3.649132	1.236359	-0.000146
1100	1.0935e+02	-3.8101	6.530067	0.000456	4.561415	1.545449	-0.000183
1101	1.0945e+02	-3.8598	6.388767	0.000355	3.547767	1.202016	-0.000142
1102	1.0955e+02	-3.8887	6.247468	0.000355	3.547767	1.202016	-0.000142
1103	1.0965e+02	-3.9336	6.110205	0.000345	3.446403	1.167673	-0.000138
1104	1.0975e+02	-3.9737	5.936608	0.000436	4.358686	1.476763	-0.000174
1105	1.0985e+02	-4.0218	5.811457	0.000314	3.142308	1.064643	-0.000126
1106	1.0995e+02	-4.0587	5.645934	0.000416	4.155956	1.408076	-0.000166
1107	1.1005e+02	-4.0876	5.508672	0.000345	3.446403	1.167673	-0.000138
1108	1.1015e+02	-4.1357	5.363335	0.000365	3.649132	1.236359	-0.000146
1109	1.1025e+02	-4.1822	5.201849	0.000405	4.054591	1.373733	-0.000162
1110	1.1035e+02	-4.2143	5.056513	0.000365	3.649132	1.236359	-0.000146
1111	1.1044e+02	-4.2576	4.911176	0.000365	3.649132	1.236359	-0.000146
1112	1.1054e+02	-4.2897	4.790062	0.000304	3.040943	1.030300	-0.000122
1113	1.1064e+02	-4.3314	4.616465	0.000436	4.358686	1.476763	-0.000174
1114	1.1074e+02	-4.3715	4.499388	0.000294	2.939579	0.995956	-0.000118
1115	1.1084e+02	-4.4068	4.317717	0.000456	4.561415	1.545449	-0.000183
1116	1.1094e+02	-4.4550	4.176417	0.000355	3.547767	1.202016	-0.000142
1117	1.1104e+02	-4.4902	4.055303	0.000304	3.040943	1.030300	-0.000122
1118	1.1114e+02	-4.5368	3.954374	0.000253	2.534120	0.858583	-0.000101
1119	1.1124e+02	-4.5689	3.752518	0.000507	5.068239	1.717166	-0.000203
1120	1.1134e+02	-4.6122	3.619292	0.000335	3.345038	1.133329	-0.000134
1121	1.1144e+02	-4.6459	3.473955	0.000365	3.649132	1.236359	-0.000146
1122	1.1154e+02	-4.6908	3.368990	0.000264	2.635484	0.892926	-0.000105
1123	1.1164e+02	-4.7373	3.195393	0.000436	4.358686	1.476763	-0.000174
1124	1.1174e+02	-4.7710	3.074279	0.000304	3.040943	1.030300	-0.000122
1125	1.1184e+02	-4.8095	2.953165	0.000304	3.040943	1.030300	-0.000122
1126	1.1194e+02	-4.8464	2.791679	0.000405	4.054591	1.373733	-0.000162
1127	1.1204e+02	-4.8849	2.658454	0.000335	3.345038	1.133329	-0.000134
1128	1.1214e+02	-4.9298	2.484857	0.000436	4.358686	1.476763	-0.000174
1129	1.1224e+02	-4.9603	2.379892	0.000264	2.635484	0.892926	-0.000105
1130	1.1234e+02	-5.0068	2.246666	0.000335	3.345038	1.133329	-0.000134
1131	1.1244e+02	-5.0533	2.089218	0.000395	3.953226	1.339389	-0.000158
1132	1.1253e+02	-5.0870	1.939844	0.000375	3.750497	1.270703	-0.000150
1133	1.1263e+02	-5.1351	1.810655	0.000324	3.243673	1.098986	-0.000130
1134	1.1273e+02	-5.1704	1.701653	0.000274	2.736849	0.927270	-0.000110
1135	1.1283e+02	-5.2025	1.532093	0.000426	4.257321	1.442419	-0.000170
1136	1.1293e+02	-5.2507	1.374645	0.000395	3.953226	1.339389	-0.000158
1137	1.1303e+02	-5.2859	1.261605	0.000284	2.838214	0.961613	-0.000114
1138	1.1313e+02	-5.3373	1.132417	0.000324	3.243673	1.098986	-0.000130
1139	1.1323e+02	-5.3678	1.019377	0.000284	2.838214	0.961613	-0.000114
1140	1.1333e+02	-5.4047	0.857891	0.000405	4.054591	1.373733	-0.000162
1141	1.1343e+02	-5.4608	0.680257	0.000446	4.460050	1.511106	-0.000179
1142	1.1353e+02	-5.4833	0.571255	0.000274	2.736849	0.927270	-0.000110
1143	1.1363e+02	-5.5250	0.462252	0.000274	2.736849	0.927270	-0.000110
1144	1.1373e+02	-5.5699	0.296729	0.000416	4.155956	1.408076	-0.000166
1145	1.1383e+02	-5.6164	0.175615	0.000304	3.040943	1.030300	-0.000122
1146	1.1393e+02	-5.6421	0.034316	0.000355	3.547767	1.202016	-0.000142
1147	1.1403e+02	-5.6918	-0.082761	0.000294	2.939579	0.995956	-0.000118
1148	1.1413e+02	-5.7303	-0.260395	0.000446	4.460050	1.511106	-0.000179
1149	1.1423e+02	-5.7672	-0.385546	0.000314	3.142308	1.064643	-0.000126
1150	1.1433e+02	-5.8025	-0.502623	0.000294	2.939579	0.995956	-0.000118
1151	1.1442e+02	-5.8378	-0.639886	0.000345	3.446403	1.167673	-0.000138
1152	1.1452e+02	-5.8843	-0.785223	0.000365	3.649132	1.236359	-0.000146
1153	1.1462e+02	-5.9260	-0.934597	0.000375	3.750497	1.270703	-0.000150
1154	1.1472e+02	-5.9742	-1.039562	0.000264	2.635484	0.892926	-0.000105
1155	1.1482e+02	-6.0030	-1.188936	0.000375	3.750497	1.270703	-0.000150
1156	1.1492e+02	-6.0464	-1.301976	0.000284	2.838214	0.961613	-0.000114
1157	1.1502e+02	-6.0800	-1.423090	0.000304	3.040943	1.030300	-0.000122
1158	1.1512e+02	-6.1218	-1.584576	0.000405	4.054591	1.373733	-0.000162
1159	1.1522e+02	-6.1699	-1.709727	0.000314	3.142308	1.064643	-0.000126
1160	1.1532e+02	-6.1972	-1.842952	0.000335	3.345038	1.133329	-0.000134
1161	1.1542e+02	-6.2421	-2.004438	0.000405	4.054591	1.373733	-0.000162
1162	1.1552e+02	-6.2822	-2.101329	0.000243	2.432755	0.824240	-0.000097
1163	1.1562e+02	-6.3207	-2.230517	0.000324	3.243673	1.098986	-0.000130
1164	1.1572e+02	-6.3672	-2.379892	0.000375	3.750497	1.270703	-0.000150
1165	1.1582e+02	-6.3993	-2.513117	0.000335	3.345038	1.133329	-0.000134
1166	1.1592e+02	-6.4474	-2.654417	0.000355	3.547767	1.202016	-0.000142
1167	1.1602e+02	-6.4747	-2.735159	0.000203	2.027296	0.686866	-0.000081
1168	1.1612e+02	-6.5164	-2.920868	0.000466	4.662780	1.579793	-0.000187
1169	1.1622e+02	-6.5613	-3.050056	0.000324	3.243673	1.098986	-0.000130
1170	1.1632e+02	-6.6046	-3.138873	0.000223	2.230025	0.755553	-0.000089
1171	1.1642e+02	-6.6415	-3.304396	0.000416	4.155956	1.408076	-0.000166
1172	1.1651e+02	-6.6800	-3.477992	0.000436	4.358686	1.476763	-0.000174
1173	1.1661e+02	-6.7185	-3.586995	0.000274	2.736849	0.927270	-0.000110
1174	1.1671e+02	-6.7667	-3.712146	0.000314	3.142308	1.064643	-0.000126
1175	1.1681e+02	-6.8036	-3.865557	0.000385	3.851862	1.305046	-0.000154
1176	1.1691e+02	-6.8340	-3.958412	0.000233	2.331390	0.789896	-0.000093
1177	1.1701e+02	-6.8854	-4.107786	0.000375	3.750497	1.270703	-0.000150
1178	1.1711e+02	-6.9191	-4.245048	0.000345	3.446403	1.167673	-0.000138
1179	1.1721e+02	-6.9431	-4.337902	0.000233	2.331390	0.789896	-0.000093
1180	1.1731e+02	-6.9945	-4.471128	0.000335	3.345038	1.133329	-0.000134
1181	1.1741e+02	-7.0442	-4.604353	0.000335	3.345038	1.133329	-0.000134
1182	1.1751e+02	-7.0795	-4.737579	0.000335	3.345038	1.133329	-0.000134
1183	1.1761e+02	-7.1132	-4.907138	0.000426	4.257321	1.442419	-0.000170
1184	1.1771e+02	-7.1565	-5.012104	0.000264	2.635484	0.892926	-0.000105
1185	1.1781e+02	-7.2014	-5.157441	0.000365	3.649132	1.236359	-0.000146
1186	1.1791e+02	-7.2463	-5.262406	0.000264	2.635484	0.892926	-0.000105
1187	1.1801e+02	-7.2800	-5.431966	0.000426	4.257321	1.442419	-0.000170
1188	1.1811e+02	-7.3185	-5.528857	0.000243	2.432755	0.824240	-0.000097
1189	1.1821e+02	-7.3586	-5.674194	0.000365	3.649132	1.236359	-0.000146
1190	1.1831e+02	-7.3971	-5.783197	0.000274	2.736849	0.927270	-0.000110
1191	1.1841e+02	-7.4388	-5.924497	0.000355	3.547767	1.202016	-0.000142
1192	1.1850e+02	-7.4741	-6.106168	0.000456	4.561415	1.545449	-0.000183
1193	1.1860e+02	-7.5206	-6.190948	0.000213	2.128660	0.721210	-0.000085
1194	1.1870e+02	-7.5575	-6.328210	0.000345	3.446403	1.167673	-0.000138
1195	1.1880e+02	-7.5993	-6.457399	0.000324	3.243673	1.098986	-0.000130
1196	1.1890e+02	-7.6378	-6.574476	0.000294	2.939579	0.995956	-0.000118
1197	1.1900e+02	-7.6714	-6.711738	0.000345	3.446403	1.167673	-0.000138
1198	1.1910e+02	-7.7164	-6.840927	0.000324	3.243673	1.098986	-0.000130
1199	1.1920e+02	-7.7581	-6.974152	0.000335	3.345038	1.133329	-0.000134
1200	1.1930e+02	-7.7902	-7.119489	0.000365	3.649132	1.236359	-0.000146
1201	1.1940e+02	-7.8254	-7.236566	0.000294	2.939579	0.995956	-0.000118
1202	1.1950e+02	-7.8752	-7.369791	0.000335	3.345038	1.133329	-0.000134
1203	1.1960e+02	-7.9105	-7.478794	0.000274	2.736849	0.927270	-0.000110
1204	1.1970e+02	-7.9602	-7.632205	0.000385	3.851862	1.305046	-0.000154
1205	1.1980e+02	-8.0019	-7.761393	0.000324	3.243673	1.098986	-0.000130
1206	1.1990e+02	-8.0420	-7.866359	0.000264	2.635484	0.892926	-0.000105
1207	1.2000e+02	-8.0677	-8.007659	0.000355	3.547767	1.202016	-0.000142
1208	1.2010e+02	-8.1190	-8.140884	0.000335	3.345038	1.133329	-0.000134
1209	1.2020e+02	-8.1559	-8.261998	0.000304	3.040943	1.030300	-0.000122
1210	1.2030e+02	-8.1960	-8.431558	0.000426	4.257321	1.442419	-0.000170
1211	1.2039e+02	-8.2361	-8.500189	0.000172	1.723201	0.583836	-0.000069
1212	1.2049e+02	-8.2794	-8.657638	0.000395	3.953226	1.339389	-0.000158
1213	1.2059e+02	-8.3260	-8.770677	0.000284	2.838214	0.961613	-0.000114
1214	1.2069e+02	-8.3468	-8.916014	0.000365	3.649132	1.236359	-0.000146
1215	1.2079e+02	-8.3982	-9.077500	0.000405	4.054591	1.373733	-0.000162
1216	1.2089e+02	-8.4367	-9.166317	0.000223	2.230025	0.755553	-0.000089
1217	1.2099e+02	-8.4784	-9.291468	0.000314	3.142308	1.064643	-0.000126
1218	1.2109e+02	-8.5137	-9.412582	0.000304	3.040943	1.030300	-0.000122
1219	1.2119e+02	-8.5570	-9.578105	0.000416	4.155956	1.408076	-0.000166
1220	1.2129e+02	-8.5939	-9.699219	0.000304	3.040943	1.030300	-0.000122
1221	1.2139e+02	-8.6276	-9.800147	0.000253	2.534120	0.858583	-0.000101
1222	1.2149e+02	-8.6725	-9.905113	0.000264	2.635484	0.892926	-0.000105
1223	1.2159e+02	-8.7014	-10.042375	0.000345	3.446403	1.167673	-0.000138
1224	1.2169e+02	-8.7575	-10.203861	0.000405	4.054591	1.373733	-0.000162
1225	1.2179e+02	-8.7928	-10.312863	0.000274	2.736849	0.927270	-0.000110
1226	1.2189e+02	-8.8345	-10.486460	0.000436	4.358686	1.476763	-0.000174
1227	1.2199e+02	-8.8746	-10.575277	0.000223	2.230025	0.755553	-0.000089
1228	1.2209e+02	-8.8971	-10.688317	0.000284	2.838214	0.961613	-0.000114
1229	1.2219e+02	-8.9564	-10.833654	0.000365	3.649132	1.236359	-0.000146
1230	1.2229e+02	-8.9805	-10.942656	0.000274	2.736849	0.927270	-0.000110
1231	1.2239e+02	-9.0286	-11.100105	0.000395	3.953226	1.339389	-0.000158
1232	1.2248e+02	-9.0623	-11.209107	0.000274	2.736849	0.927270	-0.000110
1233	1.2258e+02	-9.1072	-11.330221	0.000304	3.040943	1.030300	-0.000122
1234	1.2268e+02	-9.1554	-11.443261	0.000284	2.838214	0.961613	-0.000114
1235	1.2278e+02	-9.1923	-11.584561	0.000355	3.547767	1.202016	-0.000142
1236	1.2288e+02	-9.2211	-11.693564	0.000274	2.736849	0.927270	-0.000110
1237	1.2298e+02	-9.2693	-11.842938	0.000375	3.750497	1.270703	-0.000150
1238	1.2308e+02	-9.3094	-11.976163	0.000335	3.345038	1.133329	-0.000134
1239	1.2318e+02	-9.3463	-12.064980	0.000223	2.230025	0.755553	-0.000089
1240	1.2328e+02	-9.3944	-12.218391	0.000385	3.851862	1.305046	-0.000154
1241	1.2338e+02	-9.4329	-12.287023	0.000172	1.723201	0.583836	-0.000069
1242	1.2348e+02	-9.4682	-12.476768	0.000476	4.764145	1.614136	-0.000191
1243	1.2358e+02	-9.5147	-12.553474	0.000193	1.925931	0.652523	-0.000077
1244	1.2368e+02	-9.5500	-12.698810	0.000365	3.649132	1.236359	-0.000146
1245	1.2378e+02	-9.5917	-12.783590	0.000213	2.128660	0.721210	-0.000085
1246	1.2388e+02	-9.6270	-12.908742	0.000314	3.142308	1.064643	-0.000126
1247	1.2398e+02	-9.6671	-13.021781	0.000284	2.838214	0.961613	-0.000114
1248	1.2408e+02	-9.7104	-13.175192	0.000385	3.851862	1.305046	-0.000154
1249	1.2418e+02	-9.7505	-13.284195	0.000274	2.736849	0.927270	-0.000110
1250	1.2428e+02	-9.7810	-13.393198	0.000274	2.736849	0.927270	-0.000110
1251	1.2438e+02	-9.8307	-13.518349	0.000314	3.142308	1.064643	-0.000126
1252	1.2447e+02	-9.8676	-13.651574	0.000335	3.345038	1.133329	-0.000134
1253	1.2457e+02	-9.9077	-13.764614	0.000284	2.838214	0.961613	-0.000114
1254	1.2467e+02	-9.9495	-13.885728	0.000304	3.040943	1.030300	-0.000122
1255	1.2477e+02	-9.9976	-14.027028	0.000355	3.547767	1.202016	-0.000142
1256	1.2487e+02	-10.0232	-14.115845	0.000223	2.230025	0.755553	-0.000089
1257	1.2497e+02	-10.0746	-14.269256	0.000385	3.851862	1.305046	-0.000154
1258	1.2507e+02	-10.1147	-14.374222	0.000264	2.635484	0.892926	-0.000105
1259	1.2517e+02	-10.1468	-14.475150	0.000253	2.534120	0.858583	-0.000101
1260	1.2527e+02	-10.1885	-14.604339	0.000324	3.243673	1.098986	-0.000130
1261	1.2537e+02	-10.2254	-14.685081	0.000203	2.027296	0.686866	-0.000081
1262	1.2547e+02	-10.2687	-14.850604	0.000416	4.155956	1.408076	-0.000166
1263	1.2557e+02	-10.3056	-14.963644	0.000284	2.838214	0.961613	-0.000114
1264	1.2567e+02	-10.3441	-15.036312	0.000182	1.824566	0.618180	-0.000073
1265	1.2577e+02	-10.3890	-15.213946	0.000446	4.460050	1.511106	-0.000179
1266	1.2587e+02	-10.4371	-15.331023	0.000294	2.939579	0.995956	-0.000118
1267	1.2597e+02	-10.4580	-15.456174	0.000314	3.142308	1.064643	-0.000126
1268	1.2607e+02	-10.5077	-15.536917	0.000203	2.027296	0.686866	-0.000081
1269	1.2617e+02	-10.5462	-15.670142	0.000335	3.345038	1.133329	-0.000134
1270	1.2627e+02	-10.5944	-15.787219	0.000294	2.939579	0.995956	-0.000118
1271	1.2636e+02	-10.6232	-15.896222	0.000274	2.736849	0.927270	-0.000110
1272	1.2646e+02	-10.6617	-16.033485	0.000345	3.446403	1.167673	-0.000138
1273	1.2656e+02	-10.7099	-16.126339	0.000233	2.331390	0.789896	-0.000093
1274	1.2666e+02	-10.7452	-16.263601	0.000345	3.446403	1.167673	-0.000138
1275	1.2676e+02	-10.7853	-16.356455	0.000233	2.331390	0.789896	-0.000093
1276	1.2686e+02	-10.8254	-16.465458	0.000274	2.736849	0.927270	-0.000110
1277	1.2696e+02	-10.8542	-16.590609	0.000314	3.142308	1.064643	-0.000126
1278	1.2706e+02	-10.9024	-16.703649	0.000284	2.838214	0.961613	-0.000114
1279	1.2716e+02	-10.9505	-16.816689	0.000284	2.838214	0.961613	-0.000114
1280	1.2726e+02	-10.9810	-16.978174	0.000405	4.054591	1.373733	-0.000162
1281	1.2736e+02	-11.0291	-17.083140	0.000264	2.635484	0.892926	-0.000105
1282	1.2746e+02	-11.0644	-17.184068	0.000253	2.534120	0.858583	-0.000101
1283	1.2756e+02	-11.0965	-17.305182	0.000304	3.040943	1.030300	-0.000122
1284	1.2766e+02	-11.1302	-17.422259	0.000294	2.939579	0.995956	-0.000118
1285	1.2776e+02	-11.1815	-17.498965	0.000193	1.925931	0.652523	-0.000077
1286	1.2786e+02	-11.2264	-17.656413	0.000395	3.953226	1.339389	-0.000158
1287	1.2796e+02	-11.2681	-17.716970	0.000152	1.520472	0.515150	-0.000061
1288	1.2806e+02	-11.2954	-17.882493	0.000416	4.155956	1.408076	-0.000166
1289	1.2816e+02	-11.3467	-17.943050	0.000152	1.520472	0.515150	-0.000061
1290	1.2826e+02	-11.3836	-18.076275	0.000335	3.345038	1.133329	-0.000134
1291	1.2835e+02	-11.4205	-18.233724	0.000395	3.953226	1.339389	-0.000158
1292	1.2845e+02	-11.4590	-18.310429	0.000193	1.925931	0.652523	-0.000077
1293	1.2855e+02	-11.5072	-18.467877	0.000395	3.953226	1.339389	-0.000158
1294	1.2865e+02	-11.5344	-18.528434	0.000152	1.520472	0.515150	-0.000061
1295	1.2875e+02	-11.5761	-18.677808	0.000375	3.750497	1.270703	-0.000150
1296	1.2885e+02	-11.6162	-18.774700	0.000243	2.432755	0.824240	-0.000097
1297	1.2895e+02	-11.6628	-18.883702	0.000274	2.736849	0.927270	-0.000110
1298	1.2905e+02	-11.7013	-19.025002	0.000355	3.547767	1.202016	-0.000142
1299	1.2915e+02	-11.7302	-19.125931	0.000253	2.534120	0.858583	-0.000101
1300	1.2925e+02	-11.7863	-19.214748	0.000223	2.230025	0.755553	-0.000089
1301	1.2935e+02	-11.8120	-19.327787	0.000284	2.838214	0.961613	-0.000114
1302	1.2945e+02	-11.8537	-19.444864	0.000294	2.939579	0.995956	-0.000118
1303	1.2955e+02	-11.9034	-19.598275	0.000385	3.851862	1.305046	-0.000154
1304	1.2965e+02	-11.9355	-19.695167	0.000243	2.432755	0.824240	-0.000097
1305	1.2975e+02	-11.9740	-19.808206	0.000284	2.838214	0.961613	-0.000114
1306	1.2985e+02	-12.0189	-19.965655	0.000395	3.953226	1.339389	-0.000158
1307	1.2995e+02	-12.0767	-20.006026	0.000101	1.013648	0.343433	-0.000041
1308	1.3005e+02	-12.1007	-20.191734	0.000466	4.662780	1.579793	-0.000187
1309	1.3015e+02	-12.1312	-20.308811	0.000294	2.939579	0.995956	-0.000118
1310	1.3025e+02	-12.1809	-20.413777	0.000264	2.635484	0.892926	-0.000105
1311	1.3034e+02	-12.2146	-20.551039	0.000345	3.446403	1.167673	-0.000138
1312	1.3044e+02	-12.2579	-20.664079	0.000284	2.838214	0.961613	-0.000114
1313	1.3054e+02	-12.2964	-20.813453	0.000375	3.750497	1.270703	-0.000150
1314	1.3064e+02	-12.3349	-20.914382	0.000253	2.534120	0.858583	-0.000101
1315	1.3074e+02	-12.3718	-21.092016	0.000446	4.460050	1.511106	-0.000179
1316	1.3084e+02	-12.4168	-21.160647	0.000172	1.723201	0.583836	-0.000069
1317	1.3094e+02	-12.4488	-21.305984	0.000365	3.649132	1.236359	-0.000146
1318	1.3104e+02	-12.4954	-21.467469	0.000405	4.054591	1.373733	-0.000162
1319	1.3114e+02	-12.5403	-21.560323	0.000233	2.331390	0.789896	-0.000093
1320	1.3124e+02	-12.5756	-21.665289	0.000264	2.635484	0.892926	-0.000105
1321	1.3134e+02	-12.6205	-21.822737	0.000395	3.953226	1.339389	-0.000158
1322	1.3144e+02	-12.6574	-21.951926	0.000324	3.243673	1.098986	-0.000130
1323	1.3154e+02	-12.7007	-22.093225	0.000355	3.547767	1.202016	-0.000142
1324	1.3164e+02	-12.7392	-22.246636	0.000385	3.851862	1.305046	-0.000154
1325	1.3174e+02	-12.7761	-22.383899	0.000345	3.446403	1.167673	-0.000138
1326	1.3184e+02	-12.8082	-22.496939	0.000284	2.838214	0.961613	-0.000114
1327	1.3194e+02	-12.8467	-22.642276	0.000365	3.649132	1.236359	-0.000146
1328	1.3204e+02	-12.8980	-22.775501	0.000335	3.345038	1.133329	-0.000134
1329	1.3214e+02	-12.9237	-22.912764	0.000345	3.446403	1.167673	-0.000138
1330	1.3224e+02	-12.9702	-23.025804	0.000284	2.838214	0.961613	-0.000114
1331	1.3234e+02	-13.0183	-23.195363	0.000426	4.257321	1.442419	-0.000170
1332	1.3243e+02	-13.0585	-23.336663	0.000355	3.547767	1.202016	-0.000142
1333	1.3253e+02	-13.0889	-23.482000	0.000365	3.649132	1.236359	-0.000146
1334	1.3263e+02	-13.1322	-23.623300	0.000355	3.547767	1.202016	-0.000142
1335	1.3273e+02	-13.1740	-23.752488	0.000324	3.243673	1.098986	-0.000130
1336	1.3283e+02	-13.2012	-23.926085	0.000436	4.358686	1.476763	-0.000174
1337	1.3293e+02	-13.2494	-24.107756	0.000456	4.561415	1.545449	-0.000183
1338	1.3303e+02	-13.2911	-24.236944	0.000324	3.243673	1.098986	-0.000130
1339	1.3313e+02	-13.3360	-24.394393	0.000395	3.953226	1.339389	-0.000158
1340	1.3323e+02	-13.3729	-24.539730	0.000365	3.649132	1.236359	-0.000146
1341	1.3333e+02	-13.4178	-24.672955	0.000335	3.345038	1.133329	-0.000134
1342	1.3343e+02	-13.4547	-24.830403	0.000395	3.953226	1.339389	-0.000158
1343	1.3353e+02	-13.4916	-24.947480	0.000294	2.939579	0.995956	-0.000118
1344	1.3363e+02	-13.5221	-25.161448	0.000537	5.372333	1.820196	-0.000215
1345	1.3373e+02	-13.5718	-25.322934	0.000405	4.054591	1.373733	-0.000162
1346	1.3383e+02	-13.6167	-25.484419	0.000405	4.054591	1.373733	-0.000162
1347	1.3393e+02	-13.6568	-25.670128	0.000466	4.662780	1.579793	-0.000187
1348	1.3403e+02	-13.6905	-25.758945	0.000223	2.230025	0.755553	-0.000089
1349	1.3413e+02	-13.7435	-25.980987	0.000558	5.575063	1.888882	-0.000223
1350	1.3423e+02	-13.7820	-26.102101	0.000304	3.040943	1.030300	-0.000122
1351	1.3432e+02	-13.8140	-26.295884	0.000487	4.865509	1.648479	-0.000195
1352	1.3442e+02	-13.8461	-26.465443	0.000426	4.257321	1.442419	-0.000170
1353	1.3452e+02	-13.9007	-26.578483	0.000284	2.838214	0.961613	-0.000114
1354	1.3462e+02	-13.9247	-26.796488	0.000547	5.473698	1.854539	-0.000219
1355	1.3472e+02	-13.9632	-26.966048	0.000426	4.257321	1.442419	-0.000170
1356	1.3482e+02	-14.0130	-27.115422	0.000375	3.750497	1.270703	-0.000150
1357	1.3492e+02	-14.0483	-27.276908	0.000405	4.054591	1.373733	-0.000162
1358	1.3502e+02	-14.0868	-27.434356	0.000395	3.953226	1.339389	-0.000158
1359	1.3512e+02	-14.1317	-27.591804	0.000395	3.953226	1.339389	-0.000158
1360	1.3522e+02	-14.1766	-27.789624	0.000497	4.966874	1.682823	-0.000199
1361	1.3532e+02	-14.2167	-27.959184	0.000426	4.257321	1.442419	-0.000170
1362	1.3542e+02	-14.2536	-28.165077	0.000517	5.169604	1.751509	-0.000207
1363	1.3552e+02	-14.2857	-28.298303	0.000335	3.345038	1.133329	-0.000134
1364	1.3562e+02	-14.3386	-28.516308	0.000547	5.473698	1.854539	-0.000219
1365	1.3572e+02	-14.3707	-28.697979	0.000456	4.561415	1.545449	-0.000183
1366	1.3582e+02	-14.4092	-28.863502	0.000416	4.155956	1.408076	-0.000166
1367	1.3592e+02	-14.4525	-29.065359	0.000507	5.068239	1.717166	-0.000203
1368	1.3602e+02	-14.4958	-29.210696	0.000365	3.649132	1.236359	-0.000146
1369	1.3612e+02	-14.5360	-29.372181	0.000405	4.054591	1.373733	-0.000162
1370	1.3622e+02	-14.5761	-29.594224	0.000558	5.575063	1.888882	-0.000223
1371	1.3631e+02	-14.6049	-29.788006	0.000487	4.865509	1.648479	-0.000195
1372	1.3641e+02	-14.6499	-29.965640	0.000446	4.460050	1.511106	-0.000179
1373	1.3651e+02	-14.6884	-30.123088	0.000395	3.953226	1.339389	-0.000158
1374	1.3661e+02	-14.7285	-30.328982	0.000517	5.169604	1.751509	-0.000207
1375	1.3671e+02	-14.7750	-30.530839	0.000507	5.068239	1.717166	-0.000203
1376	1.3681e+02	-14.8151	-30.732696	0.000507	5.068239	1.717166	-0.000203
1377	1.3691e+02	-14.8472	-30.938590	0.000517	5.169604	1.751509	-0.000207
1378	1.3701e+02	-14.8921	-31.120261	0.000456	4.561415	1.545449	-0.000183
1379	1.3711e+02	-14.9242	-31.289821	0.000426	4.257321	1.442419	-0.000170
1380	1.3721e+02	-14.9803	-31.511863	0.000558	5.575063	1.888882	-0.000223
1381	1.3731e+02	-15.0092	-31.725831	0.000537	5.372333	1.820196	-0.000215
1382	1.3741e+02	-15.0349	-31.947874	0.000558	5.575063	1.888882	-0.000223
1383	1.3751e+02	-15.0734	-32.117433	0.000426	4.257321	1.442419	-0.000170
1384	1.3761e+02	-15.1311	-32.311216	0.000487	4.865509	1.648479	-0.000195
1385	1.3771e+02	-15.1504	-32.533258	0.000558	5.575063	1.888882	-0.000223
1386	1.3781e+02	-15.2097	-32.718967	0.000466	4.662780	1.579793	-0.000187
1387	1.3791e+02	-15.2450	-32.953120	0.000588	5.879157	1.991912	-0.000235
1388	1.3801e+02	-15.3012	-33.118643	0.000416	4.155956	1.408076	-0.000166
1389	1.3811e+02	-15.3220	-33.340685	0.000558	5.575063	1.888882	-0.000223
1390	1.3821e+02	-15.3637	-33.550617	0.000527	5.270969	1.785853	-0.000211
1391	1.3831e+02	-15.4135	-33.764585	0.000537	5.372333	1.820196	-0.000215
1392	1.3840e+02	-15.4472	-34.010850	0.000618	6.183252	2.094942	-0.000248
1393	1.3850e+02	-15.4905	-34.188484	0.000446	4.460050	1.511106	-0.000179
1394	1.3860e+02	-15.5274	-34.402452	0.000537	5.372333	1.820196	-0.000215
1395	1.3870e+02	-15.5723	-34.616420	0.000537	5.372333	1.820196	-0.000215
1396	1.3880e+02	-15.5931	-34.838463	0.000558	5.575063	1.888882	-0.000223
1397	1.3890e+02	-15.6493	-35.060505	0.000558	5.575063	1.888882	-0.000223
1398	1.3900e+02	-15.6766	-35.278511	0.000547	5.473698	1.854539	-0.000219
1399	1.3910e+02	-15.7327	-35.557073	0.000699	6.994170	2.369689	-0.000280
1400	1.3920e+02	-15.7664	-35.714521	0.000395	3.953226	1.339389	-0.000158
1401	1.3930e+02	-15.7937	-35.956749	0.000608	6.081887	2.060599	-0.000243
1402	1.3940e+02	-15.8418	-36.207052	0.000628	6.284616	2.129286	-0.000252
1403	1.3950e+02	-15.8931	-36.376612	0.000426	4.257321	1.442419	-0.000170
1404	1.3960e+02	-15.9172	-36.626914	0.000628	6.284616	2.129286	-0.000252
1405	1.3970e+02	-15.9653	-36.865105	0.000598	5.980522	2.026256	-0.000239
1406	1.3980e+02	-16.0086	-37.107333	0.000608	6.081887	2.060599	-0.000243
1407	1.3990e+02	-16.0391	-37.321301	0.000537	5.372333	1.820196	-0.000215
1408	1.4000e+02	-16.0824	-37.595827	0.000689	6.892805	2.335346	-0.000276
1409	1.4010e+02	-16.1338	-37.834018	0.000598	5.980522	2.026256	-0.000239
1410	1.4020e+02	-16.1642	-38.072209	0.000598	5.980522	2.026256	-0.000239
1411	1.4029e+02	-16.2044	-38.274065	0.000507	5.068239	1.717166	-0.000203
1412	1.4039e+02	-16.2429	-38.524368	0.000628	6.284616	2.129286	-0.000252
1413	1.4049e+02	-16.2765	-38.758522	0.000588	5.879157	1.991912	-0.000235
1414	1.4059e+02	-16.3231	-38.992676	0.000588	5.879157	1.991912	-0.000235
1415	1.4069e+02	-16.3439	-39.255089	0.000659	6.588711	2.232316	-0.000264
1416	1.4079e+02	-16.4081	-39.477132	0.000558	5.575063	1.888882	-0.000223
1417	1.4089e+02	-16.4434	-39.775880	0.000750	7.500994	2.541405	-0.000300
1418	1.4099e+02	-16.4723	-39.993885	0.000547	5.473698	1.854539	-0.000219
1419	1.4109e+02	-16.5204	-40.296670	0.000760	7.602359	2.575749	-0.000304
1420	1.4119e+02	-16.5605	-40.530824	0.000588	5.879157	1.991912	-0.000235
1421	1.4129e+02	-16.5910	-40.728644	0.000497	4.966874	1.682823	-0.000199
1422	1.4139e+02	-16.6471	-41.051615	0.000811	8.109182	2.747465	-0.000325
1423	1.4149e+02	-16.6776	-41.309991	0.000649	6.487346	2.197972	-0.000260
1424	1.4159e+02	-16.7113	-41.560294	0.000628	6.284616	2.129286	-0.000252
1425	1.4169e+02	-16.7690	-41.818671	0.000649	6.487346	2.197972	-0.000260
1426	1.4179e+02	-16.8027	-42.097233	0.000699	6.994170	2.369689	-0.000280
1427	1.4189e+02	-16.8493	-42.400018	0.000760	7.602359	2.575749	-0.000304
1428	1.4199e+02	-16.8862	-42.626098	0.000568	5.676428	1.923226	-0.000227
1429	1.4209e+02	-16.9182	-42.924846	0.000750	7.500994	2.541405	-0.000300
1430	1.4219e+02	-16.9616	-43.203408	0.000699	6.994170	2.369689	-0.000280
1431	1.4228e+02	-16.9936	-43.469859	0.000669	6.690076	2.266659	-0.000268
1432	1.4238e+02	-17.0498	-43.699976	0.000578	5.777793	1.957569	-0.000231
1433	1.4248e+02	-17.0706	-43.994687	0.000740	7.399629	2.507062	-0.000296
1434	1.4258e+02	-17.1172	-44.301509	0.000770	7.703723	2.610092	-0.000308
1435	1.4268e+02	-17.1637	-44.584109	0.000710	7.095535	2.404032	-0.000284
1436	1.4278e+02	-17.1958	-44.890931	0.000770	7.703723	2.610092	-0.000308
1437	1.4288e+02	-17.2407	-45.169493	0.000699	6.994170	2.369689	-0.000280
1438	1.4298e+02	-17.2744	-45.468241	0.000750	7.500994	2.541405	-0.000300
1439	1.4308e+02	-17.3241	-45.758915	0.000730	7.298264	2.472719	-0.000292
1440	1.4318e+02	-17.3498	-46.049589	0.000730	7.298264	2.472719	-0.000292
1441	1.4328e+02	-17.3947	-46.380634	0.000831	8.311912	2.816152	-0.000333
1442	1.4338e+02	-17.4428	-46.655159	0.000689	6.892805	2.335346	-0.000276
1443	1.4348e+02	-17.4797	-46.941796	0.000720	7.196899	2.438376	-0.000288
1444	1.4358e+02	-17.5230	-47.260730	0.000801	8.007818	2.713122	-0.000321
1445	1.4368e+02	-17.5647	-47.539292	0.000699	6.994170	2.369689	-0.000280
1446	1.4378e+02	-17.5920	-47.898597	0.000902	9.021465	3.056555	-0.000361
1447	1.4388e+02	-17.6289	-48.173122	0.000689	6.892805	2.335346	-0.000276
1448	1.4398e+02	-17.6738	-48.508204	0.000841	8.413277	2.850495	-0.000337
1449	1.4408e+02	-17.7220	-48.815027	0.000770	7.703723	2.610092	-0.000308
1450	1.4418e+02	-17.7540	-49.129923	0.000791	7.906453	2.678779	-0.000316
1451	1.4428e+02	-17.7925	-49.408486	0.000699	6.994170	2.369689	-0.000280
1452	1.4437e+02	-17.8407	-49.787976	0.000953	9.528289	3.228272	-0.000381
1453	1.4447e+02	-17.8760	-50.098836	0.000781	7.805088	2.644435	-0.000312
1454	1.4457e+02	-17.9193	-50.446030	0.000872	8.717371	2.953525	-0.000349
1455	1.4467e+02	-17.9562	-50.748815	0.000760	7.602359	2.575749	-0.000304
1456	1.4477e+02	-17.9947	-51.128306	0.000953	9.528289	3.228272	-0.000381
1457	1.4487e+02	-18.0364	-51.491648	0.000912	9.122830	3.090899	-0.000365
1458	1.4497e+02	-18.0717	-51.802507	0.000781	7.805088	2.644435	-0.000312
1459	1.4507e+02	-18.1118	-52.121441	0.000801	8.007818	2.713122	-0.000321
1460	1.4517e+02	-18.1503	-52.500932	0.000953	9.528289	3.228272	-0.000381
1461	1.4527e+02	-18.1984	-52.791605	0.000730	7.298264	2.472719	-0.000292
1462	1.4537e+02	-18.2417	-53.207430	0.001044	10.440572	3.537362	-0.000418
1463	1.4547e+02	-18.2722	-53.538476	0.000831	8.311912	2.816152	-0.000333
1464	1.4557e+02	-18.3155	-53.885669	0.000872	8.717371	2.953525	-0.000349
1465	1.4567e+02	-18.3508	-54.269197	0.000963	9.629654	3.262615	-0.000385
1466	1.4577e+02	-18.3941	-54.612354	0.000862	8.616006	2.919182	-0.000345
1467	1.4587e+02	-18.4374	-54.971659	0.000902	9.021465	3.056555	-0.000361
1468	1.4597e+02	-18.4792	-55.351150	0.000953	9.528289	3.228272	-0.000381
1469	1.4607e+02	-18.5145	-55.734677	0.000963	9.629654	3.262615	-0.000385
1470	1.4617e+02	-18.5433	-56.118205	0.000963	9.629654	3.262615	-0.000385
1471	1.4626e+02	-18.5915	-56.481548	0.000912	9.122830	3.090899	-0.000365
1472	1.4636e+02	-18.6364	-56.897373	0.001044	10.440572	3.537362	-0.000418
1473	1.4646e+02	-18.6781	-57.280900	0.000963	9.629654	3.262615	-0.000385
1474	1.4656e+02	-18.7102	-57.680577	0.001004	10.035113	3.399988	-0.000402
1475	1.4666e+02	-18.7615	-58.060068	0.000953	9.528289	3.228272	-0.000381
1476	1.4676e+02	-18.7968	-58.471855	0.001034	10.339208	3.503018	-0.000414
1477	1.4686e+02	-18.8417	-58.863458	0.000983	9.832384	3.331302	-0.000394
1478	1.4696e+02	-18.8706	-59.259097	0.000993	9.933749	3.365645	-0.000398
1479	1.4706e+02	-18.9091	-59.695108	0.001095	10.947396	3.709078	-0.000438
1480	1.4716e+02	-18.9508	-60.062487	0.000922	9.224195	3.125242	-0.000369
1481	1.4726e+02	-18.9925	-60.510609	0.001125	11.251491	3.812108	-0.000450
1482	1.4736e+02	-19.0326	-60.934508	0.001064	10.643302	3.606048	-0.000426
1483	1.4746e+02	-19.0743	-61.366482	0.001085	10.846032	3.674735	-0.000434
1484	1.4756e+02	-19.1144	-61.842864	0.001196	11.961044	4.052511	-0.000479
1485	1.4766e+02	-19.1545	-62.230429	0.000973	9.731019	3.296958	-0.000390
1486	1.4776e+02	-19.1962	-62.686625	0.001145	11.454220	3.880795	-0.000458
1487	1.4786e+02	-19.2299	-63.098413	0.001034	10.339208	3.503018	-0.000414
1488	1.4796e+02	-19.2636	-63.570758	0.001186	11.859679	4.018168	-0.000475
1489	1.4806e+02	-19.3053	-64.010806	0.001105	11.048761	3.743422	-0.000442
1490	1.4816e+02	-19.3519	-64.454891	0.001115	11.150126	3.777765	-0.000446
1491	1.4825e+02	-19.3839	-64.907050	0.001135	11.352855	3.846452	-0.000454
1492	1.4835e+02	-19.4321	-65.375358	0.001176	11.758315	3.983825	-0.000471
1493	1.4845e+02	-19.4786	-65.847702	0.001186	11.859679	4.018168	-0.000475
1494	1.4855e+02	-19.5075	-66.311973	0.001166	11.656950	3.949482	-0.000467
1495	1.4865e+02	-19.5572	-66.788355	0.001196	11.961044	4.052511	-0.000479
1496	1.4875e+02	-19.5941	-67.301071	0.001287	12.873327	4.361601	-0.000515
1497	1.4885e+02	-19.6294	-67.741119	0.001105	11.048761	3.743422	-0.000442
1498	1.4895e+02	-19.6663	-68.233650	0.001237	12.366503	4.189885	-0.000495
1499	1.4905e+02	-19.7064	-68.681772	0.001125	11.251491	3.812108	-0.000450
1500	1.4915e+02	-19.7481	-69.230822	0.001379	13.785610	4.670691	-0.000552
1501	1.4925e+02	-19.7850	-69.731427	0.001257	12.569233	4.258571	-0.000503
1502	1.4935e+02	-19.8331	-70.280477	0.001379	13.785610	4.670691	-0.000552
1503	1.4945e+02	-19.8636	-70.773008	0.001237	12.366503	4.189885	-0.000495
1504	1.4955e+02	-19.9021	-71.281687	0.001277	12.771962	4.327258	-0.000511
1505	1.4965e+02	-19.9518	-71.794403	0.001287	12.873327	4.361601	-0.000515
1506	1.4975e+02	-19.9871	-72.331342	0.001348	13.481516	4.567661	-0.000540
1507	1.4985e+02	-20.0208	-72.876356	0.001368	13.684245	4.636348	-0.000548
1508	1.4995e+02	-19.9791	-73.239698	-0.000912	-9.122830	-3.090899	-0.000365
1509	1.5005e+02	-19.9454	-73.558632	-0.000801	-8.007818	-2.713122	-0.000321
1510	1.5015e+02	-19.9069	-73.817008	-0.000649	-6.487346	-2.197972	-0.000260
1511	1.5025e+02	-19.8668	-74.091534	-0.000689	-6.892805	-2.335346	-0.000276
1512	1.5034e+02	-19.8315	-74.325688	-0.000588	-5.879157	-1.991912	-0.000235
1513	1.5044e+02	-19.7914	-74.527544	-0.000507	-5.068239	-1.717166	-0.000203
1514	1.5054e+02	-19.7609	-74.745550	-0.000547	-5.473698	-1.854539	-0.000219
1515	1.5064e+02	-19.7096	-74.943369	-0.000497	-4.966874	-1.682823	-0.000199
1516	1.5074e+02	-19.6695	-75.104855	-0.000405	-4.054591	-1.373733	-0.000162
1517	1.5084e+02	-19.6278	-75.302674	-0.000497	-4.966874	-1.682823	-0.000199
1518	1.5094e+02	-19.5957	-75.452048	-0.000375	-3.750497	-1.270703	-0.000150
1519	1.5104e+02	-19.5476	-75.589311	-0.000345	-3.446403	-1.167673	-0.000138
1520	1.5114e+02	-19.5091	-75.734648	-0.000365	-3.649132	-1.236359	-0.000146
1521	1.5124e+02	-19.4674	-75.811353	-0.000193	-1.925931	-0.652523	-0.000077
1522	1.5134e+02	-19.4224	-75.920356	-0.000274	-2.736849	-0.927270	-0.000110
1523	1.5144e+02	-19.3872	-76.061656	-0.000355	-3.547767	-1.202016	-0.000142
1524	1.5154e+02	-19.3519	-76.097990	-0.000091	-0.912283	-0.309090	-0.000037
1525	1.5164e+02	-19.3166	-76.206993	-0.000274	-2.736849	-0.927270	-0.000110
1526	1.5174e+02	-19.2636	-76.283698	-0.000193	-1.925931	-0.652523	-0.000077
1527	1.5184e+02	-19.2331	-76.352330	-0.000172	-1.723201	-0.583836	-0.000069
1528	1.5194e+02	-19.1979	-76.376552	-0.000061	-0.608189	-0.206060	-0.000024
1529	1.5204e+02	-19.1497	-76.457295	-0.000203	-2.027296	-0.686866	-0.000081
1530	1.5214e+02	-19.1112	-76.534001	-0.000193	-1.925931	-0.652523	-0.000077
1531	1.5224e+02	-19.0727	-76.550149	-0.000041	-0.405459	-0.137373	-0.000016
1532	1.5233e+02	-19.0374	-76.578409	-0.000071	-0.709553	-0.240403	-0.000028
1533	1.5243e+02	-18.9893	-76.655115	-0.000193	-1.925931	-0.652523	-0.000077
1534	1.5253e+02	-18.9540	-76.671263	-0.000041	-0.405459	-0.137373	-0.000016
1535	1.5263e+02	-18.9107	-76.671263	0.000000	0.000000	0.000000	0.000000
1536	1.5273e+02	-18.8754	-76.739895	-0.000172	-1.723201	-0.583836	-0.000069
1537	1.5283e+02	-18.8321	-76.772192	-0.000081	-0.810918	-0.274747	-0.000032
1538	1.5293e+02	-18.7952	-76.752006	0.000051	0.506824	0.171717	0.000020
1539	1.5303e+02	-18.7487	-76.796415	-0.000112	-1.115013	-0.377776	-0.000045
1540	1.5313e+02	-18.7150	-76.820637	-0.000061	-0.608189	-0.206060	-0.000024
1541	1.5323e+02	-18.6813	-76.840823	-0.000051	-0.506824	-0.171717	-0.000020
1542	1.5333e+02	-18.6267	-76.784303	0.000142	1.419107	0.480806	0.000057
1543	1.5343e+02	-18.5898	-76.816600	-0.000081	-0.810918	-0.274747	-0.000032
1544	1.5353e+02	-18.5497	-76.812563	0.000010	0.101365	0.034343	0.000004
1545	1.5363e+02	-18.5225	-76.792377	0.000051	0.506824	0.171717	0.000020
1546	1.5373e+02	-18.4727	-76.756043	0.000091	0.912283	0.309090	0.000037
1547	1.5383e+02	-18.4294	-76.752006	0.000010	0.101365	0.034343	0.000004
1548	1.5393e+02	-18.3909	-76.772192	-0.000051	-0.506824	-0.171717	-0.000020
1549	1.5403e+02	-18.3508	-76.747969	0.000061	0.608189	0.206060	0.000024
1550	1.5413e+02	-18.3139	-76.760080	-0.000030	-0.304094	-0.103030	-0.000012
1551	1.5422e+02	-18.2786	-76.695486	0.000162	1.621836	0.549493	0.000065
1552	1.5432e+02	-18.2417	-76.651078	0.000112	1.115013	0.377776	0.000045
1553	1.5442e+02	-18.1904	-76.651078	0.000000	0.000000	0.000000	0.000000
1554	1.5452e+02	-18.1551	-76.663189	-0.000030	-0.304094	-0.103030	-0.000012
1555	1.5462e+02	-18.1150	-76.647041	0.000041	0.405459	0.137373	0.000016
1556	1.5472e+02	-18.0685	-76.594558	0.000132	1.317742	0.446463	0.000053
1557	1.5482e+02	-18.0284	-76.521889	0.000182	1.824566	0.618180	0.000073
1558	1.5492e+02	-18.0011	-76.542075	-0.000051	-0.506824	-0.171717	-0.000020
1559	1.5502e+02	-17.9530	-76.449221	0.000233	2.331390	0.789896	0.000093
1560	1.5512e+02	-17.9145	-76.465369	-0.000041	-0.405459	-0.137373	-0.000016
1561	1.5522e+02	-17.8728	-76.392701	0.000182	1.824566	0.618180	0.000073
1562	1.5532e+02	-17.8391	-76.360404	0.000081	0.810918	0.274747	0.000032
1563	1.5542e+02	-17.8054	-76.315995	0.000112	1.115013	0.377776	0.000045
1564	1.5552e+02	-17.7524	-76.263513	0.000132	1.317742	0.446463	0.000053
1565	1.5562e+02	-17.7155	-76.227178	0.000091	0.912283	0.309090	0.000037
1566	1.5572e+02	-17.6835	-76.182770	0.000112	1.115013	0.377776	0.000045
1567	1.5582e+02	-17.6417	-76.138361	0.000112	1.115013	0.377776	0.000045
1568	1.5592e+02	-17.6032	-76.093953	0.000112	1.115013	0.377776	0.000045
1569	1.5602e+02	-17.5680	-76.013210	0.000203	2.027296	0.686866	0.000081
1570	1.5612e+02	-17.5166	-75.964765	0.000122	1.216377	0.412120	0.000049
1571	1.5622e+02	-17.4781	-75.932468	0.000081	0.810918	0.274747	0.000032
1572	1.5631e+02	-17.4428	-75.863836	0.000172	1.723201	0.583836	0.000069
1573	1.5641e+02	-17.3915	-75.819428	0.000112	1.115013	0.377776	0.000045
1574	1.5651e+02	-17.3530	-75.819428	0.000000	0.000000	0.000000	0.000000
1575	1.5661e+02	-17.3113	-75.714462	0.000264	2.635484	0.892926	0.000105
1576	1.5671e+02	-17.2728	-75.661979	0.000132	1.317742	0.446463	0.000053
1577	1.5681e+02	-17.2375	-75.621608	0.000101	1.013648	0.343433	0.000041
1578	1.5691e+02	-17.2038	-75.544902	0.000193	1.925931	0.652523	0.000077
1579	1.5701e+02	-17.1509	-75.504531	0.000101	1.013648	0.343433	0.000041
1580	1.5711e+02	-17.1204	-75.427826	0.000193	1.925931	0.652523	0.000077
1581	1.5721e+02	-17.0835	-75.375343	0.000132	1.317742	0.446463	0.000053
1582	1.5731e+02	-17.0305	-75.298637	0.000193	1.925931	0.652523	0.000077
1583	1.5741e+02	-17.0001	-75.238080	0.000152	1.520472	0.515150	0.000061
1584	1.5751e+02	-16.9632	-75.201746	0.000091	0.912283	0.309090	0.000037
1585	1.5761e+02	-16.9263	-75.096780	0.000264	2.635484	0.892926	0.000105
1586	1.5771e+02	-16.8749	-75.048335	0.000122	1.216377	0.412120	0.000049
1587	1.5781e+02	-16.8332	-75.024112	0.000061	0.608189	0.206060	0.000024
1588	1.5791e+02	-16.7963	-74.947406	0.000193	1.925931	0.652523	0.000077
1589	1.5801e+02	-16.7690	-74.862627	0.000213	2.128660	0.721210	0.000085
1590	1.5811e+02	-16.7161	-74.789958	0.000182	1.824566	0.618180	0.000073
1591	1.5821e+02	-16.6888	-74.721327	0.000172	1.723201	0.583836	0.000069
1592	1.5830e+02	-16.6407	-74.697104	0.000061	0.608189	0.206060	0.000024
1593	1.5840e+02	-16.6006	-74.608287	0.000223	2.230025	0.755553	0.000089
1594	1.5850e+02	-16.5685	-74.547730	0.000152	1.520472	0.515150	0.000061
1595	1.5860e+02	-16.5188	-74.454876	0.000233	2.331390	0.789896	0.000093
1596	1.5870e+02	-16.4899	-74.406430	0.000122	1.216377	0.412120	0.000049
1597	1.5880e+02	-16.4482	-74.317613	0.000223	2.230025	0.755553	0.000089
1598	1.5890e+02	-16.4017	-74.236871	0.000203	2.027296	0.686866	0.000081
1599	1.5900e+02	-16.3584	-74.164202	0.000182	1.824566	0.618180	0.000073
1600	1.5910e+02	-16.3279	-74.119794	0.000112	1.115013	0.377776	0.000045
1601	1.5920e+02	-16.2798	-74.039051	0.000203	2.027296	0.686866	0.000081
1602	1.5930e+02	-16.2316	-73.986568	0.000132	1.317742	0.446463	0.000053
1603	1.5940e+02	-16.2092	-73.873528	0.000284	2.838214	0.961613	0.000114
1604	1.5950e+02	-16.1675	-73.808934	0.000162	1.621836	0.549493	0.000065
1605	1.5960e+02	-16.1322	-73.744340	0.000162	1.621836	0.549493	0.000065
1606	1.5970e+02	-16.0921	-73.667634	0.000193	1.925931	0.652523	0.000077
1607	1.5980e+02	-16.0455	-73.603040	0.000162	1.621836	0.549493	0.000065
1608	1.5990e+02	-16.0006	-73.498075	0.000264	2.635484	0.892926	0.000105
1609	1.6000e+02	-15.9605	-73.465778	0.000081	0.810918	0.274747	0.000032
1610	1.6010e+02	-15.9172	-73.421369	0.000112	1.115013	0.377776	0.000045
1611	1.6019e+02	-15.8803	-73.324478	0.000243	2.432755	0.824240	0.000097
1612	1.6029e+02	-15.8418	-73.219512	0.000264	2.635484	0.892926	0.000105
1613	1.6039e+02	-15.8049	-73.150881	0.000172	1.723201	0.583836	0.000069
1614	1.6049e+02	-15.7648	-73.074175	0.000193	1.925931	0.652523	0.000077
1615	1.6059e+02	-15.7247	-73.037841	0.000091	0.912283	0.309090	0.000037
1616	1.6069e+02	-15.6862	-72.953061	0.000213	2.128660	0.721210	0.000085
1617	1.6079e+02	-15.6445	-72.868282	0.000213	2.128660	0.721210	0.000085
1618	1.6089e+02	-15.6012	-72.787539	0.000203	2.027296	0.686866	0.000081
1619	1.6099e+02	-15.5659	-72.694685	0.000233	2.331390	0.789896	0.000093
1620	1.6109e+02	-15.5226	-72.585682	0.000274	2.736849	0.927270	0.000110
1621	1.6119e+02	-15.4841	-72.553385	0.000081	0.810918	0.274747	0.000032
1622	1.6129e+02	-15.4456	-72.476679	0.000193	1.925931	0.652523	0.000077
1623	1.6139e+02	-15.4119	-72.412085	0.000162	1.621836	0.549493	0.000065
1624	1.6149e+02	-15.3718	-72.295008	0.000294	2.939579	0.995956	0.000118
1625	1.6159e+02	-15.3268	-72.226377	0.000172	1.723201	0.583836	0.000069
1626	1.6169e+02	-15.2883	-72.149671	0.000193	1.925931	0.652523	0.000077
1627	1.6179e+02	-15.2466	-72.081040	0.000172	1.723201	0.583836	0.000069
1628	1.6189e+02	-15.1953	-71.984149	0.000243	2.432755	0.824240	0.000097
1629	1.6199e+02	-15.1712	-71.879183	0.000264	2.635484	0.892926	0.000105
1630	1.6209e+02	-15.1183	-71.790366	0.000223	2.230025	0.755553	0.000089
1631	1.6219e+02	-15.0942	-71.729809	0.000152	1.520472	0.515150	0.000061
1632	1.6228e+02	-15.0589	-71.681364	0.000122	1.216377	0.412120	0.000049
1633	1.6238e+02	-15.0044	-71.556212	0.000314	3.142308	1.064643	0.000126
1634	1.6248e+02	-14.9739	-71.495655	0.000152	1.520472	0.515150	0.000061
1635	1.6258e+02	-14.9274	-71.418950	0.000193	1.925931	0.652523	0.000077
1636	1.6268e+02	-14.8857	-71.305910	0.000284	2.838214	0.961613	0.000114
1637	1.6278e+02	-14.8520	-71.257464	0.000122	1.216377	0.412120	0.000049
1638	1.6288e+02	-14.8055	-71.160573	0.000243	2.432755	0.824240	0.000097
1639	1.6298e+02	-14.7686	-71.075793	0.000213	2.128660	0.721210	0.000085
1640	1.6308e+02	-14.7236	-70.991013	0.000213	2.128660	0.721210	0.000085
1641	1.6318e+02	-14.6932	-70.886048	0.000264	2.635484	0.892926	0.000105
1642	1.6328e+02	-14.6482	-70.825491	0.000152	1.520472	0.515150	0.000061
1643	1.6338e+02	-14.6081	-70.793194	0.000081	0.810918	0.274747	0.000032
1644	1.6348e+02	-14.5696	-70.655931	0.000345	3.446403	1.167673	0.000138
1645	1.6358e+02	-14.5295	-70.591337	0.000162	1.621836	0.549493	0.000065
1646	1.6368e+02	-14.4975	-70.486371	0.000264	2.635484	0.892926	0.000105
1647	1.6378e+02	-14.4525	-70.446000	0.000101	1.013648	0.343433	0.000041
1648	1.6388e+02	-14.4076	-70.304700	0.000355	3.547767	1.202016	0.000142
1649	1.6398e+02	-14.3771	-70.227995	0.000193	1.925931	0.652523	0.000077
1650	1.6408e+02	-14.3290	-70.171475	0.000142	1.419107	0.480806	0.000057
1651	1.6418e+02	-14.2921	-70.074584	0.000243	2.432755	0.824240	0.000097
1652	1.6427e+02	-14.2504	-69.973655	0.000253	2.534120	0.858583	0.000101
1653	1.6437e+02	-14.2087	-69.925210	0.000122	1.216377	0.412120	0.000049
1654	1.6447e+02	-14.1734	-69.832355	0.000233	2.331390	0.789896	0.000093
1655	1.6457e+02	-14.1381	-69.715278	0.000294	2.939579	0.995956	0.000118
1656	1.6467e+02	-14.0900	-69.634536	0.000203	2.027296	0.686866	0.000081
1657	1.6477e+02	-14.0547	-69.537645	0.000243	2.432755	0.824240	0.000097
1658	1.6487e+02	-14.0082	-69.473050	0.000162	1.621836	0.549493	0.000065
1659	1.6497e+02	-13.9665	-69.412493	0.000152	1.520472	0.515150	0.000061
1660	1.6507e+02	-13.9376	-69.267156	0.000365	3.649132	1.236359	0.000146
1661	1.6517e+02	-13.8894	-69.178339	0.000223	2.230025	0.755553	0.000089
1662	1.6527e+02	-13.8574	-69.109708	0.000172	1.723201	0.583836	0.000069
1663	1.6537e+02	-13.8173	-69.049151	0.000152	1.520472	0.515150	0.000061
1664	1.6547e+02	-13.7755	-68.968408	0.000203	2.027296	0.686866	0.000081
1665	1.6557e+02	-13.7242	-68.839220	0.000324	3.243673	1.098986	0.000130
1666	1.6567e+02	-13.6953	-68.786737	0.000132	1.317742	0.446463	0.000053
1667	1.6577e+02	-13.6536	-68.649475	0.000345	3.446403	1.167673	0.000138
1668	1.6587e+02	-13.6183	-68.596992	0.000132	1.317742	0.446463	0.000053
1669	1.6597e+02	-13.5734	-68.516249	0.000203	2.027296	0.686866	0.000081
1670	1.6607e+02	-13.5237	-68.399172	0.000294	2.939579	0.995956	0.000118
1671	1.6616e+02	-13.4852	-68.318430	0.000203	2.027296	0.686866	0.000081
1672	1.6626e+02	-13.4499	-68.221538	0.000243	2.432755	0.824240	0.000097
1673	1.6636e+02	-13.4066	-68.189241	0.000081	0.810918	0.274747	0.000032
1674	1.6646e+02	-13.3745	-68.092350	0.000243	2.432755	0.824240	0.000097
1675	1.6656e+02	-13.3376	-68.007570	0.000213	2.128660	0.721210	0.000085
1676	1.6666e+02	-13.2975	-67.922790	0.000213	2.128660	0.721210	0.000085
1677	1.6676e+02	-13.2622	-67.842048	0.000203	2.027296	0.686866	0.000081
1678	1.6686e+02	-13.2125	-67.696711	0.000365	3.649132	1.236359	0.000146
1679	1.6696e+02	-13.1659	-67.640191	0.000142	1.419107	0.480806	0.000057
1680	1.6706e+02	-13.1290	-67.563485	0.000193	1.925931	0.652523	0.000077
1681	1.6716e+02	-13.0889	-67.502928	0.000152	1.520472	0.515150	0.000061
1682	1.6726e+02	-13.0488	-67.365665	0.000345	3.446403	1.167673	0.000138
1683	1.6736e+02	-13.0135	-67.297034	0.000172	1.723201	0.583836	0.000069
1684	1.6746e+02	-12.9686	-67.212254	0.000213	2.128660	0.721210	0.000085
1685	1.6756e+02	-12.9397	-67.123437	0.000223	2.230025	0.755553	0.000089
1686	1.6766e+02	-12.8980	-67.038657	0.000213	2.128660	0.721210	0.000085
1687	1.6776e+02	-12.8563	-66.945803	0.000233	2.331390	0.789896	0.000093
1688	1.6786e+02	-12.8210	-66.856986	0.000223	2.230025	0.755553	0.000089
1689	1.6796e+02	-12.7825	-66.752021	0.000264	2.635484	0.892926	0.000105
1690	1.6806e+02	-12.7360	-66.687427	0.000162	1.621836	0.549493	0.000065
1691	1.6816e+02	-12.7055	-66.578424	0.000274	2.736849	0.927270	0.000110
1692	1.6825e+02	-12.6654	-66.509793	0.000172	1.723201	0.583836	0.000069
1693	1.6835e+02	-12.6221	-66.408864	0.000253	2.534120	0.858583	0.000101
1694	1.6845e+02	-12.5820	-66.324084	0.000213	2.128660	0.721210	0.000085
1695	1.6855e+02	-12.5435	-66.243342	0.000203	2.027296	0.686866	0.000081
1696	1.6865e+02	-12.4986	-66.158562	0.000213	2.128660	0.721210	0.000085
1697	1.6875e+02	-12.4601	-66.073782	0.000213	2.128660	0.721210	0.000085
1698	1.6885e+02	-12.4216	-65.980928	0.000233	2.331390	0.789896	0.000093
1699	1.6895e+02	-12.3847	-65.904222	0.000193	1.925931	0.652523	0.000077
1700	1.6905e+02	-12.3382	-65.799257	0.000264	2.635484	0.892926	0.000105
1701	1.6915e+02	-12.3029	-65.702366	0.000243	2.432755	0.824240	0.000097
1702	1.6925e+02	-12.2579	-65.617586	0.000213	2.128660	0.721210	0.000085
1703	1.6935e+02	-12.2226	-65.476286	0.000355	3.547767	1.202016	0.000142
1704	1.6945e+02	-12.1809	-65.411692	0.000162	1.621836	0.549493	0.000065
1705	1.6955e+02	-12.1376	-65.330949	0.000203	2.027296	0.686866	0.000081
1706	1.6965e+02	-12.1039	-65.274429	0.000142	1.419107	0.480806	0.000057
1707	1.6975e+02	-12.0622	-65.185612	0.000223	2.230025	0.755553	0.000089
1708	1.6985e+02	-12.0157	-65.096795	0.000223	2.230025	0.755553	0.000089
1709	1.6995e+02	-11.9788	-64.943384	0.000385	3.851862	1.305046	0.000154
1710	1.7005e+02	-11.9483	-64.898976	0.000112	1.115013	0.377776	0.000045
1711	1.7015e+02	-11.8970	-64.818233	0.000203	2.027296	0.686866	0.000081
1712	1.7024e+02	-11.8537	-64.725379	0.000233	2.331390	0.789896	0.000093
1713	1.7034e+02	-11.8232	-64.584079	0.000355	3.547767	1.202016	0.000142
1714	1.7044e+02	-11.7767	-64.499299	0.000213	2.128660	0.721210	0.000085
1715	1.7054e+02	-11.7462	-64.422594	0.000193	1.925931	0.652523	0.000077
1716	1.7064e+02	-11.7029	-64.341851	0.000203	2.027296	0.686866	0.000081
1717	1.7074e+02	-11.6596	-64.273220	0.000172	1.723201	0.583836	0.000069
1718	1.7084e+02	-11.6179	-64.139994	0.000335	3.345038	1.133329	0.000134
1719	1.7094e+02	-11.5794	-64.047140	0.000233	2.331390	0.789896	0.000093
1720	1.7104e+02	-11.5425	-63.966397	0.000203	2.027296	0.686866	0.000081
1721	1.7114e+02	-11.5072	-63.853357	0.000284	2.838214	0.961613	0.000114
1722	1.7124e+02	-11.4751	-63.808949	0.000112	1.115013	0.377776	0.000045
1723	1.7134e+02	-11.4221	-63.679761	0.000324	3.243673	1.098986	0.000130
1724	1.7144e+02	-11.3933	-63.607092	0.000182	1.824566	0.618180	0.000073
1725	1.7154e+02	-11.3387	-63.514238	0.000233	2.331390	0.789896	0.000093
1726	1.7164e+02	-11.2954	-63.425421	0.000223	2.230025	0.755553	0.000089
1727	1.7174e+02	-11.2681	-63.296233	0.000324	3.243673	1.098986	0.000130
1728	1.7184e+02	-11.2136	-63.203379	0.000233	2.331390	0.789896	0.000093
1729	1.7194e+02	-11.1831	-63.142822	0.000152	1.520472	0.515150	0.000061
1730	1.7204e+02	-11.1478	-63.041893	0.000253	2.534120	0.858583	0.000101
1731	1.7213e+02	-11.0965	-62.985373	0.000142	1.419107	0.480806	0.000057
1732	1.7223e+02	-11.0612	-62.856185	0.000324	3.243673	1.098986	0.000130
1733	1.7233e+02	-11.0259	-62.791591	0.000162	1.621836	0.549493	0.000065
1734	1.7243e+02	-10.9826	-62.702774	0.000223	2.230025	0.755553	0.000089
1735	1.7253e+02	-10.9425	-62.549363	0.000385	3.851862	1.305046	0.000154
1736	1.7263e+02	-10.9024	-62.460546	0.000223	2.230025	0.755553	0.000089
1737	1.7273e+02	-10.8639	-62.371729	0.000223	2.230025	0.755553	0.000089
1738	1.7283e+02	-10.8254	-62.274837	0.000243	2.432755	0.824240	0.000097
1739	1.7293e+02	-10.7804	-62.177946	0.000243	2.432755	0.824240	0.000097
1740	1.7303e+02	-10.7564	-62.081055	0.000243	2.432755	0.824240	0.000097
1741	1.7313e+02	-10.6986	-61.992238	0.000223	2.230025	0.755553	0.000089
1742	1.7323e+02	-10.6633	-61.927644	0.000162	1.621836	0.549493	0.000065
1743	1.7333e+02	-10.6248	-61.826715	0.000253	2.534120	0.858583	0.000101
1744	1.7343e+02	-10.5863	-61.713675	0.000284	2.838214	0.961613	0.000114
1745	1.7353e+02	-10.5446	-61.608710	0.000264	2.635484	0.892926	0.000105
1746	1.7363e+02	-10.4997	-61.487596	0.000304	3.040943	1.030300	0.000122
1747	1.7373e+02	-10.4772	-61.410890	0.000193	1.925931	0.652523	0.000077
1748	1.7383e+02	-10.4323	-61.313999	0.000243	2.432755	0.824240	0.000097
1749	1.7393e+02	-10.3922	-61.209033	0.000264	2.635484	0.892926	0.000105
1750	1.7403e+02	-10.3425	-61.152514	0.000142	1.419107	0.480806	0.000057
1751	1.7413e+02	-10.3040	-61.011214	0.000355	3.547767	1.202016	0.000142
1752	1.7422e+02	-10.2623	-60.890100	0.000304	3.040943	1.030300	0.000122
1753	1.7432e+02	-10.2254	-60.829543	0.000152	1.520472	0.515150	0.000061
1754	1.7442e+02	-10.1885	-60.732651	0.000243	2.432755	0.824240	0.000097
1755	1.7452e+02	-10.1468	-60.595389	0.000345	3.446403	1.167673	0.000138
1756	1.7462e+02	-10.1083	-60.534832	0.000152	1.520472	0.515150	0.000061
1757	1.7472e+02	-10.0601	-60.413718	0.000304	3.040943	1.030300	0.000122
1758	1.7482e+02	-10.0297	-60.288567	0.000314	3.142308	1.064643	0.000126
1759	1.7492e+02	-9.9783	-60.203787	0.000213	2.128660	0.721210	0.000085
1760	1.7502e+02	-9.9478	-60.143230	0.000152	1.520472	0.515150	0.000061
1761	1.7512e+02	-9.9110	-60.018078	0.000314	3.142308	1.064643	0.000126
1762	1.7522e+02	-9.8676	-59.917150	0.000253	2.534120	0.858583	0.000101
1763	1.7532e+02	-9.8307	-59.824296	0.000233	2.331390	0.789896	0.000093
1764	1.7542e+02	-9.7890	-59.743553	0.000203	2.027296	0.686866	0.000081
1765	1.7552e+02	-9.7441	-59.646662	0.000243	2.432755	0.824240	0.000097
1766	1.7562e+02	-9.7008	-59.473065	0.000436	4.358686	1.476763	0.000174
1767	1.7572e+02	-9.6607	-59.432694	0.000101	1.013648	0.343433	0.000041
1768	1.7582e+02	-9.6302	-59.335803	0.000243	2.432755	0.824240	0.000097
1769	1.7592e+02	-9.5933	-59.194503	0.000355	3.547767	1.202016	0.000142
1770	1.7602e+02	-9.5436	-59.101649	0.000233	2.331390	0.789896	0.000093
1771	1.7612e+02	-9.5035	-58.968423	0.000335	3.345038	1.133329	0.000134
1772	1.7621e+02	-9.4682	-58.883643	0.000213	2.128660	0.721210	0.000085
1773	1.7631e+02	-9.4233	-58.746381	0.000345	3.446403	1.167673	0.000138
1774	1.7641e+02	-9.3896	-58.621229	0.000314	3.142308	1.064643	0.000126
1775	1.7651e+02	-9.3543	-58.548561	0.000182	1.824566	0.618180	0.000073
1776	1.7661e+02	-9.3158	-58.455707	0.000233	2.331390	0.789896	0.000093
1777	1.7671e+02	-9.2644	-58.346704	0.000274	2.736849	0.927270	0.000110
1778	1.7681e+02	-9.2324	-58.294221	0.000132	1.317742	0.446463	0.000053
1779	1.7691e+02	-9.1874	-58.173107	0.000304	3.040943	1.030300	0.000122
1780	1.7701e+02	-9.1505	-58.039882	0.000335	3.345038	1.133329	0.000134
1781	1.7711e+02	-9.1185	-57.947028	0.000233	2.331390	0.789896	0.000093
1782	1.7721e+02	-9.0639	-57.805728	0.000355	3.547767	1.202016	0.000142
1783	1.7731e+02	-9.0286	-57.741134	0.000162	1.621836	0.549493	0.000065
1784	1.7741e+02	-8.9981	-57.587723	0.000385	3.851862	1.305046	0.000154
1785	1.7751e+02	-8.9516	-57.486794	0.000253	2.534120	0.858583	0.000101
1786	1.7761e+02	-8.9131	-57.402014	0.000213	2.128660	0.721210	0.000085
1787	1.7771e+02	-8.8746	-57.288975	0.000284	2.838214	0.961613	0.000114
1788	1.7781e+02	-8.8377	-57.171898	0.000294	2.939579	0.995956	0.000118
1789	1.7791e+02	-8.7944	-57.058858	0.000284	2.838214	0.961613	0.000114
1790	1.7801e+02	-8.7511	-56.990227	0.000172	1.723201	0.583836	0.000069
1791	1.7810e+02	-8.7014	-56.893335	0.000243	2.432755	0.824240	0.000097
1792	1.7820e+02	-8.6709	-56.743961	0.000375	3.750497	1.270703	0.000150
1793	1.7830e+02	-8.6356	-56.663219	0.000203	2.027296	0.686866	0.000081
1794	1.7840e+02	-8.5955	-56.509807	0.000385	3.851862	1.305046	0.000154
1795	1.7850e+02	-8.5554	-56.416953	0.000233	2.331390	0.789896	0.000093
1796	1.7860e+02	-8.5137	-56.299876	0.000294	2.939579	0.995956	0.000118
1797	1.7870e+02	-8.4752	-56.166651	0.000335	3.345038	1.133329	0.000134
1798	1.7880e+02	-8.4351	-56.057648	0.000274	2.736849	0.927270	0.000110
1799	1.7890e+02	-8.3917	-55.997091	0.000152	1.520472	0.515150	0.000061
1800	1.7900e+02	-8.3613	-55.859829	0.000345	3.446403	1.167673	0.000138
1801	1.7910e+02	-8.3067	-55.750826	0.000274	2.736849	0.927270	0.000110
1802	1.7920e+02	-8.2762	-55.617600	0.000335	3.345038	1.133329	0.000134
1803	1.7930e+02	-8.2329	-55.536858	0.000203	2.027296	0.686866	0.000081
1804	1.7940e+02	-8.1944	-55.484375	0.000132	1.317742	0.446463	0.000053
1805	1.7950e+02	-8.1527	-55.298667	0.000466	4.662780	1.579793	0.000187
1806	1.7960e+02	-8.1222	-55.177553	0.000304	3.040943	1.030300	0.000122
1807	1.7970e+02	-8.0773	-55.116996	0.000152	1.520472	0.515150	0.000061
1808	1.7980e+02	-8.0324	-55.024142	0.000233	2.331390	0.789896	0.000093
1809	1.7990e+02	-7.9891	-54.866693	0.000395	3.953226	1.339389	0.000158
1810	1.8000e+02	-7.9602	-54.777876	0.000223	2.230025	0.755553	0.000089
1811	1.8009e+02	-7.9089	-54.656762	0.000304	3.040943	1.030300	0.000122
1812	1.8019e+02	-7.8688	-54.543722	0.000284	2.838214	0.961613	0.000114
1813	1.8029e+02	-7.8351	-54.426645	0.000294	2.939579	0.995956	0.000118
1814	1.8039e+02	-7.7966	-54.293420	0.000335	3.345038	1.133329	0.000134
1815	1.8049e+02	-7.7565	-54.208640	0.000213	2.128660	0.721210	0.000085
1816	1.8059e+02	-7.7164	-54.095600	0.000284	2.838214	0.961613	0.000114
1817	1.8069e+02	-7.6763	-53.958338	0.000345	3.446403	1.167673	0.000138
1818	1.8079e+02	-7.6394	-53.873558	0.000213	2.128660	0.721210	0.000085
1819	1.8089e+02	-7.5896	-53.732258	0.000355	3.547767	1.202016	0.000142
1820	1.8099e+02	-7.5511	-53.611144	0.000304	3.040943	1.030300	0.000122
1821	1.8109e+02	-7.5239	-53.502141	0.000274	2.736849	0.927270	0.000110
1822	1.8119e+02	-7.4725	-53.425436	0.000193	1.925931	0.652523	0.000077
1823	1.8129e+02	-7.4388	-53.263950	0.000405	4.054591	1.373733	0.000162
1824	1.8139e+02	-7.4035	-53.175133	0.000223	2.230025	0.755553	0.000089
1825	1.8149e+02	-7.3618	-53.074205	0.000253	2.534120	0.858583	0.000101
1826	1.8159e+02	-7.3217	-52.892534	0.000456	4.561415	1.545449	0.000183
1827	1.8169e+02	-7.2688	-52.840051	0.000132	1.317742	0.446463	0.000053
1828	1.8179e+02	-7.2415	-52.706826	0.000335	3.345038	1.133329	0.000134
1829	1.8189e+02	-7.1982	-52.605897	0.000253	2.534120	0.858583	0.000101
1830	1.8199e+02	-7.1549	-52.509006	0.000243	2.432755	0.824240	0.000097
1831	1.8209e+02	-7.1212	-52.379818	0.000324	3.243673	1.098986	0.000130
1832	1.8218e+02	-7.0747	-52.238518	0.000355	3.547767	1.202016	0.000142
1833	1.8228e+02	-7.0426	-52.137589	0.000253	2.534120	0.858583	0.000101
1834	1.8238e+02	-6.9945	-52.032624	0.000264	2.635484	0.892926	0.000105
1835	1.8248e+02	-6.9640	-51.907473	0.000314	3.142308	1.064643	0.000126
1836	1.8258e+02	-6.9158	-51.794433	0.000284	2.838214	0.961613	0.000114
1837	1.8268e+02	-6.8757	-51.653133	0.000355	3.547767	1.202016	0.000142
1838	1.8278e+02	-6.8404	-51.536056	0.000294	2.939579	0.995956	0.000118
1839	1.8288e+02	-6.7939	-51.427054	0.000274	2.736849	0.927270	0.000110
1840	1.8298e+02	-6.7618	-51.354385	0.000182	1.824566	0.618180	0.000073
1841	1.8308e+02	-6.7121	-51.249420	0.000264	2.635484	0.892926	0.000105
1842	1.8318e+02	-6.6816	-51.116194	0.000335	3.345038	1.133329	0.000134
1843	1.8328e+02	-6.6287	-51.015266	0.000253	2.534120	0.858583	0.000101
1844	1.8338e+02	-6.5966	-50.873966	0.000355	3.547767	1.202016	0.000142
1845	1.8348e+02	-6.5661	-50.769000	0.000264	2.635484	0.892926	0.000105
1846	1.8358e+02	-6.5148	-50.635775	0.000335	3.345038	1.133329	0.000134
1847	1.8368e+02	-6.4891	-50.530809	0.000264	2.635484	0.892926	0.000105
1848	1.8378e+02	-6.4474	-50.429881	0.000253	2.534120	0.858583	0.000101
1849	1.8388e+02	-6.4009	-50.312804	0.000294	2.939579	0.995956	0.000118
1850	1.8398e+02	-6.3576	-50.228024	0.000213	2.128660	0.721210	0.000085
1851	1.8407e+02	-6.3303	-50.082687	0.000365	3.649132	1.236359	0.000146
1852	1.8417e+02	-6.2838	-49.985796	0.000243	2.432755	0.824240	0.000097
1853	1.8427e+02	-6.2485	-49.864682	0.000304	3.040943	1.030300	0.000122
1854	1.8437e+02	-6.1939	-49.743568	0.000304	3.040943	1.030300	0.000122
1855	1.8447e+02	-6.1570	-49.598231	0.000365	3.649132	1.236359	0.000146
1856	1.8457e+02	-6.1330	-49.549785	0.000122	1.216377	0.412120	0.000049
1857	1.8467e+02	-6.0816	-49.396374	0.000385	3.851862	1.305046	0.000154
1858	1.8477e+02	-6.0367	-49.238926	0.000395	3.953226	1.339389	0.000158
1859	1.8487e+02	-6.0062	-49.158183	0.000203	2.027296	0.686866	0.000081
1860	1.8497e+02	-5.9661	-49.028995	0.000324	3.243673	1.098986	0.000130
1861	1.8507e+02	-5.9196	-48.907881	0.000304	3.040943	1.030300	0.000122
1862	1.8517e+02	-5.8875	-48.806953	0.000253	2.534120	0.858583	0.000101
1863	1.8527e+02	-5.8538	-48.697950	0.000274	2.736849	0.927270	0.000110
1864	1.8537e+02	-5.8121	-48.588947	0.000274	2.736849	0.927270	0.000110
1865	1.8547e+02	-5.7736	-48.455722	0.000335	3.345038	1.133329	0.000134
1866	1.8557e+02	-5.7335	-48.330570	0.000314	3.142308	1.064643	0.000126
1867	1.8567e+02	-5.6870	-48.193308	0.000345	3.446403	1.167673	0.000138
1868	1.8577e+02	-5.6437	-48.056045	0.000345	3.446403	1.167673	0.000138
1869	1.8587e+02	-5.6100	-47.979340	0.000193	1.925931	0.652523	0.000077
1870	1.8597e+02	-5.5699	-47.854188	0.000314	3.142308	1.064643	0.000126
1871	1.8606e+02	-5.5218	-47.725000	0.000324	3.243673	1.098986	0.000130
1872	1.8616e+02	-5.4881	-47.628109	0.000243	2.432755	0.824240	0.000097
1873	1.8626e+02	-5.4528	-47.506995	0.000304	3.040943	1.030300	0.000122
1874	1.8636e+02	-5.4239	-47.402029	0.000264	2.635484	0.892926	0.000105
1875	1.8646e+02	-5.3646	-47.256692	0.000365	3.649132	1.236359	0.000146
1876	1.8656e+02	-5.3228	-47.107318	0.000375	3.750497	1.270703	0.000150
1877	1.8666e+02	-5.2843	-47.014464	0.000233	2.331390	0.789896	0.000093
1878	1.8676e+02	-5.2410	-46.905462	0.000274	2.736849	0.927270	0.000110
1879	1.8686e+02	-5.2057	-46.812607	0.000233	2.331390	0.789896	0.000093
1880	1.8696e+02	-5.1592	-46.643048	0.000426	4.257321	1.442419	0.000170
1881	1.8706e+02	-5.1368	-46.586528	0.000142	1.419107	0.480806	0.000057
1882	1.8716e+02	-5.0886	-46.433117	0.000385	3.851862	1.305046	0.000154
1883	1.8726e+02	-5.0469	-46.291817	0.000355	3.547767	1.202016	0.000142
1884	1.8736e+02	-5.0068	-46.186851	0.000264	2.635484	0.892926	0.000105
1885	1.8746e+02	-4.9779	-46.053626	0.000335	3.345038	1.133329	0.000134
1886	1.8756e+02	-4.9298	-45.928475	0.000314	3.142308	1.064643	0.000126
1887	1.8766e+02	-4.8881	-45.803324	0.000314	3.142308	1.064643	0.000126
1888	1.8776e+02	-4.8480	-45.714507	0.000223	2.230025	0.755553	0.000089
1889	1.8786e+02	-4.8063	-45.561095	0.000385	3.851862	1.305046	0.000154
1890	1.8796e+02	-4.7694	-45.456130	0.000264	2.635484	0.892926	0.000105
1891	1.8806e+02	-4.7309	-45.347127	0.000274	2.736849	0.927270	0.000110
1892	1.8815e+02	-4.6940	-45.209865	0.000345	3.446403	1.167673	0.000138
1893	1.8825e+02	-4.6571	-45.064528	0.000365	3.649132	1.236359	0.000146
1894	1.8835e+02	-4.6090	-44.987822	0.000193	1.925931	0.652523	0.000077
1895	1.8845e+02	-4.5656	-44.830374	0.000395	3.953226	1.339389	0.000158
1896	1.8855e+02	-4.5352	-44.729445	0.000253	2.534120	0.858583	0.000101
1897	1.8865e+02	-4.4902	-44.584109	0.000365	3.649132	1.236359	0.000146
1898	1.8875e+02	-4.4550	-44.475106	0.000274	2.736849	0.927270	0.000110
1899	1.8885e+02	-4.4100	-44.390326	0.000213	2.128660	0.721210	0.000085
1900	1.8895e+02	-4.3780	-44.196543	0.000487	4.865509	1.648479	0.000195
1901	1.8905e+02	-4.3234	-44.043132	0.000385	3.851862	1.305046	0.000154
1902	1.8915e+02	-4.2913	-43.946241	0.000243	2.432755	0.824240	0.000097
1903	1.8925e+02	-4.2496	-43.865498	0.000203	2.027296	0.686866	0.000081
1904	1.8935e+02	-4.2111	-43.712087	0.000385	3.851862	1.305046	0.000154
1905	1.8945e+02	-4.1710	-43.566750	0.000365	3.649132	1.236359	0.000146
1906	1.8955e+02	-4.1373	-43.465822	0.000253	2.534120	0.858583	0.000101
1907	1.8965e+02	-4.0860	-43.348745	0.000294	2.939579	0.995956	0.000118
1908	1.8975e+02	-4.0523	-43.207445	0.000355	3.547767	1.202016	0.000142
1909	1.8985e+02	-4.0106	-43.098443	0.000274	2.736849	0.927270	0.000110
1910	1.8995e+02	-3.9753	-42.969254	0.000324	3.243673	1.098986	0.000130
1911	1.9004e+02	-3.9384	-42.827954	0.000355	3.547767	1.202016	0.000142
1912	1.9014e+02	-3.8903	-42.714915	0.000284	2.838214	0.961613	0.000114
1913	1.9024e+02	-3.8486	-42.549392	0.000416	4.155956	1.408076	0.000166
1914	1.9034e+02	-3.8197	-42.428278	0.000304	3.040943	1.030300	0.000122
1915	1.9044e+02	-3.7860	-42.355610	0.000182	1.824566	0.618180	0.000073
1916	1.9054e+02	-3.7218	-42.165864	0.000476	4.764145	1.614136	0.000191
1917	1.9064e+02	-3.6913	-42.020527	0.000365	3.649132	1.236359	0.000146
1918	1.9074e+02	-3.6496	-41.943822	0.000193	1.925931	0.652523	0.000077
1919	1.9084e+02	-3.6175	-41.762151	0.000456	4.561415	1.545449	0.000183
1920	1.9094e+02	-3.5726	-41.628925	0.000335	3.345038	1.133329	0.000134
1921	1.9104e+02	-3.5405	-41.548182	0.000203	2.027296	0.686866	0.000081
1922	1.9114e+02	-3.4940	-41.410920	0.000345	3.446403	1.167673	0.000138
1923	1.9124e+02	-3.4555	-41.253472	0.000395	3.953226	1.339389	0.000158
1924	1.9134e+02	-3.4106	-41.124283	0.000324	3.243673	1.098986	0.000130
1925	1.9144e+02	-3.3721	-41.007206	0.000294	2.939579	0.995956	0.000118
1926	1.9154e+02	-3.3352	-40.865907	0.000355	3.547767	1.202016	0.000142
1927	1.9164e+02	-3.2935	-40.688273	0.000446	4.460050	1.511106	0.000179
1928	1.9174e+02	-3.2534	-40.595418	0.000233	2.331390	0.789896	0.000093
1929	1.9184e+02	-3.2165	-40.442007	0.000385	3.851862	1.305046	0.000154
1930	1.9194e+02	-3.1748	-40.341079	0.000253	2.534120	0.858583	0.000101
1931	1.9203e+02	-3.1379	-40.203816	0.000345	3.446403	1.167673	0.000138
1932	1.9213e+02	-3.0930	-40.062516	0.000355	3.547767	1.202016	0.000142
1933	1.9223e+02	-3.0513	-39.941402	0.000304	3.040943	1.030300	0.000122
1934	1.9233e+02	-3.0176	-39.779917	0.000405	4.054591	1.373733	0.000162
1935	1.9243e+02	-2.9791	-39.646692	0.000335	3.345038	1.133329	0.000134
1936	1.9253e+02	-2.9374	-39.485206	0.000405	4.054591	1.373733	0.000162
1937	1.9263e+02	-2.9037	-39.351981	0.000335	3.345038	1.133329	0.000134
1938	1.9273e+02	-2.8620	-39.206644	0.000365	3.649132	1.236359	0.000146
1939	1.9283e+02	-2.8218	-39.093604	0.000284	2.838214	0.961613	0.000114
1940	1.9293e+02	-2.7801	-38.924044	0.000426	4.257321	1.442419	0.000170
1941	1.9303e+02	-2.7320	-38.827153	0.000243	2.432755	0.824240	0.000097
1942	1.9313e+02	-2.6935	-38.657593	0.000426	4.257321	1.442419	0.000170
1943	1.9323e+02	-2.6470	-38.528405	0.000324	3.243673	1.098986	0.000130
1944	1.9333e+02	-2.6261	-38.362882	0.000416	4.155956	1.408076	0.000166
1945	1.9343e+02	-2.5668	-38.229657	0.000335	3.345038	1.133329	0.000134
1946	1.9353e+02	-2.5379	-38.104506	0.000314	3.142308	1.064643	0.000126
1947	1.9363e+02	-2.4930	-37.947057	0.000395	3.953226	1.339389	0.000158
1948	1.9373e+02	-2.4577	-37.829980	0.000294	2.939579	0.995956	0.000118
1949	1.9383e+02	-2.4176	-37.672532	0.000395	3.953226	1.339389	0.000158
1950	1.9393e+02	-2.3791	-37.567567	0.000264	2.635484	0.892926	0.000105
1951	1.9403e+02	-2.3390	-37.385896	0.000456	4.561415	1.545449	0.000183
1952	1.9412e+02	-2.3069	-37.252670	0.000335	3.345038	1.133329	0.000134
1953	1.9422e+02	-2.2700	-37.115407	0.000345	3.446403	1.167673	0.000138
1954	1.9432e+02	-2.2235	-36.974108	0.000355	3.547767	1.202016	0.000142
1955	1.9442e+02	-2.1818	-36.808585	0.000416	4.155956	1.408076	0.000166
1956	1.9452e+02	-2.1384	-36.679397	0.000324	3.243673	1.098986	0.000130
1957	1.9462e+02	-2.0983	-36.517911	0.000405	4.054591	1.373733	0.000162
1958	1.9472e+02	-2.0630	-36.396797	0.000304	3.040943	1.030300	0.000122
1959	1.9482e+02	-2.0181	-36.231275	0.000416	4.155956	1.408076	0.000166
1960	1.9492e+02	-1.9812	-36.073826	0.000395	3.953226	1.339389	0.000158
1961	1.9502e+02	-1.9411	-35.944638	0.000324	3.243673	1.098986	0.000130
1962	1.9512e+02	-1.9010	-35.779115	0.000416	4.155956	1.408076	0.000166
1963	1.9522e+02	-1.8705	-35.625704	0.000385	3.851862	1.305046	0.000154
1964	1.9532e+02	-1.8192	-35.468256	0.000395	3.953226	1.339389	0.000158
1965	1.9542e+02	-1.7823	-35.355216	0.000284	2.838214	0.961613	0.000114
1966	1.9552e+02	-1.7374	-35.201805	0.000385	3.851862	1.305046	0.000154
1967	1.9562e+02	-1.6989	-35.044357	0.000395	3.953226	1.339389	0.000158
1968	1.9572e+02	-1.6652	-34.890946	0.000385	3.851862	1.305046	0.000154
1969	1.9582e+02	-1.6171	-34.713312	0.000446	4.460050	1.511106	0.000179
1970	1.9592e+02	-1.5834	-34.572012	0.000355	3.547767	1.202016	0.000142
1971	1.9601e+02	-1.5320	-34.422638	0.000375	3.750497	1.270703	0.000150
1972	1.9611e+02	-1.5000	-34.257115	0.000416	4.155956	1.408076	0.000166
1973	1.9621e+02	-1.4631	-34.156187	0.000253	2.534120	0.858583	0.000101
1974	1.9631e+02	-1.4262	-33.986627	0.000426	4.257321	1.442419	0.000170
1975	1.9641e+02	-1.3925	-33.849365	0.000345	3.446403	1.167673	0.000138
1976	1.9651e+02	-1.3427	-33.671731	0.000446	4.460050	1.511106	0.000179
1977	1.9661e+02	-1.3010	-33.514282	0.000395	3.953226	1.339389	0.000158
1978	1.9671e+02	-1.2609	-33.352797	0.000405	4.054591	1.373733	0.000162
1979	1.9681e+02	-1.2160	-33.203423	0.000375	3.750497	1.270703	0.000150
1980	1.9691e+02	-1.1887	-33.074235	0.000324	3.243673	1.098986	0.000130
1981	1.9701e+02	-1.1470	-32.900638	0.000436	4.358686	1.476763	0.000174
1982	1.9711e+02	-1.0989	-32.714929	0.000466	4.662780	1.579793	0.000187
1983	1.9721e+02	-1.0636	-32.589778	0.000314	3.142308	1.064643	0.000126
1984	1.9731e+02	-1.0251	-32.387921	0.000507	5.068239	1.717166	0.000203
1985	1.9741e+02	-0.9914	-32.270845	0.000294	2.939579	0.995956	0.000118
1986	1.9751e+02	-0.9465	-32.113396	0.000395	3.953226	1.339389	0.000158
1987	1.9761e+02	-0.8936	-31.951911	0.000405	4.054591	1.373733	0.000162
1988	1.9771e+02	-0.8647	-31.810611	0.000355	3.547767	1.202016	0.000142
1989	1.9781e+02	-0.8214	-31.637014	0.000436	4.358686	1.476763	0.000174
1990	1.9791e+02	-0.7732	-31.447269	0.000476	4.764145	1.614136	0.000191
1991	1.9800e+02	-0.7379	-31.310006	0.000345	3.446403	1.167673	0.000138
1992	1.9810e+02	-0.7123	-31.176781	0.000335	3.345038	1.133329	0.000134
1993	1.9820e+02	-0.6609	-30.982998	0.000487	4.865509	1.648479	0.000195
1994	1.9830e+02	-0.6273	-30.845736	0.000345	3.446403	1.167673	0.000138
1995	1.9840e+02	-0.5871	-30.603507	0.000608	6.081887	2.060599	0.000243
1996	1.9850e+02	-0.5486	-30.526802	0.000193	1.925931	0.652523	0.000077
1997	1.9860e+02	-0.5101	-30.389539	0.000345	3.446403	1.167673	0.000138
1998	1.9870e+02	-0.4620	-30.211905	0.000446	4.460050	1.511106	0.000179
1999	1.9880e+02	-0.4219	-30.026197	0.000466	4.662780	1.579793	0.000187
2000	1.9890e+02	-0.3754	-29.852600	0.000436	4.358686	1.476763	0.000174
2001	1.9900e+02	-0.3481	-29.679003	0.000436	4.358686	1.476763	0.000174
2002	1.9910e+02	-0.3096	-29.549815	0.000324	3.243673	1.098986	0.000130
2003	1.9920e+02	-0.2695	-29.368144	0.000456	4.561415	1.545449	0.000183
2004	1.9930e+02	-0.2358	-29.166287	0.000507	5.068239	1.717166	0.000203
2005	1.9940e+02	-0.1925	-29.073433	0.000233	2.331390	0.789896	0.000093
2006	1.9950e+02	-0.1476	-28.907910	0.000416	4.155956	1.408076	0.000166
2007	1.9960e+02	-0.1091	-28.766611	0.000355	3.547767	1.202016	0.000142
2008	1.9970e+02	-0.0658	-28.609162	0.000395	3.953226	1.339389	0.000158
2009	1.9980e+02	-0.0209	-28.362897	0.000395	3.953226	1.339389	0.000248

Center data before PMax,+/-Pr and +/-Vc Calc.

PMax (uC/cm2):	7.68e+01
Pr (uC/cm2):	2.21e+01
-Pr (uC/cm2):	-2.84e+01
PLoss (uC/cm2):	-4.41e+01
-Vc:	-5.66e+00
C (Max-Eff) (nF):	3.85e-01
K (Eff):	1.30e+03
Vert. (+/-Pr) Shift (uC/cm2):	-3.15e+00
Offset (uC/cm2):	-1.58e+01

A (Loop Area - uC/cm2·Volts):	2.23e-01



Hysteresis Version: 5.48.1 - Radiant Technologies, Inc., 1999 - 9/12/24

