»»»»»»»»»»»»»»»»»»»»»»»»»»»»»»»»»»»» Hysteresis ««««««««««««««««««««««««««««««««««««
»»»  Executed Version:	5.48.1
»»»  Vision Version:	5.48.4 (R)
»»»  Vision Compiled:	9/18/24
»»»  Driver Version:	5.47.0
»»»  Windows Version:	Windows 8 or 8.1
»»»  Processor Information:	x86 (AMD or Intel) - 32 Processors
»»»  Tester Name:	PMF21124-494 (100V)
»»»  Tester S/N:	PMF21124-494
»»»  Internal Amp Type:	100V RevK 270k
»»»  Internal Amp S/N:	iAB2-596/K     
»»»  Execution Count:	1
»»»»»»»»»»»»»»»»»»»»»»»»»»»»»»»»»»»»»»»»»»««««««««««««««««««««««««««««««««««««««««««

Stored:	6/12/2025 - 12:43:53
Configured:	06/12/25 10:06:17 AM
Executed:	06/12/25 12:42:35 PM

»»»»»»»»»»»»»»»»»»»»»»»»»»»»»»»»»»» Sample Info ««««««««««««««««««««««««««««««««««««
Sample Name:	
Lot Name:	
Wafer Name:	
Die Row/Column:	0/0
Capacitor Number:	0
Sample Area (cm2):	1.00e-04
Sample Thickness (microns):	3.00e-01

Amplifier:	Internal

»»»»»»»»»»»»»»»»»»»»»»»»»»»»»»»»»»» Tester Info «««««««««««««««««««««««««««««««««««
Tester Name:	PMF21124-494 (100V)
Tester Serial Number:	PMF21124-494
Return Signal Amp. Level:	0.2 [Index: 1]

»»»»»»»»»»»»»»»»»»»»»»»»»»»»»»»» Hysteresis Info ««««««««««««««««««««««««««««««««««
Task Name:	Hyst-1390
Volts:	20.00
Field:	666.67 (kV/cm)
DCBias:	0.00
DCField:	0.00 (kV/cm)
Hysteresis Period (ms):	1.00e-02
Preset:	Enabled
Preset Delay (ms):	1.00e+03
Profile:	Standard Bipolar

»»»»»»»»»»»»»»»»»»»»»»»»»»»»»»»»»»»»»» Data «««««««««««««««««««««««««««««««««««««««
Points:	101

Valid Data

Point	Time (ms)	Drive Voltage	Measured Polarization (uC/cm2)	Capacitance (uF)	Normalized Capacitance (uF/cm2)	Dielectric Constant	Instantaneous Current (mA)
   1	0.0000e+00	0.0578	1.145050	0.000036	0.355227	0.120354	0.280346
   2	1.0000e-04	0.6577	1.425396	0.000036	0.355227	0.120354	0.280346
   3	2.0000e-04	1.6171	3.598988	0.000275	2.754163	0.933136	2.173592
   4	3.0000e-04	2.2058	6.089334	0.000316	3.155524	1.069120	2.490347
   5	4.0000e-04	3.0368	8.110011	0.000256	2.560403	0.867488	2.020676
   6	5.0000e-04	3.8614	10.290884	0.000276	2.763390	0.936262	2.180874
   7	6.0000e-04	4.6378	12.533653	0.000284	2.841817	0.962834	2.242768
   8	7.0000e-04	5.4239	14.536124	0.000254	2.537336	0.859673	2.002472
   9	8.0000e-04	6.2340	16.764329	0.000282	2.823363	0.956581	2.228205
  10	9.0000e-04	7.0586	19.014379	0.000285	2.851043	0.965960	2.250050
  11	1.0000e-03	7.8351	21.442831	0.000308	3.077097	1.042549	2.428452
  12	1.1000e-03	8.6372	23.376127	0.000245	2.449683	0.829975	1.933295
  13	1.2000e-03	9.4682	25.582487	0.000280	2.795683	0.947203	2.206360
  14	1.3000e-03	10.2286	27.552191	0.000250	2.495816	0.845605	1.969704
  15	1.4000e-03	11.0082	29.769473	0.000281	2.809523	0.951892	2.217282
  16	1.5000e-03	11.8328	32.121467	0.000298	2.980217	1.009725	2.351994
  17	1.6000e-03	12.6349	34.036558	0.000243	2.426616	0.822160	1.915091
  18	1.7000e-03	13.4804	36.006262	0.000250	2.495816	0.845605	1.969704
  19	1.8000e-03	14.2311	37.943198	0.000245	2.454296	0.831538	1.936936
  20	1.9000e-03	15.0477	39.821881	0.000238	2.380483	0.806529	1.878683
  21	2.0000e-03	15.8594	42.064649	0.000284	2.841817	0.962834	2.242768
  22	2.1000e-03	16.6503	43.786775	0.000218	2.182109	0.739319	1.722126
  23	2.2000e-03	17.4589	45.621767	0.000233	2.325123	0.787773	1.834992
  24	2.3000e-03	18.2530	47.285639	0.000211	2.108296	0.714310	1.663872
  25	2.4000e-03	19.0503	49.091505	0.000229	2.288216	0.775269	1.805865
  26	2.5000e-03	19.8283	51.268738	0.000276	2.758777	0.934699	2.177233
  27	2.6000e-03	19.5957	52.044240	-0.000098	-0.982641	-0.332928	0.775503
  28	2.7000e-03	18.2915	49.674042	0.000300	3.003284	1.017540	-2.370198
  29	2.8000e-03	17.7540	47.602394	0.000262	2.624990	0.889371	-2.071648
  30	2.9000e-03	17.0498	46.775919	0.000105	1.047228	0.354810	-0.826475
  31	3.0000e-03	16.1418	45.559873	0.000154	1.540855	0.522056	-1.216046
  32	3.1000e-03	15.4183	43.710317	0.000234	2.343576	0.794025	-1.849556
  33	3.2000e-03	14.5873	41.988191	0.000218	2.182109	0.739319	-1.722126
  34	3.3000e-03	13.8221	40.134995	0.000235	2.348189	0.795588	-1.853197
  35	3.4000e-03	12.9654	38.238108	0.000240	2.403550	0.814345	-1.896887
  36	3.5000e-03	12.2194	37.087597	0.000146	1.457815	0.493921	-1.150511
  37	3.6000e-03	11.4173	35.329063	0.000223	2.228243	0.754949	-1.758534
  38	3.7000e-03	10.5767	33.166393	0.000274	2.740323	0.928447	-2.162669
  39	3.8000e-03	9.8051	31.087463	0.000263	2.634216	0.892497	-2.078930
  40	3.9000e-03	8.9917	29.063147	0.000257	2.565016	0.869051	-2.024317
  41	4.0000e-03	8.2393	27.712388	0.000171	1.711549	0.579888	-1.350758
  42	4.1000e-03	7.4452	25.557001	0.000273	2.731097	0.925321	-2.155388
  43	4.2000e-03	6.5533	23.194084	0.000299	2.994057	1.014414	-2.362917
  44	4.3000e-03	5.8105	21.009569	0.000277	2.768003	0.937825	-2.184515
  45	4.4000e-03	5.0373	18.970689	0.000258	2.583470	0.875303	-2.038880
  46	4.5000e-03	4.2288	17.226718	0.000221	2.209789	0.748697	-1.743971
  47	4.6000e-03	3.4122	14.867442	0.000299	2.989444	1.012851	-2.359276
  48	4.7000e-03	2.6245	12.424427	0.000310	3.095550	1.048801	-2.443016
  49	4.8000e-03	1.8096	9.992334	0.000308	3.081710	1.044112	-2.432093
  50	4.9000e-03	1.0251	7.665826	0.000295	2.947924	0.998784	-2.326508
  51	5.0000e-03	0.2102	5.725249	0.000246	2.458910	0.833101	-1.940577
  52	5.1000e-03	-0.5454	3.391459	0.000296	2.957150	1.001910	-2.333790
  53	5.2000e-03	-1.3748	0.973929	0.000306	3.063257	1.037860	-2.417530
  54	5.3000e-03	-2.1818	-1.607439	0.000327	3.270857	1.108196	-2.581368
  55	5.4000e-03	-2.9470	-4.003123	0.000304	3.035577	1.028481	-2.395684
  56	5.5000e-03	-3.8052	-6.023799	0.000256	2.560403	0.867488	-2.020676
  57	5.6000e-03	-4.5817	-8.397638	0.000301	3.007897	1.019103	-2.373839
  58	5.7000e-03	-5.3630	-10.756914	0.000299	2.989444	1.012851	-2.359276
  59	5.8000e-03	-6.1859	-13.068859	0.000293	2.929470	0.992531	-2.311945
  60	5.9000e-03	-7.0169	-15.380803	0.000293	2.929470	0.992531	-2.311945
  61	6.0000e-03	-7.7549	-17.649058	0.000287	2.874110	0.973775	-2.268254
  62	6.1000e-03	-8.5634	-19.571431	0.000244	2.435843	0.825286	-1.922373
  63	6.2000e-03	-9.4088	-21.974397	0.000304	3.044804	1.031607	-2.402966
  64	6.3000e-03	-10.1789	-24.147989	0.000275	2.754163	0.933136	-2.173592
  65	6.4000e-03	-10.9810	-26.270609	0.000269	2.689577	0.911253	-2.122620
  66	6.5000e-03	-11.7879	-28.349538	0.000263	2.634216	0.892497	-2.078930
  67	6.6000e-03	-12.5852	-30.341088	0.000252	2.523496	0.854984	-1.991549
  68	6.7000e-03	-13.4467	-32.314432	0.000250	2.500430	0.847168	-1.973345
  69	6.8000e-03	-14.1702	-34.411567	0.000266	2.657283	0.900312	-2.097134
  70	6.9000e-03	-14.9531	-36.388552	0.000251	2.505043	0.848732	-1.976986
  71	7.0000e-03	-15.7921	-38.591271	0.000279	2.791070	0.945640	-2.202719
  72	7.1000e-03	-16.5990	-40.553693	0.000249	2.486590	0.842479	-1.962422
  73	7.2000e-03	-17.3819	-42.669032	0.000268	2.680350	0.908127	-2.115338
  74	7.3000e-03	-18.1760	-44.864469	0.000278	2.781843	0.942514	-2.195437
  75	7.4000e-03	-18.9540	-47.387583	0.000320	3.197044	1.083188	-2.523114
  76	7.5000e-03	-19.7561	-50.540566	0.000400	3.995151	1.353594	-3.152983
  77	7.6000e-03	-19.4224	-52.044240	-0.000191	-1.905309	-0.645536	-1.503674
  78	7.7000e-03	-18.2401	-50.504158	0.000195	1.951442	0.661167	1.540083
  79	7.8000e-03	-17.6995	-49.047814	0.000185	1.845336	0.625217	1.456343
  80	7.9000e-03	-16.9214	-48.254107	0.000101	1.005708	0.340743	0.793707
  81	8.0000e-03	-16.0872	-47.558704	0.000088	0.881148	0.298541	0.695404
  82	8.1000e-03	-15.3220	-45.534387	0.000257	2.565016	0.869051	2.024317
  83	8.2000e-03	-14.5039	-43.841388	0.000215	2.145203	0.726814	1.692999
  84	8.3000e-03	-13.7403	-42.119262	0.000218	2.182109	0.739319	1.722126
  85	8.4000e-03	-12.8772	-40.353446	0.000224	2.237469	0.758075	1.765816
  86	8.5000e-03	-12.1440	-39.672606	0.000086	0.862694	0.292289	0.680840
  87	8.6000e-03	-11.3323	-37.549986	0.000269	2.689577	0.911253	2.122620
  88	8.7000e-03	-10.5174	-35.416443	0.000270	2.703417	0.915942	2.133543
  89	8.8000e-03	-9.7168	-33.479507	0.000245	2.454296	0.831538	1.936936
  90	8.9000e-03	-8.9677	-31.578979	0.000241	2.408163	0.815908	1.900528
  91	9.0000e-03	-8.1367	-30.734300	0.000107	1.070295	0.362626	0.844679
  92	9.1000e-03	-7.3426	-28.407792	0.000295	2.947924	0.998784	2.326508
  93	9.2000e-03	-6.5052	-26.037594	0.000300	3.003284	1.017540	2.370198
  94	9.3000e-03	-5.7576	-23.995073	0.000259	2.588083	0.876866	2.042521
  95	9.4000e-03	-4.9603	-21.948911	0.000259	2.592696	0.878429	2.046162
  96	9.5000e-03	-4.1309	-20.900344	0.000133	1.328642	0.450156	1.048567
  97	9.6000e-03	-3.3464	-18.246158	0.000336	3.363124	1.139457	2.654185
  98	9.7000e-03	-2.5267	-15.861397	0.000302	3.021737	1.023792	2.384762
  99	9.8000e-03	-1.7486	-13.640473	0.000281	2.814137	0.953455	2.220923
 100	9.9000e-03	-0.9529	-11.310324	0.000295	2.952537	1.000347	2.330149
 101	1.0000e-02	-0.1909	-10.221708	0.000295	2.952537	1.000347	1.088616

Center data before PMax,+/-Pr and +/-Vc Calc.

PMax (uC/cm2):	5.13e+01
Pr (uC/cm2):	5.08e+00
-Pr (uC/cm2):	-1.02e+01
PLoss (uC/cm2):	-1.14e+01
-Vc:	-1.68e+00
C (Max-Eff) (nF):	2.59e-01
K (Eff):	8.76e+02
Vert. (+/-Pr) Shift (uC/cm2):	-2.57e+00
Offset (uC/cm2):	-1.14e+00

A (Loop Area - uC/cm2·Volts):	-8.39e-01



Hysteresis Version: 5.48.1 - Radiant Technologies, Inc., 1999 - 9/12/24

