»»»»»»»»»»»»»»»»»»»»»»»»»»»»»»»»»»»» Hysteresis ««««««««««««««««««««««««««««««««««««
»»»  Executed Version:	5.48.1
»»»  Vision Version:	5.48.4 (R)
»»»  Vision Compiled:	9/18/24
»»»  Driver Version:	5.47.0
»»»  Windows Version:	Windows 8 or 8.1
»»»  Processor Information:	x86 (AMD or Intel) - 32 Processors
»»»  Tester Name:	PMF21124-494 (100V)
»»»  Tester S/N:	PMF21124-494
»»»  Internal Amp Type:	100V RevK 270k
»»»  Internal Amp S/N:	iAB2-596/K     
»»»  Execution Count:	1
»»»»»»»»»»»»»»»»»»»»»»»»»»»»»»»»»»»»»»»»»»««««««««««««««««««««««««««««««««««««««««««

Stored:	6/12/2025 - 12:37:51
Configured:	06/12/25 10:06:17 AM
Executed:	06/12/25 12:37:21 PM

»»»»»»»»»»»»»»»»»»»»»»»»»»»»»»»»»»» Sample Info ««««««««««««««««««««««««««««««««««««
Sample Name:	
Lot Name:	
Wafer Name:	
Die Row/Column:	0/0
Capacitor Number:	0
Sample Area (cm2):	1.00e-04
Sample Thickness (microns):	3.00e-01

Amplifier:	Internal

»»»»»»»»»»»»»»»»»»»»»»»»»»»»»»»»»»» Tester Info «««««««««««««««««««««««««««««««««««
Tester Name:	PMF21124-494 (100V)
Tester Serial Number:	PMF21124-494
Return Signal Amp. Level:	1.9 [Index: 2]

»»»»»»»»»»»»»»»»»»»»»»»»»»»»»»»» Hysteresis Info ««««««««««««««««««««««««««««««««««
Task Name:	Hyst-1390
Volts:	20.00
Field:	666.67 (kV/cm)
DCBias:	0.00
DCField:	0.00 (kV/cm)
Hysteresis Period (ms):	2.00e+02
Preset:	Enabled
Preset Delay (ms):	1.00e+03
Profile:	Standard Bipolar

»»»»»»»»»»»»»»»»»»»»»»»»»»»»»»»»»»»»»» Data «««««««««««««««««««««««««««««««««««««««
Points:	2009

Valid Data

Point	Time (ms)	Drive Voltage	Measured Polarization (uC/cm2)	Capacitance (uF)	Normalized Capacitance (uF/cm2)	Dielectric Constant	Instantaneous Current (mA)
   1	0.0000e+00	0.0016	1.470507	0.000116	1.156754	0.391919	0.000047
   2	9.9500e-02	0.0690	1.516944	0.000116	1.156754	0.391919	0.000047
   3	1.9900e-01	0.0995	1.583748	0.000166	1.664103	0.563813	0.000067
   4	2.9850e-01	0.1332	1.647701	0.000159	1.593074	0.539748	0.000064
   5	3.9800e-01	0.1652	1.723874	0.000190	1.897483	0.642885	0.000077
   6	4.9750e-01	0.2086	1.789456	0.000163	1.633662	0.553500	0.000066
   7	5.9700e-01	0.2519	1.859111	0.000174	1.735131	0.587878	0.000070
   8	6.9650e-01	0.2920	1.931618	0.000181	1.806160	0.611944	0.000073
   9	7.9600e-01	0.3465	2.000459	0.000171	1.714838	0.581003	0.000069
  10	8.9550e-01	0.3642	2.075410	0.000187	1.867042	0.632571	0.000075
  11	9.9500e-01	0.4203	2.143844	0.000170	1.704691	0.577565	0.000069
  12	1.0945e+00	0.4556	2.215129	0.000178	1.775719	0.601630	0.000072
  13	1.1940e+00	0.4829	2.288043	0.000182	1.816307	0.615382	0.000073
  14	1.2935e+00	0.5470	2.358921	0.000177	1.765572	0.598192	0.000071
  15	1.3930e+00	0.5631	2.426540	0.000168	1.684397	0.570689	0.000068
  16	1.4925e+00	0.6048	2.501491	0.000187	1.867042	0.632571	0.000075
  17	1.5920e+00	0.6465	2.573183	0.000179	1.785866	0.605068	0.000072
  18	1.6915e+00	0.6770	2.648949	0.000189	1.887336	0.639447	0.000076
  19	1.7910e+00	0.7444	2.718197	0.000172	1.724985	0.584441	0.000070
  20	1.8905e+00	0.7524	2.791926	0.000184	1.836601	0.622257	0.000074
  21	1.9900e+00	0.8166	2.863211	0.000178	1.775719	0.601630	0.000072
  22	2.0895e+00	0.8518	2.939384	0.000190	1.897483	0.642885	0.000077
  23	2.1890e+00	0.9016	3.010261	0.000177	1.765572	0.598192	0.000071
  24	2.2885e+00	0.9561	3.084398	0.000185	1.846748	0.625695	0.000075
  25	2.3880e+00	0.9593	3.154053	0.000174	1.735131	0.587878	0.000070
  26	2.4875e+00	1.0155	3.227782	0.000184	1.836601	0.622257	0.000074
  27	2.5870e+00	1.0251	3.299475	0.000179	1.785866	0.605068	0.000072
  28	2.6865e+00	1.0989	3.372796	0.000183	1.826454	0.618819	0.000074
  29	2.7860e+00	1.1262	3.441637	0.000171	1.714838	0.581003	0.000069
  30	2.8855e+00	1.1935	3.510071	0.000170	1.704691	0.577565	0.000069
  31	2.9850e+00	1.2240	3.586651	0.000191	1.907630	0.646323	0.000077
  32	3.0845e+00	1.2641	3.653048	0.000165	1.653956	0.560375	0.000067
  33	3.1840e+00	1.2962	3.728814	0.000189	1.887336	0.639447	0.000076
  34	3.2835e+00	1.3299	3.800099	0.000178	1.775719	0.601630	0.000072
  35	3.3830e+00	1.3925	3.868125	0.000169	1.694544	0.574127	0.000068
  36	3.4825e+00	1.4053	3.944705	0.000191	1.907630	0.646323	0.000077
  37	3.5820e+00	1.4518	4.013139	0.000170	1.704691	0.577565	0.000069
  38	3.6815e+00	1.5016	4.086460	0.000183	1.826454	0.618819	0.000074
  39	3.7810e+00	1.5529	4.156116	0.000174	1.735131	0.587878	0.000070
  40	3.8805e+00	1.5641	4.228216	0.000180	1.796013	0.608506	0.000072
  41	3.9800e+00	1.6267	4.299908	0.000179	1.785866	0.605068	0.000072
  42	4.0795e+00	1.6524	4.373230	0.000183	1.826454	0.618819	0.000074
  43	4.1790e+00	1.6925	4.444515	0.000178	1.775719	0.601630	0.000072
  44	4.2785e+00	1.7310	4.517836	0.000183	1.826454	0.618819	0.000074
  45	4.3780e+00	1.7342	4.589529	0.000179	1.785866	0.605068	0.000072
  46	4.4775e+00	1.8256	4.658369	0.000171	1.714838	0.581003	0.000069
  47	4.5770e+00	1.8465	4.732098	0.000184	1.836601	0.622257	0.000074
  48	4.6765e+00	1.8898	4.804198	0.000180	1.796013	0.608506	0.000072
  49	4.7760e+00	1.9138	4.876705	0.000181	1.806160	0.611944	0.000073
  50	4.8755e+00	1.9780	4.952471	0.000189	1.887336	0.639447	0.000076
  51	4.9750e+00	2.0197	5.020090	0.000168	1.684397	0.570689	0.000068
  52	5.0745e+00	2.0358	5.097077	0.000192	1.917777	0.649760	0.000077
  53	5.1740e+00	2.0775	5.169992	0.000182	1.816307	0.615382	0.000073
  54	5.2735e+00	2.1352	5.241277	0.000178	1.775719	0.601630	0.000072
  55	5.3730e+00	2.1641	5.319894	0.000196	1.958365	0.663512	0.000079
  56	5.4725e+00	2.2122	5.395659	0.000189	1.887336	0.639447	0.000076
  57	5.5720e+00	2.2491	5.468166	0.000181	1.806160	0.611944	0.000073
  58	5.6715e+00	2.2908	5.544747	0.000191	1.907630	0.646323	0.000077
  59	5.7710e+00	2.3454	5.615217	0.000176	1.755425	0.594754	0.000071
  60	5.8705e+00	2.3983	5.690168	0.000187	1.867042	0.632571	0.000075
  61	5.9700e+00	2.4112	5.757380	0.000167	1.674250	0.567251	0.000068
  62	6.0695e+00	2.4513	5.835997	0.000196	1.958365	0.663512	0.000079
  63	6.1690e+00	2.4898	5.907282	0.000178	1.775719	0.601630	0.000072
  64	6.2685e+00	2.5235	5.985491	0.000195	1.948218	0.660074	0.000079
  65	6.3680e+00	2.5716	6.057591	0.000180	1.796013	0.608506	0.000072
  66	6.4675e+00	2.6165	6.131320	0.000184	1.836601	0.622257	0.000074
  67	6.5670e+00	2.6566	6.200976	0.000174	1.735131	0.587878	0.000070
  68	6.6665e+00	2.6839	6.277963	0.000192	1.917777	0.649760	0.000077
  69	6.7660e+00	2.7304	6.350878	0.000182	1.816307	0.615382	0.000073
  70	6.8655e+00	2.7705	6.422570	0.000179	1.785866	0.605068	0.000072
  71	6.9650e+00	2.8202	6.495077	0.000181	1.806160	0.611944	0.000073
  72	7.0645e+00	2.8652	6.564733	0.000174	1.735131	0.587878	0.000070
  73	7.1640e+00	2.8812	6.638869	0.000185	1.846748	0.625695	0.000075
  74	7.2635e+00	2.8988	6.708932	0.000175	1.745278	0.591316	0.000070
  75	7.3630e+00	2.9614	6.782253	0.000183	1.826454	0.618819	0.000074
  76	7.4625e+00	3.0079	6.854353	0.000180	1.796013	0.608506	0.000072
  77	7.5620e+00	3.0689	6.921565	0.000167	1.674250	0.567251	0.000068
  78	7.6615e+00	3.0930	6.996516	0.000187	1.867042	0.632571	0.000075
  79	7.7610e+00	3.1170	7.064135	0.000168	1.684397	0.570689	0.000068
  80	7.8605e+00	3.1844	7.141122	0.000192	1.917777	0.649760	0.000077
  81	7.9600e+00	3.2261	7.209963	0.000171	1.714838	0.581003	0.000069
  82	8.0595e+00	3.2486	7.284100	0.000185	1.846748	0.625695	0.000075
  83	8.1590e+00	3.2967	7.358643	0.000186	1.856895	0.629133	0.000075
  84	8.2585e+00	3.3240	7.429928	0.000178	1.775719	0.601630	0.000072
  85	8.3580e+00	3.3561	7.498362	0.000170	1.704691	0.577565	0.000069
  86	8.4575e+00	3.4138	7.565981	0.000168	1.684397	0.570689	0.000068
  87	8.5570e+00	3.4491	7.639710	0.000184	1.836601	0.622257	0.000074
  88	8.6565e+00	3.4940	7.711809	0.000180	1.796013	0.608506	0.000072
  89	8.7560e+00	3.5213	7.779835	0.000169	1.694544	0.574127	0.000068
  90	8.8555e+00	3.5646	7.848676	0.000171	1.714838	0.581003	0.000069
  91	8.9550e+00	3.5806	7.919147	0.000176	1.755425	0.594754	0.000071
  92	9.0545e+00	3.6448	7.987987	0.000171	1.714838	0.581003	0.000069
  93	9.1540e+00	3.6737	8.057643	0.000174	1.735131	0.587878	0.000070
  94	9.2535e+00	3.7234	8.126891	0.000172	1.724985	0.584441	0.000070
  95	9.3530e+00	3.7924	8.194103	0.000167	1.674250	0.567251	0.000068
  96	9.4525e+00	3.8084	8.259685	0.000163	1.633662	0.553500	0.000066
  97	9.5520e+00	3.8421	8.333414	0.000184	1.836601	0.622257	0.000074
  98	9.6515e+00	3.8742	8.401033	0.000168	1.684397	0.570689	0.000068
  99	9.7510e+00	3.9352	8.476391	0.000188	1.877189	0.636009	0.000076
 100	9.8505e+00	3.9705	8.542381	0.000164	1.643809	0.556937	0.000066
 101	9.9500e+00	3.9929	8.614073	0.000179	1.785866	0.605068	0.000072
 102	1.0050e+01	4.0330	8.682099	0.000169	1.694544	0.574127	0.000068
 103	1.0149e+01	4.1149	8.744423	0.000155	1.552486	0.525997	0.000063
 104	1.0248e+01	4.1485	8.815707	0.000178	1.775719	0.601630	0.000072
 105	1.0348e+01	4.1469	8.884548	-0.000171	-1.714838	-0.581003	0.000069
 106	1.0447e+01	4.2239	8.953797	0.000172	1.724985	0.584441	0.000070
 107	1.0547e+01	4.2528	9.017342	0.000158	1.582927	0.536310	0.000064
 108	1.0646e+01	4.2785	9.090664	0.000183	1.826454	0.618819	0.000074
 109	1.0746e+01	4.3475	9.161134	0.000176	1.755425	0.594754	0.000071
 110	1.0845e+01	4.3587	9.231604	0.000176	1.755425	0.594754	0.000071
 111	1.0945e+01	4.4084	9.299223	0.000168	1.684397	0.570689	0.000068
 112	1.1044e+01	4.4517	9.368471	0.000172	1.724985	0.584441	0.000070
 113	1.1144e+01	4.4694	9.437720	0.000172	1.724985	0.584441	0.000070
 114	1.1243e+01	4.5223	9.510634	0.000182	1.816307	0.615382	0.000073
 115	1.1343e+01	4.5673	9.581511	0.000177	1.765572	0.598192	0.000071
 116	1.1443e+01	4.6074	9.649130	0.000168	1.684397	0.570689	0.000068
 117	1.1542e+01	4.6459	9.719193	0.000175	1.745278	0.591316	0.000070
 118	1.1642e+01	4.7068	9.791700	0.000181	1.806160	0.611944	0.000073
 119	1.1741e+01	4.7277	9.861763	0.000175	1.745278	0.591316	0.000070
 120	1.1841e+01	4.7517	9.930197	0.000170	1.704691	0.577565	0.000069
 121	1.1940e+01	4.8063	10.001074	0.000177	1.765572	0.598192	0.000071
 122	1.2040e+01	4.8352	10.070323	0.000172	1.724985	0.584441	0.000070
 123	1.2139e+01	4.8817	10.142015	0.000179	1.785866	0.605068	0.000072
 124	1.2239e+01	4.9298	10.210041	0.000169	1.694544	0.574127	0.000068
 125	1.2338e+01	4.9683	10.279697	0.000174	1.735131	0.587878	0.000070
 126	1.2438e+01	5.0036	10.351796	0.000180	1.796013	0.608506	0.000072
 127	1.2537e+01	5.0453	10.420637	0.000171	1.714838	0.581003	0.000069
 128	1.2636e+01	5.0822	10.492329	0.000179	1.785866	0.605068	0.000072
 129	1.2736e+01	5.1095	10.564429	0.000180	1.796013	0.608506	0.000072
 130	1.2835e+01	5.1720	10.631233	0.000166	1.664103	0.563813	0.000067
 131	1.2935e+01	5.1993	10.699667	0.000170	1.704691	0.577565	0.000069
 132	1.3034e+01	5.2539	10.771766	0.000180	1.796013	0.608506	0.000072
 133	1.3134e+01	5.2924	10.844681	0.000182	1.816307	0.615382	0.000073
 134	1.3233e+01	5.3389	10.908634	0.000159	1.593074	0.539748	0.000064
 135	1.3333e+01	5.3678	10.977067	0.000170	1.704691	0.577565	0.000069
 136	1.3432e+01	5.3998	11.049574	0.000181	1.806160	0.611944	0.000073
 137	1.3532e+01	5.4496	11.113119	0.000158	1.582927	0.536310	0.000064
 138	1.3632e+01	5.4752	11.179924	0.000166	1.664103	0.563813	0.000067
 139	1.3731e+01	5.5009	11.247950	0.000169	1.694544	0.574127	0.000068
 140	1.3831e+01	5.5571	11.313125	0.000162	1.623515	0.550062	0.000066
 141	1.3930e+01	5.6148	11.388076	0.000187	1.867042	0.632571	0.000075
 142	1.4030e+01	5.6276	11.451621	0.000158	1.582927	0.536310	0.000064
 143	1.4129e+01	5.6774	11.521277	0.000174	1.735131	0.587878	0.000070
 144	1.4229e+01	5.7030	11.589303	0.000169	1.694544	0.574127	0.000068
 145	1.4328e+01	5.7768	11.661403	0.000180	1.796013	0.608506	0.000072
 146	1.4428e+01	5.7897	11.727799	0.000165	1.653956	0.560375	0.000067
 147	1.4527e+01	5.8282	11.795826	0.000169	1.694544	0.574127	0.000068
 148	1.4627e+01	5.8843	11.865481	0.000174	1.735131	0.587878	0.000070
 149	1.4726e+01	5.9228	11.936359	0.000177	1.765572	0.598192	0.000071
 150	1.4825e+01	5.9581	12.002348	0.000164	1.643809	0.556937	0.000066
 151	1.4925e+01	6.0159	12.069560	0.000167	1.674250	0.567251	0.000068
 152	1.5024e+01	6.0656	12.136364	0.000166	1.664103	0.563813	0.000067
 153	1.5124e+01	6.0961	12.205612	0.000172	1.724985	0.584441	0.000070
 154	1.5223e+01	6.1250	12.270787	0.000162	1.623515	0.550062	0.000066
 155	1.5323e+01	6.1603	12.343701	0.000182	1.816307	0.615382	0.000073
 156	1.5422e+01	6.1939	12.410098	0.000165	1.653956	0.560375	0.000067
 157	1.5522e+01	6.2228	12.481383	0.000178	1.775719	0.601630	0.000072
 158	1.5621e+01	6.2726	12.553483	0.000180	1.796013	0.608506	0.000072
 159	1.5721e+01	6.3303	12.623953	0.000176	1.755425	0.594754	0.000071
 160	1.5820e+01	6.3608	12.693609	0.000174	1.735131	0.587878	0.000070
 161	1.5920e+01	6.4153	12.766116	0.000181	1.806160	0.611944	0.000073
 162	1.6020e+01	6.4282	12.833734	0.000168	1.684397	0.570689	0.000068
 163	1.6119e+01	6.4827	12.899724	0.000164	1.643809	0.556937	0.000066
 164	1.6218e+01	6.5052	12.973860	0.000185	1.846748	0.625695	0.000075
 165	1.6318e+01	6.5533	13.040664	0.000166	1.664103	0.563813	0.000067
 166	1.6418e+01	6.6014	13.105025	0.000160	1.603221	0.543186	0.000065
 167	1.6517e+01	6.6078	13.174273	0.000172	1.724985	0.584441	0.000070
 168	1.6616e+01	6.6848	13.246372	0.000180	1.796013	0.608506	0.000072
 169	1.6716e+01	6.7282	13.309918	0.000158	1.582927	0.536310	0.000064
 170	1.6816e+01	6.7490	13.382832	0.000182	1.816307	0.615382	0.000073
 171	1.6915e+01	6.7779	13.449229	0.000165	1.653956	0.560375	0.000067
 172	1.7015e+01	6.8549	13.521329	0.000180	1.796013	0.608506	0.000072
 173	1.7114e+01	6.8565	13.590577	0.000172	1.724985	0.584441	0.000070
 174	1.7213e+01	6.9223	13.660232	0.000174	1.735131	0.587878	0.000070
 175	1.7313e+01	6.9495	13.732739	0.000181	1.806160	0.611944	0.000073
 176	1.7413e+01	6.9977	13.804024	0.000178	1.775719	0.601630	0.000072
 177	1.7512e+01	7.0426	13.875309	0.000178	1.775719	0.601630	0.000072
 178	1.7611e+01	7.0747	13.943743	0.000170	1.704691	0.577565	0.000069
 179	1.7711e+01	7.1116	14.018287	0.000186	1.856895	0.629133	0.000075
 180	1.7811e+01	7.1581	14.089572	0.000178	1.775719	0.601630	0.000072
 181	1.7910e+01	7.2110	14.155561	0.000164	1.643809	0.556937	0.000066
 182	1.8009e+01	7.2190	14.223180	0.000168	1.684397	0.570689	0.000068
 183	1.8109e+01	7.2864	14.298538	0.000188	1.877189	0.636009	0.000076
 184	1.8209e+01	7.3185	14.363306	0.000161	1.613368	0.546624	0.000065
 185	1.8308e+01	7.3506	14.439886	0.000191	1.907630	0.646323	0.000077
 186	1.8407e+01	7.3955	14.509542	0.000174	1.735131	0.587878	0.000070
 187	1.8507e+01	7.4276	14.580012	0.000176	1.755425	0.594754	0.000071
 188	1.8607e+01	7.4565	14.650075	0.000175	1.745278	0.591316	0.000070
 189	1.8706e+01	7.5094	14.723804	0.000184	1.836601	0.622257	0.000074
 190	1.8805e+01	7.5591	14.791830	0.000169	1.694544	0.574127	0.000068
 191	1.8905e+01	7.5768	14.863522	0.000179	1.785866	0.605068	0.000072
 192	1.9005e+01	7.6281	14.928290	0.000161	1.613368	0.546624	0.000065
 193	1.9104e+01	7.6795	14.999167	0.000177	1.765572	0.598192	0.000071
 194	1.9203e+01	7.7244	15.071674	0.000181	1.806160	0.611944	0.000073
 195	1.9303e+01	7.7340	15.135220	0.000158	1.582927	0.536310	0.000064
 196	1.9402e+01	7.7821	15.201209	0.000164	1.643809	0.556937	0.000066
 197	1.9502e+01	7.8174	15.272087	0.000177	1.765572	0.598192	0.000071
 198	1.9602e+01	7.8495	15.342150	0.000175	1.745278	0.591316	0.000070
 199	1.9701e+01	7.9121	15.408139	0.000164	1.643809	0.556937	0.000066
 200	1.9800e+01	7.9410	15.470463	0.000155	1.552486	0.525997	0.000063
 201	1.9900e+01	7.9795	15.541748	0.000178	1.775719	0.601630	0.000072
 202	2.0000e+01	7.9987	15.604886	0.000157	1.572780	0.532872	0.000063
 203	2.0099e+01	8.0629	15.679837	0.000187	1.867042	0.632571	0.000075
 204	2.0198e+01	8.1206	15.740124	0.000150	1.501751	0.508807	0.000061
 205	2.0298e+01	8.1479	15.810594	0.000176	1.755425	0.594754	0.000071
 206	2.0398e+01	8.1832	15.877805	0.000167	1.674250	0.567251	0.000068
 207	2.0497e+01	8.2425	15.945424	0.000168	1.684397	0.570689	0.000068
 208	2.0596e+01	8.2714	16.012636	0.000167	1.674250	0.567251	0.000068
 209	2.0696e+01	8.3212	16.079440	0.000166	1.664103	0.563813	0.000067
 210	2.0796e+01	8.3356	16.146244	0.000166	1.664103	0.563813	0.000067
 211	2.0895e+01	8.3773	16.211012	0.000161	1.613368	0.546624	0.000065
 212	2.0994e+01	8.4463	16.278223	0.000167	1.674250	0.567251	0.000068
 213	2.1094e+01	8.4479	16.342176	0.000159	1.593074	0.539748	0.000064
 214	2.1194e+01	8.5089	16.411831	0.000174	1.735131	0.587878	0.000070
 215	2.1293e+01	8.5634	16.475377	0.000158	1.582927	0.536310	0.000064
 216	2.1392e+01	8.5971	16.545847	0.000176	1.755425	0.594754	0.000071
 217	2.1492e+01	8.6147	16.609800	0.000159	1.593074	0.539748	0.000064
 218	2.1591e+01	8.6901	16.677011	0.000167	1.674250	0.567251	0.000068
 219	2.1691e+01	8.6885	16.743001	-0.000164	-1.643809	-0.556937	0.000066
 220	2.1791e+01	8.7511	16.812249	0.000172	1.724985	0.584441	0.000070
 221	2.1890e+01	8.7944	16.882719	0.000176	1.755425	0.594754	0.000071
 222	2.1989e+01	8.8185	16.948709	0.000164	1.643809	0.556937	0.000066
 223	2.2089e+01	8.8538	17.011847	0.000157	1.572780	0.532872	0.000063
 224	2.2189e+01	8.9308	17.081910	0.000175	1.745278	0.591316	0.000070
 225	2.2288e+01	8.9260	17.152380	-0.000176	-1.755425	-0.594754	0.000071
 226	2.2387e+01	9.0254	17.216333	0.000159	1.593074	0.539748	0.000064
 227	2.2487e+01	9.0206	17.276212	-0.000149	-1.491604	-0.505369	0.000060
 228	2.2587e+01	9.0639	17.349534	0.000183	1.826454	0.618819	0.000074
 229	2.2686e+01	9.1040	17.414709	0.000162	1.623515	0.550062	0.000066
 230	2.2785e+01	9.1441	17.476217	0.000153	1.532192	0.519121	0.000062
 231	2.2885e+01	9.1874	17.542207	0.000164	1.643809	0.556937	0.000066
 232	2.2985e+01	9.2324	17.613085	0.000177	1.765572	0.598192	0.000071
 233	2.3084e+01	9.2500	17.675815	0.000156	1.562633	0.529434	0.000063
 234	2.3183e+01	9.3174	17.743434	0.000168	1.684397	0.570689	0.000068
 235	2.3283e+01	9.3479	17.809424	0.000164	1.643809	0.556937	0.000066
 236	2.3383e+01	9.3783	17.875821	0.000165	1.653956	0.560375	0.000067
 237	2.3482e+01	9.4088	17.942625	0.000166	1.664103	0.563813	0.000067
 238	2.3581e+01	9.4682	18.007392	0.000161	1.613368	0.546624	0.000065
 239	2.3681e+01	9.4922	18.074604	0.000167	1.674250	0.567251	0.000068
 240	2.3780e+01	9.5227	18.133668	0.000147	1.471310	0.498493	0.000059
 241	2.3880e+01	9.5853	18.199658	0.000164	1.643809	0.556937	0.000066
 242	2.3980e+01	9.6126	18.262389	0.000156	1.562633	0.529434	0.000063
 243	2.4079e+01	9.6591	18.324305	0.000154	1.542339	0.522559	0.000062
 244	2.4178e+01	9.7008	18.386628	0.000155	1.552486	0.525997	0.000063
 245	2.4278e+01	9.7634	18.448544	0.000154	1.542339	0.522559	0.000062
 246	2.4378e+01	9.7746	18.511275	0.000156	1.562633	0.529434	0.000063
 247	2.4477e+01	9.8323	18.576450	0.000162	1.623515	0.550062	0.000066
 248	2.4576e+01	9.8372	18.638366	0.000154	1.542339	0.522559	0.000062
 249	2.4676e+01	9.8853	18.704763	0.000165	1.653956	0.560375	0.000067
 250	2.4776e+01	9.9382	18.763420	0.000146	1.461163	0.495056	0.000059
 251	2.4875e+01	9.9960	18.828187	0.000161	1.613368	0.546624	0.000065
 252	2.4974e+01	10.0313	18.887659	0.000148	1.481457	0.501931	0.000060
 253	2.5074e+01	10.0553	18.952427	0.000161	1.613368	0.546624	0.000065
 254	2.5174e+01	10.1035	19.015158	0.000156	1.562633	0.529434	0.000063
 255	2.5273e+01	10.1371	19.080332	0.000162	1.623515	0.550062	0.000066
 256	2.5372e+01	10.1740	19.138175	0.000144	1.440869	0.488180	0.000058
 257	2.5472e+01	10.2142	19.200906	0.000156	1.562633	0.529434	0.000063
 258	2.5572e+01	10.2687	19.258341	0.000143	1.430722	0.484742	0.000058
 259	2.5671e+01	10.3056	19.321479	0.000157	1.572780	0.532872	0.000063
 260	2.5770e+01	10.3569	19.383395	0.000154	1.542339	0.522559	0.000062
 261	2.5870e+01	10.3890	19.440423	0.000142	1.420575	0.481304	0.000057
 262	2.5970e+01	10.4147	19.502747	0.000155	1.552486	0.525997	0.000063
 263	2.6069e+01	10.4580	19.559367	0.000141	1.410429	0.477866	0.000057
 264	2.6169e+01	10.4933	19.616803	0.000143	1.430722	0.484742	0.000058
 265	2.6268e+01	10.5559	19.678719	0.000154	1.542339	0.522559	0.000062
 266	2.6367e+01	10.5767	19.742264	0.000158	1.582927	0.536310	0.000064
 267	2.6467e+01	10.6537	19.801329	0.000147	1.471310	0.498493	0.000059
 268	2.6567e+01	10.6826	19.862023	0.000151	1.511898	0.512245	0.000061
 269	2.6666e+01	10.6778	19.919458	-0.000143	-1.430722	-0.484742	0.000058
 270	2.6765e+01	10.7500	19.976486	0.000142	1.420575	0.481304	0.000057
 271	2.6865e+01	10.7708	20.032699	0.000140	1.400282	0.474428	0.000056
 272	2.6965e+01	10.8206	20.093801	0.000152	1.522045	0.515683	0.000061
 273	2.7064e+01	10.8607	20.150829	0.000142	1.420575	0.481304	0.000057
 274	2.7163e+01	10.9393	20.210708	0.000149	1.491604	0.505369	0.000060
 275	2.7263e+01	10.9296	20.267736	-0.000142	-1.420575	-0.481304	0.000057
 276	2.7363e+01	10.9601	20.324764	0.000142	1.420575	0.481304	0.000057
 277	2.7462e+01	11.0002	20.387902	0.000157	1.572780	0.532872	0.000063
 278	2.7561e+01	11.0516	20.446967	0.000147	1.471310	0.498493	0.000059
 279	2.7661e+01	11.1013	20.511734	0.000161	1.613368	0.546624	0.000065
 280	2.7761e+01	11.1254	20.569577	0.000144	1.440869	0.488180	0.000058
 281	2.7860e+01	11.1783	20.623753	0.000135	1.349547	0.457239	0.000054
 282	2.7959e+01	11.2008	20.690965	0.000167	1.674250	0.567251	0.000068
 283	2.8059e+01	11.2842	20.749622	0.000146	1.461163	0.495056	0.000059
 284	2.8159e+01	11.2810	20.810724	-0.000152	-1.522045	-0.515683	0.000061
 285	2.8258e+01	11.3419	20.872232	0.000153	1.532192	0.519121	0.000062
 286	2.8358e+01	11.3467	20.933334	0.000152	1.522045	0.515683	0.000061
 287	2.8457e+01	11.4077	20.992398	0.000147	1.471310	0.498493	0.000059
 288	2.8556e+01	11.4622	21.051463	0.000147	1.471310	0.498493	0.000059
 289	2.8656e+01	11.4863	21.111342	0.000149	1.491604	0.505369	0.000060
 290	2.8756e+01	11.5537	21.170814	0.000148	1.481457	0.501931	0.000060
 291	2.8855e+01	11.5745	21.229064	0.000145	1.451016	0.491618	0.000059
 292	2.8954e+01	11.6211	21.289758	0.000151	1.511898	0.512245	0.000061
 293	2.9054e+01	11.6596	21.348823	0.000147	1.471310	0.498493	0.000059
 294	2.9154e+01	11.6868	21.411147	0.000155	1.552486	0.525997	0.000063
 295	2.9253e+01	11.7173	21.470211	0.000147	1.471310	0.498493	0.000059
 296	2.9352e+01	11.7430	21.528461	0.000145	1.451016	0.491618	0.000059
 297	2.9452e+01	11.8120	21.590785	0.000155	1.552486	0.525997	0.000063
 298	2.9552e+01	11.8473	21.650664	0.000149	1.491604	0.505369	0.000060
 299	2.9651e+01	11.9018	21.710951	0.000150	1.501751	0.508807	0.000061
 300	2.9750e+01	11.9355	21.767571	0.000141	1.410429	0.477866	0.000057
 301	2.9850e+01	11.9820	21.828265	0.000151	1.511898	0.512245	0.000061
 302	2.9950e+01	12.0205	21.885293	0.000142	1.420575	0.481304	0.000057
 303	3.0049e+01	12.0526	21.943136	0.000144	1.440869	0.488180	0.000058
 304	3.0148e+01	12.0767	22.000571	0.000143	1.430722	0.484742	0.000058
 305	3.0248e+01	12.1280	22.060451	0.000149	1.491604	0.505369	0.000060
 306	3.0348e+01	12.1761	22.113812	0.000133	1.329253	0.450363	0.000054
 307	3.0447e+01	12.2050	22.174914	0.000152	1.522045	0.515683	0.000061
 308	3.0547e+01	12.2628	22.230312	0.000138	1.379988	0.467552	0.000056
 309	3.0646e+01	12.2804	22.293858	0.000158	1.582927	0.536310	0.000064
 310	3.0745e+01	12.3237	22.349256	0.000138	1.379988	0.467552	0.000056
 311	3.0845e+01	12.3767	22.404655	0.000138	1.379988	0.467552	0.000056
 312	3.0945e+01	12.4232	22.464127	0.000148	1.481457	0.501931	0.000060
 313	3.1044e+01	12.4472	22.524821	0.000151	1.511898	0.512245	0.000061
 314	3.1143e+01	12.4809	22.582256	0.000143	1.430722	0.484742	0.000058
 315	3.1243e+01	12.5451	22.638470	0.000140	1.400282	0.474428	0.000056
 316	3.1343e+01	12.5884	22.697534	0.000147	1.471310	0.498493	0.000059
 317	3.1442e+01	12.6012	22.756192	0.000146	1.461163	0.495056	0.000059
 318	3.1541e+01	12.6558	22.811183	0.000137	1.369841	0.464115	0.000055
 319	3.1641e+01	12.6783	22.870248	0.000147	1.471310	0.498493	0.000059
 320	3.1741e+01	12.7681	22.927276	0.000142	1.420575	0.481304	0.000057
 321	3.1840e+01	12.7745	22.986340	0.000147	1.471310	0.498493	0.000059
 322	3.1939e+01	12.8194	23.041739	0.000138	1.379988	0.467552	0.000056
 323	3.2039e+01	12.8547	23.102025	0.000150	1.501751	0.508807	0.000061
 324	3.2139e+01	12.8980	23.161497	0.000148	1.481457	0.501931	0.000060
 325	3.2238e+01	12.9333	23.220562	0.000147	1.471310	0.498493	0.000059
 326	3.2337e+01	12.9654	23.275961	0.000138	1.379988	0.467552	0.000056
 327	3.2437e+01	13.0376	23.334618	0.000146	1.461163	0.495056	0.000059
 328	3.2536e+01	13.0424	23.399386	0.000161	1.613368	0.546624	0.000065
 329	3.2636e+01	13.0825	23.453562	0.000135	1.349547	0.457239	0.000054
 330	3.2736e+01	13.1274	23.514663	0.000152	1.522045	0.515683	0.000061
 331	3.2835e+01	13.1868	23.573728	0.000147	1.471310	0.498493	0.000059
 332	3.2934e+01	13.2221	23.631163	0.000143	1.430722	0.484742	0.000058
 333	3.3034e+01	13.2365	23.688599	0.000143	1.430722	0.484742	0.000058
 334	3.3133e+01	13.2830	23.747256	0.000146	1.461163	0.495056	0.000059
 335	3.3233e+01	13.3135	23.803877	0.000141	1.410429	0.477866	0.000057
 336	3.3333e+01	13.3584	23.867015	0.000157	1.572780	0.532872	0.000063
 337	3.3432e+01	13.3841	23.925672	0.000146	1.461163	0.495056	0.000059
 338	3.3532e+01	13.4435	23.982293	0.000141	1.410429	0.477866	0.000057
 339	3.3631e+01	13.4980	24.039728	0.000143	1.430722	0.484742	0.000058
 340	3.3730e+01	13.5333	24.096349	0.000141	1.410429	0.477866	0.000057
 341	3.3830e+01	13.5798	24.159894	0.000158	1.582927	0.536310	0.000064
 342	3.3929e+01	13.6039	24.218959	0.000147	1.471310	0.498493	0.000059
 343	3.4029e+01	13.6488	24.284134	0.000162	1.623515	0.550062	0.000066
 344	3.4129e+01	13.6793	24.341162	0.000142	1.420575	0.481304	0.000057
 345	3.4228e+01	13.7114	24.400226	0.000147	1.471310	0.498493	0.000059
 346	3.4328e+01	13.7515	24.461735	0.000153	1.532192	0.519121	0.000062
 347	3.4427e+01	13.7996	24.525280	0.000158	1.582927	0.536310	0.000064
 348	3.4526e+01	13.8381	24.582308	0.000142	1.420575	0.481304	0.000057
 349	3.4626e+01	13.8766	24.640558	0.000145	1.451016	0.491618	0.000059
 350	3.4725e+01	13.9151	24.700845	0.000150	1.501751	0.508807	0.000061
 351	3.4825e+01	13.9504	24.760724	0.000149	1.491604	0.505369	0.000060
 352	3.4925e+01	14.0033	24.821418	0.000151	1.511898	0.512245	0.000061
 353	3.5024e+01	14.0370	24.881298	0.000149	1.491604	0.505369	0.000060
 354	3.5123e+01	14.0884	24.941584	0.000150	1.501751	0.508807	0.000061
 355	3.5223e+01	14.1317	25.002686	0.000152	1.522045	0.515683	0.000061
 356	3.5322e+01	14.1558	25.061750	0.000147	1.471310	0.498493	0.000059
 357	3.5422e+01	14.1926	25.121630	0.000149	1.491604	0.505369	0.000060
 358	3.5522e+01	14.2536	25.183139	0.000153	1.532192	0.519121	0.000062
 359	3.5621e+01	14.2600	25.241389	0.000145	1.451016	0.491618	0.000059
 360	3.5721e+01	14.3226	25.300453	0.000147	1.471310	0.498493	0.000059
 361	3.5820e+01	14.3354	25.362777	0.000155	1.552486	0.525997	0.000063
 362	3.5919e+01	14.3771	25.416546	0.000134	1.339400	0.453801	0.000054
 363	3.6019e+01	14.4702	25.473574	0.000142	1.420575	0.481304	0.000057
 364	3.6118e+01	14.4654	25.533046	-0.000148	-1.481457	-0.501931	0.000060
 365	3.6218e+01	14.5071	25.590074	0.000142	1.420575	0.481304	0.000057
 366	3.6318e+01	14.5616	25.646287	0.000140	1.400282	0.474428	0.000056
 367	3.6417e+01	14.6049	25.706166	0.000149	1.491604	0.505369	0.000060
 368	3.6517e+01	14.6466	25.761565	0.000138	1.379988	0.467552	0.000056
 369	3.6616e+01	14.6819	25.818186	0.000141	1.410429	0.477866	0.000057
 370	3.6715e+01	14.7220	25.873584	0.000138	1.379988	0.467552	0.000056
 371	3.6815e+01	14.7461	25.929797	0.000140	1.400282	0.474428	0.000056
 372	3.6914e+01	14.8007	25.986011	0.000140	1.400282	0.474428	0.000056
 373	3.7014e+01	14.8359	26.048741	0.000156	1.562633	0.529434	0.000063
 374	3.7114e+01	14.8889	26.104955	0.000140	1.400282	0.474428	0.000056
 375	3.7213e+01	14.9290	26.156687	0.000129	1.288665	0.436611	0.000052
 376	3.7313e+01	14.9514	26.215752	0.000147	1.471310	0.498493	0.000059
 377	3.7412e+01	14.9900	26.272373	0.000141	1.410429	0.477866	0.000057
 378	3.7511e+01	15.0252	26.329808	0.000143	1.430722	0.484742	0.000058
 379	3.7611e+01	15.0830	26.381133	0.000128	1.278518	0.433174	0.000052
 380	3.7711e+01	15.1247	26.440605	0.000148	1.481457	0.501931	0.000060
 381	3.7810e+01	15.1552	26.495596	0.000137	1.369841	0.464115	0.000055
 382	3.7910e+01	15.1937	26.554254	0.000146	1.461163	0.495056	0.000059
 383	3.8009e+01	15.2386	26.609652	0.000138	1.379988	0.467552	0.000056
 384	3.8108e+01	15.2482	26.662199	0.000131	1.308959	0.443487	0.000053
 385	3.8208e+01	15.2980	26.720449	0.000145	1.451016	0.491618	0.000059
 386	3.8307e+01	15.3653	26.781551	0.000152	1.522045	0.515683	0.000061
 387	3.8407e+01	15.3990	26.836949	0.000138	1.379988	0.467552	0.000056
 388	3.8507e+01	15.4664	26.896421	0.000148	1.481457	0.501931	0.000060
 389	3.8606e+01	15.4792	26.955079	0.000146	1.461163	0.495056	0.000059
 390	3.8706e+01	15.4921	27.007626	0.000131	1.308959	0.443487	0.000053
 391	3.8805e+01	15.5466	27.067913	0.000150	1.501751	0.508807	0.000061
 392	3.8904e+01	15.6140	27.122904	0.000137	1.369841	0.464115	0.000055
 393	3.9004e+01	15.6236	27.180339	0.000143	1.430722	0.484742	0.000058
 394	3.9103e+01	15.6653	27.237367	0.000142	1.420575	0.481304	0.000057
 395	3.9203e+01	15.7183	27.289914	0.000131	1.308959	0.443487	0.000053
 396	3.9303e+01	15.7552	27.346942	0.000142	1.420575	0.481304	0.000057
 397	3.9402e+01	15.7760	27.400304	0.000133	1.329253	0.450363	0.000054
 398	3.9502e+01	15.8290	27.458147	0.000144	1.440869	0.488180	0.000058
 399	3.9601e+01	15.8883	27.515989	0.000144	1.440869	0.488180	0.000058
 400	3.9700e+01	15.9300	27.571388	0.000138	1.379988	0.467552	0.000056
 401	3.9800e+01	15.9621	27.628823	0.000143	1.430722	0.484742	0.000058
 402	3.9900e+01	15.9814	27.681778	0.000132	1.319106	0.446925	0.000053
 403	3.9999e+01	16.0696	27.738806	0.000142	1.420575	0.481304	0.000057
 404	4.0099e+01	16.0937	27.795019	0.000140	1.400282	0.474428	0.000056
 405	4.0198e+01	16.1177	27.853269	0.000145	1.451016	0.491618	0.000059
 406	4.0297e+01	16.1659	27.902965	0.000124	1.237930	0.419422	0.000050
 407	4.0397e+01	16.1883	27.959585	0.000141	1.410429	0.477866	0.000057
 408	4.0496e+01	16.2509	28.013355	0.000134	1.339400	0.453801	0.000054
 409	4.0596e+01	16.2798	28.065087	0.000129	1.288665	0.436611	0.000052
 410	4.0696e+01	16.3295	28.117634	0.000131	1.308959	0.443487	0.000053
 411	4.0795e+01	16.3455	28.173848	0.000140	1.400282	0.474428	0.000056
 412	4.0895e+01	16.3856	28.227617	0.000134	1.339400	0.453801	0.000054
 413	4.0994e+01	16.4289	28.279349	0.000129	1.288665	0.436611	0.000052
 414	4.1093e+01	16.4787	28.335970	0.000141	1.410429	0.477866	0.000057
 415	4.1193e+01	16.5108	28.384036	0.000120	1.197342	0.405671	0.000048
 416	4.1292e+01	16.5605	28.439435	0.000138	1.379988	0.467552	0.000056
 417	4.1392e+01	16.6118	28.495241	0.000139	1.390135	0.470990	0.000056
 418	4.1492e+01	16.6134	28.546973	0.000129	1.288665	0.436611	0.000052
 419	4.1591e+01	16.6648	28.600743	0.000134	1.339400	0.453801	0.000054
 420	4.1691e+01	16.7033	28.654512	0.000134	1.339400	0.453801	0.000054
 421	4.1790e+01	16.7626	28.706244	0.000129	1.288665	0.436611	0.000052
 422	4.1889e+01	16.7963	28.757162	0.000127	1.268371	0.429736	0.000051
 423	4.1989e+01	16.8316	28.810117	0.000132	1.319106	0.446925	0.000053
 424	4.2089e+01	16.8749	28.861034	0.000127	1.268371	0.429736	0.000051
 425	4.2188e+01	16.9118	28.911545	0.000126	1.258224	0.426298	0.000051
 426	4.2288e+01	16.9535	28.963277	0.000129	1.288665	0.436611	0.000052
 427	4.2387e+01	16.9616	29.017861	0.000136	1.359694	0.460677	0.000055
 428	4.2486e+01	17.0273	29.063076	0.000113	1.126313	0.381605	0.000045
 429	4.2586e+01	17.1011	29.112772	0.000124	1.237930	0.419422	0.000050
 430	4.2685e+01	17.1188	29.162061	0.000123	1.227783	0.415984	0.000050
 431	4.2785e+01	17.1492	29.214200	0.000130	1.298812	0.440049	0.000052
 432	4.2885e+01	17.1845	29.269599	0.000138	1.379988	0.467552	0.000056
 433	4.2984e+01	17.2198	29.315629	0.000115	1.146607	0.388481	0.000046
 434	4.3084e+01	17.2664	29.368583	0.000132	1.319106	0.446925	0.000053
 435	4.3183e+01	17.3193	29.421130	0.000131	1.308959	0.443487	0.000053
 436	4.3282e+01	17.3706	29.472456	0.000128	1.278518	0.433174	0.000052
 437	4.3382e+01	17.3787	29.519707	0.000118	1.177048	0.398795	0.000047
 438	4.3481e+01	17.4541	29.570218	0.000126	1.258224	0.426298	0.000051
 439	4.3581e+01	17.4861	29.620728	0.000126	1.258224	0.426298	0.000051
 440	4.3681e+01	17.5118	29.670017	0.000123	1.227783	0.415984	0.000050
 441	4.3780e+01	17.5327	29.717676	0.000119	1.187195	0.402233	0.000048
 442	4.3880e+01	17.5968	29.764520	0.000117	1.166901	0.395357	0.000047
 443	4.3979e+01	17.6401	29.815031	0.000126	1.258224	0.426298	0.000051
 444	4.4078e+01	17.6610	29.864727	0.000124	1.237930	0.419422	0.000050
 445	4.4178e+01	17.7268	29.918903	0.000135	1.349547	0.457239	0.000054
 446	4.4278e+01	17.7300	29.966562	0.000119	1.187195	0.402233	0.000048
 447	4.4377e+01	17.7925	30.021553	0.000137	1.369841	0.464115	0.000055
 448	4.4477e+01	17.8278	30.071249	0.000124	1.237930	0.419422	0.000050
 449	4.4576e+01	17.8728	30.120130	0.000122	1.217636	0.412546	0.000049
 450	4.4675e+01	17.9081	30.170641	0.000126	1.258224	0.426298	0.000051
 451	4.4775e+01	17.9337	30.227261	0.000141	1.410429	0.477866	0.000057
 452	4.4874e+01	17.9802	30.276957	0.000124	1.237930	0.419422	0.000050
 453	4.4974e+01	18.0107	30.328282	0.000128	1.278518	0.433174	0.000052
 454	4.5074e+01	18.0685	30.378385	0.000125	1.248077	0.422860	0.000050
 455	4.5173e+01	18.1038	30.432155	0.000134	1.339400	0.453801	0.000054
 456	4.5273e+01	18.1278	30.482258	0.000125	1.248077	0.422860	0.000050
 457	4.5372e+01	18.1936	30.531546	0.000123	1.227783	0.415984	0.000050
 458	4.5471e+01	18.2209	30.581649	0.000125	1.248077	0.422860	0.000050
 459	4.5571e+01	18.2674	30.635419	0.000134	1.339400	0.453801	0.000054
 460	4.5670e+01	18.3139	30.685114	0.000124	1.237930	0.419422	0.000050
 461	4.5770e+01	18.3460	30.738069	0.000132	1.319106	0.446925	0.000053
 462	4.5870e+01	18.3973	30.786950	0.000122	1.217636	0.412546	0.000049
 463	4.5969e+01	18.4391	30.840719	0.000134	1.339400	0.453801	0.000054
 464	4.6069e+01	18.4824	30.889193	0.000121	1.207489	0.409108	0.000049
 465	4.6168e+01	18.5064	30.944999	0.000139	1.390135	0.470990	0.000056
 466	4.6267e+01	18.5401	30.991843	0.000117	1.166901	0.395357	0.000047
 467	4.6367e+01	18.5818	31.050093	0.000145	1.451016	0.491618	0.000059
 468	4.6467e+01	18.6155	31.097752	0.000119	1.187195	0.402233	0.000048
 469	4.6566e+01	18.6508	31.145411	0.000119	1.187195	0.402233	0.000048
 470	4.6666e+01	18.7038	31.195515	0.000125	1.248077	0.422860	0.000050
 471	4.6765e+01	18.7631	31.247654	0.000130	1.298812	0.440049	0.000052
 472	4.6864e+01	18.7791	31.292869	0.000113	1.126313	0.381605	0.000045
 473	4.6964e+01	18.8449	31.343380	0.000126	1.258224	0.426298	0.000051
 474	4.7063e+01	18.8545	31.389817	0.000116	1.156754	0.391919	0.000047
 475	4.7163e+01	18.9075	31.437476	0.000119	1.187195	0.402233	0.000048
 476	4.7263e+01	18.9524	31.490431	0.000132	1.319106	0.446925	0.000053
 477	4.7362e+01	18.9941	31.538090	0.000119	1.187195	0.402233	0.000048
 478	4.7462e+01	19.0278	31.592266	0.000135	1.349547	0.457239	0.000054
 479	4.7561e+01	19.0615	31.638296	0.000115	1.146607	0.388481	0.000046
 480	4.7660e+01	19.1000	31.693695	0.000138	1.379988	0.467552	0.000056
 481	4.7760e+01	19.1273	31.737688	0.000110	1.095873	0.371292	0.000044
 482	4.7859e+01	19.2107	31.787791	0.000125	1.248077	0.422860	0.000050
 483	4.7959e+01	19.2075	31.838301	-0.000126	-1.258224	-0.426298	0.000051
 484	4.8059e+01	19.2733	31.887997	0.000124	1.237930	0.419422	0.000050
 485	4.8158e+01	19.2941	31.938507	0.000126	1.258224	0.426298	0.000051
 486	4.8258e+01	19.3294	31.987796	0.000123	1.227783	0.415984	0.000050
 487	4.8357e+01	19.4112	32.035455	0.000119	1.187195	0.402233	0.000048
 488	4.8456e+01	19.4273	32.085558	0.000125	1.248077	0.422860	0.000050
 489	4.8556e+01	19.4722	32.136069	0.000126	1.258224	0.426298	0.000051
 490	4.8656e+01	19.4882	32.182913	0.000117	1.166901	0.395357	0.000047
 491	4.8755e+01	19.5363	32.235867	0.000132	1.319106	0.446925	0.000053
 492	4.8855e+01	19.5748	32.289637	0.000134	1.339400	0.453801	0.000054
 493	4.8954e+01	19.6198	32.342591	0.000132	1.319106	0.446925	0.000053
 494	4.9053e+01	19.6470	32.389843	0.000118	1.177048	0.398795	0.000047
 495	4.9153e+01	19.7176	32.442390	0.000131	1.308959	0.443487	0.000053
 496	4.9252e+01	19.7449	32.494123	0.000129	1.288665	0.436611	0.000052
 497	4.9352e+01	19.7866	32.548707	0.000136	1.359694	0.460677	0.000055
 498	4.9452e+01	19.8091	32.599624	0.000127	1.268371	0.429736	0.000051
 499	4.9551e+01	19.8604	32.650135	0.000126	1.258224	0.426298	0.000051
 500	4.9651e+01	19.8973	32.705126	0.000137	1.369841	0.464115	0.000055
 501	4.9750e+01	19.9326	32.752378	0.000118	1.177048	0.398795	0.000047
 502	4.9849e+01	19.9823	32.800444	0.000120	1.197342	0.405671	0.000048
 503	4.9949e+01	20.0256	32.852584	0.000130	1.298812	0.440049	0.000052
 504	5.0048e+01	19.9823	32.817553	0.000087	0.872639	0.295658	-0.000035
 505	5.0148e+01	19.9583	32.783743	0.000084	0.842198	0.285345	-0.000034
 506	5.0248e+01	19.9117	32.747897	0.000089	0.892933	0.302534	-0.000036
 507	5.0347e+01	19.8412	32.714495	0.000083	0.832051	0.281907	-0.000034
 508	5.0447e+01	19.8412	32.677834	0.000091	0.913227	0.309410	-0.000037
 509	5.0546e+01	19.7962	32.640766	0.000092	0.923374	0.312848	-0.000037
 510	5.0645e+01	19.7449	32.604105	0.000091	0.913227	0.309410	-0.000037
 511	5.0745e+01	19.7096	32.567444	0.000091	0.913227	0.309410	-0.000037
 512	5.0844e+01	19.6647	32.527932	0.000098	0.984256	0.333475	-0.000040
 513	5.0944e+01	19.6294	32.493308	0.000086	0.862492	0.292220	-0.000035
 514	5.1044e+01	19.5845	32.455832	0.000093	0.933521	0.316285	-0.000038
 515	5.1143e+01	19.5636	32.419579	0.000090	0.903080	0.305972	-0.000036
 516	5.1242e+01	19.4690	32.378030	0.000103	1.034991	0.350664	-0.000042
 517	5.1342e+01	19.4786	32.344221	-0.000084	-0.842198	-0.285345	-0.000034
 518	5.1441e+01	19.4112	32.300228	0.000110	1.095873	0.371292	-0.000044
 519	5.1541e+01	19.3535	32.264789	0.000088	0.882786	0.299096	-0.000036
 520	5.1641e+01	19.3406	32.226091	0.000096	0.963962	0.326599	-0.000039
 521	5.1740e+01	19.3085	32.185764	0.000100	1.004550	0.340351	-0.000041
 522	5.1840e+01	19.2861	32.148696	0.000092	0.923374	0.312848	-0.000037
 523	5.1939e+01	19.2155	32.115701	0.000082	0.821904	0.278469	-0.000033
 524	5.2038e+01	19.1995	32.074560	0.000102	1.024844	0.347226	-0.000041
 525	5.2138e+01	19.1417	32.035048	0.000098	0.984256	0.333475	-0.000040
 526	5.2237e+01	19.1096	31.999201	0.000089	0.892933	0.302534	-0.000036
 527	5.2337e+01	19.0438	31.956431	0.000107	1.065432	0.360978	-0.000043
 528	5.2437e+01	19.0310	31.915289	0.000102	1.024844	0.347226	-0.000041
 529	5.2536e+01	18.9877	31.873740	0.000103	1.034991	0.350664	-0.000042
 530	5.2636e+01	18.9428	31.835042	0.000096	0.963962	0.326599	-0.000039
 531	5.2735e+01	18.8979	31.790642	0.000111	1.106019	0.374730	-0.000045
 532	5.2834e+01	18.8626	31.750723	0.000099	0.994403	0.336913	-0.000040
 533	5.2934e+01	18.8016	31.709988	0.000101	1.014697	0.343789	-0.000041
 534	5.3033e+01	18.7759	31.661107	0.000122	1.217636	0.412546	-0.000049
 535	5.3133e+01	18.7567	31.620780	0.000100	1.004550	0.340351	-0.000041
 536	5.3233e+01	18.7086	31.580861	0.000099	0.994403	0.336913	-0.000040
 537	5.3332e+01	18.6620	31.538090	0.000107	1.065432	0.360978	-0.000043
 538	5.3431e+01	18.6348	31.494911	0.000108	1.075579	0.364416	-0.000043
 539	5.3531e+01	18.5834	31.452548	0.000106	1.055285	0.357540	-0.000043
 540	5.3630e+01	18.5578	31.409777	0.000107	1.065432	0.360978	-0.000043
 541	5.3730e+01	18.4888	31.368635	0.000102	1.024844	0.347226	-0.000041
 542	5.3830e+01	18.4759	31.323013	0.000114	1.136460	0.385043	-0.000046
 543	5.3929e+01	18.4310	31.280649	0.000106	1.055285	0.357540	-0.000043
 544	5.4029e+01	18.3909	31.234620	0.000115	1.146607	0.388481	-0.000046
 545	5.4128e+01	18.3508	31.190627	0.000110	1.095873	0.371292	-0.000044
 546	5.4227e+01	18.3203	31.144597	0.000115	1.146607	0.388481	-0.000046
 547	5.4327e+01	18.2626	31.101011	0.000109	1.085726	0.367854	-0.000044
 548	5.4426e+01	18.2321	31.057833	0.000108	1.075579	0.364416	-0.000043
 549	5.4526e+01	18.2048	31.017099	0.000101	1.014697	0.343789	-0.000041
 550	5.4626e+01	18.1760	30.971476	0.000114	1.136460	0.385043	-0.000046
 551	5.4725e+01	18.1230	30.927483	0.000110	1.095873	0.371292	-0.000044
 552	5.4825e+01	18.0524	30.885120	0.000106	1.055285	0.357540	-0.000043
 553	5.4924e+01	18.0316	30.842349	0.000107	1.065432	0.360978	-0.000043
 554	5.5023e+01	18.0011	30.795504	0.000117	1.166901	0.395357	-0.000047
 555	5.5123e+01	17.9530	30.755992	0.000098	0.984256	0.333475	-0.000040
 556	5.5222e+01	17.8968	30.709962	0.000115	1.146607	0.388481	-0.000046
 557	5.5322e+01	17.8535	30.673301	0.000091	0.913227	0.309410	-0.000037
 558	5.5422e+01	17.8214	30.626050	0.000118	1.177048	0.398795	-0.000047
 559	5.5521e+01	17.7653	30.584501	0.000103	1.034991	0.350664	-0.000042
 560	5.5620e+01	17.7508	30.540915	0.000109	1.085726	0.367854	-0.000044
 561	5.5720e+01	17.7075	30.497737	0.000108	1.075579	0.364416	-0.000043
 562	5.5819e+01	17.6802	30.451707	0.000115	1.146607	0.388481	-0.000046
 563	5.5919e+01	17.6209	30.404048	0.000119	1.187195	0.402233	-0.000048
 564	5.6019e+01	17.5808	30.361684	0.000106	1.055285	0.357540	-0.000043
 565	5.6118e+01	17.5471	30.316062	0.000114	1.136460	0.385043	-0.000046
 566	5.6218e+01	17.5182	30.277365	0.000096	0.963962	0.326599	-0.000039
 567	5.6317e+01	17.4877	30.232149	0.000113	1.126313	0.381605	-0.000045
 568	5.6416e+01	17.4156	30.184083	0.000120	1.197342	0.405671	-0.000048
 569	5.6516e+01	17.3867	30.137646	0.000116	1.156754	0.391919	-0.000047
 570	5.6615e+01	17.3514	30.096912	0.000101	1.014697	0.343789	-0.000041
 571	5.6715e+01	17.2984	30.049660	0.000118	1.177048	0.398795	-0.000047
 572	5.6815e+01	17.2648	30.007296	0.000106	1.055285	0.357540	-0.000043
 573	5.6914e+01	17.2327	29.957193	0.000125	1.248077	0.422860	-0.000050
 574	5.7014e+01	17.1926	29.912793	0.000111	1.106019	0.374730	-0.000045
 575	5.7113e+01	17.1428	29.865949	0.000117	1.166901	0.395357	-0.000047
 576	5.7212e+01	17.1107	29.819919	0.000115	1.146607	0.388481	-0.000046
 577	5.7312e+01	17.0722	29.769816	0.000125	1.248077	0.422860	-0.000050
 578	5.7411e+01	17.0241	29.724193	0.000114	1.136460	0.385043	-0.000046
 579	5.7511e+01	17.0129	29.678164	0.000115	1.146607	0.388481	-0.000046
 580	5.7611e+01	16.9535	29.629690	0.000121	1.207489	0.409108	-0.000049
 581	5.7710e+01	16.9182	29.582845	0.000117	1.166901	0.395357	-0.000047
 582	5.7809e+01	16.8621	29.535594	0.000118	1.177048	0.398795	-0.000047
 583	5.7909e+01	16.8284	29.487527	0.000120	1.197342	0.405671	-0.000048
 584	5.8008e+01	16.8124	29.443942	0.000109	1.085726	0.367854	-0.000044
 585	5.8108e+01	16.7370	29.393431	0.000126	1.258224	0.426298	-0.000051
 586	5.8208e+01	16.7081	29.346179	0.000118	1.177048	0.398795	-0.000047
 587	5.8307e+01	16.6696	29.300150	0.000115	1.146607	0.388481	-0.000046
 588	5.8407e+01	16.6455	29.249232	0.000127	1.268371	0.429736	-0.000051
 589	5.8506e+01	16.6054	29.197907	0.000128	1.278518	0.433174	-0.000052
 590	5.8605e+01	16.5685	29.154321	0.000109	1.085726	0.367854	-0.000044
 591	5.8705e+01	16.4995	29.100959	0.000133	1.329253	0.450363	-0.000054
 592	5.8804e+01	16.4739	29.055744	0.000113	1.126313	0.381605	-0.000045
 593	5.8904e+01	16.4466	29.004826	0.000127	1.268371	0.429736	-0.000051
 594	5.9004e+01	16.3776	28.953501	0.000128	1.278518	0.433174	-0.000052
 595	5.9103e+01	16.3728	28.902176	0.000128	1.278518	0.433174	-0.000052
 596	5.9203e+01	16.3215	28.850851	0.000128	1.278518	0.433174	-0.000052
 597	5.9302e+01	16.2733	28.798711	0.000130	1.298812	0.440049	-0.000052
 598	5.9401e+01	16.2204	28.748608	0.000125	1.248077	0.422860	-0.000050
 599	5.9501e+01	16.2108	28.696875	0.000129	1.288665	0.436611	-0.000052
 600	5.9600e+01	16.1466	28.648809	0.000120	1.197342	0.405671	-0.000048
 601	5.9700e+01	16.0953	28.597076	0.000129	1.288665	0.436611	-0.000052
 602	5.9800e+01	16.0953	28.548603	0.000121	1.207489	0.409108	-0.000049
 603	5.9899e+01	16.0680	28.498092	0.000126	1.258224	0.426298	-0.000051
 604	5.9998e+01	16.0054	28.448396	0.000124	1.237930	0.419422	-0.000050
 605	6.0098e+01	15.9541	28.397886	0.000126	1.258224	0.426298	-0.000051
 606	6.0197e+01	15.9012	28.343709	0.000135	1.349547	0.457239	-0.000054
 607	6.0297e+01	15.8707	28.289940	0.000134	1.339400	0.453801	-0.000054
 608	6.0397e+01	15.8242	28.240244	0.000124	1.237930	0.419422	-0.000050
 609	6.0496e+01	15.8242	28.191771	0.000121	1.207489	0.409108	-0.000049
 610	6.0596e+01	15.7728	28.135965	0.000139	1.390135	0.470990	-0.000056
 611	6.0695e+01	15.7054	28.085862	0.000125	1.248077	0.422860	-0.000050
 612	6.0794e+01	15.6878	28.030463	0.000138	1.379988	0.467552	-0.000056
 613	6.0894e+01	15.6236	27.980767	0.000124	1.237930	0.419422	-0.000050
 614	6.0993e+01	15.5899	27.933515	0.000118	1.177048	0.398795	-0.000047
 615	6.1093e+01	15.5755	27.882190	0.000128	1.278518	0.433174	-0.000052
 616	6.1193e+01	15.5145	27.834124	0.000120	1.197342	0.405671	-0.000048
 617	6.1292e+01	15.4841	27.786057	0.000120	1.197342	0.405671	-0.000048
 618	6.1392e+01	15.4407	27.731474	0.000136	1.359694	0.460677	-0.000055
 619	6.1491e+01	15.3990	27.683000	0.000121	1.207489	0.409108	-0.000049
 620	6.1590e+01	15.3669	27.632082	0.000127	1.268371	0.429736	-0.000051
 621	6.1690e+01	15.3268	27.577498	0.000136	1.359694	0.460677	-0.000055
 622	6.1789e+01	15.2899	27.528210	0.000123	1.227783	0.415984	-0.000050
 623	6.1889e+01	15.2402	27.475255	0.000132	1.319106	0.446925	-0.000053
 624	6.1989e+01	15.1905	27.428411	0.000117	1.166901	0.395357	-0.000047
 625	6.2088e+01	15.1568	27.376271	0.000130	1.298812	0.440049	-0.000052
 626	6.2188e+01	15.1055	27.325353	0.000127	1.268371	0.429736	-0.000051
 627	6.2287e+01	15.0910	27.276879	0.000121	1.207489	0.409108	-0.000049
 628	6.2386e+01	15.0333	27.227591	0.000123	1.227783	0.415984	-0.000050
 629	6.2486e+01	15.0060	27.175451	0.000130	1.298812	0.440049	-0.000052
 630	6.2586e+01	14.9755	27.126977	0.000121	1.207489	0.409108	-0.000049
 631	6.2685e+01	14.9113	27.073615	0.000133	1.329253	0.450363	-0.000054
 632	6.2785e+01	14.8696	27.025549	0.000120	1.197342	0.405671	-0.000048
 633	6.2884e+01	14.8616	26.970150	0.000138	1.379988	0.467552	-0.000056
 634	6.2983e+01	14.7910	26.924121	0.000115	1.146607	0.388481	-0.000046
 635	6.3083e+01	14.7589	26.870759	0.000133	1.329253	0.450363	-0.000054
 636	6.3182e+01	14.7156	26.819434	0.000128	1.278518	0.433174	-0.000052
 637	6.3282e+01	14.6916	26.766886	0.000131	1.308959	0.443487	-0.000053
 638	6.3382e+01	14.6531	26.715561	0.000128	1.278518	0.433174	-0.000052
 639	6.3481e+01	14.6049	26.662607	0.000132	1.319106	0.446925	-0.000053
 640	6.3581e+01	14.5680	26.609245	0.000133	1.329253	0.450363	-0.000054
 641	6.3680e+01	14.5215	26.556290	0.000132	1.319106	0.446925	-0.000053
 642	6.3779e+01	14.4622	26.502114	0.000135	1.349547	0.457239	-0.000054
 643	6.3879e+01	14.4541	26.446715	0.000138	1.379988	0.467552	-0.000056
 644	6.3978e+01	14.3868	26.396205	0.000126	1.258224	0.426298	-0.000051
 645	6.4078e+01	14.3739	26.341621	0.000136	1.359694	0.460677	-0.000055
 646	6.4177e+01	14.3338	26.292332	0.000123	1.227783	0.415984	-0.000050
 647	6.4277e+01	14.2713	26.243044	0.000123	1.227783	0.415984	-0.000050
 648	6.4376e+01	14.2552	26.185201	0.000144	1.440869	0.488180	-0.000058
 649	6.4476e+01	14.1894	26.133061	0.000130	1.298812	0.440049	-0.000052
 650	6.4576e+01	14.1493	26.081736	0.000128	1.278518	0.433174	-0.000052
 651	6.4675e+01	14.1140	26.027967	0.000134	1.339400	0.453801	-0.000054
 652	6.4775e+01	14.0755	25.974198	0.000134	1.339400	0.453801	-0.000054
 653	6.4874e+01	14.0723	25.925317	0.000122	1.217636	0.412546	-0.000049
 654	6.4974e+01	13.9985	25.869103	0.000140	1.400282	0.474428	-0.000056
 655	6.5073e+01	13.9648	25.818593	0.000126	1.258224	0.426298	-0.000051
 656	6.5172e+01	13.9119	25.759936	0.000146	1.461163	0.495056	-0.000059
 657	6.5272e+01	13.8734	25.710240	0.000124	1.237930	0.419422	-0.000050
 658	6.5371e+01	13.8397	25.659729	0.000126	1.258224	0.426298	-0.000051
 659	6.5471e+01	13.7996	25.607589	0.000130	1.298812	0.440049	-0.000052
 660	6.5570e+01	13.7755	25.559930	0.000119	1.187195	0.402233	-0.000048
 661	6.5670e+01	13.7194	25.504939	0.000137	1.369841	0.464115	-0.000055
 662	6.5769e+01	13.6809	25.454836	0.000125	1.248077	0.422860	-0.000050
 663	6.5869e+01	13.6504	25.401474	0.000133	1.329253	0.450363	-0.000054
 664	6.5969e+01	13.6264	25.349334	0.000130	1.298812	0.440049	-0.000052
 665	6.6068e+01	13.5670	25.303305	0.000115	1.146607	0.388481	-0.000046
 666	6.6168e+01	13.5317	25.245869	0.000143	1.430722	0.484742	-0.000058
 667	6.6267e+01	13.4884	25.201469	0.000111	1.106019	0.374730	-0.000045
 668	6.6367e+01	13.4306	25.147292	0.000135	1.349547	0.457239	-0.000054
 669	6.6466e+01	13.4130	25.092301	0.000137	1.369841	0.464115	-0.000055
 670	6.6566e+01	13.3937	25.043013	0.000123	1.227783	0.415984	-0.000050
 671	6.6665e+01	13.3264	24.991280	0.000129	1.288665	0.436611	-0.000052
 672	6.6764e+01	13.3023	24.939140	0.000130	1.298812	0.440049	-0.000052
 673	6.6864e+01	13.2638	24.883334	0.000139	1.390135	0.470990	-0.000056
 674	6.6963e+01	13.2141	24.834453	0.000122	1.217636	0.412546	-0.000049
 675	6.7063e+01	13.1627	24.783536	0.000127	1.268371	0.429736	-0.000051
 676	6.7162e+01	13.1403	24.730988	0.000131	1.308959	0.443487	-0.000053
 677	6.7262e+01	13.0825	24.678848	0.000130	1.298812	0.440049	-0.000052
 678	6.7362e+01	13.0713	24.629967	0.000122	1.217636	0.412546	-0.000049
 679	6.7461e+01	13.0039	24.577828	0.000130	1.298812	0.440049	-0.000052
 680	6.7561e+01	12.9494	24.534649	0.000108	1.075579	0.364416	-0.000043
 681	6.7660e+01	12.9285	24.485361	0.000123	1.227783	0.415984	-0.000050
 682	6.7760e+01	12.8900	24.436887	0.000121	1.207489	0.409108	-0.000049
 683	6.7859e+01	12.8435	24.383932	0.000132	1.319106	0.446925	-0.000053
 684	6.7959e+01	12.8146	24.332607	0.000128	1.278518	0.433174	-0.000052
 685	6.8058e+01	12.7809	24.280875	0.000129	1.288665	0.436611	-0.000052
 686	6.8157e+01	12.7264	24.229957	0.000127	1.268371	0.429736	-0.000051
 687	6.8257e+01	12.6863	24.177410	0.000131	1.308959	0.443487	-0.000053
 688	6.8356e+01	12.6269	24.125677	0.000129	1.288665	0.436611	-0.000052
 689	6.8456e+01	12.6077	24.075574	0.000125	1.248077	0.422860	-0.000050
 690	6.8555e+01	12.5563	24.029952	0.000114	1.136460	0.385043	-0.000046
 691	6.8655e+01	12.5339	23.972109	0.000144	1.440869	0.488180	-0.000058
 692	6.8754e+01	12.5002	23.924450	0.000119	1.187195	0.402233	-0.000048
 693	6.8854e+01	12.4312	23.875162	0.000123	1.227783	0.415984	-0.000050
 694	6.8954e+01	12.4103	23.825873	0.000123	1.227783	0.415984	-0.000050
 695	6.9053e+01	12.3734	23.770882	0.000137	1.369841	0.464115	-0.000055
 696	6.9153e+01	12.3285	23.717113	0.000134	1.339400	0.453801	-0.000054
 697	6.9252e+01	12.2948	23.668639	0.000121	1.207489	0.409108	-0.000049
 698	6.9352e+01	12.2515	23.610389	0.000145	1.451016	0.491618	-0.000059
 699	6.9451e+01	12.2178	23.556620	0.000134	1.339400	0.453801	-0.000054
 700	6.9550e+01	12.1922	23.503258	0.000133	1.329253	0.450363	-0.000054
 701	6.9650e+01	12.1585	23.453155	0.000125	1.248077	0.422860	-0.000050
 702	6.9749e+01	12.0847	23.397349	0.000139	1.390135	0.470990	-0.000056
 703	6.9849e+01	12.0253	23.340728	0.000141	1.410429	0.477866	-0.000057
 704	6.9948e+01	12.0061	23.287366	0.000133	1.329253	0.450363	-0.000054
 705	7.0048e+01	11.9660	23.234819	0.000131	1.308959	0.443487	-0.000053
 706	7.0147e+01	11.9307	23.181457	0.000133	1.329253	0.450363	-0.000054
 707	7.0247e+01	11.8777	23.125244	0.000140	1.400282	0.474428	-0.000056
 708	7.0347e+01	11.8601	23.074734	0.000126	1.258224	0.426298	-0.000051
 709	7.0446e+01	11.8184	23.020150	0.000136	1.359694	0.460677	-0.000055
 710	7.0546e+01	11.7494	22.961492	0.000146	1.461163	0.495056	-0.000059
 711	7.0645e+01	11.7334	22.907316	0.000135	1.349547	0.457239	-0.000054
 712	7.0745e+01	11.6933	22.852732	0.000136	1.359694	0.460677	-0.000055
 713	7.0844e+01	11.6339	22.799370	0.000133	1.329253	0.450363	-0.000054
 714	7.0944e+01	11.6162	22.742749	0.000141	1.410429	0.477866	-0.000057
 715	7.1043e+01	11.5761	22.693461	0.000123	1.227783	0.415984	-0.000050
 716	7.1142e+01	11.5184	22.634804	0.000146	1.461163	0.495056	-0.000059
 717	7.1242e+01	11.4991	22.579405	0.000138	1.379988	0.467552	-0.000056
 718	7.1341e+01	11.4574	22.518304	0.000152	1.522045	0.515683	-0.000061
 719	7.1441e+01	11.4253	22.473496	0.000112	1.116166	0.378167	-0.000045
 720	7.1540e+01	11.3676	22.416061	0.000143	1.430722	0.484742	-0.000058
 721	7.1640e+01	11.3195	22.361884	0.000135	1.349547	0.457239	-0.000054
 722	7.1740e+01	11.2842	22.306893	0.000137	1.369841	0.464115	-0.000055
 723	7.1839e+01	11.2665	22.249865	0.000142	1.420575	0.481304	-0.000057
 724	7.1939e+01	11.2409	22.200576	0.000123	1.227783	0.415984	-0.000050
 725	7.2038e+01	11.1783	22.145585	0.000137	1.369841	0.464115	-0.000055
 726	7.2138e+01	11.1189	22.093038	0.000131	1.308959	0.443487	-0.000053
 727	7.2237e+01	11.0997	22.038047	0.000137	1.369841	0.464115	-0.000055
 728	7.2337e+01	11.0724	21.983870	0.000135	1.349547	0.457239	-0.000054
 729	7.2436e+01	11.0291	21.929694	0.000135	1.349547	0.457239	-0.000054
 730	7.2535e+01	10.9986	21.873888	0.000139	1.390135	0.470990	-0.000056
 731	7.2635e+01	10.9425	21.813194	0.000151	1.511898	0.512245	-0.000061
 732	7.2734e+01	10.9168	21.762683	0.000126	1.258224	0.426298	-0.000051
 733	7.2834e+01	10.8350	21.703618	0.000147	1.471310	0.498493	-0.000059
 734	7.2933e+01	10.8222	21.652293	0.000128	1.278518	0.433174	-0.000052
 735	7.3033e+01	10.7676	21.597302	0.000137	1.369841	0.464115	-0.000055
 736	7.3132e+01	10.7419	21.543940	0.000133	1.329253	0.450363	-0.000054
 737	7.3232e+01	10.7034	21.486098	0.000144	1.440869	0.488180	-0.000058
 738	7.3332e+01	10.6585	21.429070	0.000142	1.420575	0.481304	-0.000057
 739	7.3431e+01	10.6104	21.375300	0.000134	1.339400	0.453801	-0.000054
 740	7.3531e+01	10.5783	21.316236	0.000147	1.471310	0.498493	-0.000059
 741	7.3630e+01	10.5302	21.259615	0.000141	1.410429	0.477866	-0.000057
 742	7.3730e+01	10.5254	21.199736	0.000149	1.491604	0.505369	-0.000060
 743	7.3829e+01	10.4500	21.143930	0.000139	1.390135	0.470990	-0.000056
 744	7.3928e+01	10.4227	21.088124	0.000139	1.390135	0.470990	-0.000056
 745	7.4028e+01	10.3682	21.027837	0.000150	1.501751	0.508807	-0.000061
 746	7.4127e+01	10.3698	20.970402	-0.000143	-1.430722	-0.484742	-0.000058
 747	7.4227e+01	10.2912	20.912967	0.000143	1.430722	0.484742	-0.000058
 748	7.4326e+01	10.2510	20.850643	0.000155	1.552486	0.525997	-0.000063
 749	7.4426e+01	10.2190	20.795245	0.000138	1.379988	0.467552	-0.000056
 750	7.4525e+01	10.1933	20.733329	0.000154	1.542339	0.522559	-0.000062
 751	7.4625e+01	10.1307	20.677115	0.000140	1.400282	0.474428	-0.000056
 752	7.4725e+01	10.1035	20.618051	0.000147	1.471310	0.498493	-0.000059
 753	7.4824e+01	10.0473	20.559393	0.000146	1.461163	0.495056	-0.000059
 754	7.4924e+01	10.0281	20.498699	0.000151	1.511898	0.512245	-0.000061
 755	7.5023e+01	9.9992	20.442893	0.000139	1.390135	0.470990	-0.000056
 756	7.5123e+01	9.9254	20.383014	0.000149	1.491604	0.505369	-0.000060
 757	7.5222e+01	9.9077	20.323949	0.000147	1.471310	0.498493	-0.000059
 758	7.5322e+01	9.8436	20.260811	0.000157	1.572780	0.532872	-0.000063
 759	7.5421e+01	9.8243	20.206227	0.000136	1.359694	0.460677	-0.000055
 760	7.5520e+01	9.7778	20.143497	0.000156	1.562633	0.529434	-0.000063
 761	7.5620e+01	9.7521	20.079544	0.000159	1.593074	0.539748	-0.000064
 762	7.5719e+01	9.7136	20.016406	0.000157	1.572780	0.532872	-0.000063
 763	7.5819e+01	9.6799	19.958156	0.000145	1.451016	0.491618	-0.000059
 764	7.5918e+01	9.6254	19.897462	0.000151	1.511898	0.512245	-0.000061
 765	7.6018e+01	9.5725	19.834324	0.000157	1.572780	0.532872	-0.000063
 766	7.6118e+01	9.5356	19.768741	0.000163	1.633662	0.553500	-0.000066
 767	7.6217e+01	9.4955	19.708455	0.000150	1.501751	0.508807	-0.000061
 768	7.6317e+01	9.4521	19.646946	0.000153	1.532192	0.519121	-0.000062
 769	7.6416e+01	9.4265	19.589511	0.000143	1.430722	0.484742	-0.000058
 770	7.6516e+01	9.3799	19.529224	0.000150	1.501751	0.508807	-0.000061
 771	7.6615e+01	9.3414	19.462012	0.000167	1.674250	0.567251	-0.000068
 772	7.6715e+01	9.3174	19.400911	0.000152	1.522045	0.515683	-0.000061
 773	7.6814e+01	9.2580	19.336144	0.000161	1.613368	0.546624	-0.000065
 774	7.6913e+01	9.2227	19.272598	0.000158	1.582927	0.536310	-0.000064
 775	7.7013e+01	9.1923	19.207423	0.000162	1.623515	0.550062	-0.000066
 776	7.7112e+01	9.1505	19.146729	0.000151	1.511898	0.512245	-0.000061
 777	7.7212e+01	9.1056	19.086035	0.000151	1.511898	0.512245	-0.000061
 778	7.7311e+01	9.0575	19.018009	0.000169	1.694544	0.574127	-0.000068
 779	7.7411e+01	9.0415	18.956500	0.000153	1.532192	0.519121	-0.000062
 780	7.7510e+01	8.9901	18.898658	0.000144	1.440869	0.488180	-0.000058
 781	7.7610e+01	8.9645	18.835112	0.000158	1.582927	0.536310	-0.000064
 782	7.7710e+01	8.8891	18.774418	0.000151	1.511898	0.512245	-0.000061
 783	7.7809e+01	8.8858	18.714539	0.000149	1.491604	0.505369	-0.000060
 784	7.7909e+01	8.8137	18.650179	0.000160	1.603221	0.543186	-0.000065
 785	7.8008e+01	8.7848	18.592336	0.000144	1.440869	0.488180	-0.000058
 786	7.8108e+01	8.7671	18.531235	0.000152	1.522045	0.515683	-0.000061
 787	7.8207e+01	8.7046	18.465653	0.000163	1.633662	0.553500	-0.000066
 788	7.8306e+01	8.6645	18.403329	0.000155	1.552486	0.525997	-0.000063
 789	7.8406e+01	8.6292	18.340191	0.000157	1.572780	0.532872	-0.000063
 790	7.8505e+01	8.6019	18.279904	0.000150	1.501751	0.508807	-0.000061
 791	7.8605e+01	8.5233	18.217581	0.000155	1.552486	0.525997	-0.000063
 792	7.8704e+01	8.5008	18.153628	0.000159	1.593074	0.539748	-0.000064
 793	7.8804e+01	8.4976	18.091305	0.000155	1.552486	0.525997	-0.000063
 794	7.8903e+01	8.4286	18.032647	0.000146	1.461163	0.495056	-0.000059
 795	7.9003e+01	8.3982	17.971139	0.000153	1.532192	0.519121	-0.000062
 796	7.9103e+01	8.3677	17.910037	0.000152	1.522045	0.515683	-0.000061
 797	7.9202e+01	8.3083	17.845677	0.000160	1.603221	0.543186	-0.000065
 798	7.9302e+01	8.2698	17.780502	0.000162	1.623515	0.550062	-0.000066
 799	7.9401e+01	8.2137	17.718586	0.000154	1.542339	0.522559	-0.000062
 800	7.9501e+01	8.1848	17.659522	0.000147	1.471310	0.498493	-0.000059
 801	7.9600e+01	8.1303	17.593939	0.000163	1.633662	0.553500	-0.000066
 802	7.9700e+01	8.1190	17.535689	0.000145	1.451016	0.491618	-0.000059
 803	7.9799e+01	8.0372	17.473366	0.000155	1.552486	0.525997	-0.000063
 804	7.9898e+01	8.0196	17.404118	0.000172	1.724985	0.584441	-0.000070
 805	7.9998e+01	8.0099	17.345461	0.000146	1.461163	0.495056	-0.000059
 806	8.0097e+01	7.9474	17.279878	0.000163	1.633662	0.553500	-0.000066
 807	8.0197e+01	7.8944	17.214704	0.000162	1.623515	0.550062	-0.000066
 808	8.0296e+01	7.8543	17.147085	0.000168	1.684397	0.570689	-0.000068
 809	8.0396e+01	7.8351	17.085169	0.000154	1.542339	0.522559	-0.000062
 810	8.0496e+01	7.7549	17.018364	0.000166	1.664103	0.563813	-0.000067
 811	8.0595e+01	7.7533	16.955634	0.000156	1.562633	0.529434	-0.000063
 812	8.0695e+01	7.7115	16.889644	0.000164	1.643809	0.556937	-0.000066
 813	8.0794e+01	7.6795	16.827321	0.000155	1.552486	0.525997	-0.000063
 814	8.0894e+01	7.6041	16.762146	0.000162	1.623515	0.550062	-0.000066
 815	8.0993e+01	7.5784	16.700230	0.000154	1.542339	0.522559	-0.000062
 816	8.1093e+01	7.5656	16.635870	0.000160	1.603221	0.543186	-0.000065
 817	8.1192e+01	7.5174	16.570695	0.000162	1.623515	0.550062	-0.000066
 818	8.1291e+01	7.4741	16.503891	0.000166	1.664103	0.563813	-0.000067
 819	8.1391e+01	7.4244	16.442789	0.000152	1.522045	0.515683	-0.000061
 820	8.1490e+01	7.3827	16.375578	0.000167	1.674250	0.567251	-0.000068
 821	8.1590e+01	7.3426	16.311218	0.000160	1.603221	0.543186	-0.000065
 822	8.1689e+01	7.3009	16.246043	0.000162	1.623515	0.550062	-0.000066
 823	8.1789e+01	7.2704	16.182498	0.000158	1.582927	0.536310	-0.000064
 824	8.1888e+01	7.2271	16.112842	0.000174	1.735131	0.587878	-0.000070
 825	8.1988e+01	7.2046	16.051741	0.000152	1.522045	0.515683	-0.000061
 826	8.2088e+01	7.1404	15.986566	0.000162	1.623515	0.550062	-0.000066
 827	8.2187e+01	7.1244	15.927908	0.000146	1.461163	0.495056	-0.000059
 828	8.2287e+01	7.0747	15.859475	0.000170	1.704691	0.577565	-0.000069
 829	8.2386e+01	7.0057	15.799596	0.000149	1.491604	0.505369	-0.000060
 830	8.2486e+01	6.9832	15.736865	0.000156	1.562633	0.529434	-0.000063
 831	8.2585e+01	6.9447	15.674134	0.000156	1.562633	0.529434	-0.000063
 832	8.2684e+01	6.9078	15.609774	0.000160	1.603221	0.543186	-0.000065
 833	8.2784e+01	6.8661	15.545821	0.000159	1.593074	0.539748	-0.000064
 834	8.2883e+01	6.8388	15.485534	0.000150	1.501751	0.508807	-0.000061
 835	8.2983e+01	6.7827	15.419138	0.000165	1.653956	0.560375	-0.000067
 836	8.3082e+01	6.7634	15.352333	0.000166	1.664103	0.563813	-0.000067
 837	8.3182e+01	6.7073	15.290010	0.000155	1.552486	0.525997	-0.000063
 838	8.3281e+01	6.6672	15.230538	0.000148	1.481457	0.501931	-0.000060
 839	8.3381e+01	6.6431	15.160475	0.000175	1.745278	0.591316	-0.000070
 840	8.3481e+01	6.5822	15.097337	0.000157	1.572780	0.532872	-0.000063
 841	8.3580e+01	6.5389	15.034606	0.000156	1.562633	0.529434	-0.000063
 842	8.3680e+01	6.5292	14.971468	0.000157	1.572780	0.532872	-0.000063
 843	8.3779e+01	6.4747	14.909959	0.000153	1.532192	0.519121	-0.000062
 844	8.3879e+01	6.4314	14.848451	0.000153	1.532192	0.519121	-0.000062
 845	8.3978e+01	6.3865	14.784498	0.000159	1.593074	0.539748	-0.000064
 846	8.4078e+01	6.3945	14.725026	-0.000148	-1.481457	-0.501931	-0.000060
 847	8.4177e+01	6.3335	14.660258	0.000161	1.613368	0.546624	-0.000065
 848	8.4276e+01	6.2806	14.598750	0.000153	1.532192	0.519121	-0.000062
 849	8.4376e+01	6.2292	14.537648	0.000152	1.522045	0.515683	-0.000061
 850	8.4475e+01	6.2004	14.473696	0.000159	1.593074	0.539748	-0.000064
 851	8.4575e+01	6.1683	14.409743	0.000159	1.593074	0.539748	-0.000064
 852	8.4674e+01	6.1153	14.346197	0.000158	1.582927	0.536310	-0.000064
 853	8.4774e+01	6.0800	14.283059	0.000157	1.572780	0.532872	-0.000063
 854	8.4874e+01	6.0399	14.219106	0.000159	1.593074	0.539748	-0.000064
 855	8.4973e+01	6.0030	14.159227	0.000149	1.491604	0.505369	-0.000060
 856	8.5073e+01	5.9597	14.092830	0.000165	1.653956	0.560375	-0.000067
 857	8.5172e+01	5.9116	14.034580	0.000145	1.451016	0.491618	-0.000059
 858	8.5272e+01	5.8827	13.967369	0.000167	1.674250	0.567251	-0.000068
 859	8.5371e+01	5.8538	13.905860	0.000153	1.532192	0.519121	-0.000062
 860	8.5471e+01	5.7929	13.844759	0.000152	1.522045	0.515683	-0.000061
 861	8.5570e+01	5.7720	13.780399	0.000160	1.603221	0.543186	-0.000065
 862	8.5669e+01	5.7255	13.715631	0.000161	1.613368	0.546624	-0.000065
 863	8.5769e+01	5.6613	13.652086	0.000158	1.582927	0.536310	-0.000064
 864	8.5868e+01	5.6549	13.584874	0.000167	1.674250	0.567251	-0.000068
 865	8.5968e+01	5.6004	13.521736	0.000157	1.572780	0.532872	-0.000063
 866	8.6067e+01	5.5683	13.456969	0.000161	1.613368	0.546624	-0.000065
 867	8.6167e+01	5.5250	13.390164	0.000166	1.664103	0.563813	-0.000067
 868	8.6266e+01	5.4672	13.322953	0.000167	1.674250	0.567251	-0.000068
 869	8.6366e+01	5.4416	13.257778	0.000162	1.623515	0.550062	-0.000066
 870	8.6466e+01	5.4063	13.189752	0.000169	1.694544	0.574127	-0.000068
 871	8.6565e+01	5.3501	13.125392	0.000160	1.603221	0.543186	-0.000065
 872	8.6665e+01	5.3437	13.058995	0.000165	1.653956	0.560375	-0.000067
 873	8.6764e+01	5.2763	12.995857	0.000157	1.572780	0.532872	-0.000063
 874	8.6864e+01	5.2410	12.924979	0.000177	1.765572	0.598192	-0.000071
 875	8.6963e+01	5.2041	12.856953	0.000169	1.694544	0.574127	-0.000068
 876	8.7063e+01	5.1544	12.791371	0.000163	1.633662	0.553500	-0.000066
 877	8.7162e+01	5.1047	12.723345	0.000169	1.694544	0.574127	-0.000068
 878	8.7261e+01	5.0918	12.661021	0.000155	1.552486	0.525997	-0.000063
 879	8.7361e+01	5.0421	12.591773	0.000172	1.724985	0.584441	-0.000070
 880	8.7460e+01	4.9956	12.522117	0.000174	1.735131	0.587878	-0.000070
 881	8.7560e+01	4.9795	12.460609	0.000153	1.532192	0.519121	-0.000062
 882	8.7659e+01	4.9330	12.393397	0.000167	1.674250	0.567251	-0.000068
 883	8.7759e+01	4.8849	12.320483	0.000182	1.816307	0.615382	-0.000073
 884	8.7859e+01	4.8464	12.256123	0.000160	1.603221	0.543186	-0.000065
 885	8.7958e+01	4.7902	12.188096	0.000169	1.694544	0.574127	-0.000068
 886	8.8058e+01	4.7854	12.116404	0.000179	1.785866	0.605068	-0.000072
 887	8.8157e+01	4.7229	12.050415	0.000164	1.643809	0.556937	-0.000066
 888	8.8257e+01	4.7036	11.986462	0.000159	1.593074	0.539748	-0.000064
 889	8.8356e+01	4.6459	11.918436	0.000169	1.694544	0.574127	-0.000068
 890	8.8456e+01	4.6170	11.851224	0.000167	1.674250	0.567251	-0.000068
 891	8.8555e+01	4.5432	11.788901	0.000155	1.552486	0.525997	-0.000063
 892	8.8654e+01	4.5384	11.723319	0.000163	1.633662	0.553500	-0.000066
 893	8.8754e+01	4.4838	11.656107	0.000167	1.674250	0.567251	-0.000068
 894	8.8853e+01	4.4501	11.588896	0.000167	1.674250	0.567251	-0.000068
 895	8.8953e+01	4.4229	11.523721	0.000162	1.623515	0.550062	-0.000066
 896	8.9052e+01	4.3475	11.456917	0.000166	1.664103	0.563813	-0.000067
 897	8.9152e+01	4.3362	11.384002	0.000182	1.816307	0.615382	-0.000073
 898	8.9251e+01	4.3042	11.317605	0.000165	1.653956	0.560375	-0.000067
 899	8.9351e+01	4.2592	11.247950	0.000174	1.735131	0.587878	-0.000070
 900	8.9451e+01	4.2159	11.180738	0.000167	1.674250	0.567251	-0.000068
 901	8.9550e+01	4.1662	11.117600	0.000157	1.572780	0.532872	-0.000063
 902	8.9650e+01	4.1181	11.044686	0.000182	1.816307	0.615382	-0.000073
 903	8.9749e+01	4.0844	10.977067	0.000168	1.684397	0.570689	-0.000068
 904	8.9849e+01	4.0603	10.909856	0.000167	1.674250	0.567251	-0.000068
 905	8.9948e+01	3.9945	10.845088	0.000161	1.613368	0.546624	-0.000065
 906	9.0047e+01	3.9817	10.770137	0.000187	1.867042	0.632571	-0.000075
 907	9.0147e+01	3.9320	10.709443	0.000151	1.511898	0.512245	-0.000061
 908	9.0246e+01	3.8871	10.635714	0.000184	1.836601	0.622257	-0.000074
 909	9.0346e+01	3.8502	10.566058	0.000174	1.735131	0.587878	-0.000070
 910	9.0445e+01	3.7940	10.492329	0.000184	1.836601	0.622257	-0.000074
 911	9.0545e+01	3.7619	10.426747	0.000163	1.633662	0.553500	-0.000066
 912	9.0644e+01	3.7106	10.355462	0.000178	1.775719	0.601630	-0.000072
 913	9.0744e+01	3.6929	10.282955	0.000181	1.806160	0.611944	-0.000073
 914	9.0844e+01	3.6304	10.209634	0.000183	1.826454	0.618819	-0.000074
 915	9.0943e+01	3.5887	10.142015	0.000168	1.684397	0.570689	-0.000068
 916	9.1043e+01	3.5502	10.069915	0.000180	1.796013	0.608506	-0.000072
 917	9.1142e+01	3.5389	10.001482	0.000170	1.704691	0.577565	-0.000069
 918	9.1242e+01	3.4764	9.926123	0.000188	1.877189	0.636009	-0.000076
 919	9.1341e+01	3.4571	9.854838	0.000178	1.775719	0.601630	-0.000072
 920	9.1441e+01	3.4154	9.783961	0.000177	1.765572	0.598192	-0.000071
 921	9.1540e+01	3.3881	9.714305	0.000174	1.735131	0.587878	-0.000070
 922	9.1639e+01	3.3400	9.641391	0.000182	1.816307	0.615382	-0.000073
 923	9.1739e+01	3.3063	9.571735	0.000174	1.735131	0.587878	-0.000070
 924	9.1838e+01	3.2534	9.498006	0.000184	1.836601	0.622257	-0.000074
 925	9.1938e+01	3.2406	9.426314	0.000179	1.785866	0.605068	-0.000072
 926	9.2037e+01	3.1635	9.354214	0.000180	1.796013	0.608506	-0.000072
 927	9.2137e+01	3.1266	9.280078	0.000185	1.846748	0.625695	-0.000075
 928	9.2237e+01	3.0930	9.207164	0.000182	1.816307	0.615382	-0.000073
 929	9.2336e+01	3.0561	9.133435	0.000184	1.836601	0.622257	-0.000074
 930	9.2436e+01	3.0047	9.056854	0.000191	1.907630	0.646323	-0.000077
 931	9.2535e+01	2.9502	8.985977	0.000177	1.765572	0.598192	-0.000071
 932	9.2635e+01	2.9438	8.909396	0.000191	1.907630	0.646323	-0.000077
 933	9.2734e+01	2.8844	8.831594	0.000194	1.938071	0.656636	-0.000078
 934	9.2834e+01	2.8363	8.759087	0.000181	1.806160	0.611944	-0.000073
 935	9.2933e+01	2.8218	8.684543	0.000186	1.856895	0.629133	-0.000075
 936	9.3032e+01	2.7898	8.612851	0.000179	1.785866	0.605068	-0.000072
 937	9.3132e+01	2.7224	8.539122	0.000184	1.836601	0.622257	-0.000074
 938	9.3231e+01	2.6678	8.460912	0.000195	1.948218	0.660074	-0.000079
 939	9.3331e+01	2.6406	8.387590	0.000183	1.826454	0.618819	-0.000074
 940	9.3430e+01	2.6165	8.310603	0.000192	1.917777	0.649760	-0.000077
 941	9.3530e+01	2.5796	8.231578	0.000197	1.968512	0.666950	-0.000079
 942	9.3629e+01	2.5235	8.159479	0.000180	1.796013	0.608506	-0.000072
 943	9.3729e+01	2.4882	8.081676	0.000194	1.938071	0.656636	-0.000078
 944	9.3829e+01	2.4561	8.005503	0.000190	1.897483	0.642885	-0.000077
 945	9.3928e+01	2.4096	7.932589	0.000182	1.816307	0.615382	-0.000073
 946	9.4028e+01	2.3967	7.856823	0.000189	1.887336	0.639447	-0.000076
 947	9.4127e+01	2.3390	7.779021	0.000194	1.938071	0.656636	-0.000078
 948	9.4227e+01	2.2876	7.706106	0.000182	1.816307	0.615382	-0.000073
 949	9.4326e+01	2.2427	7.631563	0.000186	1.856895	0.629133	-0.000075
 950	9.4425e+01	2.1946	7.561907	0.000174	1.735131	0.587878	-0.000070
 951	9.4525e+01	2.1705	7.481661	0.000200	1.998953	0.677263	-0.000081
 952	9.4624e+01	2.1288	7.405895	0.000189	1.887336	0.639447	-0.000076
 953	9.4724e+01	2.1048	7.337869	0.000169	1.694544	0.574127	-0.000068
 954	9.4823e+01	2.0534	7.259659	0.000195	1.948218	0.660074	-0.000079
 955	9.4923e+01	2.0117	7.188781	0.000177	1.765572	0.598192	-0.000071
 956	9.5022e+01	1.9700	7.110979	0.000194	1.938071	0.656636	-0.000078
 957	9.5122e+01	1.9315	7.037657	0.000183	1.826454	0.618819	-0.000074
 958	9.5222e+01	1.9058	6.963521	0.000185	1.846748	0.625695	-0.000075
 959	9.5321e+01	1.8577	6.889385	0.000185	1.846748	0.625695	-0.000075
 960	9.5421e+01	1.8048	6.808731	0.000201	2.009100	0.680701	-0.000081
 961	9.5520e+01	1.7679	6.737038	0.000179	1.785866	0.605068	-0.000072
 962	9.5620e+01	1.7470	6.660865	0.000190	1.897483	0.642885	-0.000077
 963	9.5719e+01	1.7005	6.589580	0.000178	1.775719	0.601630	-0.000072
 964	9.5819e+01	1.6443	6.508927	0.000201	2.009100	0.680701	-0.000081
 965	9.5918e+01	1.5946	6.435605	0.000183	1.826454	0.618819	-0.000074
 966	9.6017e+01	1.5834	6.363098	0.000181	1.806160	0.611944	-0.000073
 967	9.6117e+01	1.5112	6.290998	0.000180	1.796013	0.608506	-0.000072
 968	9.6216e+01	1.4839	6.214418	0.000191	1.907630	0.646323	-0.000077
 969	9.6316e+01	1.4582	6.139467	0.000187	1.867042	0.632571	-0.000075
 970	9.6415e+01	1.4214	6.063701	0.000189	1.887336	0.639447	-0.000076
 971	9.6515e+01	1.3748	5.987121	0.000191	1.907630	0.646323	-0.000077
 972	9.6615e+01	1.3042	5.906467	0.000201	2.009100	0.680701	-0.000081
 973	9.6714e+01	1.2994	5.832738	0.000184	1.836601	0.622257	-0.000074
 974	9.6814e+01	1.2513	5.755343	0.000193	1.927924	0.653198	-0.000078
 975	9.6913e+01	1.2256	5.677540	0.000194	1.938071	0.656636	-0.000078
 976	9.7013e+01	1.1839	5.602589	0.000187	1.867042	0.632571	-0.000075
 977	9.7112e+01	1.1534	5.517048	0.000213	2.130863	0.721956	-0.000086
 978	9.7212e+01	1.1310	5.440874	0.000190	1.897483	0.642885	-0.000077
 979	9.7311e+01	1.0540	5.362257	0.000196	1.958365	0.663512	-0.000079
 980	9.7410e+01	1.0315	5.288121	0.000185	1.846748	0.625695	-0.000075
 981	9.7510e+01	0.9706	5.210726	0.000193	1.927924	0.653198	-0.000078
 982	9.7609e+01	0.9192	5.134960	0.000189	1.887336	0.639447	-0.000076
 983	9.7709e+01	0.9000	5.057565	0.000193	1.927924	0.653198	-0.000078
 984	9.7808e+01	0.8679	4.980985	0.000191	1.907630	0.646323	-0.000077
 985	9.7908e+01	0.8230	4.904404	0.000191	1.907630	0.646323	-0.000077
 986	9.8007e+01	0.7604	4.825787	0.000196	1.958365	0.663512	-0.000079
 987	9.8107e+01	0.7331	4.746355	0.000198	1.978659	0.670388	-0.000080
 988	9.8207e+01	0.6882	4.670182	0.000190	1.897483	0.642885	-0.000077
 989	9.8306e+01	0.6561	4.591158	0.000197	1.968512	0.666950	-0.000079
 990	9.8406e+01	0.6048	4.514170	0.000192	1.917777	0.649760	-0.000077
 991	9.8505e+01	0.5695	4.435960	0.000195	1.948218	0.660074	-0.000079
 992	9.8605e+01	0.5326	4.360195	0.000189	1.887336	0.639447	-0.000076
 993	9.8704e+01	0.4877	4.280356	0.000199	1.988806	0.673826	-0.000080
 994	9.8803e+01	0.4588	4.204590	0.000189	1.887336	0.639447	-0.000076
 995	9.8903e+01	0.4235	4.128417	0.000190	1.897483	0.642885	-0.000077
 996	9.9002e+01	0.3866	4.053873	0.000186	1.856895	0.629133	-0.000075
 997	9.9102e+01	0.3497	3.978107	0.000189	1.887336	0.639447	-0.000076
 998	9.9201e+01	0.3064	3.903564	0.000186	1.856895	0.629133	-0.000075
 999	9.9301e+01	0.2615	3.825761	0.000194	1.938071	0.656636	-0.000078
1000	9.9400e+01	0.2262	3.750403	0.000188	1.877189	0.636009	-0.000076
1001	9.9500e+01	0.1925	3.671378	0.000197	1.968512	0.666950	-0.000079
1002	9.9600e+01	0.1315	3.599686	0.000179	1.785866	0.605068	-0.000072
1003	9.9699e+01	0.1011	3.519440	0.000200	1.998953	0.677263	-0.000081
1004	9.9799e+01	0.0385	3.441230	0.000195	1.948218	0.660074	-0.000079
1005	9.9898e+01	0.0481	3.382573	-0.000146	-1.461163	-0.495056	-0.000059
1006	9.9998e+01	0.0000	3.302326	0.000200	1.998953	0.677263	-0.000081
1007	1.0010e+02	-0.0610	3.231856	0.000176	1.755425	0.594754	-0.000071
1008	1.0020e+02	-0.1059	3.148351	0.000208	2.080128	0.704767	-0.000084
1009	1.0030e+02	-0.1332	3.075844	0.000181	1.806160	0.611944	-0.000073
1010	1.0040e+02	-0.1620	2.999263	0.000191	1.907630	0.646323	-0.000077
1011	1.0050e+02	-0.2198	2.923090	0.000190	1.897483	0.642885	-0.000077
1012	1.0059e+02	-0.2631	2.844880	0.000195	1.948218	0.660074	-0.000079
1013	1.0069e+02	-0.3176	2.773188	0.000179	1.785866	0.605068	-0.000072
1014	1.0079e+02	-0.3257	2.700274	0.000182	1.816307	0.615382	-0.000073
1015	1.0089e+02	-0.3674	2.624915	0.000188	1.877189	0.636009	-0.000076
1016	1.0099e+02	-0.4107	2.549150	0.000189	1.887336	0.639447	-0.000076
1017	1.0109e+02	-0.4492	2.476235	0.000182	1.816307	0.615382	-0.000073
1018	1.0119e+02	-0.5085	2.395989	0.000200	1.998953	0.677263	-0.000081
1019	1.0129e+02	-0.5711	2.325926	0.000175	1.745278	0.591316	-0.000070
1020	1.0139e+02	-0.5679	2.250568	-0.000188	-1.877189	-0.636009	-0.000076
1021	1.0149e+02	-0.6128	2.168284	0.000205	2.049688	0.694453	-0.000083
1022	1.0159e+02	-0.6529	2.095777	0.000181	1.806160	0.611944	-0.000073
1023	1.0169e+02	-0.6882	2.021234	0.000186	1.856895	0.629133	-0.000075
1024	1.0179e+02	-0.7347	1.949949	0.000178	1.775719	0.601630	-0.000072
1025	1.0189e+02	-0.7941	1.870924	0.000197	1.968512	0.666950	-0.000079
1026	1.0199e+02	-0.8117	1.795973	0.000187	1.867042	0.632571	-0.000075
1027	1.0209e+02	-0.8518	1.724281	0.000179	1.785866	0.605068	-0.000072
1028	1.0219e+02	-0.8807	1.644849	0.000198	1.978659	0.670388	-0.000080
1029	1.0229e+02	-0.9369	1.568269	0.000191	1.907630	0.646323	-0.000077
1030	1.0239e+02	-0.9561	1.499021	0.000172	1.724985	0.584441	-0.000070
1031	1.0248e+02	-1.0219	1.422033	0.000192	1.917777	0.649760	-0.000077
1032	1.0258e+02	-1.0476	1.341379	0.000201	2.009100	0.680701	-0.000081
1033	1.0268e+02	-1.1117	1.263577	0.000194	1.938071	0.656636	-0.000078
1034	1.0278e+02	-1.1390	1.192699	0.000177	1.765572	0.598192	-0.000071
1035	1.0288e+02	-1.1647	1.109194	0.000208	2.080128	0.704767	-0.000084
1036	1.0298e+02	-1.2192	1.037501	0.000179	1.785866	0.605068	-0.000072
1037	1.0308e+02	-1.2497	0.953589	0.000209	2.090275	0.708204	-0.000084
1038	1.0318e+02	-1.2802	0.875379	0.000195	1.948218	0.660074	-0.000079
1039	1.0328e+02	-1.2946	0.800835	0.000186	1.856895	0.629133	-0.000075
1040	1.0338e+02	-1.3652	0.726292	0.000186	1.856895	0.629133	-0.000075
1041	1.0348e+02	-1.4037	0.650933	0.000188	1.877189	0.636009	-0.000076
1042	1.0358e+02	-1.4454	0.571909	0.000197	1.968512	0.666950	-0.000079
1043	1.0368e+02	-1.5048	0.489626	0.000205	2.049688	0.694453	-0.000083
1044	1.0378e+02	-1.5160	0.417526	0.000180	1.796013	0.608506	-0.000072
1045	1.0388e+02	-1.5593	0.343390	0.000185	1.846748	0.625695	-0.000075
1046	1.0398e+02	-1.5898	0.264365	0.000197	1.968512	0.666950	-0.000079
1047	1.0408e+02	-1.6508	0.187378	0.000192	1.917777	0.649760	-0.000077
1048	1.0418e+02	-1.6925	0.106724	0.000201	2.009100	0.680701	-0.000081
1049	1.0428e+02	-1.7053	0.032995	0.000184	1.836601	0.622257	-0.000074
1050	1.0438e+02	-1.7550	-0.040734	0.000184	1.836601	0.622257	-0.000074
1051	1.0447e+02	-1.7887	-0.118537	0.000194	1.938071	0.656636	-0.000078
1052	1.0457e+02	-1.8368	-0.198783	0.000200	1.998953	0.677263	-0.000081
1053	1.0467e+02	-1.8802	-0.273327	0.000186	1.856895	0.629133	-0.000075
1054	1.0477e+02	-1.9283	-0.351944	0.000196	1.958365	0.663512	-0.000079
1055	1.0487e+02	-1.9748	-0.423229	0.000178	1.775719	0.601630	-0.000072
1056	1.0497e+02	-2.0213	-0.500624	0.000193	1.927924	0.653198	-0.000078
1057	1.0507e+02	-2.0630	-0.579241	0.000196	1.958365	0.663512	-0.000079
1058	1.0517e+02	-2.0871	-0.652970	0.000184	1.836601	0.622257	-0.000074
1059	1.0527e+02	-2.1288	-0.727106	0.000185	1.846748	0.625695	-0.000075
1060	1.0537e+02	-2.1641	-0.800021	0.000182	1.816307	0.615382	-0.000073
1061	1.0547e+02	-2.1994	-0.875379	0.000188	1.877189	0.636009	-0.000076
1062	1.0557e+02	-2.2443	-0.953589	0.000195	1.948218	0.660074	-0.000079
1063	1.0567e+02	-2.2908	-1.022022	0.000170	1.704691	0.577565	-0.000069
1064	1.0577e+02	-2.3310	-1.101047	0.000197	1.968512	0.666950	-0.000079
1065	1.0587e+02	-2.3678	-1.178035	0.000192	1.917777	0.649760	-0.000077
1066	1.0597e+02	-2.4160	-1.253393	0.000188	1.877189	0.636009	-0.000076
1067	1.0607e+02	-2.4432	-1.326715	0.000183	1.826454	0.618819	-0.000074
1068	1.0617e+02	-2.4769	-1.399222	0.000181	1.806160	0.611944	-0.000073
1069	1.0627e+02	-2.5042	-1.474987	0.000189	1.887336	0.639447	-0.000076
1070	1.0637e+02	-2.5588	-1.550346	0.000188	1.877189	0.636009	-0.000076
1071	1.0647e+02	-2.5828	-1.622445	0.000180	1.796013	0.608506	-0.000072
1072	1.0656e+02	-2.6486	-1.698618	0.000190	1.897483	0.642885	-0.000077
1073	1.0666e+02	-2.6710	-1.771125	0.000181	1.806160	0.611944	-0.000073
1074	1.0676e+02	-2.7336	-1.846076	0.000187	1.867042	0.632571	-0.000075
1075	1.0686e+02	-2.7657	-1.921435	0.000188	1.877189	0.636009	-0.000076
1076	1.0696e+02	-2.7898	-1.995164	0.000184	1.836601	0.622257	-0.000074
1077	1.0706e+02	-2.8315	-2.068078	0.000182	1.816307	0.615382	-0.000073
1078	1.0716e+02	-2.9037	-2.147103	0.000197	1.968512	0.666950	-0.000079
1079	1.0726e+02	-2.9341	-2.223276	0.000190	1.897483	0.642885	-0.000077
1080	1.0736e+02	-2.9470	-2.300263	0.000192	1.917777	0.649760	-0.000077
1081	1.0746e+02	-2.9967	-2.378881	0.000196	1.958365	0.663512	-0.000079
1082	1.0756e+02	-3.0336	-2.448943	0.000175	1.745278	0.591316	-0.000070
1083	1.0766e+02	-3.0737	-2.526339	0.000193	1.927924	0.653198	-0.000078
1084	1.0776e+02	-3.1202	-2.605363	0.000197	1.968512	0.666950	-0.000079
1085	1.0786e+02	-3.1668	-2.677055	0.000179	1.785866	0.605068	-0.000072
1086	1.0796e+02	-3.2117	-2.749970	0.000182	1.816307	0.615382	-0.000073
1087	1.0806e+02	-3.2389	-2.826957	0.000192	1.917777	0.649760	-0.000077
1088	1.0816e+02	-3.2887	-2.901501	0.000186	1.856895	0.629133	-0.000075
1089	1.0826e+02	-3.3192	-2.970749	0.000172	1.724985	0.584441	-0.000070
1090	1.0836e+02	-3.3545	-3.048144	0.000193	1.927924	0.653198	-0.000078
1091	1.0845e+02	-3.3897	-3.127169	0.000197	1.968512	0.666950	-0.000079
1092	1.0855e+02	-3.4459	-3.200898	0.000184	1.836601	0.622257	-0.000074
1093	1.0865e+02	-3.4908	-3.272183	0.000178	1.775719	0.601630	-0.000072
1094	1.0875e+02	-3.5325	-3.347541	0.000188	1.877189	0.636009	-0.000076
1095	1.0885e+02	-3.5774	-3.424529	0.000192	1.917777	0.649760	-0.000077
1096	1.0895e+02	-3.5935	-3.499480	0.000187	1.867042	0.632571	-0.000075
1097	1.0905e+02	-3.6625	-3.577690	0.000195	1.948218	0.660074	-0.000079
1098	1.0915e+02	-3.6544	-3.650604	-0.000182	-1.816307	-0.615382	-0.000073
1099	1.0925e+02	-3.7186	-3.730443	0.000199	1.988806	0.673826	-0.000080
1100	1.0935e+02	-3.7587	-3.801728	0.000178	1.775719	0.601630	-0.000072
1101	1.0945e+02	-3.8020	-3.882382	0.000201	2.009100	0.680701	-0.000081
1102	1.0955e+02	-3.8421	-3.952852	0.000176	1.755425	0.594754	-0.000071
1103	1.0965e+02	-3.8822	-4.029025	0.000190	1.897483	0.642885	-0.000077
1104	1.0975e+02	-3.9207	-4.107235	0.000195	1.948218	0.660074	-0.000079
1105	1.0985e+02	-3.9560	-4.178927	0.000179	1.785866	0.605068	-0.000072
1106	1.0995e+02	-3.9881	-4.259581	0.000201	2.009100	0.680701	-0.000081
1107	1.1005e+02	-4.0346	-4.333310	0.000184	1.836601	0.622257	-0.000074
1108	1.1015e+02	-4.0748	-4.410705	0.000193	1.927924	0.653198	-0.000078
1109	1.1025e+02	-4.1293	-4.483212	0.000181	1.806160	0.611944	-0.000073
1110	1.1035e+02	-4.1389	-4.560200	0.000192	1.917777	0.649760	-0.000077
1111	1.1044e+02	-4.1726	-4.633522	0.000183	1.826454	0.618819	-0.000074
1112	1.1054e+02	-4.2336	-4.714175	0.000201	2.009100	0.680701	-0.000081
1113	1.1064e+02	-4.2817	-4.785868	0.000179	1.785866	0.605068	-0.000072
1114	1.1074e+02	-4.3138	-4.861633	0.000189	1.887336	0.639447	-0.000076
1115	1.1084e+02	-4.3635	-4.926401	0.000161	1.613368	0.546624	-0.000065
1116	1.1094e+02	-4.3763	-5.005018	0.000196	1.958365	0.663512	-0.000079
1117	1.1104e+02	-4.4277	-5.076710	0.000179	1.785866	0.605068	-0.000072
1118	1.1114e+02	-4.4758	-5.150847	0.000185	1.846748	0.625695	-0.000075
1119	1.1124e+02	-4.4967	-5.220095	0.000172	1.724985	0.584441	-0.000070
1120	1.1134e+02	-4.5448	-5.291380	0.000178	1.775719	0.601630	-0.000072
1121	1.1144e+02	-4.6106	-5.366331	0.000187	1.867042	0.632571	-0.000075
1122	1.1154e+02	-4.6555	-5.440060	0.000184	1.836601	0.622257	-0.000074
1123	1.1164e+02	-4.6603	-5.504827	0.000161	1.613368	0.546624	-0.000065
1124	1.1174e+02	-4.7261	-5.579778	0.000187	1.867042	0.632571	-0.000075
1125	1.1184e+02	-4.7566	-5.654729	0.000187	1.867042	0.632571	-0.000075
1126	1.1194e+02	-4.7870	-5.723163	0.000170	1.704691	0.577565	-0.000069
1127	1.1204e+02	-4.8207	-5.793633	0.000176	1.755425	0.594754	-0.000071
1128	1.1214e+02	-4.8640	-5.866547	0.000182	1.816307	0.615382	-0.000073
1129	1.1224e+02	-4.9154	-5.934574	0.000169	1.694544	0.574127	-0.000068
1130	1.1234e+02	-4.9603	-6.010339	0.000189	1.887336	0.639447	-0.000076
1131	1.1244e+02	-4.9763	-6.084476	0.000185	1.846748	0.625695	-0.000075
1132	1.1253e+02	-5.0116	-6.149650	0.000162	1.623515	0.550062	-0.000066
1133	1.1263e+02	-5.0694	-6.219306	0.000174	1.735131	0.587878	-0.000070
1134	1.1273e+02	-5.1079	-6.288147	0.000171	1.714838	0.581003	-0.000069
1135	1.1283e+02	-5.1608	-6.359432	0.000178	1.775719	0.601630	-0.000072
1136	1.1293e+02	-5.2105	-6.428273	0.000171	1.714838	0.581003	-0.000069
1137	1.1303e+02	-5.2394	-6.499965	0.000179	1.785866	0.605068	-0.000072
1138	1.1313e+02	-5.2795	-6.571657	0.000179	1.785866	0.605068	-0.000072
1139	1.1323e+02	-5.3084	-6.644572	0.000182	1.816307	0.615382	-0.000073
1140	1.1333e+02	-5.3437	-6.710154	0.000163	1.633662	0.553500	-0.000066
1141	1.1343e+02	-5.3774	-6.787956	0.000194	1.938071	0.656636	-0.000078
1142	1.1353e+02	-5.4175	-6.854760	0.000166	1.664103	0.563813	-0.000067
1143	1.1363e+02	-5.4785	-6.925638	0.000177	1.765572	0.598192	-0.000071
1144	1.1373e+02	-5.5105	-6.994479	0.000171	1.714838	0.581003	-0.000069
1145	1.1383e+02	-5.5539	-7.073911	0.000198	1.978659	0.670388	-0.000080
1146	1.1393e+02	-5.5875	-7.139900	0.000164	1.643809	0.556937	-0.000066
1147	1.1403e+02	-5.6325	-7.214444	0.000186	1.856895	0.629133	-0.000075
1148	1.1413e+02	-5.6533	-7.280841	0.000165	1.653956	0.560375	-0.000067
1149	1.1423e+02	-5.7367	-7.350089	0.000172	1.724985	0.584441	-0.000070
1150	1.1433e+02	-5.7560	-7.418115	0.000169	1.694544	0.574127	-0.000068
1151	1.1442e+02	-5.7945	-7.485327	0.000167	1.674250	0.567251	-0.000068
1152	1.1452e+02	-5.8234	-7.558648	0.000183	1.826454	0.618819	-0.000074
1153	1.1462e+02	-5.8747	-7.629119	0.000176	1.755425	0.594754	-0.000071
1154	1.1472e+02	-5.9244	-7.698774	0.000174	1.735131	0.587878	-0.000070
1155	1.1482e+02	-5.9132	-7.772503	-0.000184	-1.836601	-0.622257	-0.000074
1156	1.1492e+02	-5.9854	-7.838085	0.000163	1.633662	0.553500	-0.000066
1157	1.1502e+02	-6.0287	-7.906112	0.000169	1.694544	0.574127	-0.000068
1158	1.1512e+02	-6.0929	-7.976175	0.000175	1.745278	0.591316	-0.000070
1159	1.1522e+02	-6.1057	-8.040942	0.000161	1.613368	0.546624	-0.000065
1160	1.1532e+02	-6.1346	-8.118337	0.000193	1.927924	0.653198	-0.000078
1161	1.1542e+02	-6.1859	-8.181882	0.000158	1.582927	0.536310	-0.000064
1162	1.1552e+02	-6.2324	-8.246650	0.000161	1.613368	0.546624	-0.000065
1163	1.1562e+02	-6.2405	-8.315084	0.000170	1.704691	0.577565	-0.000069
1164	1.1572e+02	-6.2934	-8.381888	0.000166	1.664103	0.563813	-0.000067
1165	1.1582e+02	-6.3560	-8.447470	0.000163	1.633662	0.553500	-0.000066
1166	1.1592e+02	-6.4009	-8.511423	0.000159	1.593074	0.539748	-0.000064
1167	1.1602e+02	-6.4233	-8.575375	0.000159	1.593074	0.539748	-0.000064
1168	1.1612e+02	-6.4699	-8.638921	0.000158	1.582927	0.536310	-0.000064
1169	1.1622e+02	-6.5036	-8.700430	0.000153	1.532192	0.519121	-0.000062
1170	1.1632e+02	-6.5421	-8.772122	0.000179	1.785866	0.605068	-0.000072
1171	1.1642e+02	-6.5790	-8.836889	0.000161	1.613368	0.546624	-0.000065
1172	1.1651e+02	-6.6431	-8.904916	0.000169	1.694544	0.574127	-0.000068
1173	1.1661e+02	-6.6688	-8.971720	0.000166	1.664103	0.563813	-0.000067
1174	1.1671e+02	-6.6993	-9.032821	0.000152	1.522045	0.515683	-0.000061
1175	1.1681e+02	-6.7378	-9.101662	0.000171	1.714838	0.581003	-0.000069
1176	1.1691e+02	-6.8052	-9.166837	0.000162	1.623515	0.550062	-0.000066
1177	1.1701e+02	-6.8324	-9.230790	0.000159	1.593074	0.539748	-0.000064
1178	1.1711e+02	-6.8773	-9.295964	0.000162	1.623515	0.550062	-0.000066
1179	1.1721e+02	-6.9046	-9.359102	0.000157	1.572780	0.532872	-0.000063
1180	1.1731e+02	-6.9560	-9.424685	0.000163	1.633662	0.553500	-0.000066
1181	1.1741e+02	-6.9784	-9.484157	0.000148	1.481457	0.501931	-0.000060
1182	1.1751e+02	-7.0330	-9.549331	0.000162	1.623515	0.550062	-0.000066
1183	1.1761e+02	-7.0699	-9.612877	0.000158	1.582927	0.536310	-0.000064
1184	1.1771e+02	-7.0939	-9.673571	0.000151	1.511898	0.512245	-0.000061
1185	1.1781e+02	-7.1501	-9.739153	0.000163	1.633662	0.553500	-0.000066
1186	1.1791e+02	-7.1805	-9.796996	0.000144	1.440869	0.488180	-0.000058
1187	1.1801e+02	-7.2158	-9.859319	0.000155	1.552486	0.525997	-0.000063
1188	1.1811e+02	-7.2816	-9.929382	0.000175	1.745278	0.591316	-0.000070
1189	1.1821e+02	-7.2977	-9.992113	0.000156	1.562633	0.529434	-0.000063
1190	1.1831e+02	-7.3249	-10.053622	0.000153	1.532192	0.519121	-0.000062
1191	1.1841e+02	-7.3987	-10.113094	0.000148	1.481457	0.501931	-0.000060
1192	1.1850e+02	-7.4116	-10.176232	0.000157	1.572780	0.532872	-0.000063
1193	1.1860e+02	-7.4436	-10.239777	0.000158	1.582927	0.536310	-0.000064
1194	1.1870e+02	-7.5046	-10.292732	0.000132	1.319106	0.446925	-0.000053
1195	1.1880e+02	-7.5383	-10.359943	0.000167	1.674250	0.567251	-0.000068
1196	1.1890e+02	-7.5768	-10.419008	0.000147	1.471310	0.498493	-0.000059
1197	1.1900e+02	-7.6169	-10.482553	0.000158	1.582927	0.536310	-0.000064
1198	1.1910e+02	-7.6666	-10.540396	0.000144	1.440869	0.488180	-0.000058
1199	1.1920e+02	-7.6923	-10.610866	0.000176	1.755425	0.594754	-0.000071
1200	1.1930e+02	-7.7340	-10.665857	0.000137	1.369841	0.464115	-0.000055
1201	1.1940e+02	-7.7805	-10.734291	0.000170	1.704691	0.577565	-0.000069
1202	1.1950e+02	-7.8206	-10.794170	0.000149	1.491604	0.505369	-0.000060
1203	1.1960e+02	-7.8511	-10.857308	0.000157	1.572780	0.532872	-0.000063
1204	1.1970e+02	-7.8896	-10.924520	0.000167	1.674250	0.567251	-0.000068
1205	1.1980e+02	-7.9490	-10.988473	0.000159	1.593074	0.539748	-0.000064
1206	1.1990e+02	-7.9714	-11.051203	0.000156	1.562633	0.529434	-0.000063
1207	1.2000e+02	-8.0324	-11.111083	0.000149	1.491604	0.505369	-0.000060
1208	1.2010e+02	-8.0661	-11.177072	0.000164	1.643809	0.556937	-0.000066
1209	1.2020e+02	-8.1110	-11.241432	0.000160	1.603221	0.543186	-0.000065
1210	1.2030e+02	-8.1399	-11.304163	0.000156	1.562633	0.529434	-0.000063
1211	1.2039e+02	-8.1928	-11.362413	0.000145	1.451016	0.491618	-0.000059
1212	1.2049e+02	-8.1944	-11.430439	0.000169	1.694544	0.574127	-0.000068
1213	1.2059e+02	-8.2714	-11.487467	0.000142	1.420575	0.481304	-0.000057
1214	1.2069e+02	-8.2891	-11.555901	0.000170	1.704691	0.577565	-0.000069
1215	1.2079e+02	-8.3372	-11.619854	0.000159	1.593074	0.539748	-0.000064
1216	1.2089e+02	-8.3677	-11.682584	0.000156	1.562633	0.529434	-0.000063
1217	1.2099e+02	-8.4094	-11.740427	0.000144	1.440869	0.488180	-0.000058
1218	1.2109e+02	-8.4623	-11.802750	0.000155	1.552486	0.525997	-0.000063
1219	1.2119e+02	-8.5153	-11.865889	0.000157	1.572780	0.532872	-0.000063
1220	1.2129e+02	-8.5249	-11.926990	0.000152	1.522045	0.515683	-0.000061
1221	1.2139e+02	-8.5602	-11.988499	0.000153	1.532192	0.519121	-0.000062
1222	1.2149e+02	-8.6051	-12.053266	0.000161	1.613368	0.546624	-0.000065
1223	1.2159e+02	-8.6629	-12.113553	0.000150	1.501751	0.508807	-0.000061
1224	1.2169e+02	-8.6949	-12.176691	0.000157	1.572780	0.532872	-0.000063
1225	1.2179e+02	-8.7383	-12.235756	0.000147	1.471310	0.498493	-0.000059
1226	1.2189e+02	-8.7800	-12.297672	0.000154	1.542339	0.522559	-0.000062
1227	1.2199e+02	-8.8040	-12.355107	0.000143	1.430722	0.484742	-0.000058
1228	1.2209e+02	-8.8425	-12.416208	0.000152	1.522045	0.515683	-0.000061
1229	1.2219e+02	-8.9019	-12.475273	0.000147	1.471310	0.498493	-0.000059
1230	1.2229e+02	-8.9612	-12.533930	0.000146	1.461163	0.495056	-0.000059
1231	1.2239e+02	-8.9837	-12.597883	0.000159	1.593074	0.539748	-0.000064
1232	1.2248e+02	-9.0062	-12.654911	0.000142	1.420575	0.481304	-0.000057
1233	1.2258e+02	-9.0591	-12.720493	0.000163	1.633662	0.553500	-0.000066
1234	1.2268e+02	-9.0944	-12.782002	0.000153	1.532192	0.519121	-0.000062
1235	1.2278e+02	-9.1634	-12.835364	0.000133	1.329253	0.450363	-0.000054
1236	1.2288e+02	-9.1858	-12.901353	0.000164	1.643809	0.556937	-0.000066
1237	1.2298e+02	-9.2147	-12.962862	0.000153	1.532192	0.519121	-0.000062
1238	1.2308e+02	-9.2612	-13.021519	0.000146	1.461163	0.495056	-0.000059
1239	1.2318e+02	-9.3046	-13.080584	0.000147	1.471310	0.498493	-0.000059
1240	1.2328e+02	-9.3479	-13.141278	0.000151	1.511898	0.512245	-0.000061
1241	1.2338e+02	-9.3944	-13.200750	0.000148	1.481457	0.501931	-0.000060
1242	1.2348e+02	-9.4329	-13.261444	0.000151	1.511898	0.512245	-0.000061
1243	1.2358e+02	-9.4586	-13.320101	0.000146	1.461163	0.495056	-0.000059
1244	1.2368e+02	-9.4714	-13.382425	0.000155	1.552486	0.525997	-0.000063
1245	1.2378e+02	-9.5388	-13.445970	0.000158	1.582927	0.536310	-0.000064
1246	1.2388e+02	-9.5949	-13.503813	0.000144	1.440869	0.488180	-0.000058
1247	1.2398e+02	-9.6238	-13.568988	0.000162	1.623515	0.550062	-0.000066
1248	1.2408e+02	-9.6559	-13.628867	0.000149	1.491604	0.505369	-0.000060
1249	1.2418e+02	-9.6960	-13.690783	0.000154	1.542339	0.522559	-0.000062
1250	1.2428e+02	-9.7537	-13.751477	0.000151	1.511898	0.512245	-0.000061
1251	1.2438e+02	-9.7794	-13.814208	0.000156	1.562633	0.529434	-0.000063
1252	1.2447e+02	-9.8259	-13.872865	0.000146	1.461163	0.495056	-0.000059
1253	1.2457e+02	-9.8564	-13.934374	0.000153	1.532192	0.519121	-0.000062
1254	1.2467e+02	-9.8965	-13.999549	0.000162	1.623515	0.550062	-0.000066
1255	1.2477e+02	-9.9174	-14.063094	0.000158	1.582927	0.536310	-0.000064
1256	1.2487e+02	-9.9767	-14.115234	0.000130	1.298812	0.440049	-0.000052
1257	1.2497e+02	-10.0297	-14.178780	0.000158	1.582927	0.536310	-0.000064
1258	1.2507e+02	-10.0666	-14.245991	0.000167	1.674250	0.567251	-0.000068
1259	1.2517e+02	-10.1115	-14.300168	0.000135	1.349547	0.457239	-0.000054
1260	1.2527e+02	-10.1500	-14.362898	0.000156	1.562633	0.529434	-0.000063
1261	1.2537e+02	-10.1740	-14.421148	0.000145	1.451016	0.491618	-0.000059
1262	1.2547e+02	-10.1965	-14.486323	0.000162	1.623515	0.550062	-0.000066
1263	1.2557e+02	-10.2559	-14.549869	0.000158	1.582927	0.536310	-0.000064
1264	1.2567e+02	-10.2960	-14.615043	0.000162	1.623515	0.550062	-0.000066
1265	1.2577e+02	-10.3297	-14.673293	0.000145	1.451016	0.491618	-0.000059
1266	1.2587e+02	-10.3810	-14.742949	0.000174	1.735131	0.587878	-0.000070
1267	1.2597e+02	-10.4291	-14.801606	0.000146	1.461163	0.495056	-0.000059
1268	1.2607e+02	-10.4596	-14.869225	0.000168	1.684397	0.570689	-0.000068
1269	1.2617e+02	-10.4676	-14.922180	0.000132	1.319106	0.446925	-0.000053
1270	1.2627e+02	-10.5141	-14.992243	0.000175	1.745278	0.591316	-0.000070
1271	1.2636e+02	-10.5687	-15.051715	0.000148	1.481457	0.501931	-0.000060
1272	1.2646e+02	-10.6136	-15.114038	0.000155	1.552486	0.525997	-0.000063
1273	1.2656e+02	-10.6537	-15.175547	0.000153	1.532192	0.519121	-0.000062
1274	1.2666e+02	-10.6970	-15.236241	0.000151	1.511898	0.512245	-0.000061
1275	1.2676e+02	-10.7323	-15.299379	0.000157	1.572780	0.532872	-0.000063
1276	1.2686e+02	-10.7548	-15.364961	0.000163	1.633662	0.553500	-0.000066
1277	1.2696e+02	-10.8189	-15.429729	0.000161	1.613368	0.546624	-0.000065
1278	1.2706e+02	-10.8478	-15.485534	0.000139	1.390135	0.470990	-0.000056
1279	1.2716e+02	-10.9088	-15.547043	0.000153	1.532192	0.519121	-0.000062
1280	1.2726e+02	-10.9537	-15.610996	0.000159	1.593074	0.539748	-0.000064
1281	1.2736e+02	-10.9569	-15.676578	0.000163	1.633662	0.553500	-0.000066
1282	1.2746e+02	-11.0131	-15.736865	0.000150	1.501751	0.508807	-0.000061
1283	1.2756e+02	-11.0628	-15.795115	0.000145	1.451016	0.491618	-0.000059
1284	1.2766e+02	-11.0901	-15.854587	0.000148	1.481457	0.501931	-0.000060
1285	1.2776e+02	-11.1382	-15.915281	0.000151	1.511898	0.512245	-0.000061
1286	1.2786e+02	-11.1590	-15.977197	0.000154	1.542339	0.522559	-0.000062
1287	1.2796e+02	-11.2088	-16.032595	0.000138	1.379988	0.467552	-0.000056
1288	1.2806e+02	-11.2409	-16.087994	0.000138	1.379988	0.467552	-0.000056
1289	1.2816e+02	-11.2778	-16.158464	0.000176	1.755425	0.594754	-0.000071
1290	1.2826e+02	-11.3323	-16.215085	0.000141	1.410429	0.477866	-0.000057
1291	1.2835e+02	-11.3211	-16.269669	-0.000136	-1.359694	-0.460677	-0.000055
1292	1.2845e+02	-11.4141	-16.331178	0.000153	1.532192	0.519121	-0.000062
1293	1.2855e+02	-11.4478	-16.393908	0.000156	1.562633	0.529434	-0.000063
1294	1.2865e+02	-11.4911	-16.447678	0.000134	1.339400	0.453801	-0.000054
1295	1.2875e+02	-11.5088	-16.510816	0.000157	1.572780	0.532872	-0.000063
1296	1.2885e+02	-11.5537	-16.572324	0.000153	1.532192	0.519121	-0.000062
1297	1.2895e+02	-11.6227	-16.626908	0.000136	1.359694	0.460677	-0.000055
1298	1.2905e+02	-11.6435	-16.685566	0.000146	1.461163	0.495056	-0.000059
1299	1.2915e+02	-11.6900	-16.746260	0.000151	1.511898	0.512245	-0.000061
1300	1.2925e+02	-11.7318	-16.802066	0.000139	1.390135	0.470990	-0.000056
1301	1.2935e+02	-11.7879	-16.862352	0.000150	1.501751	0.508807	-0.000061
1302	1.2945e+02	-11.8216	-16.919380	0.000142	1.420575	0.481304	-0.000057
1303	1.2955e+02	-11.8553	-16.977223	0.000144	1.440869	0.488180	-0.000058
1304	1.2965e+02	-11.9050	-17.037510	0.000150	1.501751	0.508807	-0.000061
1305	1.2975e+02	-11.9082	-17.100240	0.000156	1.562633	0.529434	-0.000063
1306	1.2985e+02	-11.9772	-17.152380	0.000130	1.298812	0.440049	-0.000052
1307	1.2995e+02	-12.0013	-17.215111	0.000156	1.562633	0.529434	-0.000063
1308	1.3005e+02	-12.0382	-17.277434	0.000155	1.552486	0.525997	-0.000063
1309	1.3015e+02	-12.0959	-17.335277	0.000144	1.440869	0.488180	-0.000058
1310	1.3025e+02	-12.1456	-17.400044	0.000161	1.613368	0.546624	-0.000065
1311	1.3034e+02	-12.1713	-17.458702	0.000146	1.461163	0.495056	-0.000059
1312	1.3044e+02	-12.1841	-17.516544	0.000144	1.440869	0.488180	-0.000058
1313	1.3054e+02	-12.2483	-17.573572	0.000142	1.420575	0.481304	-0.000057
1314	1.3064e+02	-12.2868	-17.633044	0.000148	1.481457	0.501931	-0.000060
1315	1.3074e+02	-12.3077	-17.691702	0.000146	1.461163	0.495056	-0.000059
1316	1.3084e+02	-12.3734	-17.753618	0.000154	1.542339	0.522559	-0.000062
1317	1.3094e+02	-12.3927	-17.810238	0.000141	1.410429	0.477866	-0.000057
1318	1.3104e+02	-12.4537	-17.868488	0.000145	1.451016	0.491618	-0.000059
1319	1.3114e+02	-12.4825	-17.924702	0.000140	1.400282	0.474428	-0.000056
1320	1.3124e+02	-12.5002	-17.984174	0.000148	1.481457	0.501931	-0.000060
1321	1.3134e+02	-12.5595	-18.048534	0.000160	1.603221	0.543186	-0.000065
1322	1.3144e+02	-12.5820	-18.102303	0.000134	1.339400	0.453801	-0.000054
1323	1.3154e+02	-12.6398	-18.158516	0.000140	1.400282	0.474428	-0.000056
1324	1.3164e+02	-12.6959	-18.223691	0.000162	1.623515	0.550062	-0.000066
1325	1.3174e+02	-12.7312	-18.281126	0.000143	1.430722	0.484742	-0.000058
1326	1.3184e+02	-12.7408	-18.339376	0.000145	1.451016	0.491618	-0.000059
1327	1.3194e+02	-12.7938	-18.397219	0.000144	1.440869	0.488180	-0.000058
1328	1.3204e+02	-12.8339	-18.455469	0.000145	1.451016	0.491618	-0.000059
1329	1.3214e+02	-12.9109	-18.507609	0.000130	1.298812	0.440049	-0.000052
1330	1.3224e+02	-12.9381	-18.563415	0.000139	1.390135	0.470990	-0.000056
1331	1.3234e+02	-12.9349	-18.616777	-0.000133	-1.329253	-0.450363	-0.000054
1332	1.3243e+02	-13.0200	-18.678285	0.000153	1.532192	0.519121	-0.000062
1333	1.3253e+02	-13.0376	-18.732869	0.000136	1.359694	0.460677	-0.000055
1334	1.3263e+02	-13.0601	-18.789490	0.000141	1.410429	0.477866	-0.000057
1335	1.3273e+02	-13.1050	-18.845703	0.000140	1.400282	0.474428	-0.000056
1336	1.3283e+02	-13.1515	-18.900287	0.000136	1.359694	0.460677	-0.000055
1337	1.3293e+02	-13.2044	-18.959352	0.000147	1.471310	0.498493	-0.000059
1338	1.3303e+02	-13.2462	-19.017194	0.000144	1.440869	0.488180	-0.000058
1339	1.3313e+02	-13.2766	-19.070149	0.000132	1.319106	0.446925	-0.000053
1340	1.3323e+02	-13.3280	-19.127177	0.000142	1.420575	0.481304	-0.000057
1341	1.3333e+02	-13.3729	-19.184205	0.000142	1.420575	0.481304	-0.000057
1342	1.3343e+02	-13.4002	-19.243677	0.000148	1.481457	0.501931	-0.000060
1343	1.3353e+02	-13.4322	-19.296224	0.000131	1.308959	0.443487	-0.000053
1344	1.3363e+02	-13.4675	-19.357733	0.000153	1.532192	0.519121	-0.000062
1345	1.3373e+02	-13.5205	-19.412724	0.000137	1.369841	0.464115	-0.000055
1346	1.3383e+02	-13.5670	-19.469752	0.000142	1.420575	0.481304	-0.000057
1347	1.3393e+02	-13.5911	-19.520262	0.000126	1.258224	0.426298	-0.000051
1348	1.3403e+02	-13.6472	-19.575661	0.000138	1.379988	0.467552	-0.000056
1349	1.3413e+02	-13.6873	-19.634726	0.000147	1.471310	0.498493	-0.000059
1350	1.3423e+02	-13.7178	-19.686051	0.000128	1.278518	0.433174	-0.000052
1351	1.3432e+02	-13.7451	-19.739820	0.000134	1.339400	0.453801	-0.000054
1352	1.3442e+02	-13.7820	-19.795219	0.000138	1.379988	0.467552	-0.000056
1353	1.3452e+02	-13.8237	-19.851839	0.000141	1.410429	0.477866	-0.000057
1354	1.3462e+02	-13.8750	-19.906423	0.000136	1.359694	0.460677	-0.000055
1355	1.3472e+02	-13.9135	-19.963044	0.000141	1.410429	0.477866	-0.000057
1356	1.3482e+02	-13.9504	-20.020886	0.000144	1.440869	0.488180	-0.000058
1357	1.3492e+02	-13.9921	-20.073841	0.000132	1.319106	0.446925	-0.000053
1358	1.3502e+02	-14.0467	-20.129240	0.000138	1.379988	0.467552	-0.000056
1359	1.3512e+02	-14.0739	-20.187897	0.000146	1.461163	0.495056	-0.000059
1360	1.3522e+02	-14.1172	-20.246147	0.000145	1.451016	0.491618	-0.000059
1361	1.3532e+02	-14.1445	-20.299101	0.000132	1.319106	0.446925	-0.000053
1362	1.3542e+02	-14.2023	-20.353685	0.000136	1.359694	0.460677	-0.000055
1363	1.3552e+02	-14.2408	-20.411528	0.000144	1.440869	0.488180	-0.000058
1364	1.3562e+02	-14.2793	-20.469778	0.000145	1.451016	0.491618	-0.000059
1365	1.3572e+02	-14.3210	-20.525584	0.000139	1.390135	0.470990	-0.000056
1366	1.3582e+02	-14.3563	-20.587093	0.000153	1.532192	0.519121	-0.000062
1367	1.3592e+02	-14.3948	-20.639640	0.000131	1.308959	0.443487	-0.000053
1368	1.3602e+02	-14.4381	-20.704407	0.000161	1.613368	0.546624	-0.000065
1369	1.3612e+02	-14.5167	-20.761843	0.000143	1.430722	0.484742	-0.000058
1370	1.3622e+02	-14.5376	-20.824573	0.000156	1.562633	0.529434	-0.000063
1371	1.3631e+02	-14.5440	-20.881194	0.000141	1.410429	0.477866	-0.000057
1372	1.3641e+02	-14.6049	-20.943925	0.000156	1.562633	0.529434	-0.000063
1373	1.3651e+02	-14.6370	-21.010321	0.000165	1.653956	0.560375	-0.000067
1374	1.3661e+02	-14.6787	-21.068571	0.000145	1.451016	0.491618	-0.000059
1375	1.3671e+02	-14.6932	-21.132117	0.000158	1.582927	0.536310	-0.000064
1376	1.3681e+02	-14.7670	-21.190367	0.000145	1.451016	0.491618	-0.000059
1377	1.3691e+02	-14.7958	-21.251876	0.000153	1.532192	0.519121	-0.000062
1378	1.3701e+02	-14.8424	-21.316643	0.000161	1.613368	0.546624	-0.000065
1379	1.3711e+02	-14.8937	-21.374893	0.000145	1.451016	0.491618	-0.000059
1380	1.3721e+02	-14.9210	-21.441290	0.000165	1.653956	0.560375	-0.000067
1381	1.3731e+02	-14.9675	-21.504835	0.000158	1.582927	0.536310	-0.000064
1382	1.3741e+02	-14.9996	-21.567159	0.000155	1.552486	0.525997	-0.000063
1383	1.3751e+02	-15.0285	-21.631519	0.000160	1.603221	0.543186	-0.000065
1384	1.3761e+02	-15.0621	-21.697101	0.000163	1.633662	0.553500	-0.000066
1385	1.3771e+02	-15.1039	-21.764313	0.000167	1.674250	0.567251	-0.000068
1386	1.3781e+02	-15.1488	-21.826229	0.000154	1.542339	0.522559	-0.000062
1387	1.3791e+02	-15.2081	-21.893033	0.000166	1.664103	0.563813	-0.000067
1388	1.3801e+02	-15.2242	-21.956986	0.000159	1.593074	0.539748	-0.000064
1389	1.3811e+02	-15.2691	-22.025419	0.000170	1.704691	0.577565	-0.000069
1390	1.3821e+02	-15.3220	-22.092223	0.000166	1.664103	0.563813	-0.000067
1391	1.3831e+02	-15.3541	-22.154954	0.000156	1.562633	0.529434	-0.000063
1392	1.3840e+02	-15.3862	-22.222980	0.000169	1.694544	0.574127	-0.000068
1393	1.3850e+02	-15.4183	-22.288155	0.000162	1.623515	0.550062	-0.000066
1394	1.3860e+02	-15.4825	-22.354552	0.000165	1.653956	0.560375	-0.000067
1395	1.3870e+02	-15.5001	-22.417283	0.000156	1.562633	0.529434	-0.000063
1396	1.3880e+02	-15.5530	-22.484494	0.000167	1.674250	0.567251	-0.000068
1397	1.3890e+02	-15.6108	-22.552928	0.000170	1.704691	0.577565	-0.000069
1398	1.3900e+02	-15.6300	-22.618510	0.000163	1.633662	0.553500	-0.000066
1399	1.3910e+02	-15.6557	-22.691424	0.000182	1.816307	0.615382	-0.000073
1400	1.3920e+02	-15.7070	-22.760265	0.000171	1.714838	0.581003	-0.000069
1401	1.3930e+02	-15.7423	-22.822996	0.000156	1.562633	0.529434	-0.000063
1402	1.3940e+02	-15.7953	-22.893873	0.000177	1.765572	0.598192	-0.000071
1403	1.3950e+02	-15.8290	-22.968417	0.000186	1.856895	0.629133	-0.000075
1404	1.3960e+02	-15.8819	-23.035629	0.000167	1.674250	0.567251	-0.000068
1405	1.3970e+02	-15.9381	-23.108136	0.000181	1.806160	0.611944	-0.000073
1406	1.3980e+02	-15.9413	-23.173718	0.000163	1.633662	0.553500	-0.000066
1407	1.3990e+02	-15.9830	-23.246225	0.000181	1.806160	0.611944	-0.000073
1408	1.4000e+02	-16.0375	-23.316288	0.000175	1.745278	0.591316	-0.000070
1409	1.4010e+02	-16.0584	-23.389609	0.000183	1.826454	0.618819	-0.000074
1410	1.4020e+02	-16.1129	-23.461302	0.000179	1.785866	0.605068	-0.000072
1411	1.4029e+02	-16.1386	-23.534623	0.000183	1.826454	0.618819	-0.000074
1412	1.4039e+02	-16.1867	-23.613240	0.000196	1.958365	0.663512	-0.000079
1413	1.4049e+02	-16.2348	-23.689413	0.000190	1.897483	0.642885	-0.000077
1414	1.4059e+02	-16.2605	-23.763957	0.000186	1.856895	0.629133	-0.000075
1415	1.4069e+02	-16.2926	-23.833613	0.000174	1.735131	0.587878	-0.000070
1416	1.4079e+02	-16.3407	-23.913859	0.000200	1.998953	0.677263	-0.000081
1417	1.4089e+02	-16.3760	-23.994513	0.000201	2.009100	0.680701	-0.000081
1418	1.4099e+02	-16.4466	-24.067020	0.000181	1.806160	0.611944	-0.000073
1419	1.4109e+02	-16.4594	-24.139934	0.000182	1.816307	0.615382	-0.000073
1420	1.4119e+02	-16.4899	-24.219773	0.000199	1.988806	0.673826	-0.000080
1421	1.4129e+02	-16.5364	-24.297983	0.000195	1.948218	0.660074	-0.000079
1422	1.4139e+02	-16.5910	-24.377415	0.000198	1.978659	0.670388	-0.000080
1423	1.4149e+02	-16.5926	-24.457254	0.000199	1.988806	0.673826	-0.000080
1424	1.4159e+02	-16.6664	-24.534242	0.000192	1.917777	0.649760	-0.000077
1425	1.4169e+02	-16.6920	-24.614488	0.000200	1.998953	0.677263	-0.000081
1426	1.4179e+02	-16.7305	-24.697179	0.000206	2.059834	0.697891	-0.000083
1427	1.4189e+02	-16.7979	-24.778647	0.000203	2.029394	0.687577	-0.000082
1428	1.4199e+02	-16.8043	-24.860116	0.000203	2.029394	0.687577	-0.000082
1429	1.4209e+02	-16.8557	-24.935474	0.000188	1.877189	0.636009	-0.000076
1430	1.4219e+02	-16.8813	-25.022646	0.000217	2.171451	0.735708	-0.000088
1431	1.4228e+02	-16.9519	-25.103707	0.000202	2.019247	0.684139	-0.000081
1432	1.4238e+02	-16.9680	-25.185583	0.000204	2.039541	0.691015	-0.000082
1433	1.4248e+02	-17.0145	-25.276013	0.000225	2.252627	0.763211	-0.000091
1434	1.4258e+02	-17.0578	-25.363591	0.000218	2.181598	0.739145	-0.000088
1435	1.4268e+02	-17.1011	-25.447911	0.000210	2.100422	0.711642	-0.000085
1436	1.4278e+02	-17.1396	-25.534675	0.000216	2.161304	0.732270	-0.000087
1437	1.4288e+02	-17.1525	-25.623476	0.000221	2.212039	0.749459	-0.000089
1438	1.4298e+02	-17.1990	-25.706166	0.000206	2.059834	0.697891	-0.000083
1439	1.4308e+02	-17.2455	-25.792930	0.000216	2.161304	0.732270	-0.000087
1440	1.4318e+02	-17.2968	-25.877658	0.000211	2.110569	0.715080	-0.000085
1441	1.4328e+02	-17.3514	-25.964829	0.000217	2.171451	0.735708	-0.000088
1442	1.4338e+02	-17.3706	-26.057703	0.000231	2.313509	0.783838	-0.000093
1443	1.4348e+02	-17.4188	-26.149355	0.000228	2.283068	0.773524	-0.000092
1444	1.4358e+02	-17.4605	-26.237748	0.000220	2.201892	0.746021	-0.000089
1445	1.4368e+02	-17.4749	-26.324920	0.000217	2.171451	0.735708	-0.000088
1446	1.4378e+02	-17.5391	-26.414535	0.000223	2.232333	0.756335	-0.000090
1447	1.4388e+02	-17.5712	-26.506187	0.000228	2.283068	0.773524	-0.000092
1448	1.4398e+02	-17.6129	-26.602320	0.000239	2.394684	0.811341	-0.000097
1449	1.4408e+02	-17.6690	-26.691935	0.000223	2.232333	0.756335	-0.000090
1450	1.4418e+02	-17.6979	-26.779107	0.000217	2.171451	0.735708	-0.000088
1451	1.4428e+02	-17.7637	-26.870351	0.000227	2.272921	0.770086	-0.000092
1452	1.4437e+02	-17.7893	-26.965670	0.000237	2.374390	0.804465	-0.000096
1453	1.4447e+02	-17.8198	-27.052026	0.000215	2.151157	0.728832	-0.000087
1454	1.4457e+02	-17.8487	-27.140012	0.000219	2.191745	0.742583	-0.000088
1455	1.4467e+02	-17.9081	-27.238182	0.000245	2.445419	0.828530	-0.000099
1456	1.4477e+02	-17.9209	-27.329834	0.000228	2.283068	0.773524	-0.000092
1457	1.4487e+02	-17.9786	-27.429225	0.000248	2.475860	0.838844	-0.000100
1458	1.4497e+02	-17.9995	-27.518433	0.000222	2.222186	0.752897	-0.000090
1459	1.4507e+02	-18.0765	-27.617010	0.000246	2.455566	0.831968	-0.000099
1460	1.4517e+02	-18.0974	-27.706218	0.000222	2.222186	0.752897	-0.000090
1461	1.4527e+02	-18.1294	-27.802759	0.000240	2.404831	0.814779	-0.000097
1462	1.4537e+02	-18.1920	-27.901335	0.000246	2.455566	0.831968	-0.000099
1463	1.4547e+02	-18.2273	-27.995839	0.000235	2.354097	0.797589	-0.000095
1464	1.4557e+02	-18.2722	-28.091972	0.000239	2.394684	0.811341	-0.000097
1465	1.4567e+02	-18.3187	-28.188512	0.000240	2.404831	0.814779	-0.000097
1466	1.4577e+02	-18.3332	-28.286681	0.000245	2.445419	0.828530	-0.000099
1467	1.4587e+02	-18.3957	-28.383222	0.000240	2.404831	0.814779	-0.000097
1468	1.4597e+02	-18.4102	-28.480984	0.000244	2.435272	0.825093	-0.000098
1469	1.4607e+02	-18.4535	-28.578746	0.000244	2.435272	0.825093	-0.000098
1470	1.4617e+02	-18.4856	-28.679360	0.000251	2.506301	0.849158	-0.000101
1471	1.4626e+02	-18.5481	-28.779566	0.000250	2.496154	0.845720	-0.000101
1472	1.4636e+02	-18.5979	-28.879772	0.000250	2.496154	0.845720	-0.000101
1473	1.4646e+02	-18.6235	-28.979164	0.000248	2.475860	0.838844	-0.000100
1474	1.4656e+02	-18.7038	-29.085480	0.000265	2.648359	0.897288	-0.000107
1475	1.4666e+02	-18.6925	-29.183242	-0.000244	-2.435272	-0.825093	-0.000098
1476	1.4676e+02	-18.7455	-29.286300	0.000257	2.567183	0.869785	-0.000104
1477	1.4686e+02	-18.7840	-29.397505	0.000277	2.770122	0.938543	-0.000112
1478	1.4696e+02	-18.8369	-29.502192	0.000261	2.607771	0.883537	-0.000105
1479	1.4706e+02	-18.8674	-29.605249	0.000257	2.567183	0.869785	-0.000104
1480	1.4716e+02	-18.8914	-29.714824	0.000273	2.729534	0.924791	-0.000110
1481	1.4726e+02	-18.9460	-29.821956	0.000267	2.668653	0.904164	-0.000108
1482	1.4736e+02	-18.9797	-29.928679	0.000266	2.658506	0.900726	-0.000107
1483	1.4746e+02	-19.0198	-30.032959	0.000260	2.597624	0.880099	-0.000105
1484	1.4756e+02	-19.0455	-30.136831	0.000259	2.587477	0.876661	-0.000104
1485	1.4766e+02	-19.1016	-30.248443	0.000278	2.780269	0.941981	-0.000112
1486	1.4776e+02	-19.0840	-30.356389	-0.000269	-2.688946	-0.911040	-0.000108
1487	1.4786e+02	-19.2075	-30.468001	0.000278	2.780269	0.941981	-0.000112
1488	1.4796e+02	-19.2315	-30.572281	0.000260	2.597624	0.880099	-0.000105
1489	1.4806e+02	-19.2604	-30.680634	0.000270	2.699093	0.914478	-0.000109
1490	1.4816e+02	-19.2845	-30.798763	0.000294	2.942621	0.996987	-0.000119
1491	1.4825e+02	-19.3406	-30.904672	0.000264	2.638212	0.893850	-0.000106
1492	1.4835e+02	-19.3583	-31.015062	0.000275	2.749828	0.931667	-0.000111
1493	1.4845e+02	-19.4112	-31.137672	0.000305	3.054237	1.034804	-0.000123
1494	1.4855e+02	-19.4497	-31.245210	0.000268	2.678800	0.907602	-0.000108
1495	1.4865e+02	-19.5027	-31.358044	0.000281	2.810710	0.952294	-0.000113
1496	1.4875e+02	-19.5075	-31.473322	0.000287	2.871592	0.972922	-0.000116
1497	1.4885e+02	-19.5668	-31.588193	0.000286	2.861445	0.969484	-0.000115
1498	1.4895e+02	-19.5893	-31.696546	0.000270	2.699093	0.914478	-0.000109
1499	1.4905e+02	-19.6502	-31.812231	0.000288	2.881739	0.976360	-0.000116
1500	1.4915e+02	-19.6823	-31.928324	0.000289	2.891886	0.979797	-0.000117
1501	1.4925e+02	-19.7690	-32.044824	0.000290	2.902033	0.983235	-0.000117
1502	1.4935e+02	-19.7690	-32.157658	0.000281	2.810710	0.952294	-0.000113
1503	1.4945e+02	-19.8091	-32.275787	0.000294	2.942621	0.996987	-0.000119
1504	1.4955e+02	-19.8620	-32.391065	0.000287	2.871592	0.972922	-0.000116
1505	1.4965e+02	-19.9101	-32.504306	0.000282	2.820857	0.955732	-0.000114
1506	1.4975e+02	-19.9198	-32.622843	0.000295	2.952768	1.000425	-0.000119
1507	1.4985e+02	-19.9871	-32.743824	0.000301	3.013649	1.021052	-0.000122
1508	1.4995e+02	-19.9294	-32.786187	-0.000106	-1.055285	-0.357540	-0.000043
1509	1.5005e+02	-19.8941	-32.807776	-0.000054	-0.537789	-0.182208	-0.000022
1510	1.5015e+02	-19.8556	-32.827329	-0.000049	-0.487054	-0.165019	-0.000020
1511	1.5025e+02	-19.8219	-32.839142	-0.000029	-0.294262	-0.099699	-0.000012
1512	1.5034e+02	-19.7738	-32.846881	-0.000019	-0.192792	-0.065320	-0.000008
1513	1.5044e+02	-19.7096	-32.852584	-0.000014	-0.142058	-0.048130	-0.000006
1514	1.5054e+02	-19.6871	-32.851769	0.000002	0.020294	0.006876	0.000001
1515	1.5064e+02	-19.6631	-32.848103	0.000009	0.091323	0.030941	0.000004
1516	1.5074e+02	-19.6021	-32.840364	0.000019	0.192792	0.065320	0.000008
1517	1.5084e+02	-19.5797	-32.834254	0.000015	0.152205	0.051568	0.000006
1518	1.5094e+02	-19.5219	-32.817553	0.000042	0.416026	0.140953	0.000017
1519	1.5104e+02	-19.4834	-32.804518	0.000032	0.324703	0.110012	0.000013
1520	1.5114e+02	-19.4417	-32.791890	0.000031	0.314556	0.106574	0.000013
1521	1.5124e+02	-19.4208	-32.776818	0.000038	0.375438	0.127202	0.000015
1522	1.5134e+02	-19.3823	-32.754822	0.000055	0.547936	0.185646	0.000022
1523	1.5144e+02	-19.3406	-32.736491	0.000046	0.456614	0.154705	0.000018
1524	1.5154e+02	-19.3069	-32.718568	0.000045	0.446467	0.151267	0.000018
1525	1.5164e+02	-19.2428	-32.694535	0.000060	0.598671	0.202835	0.000024
1526	1.5174e+02	-19.2235	-32.671317	0.000058	0.578377	0.195959	0.000023
1527	1.5184e+02	-19.1754	-32.648913	0.000056	0.558083	0.189084	0.000023
1528	1.5194e+02	-19.1353	-32.623658	0.000063	0.629112	0.213149	0.000025
1529	1.5204e+02	-19.0775	-32.590256	0.000083	0.832051	0.281907	0.000034
1530	1.5214e+02	-19.0647	-32.568259	0.000055	0.547936	0.185646	0.000022
1531	1.5224e+02	-19.0150	-32.534450	0.000084	0.842198	0.285345	0.000034
1532	1.5233e+02	-18.9765	-32.511638	0.000057	0.568230	0.192522	0.000023
1533	1.5243e+02	-18.9299	-32.480273	0.000078	0.781317	0.264717	0.000032
1534	1.5253e+02	-18.8979	-32.444427	0.000089	0.892933	0.302534	0.000036
1535	1.5263e+02	-18.8578	-32.420801	0.000059	0.588524	0.199397	0.000024
1536	1.5273e+02	-18.8369	-32.389028	0.000079	0.791463	0.268155	0.000032
1537	1.5283e+02	-18.7551	-32.357256	0.000079	0.791463	0.268155	0.000032
1538	1.5293e+02	-18.7358	-32.323853	0.000083	0.832051	0.281907	0.000034
1539	1.5303e+02	-18.7005	-32.290451	0.000083	0.832051	0.281907	0.000034
1540	1.5313e+02	-18.6717	-32.261937	0.000071	0.710288	0.240652	0.000029
1541	1.5323e+02	-18.6219	-32.228943	0.000082	0.821904	0.278469	0.000033
1542	1.5333e+02	-18.5722	-32.200429	0.000071	0.710288	0.240652	0.000029
1543	1.5343e+02	-18.5546	-32.159694	0.000101	1.014697	0.343789	0.000041
1544	1.5353e+02	-18.5016	-32.129958	0.000074	0.740729	0.250966	0.000030
1545	1.5363e+02	-18.4535	-32.092076	0.000094	0.943668	0.319723	0.000038
1546	1.5373e+02	-18.4342	-32.057859	0.000085	0.852345	0.288782	0.000034
1547	1.5383e+02	-18.3637	-32.025271	0.000081	0.811757	0.275031	0.000033
1548	1.5393e+02	-18.3540	-31.987389	0.000094	0.943668	0.319723	0.000038
1549	1.5403e+02	-18.3123	-31.953986	0.000083	0.832051	0.281907	0.000034
1550	1.5413e+02	-18.2738	-31.922214	0.000079	0.791463	0.268155	0.000032
1551	1.5422e+02	-18.2337	-31.881887	0.000100	1.004550	0.340351	0.000041
1552	1.5432e+02	-18.1744	-31.851336	0.000076	0.761023	0.257841	0.000031
1553	1.5442e+02	-18.1407	-31.815083	0.000090	0.903080	0.305972	0.000036
1554	1.5452e+02	-18.1070	-31.771497	0.000109	1.085726	0.367854	0.000044
1555	1.5462e+02	-18.0733	-31.735651	0.000089	0.892933	0.302534	0.000036
1556	1.5472e+02	-18.0107	-31.698990	0.000091	0.913227	0.309410	0.000037
1557	1.5482e+02	-17.9594	-31.659885	0.000097	0.974109	0.330037	0.000039
1558	1.5492e+02	-17.9546	-31.621188	0.000096	0.963962	0.326599	0.000039
1559	1.5502e+02	-17.8856	-31.586156	0.000087	0.872639	0.295658	0.000035
1560	1.5512e+02	-17.8535	-31.542570	0.000109	1.085726	0.367854	0.000044
1561	1.5522e+02	-17.8166	-31.503058	0.000098	0.984256	0.333475	0.000040
1562	1.5532e+02	-17.7829	-31.459065	0.000110	1.095873	0.371292	0.000044
1563	1.5542e+02	-17.7444	-31.415072	0.000110	1.095873	0.371292	0.000044
1564	1.5552e+02	-17.6835	-31.373523	0.000103	1.034991	0.350664	0.000042
1565	1.5562e+02	-17.6514	-31.342565	0.000077	0.771170	0.261279	0.000031
1566	1.5572e+02	-17.6129	-31.297350	0.000113	1.126313	0.381605	0.000045
1567	1.5582e+02	-17.5968	-31.258653	0.000096	0.963962	0.326599	0.000039
1568	1.5592e+02	-17.5327	-31.214252	0.000111	1.106019	0.374730	0.000045
1569	1.5602e+02	-17.5230	-31.175147	0.000097	0.974109	0.330037	0.000039
1570	1.5612e+02	-17.4653	-31.132377	0.000107	1.065432	0.360978	0.000043
1571	1.5622e+02	-17.4412	-31.094086	0.000095	0.953815	0.323161	0.000038
1572	1.5631e+02	-17.3899	-31.054574	0.000098	0.984256	0.333475	0.000040
1573	1.5641e+02	-17.3257	-31.012210	0.000106	1.055285	0.357540	0.000043
1574	1.5651e+02	-17.3129	-30.968217	0.000110	1.095873	0.371292	0.000044
1575	1.5661e+02	-17.2824	-30.930335	0.000094	0.943668	0.319723	0.000038
1576	1.5671e+02	-17.2423	-30.885934	0.000111	1.106019	0.374730	0.000045
1577	1.5681e+02	-17.1958	-30.838683	0.000118	1.177048	0.398795	0.000047
1578	1.5691e+02	-17.1460	-30.801207	0.000093	0.933521	0.316285	0.000038
1579	1.5701e+02	-17.1204	-30.760065	0.000102	1.024844	0.347226	0.000041
1580	1.5711e+02	-17.0706	-30.720146	0.000099	0.994403	0.336913	0.000040
1581	1.5721e+02	-17.0305	-30.678597	0.000103	1.034991	0.350664	0.000042
1582	1.5731e+02	-17.0033	-30.640307	0.000095	0.953815	0.323161	0.000038
1583	1.5741e+02	-16.9455	-30.597943	0.000106	1.055285	0.357540	0.000043
1584	1.5751e+02	-16.9054	-30.560875	0.000092	0.923374	0.312848	0.000037
1585	1.5761e+02	-16.8589	-30.514438	0.000116	1.156754	0.391919	0.000047
1586	1.5771e+02	-16.8236	-30.476148	0.000095	0.953815	0.323161	0.000038
1587	1.5781e+02	-16.7867	-30.436635	0.000098	0.984256	0.333475	0.000040
1588	1.5791e+02	-16.7450	-30.392235	0.000111	1.106019	0.374730	0.000045
1589	1.5801e+02	-16.7193	-30.348242	0.000110	1.095873	0.371292	0.000044
1590	1.5811e+02	-16.6439	-30.310767	0.000093	0.933521	0.316285	0.000038
1591	1.5821e+02	-16.6038	-30.266366	0.000111	1.106019	0.374730	0.000045
1592	1.5830e+02	-16.5653	-30.225225	0.000102	1.024844	0.347226	0.000041
1593	1.5840e+02	-16.5332	-30.185305	0.000099	0.994403	0.336913	0.000040
1594	1.5850e+02	-16.4979	-30.141719	0.000109	1.085726	0.367854	0.000044
1595	1.5860e+02	-16.4739	-30.099356	0.000106	1.055285	0.357540	0.000043
1596	1.5870e+02	-16.4322	-30.061066	0.000095	0.953815	0.323161	0.000038
1597	1.5880e+02	-16.3728	-30.021961	0.000097	0.974109	0.330037	0.000039
1598	1.5890e+02	-16.3439	-29.977560	0.000111	1.106019	0.374730	0.000045
1599	1.5900e+02	-16.3054	-29.937641	0.000099	0.994403	0.336913	0.000040
1600	1.5910e+02	-16.2846	-29.897721	0.000099	0.994403	0.336913	0.000040
1601	1.5920e+02	-16.1947	-29.857394	0.000100	1.004550	0.340351	0.000041
1602	1.5930e+02	-16.1867	-29.815438	0.000105	1.045138	0.354102	0.000042
1603	1.5940e+02	-16.1290	-29.774296	0.000102	1.024844	0.347226	0.000041
1604	1.5950e+02	-16.1129	-29.736006	0.000095	0.953815	0.323161	0.000038
1605	1.5960e+02	-16.0616	-29.693643	0.000106	1.055285	0.357540	0.000043
1606	1.5970e+02	-16.0199	-29.653723	0.000099	0.994403	0.336913	0.000040
1607	1.5980e+02	-15.9862	-29.615840	0.000094	0.943668	0.319723	0.000038
1608	1.5990e+02	-15.9750	-29.565330	0.000126	1.258224	0.426298	0.000051
1609	1.6000e+02	-15.9124	-29.527854	0.000093	0.933521	0.316285	0.000038
1610	1.6010e+02	-15.8627	-29.485491	0.000106	1.055285	0.357540	0.000043
1611	1.6019e+02	-15.8290	-29.450459	0.000087	0.872639	0.295658	0.000035
1612	1.6029e+02	-15.7873	-29.404837	0.000114	1.136460	0.385043	0.000046
1613	1.6039e+02	-15.7648	-29.362880	0.000105	1.045138	0.354102	0.000042
1614	1.6049e+02	-15.7119	-29.328256	0.000086	0.862492	0.292220	0.000035
1615	1.6059e+02	-15.6718	-29.281412	0.000117	1.166901	0.395357	0.000047
1616	1.6069e+02	-15.6349	-29.243122	0.000095	0.953815	0.323161	0.000038
1617	1.6079e+02	-15.5851	-29.204017	0.000097	0.974109	0.330037	0.000039
1618	1.6089e+02	-15.5354	-29.158802	0.000113	1.126313	0.381605	0.000045
1619	1.6099e+02	-15.5129	-29.115624	0.000108	1.075579	0.364416	0.000043
1620	1.6109e+02	-15.4680	-29.066335	0.000123	1.227783	0.415984	0.000050
1621	1.6119e+02	-15.4103	-29.022342	0.000110	1.095873	0.371292	0.000044
1622	1.6129e+02	-15.4119	-28.981201	-0.000102	-1.024844	-0.347226	0.000041
1623	1.6139e+02	-15.3140	-28.939244	0.000105	1.045138	0.354102	0.000042
1624	1.6149e+02	-15.3156	-28.894844	-0.000111	-1.106019	-0.374730	0.000045
1625	1.6159e+02	-15.2803	-28.845555	0.000123	1.227783	0.415984	0.000050
1626	1.6169e+02	-15.2258	-28.801155	0.000111	1.106019	0.374730	0.000045
1627	1.6179e+02	-15.1905	-28.756755	0.000111	1.106019	0.374730	0.000045
1628	1.6189e+02	-15.1616	-28.715206	0.000103	1.034991	0.350664	0.000042
1629	1.6199e+02	-15.1199	-28.671213	0.000110	1.095873	0.371292	0.000044
1630	1.6209e+02	-15.0782	-28.623146	0.000120	1.197342	0.405671	0.000048
1631	1.6219e+02	-15.0349	-28.579153	0.000110	1.095873	0.371292	0.000044
1632	1.6228e+02	-14.9835	-28.538012	0.000102	1.024844	0.347226	0.000041
1633	1.6238e+02	-14.9531	-28.494019	0.000110	1.095873	0.371292	0.000044
1634	1.6248e+02	-14.9065	-28.448804	0.000113	1.126313	0.381605	0.000045
1635	1.6258e+02	-14.8696	-28.400330	0.000121	1.207489	0.409108	0.000049
1636	1.6268e+02	-14.8343	-28.357966	0.000106	1.055285	0.357540	0.000043
1637	1.6278e+02	-14.7974	-28.306234	0.000129	1.288665	0.436611	0.000052
1638	1.6288e+02	-14.7509	-28.262648	0.000109	1.085726	0.367854	0.000044
1639	1.6298e+02	-14.6803	-28.214174	0.000121	1.207489	0.409108	0.000049
1640	1.6308e+02	-14.6515	-28.174255	0.000099	0.994403	0.336913	0.000040
1641	1.6318e+02	-14.6114	-28.125374	0.000122	1.217636	0.412546	0.000049
1642	1.6328e+02	-14.5937	-28.079751	0.000114	1.136460	0.385043	0.000046
1643	1.6338e+02	-14.5552	-28.037388	0.000106	1.055285	0.357540	0.000043
1644	1.6348e+02	-14.5167	-27.993395	0.000110	1.095873	0.371292	0.000044
1645	1.6358e+02	-14.4686	-27.948994	0.000111	1.106019	0.374730	0.000045
1646	1.6368e+02	-14.4541	-27.902557	0.000116	1.156754	0.391919	0.000047
1647	1.6378e+02	-14.3980	-27.853676	0.000122	1.217636	0.412546	0.000049
1648	1.6388e+02	-14.3611	-27.813349	0.000100	1.004550	0.340351	0.000041
1649	1.6398e+02	-14.2761	-27.769356	0.000110	1.095873	0.371292	0.000044
1650	1.6408e+02	-14.2793	-27.724549	-0.000112	-1.116166	-0.378167	0.000045
1651	1.6418e+02	-14.2472	-27.682185	0.000106	1.055285	0.357540	0.000043
1652	1.6427e+02	-14.2007	-27.628823	0.000133	1.329253	0.450363	0.000054
1653	1.6437e+02	-14.1638	-27.586460	0.000106	1.055285	0.357540	0.000043
1654	1.6447e+02	-14.1429	-27.538393	0.000120	1.197342	0.405671	0.000048
1655	1.6457e+02	-14.0723	-27.489512	0.000122	1.217636	0.412546	0.000049
1656	1.6467e+02	-14.0451	-27.443075	0.000116	1.156754	0.391919	0.000047
1657	1.6477e+02	-13.9969	-27.402748	0.000100	1.004550	0.340351	0.000041
1658	1.6487e+02	-13.9648	-27.356718	0.000115	1.146607	0.388481	0.000046
1659	1.6497e+02	-13.9023	-27.306615	0.000125	1.248077	0.422860	0.000050
1660	1.6507e+02	-13.8702	-27.261400	0.000113	1.126313	0.381605	0.000045
1661	1.6517e+02	-13.8493	-27.217000	0.000111	1.106019	0.374730	0.000045
1662	1.6527e+02	-13.8044	-27.170156	0.000117	1.166901	0.395357	0.000047
1663	1.6537e+02	-13.7354	-27.123718	0.000116	1.156754	0.391919	0.000047
1664	1.6547e+02	-13.7226	-27.068727	0.000137	1.369841	0.464115	0.000055
1665	1.6557e+02	-13.6937	-27.020253	0.000121	1.207489	0.409108	0.000049
1666	1.6567e+02	-13.6456	-26.975038	0.000113	1.126313	0.381605	0.000045
1667	1.6577e+02	-13.6071	-26.924528	0.000126	1.258224	0.426298	0.000051
1668	1.6587e+02	-13.5622	-26.876869	0.000119	1.187195	0.402233	0.000048
1669	1.6597e+02	-13.5221	-26.826766	0.000125	1.248077	0.422860	0.000050
1670	1.6607e+02	-13.4884	-26.779514	0.000118	1.177048	0.398795	0.000047
1671	1.6616e+02	-13.4371	-26.725337	0.000135	1.349547	0.457239	0.000054
1672	1.6626e+02	-13.3921	-26.676456	0.000122	1.217636	0.412546	0.000049
1673	1.6636e+02	-13.3488	-26.628797	0.000119	1.187195	0.402233	0.000048
1674	1.6646e+02	-13.3328	-26.579101	0.000124	1.237930	0.419422	0.000050
1675	1.6656e+02	-13.2911	-26.531850	0.000118	1.177048	0.398795	0.000047
1676	1.6666e+02	-13.2205	-26.479710	0.000130	1.298812	0.440049	0.000052
1677	1.6676e+02	-13.1900	-26.431236	0.000121	1.207489	0.409108	0.000049
1678	1.6686e+02	-13.1595	-26.385206	0.000115	1.146607	0.388481	0.000046
1679	1.6696e+02	-13.1194	-26.333474	0.000129	1.288665	0.436611	0.000052
1680	1.6706e+02	-13.0905	-26.282556	0.000127	1.268371	0.429736	0.000051
1681	1.6716e+02	-13.0167	-26.228380	0.000135	1.349547	0.457239	0.000054
1682	1.6726e+02	-13.0103	-26.177462	0.000127	1.268371	0.429736	0.000051
1683	1.6736e+02	-12.9462	-26.126951	0.000126	1.258224	0.426298	0.000051
1684	1.6746e+02	-12.8996	-26.075219	0.000129	1.288665	0.436611	0.000052
1685	1.6756e+02	-12.8948	-26.018191	0.000142	1.420575	0.481304	0.000057
1686	1.6766e+02	-12.8050	-25.966051	0.000130	1.298812	0.440049	0.000052
1687	1.6776e+02	-12.8098	-25.915133	-0.000127	-1.268371	-0.429736	0.000051
1688	1.6786e+02	-12.7617	-25.867881	0.000118	1.177048	0.398795	0.000047
1689	1.6796e+02	-12.7344	-25.813297	0.000136	1.359694	0.460677	0.000055
1690	1.6806e+02	-12.6815	-25.760343	0.000132	1.319106	0.446925	0.000053
1691	1.6816e+02	-12.6317	-25.702500	0.000144	1.440869	0.488180	0.000058
1692	1.6825e+02	-12.6012	-25.656878	0.000114	1.136460	0.385043	0.000046
1693	1.6835e+02	-12.5627	-25.603516	0.000133	1.329253	0.450363	0.000054
1694	1.6845e+02	-12.5210	-25.550562	0.000132	1.319106	0.446925	0.000053
1695	1.6855e+02	-12.4793	-25.493534	0.000142	1.420575	0.481304	0.000057
1696	1.6865e+02	-12.4472	-25.439357	0.000135	1.349547	0.457239	0.000054
1697	1.6875e+02	-12.4039	-25.388847	0.000126	1.258224	0.426298	0.000051
1698	1.6885e+02	-12.3638	-25.332226	0.000141	1.410429	0.477866	0.000057
1699	1.6895e+02	-12.3157	-25.276827	0.000138	1.379988	0.467552	0.000056
1700	1.6905e+02	-12.2916	-25.226317	0.000126	1.258224	0.426298	0.000051
1701	1.6915e+02	-12.2259	-25.172140	0.000135	1.349547	0.457239	0.000054
1702	1.6925e+02	-12.2002	-25.122445	0.000124	1.237930	0.419422	0.000050
1703	1.6935e+02	-12.1681	-25.070712	0.000129	1.288665	0.436611	0.000052
1704	1.6945e+02	-12.1200	-25.013684	0.000142	1.420575	0.481304	0.000057
1705	1.6955e+02	-12.0911	-24.967654	0.000115	1.146607	0.388481	0.000046
1706	1.6965e+02	-12.0494	-24.914292	0.000133	1.329253	0.450363	0.000054
1707	1.6975e+02	-12.0334	-24.867448	0.000117	1.166901	0.395357	0.000047
1708	1.6985e+02	-11.9547	-24.810013	0.000143	1.430722	0.484742	0.000058
1709	1.6995e+02	-11.9355	-24.761539	0.000121	1.207489	0.409108	0.000049
1710	1.7005e+02	-11.8890	-24.708177	0.000133	1.329253	0.450363	0.000054
1711	1.7015e+02	-11.8617	-24.656445	0.000129	1.288665	0.436611	0.000052
1712	1.7024e+02	-11.8216	-24.598195	0.000145	1.451016	0.491618	0.000059
1713	1.7034e+02	-11.7542	-24.546055	0.000130	1.298812	0.440049	0.000052
1714	1.7044e+02	-11.7157	-24.491878	0.000135	1.349547	0.457239	0.000054
1715	1.7054e+02	-11.6724	-24.445441	0.000116	1.156754	0.391919	0.000047
1716	1.7064e+02	-11.6451	-24.390450	0.000137	1.369841	0.464115	0.000055
1717	1.7074e+02	-11.5794	-24.337903	0.000131	1.308959	0.443487	0.000053
1718	1.7084e+02	-11.5713	-24.285356	0.000131	1.308959	0.443487	0.000053
1719	1.7094e+02	-11.5328	-24.235660	0.000124	1.237930	0.419422	0.000050
1720	1.7104e+02	-11.4767	-24.181483	0.000135	1.349547	0.457239	0.000054
1721	1.7114e+02	-11.4494	-24.127714	0.000134	1.339400	0.453801	0.000054
1722	1.7124e+02	-11.4205	-24.073945	0.000134	1.339400	0.453801	0.000054
1723	1.7134e+02	-11.3724	-24.024249	0.000124	1.237930	0.419422	0.000050
1724	1.7144e+02	-11.3403	-23.967221	0.000142	1.420575	0.481304	0.000057
1725	1.7154e+02	-11.2906	-23.914267	0.000132	1.319106	0.446925	0.000053
1726	1.7164e+02	-11.2489	-23.863349	0.000127	1.268371	0.429736	0.000051
1727	1.7174e+02	-11.1911	-23.806321	0.000142	1.420575	0.481304	0.000057
1728	1.7184e+02	-11.1975	-23.752144	-0.000135	-1.349547	-0.457239	0.000054
1729	1.7194e+02	-11.1205	-23.699597	0.000131	1.308959	0.443487	0.000053
1730	1.7204e+02	-11.0788	-23.642569	0.000142	1.420575	0.481304	0.000057
1731	1.7213e+02	-11.0419	-23.584726	0.000144	1.440869	0.488180	0.000058
1732	1.7223e+02	-11.0179	-23.528106	0.000141	1.410429	0.477866	0.000057
1733	1.7233e+02	-10.9794	-23.472300	0.000139	1.390135	0.470990	0.000056
1734	1.7243e+02	-10.9457	-23.422197	0.000125	1.248077	0.422860	0.000050
1735	1.7253e+02	-10.8863	-23.370057	0.000130	1.298812	0.440049	0.000052
1736	1.7263e+02	-10.8783	-23.313436	0.000141	1.410429	0.477866	0.000057
1737	1.7273e+02	-10.8173	-23.259667	0.000134	1.339400	0.453801	0.000054
1738	1.7283e+02	-10.7740	-23.203046	0.000141	1.410429	0.477866	0.000057
1739	1.7293e+02	-10.7163	-23.149685	0.000133	1.329253	0.450363	0.000054
1740	1.7303e+02	-10.6874	-23.094693	0.000137	1.369841	0.464115	0.000055
1741	1.7313e+02	-10.6553	-23.036036	0.000146	1.461163	0.495056	0.000059
1742	1.7323e+02	-10.6168	-22.986340	0.000124	1.237930	0.419422	0.000050
1743	1.7333e+02	-10.5767	-22.929720	0.000141	1.410429	0.477866	0.000057
1744	1.7343e+02	-10.5462	-22.874728	0.000137	1.369841	0.464115	0.000055
1745	1.7353e+02	-10.4788	-22.820552	0.000135	1.349547	0.457239	0.000054
1746	1.7363e+02	-10.4323	-22.767190	0.000133	1.329253	0.450363	0.000054
1747	1.7373e+02	-10.3986	-22.711384	0.000139	1.390135	0.470990	0.000056
1748	1.7383e+02	-10.3666	-22.651505	0.000149	1.491604	0.505369	0.000060
1749	1.7393e+02	-10.3329	-22.602216	0.000123	1.227783	0.415984	0.000050
1750	1.7403e+02	-10.3008	-22.544781	0.000143	1.430722	0.484742	0.000058
1751	1.7413e+02	-10.2430	-22.493863	0.000127	1.268371	0.429736	0.000051
1752	1.7422e+02	-10.2382	-22.441723	0.000130	1.298812	0.440049	0.000052
1753	1.7432e+02	-10.1564	-22.387954	0.000134	1.339400	0.453801	0.000054
1754	1.7442e+02	-10.1516	-22.334592	0.000133	1.329253	0.450363	0.000054
1755	1.7452e+02	-10.0730	-22.282452	0.000130	1.298812	0.440049	0.000052
1756	1.7462e+02	-10.0569	-22.229090	0.000133	1.329253	0.450363	0.000054
1757	1.7472e+02	-10.0473	-22.172062	0.000142	1.420575	0.481304	0.000057
1758	1.7482e+02	-9.9767	-22.111368	0.000151	1.511898	0.512245	0.000061
1759	1.7492e+02	-9.9382	-22.063302	0.000120	1.197342	0.405671	0.000048
1760	1.7502e+02	-9.9045	-22.007089	0.000140	1.400282	0.474428	0.000056
1761	1.7512e+02	-9.8484	-21.952912	0.000135	1.349547	0.457239	0.000054
1762	1.7522e+02	-9.8211	-21.895069	0.000144	1.440869	0.488180	0.000058
1763	1.7532e+02	-9.7778	-21.848225	0.000117	1.166901	0.395357	0.000047
1764	1.7542e+02	-9.7249	-21.788346	0.000149	1.491604	0.505369	0.000060
1765	1.7552e+02	-9.6928	-21.740687	0.000119	1.187195	0.402233	0.000048
1766	1.7562e+02	-9.6318	-21.682437	0.000145	1.451016	0.491618	0.000059
1767	1.7572e+02	-9.6222	-21.630704	0.000129	1.288665	0.436611	0.000052
1768	1.7582e+02	-9.5853	-21.579379	0.000128	1.278518	0.433174	0.000052
1769	1.7592e+02	-9.5516	-21.529276	0.000125	1.248077	0.422860	0.000050
1770	1.7602e+02	-9.4890	-21.473877	0.000138	1.379988	0.467552	0.000056
1771	1.7612e+02	-9.4570	-21.424181	0.000124	1.237930	0.419422	0.000050
1772	1.7621e+02	-9.4168	-21.370820	0.000133	1.329253	0.450363	0.000054
1773	1.7631e+02	-9.3767	-21.316643	0.000135	1.349547	0.457239	0.000054
1774	1.7641e+02	-9.3479	-21.260430	0.000140	1.400282	0.474428	0.000056
1775	1.7651e+02	-9.2853	-21.206253	0.000135	1.349547	0.457239	0.000054
1776	1.7661e+02	-9.2677	-21.153299	0.000132	1.319106	0.446925	0.000053
1777	1.7671e+02	-9.2243	-21.101974	0.000128	1.278518	0.433174	0.000052
1778	1.7681e+02	-9.1762	-21.046575	0.000138	1.379988	0.467552	0.000056
1779	1.7691e+02	-9.1441	-20.995657	0.000127	1.268371	0.429736	0.000051
1780	1.7701e+02	-9.0928	-20.945554	0.000125	1.248077	0.422860	0.000050
1781	1.7711e+02	-9.0848	-20.891785	0.000134	1.339400	0.453801	0.000054
1782	1.7721e+02	-9.0174	-20.840460	0.000128	1.278518	0.433174	0.000052
1783	1.7731e+02	-8.9709	-20.778951	0.000153	1.532192	0.519121	0.000062
1784	1.7741e+02	-8.9211	-20.723145	0.000139	1.390135	0.470990	0.000056
1785	1.7751e+02	-8.8794	-20.675079	0.000120	1.197342	0.405671	0.000048
1786	1.7761e+02	-8.8730	-20.617236	0.000144	1.440869	0.488180	0.000058
1787	1.7771e+02	-8.8201	-20.562245	0.000137	1.369841	0.464115	0.000055
1788	1.7781e+02	-8.7832	-20.505624	0.000141	1.410429	0.477866	0.000057
1789	1.7791e+02	-8.7623	-20.448596	0.000142	1.420575	0.481304	0.000057
1790	1.7801e+02	-8.7046	-20.395642	0.000132	1.319106	0.446925	0.000053
1791	1.7810e+02	-8.6532	-20.334948	0.000151	1.511898	0.512245	0.000061
1792	1.7820e+02	-8.6179	-20.280771	0.000135	1.349547	0.457239	0.000054
1793	1.7830e+02	-8.5714	-20.222928	0.000144	1.440869	0.488180	0.000058
1794	1.7840e+02	-8.5265	-20.169566	0.000133	1.329253	0.450363	0.000054
1795	1.7850e+02	-8.4655	-20.114168	0.000138	1.379988	0.467552	0.000056
1796	1.7860e+02	-8.4591	-20.054288	0.000149	1.491604	0.505369	0.000060
1797	1.7870e+02	-8.4062	-19.996039	0.000145	1.451016	0.491618	0.000059
1798	1.7880e+02	-8.3693	-19.947565	0.000121	1.207489	0.409108	0.000049
1799	1.7890e+02	-8.3436	-19.886056	0.000153	1.532192	0.519121	0.000062
1800	1.7900e+02	-8.3308	-19.831879	0.000135	1.349547	0.457239	0.000054
1801	1.7910e+02	-8.2682	-19.770778	0.000152	1.522045	0.515683	0.000061
1802	1.7920e+02	-8.2281	-19.716602	0.000135	1.349547	0.457239	0.000054
1803	1.7930e+02	-8.1960	-19.657944	0.000146	1.461163	0.495056	0.000059
1804	1.7940e+02	-8.1495	-19.599287	0.000146	1.461163	0.495056	0.000059
1805	1.7950e+02	-8.1174	-19.538593	0.000151	1.511898	0.512245	0.000061
1806	1.7960e+02	-8.0725	-19.482787	0.000139	1.390135	0.470990	0.000056
1807	1.7970e+02	-8.0051	-19.427388	0.000138	1.379988	0.467552	0.000056
1808	1.7980e+02	-7.9778	-19.368324	0.000147	1.471310	0.498493	0.000059
1809	1.7990e+02	-7.9442	-19.308444	0.000149	1.491604	0.505369	0.000060
1810	1.8000e+02	-7.8896	-19.251416	0.000142	1.420575	0.481304	0.000057
1811	1.8009e+02	-7.8704	-19.200091	0.000128	1.278518	0.433174	0.000052
1812	1.8019e+02	-7.8206	-19.138175	0.000154	1.542339	0.522559	0.000062
1813	1.8029e+02	-7.7789	-19.084406	0.000134	1.339400	0.453801	0.000054
1814	1.8039e+02	-7.7308	-19.025341	0.000147	1.471310	0.498493	0.000059
1815	1.8049e+02	-7.7115	-18.973609	0.000129	1.288665	0.436611	0.000052
1816	1.8059e+02	-7.6714	-18.916988	0.000141	1.410429	0.477866	0.000057
1817	1.8069e+02	-7.6410	-18.855479	0.000153	1.532192	0.519121	0.000062
1818	1.8079e+02	-7.5928	-18.799673	0.000139	1.390135	0.470990	0.000056
1819	1.8089e+02	-7.5415	-18.738165	0.000153	1.532192	0.519121	0.000062
1820	1.8099e+02	-7.5110	-18.681137	0.000142	1.420575	0.481304	0.000057
1821	1.8109e+02	-7.4549	-18.626146	0.000137	1.369841	0.464115	0.000055
1822	1.8119e+02	-7.4260	-18.568303	0.000144	1.440869	0.488180	0.000058
1823	1.8129e+02	-7.3779	-18.509646	0.000146	1.461163	0.495056	0.000059
1824	1.8139e+02	-7.3121	-18.448951	0.000151	1.511898	0.512245	0.000061
1825	1.8149e+02	-7.3121	-18.394368	-0.000136	-1.359694	-0.460677	0.000055
1826	1.8159e+02	-7.2784	-18.336118	0.000145	1.451016	0.491618	0.000059
1827	1.8169e+02	-7.2223	-18.276238	0.000149	1.491604	0.505369	0.000060
1828	1.8179e+02	-7.1677	-18.218396	0.000144	1.440869	0.488180	0.000058
1829	1.8189e+02	-7.1436	-18.158516	0.000149	1.491604	0.505369	0.000060
1830	1.8199e+02	-7.1035	-18.097415	0.000152	1.522045	0.515683	0.000061
1831	1.8209e+02	-7.0779	-18.039980	0.000143	1.430722	0.484742	0.000058
1832	1.8218e+02	-6.9961	-17.975619	0.000160	1.603221	0.543186	0.000065
1833	1.8228e+02	-6.9720	-17.917369	0.000145	1.451016	0.491618	0.000059
1834	1.8238e+02	-6.9367	-17.853009	0.000160	1.603221	0.543186	0.000065
1835	1.8248e+02	-6.9191	-17.793945	0.000147	1.471310	0.498493	0.000059
1836	1.8258e+02	-6.8661	-17.735695	0.000145	1.451016	0.491618	0.000059
1837	1.8268e+02	-6.8324	-17.667261	0.000170	1.704691	0.577565	0.000069
1838	1.8278e+02	-6.7779	-17.609419	0.000144	1.440869	0.488180	0.000058
1839	1.8288e+02	-6.7394	-17.548317	0.000152	1.522045	0.515683	0.000061
1840	1.8298e+02	-6.7298	-17.484364	0.000159	1.593074	0.539748	0.000064
1841	1.8308e+02	-6.6624	-17.425707	0.000146	1.461163	0.495056	0.000059
1842	1.8318e+02	-6.6207	-17.365828	0.000149	1.491604	0.505369	0.000060
1843	1.8328e+02	-6.5774	-17.303912	0.000154	1.542339	0.522559	0.000062
1844	1.8338e+02	-6.5052	-17.238329	0.000163	1.633662	0.553500	0.000066
1845	1.8348e+02	-6.5148	-17.175599	-0.000156	-1.562633	-0.529434	0.000063
1846	1.8358e+02	-6.4779	-17.116127	0.000148	1.481457	0.501931	0.000060
1847	1.8368e+02	-6.4330	-17.052581	0.000158	1.582927	0.536310	0.000064
1848	1.8378e+02	-6.3977	-16.996368	0.000140	1.400282	0.474428	0.000056
1849	1.8388e+02	-6.3528	-16.934045	0.000155	1.552486	0.525997	0.000063
1850	1.8398e+02	-6.3094	-16.869277	0.000161	1.613368	0.546624	0.000065
1851	1.8407e+02	-6.3046	-16.802880	0.000165	1.653956	0.560375	0.000067
1852	1.8417e+02	-6.2324	-16.740149	0.000156	1.562633	0.529434	0.000063
1853	1.8427e+02	-6.1972	-16.670901	0.000172	1.724985	0.584441	0.000070
1854	1.8437e+02	-6.1378	-16.608985	0.000154	1.542339	0.522559	0.000062
1855	1.8447e+02	-6.1041	-16.541366	0.000168	1.684397	0.570689	0.000068
1856	1.8457e+02	-6.0961	-16.479450	0.000154	1.542339	0.522559	0.000062
1857	1.8467e+02	-6.0271	-16.411831	0.000168	1.684397	0.570689	0.000068
1858	1.8477e+02	-5.9758	-16.350730	0.000152	1.522045	0.515683	0.000061
1859	1.8487e+02	-5.9694	-16.283518	0.000167	1.674250	0.567251	0.000068
1860	1.8497e+02	-5.9260	-16.218751	0.000161	1.613368	0.546624	0.000065
1861	1.8507e+02	-5.8667	-16.155613	0.000157	1.572780	0.532872	0.000063
1862	1.8517e+02	-5.8362	-16.087179	0.000170	1.704691	0.577565	0.000069
1863	1.8527e+02	-5.7817	-16.019153	0.000169	1.694544	0.574127	0.000068
1864	1.8537e+02	-5.7704	-15.954793	0.000160	1.603221	0.543186	0.000065
1865	1.8547e+02	-5.6950	-15.889618	0.000162	1.623515	0.550062	0.000066
1866	1.8557e+02	-5.6726	-15.821999	0.000168	1.684397	0.570689	0.000068
1867	1.8567e+02	-5.5988	-15.758047	0.000159	1.593074	0.539748	0.000064
1868	1.8577e+02	-5.5940	-15.690020	0.000169	1.694544	0.574127	0.000068
1869	1.8587e+02	-5.5522	-15.626882	0.000157	1.572780	0.532872	0.000063
1870	1.8597e+02	-5.5234	-15.561707	0.000162	1.623515	0.550062	0.000066
1871	1.8606e+02	-5.4752	-15.496533	0.000162	1.623515	0.550062	0.000066
1872	1.8616e+02	-5.4528	-15.432580	0.000159	1.593074	0.539748	0.000064
1873	1.8626e+02	-5.4047	-15.366998	0.000163	1.633662	0.553500	0.000066
1874	1.8636e+02	-5.3501	-15.305896	0.000152	1.522045	0.515683	0.000061
1875	1.8646e+02	-5.3148	-15.246017	0.000149	1.491604	0.505369	0.000060
1876	1.8656e+02	-5.2876	-15.169844	0.000190	1.897483	0.642885	0.000077
1877	1.8666e+02	-5.2474	-15.107113	0.000156	1.562633	0.529434	0.000063
1878	1.8676e+02	-5.1945	-15.048049	0.000147	1.471310	0.498493	0.000059
1879	1.8686e+02	-5.1704	-14.979208	0.000171	1.714838	0.581003	0.000069
1880	1.8696e+02	-5.1335	-14.916477	0.000156	1.562633	0.529434	0.000063
1881	1.8706e+02	-5.0838	-14.850895	0.000163	1.633662	0.553500	0.000066
1882	1.8716e+02	-5.0293	-14.787757	0.000157	1.572780	0.532872	0.000063
1883	1.8726e+02	-5.0004	-14.721360	0.000165	1.653956	0.560375	0.000067
1884	1.8736e+02	-4.9635	-14.657814	0.000158	1.582927	0.536310	0.000064
1885	1.8746e+02	-4.9266	-14.586529	0.000178	1.775719	0.601630	0.000072
1886	1.8756e+02	-4.8849	-14.528279	0.000145	1.451016	0.491618	0.000059
1887	1.8766e+02	-4.8271	-14.465956	0.000155	1.552486	0.525997	0.000063
1888	1.8776e+02	-4.7870	-14.398337	0.000168	1.684397	0.570689	0.000068
1889	1.8786e+02	-4.7453	-14.327052	0.000178	1.775719	0.601630	0.000072
1890	1.8796e+02	-4.7341	-14.261063	0.000164	1.643809	0.556937	0.000066
1891	1.8806e+02	-4.6940	-14.195481	0.000163	1.633662	0.553500	0.000066
1892	1.8815e+02	-4.6314	-14.131935	0.000158	1.582927	0.536310	0.000064
1893	1.8825e+02	-4.6170	-14.067575	0.000160	1.603221	0.543186	0.000065
1894	1.8835e+02	-4.5753	-13.997512	0.000175	1.745278	0.591316	0.000070
1895	1.8845e+02	-4.5287	-13.931930	0.000163	1.633662	0.553500	0.000066
1896	1.8855e+02	-4.4630	-13.858201	0.000184	1.836601	0.622257	0.000074
1897	1.8865e+02	-4.4485	-13.795470	0.000156	1.562633	0.529434	0.000063
1898	1.8875e+02	-4.3731	-13.720927	0.000186	1.856895	0.629133	0.000075
1899	1.8885e+02	-4.3683	-13.654530	0.000165	1.653956	0.560375	0.000067
1900	1.8895e+02	-4.3202	-13.589355	0.000162	1.623515	0.550062	0.000066
1901	1.8905e+02	-4.2608	-13.517663	0.000179	1.785866	0.605068	0.000072
1902	1.8915e+02	-4.2031	-13.454932	0.000156	1.562633	0.529434	0.000063
1903	1.8925e+02	-4.1935	-13.386498	0.000170	1.704691	0.577565	0.000069
1904	1.8935e+02	-4.1469	-13.324582	0.000154	1.542339	0.522559	0.000062
1905	1.8945e+02	-4.1068	-13.252483	0.000180	1.796013	0.608506	0.000072
1906	1.8955e+02	-4.0683	-13.183642	0.000171	1.714838	0.581003	0.000069
1907	1.8965e+02	-4.0266	-13.117652	0.000164	1.643809	0.556937	0.000066
1908	1.8975e+02	-3.9897	-13.049626	0.000169	1.694544	0.574127	0.000068
1909	1.8985e+02	-3.9560	-12.979970	0.000174	1.735131	0.587878	0.000070
1910	1.8995e+02	-3.9111	-12.911130	0.000171	1.714838	0.581003	0.000069
1911	1.9004e+02	-3.8630	-12.842289	0.000171	1.714838	0.581003	0.000069
1912	1.9014e+02	-3.8437	-12.770596	0.000179	1.785866	0.605068	0.000072
1913	1.9024e+02	-3.8052	-12.704199	0.000165	1.653956	0.560375	0.000067
1914	1.9034e+02	-3.7443	-12.638210	0.000164	1.643809	0.556937	0.000066
1915	1.9044e+02	-3.7010	-12.572221	0.000164	1.643809	0.556937	0.000066
1916	1.9054e+02	-3.6721	-12.502158	0.000175	1.745278	0.591316	0.000070
1917	1.9064e+02	-3.6175	-12.434946	0.000167	1.674250	0.567251	0.000068
1918	1.9074e+02	-3.6079	-12.367327	0.000168	1.684397	0.570689	0.000068
1919	1.9084e+02	-3.5566	-12.303782	0.000158	1.582927	0.536310	0.000064
1920	1.9094e+02	-3.5309	-12.233719	0.000175	1.745278	0.591316	0.000070
1921	1.9104e+02	-3.4812	-12.165693	0.000169	1.694544	0.574127	0.000068
1922	1.9114e+02	-3.4475	-12.106221	0.000148	1.481457	0.501931	0.000060
1923	1.9124e+02	-3.3978	-12.031677	0.000186	1.856895	0.629133	0.000075
1924	1.9134e+02	-3.3448	-11.965280	0.000165	1.653956	0.560375	0.000067
1925	1.9144e+02	-3.3224	-11.898883	0.000165	1.653956	0.560375	0.000067
1926	1.9154e+02	-3.2903	-11.834116	0.000161	1.613368	0.546624	0.000065
1927	1.9164e+02	-3.2293	-11.762016	0.000180	1.796013	0.608506	0.000072
1928	1.9174e+02	-3.1972	-11.693175	0.000171	1.714838	0.581003	0.000069
1929	1.9184e+02	-3.1652	-11.625149	0.000169	1.694544	0.574127	0.000068
1930	1.9194e+02	-3.1315	-11.564862	0.000150	1.501751	0.508807	0.000061
1931	1.9203e+02	-3.0753	-11.493985	0.000177	1.765572	0.598192	0.000071
1932	1.9213e+02	-3.0416	-11.421885	0.000180	1.796013	0.608506	0.000072
1933	1.9223e+02	-3.0111	-11.359562	0.000155	1.552486	0.525997	0.000063
1934	1.9233e+02	-2.9614	-11.289906	0.000174	1.735131	0.587878	0.000070
1935	1.9243e+02	-2.9325	-11.226768	0.000157	1.572780	0.532872	0.000063
1936	1.9253e+02	-2.8732	-11.157520	0.000172	1.724985	0.584441	0.000070
1937	1.9263e+02	-2.8620	-11.088272	0.000172	1.724985	0.584441	0.000070
1938	1.9273e+02	-2.7914	-11.023911	0.000160	1.603221	0.543186	0.000065
1939	1.9283e+02	-2.7882	-10.959551	0.000160	1.603221	0.543186	0.000065
1940	1.9293e+02	-2.7047	-10.889896	0.000174	1.735131	0.587878	0.000070
1941	1.9303e+02	-2.6951	-10.822277	0.000168	1.684397	0.570689	0.000068
1942	1.9313e+02	-2.6470	-10.754251	0.000169	1.694544	0.574127	0.000068
1943	1.9323e+02	-2.6005	-10.687039	0.000167	1.674250	0.567251	0.000068
1944	1.9333e+02	-2.5940	-10.620642	0.000165	1.653956	0.560375	0.000067
1945	1.9343e+02	-2.5299	-10.550172	0.000176	1.755425	0.594754	0.000071
1946	1.9353e+02	-2.4753	-10.486627	0.000158	1.582927	0.536310	0.000064
1947	1.9363e+02	-2.4256	-10.415749	0.000177	1.765572	0.598192	0.000071
1948	1.9373e+02	-2.4272	-10.349760	-0.000164	-1.643809	-0.556937	0.000066
1949	1.9383e+02	-2.3598	-10.282141	0.000168	1.684397	0.570689	0.000068
1950	1.9393e+02	-2.3293	-10.216559	0.000163	1.633662	0.553500	0.000066
1951	1.9403e+02	-2.2716	-10.147718	0.000171	1.714838	0.581003	0.000069
1952	1.9412e+02	-2.2491	-10.079284	0.000170	1.704691	0.577565	0.000069
1953	1.9422e+02	-2.1914	-10.007592	0.000179	1.785866	0.605068	0.000072
1954	1.9432e+02	-2.1689	-9.937122	0.000176	1.755425	0.594754	0.000071
1955	1.9442e+02	-2.1368	-9.869503	0.000168	1.684397	0.570689	0.000068
1956	1.9452e+02	-2.0791	-9.799440	0.000175	1.745278	0.591316	0.000070
1957	1.9462e+02	-2.0663	-9.725303	0.000185	1.846748	0.625695	0.000075
1958	1.9472e+02	-2.0278	-9.658092	0.000167	1.674250	0.567251	0.000068
1959	1.9482e+02	-1.9572	-9.582734	0.000188	1.877189	0.636009	0.000076
1960	1.9492e+02	-1.9507	-9.510227	0.000181	1.806160	0.611944	0.000073
1961	1.9502e+02	-1.9074	-9.443830	0.000165	1.653956	0.560375	0.000067
1962	1.9512e+02	-1.8689	-9.368879	0.000187	1.867042	0.632571	0.000075
1963	1.9522e+02	-1.8160	-9.303297	0.000163	1.633662	0.553500	0.000066
1964	1.9532e+02	-1.7518	-9.225901	0.000193	1.927924	0.653198	0.000078
1965	1.9542e+02	-1.7550	-9.155431	-0.000176	-1.755425	-0.594754	0.000071
1966	1.9552e+02	-1.6764	-9.087812	0.000168	1.684397	0.570689	0.000068
1967	1.9562e+02	-1.6524	-9.016527	0.000178	1.775719	0.601630	0.000072
1968	1.9572e+02	-1.6219	-8.941169	0.000188	1.877189	0.636009	0.000076
1969	1.9582e+02	-1.5770	-8.871921	0.000172	1.724985	0.584441	0.000070
1970	1.9592e+02	-1.5433	-8.793711	0.000195	1.948218	0.660074	0.000079
1971	1.9601e+02	-1.4663	-8.722833	0.000177	1.765572	0.598192	0.000071
1972	1.9611e+02	-1.4599	-8.646660	0.000190	1.897483	0.642885	0.000077
1973	1.9621e+02	-1.4294	-8.574153	0.000181	1.806160	0.611944	0.000073
1974	1.9631e+02	-1.3700	-8.504498	0.000174	1.735131	0.587878	0.000070
1975	1.9641e+02	-1.3155	-8.429954	0.000186	1.856895	0.629133	0.000075
1976	1.9651e+02	-1.2978	-8.356225	0.000184	1.836601	0.622257	0.000074
1977	1.9661e+02	-1.2369	-8.289421	0.000166	1.664103	0.563813	0.000067
1978	1.9671e+02	-1.1823	-8.211618	0.000194	1.938071	0.656636	0.000078
1979	1.9681e+02	-1.1631	-8.145222	0.000165	1.653956	0.560375	0.000067
1980	1.9691e+02	-1.1390	-8.073122	0.000180	1.796013	0.608506	0.000072
1981	1.9701e+02	-1.0684	-7.999800	0.000183	1.826454	0.618819	0.000074
1982	1.9711e+02	-1.0444	-7.923627	0.000190	1.897483	0.642885	0.000077
1983	1.9721e+02	-1.0379	-7.858045	0.000163	1.633662	0.553500	0.000066
1984	1.9731e+02	-0.9834	-7.781872	0.000190	1.897483	0.642885	0.000077
1985	1.9741e+02	-0.9321	-7.708143	0.000184	1.836601	0.622257	0.000074
1986	1.9751e+02	-0.8887	-7.639302	0.000171	1.714838	0.581003	0.000069
1987	1.9761e+02	-0.8502	-7.557426	0.000204	2.039541	0.691015	0.000082
1988	1.9771e+02	-0.8294	-7.486141	0.000178	1.775719	0.601630	0.000072
1989	1.9781e+02	-0.7620	-7.411598	0.000186	1.856895	0.629133	0.000075
1990	1.9791e+02	-0.7428	-7.341535	0.000175	1.745278	0.591316	0.000070
1991	1.9800e+02	-0.6898	-7.266991	0.000186	1.856895	0.629133	0.000075
1992	1.9810e+02	-0.6545	-7.187559	0.000198	1.978659	0.670388	0.000080
1993	1.9820e+02	-0.6032	-7.117089	0.000176	1.755425	0.594754	0.000071
1994	1.9830e+02	-0.5791	-7.043360	0.000184	1.836601	0.622257	0.000074
1995	1.9840e+02	-0.5246	-6.967187	0.000190	1.897483	0.642885	0.000077
1996	1.9850e+02	-0.4909	-6.899568	0.000168	1.684397	0.570689	0.000068
1997	1.9860e+02	-0.4203	-6.816878	0.000206	2.059834	0.697891	0.000083
1998	1.9870e+02	-0.4155	-6.743963	0.000182	1.816307	0.615382	0.000073
1999	1.9880e+02	-0.3738	-6.664124	0.000199	1.988806	0.673826	0.000080
2000	1.9890e+02	-0.3417	-6.586322	0.000194	1.938071	0.656636	0.000078
2001	1.9900e+02	-0.2888	-6.512185	0.000185	1.846748	0.625695	0.000075
2002	1.9910e+02	-0.2406	-6.436420	0.000189	1.887336	0.639447	0.000076
2003	1.9920e+02	-0.2182	-6.357803	0.000196	1.958365	0.663512	0.000079
2004	1.9930e+02	-0.1717	-6.280815	0.000192	1.917777	0.649760	0.000077
2005	1.9940e+02	-0.1267	-6.207900	0.000182	1.816307	0.615382	0.000073
2006	1.9950e+02	-0.0850	-6.126839	0.000202	2.019247	0.684139	0.000081
2007	1.9960e+02	-0.0481	-6.049037	0.000194	1.938071	0.656636	0.000078
2008	1.9970e+02	-0.0241	-5.971642	0.000193	1.927924	0.653198	0.000078
2009	1.9980e+02	0.0545	-5.896283	0.000193	1.927924	0.653198	0.000076

Center data before PMax,+/-Pr and +/-Vc Calc.

PMax (uC/cm2):	3.29e+01
Pr (uC/cm2):	3.30e+00
-Pr (uC/cm2):	-5.90e+00
PLoss (uC/cm2):	-7.37e+00
-Vc:	-1.73e+00
C (Max-Eff) (nF):	1.64e-01
K (Eff):	5.56e+02
Vert. (+/-Pr) Shift (uC/cm2):	-1.30e+00
Offset (uC/cm2):	-1.47e+00

A (Loop Area - uC/cm2·Volts):	1.81e-01



Hysteresis Version: 5.48.1 - Radiant Technologies, Inc., 1999 - 9/12/24

