»»»»»»»»»»»»»»»»»»»»»»»»»»»»»»»»»»»» Hysteresis ««««««««««««««««««««««««««««««««««««
»»»  Executed Version:	5.48.1
»»»  Vision Version:	5.48.4 (R)
»»»  Vision Compiled:	9/18/24
»»»  Driver Version:	5.47.0
»»»  Windows Version:	Windows 8 or 8.1
»»»  Processor Information:	x86 (AMD or Intel) - 32 Processors
»»»  Tester Name:	PMF21124-494 (100V)
»»»  Tester S/N:	PMF21124-494
»»»  Internal Amp Type:	100V RevK 270k
»»»  Internal Amp S/N:	iAB2-596/K     
»»»  Execution Count:	1
»»»»»»»»»»»»»»»»»»»»»»»»»»»»»»»»»»»»»»»»»»««««««««««««««««««««««««««««««««««««««««««

Stored:	6/27/2025 - 11:40:32
Configured:	06/27/25 11:23:28 AM
Executed:	06/27/25 11:40:02 AM

»»»»»»»»»»»»»»»»»»»»»»»»»»»»»»»»»»» Sample Info ««««««««««««««««««««««««««««««««««««
Sample Name:	
Lot Name:	
Wafer Name:	
Die Row/Column:	0/0
Capacitor Number:	0
Sample Area (cm2):	1.00e-04
Sample Thickness (microns):	1.50e-01

Amplifier:	Internal

»»»»»»»»»»»»»»»»»»»»»»»»»»»»»»»»»»» Tester Info «««««««««««««««««««««««««««««««««««
Tester Name:	PMF21124-494 (100V)
Tester Serial Number:	PMF21124-494
Return Signal Amp. Level:	1.79 [Index: 2]

»»»»»»»»»»»»»»»»»»»»»»»»»»»»»»»» Hysteresis Info ««««««««««««««««««««««««««««««««««
Task Name:	Hyst-1276
Volts:	10.00
Field:	666.67 (kV/cm)
DCBias:	0.00
DCField:	0.00 (kV/cm)
Hysteresis Period (ms):	1.00e+00
Preset:	Enabled
Preset Delay (ms):	1.00e+03
Profile:	Standard Monopolar

»»»»»»»»»»»»»»»»»»»»»»»»»»»»»»»»»»»»»» Data «««««««««««««««««««««««««««««««««««««««
Points:	2001

Valid Data

Point	Time (ms)	Drive Voltage	Measured Polarization (uC/cm2)	Capacitance (uF)	Normalized Capacitance (uF/cm2)	Dielectric Constant	Instantaneous Current (mA)
   1	0.0000e+00	-0.0032	-18.382114	0.000684	6.841561	1.158992	0.013684
   2	5.0000e-04	0.0074	-18.313694	0.000684	6.841561	1.158992	0.013684
   3	1.0000e-03	0.0143	-18.276490	0.000372	3.720099	0.630202	0.007441
   4	1.5000e-03	0.0235	-18.233300	0.000432	4.318735	0.731614	0.008638
   5	2.0000e-03	0.0345	-18.182413	0.000509	5.088411	0.862000	0.010177
   6	2.5000e-03	0.0455	-18.144354	0.000381	3.805618	0.644689	0.007612
   7	3.0000e-03	0.0570	-18.096888	0.000475	4.746333	0.804051	0.009493
   8	3.5000e-03	0.0628	-18.038303	0.000586	5.858086	0.992387	0.011717
   9	4.0000e-03	0.0756	-17.993402	0.000449	4.489774	0.760588	0.008980
  10	4.5000e-03	0.0858	-17.950640	0.000428	4.275975	0.724370	0.008553
  11	5.0000e-03	0.0964	-17.896332	0.000543	5.430489	0.919950	0.010862
  12	5.5000e-03	0.1071	-17.865970	0.000304	3.035943	0.514303	0.006072
  13	6.0000e-03	0.1165	-17.814655	0.000513	5.131171	0.869244	0.010263
  14	6.5000e-03	0.1254	-17.769754	0.000449	4.489774	0.760588	0.008980
  15	7.0000e-03	0.1311	-17.705183	0.000646	6.456723	1.093798	0.012914
  16	7.5000e-03	0.1464	-17.676960	0.000282	2.822144	0.478084	0.005645
  17	8.0000e-03	0.1556	-17.606402	0.000706	7.055359	1.195210	0.014112
  18	8.5000e-03	0.1664	-17.560646	0.000458	4.575294	0.775076	0.009151
  19	9.0000e-03	0.1759	-17.517456	0.000432	4.318735	0.731614	0.008638
  20	9.5000e-03	0.1871	-17.460154	0.000573	5.729807	0.970656	0.011460
  21	1.0000e-02	0.1977	-17.428082	0.000321	3.206982	0.543277	0.006414
  22	1.0500e-02	0.2069	-17.388740	0.000393	3.933897	0.666420	0.007868
  23	1.1000e-02	0.2156	-17.325024	0.000637	6.371203	1.079311	0.012743
  24	1.1500e-02	0.2270	-17.293380	0.000316	3.164222	0.536034	0.006329
  25	1.2000e-02	0.2373	-17.232230	0.000611	6.114645	1.035849	0.012230
  26	1.2500e-02	0.2461	-17.184763	0.000475	4.746333	0.804051	0.009493
  27	1.3000e-02	0.2534	-17.163382	0.000214	2.137988	0.362185	0.004276
  28	1.3500e-02	0.2660	-17.107363	0.000560	5.601528	0.948925	0.011204
  29	1.4000e-02	0.2783	-17.057758	0.000496	4.960132	0.840269	0.009921
  30	1.4500e-02	0.2873	-16.992332	0.000654	6.542242	1.108286	0.013085
  31	1.5000e-02	0.2975	-16.941444	0.000509	5.088411	0.862000	0.010177
  32	1.5500e-02	0.3069	-16.899537	0.000419	4.190456	0.709882	0.008381
  33	1.6000e-02	0.3173	-16.859340	0.000402	4.019417	0.680908	0.008039
  34	1.6500e-02	0.3261	-16.795624	0.000637	6.371203	1.079311	0.012743
  35	1.7000e-02	0.3365	-16.765263	0.000304	3.035943	0.514303	0.006072
  36	1.7500e-02	0.3457	-16.725494	0.000398	3.976657	0.673664	0.007954
  37	1.8000e-02	0.3576	-16.660922	0.000646	6.456723	1.093798	0.012914
  38	1.8500e-02	0.3664	-16.639113	0.000218	2.180747	0.369429	0.004362
  39	1.9000e-02	0.3743	-16.571976	0.000671	6.713281	1.137261	0.013427
  40	1.9500e-02	0.3858	-16.533917	0.000381	3.805618	0.644689	0.007612
  41	2.0000e-02	0.3963	-16.472767	0.000611	6.114645	1.035849	0.012230
  42	2.0500e-02	0.4065	-16.430004	0.000428	4.275975	0.724370	0.008553
  43	2.1000e-02	0.4193	-16.376551	0.000534	5.344969	0.905462	0.010691
  44	2.1500e-02	0.4240	-16.342769	0.000338	3.378021	0.572252	0.006756
  45	2.2000e-02	0.4364	-16.277770	0.000650	6.499483	1.101042	0.013000
  46	2.2500e-02	0.4451	-16.241422	0.000363	3.634579	0.615714	0.007270
  47	2.3000e-02	0.4568	-16.202508	0.000389	3.891138	0.659177	0.007783
  48	2.3500e-02	0.4648	-16.135798	0.000667	6.670522	1.130017	0.013342
  49	2.4000e-02	0.4751	-16.093463	0.000423	4.233216	0.717126	0.008467
  50	2.4500e-02	0.4840	-16.039155	0.000543	5.430489	0.919950	0.010862
  51	2.5000e-02	0.4953	-16.004517	0.000346	3.463540	0.586740	0.006928
  52	2.5500e-02	0.5064	-15.930966	0.000735	7.354678	1.245916	0.014710
  53	2.6000e-02	0.5157	-15.904881	0.000261	2.608345	0.441866	0.005217
  54	2.6500e-02	0.5225	-15.842447	0.000624	6.242924	1.057580	0.012487
  55	2.7000e-02	0.5376	-15.793698	0.000487	4.874612	0.825782	0.009750
  56	2.7500e-02	0.5460	-15.770606	0.000231	2.309027	0.391160	0.004618
  57	2.8000e-02	0.5589	-15.714587	0.000560	5.601528	0.948925	0.011204
  58	2.8500e-02	0.5663	-15.675674	0.000389	3.891138	0.659177	0.007783
  59	2.9000e-02	0.5759	-15.610674	0.000650	6.499483	1.101042	0.013000
  60	2.9500e-02	0.5887	-15.564919	0.000458	4.575294	0.775076	0.009151
  61	3.0000e-02	0.5995	-15.526432	0.000385	3.848378	0.651933	0.007697
  62	3.0500e-02	0.6089	-15.474690	0.000517	5.173930	0.876488	0.010349
  63	3.1000e-02	0.6184	-15.440907	0.000338	3.378021	0.572252	0.006756
  64	3.1500e-02	0.6266	-15.385744	0.000552	5.516008	0.934437	0.011033
  65	3.2000e-02	0.6366	-15.349823	0.000359	3.591819	0.608471	0.007184
  66	3.2500e-02	0.6441	-15.296798	0.000530	5.302210	0.898219	0.010605
  67	3.3000e-02	0.6573	-15.240351	0.000564	5.644288	0.956168	0.011289
  68	3.3500e-02	0.6650	-15.187753	0.000526	5.259450	0.890975	0.010520
  69	3.4000e-02	0.6771	-15.166372	0.000214	2.137988	0.362185	0.004276
  70	3.4500e-02	0.6875	-15.085978	0.000804	8.038834	1.361815	0.016079
  71	3.5000e-02	0.6959	-15.057755	0.000282	2.822144	0.478084	0.005645
  72	3.5500e-02	0.7060	-14.985059	0.000727	7.269158	1.231429	0.014539
  73	3.6000e-02	0.7166	-14.950849	0.000342	3.420780	0.579496	0.006842
  74	3.6500e-02	0.7276	-14.923481	0.000274	2.736624	0.463597	0.005474
  75	3.7000e-02	0.7339	-14.883711	0.000398	3.976657	0.673664	0.007954
  76	3.7500e-02	0.7468	-14.833679	0.000500	5.002891	0.847513	0.010006
  77	3.8000e-02	0.7575	-14.779799	0.000539	5.387729	0.912706	0.010776
  78	3.8500e-02	0.7670	-14.737036	0.000428	4.275975	0.724370	0.008553
  79	3.9000e-02	0.7760	-14.695129	0.000419	4.190456	0.709882	0.008381
  80	3.9500e-02	0.7871	-14.623288	0.000718	7.183639	1.216941	0.014368
  81	4.0000e-02	0.7966	-14.565558	0.000577	5.772567	0.977899	0.011546
  82	4.0500e-02	0.8052	-14.536052	0.000295	2.950423	0.499815	0.005901
  83	4.1000e-02	0.8186	-14.494145	0.000419	4.190456	0.709882	0.008381
  84	4.1500e-02	0.8231	-14.424442	0.000697	6.969840	1.180723	0.013941
  85	4.2000e-02	0.8327	-14.398784	0.000257	2.565585	0.434622	0.005132
  86	4.2500e-02	0.8464	-14.351318	0.000475	4.746333	0.804051	0.009493
  87	4.3000e-02	0.8537	-14.306417	0.000449	4.489774	0.760588	0.008980
  88	4.3500e-02	0.8652	-14.258523	0.000479	4.789093	0.811294	0.009579
  89	4.4000e-02	0.8776	-14.196945	0.000616	6.157405	1.043093	0.012316
  90	4.4500e-02	0.8852	-14.164018	0.000329	3.292501	0.557765	0.006585
  91	4.5000e-02	0.8957	-14.113558	0.000505	5.045651	0.854756	0.010092
  92	4.5500e-02	0.9066	-14.061388	0.000522	5.216690	0.883731	0.010434
  93	4.6000e-02	0.9166	-14.010501	0.000509	5.088411	0.862000	0.010177
  94	4.6500e-02	0.9287	-13.959186	0.000513	5.131171	0.869244	0.010263
  95	4.7000e-02	0.9343	-13.915140	0.000440	4.404255	0.746101	0.008809
  96	4.7500e-02	0.9483	-13.866819	0.000483	4.831852	0.818538	0.009664
  97	4.8000e-02	0.9598	-13.839878	0.000269	2.693865	0.456353	0.005388
  98	4.8500e-02	0.9660	-13.783859	0.000560	5.601528	0.948925	0.011204
  99	4.9000e-02	0.9760	-13.739386	0.000445	4.447014	0.753345	0.008895
 100	4.9500e-02	0.9874	-13.688926	0.000505	5.045651	0.854756	0.010092
 101	5.0000e-02	0.9964	-13.626921	0.000620	6.200164	1.050336	0.012401
 102	5.0500e-02	1.0064	-13.598270	0.000286	2.864904	0.485328	0.005730
 103	5.1000e-02	1.0172	-13.553797	0.000445	4.447014	0.753345	0.008895
 104	5.1500e-02	1.0260	-13.507613	0.000462	4.618053	0.782319	0.009237
 105	5.2000e-02	1.0352	-13.460575	0.000470	4.703573	0.796807	0.009408
 106	5.2500e-02	1.0451	-13.411398	0.000492	4.917372	0.833025	0.009835
 107	5.3000e-02	1.0562	-13.372911	0.000385	3.848378	0.651933	0.007697
 108	5.3500e-02	1.0651	-13.311761	0.000611	6.114645	1.035849	0.012230
 109	5.4000e-02	1.0781	-13.256170	0.000556	5.558768	0.941681	0.011118
 110	5.4500e-02	1.0860	-13.228802	0.000274	2.736624	0.463597	0.005474
 111	5.5000e-02	1.0947	-13.174493	0.000543	5.430489	0.919950	0.010862
 112	5.5500e-02	1.1086	-13.109922	0.000646	6.456723	1.093798	0.012914
 113	5.6000e-02	1.1184	-13.089396	0.000205	2.052468	0.347698	0.004105
 114	5.6500e-02	1.1275	-13.033377	0.000560	5.601528	0.948925	0.011204
 115	5.7000e-02	1.1382	-12.973082	0.000603	6.029125	1.021361	0.012059
 116	5.7500e-02	1.1481	-12.942720	0.000304	3.035943	0.514303	0.006072
 117	5.8000e-02	1.1562	-12.892688	0.000500	5.002891	0.847513	0.010006
 118	5.8500e-02	1.1668	-12.855057	0.000376	3.762858	0.637445	0.007526
 119	5.9000e-02	1.1758	-12.808446	0.000466	4.660813	0.789563	0.009322
 120	5.9500e-02	1.1885	-12.760552	0.000479	4.789093	0.811294	0.009579
 121	6.0000e-02	1.1993	-12.711375	0.000492	4.917372	0.833025	0.009835
 122	6.0500e-02	1.2086	-12.681441	0.000299	2.993183	0.507059	0.005987
 123	6.1000e-02	1.2178	-12.624567	0.000569	5.687047	0.963412	0.011375
 124	6.1500e-02	1.2260	-12.582232	0.000423	4.233216	0.717126	0.008467
 125	6.2000e-02	1.2374	-12.524930	0.000573	5.729807	0.970656	0.011460
 126	6.2500e-02	1.2469	-12.470622	0.000543	5.430489	0.919950	0.010862
 127	6.3000e-02	1.2562	-12.450524	0.000201	2.009708	0.340454	0.004020
 128	6.3500e-02	1.2685	-12.392367	0.000582	5.815327	0.985143	0.011631
 129	6.4000e-02	1.2759	-12.350887	0.000415	4.147696	0.702639	0.008296
 130	6.4500e-02	1.2862	-12.294868	0.000560	5.601528	0.948925	0.011204
 131	6.5000e-02	1.2961	-12.249540	0.000453	4.532534	0.767832	0.009066
 132	6.5500e-02	1.3081	-12.218751	0.000308	3.078702	0.521546	0.006158
 133	6.6000e-02	1.3187	-12.167863	0.000509	5.088411	0.862000	0.010177
 134	6.6500e-02	1.3269	-12.119114	0.000487	4.874612	0.825782	0.009750
 135	6.7000e-02	1.3353	-12.073358	0.000458	4.575294	0.775076	0.009151
 136	6.7500e-02	1.3454	-12.032306	0.000410	4.104936	0.695395	0.008210
 137	6.8000e-02	1.3570	-12.007076	0.000252	2.522826	0.427378	0.005046
 138	6.8500e-02	1.3667	-11.957899	0.000492	4.917372	0.833025	0.009835
 139	6.9000e-02	1.3763	-11.873230	0.000847	8.466431	1.434252	0.016934
 140	6.9500e-02	1.3863	-11.858690	0.000145	1.453832	0.246286	0.002908
 141	7.0000e-02	1.3962	-11.810796	0.000479	4.789093	0.811294	0.009579
 142	7.0500e-02	1.4055	-11.764185	0.000466	4.660813	0.789563	0.009322
 143	7.1000e-02	1.4182	-11.715436	0.000487	4.874612	0.825782	0.009750
 144	7.1500e-02	1.4258	-11.664121	0.000513	5.131171	0.869244	0.010263
 145	7.2000e-02	1.4375	-11.638036	0.000261	2.608345	0.441866	0.005217
 146	7.2500e-02	1.4478	-11.567050	0.000710	7.098119	1.202454	0.014197
 147	7.3000e-02	1.4561	-11.555932	0.000111	1.111754	0.188336	0.002224
 148	7.3500e-02	1.4655	-11.495209	0.000607	6.071885	1.028605	0.012145
 149	7.4000e-02	1.4764	-11.444321	0.000509	5.088411	0.862000	0.010177
 150	7.4500e-02	1.4853	-11.379322	0.000650	6.499483	1.101042	0.013000
 151	7.5000e-02	1.4945	-11.342119	0.000372	3.720099	0.630202	0.007441
 152	7.5500e-02	1.5071	-11.296791	0.000453	4.532534	0.767832	0.009066
 153	7.6000e-02	1.5160	-11.242055	0.000547	5.473249	0.927193	0.010947
 154	7.6500e-02	1.5233	-11.225805	0.000162	1.624871	0.275261	0.003250
 155	7.7000e-02	1.5350	-11.162089	0.000637	6.371203	1.079311	0.012743
 156	7.7500e-02	1.5456	-11.117616	0.000445	4.447014	0.753345	0.008895
 157	7.8000e-02	1.5536	-11.074426	0.000432	4.318735	0.731614	0.008638
 158	7.8500e-02	1.5678	-11.038933	0.000355	3.549060	0.601227	0.007099
 159	7.9000e-02	1.5752	-10.992321	0.000466	4.660813	0.789563	0.009322
 160	7.9500e-02	1.5857	-10.955118	0.000372	3.720099	0.630202	0.007441
 161	8.0000e-02	1.5954	-10.901237	0.000539	5.387729	0.912706	0.010776
 162	8.0500e-02	1.6055	-10.880284	0.000210	2.095228	0.354941	0.004191
 163	8.1000e-02	1.6168	-10.820416	0.000599	5.986366	1.014118	0.011974
 164	8.1500e-02	1.6266	-10.772950	0.000475	4.746333	0.804051	0.009493
 165	8.2000e-02	1.6340	-10.716931	0.000560	5.601528	0.948925	0.011204
 166	8.2500e-02	1.6469	-10.674596	0.000423	4.233216	0.717126	0.008467
 167	8.3000e-02	1.6600	-10.632689	0.000419	4.190456	0.709882	0.008381
 168	8.3500e-02	1.6692	-10.571966	0.000607	6.071885	1.028605	0.012145
 169	8.4000e-02	1.6774	-10.544598	0.000274	2.736624	0.463597	0.005474
 170	8.4500e-02	1.6864	-10.498842	0.000458	4.575294	0.775076	0.009151
 171	8.5000e-02	1.6946	-10.446244	0.000526	5.259450	0.890975	0.010520
 172	8.5500e-02	1.7078	-10.409468	0.000368	3.677339	0.622958	0.007355
 173	8.6000e-02	1.7155	-10.370982	0.000385	3.848378	0.651933	0.007697
 174	8.6500e-02	1.7274	-10.320095	0.000509	5.088411	0.862000	0.010177
 175	8.7000e-02	1.7346	-10.285029	0.000351	3.506300	0.593983	0.007013
 176	8.7500e-02	1.7451	-10.238418	0.000466	4.660813	0.789563	0.009322
 177	8.8000e-02	1.7584	-10.186248	0.000522	5.216690	0.883731	0.010434
 178	8.8500e-02	1.7664	-10.140064	0.000462	4.618053	0.782319	0.009237
 179	8.9000e-02	1.7761	-10.099868	0.000402	4.019417	0.680908	0.008039
 180	8.9500e-02	1.7876	-10.050263	0.000496	4.960132	0.840269	0.009921
 181	9.0000e-02	1.7976	-10.009211	0.000410	4.104936	0.695395	0.008210
 182	9.0500e-02	1.8092	-9.958751	0.000505	5.045651	0.854756	0.010092
 183	9.1000e-02	1.8150	-9.916416	0.000423	4.233216	0.717126	0.008467
 184	9.1500e-02	1.8231	-9.899311	0.000171	1.710390	0.289748	0.003421
 185	9.2000e-02	1.8396	-9.850562	0.000487	4.874612	0.825782	0.009750
 186	9.2500e-02	1.8463	-9.792405	0.000582	5.815327	0.985143	0.011631
 187	9.3000e-02	1.8556	-9.756484	0.000359	3.591819	0.608471	0.007184
 188	9.3500e-02	1.8666	-9.723985	0.000325	3.249741	0.550521	0.006500
 189	9.4000e-02	1.8762	-9.688920	0.000351	3.506300	0.593983	0.007013
 190	9.4500e-02	1.8854	-9.626059	0.000629	6.285684	1.064824	0.012572
 191	9.5000e-02	1.8951	-9.577737	0.000483	4.831852	0.818538	0.009664
 192	9.5500e-02	1.9048	-9.550369	0.000274	2.736624	0.463597	0.005474
 193	9.6000e-02	1.9165	-9.494778	0.000556	5.558768	0.941681	0.011118
 194	9.6500e-02	1.9275	-9.454153	0.000406	4.062177	0.688151	0.008125
 195	9.7000e-02	1.9339	-9.394286	0.000599	5.986366	1.014118	0.011974
 196	9.7500e-02	1.9409	-9.358793	0.000355	3.549060	0.601227	0.007099
 197	9.8000e-02	1.9569	-9.311754	0.000470	4.703573	0.796807	0.009408
 198	9.8500e-02	1.9646	-9.284814	0.000269	2.693865	0.456353	0.005388
 199	9.9000e-02	1.9753	-9.248893	0.000359	3.591819	0.608471	0.007184
 200	9.9500e-02	1.9875	-9.189453	0.000594	5.943606	1.006874	0.011888
 201	1.0000e-01	1.9995	-9.140704	0.000487	4.874612	0.825782	0.009750
 202	1.0050e-01	2.0044	-9.114619	0.000261	2.608345	0.441866	0.005217
 203	1.0100e-01	2.0166	-9.065014	0.000496	4.960132	0.840269	0.009921
 204	1.0150e-01	2.0255	-8.999588	0.000654	6.542242	1.108286	0.013085
 205	1.0200e-01	2.0374	-8.973075	0.000265	2.651105	0.449109	0.005303
 206	1.0250e-01	2.0483	-8.905510	0.000676	6.756041	1.144504	0.013513
 207	1.0300e-01	2.0570	-8.900806	0.000047	0.470357	0.079681	0.000941
 208	1.0350e-01	2.0662	-8.855906	0.000449	4.489774	0.760588	0.008980
 209	1.0400e-01	2.0760	-8.792189	0.000637	6.371203	1.079311	0.012743
 210	1.0450e-01	2.0876	-8.755414	0.000368	3.677339	0.622958	0.007355
 211	1.0500e-01	2.0949	-8.723769	0.000316	3.164222	0.536034	0.006329
 212	1.0550e-01	2.1048	-8.675448	0.000483	4.831852	0.818538	0.009664
 213	1.0600e-01	2.1136	-8.636534	0.000389	3.891138	0.659177	0.007783
 214	1.0650e-01	2.1255	-8.595909	0.000406	4.062177	0.688151	0.008125
 215	1.0700e-01	2.1381	-8.529200	0.000667	6.670522	1.130017	0.013342
 216	1.0750e-01	2.1455	-8.498411	0.000308	3.078702	0.521546	0.006158
 217	1.0800e-01	2.1543	-8.468905	0.000295	2.950423	0.499815	0.005901
 218	1.0850e-01	2.1680	-8.411603	0.000573	5.729807	0.970656	0.011460
 219	1.0900e-01	2.1764	-8.400057	0.000115	1.154513	0.195580	0.002309
 220	1.0950e-01	2.1883	-8.335058	0.000650	6.499483	1.101042	0.013000
 221	1.1000e-01	2.1980	-8.262362	0.000727	7.269158	1.231429	0.014539
 222	1.1050e-01	2.2089	-8.243974	0.000184	1.838669	0.311479	0.003678
 223	1.1100e-01	2.2176	-8.185389	0.000586	5.858086	0.992387	0.011717
 224	1.1150e-01	2.2295	-8.152890	0.000325	3.249741	0.550521	0.006500
 225	1.1200e-01	2.2366	-8.109700	0.000432	4.318735	0.731614	0.008638
 226	1.1250e-01	2.2453	-8.064371	0.000453	4.532534	0.767832	0.009066
 227	1.1300e-01	2.2584	-8.038714	0.000257	2.565585	0.434622	0.005132
 228	1.1350e-01	2.2656	-7.980129	0.000586	5.858086	0.992387	0.011717
 229	1.1400e-01	2.2775	-7.935656	0.000445	4.447014	0.753345	0.008895
 230	1.1450e-01	2.2858	-7.890755	0.000449	4.489774	0.760588	0.008980
 231	1.1500e-01	2.2958	-7.863815	0.000269	2.693865	0.456353	0.005388
 232	1.1550e-01	2.3073	-7.830033	0.000338	3.378021	0.572252	0.006756
 233	1.1600e-01	2.3157	-7.769310	0.000607	6.071885	1.028605	0.012145
 234	1.1650e-01	2.3258	-7.723126	0.000462	4.618053	0.782319	0.009237
 235	1.1700e-01	2.3364	-7.691054	0.000321	3.206982	0.543277	0.006414
 236	1.1750e-01	2.3491	-7.648719	0.000423	4.233216	0.717126	0.008467
 237	1.1800e-01	2.3566	-7.605529	0.000432	4.318735	0.731614	0.008638
 238	1.1850e-01	2.3683	-7.574313	0.000312	3.121462	0.528790	0.006243
 239	1.1900e-01	2.3782	-7.506748	0.000676	6.756041	1.144504	0.013513
 240	1.1950e-01	2.3856	-7.482801	0.000239	2.394546	0.405647	0.004789
 241	1.2000e-01	2.3973	-7.448591	0.000342	3.420780	0.579496	0.006842
 242	1.2050e-01	2.4078	-7.410105	0.000385	3.848378	0.651933	0.007697
 243	1.2100e-01	2.4176	-7.360500	0.000496	4.960132	0.840269	0.009921
 244	1.2150e-01	2.4274	-7.329283	0.000312	3.121462	0.528790	0.006243
 245	1.2200e-01	2.4377	-7.279251	0.000500	5.002891	0.847513	0.010006
 246	1.2250e-01	2.4464	-7.226653	0.000526	5.259450	0.890975	0.010520
 247	1.2300e-01	2.4564	-7.199713	0.000269	2.693865	0.456353	0.005388
 248	1.2350e-01	2.4670	-7.141984	0.000577	5.772567	0.977899	0.011546
 249	1.2400e-01	2.4772	-7.101359	0.000406	4.062177	0.688151	0.008125
 250	1.2450e-01	2.4869	-7.085109	0.000162	1.624871	0.275261	0.003250
 251	1.2500e-01	2.4969	-7.043630	0.000415	4.147696	0.702639	0.008296
 252	1.2550e-01	2.5073	-6.988038	0.000556	5.558768	0.941681	0.011118
 253	1.2600e-01	2.5172	-6.937579	0.000505	5.045651	0.854756	0.010092
 254	1.2650e-01	2.5311	-6.909355	0.000282	2.822144	0.478084	0.005645
 255	1.2700e-01	2.5360	-6.884553	0.000248	2.480066	0.420135	0.004960
 256	1.2750e-01	2.5476	-6.816133	0.000684	6.841561	1.158992	0.013684
 257	1.2800e-01	2.5575	-6.768239	0.000479	4.789093	0.811294	0.009579
 258	1.2850e-01	2.5678	-6.724621	0.000436	4.361495	0.738857	0.008724
 259	1.2900e-01	2.5764	-6.684424	0.000402	4.019417	0.680908	0.008039
 260	1.2950e-01	2.5883	-6.658339	0.000261	2.608345	0.441866	0.005217
 261	1.3000e-01	2.5982	-6.620708	0.000376	3.762858	0.637445	0.007526
 262	1.3050e-01	2.6074	-6.571959	0.000487	4.874612	0.825782	0.009750
 263	1.3100e-01	2.6169	-6.537321	0.000346	3.463540	0.586740	0.006928
 264	1.3150e-01	2.6259	-6.486862	0.000505	5.045651	0.854756	0.010092
 265	1.3200e-01	2.6363	-6.441533	0.000453	4.532534	0.767832	0.009066
 266	1.3250e-01	2.6489	-6.412882	0.000286	2.864904	0.485328	0.005730
 267	1.3300e-01	2.6575	-6.363706	0.000492	4.917372	0.833025	0.009835
 268	1.3350e-01	2.6661	-6.332061	0.000316	3.164222	0.536034	0.006329
 269	1.3400e-01	2.6778	-6.269628	0.000624	6.242924	1.057580	0.012487
 270	1.3450e-01	2.6884	-6.240977	0.000286	2.864904	0.485328	0.005730
 271	1.3500e-01	2.6999	-6.217030	0.000239	2.394546	0.405647	0.004789
 272	1.3550e-01	2.7063	-6.154597	0.000624	6.242924	1.057580	0.012487
 273	1.3600e-01	2.7150	-6.125946	0.000286	2.864904	0.485328	0.005730
 274	1.3650e-01	2.7286	-6.076769	0.000492	4.917372	0.833025	0.009835
 275	1.3700e-01	2.7347	-6.022033	0.000547	5.473249	0.927193	0.010947
 276	1.3750e-01	2.7451	-5.996803	0.000252	2.522826	0.427378	0.005046
 277	1.3800e-01	2.7569	-5.964304	0.000325	3.249741	0.550521	0.006500
 278	1.3850e-01	2.7658	-5.929238	0.000351	3.506300	0.593983	0.007013
 279	1.3900e-01	2.7795	-5.875357	0.000539	5.387729	0.912706	0.010776
 280	1.3950e-01	2.7863	-5.819766	0.000556	5.558768	0.941681	0.011118
 281	1.4000e-01	2.7969	-5.797530	0.000222	2.223507	0.376672	0.004447
 282	1.4050e-01	2.8064	-5.754767	0.000428	4.275975	0.724370	0.008553
 283	1.4100e-01	2.8150	-5.730820	0.000239	2.394546	0.405647	0.004789
 284	1.4150e-01	2.8284	-5.674801	0.000560	5.601528	0.948925	0.011204
 285	1.4200e-01	2.8352	-5.651282	0.000235	2.351786	0.398403	0.004704
 286	1.4250e-01	2.8461	-5.591842	0.000594	5.943606	1.006874	0.011888
 287	1.4300e-01	2.8568	-5.571316	0.000205	2.052468	0.347698	0.004105
 288	1.4350e-01	2.8664	-5.516580	0.000547	5.473249	0.927193	0.010947
 289	1.4400e-01	2.8761	-5.474245	0.000423	4.233216	0.717126	0.008467
 290	1.4450e-01	2.8885	-5.431055	0.000432	4.318735	0.731614	0.008638
 291	1.4500e-01	2.8946	-5.393851	0.000372	3.720099	0.630202	0.007441
 292	1.4550e-01	2.9065	-5.338260	0.000556	5.558768	0.941681	0.011118
 293	1.4600e-01	2.9187	-5.306188	0.000321	3.206982	0.543277	0.006414
 294	1.4650e-01	2.9266	-5.276682	0.000295	2.950423	0.499815	0.005901
 295	1.4700e-01	2.9380	-5.221518	0.000552	5.516008	0.934437	0.011033
 296	1.4750e-01	2.9425	-5.174907	0.000466	4.660813	0.789563	0.009322
 297	1.4800e-01	2.9564	-5.160368	0.000145	1.453832	0.246286	0.002908
 298	1.4850e-01	2.9652	-5.109908	0.000505	5.045651	0.854756	0.010092
 299	1.4900e-01	2.9742	-5.088099	0.000218	2.180747	0.369429	0.004362
 300	1.4950e-01	2.9872	-5.040205	0.000479	4.789093	0.811294	0.009579
 301	1.5000e-01	2.9968	-4.991456	0.000487	4.874612	0.825782	0.009750
 302	1.5050e-01	3.0055	-4.949549	0.000419	4.190456	0.709882	0.008381
 303	1.5100e-01	3.0164	-4.909780	0.000398	3.976657	0.673664	0.007954
 304	1.5150e-01	3.0246	-4.862741	0.000470	4.703573	0.796807	0.009408
 305	1.5200e-01	3.0397	-4.832379	0.000304	3.035943	0.514303	0.006072
 306	1.5250e-01	3.0496	-4.786624	0.000458	4.575294	0.775076	0.009151
 307	1.5300e-01	3.0579	-4.757973	0.000286	2.864904	0.485328	0.005730
 308	1.5350e-01	3.0682	-4.724618	0.000334	3.335261	0.565008	0.006671
 309	1.5400e-01	3.0766	-4.666888	0.000577	5.772567	0.977899	0.011546
 310	1.5450e-01	3.0867	-4.621560	0.000453	4.532534	0.767832	0.009066
 311	1.5500e-01	3.1000	-4.598896	0.000227	2.266267	0.383916	0.004533
 312	1.5550e-01	3.1067	-4.544160	0.000547	5.473249	0.927193	0.010947
 313	1.5600e-01	3.1146	-4.512516	0.000316	3.164222	0.536034	0.006329
 314	1.5650e-01	3.1262	-4.477878	0.000346	3.463540	0.586740	0.006928
 315	1.5700e-01	3.1372	-4.442813	0.000351	3.506300	0.593983	0.007013
 316	1.5750e-01	3.1471	-4.393208	0.000496	4.960132	0.840269	0.009921
 317	1.5800e-01	3.1569	-4.382518	0.000107	1.068994	0.181092	0.002138
 318	1.5850e-01	3.1689	-4.325643	0.000569	5.687047	0.963412	0.011375
 319	1.5900e-01	3.1773	-4.286730	0.000389	3.891138	0.659177	0.007783
 320	1.5950e-01	3.1863	-4.240974	0.000458	4.575294	0.775076	0.009151
 321	1.6000e-01	3.1964	-4.189659	0.000513	5.131171	0.869244	0.010263
 322	1.6050e-01	3.2050	-4.131074	0.000586	5.858086	0.992387	0.011717
 323	1.6100e-01	3.2173	-4.118245	0.000128	1.282793	0.217311	0.002566
 324	1.6150e-01	3.2269	-4.084035	0.000342	3.420780	0.579496	0.006842
 325	1.6200e-01	3.2385	-4.064792	0.000192	1.924189	0.325966	0.003849
 326	1.6250e-01	3.2449	-3.999365	0.000654	6.542242	1.108286	0.013085
 327	1.6300e-01	3.2568	-3.970714	0.000286	2.864904	0.485328	0.005730
 328	1.6350e-01	3.2669	-3.932228	0.000385	3.848378	0.651933	0.007697
 329	1.6400e-01	3.2777	-3.882196	0.000500	5.002891	0.847513	0.010006
 330	1.6450e-01	3.2893	-3.853973	0.000282	2.822144	0.478084	0.005645
 331	1.6500e-01	3.2966	-3.809500	0.000445	4.447014	0.753345	0.008895
 332	1.6550e-01	3.3072	-3.776145	0.000334	3.335261	0.565008	0.006671
 333	1.6600e-01	3.3197	-3.742790	0.000334	3.335261	0.565008	0.006671
 334	1.6650e-01	3.3260	-3.691475	0.000513	5.131171	0.869244	0.010263
 335	1.6700e-01	3.3350	-3.660686	0.000308	3.078702	0.521546	0.006158
 336	1.6750e-01	3.3487	-3.632463	0.000282	2.822144	0.478084	0.005645
 337	1.6800e-01	3.3578	-3.573451	0.000590	5.900846	0.999630	0.011802
 338	1.6850e-01	3.3667	-3.549076	0.000244	2.437306	0.412891	0.004875
 339	1.6900e-01	3.3783	-3.526839	0.000222	2.223507	0.376672	0.004447
 340	1.6950e-01	3.3890	-3.471248	0.000556	5.558768	0.941681	0.011118
 341	1.7000e-01	3.3975	-3.425065	0.000462	4.618053	0.782319	0.009237
 342	1.7050e-01	3.4065	-3.377171	0.000479	4.789093	0.811294	0.009579
 343	1.7100e-01	3.4177	-3.354934	0.000222	2.223507	0.376672	0.004447
 344	1.7150e-01	3.4267	-3.312172	0.000428	4.275975	0.724370	0.008553
 345	1.7200e-01	3.4360	-3.268554	0.000436	4.361495	0.738857	0.008724
 346	1.7250e-01	3.4482	-3.220660	0.000479	4.789093	0.811294	0.009579
 347	1.7300e-01	3.4583	-3.186450	0.000342	3.420780	0.579496	0.006842
 348	1.7350e-01	3.4674	-3.150529	0.000359	3.591819	0.608471	0.007184
 349	1.7400e-01	3.4769	-3.109050	0.000415	4.147696	0.702639	0.008296
 350	1.7450e-01	3.4877	-3.076550	0.000325	3.249741	0.550521	0.006500
 351	1.7500e-01	3.4985	-3.052175	0.000244	2.437306	0.412891	0.004875
 352	1.7550e-01	3.5052	-3.000860	0.000513	5.131171	0.869244	0.010263
 353	1.7600e-01	3.5181	-2.980334	0.000205	2.052468	0.347698	0.004105
 354	1.7650e-01	3.5291	-2.918756	0.000616	6.157405	1.043093	0.012316
 355	1.7700e-01	3.5370	-2.872145	0.000466	4.660813	0.789563	0.009322
 356	1.7750e-01	3.5489	-2.830666	0.000415	4.147696	0.702639	0.008296
 357	1.7800e-01	3.5559	-2.824251	0.000064	0.641396	0.108655	0.001283
 358	1.7850e-01	3.5678	-2.775502	0.000487	4.874612	0.825782	0.009750
 359	1.7900e-01	3.5741	-2.727180	0.000483	4.831852	0.818538	0.009664
 360	1.7950e-01	3.5884	-2.700240	0.000269	2.693865	0.456353	0.005388
 361	1.8000e-01	3.5968	-2.658333	0.000419	4.190456	0.709882	0.008381
 362	1.8050e-01	3.6050	-2.607017	0.000513	5.131171	0.869244	0.010263
 363	1.8100e-01	3.6156	-2.580932	0.000261	2.608345	0.441866	0.005217
 364	1.8150e-01	3.6269	-2.528334	0.000526	5.259450	0.890975	0.010520
 365	1.8200e-01	3.6331	-2.511657	0.000167	1.667630	0.282504	0.003335
 366	1.8250e-01	3.6461	-2.470605	0.000410	4.104936	0.695395	0.008210
 367	1.8300e-01	3.6578	-2.426132	0.000445	4.447014	0.753345	0.008895
 368	1.8350e-01	3.6697	-2.373534	0.000526	5.259450	0.890975	0.010520
 369	1.8400e-01	3.6771	-2.356001	0.000175	1.753150	0.296992	0.003507
 370	1.8450e-01	3.6871	-2.318370	0.000376	3.762858	0.637445	0.007526
 371	1.8500e-01	3.6972	-2.276463	0.000419	4.190456	0.709882	0.008381
 372	1.8550e-01	3.7073	-2.260641	0.000158	1.582111	0.268017	0.003164
 373	1.8600e-01	3.7186	-2.217451	0.000432	4.318735	0.731614	0.008638
 374	1.8650e-01	3.7244	-2.153307	0.000641	6.413963	1.086555	0.012829
 375	1.8700e-01	3.7381	-2.135774	0.000175	1.753150	0.296992	0.003507
 376	1.8750e-01	3.7485	-2.084887	0.000509	5.088411	0.862000	0.010177
 377	1.8800e-01	3.7567	-2.049394	0.000355	3.549060	0.601227	0.007099
 378	1.8850e-01	3.7665	-2.005349	0.000440	4.404255	0.746101	0.008809
 379	1.8900e-01	3.7776	-1.959165	0.000462	4.618053	0.782319	0.009237
 380	1.8950e-01	3.7888	-1.950613	0.000086	0.855195	0.144874	0.001711
 381	1.9000e-01	3.7975	-1.898015	0.000526	5.259450	0.890975	0.010520
 382	1.9050e-01	3.8062	-1.873213	0.000248	2.480066	0.420135	0.004960
 383	1.9100e-01	3.8147	-1.841568	0.000316	3.164222	0.536034	0.006329
 384	1.9150e-01	3.8242	-1.800944	0.000406	4.062177	0.688151	0.008125
 385	1.9200e-01	3.8356	-1.748346	0.000526	5.259450	0.890975	0.010520
 386	1.9250e-01	3.8464	-1.693182	0.000552	5.516008	0.934437	0.011033
 387	1.9300e-01	3.8569	-1.673084	0.000201	2.009708	0.340454	0.004020
 388	1.9350e-01	3.8685	-1.629894	0.000432	4.318735	0.731614	0.008638
 389	1.9400e-01	3.8779	-1.599532	0.000304	3.035943	0.514303	0.006072
 390	1.9450e-01	3.8855	-1.571737	0.000278	2.779384	0.470840	0.005559
 391	1.9500e-01	3.8954	-1.544369	0.000274	2.736624	0.463597	0.005474
 392	1.9550e-01	3.9076	-1.498613	0.000458	4.575294	0.775076	0.009151
 393	1.9600e-01	3.9170	-1.453284	0.000453	4.532534	0.767832	0.009066
 394	1.9650e-01	3.9250	-1.422923	0.000304	3.035943	0.514303	0.006072
 395	1.9700e-01	3.9368	-1.381016	0.000419	4.190456	0.709882	0.008381
 396	1.9750e-01	3.9480	-1.334405	0.000466	4.660813	0.789563	0.009322
 397	1.9800e-01	3.9563	-1.306181	0.000282	2.822144	0.478084	0.005645
 398	1.9850e-01	3.9673	-1.262136	0.000440	4.404255	0.746101	0.008809
 399	1.9900e-01	3.9771	-1.231347	0.000308	3.078702	0.521546	0.006158
 400	1.9950e-01	3.9880	-1.192861	0.000385	3.848378	0.651933	0.007697
 401	2.0000e-01	3.9972	-1.141546	0.000513	5.131171	0.869244	0.010263
 402	2.0050e-01	4.0039	-1.134276	0.000073	0.726916	0.123143	0.001454
 403	2.0100e-01	4.0195	-1.094079	0.000402	4.019417	0.680908	0.008039
 404	2.0150e-01	4.0277	-1.044047	0.000500	5.002891	0.847513	0.010006
 405	2.0200e-01	4.0387	-1.035495	0.000086	0.855195	0.144874	0.001711
 406	2.0250e-01	4.0485	-0.978193	0.000573	5.729807	0.970656	0.011460
 407	2.0300e-01	4.0555	-0.934575	0.000436	4.361495	0.738857	0.008724
 408	2.0350e-01	4.0674	-0.900793	0.000338	3.378021	0.572252	0.006756
 409	2.0400e-01	4.0753	-0.870004	0.000308	3.078702	0.521546	0.006158
 410	2.0450e-01	4.0885	-0.832800	0.000372	3.720099	0.630202	0.007441
 411	2.0500e-01	4.0973	-0.790893	0.000419	4.190456	0.709882	0.008381
 412	2.0550e-01	4.1064	-0.777637	0.000133	1.325552	0.224555	0.002651
 413	2.0600e-01	4.1174	-0.720335	0.000573	5.729807	0.970656	0.011460
 414	2.0650e-01	4.1281	-0.672868	0.000475	4.746333	0.804051	0.009493
 415	2.0700e-01	4.1370	-0.621553	0.000513	5.131171	0.869244	0.010263
 416	2.0750e-01	4.1479	-0.607869	0.000137	1.368312	0.231798	0.002737
 417	2.0800e-01	4.1577	-0.572804	0.000351	3.506300	0.593983	0.007013
 418	2.0850e-01	4.1663	-0.518923	0.000539	5.387729	0.912706	0.010776
 419	2.0900e-01	4.1772	-0.496687	0.000222	2.223507	0.376672	0.004447
 420	2.0950e-01	4.1861	-0.472740	0.000239	2.394546	0.405647	0.004789
 421	2.1000e-01	4.1948	-0.410306	0.000624	6.242924	1.057580	0.012487
 422	2.1050e-01	4.2081	-0.400471	0.000098	0.983474	0.166605	0.001967
 423	2.1100e-01	4.2175	-0.350439	0.000500	5.002891	0.847513	0.010006
 424	2.1150e-01	4.2270	-0.329913	0.000205	2.052468	0.347698	0.004105
 425	2.1200e-01	4.2387	-0.276887	0.000530	5.302210	0.898219	0.010605
 426	2.1250e-01	4.2465	-0.246954	0.000299	2.993183	0.507059	0.005987
 427	2.1300e-01	4.2560	-0.202908	0.000440	4.404255	0.746101	0.008809
 428	2.1350e-01	4.2676	-0.170836	0.000321	3.206982	0.543277	0.006414
 429	2.1400e-01	4.2773	-0.131067	0.000398	3.976657	0.673664	0.007954
 430	2.1450e-01	4.2896	-0.111824	0.000192	1.924189	0.325966	0.003849
 431	2.1500e-01	4.3024	-0.045542	0.000663	6.627762	1.122773	0.013256
 432	2.1550e-01	4.3097	-0.016891	0.000286	2.864904	0.485328	0.005730
 433	2.1600e-01	4.3188	0.014325	0.000312	3.121462	0.528790	0.006243
 434	2.1650e-01	4.3262	0.049818	0.000355	3.549060	0.601227	0.007099
 435	2.1700e-01	4.3372	0.100278	0.000505	5.045651	0.854756	0.010092
 436	2.1750e-01	4.3483	0.116956	0.000167	1.667630	0.282504	0.003335
 437	2.1800e-01	4.3567	0.143468	0.000265	2.651105	0.449109	0.005303
 438	2.1850e-01	4.3671	0.193500	0.000500	5.002891	0.847513	0.010006
 439	2.1900e-01	4.3776	0.214026	0.000205	2.052468	0.347698	0.004105
 440	2.1950e-01	4.3872	0.260210	0.000462	4.618053	0.782319	0.009237
 441	2.2000e-01	4.3971	0.297413	0.000372	3.720099	0.630202	0.007441
 442	2.2050e-01	4.4070	0.338893	0.000415	4.147696	0.702639	0.008296
 443	2.2100e-01	4.4189	0.375241	0.000363	3.634579	0.615714	0.007270
 444	2.2150e-01	4.4272	0.391919	0.000167	1.667630	0.282504	0.003335
 445	2.2200e-01	4.4366	0.457773	0.000659	6.585002	1.115530	0.013171
 446	2.2250e-01	4.4452	0.491555	0.000338	3.378021	0.572252	0.006756
 447	2.2300e-01	4.4574	0.509088	0.000175	1.753150	0.296992	0.003507
 448	2.2350e-01	4.4678	0.552278	0.000432	4.318735	0.731614	0.008638
 449	2.2400e-01	4.4798	0.586488	0.000342	3.420780	0.579496	0.006842
 450	2.2450e-01	4.4846	0.633099	0.000466	4.660813	0.789563	0.009322
 451	2.2500e-01	4.4977	0.643790	0.000107	1.068994	0.181092	0.002138
 452	2.2550e-01	4.5074	0.692967	0.000492	4.917372	0.833025	0.009835
 453	2.2600e-01	4.5178	0.752407	0.000594	5.943606	1.006874	0.011888
 454	2.2650e-01	4.5291	0.770795	0.000184	1.838669	0.311479	0.003678
 455	2.2700e-01	4.5352	0.813129	0.000423	4.233216	0.717126	0.008467
 456	2.2750e-01	4.5483	0.813557	0.000004	0.042760	0.007244	0.000086
 457	2.2800e-01	4.5563	0.873425	0.000599	5.986366	1.014118	0.011974
 458	2.2850e-01	4.5679	0.912766	0.000393	3.933897	0.666420	0.007868
 459	2.2900e-01	4.5786	0.943983	0.000312	3.121462	0.528790	0.006243
 460	2.2950e-01	4.5901	0.997008	0.000530	5.302210	0.898219	0.010605
 461	2.3000e-01	4.5969	1.014541	0.000175	1.753150	0.296992	0.003507
 462	2.3050e-01	4.6065	1.036777	0.000222	2.223507	0.376672	0.004447
 463	2.3100e-01	4.6182	1.064573	0.000278	2.779384	0.470840	0.005559
 464	2.3150e-01	4.6301	1.120164	0.000556	5.558768	0.941681	0.011118
 465	2.3200e-01	4.6375	1.167203	0.000470	4.703573	0.796807	0.009408
 466	2.3250e-01	4.6469	1.194999	0.000278	2.779384	0.470840	0.005559
 467	2.3300e-01	4.6583	1.208683	0.000137	1.368312	0.231798	0.002737
 468	2.3350e-01	4.6667	1.247169	0.000385	3.848378	0.651933	0.007697
 469	2.3400e-01	4.6805	1.301050	0.000539	5.387729	0.912706	0.010776
 470	2.3450e-01	4.6887	1.323286	0.000222	2.223507	0.376672	0.004447
 471	2.3500e-01	4.6979	1.355358	0.000321	3.206982	0.543277	0.006414
 472	2.3550e-01	4.7083	1.410950	0.000556	5.558768	0.941681	0.011118
 473	2.3600e-01	4.7174	1.453712	0.000428	4.275975	0.724370	0.008553
 474	2.3650e-01	4.7290	1.466969	0.000133	1.325552	0.224555	0.002651
 475	2.3700e-01	4.7363	1.498613	0.000316	3.164222	0.536034	0.006329
 476	2.3750e-01	4.7485	1.522560	0.000239	2.394546	0.405647	0.004789
 477	2.3800e-01	4.7572	1.580717	0.000582	5.815327	0.985143	0.011631
 478	2.3850e-01	4.7662	1.614072	0.000334	3.335261	0.565008	0.006671
 479	2.3900e-01	4.7798	1.651275	0.000372	3.720099	0.630202	0.007441
 480	2.3950e-01	4.7879	1.701735	0.000505	5.045651	0.854756	0.010092
 481	2.4000e-01	4.7987	1.738938	0.000372	3.720099	0.630202	0.007441
 482	2.4050e-01	4.8061	1.757754	0.000188	1.881429	0.318723	0.003763
 483	2.4100e-01	4.8172	1.776142	0.000184	1.838669	0.311479	0.003678
 484	2.4150e-01	4.8248	1.837720	0.000616	6.157405	1.043093	0.012316
 485	2.4200e-01	4.8398	1.844989	0.000073	0.726916	0.123143	0.001454
 486	2.4250e-01	4.8450	1.922389	0.000774	7.739516	1.311109	0.015480
 487	2.4300e-01	4.8566	1.937784	0.000154	1.539351	0.260773	0.003079
 488	2.4350e-01	4.8676	1.958310	0.000205	2.052468	0.347698	0.004105
 489	2.4400e-01	4.8781	2.009197	0.000509	5.088411	0.862000	0.010177
 490	2.4450e-01	4.8886	2.029296	0.000201	2.009708	0.340454	0.004020
 491	2.4500e-01	4.8969	2.053670	0.000244	2.437306	0.412891	0.004875
 492	2.4550e-01	4.9060	2.096005	0.000423	4.233216	0.717126	0.008467
 493	2.4600e-01	4.9147	2.131498	0.000355	3.549060	0.601227	0.007099
 494	2.4650e-01	4.9277	2.158011	0.000265	2.651105	0.449109	0.005303
 495	2.4700e-01	4.9365	2.207188	0.000492	4.917372	0.833025	0.009835
 496	2.4750e-01	4.9472	2.246529	0.000393	3.933897	0.666420	0.007868
 497	2.4800e-01	4.9585	2.255937	0.000094	0.940715	0.159361	0.001882
 498	2.4850e-01	4.9677	2.314522	0.000586	5.858086	0.992387	0.011717
 499	2.4900e-01	4.9786	2.350015	0.000355	3.549060	0.601227	0.007099
 500	2.4950e-01	4.9875	2.388073	0.000381	3.805618	0.644689	0.007612
 501	2.5000e-01	5.0024	2.413731	0.000257	2.565585	0.434622	0.005132
 502	2.5050e-01	5.0095	2.455211	0.000415	4.147696	0.702639	0.008296
 503	2.5100e-01	5.0171	2.478302	0.000231	2.309027	0.391160	0.004618
 504	2.5150e-01	5.0293	2.512940	0.000346	3.463540	0.586740	0.006928
 505	2.5200e-01	5.0368	2.562117	0.000492	4.917372	0.833025	0.009835
 506	2.5250e-01	5.0482	2.568959	0.000068	0.684156	0.115899	0.001368
 507	2.5300e-01	5.0549	2.635668	0.000667	6.670522	1.130017	0.013342
 508	2.5350e-01	5.0668	2.660471	0.000248	2.480066	0.420135	0.004960
 509	2.5400e-01	5.0751	2.691260	0.000308	3.078702	0.521546	0.006158
 510	2.5450e-01	5.0858	2.740009	0.000487	4.874612	0.825782	0.009750
 511	2.5500e-01	5.0983	2.765239	0.000252	2.522826	0.427378	0.005046
 512	2.5550e-01	5.1089	2.799449	0.000342	3.420780	0.579496	0.006842
 513	2.5600e-01	5.1160	2.836225	0.000368	3.677339	0.622958	0.007355
 514	2.5650e-01	5.1257	2.872573	0.000363	3.634579	0.615714	0.007270
 515	2.5700e-01	5.1379	2.910631	0.000381	3.805618	0.644689	0.007612
 516	2.5750e-01	5.1453	2.943559	0.000329	3.292501	0.557765	0.006585
 517	2.5800e-01	5.1572	2.958098	0.000145	1.453832	0.246286	0.002908
 518	2.5850e-01	5.1669	2.991453	0.000334	3.335261	0.565008	0.006671
 519	2.5900e-01	5.1776	3.037636	0.000462	4.618053	0.782319	0.009237
 520	2.5950e-01	5.1877	3.070991	0.000334	3.335261	0.565008	0.006671
 521	2.6000e-01	5.1981	3.114181	0.000432	4.318735	0.731614	0.008638
 522	2.6050e-01	5.2075	3.128293	0.000141	1.411072	0.239042	0.002822
 523	2.6100e-01	5.2148	3.185167	0.000569	5.687047	0.963412	0.011375
 524	2.6150e-01	5.2283	3.200561	0.000154	1.539351	0.260773	0.003079
 525	2.6200e-01	5.2380	3.235627	0.000351	3.506300	0.593983	0.007013
 526	2.6250e-01	5.2478	3.281383	0.000458	4.575294	0.775076	0.009151
 527	2.6300e-01	5.2585	3.301909	0.000205	2.052468	0.347698	0.004105
 528	2.6350e-01	5.2686	3.333553	0.000316	3.164222	0.536034	0.006329
 529	2.6400e-01	5.2783	3.373750	0.000402	4.019417	0.680908	0.008039
 530	2.6450e-01	5.2893	3.412664	0.000389	3.891138	0.659177	0.007783
 531	2.6500e-01	5.2975	3.449012	0.000363	3.634579	0.615714	0.007270
 532	2.6550e-01	5.3101	3.499044	0.000500	5.002891	0.847513	0.010006
 533	2.6600e-01	5.3200	3.511873	0.000128	1.282793	0.217311	0.002566
 534	2.6650e-01	5.3278	3.552069	0.000402	4.019417	0.680908	0.008039
 535	2.6700e-01	5.3355	3.584996	0.000329	3.292501	0.557765	0.006585
 536	2.6750e-01	5.3485	3.615786	0.000308	3.078702	0.521546	0.006158
 537	2.6800e-01	5.3607	3.637594	0.000218	2.180747	0.369429	0.004362
 538	2.6850e-01	5.3668	3.680357	0.000428	4.275975	0.724370	0.008553
 539	2.6900e-01	5.3769	3.686771	0.000064	0.641396	0.108655	0.001283
 540	2.6950e-01	5.3851	3.751343	0.000646	6.456723	1.093798	0.012914
 541	2.7000e-01	5.3961	3.791539	0.000402	4.019417	0.680908	0.008039
 542	2.7050e-01	5.4096	3.809927	0.000184	1.838669	0.311479	0.003678
 543	2.7100e-01	5.4181	3.849697	0.000398	3.976657	0.673664	0.007954
 544	2.7150e-01	5.4236	3.889038	0.000393	3.933897	0.666420	0.007868
 545	2.7200e-01	5.4386	3.914268	0.000252	2.522826	0.427378	0.005046
 546	2.7250e-01	5.4471	3.941208	0.000269	2.693865	0.456353	0.005388
 547	2.7300e-01	5.4562	3.990385	0.000492	4.917372	0.833025	0.009835
 548	2.7350e-01	5.4654	3.997227	0.000068	0.684156	0.115899	0.001368
 549	2.7400e-01	5.4800	4.051536	0.000543	5.430489	0.919950	0.010862
 550	2.7450e-01	5.4861	4.091732	0.000402	4.019417	0.680908	0.008039
 551	2.7500e-01	5.4965	4.119528	0.000278	2.779384	0.470840	0.005559
 552	2.7550e-01	5.5078	4.155876	0.000363	3.634579	0.615714	0.007270
 553	2.7600e-01	5.5177	4.173836	0.000180	1.795910	0.304235	0.003592
 554	2.7650e-01	5.5273	4.202060	0.000282	2.822144	0.478084	0.005645
 555	2.7700e-01	5.5389	4.234987	0.000329	3.292501	0.557765	0.006585
 556	2.7750e-01	5.5481	4.282881	0.000479	4.789093	0.811294	0.009579
 557	2.7800e-01	5.5582	4.310249	0.000274	2.736624	0.463597	0.005474
 558	2.7850e-01	5.5670	4.344887	0.000346	3.463540	0.586740	0.006928
 559	2.7900e-01	5.5762	4.394491	0.000496	4.960132	0.840269	0.009921
 560	2.7950e-01	5.5872	4.394919	0.000004	0.042760	0.007244	0.000086
 561	2.8000e-01	5.5981	4.449655	0.000547	5.473249	0.927193	0.010947
 562	2.8050e-01	5.6122	4.483437	0.000338	3.378021	0.572252	0.006756
 563	2.8100e-01	5.6166	4.509095	0.000257	2.565585	0.434622	0.005132
 564	2.8150e-01	5.6258	4.566396	0.000573	5.729807	0.970656	0.011460
 565	2.8200e-01	5.6361	4.565969	-0.000004	-0.042760	-0.007244	-0.000086
 566	2.8250e-01	5.6476	4.606166	0.000402	4.019417	0.680908	0.008039
 567	2.8300e-01	5.6573	4.651494	0.000453	4.532534	0.767832	0.009066
 568	2.8350e-01	5.6680	4.672020	0.000205	2.052468	0.347698	0.004105
 569	2.8400e-01	5.6793	4.699388	0.000274	2.736624	0.463597	0.005474
 570	2.8450e-01	5.6854	4.757117	0.000577	5.772567	0.977899	0.011546
 571	2.8500e-01	5.6998	4.800735	0.000436	4.361495	0.738857	0.008724
 572	2.8550e-01	5.7068	4.816985	0.000162	1.624871	0.275261	0.003250
 573	2.8600e-01	5.7169	4.847346	0.000304	3.035943	0.514303	0.006072
 574	2.8650e-01	5.7269	4.903365	0.000560	5.601528	0.948925	0.011204
 575	2.8700e-01	5.7367	4.919615	0.000162	1.624871	0.275261	0.003250
 576	2.8750e-01	5.7483	4.933727	0.000141	1.411072	0.239042	0.002822
 577	2.8800e-01	5.7565	4.958956	0.000252	2.522826	0.427378	0.005046
 578	2.8850e-01	5.7672	5.008133	0.000492	4.917372	0.833025	0.009835
 579	2.8900e-01	5.7782	5.063297	0.000552	5.516008	0.934437	0.011033
 580	2.8950e-01	5.7874	5.081257	0.000180	1.795910	0.304235	0.003592
 581	2.9000e-01	5.7948	5.108625	0.000274	2.736624	0.463597	0.005474
 582	2.9050e-01	5.8059	5.131289	0.000227	2.266267	0.383916	0.004533
 583	2.9100e-01	5.8167	5.172342	0.000410	4.104936	0.695395	0.008210
 584	2.9150e-01	5.8255	5.212111	0.000398	3.976657	0.673664	0.007954
 585	2.9200e-01	5.8380	5.224512	0.000124	1.240033	0.210067	0.002480
 586	2.9250e-01	5.8484	5.267702	0.000432	4.318735	0.731614	0.008638
 587	2.9300e-01	5.8572	5.303622	0.000359	3.591819	0.608471	0.007184
 588	2.9350e-01	5.8685	5.357931	0.000543	5.430489	0.919950	0.010862
 589	2.9400e-01	5.8783	5.385299	0.000274	2.736624	0.463597	0.005474
 590	2.9450e-01	5.8862	5.406253	0.000210	2.095228	0.354941	0.004191
 591	2.9500e-01	5.8957	5.439180	0.000329	3.292501	0.557765	0.006585
 592	2.9550e-01	5.9079	5.469969	0.000308	3.078702	0.521546	0.006158
 593	2.9600e-01	5.9149	5.526843	0.000569	5.687047	0.963412	0.011375
 594	2.9650e-01	5.9271	5.547797	0.000210	2.095228	0.354941	0.004191
 595	2.9700e-01	5.9357	5.587566	0.000398	3.976657	0.673664	0.007954
 596	2.9750e-01	5.9473	5.614506	0.000269	2.693865	0.456353	0.005388
 597	2.9800e-01	5.9570	5.638453	0.000239	2.394546	0.405647	0.004789
 598	2.9850e-01	5.9669	5.657696	0.000192	1.924189	0.325966	0.003849
 599	2.9900e-01	5.9760	5.704735	0.000470	4.703573	0.796807	0.009408
 600	2.9950e-01	5.9882	5.729537	0.000248	2.480066	0.420135	0.004960
 601	3.0000e-01	5.9967	5.768879	0.000393	3.933897	0.666420	0.007868
 602	3.0050e-01	6.0066	5.811641	0.000428	4.275975	0.724370	0.008553
 603	3.0100e-01	6.0181	5.842003	0.000304	3.035943	0.514303	0.006072
 604	3.0150e-01	6.0284	5.877923	0.000359	3.591819	0.608471	0.007184
 605	3.0200e-01	6.0388	5.917265	0.000393	3.933897	0.666420	0.007868
 606	3.0250e-01	6.0492	5.937363	0.000201	2.009708	0.340454	0.004020
 607	3.0300e-01	6.0587	5.983547	0.000462	4.618053	0.782319	0.009237
 608	3.0350e-01	6.0651	6.017329	0.000338	3.378021	0.572252	0.006756
 609	3.0400e-01	6.0764	6.031868	0.000145	1.453832	0.246286	0.002908
 610	3.0450e-01	6.0878	6.049829	0.000180	1.795910	0.304235	0.003592
 611	3.0500e-01	6.0986	6.120814	0.000710	7.098119	1.202454	0.014197
 612	3.0550e-01	6.1057	6.127656	0.000068	0.684156	0.115899	0.001368
 613	3.0600e-01	6.1185	6.166143	0.000385	3.848378	0.651933	0.007697
 614	3.0650e-01	6.1285	6.190517	0.000244	2.437306	0.412891	0.004875
 615	3.0700e-01	6.1383	6.217885	0.000274	2.736624	0.463597	0.005474
 616	3.0750e-01	6.1511	6.247819	0.000299	2.993183	0.507059	0.005987
 617	3.0800e-01	6.1598	6.299989	0.000522	5.216690	0.883731	0.010434
 618	3.0850e-01	6.1636	6.326075	0.000261	2.608345	0.441866	0.005217
 619	3.0900e-01	6.1780	6.358146	0.000321	3.206982	0.543277	0.006414
 620	3.0950e-01	6.1862	6.388080	0.000299	2.993183	0.507059	0.005987
 621	3.1000e-01	6.2006	6.424001	0.000359	3.591819	0.608471	0.007184
 622	3.1050e-01	6.2091	6.444954	0.000210	2.095228	0.354941	0.004191
 623	3.1100e-01	6.2202	6.489427	0.000445	4.447014	0.753345	0.008895
 624	3.1150e-01	6.2305	6.519361	0.000299	2.993183	0.507059	0.005987
 625	3.1200e-01	6.2372	6.549723	0.000304	3.035943	0.514303	0.006072
 626	3.1250e-01	6.2463	6.579656	0.000299	2.993183	0.507059	0.005987
 627	3.1300e-01	6.2587	6.626695	0.000470	4.703573	0.796807	0.009408
 628	3.1350e-01	6.2683	6.630544	0.000038	0.384838	0.065193	0.000770
 629	3.1400e-01	6.2778	6.671596	0.000410	4.104936	0.695395	0.008210
 630	3.1450e-01	6.2872	6.715641	0.000440	4.404255	0.746101	0.008809
 631	3.1500e-01	6.2979	6.749851	0.000342	3.420780	0.579496	0.006842
 632	3.1550e-01	6.3077	6.763535	0.000137	1.368312	0.231798	0.002737
 633	3.1600e-01	6.3168	6.809291	0.000458	4.575294	0.775076	0.009151
 634	3.1650e-01	6.3245	6.830245	0.000210	2.095228	0.354941	0.004191
 635	3.1700e-01	6.3348	6.867448	0.000372	3.720099	0.630202	0.007441
 636	3.1750e-01	6.3477	6.903369	0.000359	3.591819	0.608471	0.007184
 637	3.1800e-01	6.3550	6.930309	0.000269	2.693865	0.456353	0.005388
 638	3.1850e-01	6.3666	6.952546	0.000222	2.223507	0.376672	0.004447
 639	3.1900e-01	6.3760	7.004716	0.000522	5.216690	0.883731	0.010434
 640	3.1950e-01	6.3873	7.031656	0.000269	2.693865	0.456353	0.005388
 641	3.2000e-01	6.3977	7.044057	0.000124	1.240033	0.210067	0.002480
 642	3.2050e-01	6.4053	7.100076	0.000560	5.601528	0.948925	0.011204
 643	3.2100e-01	6.4154	7.136424	0.000363	3.634579	0.615714	0.007270
 644	3.2150e-01	6.4270	7.138990	0.000026	0.256559	0.043462	0.000513
 645	3.2200e-01	6.4352	7.195437	0.000564	5.644288	0.956168	0.011289
 646	3.2250e-01	6.4471	7.228364	0.000329	3.292501	0.557765	0.006585
 647	3.2300e-01	6.4572	7.256159	0.000278	2.779384	0.470840	0.005559
 648	3.2350e-01	6.4673	7.280962	0.000248	2.480066	0.420135	0.004960
 649	3.2400e-01	6.4807	7.318165	0.000372	3.720099	0.630202	0.007441
 650	3.2450e-01	6.4874	7.343395	0.000252	2.522826	0.427378	0.005046
 651	3.2500e-01	6.4972	7.392572	0.000492	4.917372	0.833025	0.009835
 652	3.2550e-01	6.5082	7.393427	0.000009	0.085520	0.014487	0.000171
 653	3.2600e-01	6.5167	7.434052	0.000406	4.062177	0.688151	0.008125
 654	3.2650e-01	6.5290	7.488788	0.000547	5.473249	0.927193	0.010947
 655	3.2700e-01	6.5363	7.521715	0.000329	3.292501	0.557765	0.006585
 656	3.2750e-01	6.5466	7.527702	0.000060	0.598637	0.101412	0.001197
 657	3.2800e-01	6.5582	7.573030	0.000453	4.532534	0.767832	0.009066
 658	3.2850e-01	6.5674	7.617503	0.000445	4.447014	0.753345	0.008895
 659	3.2900e-01	6.5790	7.643588	0.000261	2.608345	0.441866	0.005217
 660	3.2950e-01	6.5869	7.654279	0.000107	1.068994	0.181092	0.002138
 661	3.3000e-01	6.5955	7.699179	0.000449	4.489774	0.760588	0.008980
 662	3.3050e-01	6.6083	7.740231	0.000410	4.104936	0.695395	0.008210
 663	3.3100e-01	6.6199	7.756053	0.000158	1.582111	0.268017	0.003164
 664	3.3150e-01	6.6309	7.782566	0.000265	2.651105	0.449109	0.005303
 665	3.3200e-01	6.6370	7.836447	0.000539	5.387729	0.912706	0.010776
 666	3.3250e-01	6.6504	7.871512	0.000351	3.506300	0.593983	0.007013
 667	3.3300e-01	6.6565	7.885624	0.000141	1.411072	0.239042	0.002822
 668	3.3350e-01	6.6689	7.919406	0.000338	3.378021	0.572252	0.006756
 669	3.3400e-01	6.6797	7.954472	0.000351	3.506300	0.593983	0.007013
 670	3.3450e-01	6.6872	7.984833	0.000304	3.035943	0.514303	0.006072
 671	3.3500e-01	6.6965	8.009208	0.000244	2.437306	0.412891	0.004875
 672	3.3550e-01	6.7099	8.035720	0.000265	2.651105	0.449109	0.005303
 673	3.3600e-01	6.7175	8.062233	0.000265	2.651105	0.449109	0.005303
 674	3.3650e-01	6.7273	8.102430	0.000402	4.019417	0.680908	0.008039
 675	3.3700e-01	6.7349	8.150324	0.000479	4.789093	0.811294	0.009579
 676	3.3750e-01	6.7462	8.190093	0.000398	3.976657	0.673664	0.007954
 677	3.3800e-01	6.7603	8.204205	0.000141	1.411072	0.239042	0.002822
 678	3.3850e-01	6.7657	8.226014	0.000218	2.180747	0.369429	0.004362
 679	3.3900e-01	6.7761	8.265783	0.000398	3.976657	0.673664	0.007954
 680	3.3950e-01	6.7889	8.297855	0.000321	3.206982	0.543277	0.006414
 681	3.4000e-01	6.7978	8.344893	0.000470	4.703573	0.796807	0.009408
 682	3.4050e-01	6.8085	8.360288	0.000154	1.539351	0.260773	0.003079
 683	3.4100e-01	6.8176	8.378676	0.000184	1.838669	0.311479	0.003678
 684	3.4150e-01	6.8262	8.421866	0.000432	4.318735	0.731614	0.008638
 685	3.4200e-01	6.8396	8.452227	0.000304	3.035943	0.514303	0.006072
 686	3.4250e-01	6.8484	8.474036	0.000218	2.180747	0.369429	0.004362
 687	3.4300e-01	6.8567	8.509529	0.000355	3.549060	0.601227	0.007099
 688	3.4350e-01	6.8689	8.523641	0.000141	1.411072	0.239042	0.002822
 689	3.4400e-01	6.8774	8.571535	0.000479	4.789093	0.811294	0.009579
 690	3.4450e-01	6.8869	8.587785	0.000162	1.624871	0.275261	0.003250
 691	3.4500e-01	6.8964	8.623277	0.000355	3.549060	0.601227	0.007099
 692	3.4550e-01	6.9044	8.666895	0.000436	4.361495	0.738857	0.008724
 693	3.4600e-01	6.9183	8.707520	0.000406	4.062177	0.688151	0.008125
 694	3.4650e-01	6.9281	8.724625	0.000171	1.710390	0.289748	0.003421
 695	3.4700e-01	6.9397	8.749855	0.000252	2.522826	0.427378	0.005046
 696	3.4750e-01	6.9495	8.790051	0.000402	4.019417	0.680908	0.008039
 697	3.4800e-01	6.9598	8.830676	0.000406	4.062177	0.688151	0.008125
 698	3.4850e-01	6.9684	8.862748	0.000321	3.206982	0.543277	0.006414
 699	3.4900e-01	6.9754	8.891399	0.000286	2.864904	0.485328	0.005730
 700	3.4950e-01	6.9873	8.913635	0.000222	2.223507	0.376672	0.004447
 701	3.5000e-01	6.9960	8.960674	0.000470	4.703573	0.796807	0.009408
 702	3.5050e-01	7.0090	8.976924	0.000162	1.624871	0.275261	0.003250
 703	3.5100e-01	7.0184	9.016265	0.000393	3.933897	0.666420	0.007868
 704	3.5150e-01	7.0284	9.038929	0.000227	2.266267	0.383916	0.004533
 705	3.5200e-01	7.0380	9.075705	0.000368	3.677339	0.622958	0.007355
 706	3.5250e-01	7.0483	9.101790	0.000261	2.608345	0.441866	0.005217
 707	3.5300e-01	7.0587	9.120606	0.000188	1.881429	0.318723	0.003763
 708	3.5350e-01	7.0667	9.195440	0.000748	7.482957	1.267647	0.014967
 709	3.5400e-01	7.0782	9.200144	0.000047	0.470357	0.079681	0.000941
 710	3.5450e-01	7.0877	9.216394	0.000162	1.624871	0.275261	0.003250
 711	3.5500e-01	7.0981	9.260439	0.000440	4.404255	0.746101	0.008809
 712	3.5550e-01	7.1078	9.292083	0.000316	3.164222	0.536034	0.006329
 713	3.5600e-01	7.1152	9.316458	0.000244	2.437306	0.412891	0.004875
 714	3.5650e-01	7.1277	9.348530	0.000321	3.206982	0.543277	0.006414
 715	3.5700e-01	7.1368	9.390865	0.000423	4.233216	0.717126	0.008467
 716	3.5750e-01	7.1474	9.407115	0.000162	1.624871	0.275261	0.003250
 717	3.5800e-01	7.1524	9.470403	0.000633	6.328444	1.072067	0.012658
 718	3.5850e-01	7.1651	9.462278	-0.000081	-0.812435	-0.137630	-0.001625
 719	3.5900e-01	7.1759	9.505041	0.000428	4.275975	0.724370	0.008553
 720	3.5950e-01	7.1887	9.522573	0.000175	1.753150	0.296992	0.003507
 721	3.6000e-01	7.1997	9.583724	0.000611	6.114645	1.035849	0.012230
 722	3.6050e-01	7.2055	9.603822	0.000201	2.009708	0.340454	0.004020
 723	3.6100e-01	7.2180	9.619644	0.000158	1.582111	0.268017	0.003164
 724	3.6150e-01	7.2266	9.668394	0.000487	4.874612	0.825782	0.009750
 725	3.6200e-01	7.2363	9.671387	0.000030	0.299318	0.050706	0.000599
 726	3.6250e-01	7.2473	9.707308	0.000359	3.591819	0.608471	0.007184
 727	3.6300e-01	7.2609	9.744939	0.000376	3.762858	0.637445	0.007526
 728	3.6350e-01	7.2705	9.804378	0.000594	5.943606	1.006874	0.011888
 729	3.6400e-01	7.2748	9.821483	0.000171	1.710390	0.289748	0.003421
 730	3.6450e-01	7.2865	9.836878	0.000154	1.539351	0.260773	0.003079
 731	3.6500e-01	7.3001	9.890331	0.000534	5.344969	0.905462	0.010691
 732	3.6550e-01	7.3077	9.906581	0.000162	1.624871	0.275261	0.003250
 733	3.6600e-01	7.3151	9.932666	0.000261	2.608345	0.441866	0.005217
 734	3.6650e-01	7.3291	9.964310	0.000316	3.164222	0.536034	0.006329
 735	3.6700e-01	7.3398	10.005790	0.000415	4.147696	0.702639	0.008296
 736	3.6750e-01	7.3474	10.025888	0.000201	2.009708	0.340454	0.004020
 737	3.6800e-01	7.3578	10.045559	0.000197	1.966949	0.333210	0.003934
 738	3.6850e-01	7.3694	10.092598	0.000470	4.703573	0.796807	0.009408
 739	3.6900e-01	7.3767	10.131084	0.000385	3.848378	0.651933	0.007697
 740	3.6950e-01	7.3883	10.149900	0.000188	1.881429	0.318723	0.003763
 741	3.7000e-01	7.4005	10.197366	0.000475	4.746333	0.804051	0.009493
 742	3.7050e-01	7.4091	10.211478	0.000141	1.411072	0.239042	0.002822
 743	3.7100e-01	7.4176	10.237135	0.000257	2.565585	0.434622	0.005132
 744	3.7150e-01	7.4298	10.276904	0.000398	3.976657	0.673664	0.007954
 745	3.7200e-01	7.4359	10.312397	0.000355	3.549060	0.601227	0.007099
 746	3.7250e-01	7.4469	10.337627	0.000252	2.522826	0.427378	0.005046
 747	3.7300e-01	7.4573	10.354732	0.000171	1.710390	0.289748	0.003421
 748	3.7350e-01	7.4664	10.400488	0.000458	4.575294	0.775076	0.009151
 749	3.7400e-01	7.4785	10.434698	0.000342	3.420780	0.579496	0.006842
 750	3.7450e-01	7.4878	10.462494	0.000278	2.779384	0.470840	0.005559
 751	3.7500e-01	7.5006	10.474467	0.000120	1.197273	0.202824	0.002395
 752	3.7550e-01	7.5098	10.523644	0.000492	4.917372	0.833025	0.009835
 753	3.7600e-01	7.5195	10.548019	0.000244	2.437306	0.412891	0.004875
 754	3.7650e-01	7.5275	10.581801	0.000338	3.378021	0.572252	0.006756
 755	3.7700e-01	7.5372	10.619432	0.000376	3.762858	0.637445	0.007526
 756	3.7750e-01	7.5500	10.638675	0.000192	1.924189	0.325966	0.003849
 757	3.7800e-01	7.5574	10.689135	0.000505	5.045651	0.854756	0.010092
 758	3.7850e-01	7.5687	10.680583	-0.000086	-0.855195	-0.144874	-0.001711
 759	3.7900e-01	7.5757	10.748575	0.000680	6.798801	1.151748	0.013598
 760	3.7950e-01	7.5873	10.753279	0.000047	0.470357	0.079681	0.000941
 761	3.8000e-01	7.5992	10.773805	0.000205	2.052468	0.347698	0.004105
 762	3.8050e-01	7.6068	10.832390	0.000586	5.858086	0.992387	0.011717
 763	3.8100e-01	7.6172	10.864889	0.000325	3.249741	0.550521	0.006500
 764	3.8150e-01	7.6263	10.887126	0.000222	2.223507	0.376672	0.004447
 765	3.8200e-01	7.6373	10.908507	0.000214	2.137988	0.362185	0.004276
 766	3.8250e-01	7.6465	10.935447	0.000269	2.693865	0.456353	0.005388
 767	3.8300e-01	7.6563	10.972223	0.000368	3.677339	0.622958	0.007355
 768	3.8350e-01	7.6685	11.020117	0.000479	4.789093	0.811294	0.009579
 769	3.8400e-01	7.6770	11.050479	0.000304	3.035943	0.514303	0.006072
 770	3.8450e-01	7.6892	11.056038	0.000056	0.555877	0.094168	0.001112
 771	3.8500e-01	7.6971	11.110346	0.000543	5.430489	0.919950	0.010862
 772	3.8550e-01	7.7075	11.128734	0.000184	1.838669	0.311479	0.003678
 773	3.8600e-01	7.7161	11.154391	0.000257	2.565585	0.434622	0.005132
 774	3.8650e-01	7.7258	11.190312	0.000359	3.591819	0.608471	0.007184
 775	3.8700e-01	7.7374	11.194588	0.000043	0.427598	0.072437	0.000855
 776	3.8750e-01	7.7466	11.245903	0.000513	5.131171	0.869244	0.010263
 777	3.8800e-01	7.7563	11.274554	0.000286	2.864904	0.485328	0.005730
 778	3.8850e-01	7.7679	11.305343	0.000308	3.078702	0.521546	0.006158
 779	3.8900e-01	7.7777	11.338698	0.000334	3.335261	0.565008	0.006671
 780	3.8950e-01	7.7869	11.379750	0.000410	4.104936	0.695395	0.008210
 781	3.9000e-01	7.7948	11.412677	0.000329	3.292501	0.557765	0.006585
 782	3.9050e-01	7.8073	11.447742	0.000351	3.506300	0.593983	0.007013
 783	3.9100e-01	7.8180	11.472972	0.000252	2.522826	0.427378	0.005046
 784	3.9150e-01	7.8259	11.515735	0.000428	4.275975	0.724370	0.008553
 785	3.9200e-01	7.8400	11.512314	-0.000034	-0.342078	-0.057950	-0.000684
 786	3.9250e-01	7.8473	11.565339	0.000530	5.302210	0.898219	0.010605
 787	3.9300e-01	7.8595	11.600832	0.000355	3.549060	0.601227	0.007099
 788	3.9350e-01	7.8680	11.617510	0.000167	1.667630	0.282504	0.003335
 789	3.9400e-01	7.8790	11.643595	0.000261	2.608345	0.441866	0.005217
 790	3.9450e-01	7.8888	11.685074	0.000415	4.147696	0.702639	0.008296
 791	3.9500e-01	7.8961	11.705600	0.000205	2.052468	0.347698	0.004105
 792	3.9550e-01	7.9071	11.719712	0.000141	1.411072	0.239042	0.002822
 793	3.9600e-01	7.9199	11.776159	0.000564	5.644288	0.956168	0.011289
 794	3.9650e-01	7.9288	11.780863	0.000047	0.470357	0.079681	0.000941
 795	3.9700e-01	7.9376	11.839020	0.000582	5.815327	0.985143	0.011631
 796	3.9750e-01	7.9456	11.862967	0.000239	2.394546	0.405647	0.004789
 797	3.9800e-01	7.9585	11.888196	0.000252	2.522826	0.427378	0.005046
 798	3.9850e-01	7.9688	11.919413	0.000312	3.121462	0.528790	0.006243
 799	3.9900e-01	7.9803	11.957044	0.000376	3.762858	0.637445	0.007526
 800	3.9950e-01	7.9877	11.977143	0.000201	2.009708	0.340454	0.004020
 801	4.0000e-01	8.0005	12.031023	0.000539	5.387729	0.912706	0.010776
 802	4.0050e-01	8.0084	12.031879	0.000009	0.085520	0.014487	0.000171
 803	4.0100e-01	8.0164	12.069510	0.000376	3.762858	0.637445	0.007526
 804	4.0150e-01	8.0267	12.096022	0.000265	2.651105	0.449109	0.005303
 805	4.0200e-01	8.0359	12.149475	0.000534	5.344969	0.905462	0.010691
 806	4.0250e-01	8.0478	12.150331	0.000009	0.085520	0.014487	0.000171
 807	4.0300e-01	8.0591	12.202929	0.000526	5.259450	0.890975	0.010520
 808	4.0350e-01	8.0688	12.247829	0.000449	4.489774	0.760588	0.008980
 809	4.0400e-01	8.0774	12.256382	0.000086	0.855195	0.144874	0.001711
 810	4.0450e-01	8.0856	12.289309	0.000329	3.292501	0.557765	0.006585
 811	4.0500e-01	8.0963	12.319670	0.000304	3.035943	0.514303	0.006072
 812	4.0550e-01	8.1055	12.342334	0.000227	2.266267	0.383916	0.004533
 813	4.0600e-01	8.1183	12.388946	0.000466	4.660813	0.789563	0.009322
 814	4.0650e-01	8.1281	12.426149	0.000372	3.720099	0.630202	0.007441
 815	4.0700e-01	8.1387	12.452234	0.000261	2.608345	0.441866	0.005217
 816	4.0750e-01	8.1482	12.493714	0.000415	4.147696	0.702639	0.008296
 817	4.0800e-01	8.1558	12.509108	0.000154	1.539351	0.260773	0.003079
 818	4.0850e-01	8.1659	12.524075	0.000150	1.496591	0.253529	0.002993
 819	4.0900e-01	8.1757	12.568976	0.000449	4.489774	0.760588	0.008980
 820	4.0950e-01	8.1885	12.592923	0.000239	2.394546	0.405647	0.004789
 821	4.1000e-01	8.1961	12.633547	0.000406	4.062177	0.688151	0.008125
 822	4.1050e-01	8.2056	12.651508	0.000180	1.795910	0.304235	0.003592
 823	4.1100e-01	8.2153	12.689994	0.000385	3.848378	0.651933	0.007697
 824	4.1150e-01	8.2272	12.706671	0.000167	1.667630	0.282504	0.003335
 825	4.1200e-01	8.2379	12.737033	0.000304	3.035943	0.514303	0.006072
 826	4.1250e-01	8.2471	12.776802	0.000398	3.976657	0.673664	0.007954
 827	4.1300e-01	8.2553	12.819564	0.000428	4.275975	0.724370	0.008553
 828	4.1350e-01	8.2678	12.848643	0.000291	2.907663	0.492571	0.005816
 829	4.1400e-01	8.2745	12.879859	0.000312	3.121462	0.528790	0.006243
 830	4.1450e-01	8.2858	12.908510	0.000286	2.864904	0.485328	0.005730
 831	4.1500e-01	8.2959	12.930319	0.000218	2.180747	0.369429	0.004362
 832	4.1550e-01	8.3060	12.953839	0.000235	2.351786	0.398403	0.004704
 833	4.1600e-01	8.3176	13.001305	0.000475	4.746333	0.804051	0.009493
 834	4.1650e-01	8.3264	13.026963	0.000257	2.565585	0.434622	0.005132
 835	4.1700e-01	8.3362	13.068870	0.000419	4.190456	0.709882	0.008381
 836	4.1750e-01	8.3466	13.092389	0.000235	2.351786	0.398403	0.004704
 837	4.1800e-01	8.3569	13.113343	0.000210	2.095228	0.354941	0.004191
 838	4.1850e-01	8.3661	13.156961	0.000436	4.361495	0.738857	0.008724
 839	4.1900e-01	8.3771	13.180052	0.000231	2.309027	0.391160	0.004618
 840	4.1950e-01	8.3856	13.243769	0.000637	6.371203	1.079311	0.012743
 841	4.2000e-01	8.3966	13.223670	-0.000201	-2.009708	-0.340454	-0.004020
 842	4.2050e-01	8.4106	13.265577	0.000419	4.190456	0.709882	0.008381
 843	4.2100e-01	8.4186	13.295084	0.000295	2.950423	0.499815	0.005901
 844	4.2150e-01	8.4271	13.329721	0.000346	3.463540	0.586740	0.006928
 845	4.2200e-01	8.4375	13.361793	0.000321	3.206982	0.543277	0.006414
 846	4.2250e-01	8.4460	13.397286	0.000355	3.549060	0.601227	0.007099
 847	4.2300e-01	8.4552	13.435772	0.000385	3.848378	0.651933	0.007697
 848	4.2350e-01	8.4656	13.471693	0.000359	3.591819	0.608471	0.007184
 849	4.2400e-01	8.4778	13.486232	0.000145	1.453832	0.246286	0.002908
 850	4.2450e-01	8.4883	13.531560	0.000453	4.532534	0.767832	0.009066
 851	4.2500e-01	8.4985	13.545244	0.000137	1.368312	0.231798	0.002737
 852	4.2550e-01	8.5059	13.585014	0.000398	3.976657	0.673664	0.007954
 853	4.2600e-01	8.5178	13.613237	0.000282	2.822144	0.478084	0.005645
 854	4.2650e-01	8.5254	13.641460	0.000282	2.822144	0.478084	0.005645
 855	4.2700e-01	8.5376	13.699617	0.000582	5.815327	0.985143	0.011631
 856	4.2750e-01	8.5498	13.703038	0.000034	0.342078	0.057950	0.000684
 857	4.2800e-01	8.5590	13.737676	0.000346	3.463540	0.586740	0.006928
 858	4.2850e-01	8.5669	13.771886	0.000342	3.420780	0.579496	0.006842
 859	4.2900e-01	8.5776	13.778728	0.000068	0.684156	0.115899	0.001368
 860	4.2950e-01	8.5867	13.833891	0.000552	5.516008	0.934437	0.011033
 861	4.3000e-01	8.5980	13.864680	0.000308	3.078702	0.521546	0.006158
 862	4.3050e-01	8.6086	13.895897	0.000312	3.121462	0.528790	0.006243
 863	4.3100e-01	8.6176	13.921982	0.000261	2.608345	0.441866	0.005217
 864	4.3150e-01	8.6279	13.961751	0.000398	3.976657	0.673664	0.007954
 865	4.3200e-01	8.6383	13.995534	0.000338	3.378021	0.572252	0.006756
 866	4.3250e-01	8.6475	14.010501	0.000150	1.496591	0.253529	0.002993
 867	4.3300e-01	8.6572	14.043428	0.000329	3.292501	0.557765	0.006585
 868	4.3350e-01	8.6670	14.084480	0.000410	4.104936	0.695395	0.008210
 869	4.3400e-01	8.6749	14.116979	0.000325	3.249741	0.550521	0.006500
 870	4.3450e-01	8.6884	14.147341	0.000304	3.035943	0.514303	0.006072
 871	4.3500e-01	8.6963	14.187538	0.000402	4.019417	0.680908	0.008039
 872	4.3550e-01	8.7073	14.196090	0.000086	0.855195	0.144874	0.001711
 873	4.3600e-01	8.7183	14.232866	0.000368	3.677339	0.622958	0.007355
 874	4.3650e-01	8.7280	14.268786	0.000359	3.591819	0.608471	0.007184
 875	4.3700e-01	8.7375	14.296582	0.000278	2.779384	0.470840	0.005559
 876	4.3750e-01	8.7500	14.336779	0.000402	4.019417	0.680908	0.008039
 877	4.3800e-01	8.7579	14.374837	0.000381	3.805618	0.644689	0.007612
 878	4.3850e-01	8.7683	14.387239	0.000124	1.240033	0.210067	0.002480
 879	4.3900e-01	8.7799	14.421021	0.000338	3.378021	0.572252	0.006756
 880	4.3950e-01	8.7866	14.444113	0.000231	2.309027	0.391160	0.004618
 881	4.4000e-01	8.7976	14.489869	0.000458	4.575294	0.775076	0.009151
 882	4.4050e-01	8.8080	14.507829	0.000180	1.795910	0.304235	0.003592
 883	4.4100e-01	8.8196	14.534769	0.000269	2.693865	0.456353	0.005388
 884	4.4150e-01	8.8300	14.557861	0.000231	2.309027	0.391160	0.004618
 885	4.4200e-01	8.8367	14.583519	0.000257	2.565585	0.434622	0.005132
 886	4.4250e-01	8.8477	14.645097	0.000616	6.157405	1.043093	0.012316
 887	4.4300e-01	8.8586	14.657498	0.000124	1.240033	0.210067	0.002480
 888	4.4350e-01	8.8663	14.707530	0.000500	5.002891	0.847513	0.010006
 889	4.4400e-01	8.8770	14.729339	0.000218	2.180747	0.369429	0.004362
 890	4.4450e-01	8.8879	14.746016	0.000167	1.667630	0.282504	0.003335
 891	4.4500e-01	8.8989	14.788351	0.000423	4.233216	0.717126	0.008467
 892	4.4550e-01	8.9063	14.819140	0.000308	3.078702	0.521546	0.006158
 893	4.4600e-01	8.9172	14.876442	0.000573	5.729807	0.970656	0.011460
 894	4.4650e-01	8.9294	14.881146	0.000047	0.470357	0.079681	0.000941
 895	4.4700e-01	8.9380	14.926902	0.000458	4.575294	0.775076	0.009151
 896	4.4750e-01	8.9502	14.948283	0.000214	2.137988	0.362185	0.004276
 897	4.4800e-01	8.9575	14.974796	0.000265	2.651105	0.449109	0.005303
 898	4.4850e-01	8.9667	15.026538	0.000517	5.173930	0.876488	0.010349
 899	4.4900e-01	8.9771	15.035091	0.000086	0.855195	0.144874	0.001711
 900	4.4950e-01	8.9880	15.088972	0.000539	5.387729	0.912706	0.010776
 901	4.5000e-01	8.9972	15.108642	0.000197	1.966949	0.333210	0.003934
 902	4.5050e-01	9.0082	15.146701	0.000381	3.805618	0.644689	0.007612
 903	4.5100e-01	9.0179	15.162523	0.000158	1.582111	0.268017	0.003164
 904	4.5150e-01	9.0283	15.218114	0.000556	5.558768	0.941681	0.011118
 905	4.5200e-01	9.0405	15.238213	0.000201	2.009708	0.340454	0.004020
 906	4.5250e-01	9.0479	15.275416	0.000372	3.720099	0.630202	0.007441
 907	4.5300e-01	9.0559	15.293377	0.000180	1.795910	0.304235	0.003592
 908	4.5350e-01	9.0674	15.308771	0.000154	1.539351	0.260773	0.003079
 909	4.5400e-01	9.0759	15.367783	0.000590	5.900846	0.999630	0.011802
 910	4.5450e-01	9.0887	15.388309	0.000205	2.052468	0.347698	0.004105
 911	4.5500e-01	9.0991	15.430644	0.000423	4.233216	0.717126	0.008467
 912	4.5550e-01	9.1064	15.465709	0.000351	3.506300	0.593983	0.007013
 913	4.5600e-01	9.1180	15.475545	0.000098	0.983474	0.166605	0.001967
 914	4.5650e-01	9.1296	15.527288	0.000517	5.173930	0.876488	0.010349
 915	4.5700e-01	9.1364	15.551662	0.000244	2.437306	0.412891	0.004875
 916	4.5750e-01	9.1492	15.568767	0.000171	1.710390	0.289748	0.003421
 917	4.5800e-01	9.1565	15.618372	0.000496	4.960132	0.840269	0.009921
 918	4.5850e-01	9.1699	15.645312	0.000269	2.693865	0.456353	0.005388
 919	4.5900e-01	9.1779	15.673108	0.000278	2.779384	0.470840	0.005559
 920	4.5950e-01	9.1864	15.717153	0.000440	4.404255	0.746101	0.008809
 921	4.6000e-01	9.2004	15.740245	0.000231	2.309027	0.391160	0.004618
 922	4.6050e-01	9.2096	15.779586	0.000393	3.933897	0.666420	0.007868
 923	4.6100e-01	9.2163	15.818928	0.000393	3.933897	0.666420	0.007868
 924	4.6150e-01	9.2285	15.846724	0.000278	2.779384	0.470840	0.005559
 925	4.6200e-01	9.2407	15.856131	0.000094	0.940715	0.159361	0.001882
 926	4.6250e-01	9.2456	15.888631	0.000325	3.249741	0.550521	0.006500
 927	4.6300e-01	9.2590	15.927972	0.000393	3.933897	0.666420	0.007868
 928	4.6350e-01	9.2694	15.980570	0.000526	5.259450	0.890975	0.010520
 929	4.6400e-01	9.2776	16.002379	0.000218	2.180747	0.369429	0.004362
 930	4.6450e-01	9.2877	16.031885	0.000295	2.950423	0.499815	0.005901
 931	4.6500e-01	9.2999	16.051556	0.000197	1.966949	0.333210	0.003934
 932	4.6550e-01	9.3073	16.086621	0.000351	3.506300	0.593983	0.007013
 933	4.6600e-01	9.3176	16.135798	0.000492	4.917372	0.833025	0.009835
 934	4.6650e-01	9.3262	16.150765	0.000150	1.496591	0.253529	0.002993
 935	4.6700e-01	9.3396	16.165304	0.000145	1.453832	0.246286	0.002908
 936	4.6750e-01	9.3484	16.228165	0.000629	6.285684	1.064824	0.012572
 937	4.6800e-01	9.3573	16.270073	0.000419	4.190456	0.709882	0.008381
 938	4.6850e-01	9.3677	16.277342	0.000073	0.726916	0.123143	0.001454
 939	4.6900e-01	9.3787	16.336355	0.000590	5.900846	0.999630	0.011802
 940	4.6950e-01	9.3866	16.373986	0.000376	3.762858	0.637445	0.007526
 941	4.7000e-01	9.3982	16.378262	0.000043	0.427598	0.072437	0.000855
 942	4.7050e-01	9.4080	16.413755	0.000355	3.549060	0.601227	0.007099
 943	4.7100e-01	9.4171	16.455662	0.000419	4.190456	0.709882	0.008381
 944	4.7150e-01	9.4290	16.492010	0.000363	3.634579	0.615714	0.007270
 945	4.7200e-01	9.4385	16.519806	0.000278	2.779384	0.470840	0.005559
 946	4.7250e-01	9.4476	16.547174	0.000274	2.736624	0.463597	0.005474
 947	4.7300e-01	9.4592	16.595068	0.000479	4.789093	0.811294	0.009579
 948	4.7350e-01	9.4708	16.599344	0.000043	0.427598	0.072437	0.000855
 949	4.7400e-01	9.4769	16.643390	0.000440	4.404255	0.746101	0.008809
 950	4.7450e-01	9.4867	16.676317	0.000329	3.292501	0.557765	0.006585
 951	4.7500e-01	9.4977	16.725921	0.000496	4.960132	0.840269	0.009921
 952	4.7550e-01	9.5087	16.743026	0.000171	1.710390	0.289748	0.003421
 953	4.7600e-01	9.5172	16.758421	0.000154	1.539351	0.260773	0.003079
 954	4.7650e-01	9.5282	16.802038	0.000436	4.361495	0.738857	0.008724
 955	4.7700e-01	9.5367	16.837959	0.000359	3.591819	0.608471	0.007184
 956	4.7750e-01	9.5471	16.886281	0.000483	4.831852	0.818538	0.009664
 957	4.7800e-01	9.5581	16.911938	0.000257	2.565585	0.434622	0.005132
 958	4.7850e-01	9.5670	16.926477	0.000145	1.453832	0.246286	0.002908
 959	4.7900e-01	9.5747	16.963681	0.000372	3.720099	0.630202	0.007441
 960	4.7950e-01	9.5898	16.996608	0.000329	3.292501	0.557765	0.006585
 961	4.8000e-01	9.5953	17.039798	0.000432	4.318735	0.731614	0.008638
 962	4.8050e-01	9.6057	17.067166	0.000274	2.736624	0.463597	0.005474
 963	4.8100e-01	9.6176	17.121475	0.000543	5.430489	0.919950	0.010862
 964	4.8150e-01	9.6283	17.142856	0.000214	2.137988	0.362185	0.004276
 965	4.8200e-01	9.6375	17.181770	0.000389	3.891138	0.659177	0.007783
 966	4.8250e-01	9.6503	17.213842	0.000321	3.206982	0.543277	0.006414
 967	4.8300e-01	9.6576	17.254466	0.000406	4.062177	0.688151	0.008125
 968	4.8350e-01	9.6704	17.260880	0.000064	0.641396	0.108655	0.001283
 969	4.8400e-01	9.6759	17.296373	0.000355	3.549060	0.601227	0.007099
 970	4.8450e-01	9.6875	17.335715	0.000393	3.933897	0.666420	0.007868
 971	4.8500e-01	9.6954	17.379760	0.000440	4.404255	0.746101	0.008809
 972	4.8550e-01	9.7058	17.416108	0.000363	3.634579	0.615714	0.007270
 973	4.8600e-01	9.7156	17.446897	0.000308	3.078702	0.521546	0.006158
 974	4.8650e-01	9.7278	17.458871	0.000120	1.197273	0.202824	0.002395
 975	4.8700e-01	9.7382	17.509758	0.000509	5.088411	0.862000	0.010177
 976	4.8750e-01	9.7449	17.534561	0.000248	2.480066	0.420135	0.004960
 977	4.8800e-01	9.7571	17.565777	0.000312	3.121462	0.528790	0.006243
 978	4.8850e-01	9.7675	17.592718	0.000269	2.693865	0.456353	0.005388
 979	4.8900e-01	9.7766	17.632487	0.000398	3.976657	0.673664	0.007954
 980	4.8950e-01	9.7852	17.689789	0.000573	5.729807	0.970656	0.011460
 981	4.9000e-01	9.7974	17.717157	0.000274	2.736624	0.463597	0.005474
 982	4.9050e-01	9.8059	17.749228	0.000321	3.206982	0.543277	0.006414
 983	4.9100e-01	9.8187	17.769754	0.000205	2.052468	0.347698	0.004105
 984	4.9150e-01	9.8279	17.825346	0.000556	5.558768	0.941681	0.011118
 985	4.9200e-01	9.8376	17.847582	0.000222	2.223507	0.376672	0.004447
 986	4.9250e-01	9.8480	17.859556	0.000120	1.197273	0.202824	0.002395
 987	4.9300e-01	9.8592	17.903601	0.000440	4.404255	0.746101	0.008809
 988	4.9350e-01	9.8669	17.944226	0.000406	4.062177	0.688151	0.008125
 989	4.9400e-01	9.8767	17.972876	0.000286	2.864904	0.485328	0.005730
 990	4.9450e-01	9.8877	18.014356	0.000415	4.147696	0.702639	0.008296
 991	4.9500e-01	9.8987	18.029323	0.000150	1.496591	0.253529	0.002993
 992	4.9550e-01	9.9048	18.070375	0.000410	4.104936	0.695395	0.008210
 993	4.9600e-01	9.9170	18.113993	0.000436	4.361495	0.738857	0.008724
 994	4.9650e-01	9.9274	18.161459	0.000475	4.746333	0.804051	0.009493
 995	4.9700e-01	9.9341	18.179419	0.000180	1.795910	0.304235	0.003592
 996	4.9750e-01	9.9475	18.216623	0.000372	3.720099	0.630202	0.007441
 997	4.9800e-01	9.9567	18.227314	0.000107	1.068994	0.181092	0.002138
 998	4.9850e-01	9.9652	18.282477	0.000552	5.516008	0.934437	0.011033
 999	4.9900e-01	9.9768	18.305569	0.000231	2.309027	0.391160	0.004618
1000	4.9950e-01	9.9872	18.314549	0.000090	0.897955	0.152118	0.001796
1001	5.0000e-01	9.9976	18.382114	0.000676	6.756041	1.144504	0.013513
1002	5.0050e-01	9.9847	18.346193	0.000359	3.591819	0.608471	-0.007184
1003	5.0100e-01	9.9780	18.315404	0.000308	3.078702	0.521546	-0.006158
1004	5.0150e-01	9.9686	18.300010	0.000154	1.539351	0.260773	-0.003079
1005	5.0200e-01	9.9554	18.286753	0.000133	1.325552	0.224555	-0.002651
1006	5.0250e-01	9.9457	18.289319	-0.000026	-0.256559	-0.043462	0.000513
1007	5.0300e-01	9.9329	18.263662	0.000257	2.565585	0.434622	-0.005132
1008	5.0350e-01	9.9280	18.261096	0.000026	0.256559	0.043462	-0.000513
1009	5.0400e-01	9.9152	18.237149	0.000239	2.394546	0.405647	-0.004789
1010	5.0450e-01	9.9048	18.226031	0.000111	1.111754	0.188336	-0.002224
1011	5.0500e-01	9.8981	18.207215	0.000188	1.881429	0.318723	-0.003763
1012	5.0550e-01	9.8877	18.189682	0.000175	1.753150	0.296992	-0.003507
1013	5.0600e-01	9.8761	18.164880	0.000248	2.480066	0.420135	-0.004960
1014	5.0650e-01	9.8657	18.135802	0.000291	2.907663	0.492571	-0.005816
1015	5.0700e-01	9.8584	18.102875	0.000329	3.292501	0.557765	-0.006585
1016	5.0750e-01	9.8468	18.116131	-0.000133	-1.325552	-0.224555	0.002651
1017	5.0800e-01	9.8380	18.097743	0.000184	1.838669	0.311479	-0.003678
1018	5.0850e-01	9.8242	18.073368	0.000244	2.437306	0.412891	-0.004875
1019	5.0900e-01	9.8175	18.049421	0.000239	2.394546	0.405647	-0.004789
1020	5.0950e-01	9.8065	18.036165	0.000133	1.325552	0.224555	-0.002651
1021	5.1000e-01	9.7974	18.035310	0.000009	0.085520	0.014487	-0.000171
1022	5.1050e-01	9.7867	18.019060	0.000162	1.624871	0.275261	-0.003250
1023	5.1100e-01	9.7772	17.997251	0.000218	2.180747	0.369429	-0.004362
1024	5.1150e-01	9.7662	17.949357	0.000479	4.789093	0.811294	-0.009579
1025	5.1200e-01	9.7534	17.935673	0.000137	1.368312	0.231798	-0.002737
1026	5.1250e-01	9.7461	17.926265	0.000094	0.940715	0.159361	-0.001882
1027	5.1300e-01	9.7345	17.901891	0.000244	2.437306	0.412891	-0.004875
1028	5.1350e-01	9.7296	17.878371	0.000235	2.351786	0.398403	-0.004704
1029	5.1400e-01	9.7151	17.881792	-0.000034	-0.342078	-0.057950	0.000684
1030	5.1450e-01	9.7058	17.846727	0.000351	3.506300	0.593983	-0.007013
1031	5.1500e-01	9.6930	17.826201	0.000205	2.052468	0.347698	-0.004105
1032	5.1550e-01	9.6875	17.789853	0.000363	3.634579	0.615714	-0.007270
1033	5.1600e-01	9.6765	17.783866	0.000060	0.598637	0.101412	-0.001197
1034	5.1650e-01	9.6655	17.763340	0.000205	2.052468	0.347698	-0.004105
1035	5.1700e-01	9.6594	17.741531	0.000218	2.180747	0.369429	-0.004362
1036	5.1750e-01	9.6439	17.717584	0.000239	2.394546	0.405647	-0.004789
1037	5.1800e-01	9.6362	17.697913	0.000197	1.966949	0.333210	-0.003934
1038	5.1850e-01	9.6265	17.697058	0.000009	0.085520	0.014487	-0.000171
1039	5.1900e-01	9.6158	17.663276	0.000338	3.378021	0.572252	-0.006756
1040	5.1950e-01	9.6045	17.642322	0.000210	2.095228	0.354941	-0.004191
1041	5.2000e-01	9.5953	17.608540	0.000338	3.378021	0.572252	-0.006756
1042	5.2050e-01	9.5862	17.616237	-0.000077	-0.769676	-0.130387	0.001539
1043	5.2100e-01	9.5776	17.574330	0.000419	4.190456	0.709882	-0.008381
1044	5.2150e-01	9.5662	17.548245	0.000261	2.608345	0.441866	-0.005217
1045	5.2200e-01	9.5532	17.549527	-0.000013	-0.128279	-0.021731	0.000257
1046	5.2250e-01	9.5459	17.518311	0.000312	3.121462	0.528790	-0.006243
1047	5.2300e-01	9.5343	17.495647	0.000227	2.266267	0.383916	-0.004533
1048	5.2350e-01	9.5251	17.475121	0.000205	2.052468	0.347698	-0.004105
1049	5.2400e-01	9.5148	17.443904	0.000312	3.121462	0.528790	-0.006243
1050	5.2450e-01	9.5050	17.425944	0.000180	1.795910	0.304235	-0.003592
1051	5.2500e-01	9.4962	17.396865	0.000291	2.907663	0.492571	-0.005816
1052	5.2550e-01	9.4855	17.387030	0.000098	0.983474	0.166605	-0.001967
1053	5.2600e-01	9.4757	17.364366	0.000227	2.266267	0.383916	-0.004533
1054	5.2650e-01	9.4641	17.342557	0.000218	2.180747	0.369429	-0.004362
1055	5.2700e-01	9.4537	17.331866	0.000107	1.068994	0.181092	-0.002138
1056	5.2750e-01	9.4458	17.300650	0.000312	3.121462	0.528790	-0.006243
1057	5.2800e-01	9.4373	17.260453	0.000402	4.019417	0.680908	-0.008039
1058	5.2850e-01	9.4244	17.248479	0.000120	1.197273	0.202824	-0.002395
1059	5.2900e-01	9.4162	17.219828	0.000286	2.864904	0.485328	-0.005730
1060	5.2950e-01	9.4061	17.220684	-0.000009	-0.085520	-0.014487	0.000171
1061	5.3000e-01	9.3945	17.169369	0.000513	5.131171	0.869244	-0.010263
1062	5.3050e-01	9.3860	17.160816	0.000086	0.855195	0.144874	-0.001711
1063	5.3100e-01	9.3756	17.132165	0.000286	2.864904	0.485328	-0.005730
1064	5.3150e-01	9.3652	17.130027	0.000021	0.213799	0.036218	-0.000428
1065	5.3200e-01	9.3570	17.106508	0.000235	2.351786	0.398403	-0.004704
1066	5.3250e-01	9.3488	17.066739	0.000398	3.976657	0.673664	-0.007954
1067	5.3300e-01	9.3344	17.047923	0.000188	1.881429	0.318723	-0.003763
1068	5.3350e-01	9.3237	17.022693	0.000252	2.522826	0.427378	-0.005046
1069	5.3400e-01	9.3158	16.996180	0.000265	2.651105	0.449109	-0.005303
1070	5.3450e-01	9.3060	17.001312	-0.000051	-0.513117	-0.086924	0.001026
1071	5.3500e-01	9.2969	16.961543	0.000398	3.976657	0.673664	-0.007954
1072	5.3550e-01	9.2847	16.920918	0.000406	4.062177	0.688151	-0.008125
1073	5.3600e-01	9.2786	16.908517	0.000124	1.240033	0.210067	-0.002480
1074	5.3650e-01	9.2664	16.872597	0.000359	3.591819	0.608471	-0.007184
1075	5.3700e-01	9.2554	16.870886	0.000017	0.171039	0.028975	-0.000342
1076	5.3750e-01	9.2468	16.839242	0.000316	3.164222	0.536034	-0.006329
1077	5.3800e-01	9.2342	16.821709	0.000175	1.753150	0.296992	-0.003507
1078	5.3850e-01	9.2261	16.781940	0.000398	3.976657	0.673664	-0.007954
1079	5.3900e-01	9.2163	16.756710	0.000252	2.522826	0.427378	-0.005046
1080	5.3950e-01	9.2065	16.749441	0.000073	0.726916	0.123143	-0.001454
1081	5.4000e-01	9.1937	16.715658	0.000338	3.378021	0.572252	-0.006756
1082	5.4050e-01	9.1852	16.695987	0.000197	1.966949	0.333210	-0.003934
1083	5.4100e-01	9.1779	16.673751	0.000222	2.223507	0.376672	-0.004447
1084	5.4150e-01	9.1681	16.662633	0.000111	1.111754	0.188336	-0.002224
1085	5.4200e-01	9.1534	16.639541	0.000231	2.309027	0.391160	-0.004618
1086	5.4250e-01	9.1461	16.602765	0.000368	3.677339	0.622958	-0.007355
1087	5.4300e-01	9.1357	16.597634	0.000051	0.513117	0.086924	-0.001026
1088	5.4350e-01	9.1272	16.555299	0.000423	4.233216	0.717126	-0.008467
1089	5.4400e-01	9.1168	16.526220	0.000291	2.907663	0.492571	-0.005816
1090	5.4450e-01	9.1058	16.528786	-0.000026	-0.256559	-0.043462	0.000513
1091	5.4500e-01	9.0973	16.484741	0.000440	4.404255	0.746101	-0.008809
1092	5.4550e-01	9.0863	16.465070	0.000197	1.966949	0.333210	-0.003934
1093	5.4600e-01	9.0753	16.424445	0.000406	4.062177	0.688151	-0.008125
1094	5.4650e-01	9.0656	16.403492	0.000210	2.095228	0.354941	-0.004191
1095	5.4700e-01	9.0564	16.381683	0.000218	2.180747	0.369429	-0.004362
1096	5.4750e-01	9.0475	16.366716	0.000150	1.496591	0.253529	-0.002993
1097	5.4800e-01	9.0350	16.363295	0.000034	0.342078	0.057950	-0.000684
1098	5.4850e-01	9.0271	16.303855	0.000594	5.943606	1.006874	-0.011888
1099	5.4900e-01	9.0149	16.304710	-0.000009	-0.085520	-0.014487	0.000171
1100	5.4950e-01	9.0051	16.270928	0.000338	3.378021	0.572252	-0.006756
1101	5.5000e-01	8.9966	16.251685	0.000192	1.924189	0.325966	-0.003849
1102	5.5050e-01	8.9880	16.204218	0.000475	4.746333	0.804051	-0.009493
1103	5.5100e-01	8.9764	16.192245	0.000120	1.197273	0.202824	-0.002395
1104	5.5150e-01	8.9642	16.174285	0.000180	1.795910	0.304235	-0.003592
1105	5.5200e-01	8.9569	16.130239	0.000440	4.404255	0.746101	-0.008809
1106	5.5250e-01	8.9490	16.117838	0.000124	1.240033	0.210067	-0.002480
1107	5.5300e-01	8.9368	16.093463	0.000244	2.437306	0.412891	-0.004875
1108	5.5350e-01	8.9276	16.090470	0.000030	0.299318	0.050706	-0.000599
1109	5.5400e-01	8.9185	16.050701	0.000398	3.976657	0.673664	-0.007954
1110	5.5450e-01	8.9063	16.031458	0.000192	1.924189	0.325966	-0.003849
1111	5.5500e-01	8.8977	16.013925	0.000175	1.753150	0.296992	-0.003507
1112	5.5550e-01	8.8852	15.959617	0.000543	5.430489	0.919950	-0.010862
1113	5.5600e-01	8.8785	15.951919	0.000077	0.769676	0.130387	-0.001539
1114	5.5650e-01	8.8672	15.917709	0.000342	3.420780	0.579496	-0.006842
1115	5.5700e-01	8.8568	15.913433	0.000043	0.427598	0.072437	-0.000855
1116	5.5750e-01	8.8470	15.880078	0.000334	3.335261	0.565008	-0.006671
1117	5.5800e-01	8.8364	15.850572	0.000295	2.950423	0.499815	-0.005901
1118	5.5850e-01	8.8263	15.833467	0.000171	1.710390	0.289748	-0.003421
1119	5.5900e-01	8.8153	15.840309	-0.000068	-0.684156	-0.115899	0.001368
1120	5.5950e-01	8.8049	15.761199	0.000791	7.910555	1.340084	-0.015822
1121	5.6000e-01	8.7994	15.753074	0.000081	0.812435	0.137630	-0.001625
1122	5.6050e-01	8.7891	15.729554	0.000235	2.351786	0.398403	-0.004704
1123	5.6100e-01	8.7787	15.693206	0.000363	3.634579	0.615714	-0.007270
1124	5.6150e-01	8.7677	15.673535	0.000197	1.966949	0.333210	-0.003934
1125	5.6200e-01	8.7585	15.667121	0.000064	0.641396	0.108655	-0.001283
1126	5.6250e-01	8.7500	15.644457	0.000227	2.266267	0.383916	-0.004533
1127	5.6300e-01	8.7366	15.599556	0.000449	4.489774	0.760588	-0.008980
1128	5.6350e-01	8.7289	15.565346	0.000342	3.420780	0.579496	-0.006842
1129	5.6400e-01	8.7146	15.543110	0.000222	2.223507	0.376672	-0.004447
1130	5.6450e-01	8.7073	15.530709	0.000124	1.240033	0.210067	-0.002480
1131	5.6500e-01	8.6975	15.495216	0.000355	3.549060	0.601227	-0.007099
1132	5.6550e-01	8.6896	15.455874	0.000393	3.933897	0.666420	-0.007868
1133	5.6600e-01	8.6789	15.461006	-0.000051	-0.513117	-0.086924	0.001026
1134	5.6650e-01	8.6653	15.428506	0.000325	3.249741	0.550521	-0.006500
1135	5.6700e-01	8.6560	15.408835	0.000197	1.966949	0.333210	-0.003934
1136	5.6750e-01	8.6475	15.368211	0.000406	4.062177	0.688151	-0.008125
1137	5.6800e-01	8.6365	15.353672	0.000145	1.453832	0.246286	-0.002908
1138	5.6850e-01	8.6249	15.316468	0.000372	3.720099	0.630202	-0.007441
1139	5.6900e-01	8.6169	15.314330	0.000021	0.213799	0.036218	-0.000428
1140	5.6950e-01	8.6066	15.274989	0.000393	3.933897	0.666420	-0.007868
1141	5.7000e-01	8.5962	15.257028	0.000180	1.795910	0.304235	-0.003592
1142	5.7050e-01	8.5883	15.253607	0.000034	0.342078	0.057950	-0.000684
1143	5.7100e-01	8.5779	15.195450	0.000582	5.815327	0.985143	-0.011631
1144	5.7150e-01	8.5663	15.167655	0.000278	2.779384	0.470840	-0.005559
1145	5.7200e-01	8.5565	15.144563	0.000231	2.309027	0.391160	-0.004618
1146	5.7250e-01	8.5455	15.134300	0.000103	1.026234	0.173849	-0.002053
1147	5.7300e-01	8.5364	15.105649	0.000286	2.864904	0.485328	-0.005730
1148	5.7350e-01	8.5272	15.080847	0.000248	2.480066	0.420135	-0.004960
1149	5.7400e-01	8.5181	15.058610	0.000222	2.223507	0.376672	-0.004447
1150	5.7450e-01	8.5077	15.017131	0.000415	4.147696	0.702639	-0.008296
1151	5.7500e-01	8.4967	14.987197	0.000299	2.993183	0.507059	-0.005987
1152	5.7550e-01	8.4845	14.970519	0.000167	1.667630	0.282504	-0.003335
1153	5.7600e-01	8.4778	14.956408	0.000141	1.411072	0.239042	-0.002822
1154	5.7650e-01	8.4680	14.929895	0.000265	2.651105	0.449109	-0.005303
1155	5.7700e-01	8.4583	14.899534	0.000304	3.035943	0.514303	-0.006072
1156	5.7750e-01	8.4497	14.882429	0.000171	1.710390	0.289748	-0.003421
1157	5.7800e-01	8.4363	14.836673	0.000458	4.575294	0.775076	-0.009151
1158	5.7850e-01	8.4265	14.827693	0.000090	0.897955	0.152118	-0.001796
1159	5.7900e-01	8.4186	14.800752	0.000269	2.693865	0.456353	-0.005388
1160	5.7950e-01	8.4082	14.757562	0.000432	4.318735	0.731614	-0.008638
1161	5.8000e-01	8.3990	14.734043	0.000235	2.351786	0.398403	-0.004704
1162	5.8050e-01	8.3868	14.701116	0.000329	3.292501	0.557765	-0.006585
1163	5.8100e-01	8.3777	14.688714	0.000124	1.240033	0.210067	-0.002480
1164	5.8150e-01	8.3643	14.677596	0.000111	1.111754	0.188336	-0.002224
1165	5.8200e-01	8.3557	14.636544	0.000410	4.104936	0.695395	-0.008210
1166	5.8250e-01	8.3490	14.605755	0.000308	3.078702	0.521546	-0.006158
1167	5.8300e-01	8.3362	14.580098	0.000257	2.565585	0.434622	-0.005132
1168	5.8350e-01	8.3289	14.558716	0.000214	2.137988	0.362185	-0.004276
1169	5.8400e-01	8.3182	14.550591	0.000081	0.812435	0.137630	-0.001625
1170	5.8450e-01	8.3064	14.511250	0.000393	3.933897	0.666420	-0.007868
1171	5.8500e-01	8.2977	14.486448	0.000248	2.480066	0.420135	-0.004960
1172	5.8550e-01	8.2880	14.466777	0.000197	1.966949	0.333210	-0.003934
1173	5.8600e-01	8.2751	14.424442	0.000423	4.233216	0.717126	-0.008467
1174	5.8650e-01	8.2675	14.400495	0.000239	2.394546	0.405647	-0.004789
1175	5.8700e-01	8.2562	14.399640	0.000009	0.085520	0.014487	-0.000171
1176	5.8750e-01	8.2477	14.361153	0.000385	3.848378	0.651933	-0.007697
1177	5.8800e-01	8.2361	14.324378	0.000368	3.677339	0.622958	-0.007355
1178	5.8850e-01	8.2288	14.297437	0.000269	2.693865	0.456353	-0.005388
1179	5.8900e-01	8.2193	14.272635	0.000248	2.480066	0.420135	-0.004960
1180	5.8950e-01	8.2056	14.232438	0.000402	4.019417	0.680908	-0.008039
1181	5.9000e-01	8.1961	14.228162	0.000043	0.427598	0.072437	-0.000855
1182	5.9050e-01	8.1860	14.208919	0.000192	1.924189	0.325966	-0.003849
1183	5.9100e-01	8.1781	14.163163	0.000458	4.575294	0.775076	-0.009151
1184	5.9150e-01	8.1653	14.139644	0.000235	2.351786	0.398403	-0.004704
1185	5.9200e-01	8.1601	14.115269	0.000244	2.437306	0.412891	-0.004875
1186	5.9250e-01	8.1494	14.092605	0.000227	2.266267	0.383916	-0.004533
1187	5.9300e-01	8.1372	14.041290	0.000513	5.131171	0.869244	-0.010263
1188	5.9350e-01	8.1277	14.029744	0.000115	1.154513	0.195580	-0.002309
1189	5.9400e-01	8.1165	14.029316	0.000004	0.042760	0.007244	-0.000086
1190	5.9450e-01	8.1076	13.977574	0.000517	5.173930	0.876488	-0.010349
1191	5.9500e-01	8.0969	13.949778	0.000278	2.779384	0.470840	-0.005559
1192	5.9550e-01	8.0853	13.918561	0.000312	3.121462	0.528790	-0.006243
1193	5.9600e-01	8.0774	13.898463	0.000201	2.009708	0.340454	-0.004020
1194	5.9650e-01	8.0640	13.886062	0.000124	1.240033	0.210067	-0.002480
1195	5.9700e-01	8.0536	13.836885	0.000492	4.917372	0.833025	-0.009835
1196	5.9750e-01	8.0469	13.829188	0.000077	0.769676	0.130387	-0.001539
1197	5.9800e-01	8.0374	13.796688	0.000325	3.249741	0.550521	-0.006500
1198	5.9850e-01	8.0273	13.774452	0.000222	2.223507	0.376672	-0.004447
1199	5.9900e-01	8.0177	13.743235	0.000312	3.121462	0.528790	-0.006243
1200	5.9950e-01	8.0075	13.705604	0.000376	3.762858	0.637445	-0.007526
1201	6.0000e-01	7.9999	13.687644	0.000180	1.795910	0.304235	-0.003592
1202	6.0050e-01	7.9871	13.663269	0.000244	2.437306	0.412891	-0.004875
1203	6.0100e-01	7.9785	13.632052	0.000312	3.121462	0.528790	-0.006243
1204	6.0150e-01	7.9663	13.578599	0.000534	5.344969	0.905462	-0.010691
1205	6.0200e-01	7.9590	13.582020	-0.000034	-0.342078	-0.057950	0.000684
1206	6.0250e-01	7.9480	13.550376	0.000316	3.164222	0.536034	-0.006329
1207	6.0300e-01	7.9382	13.514455	0.000359	3.591819	0.608471	-0.007184
1208	6.0350e-01	7.9279	13.495212	0.000192	1.924189	0.325966	-0.003849
1209	6.0400e-01	7.9184	13.478535	0.000167	1.667630	0.282504	-0.003335
1210	6.0450e-01	7.9041	13.435345	0.000432	4.318735	0.731614	-0.008638
1211	6.0500e-01	7.8943	13.435345	-0.000000	-0.000000	-0.000000	0.000000
1212	6.0550e-01	7.8845	13.376760	0.000586	5.858086	0.992387	-0.011717
1213	6.0600e-01	7.8784	13.353668	0.000231	2.309027	0.391160	-0.004618
1214	6.0650e-01	7.8650	13.343833	0.000098	0.983474	0.166605	-0.001967
1215	6.0700e-01	7.8577	13.318603	0.000252	2.522826	0.427378	-0.005046
1216	6.0750e-01	7.8473	13.283110	0.000355	3.549060	0.601227	-0.007099
1217	6.0800e-01	7.8363	13.260446	0.000227	2.266267	0.383916	-0.004533
1218	6.0850e-01	7.8278	13.247190	0.000133	1.325552	0.224555	-0.002651
1219	6.0900e-01	7.8169	13.190743	0.000564	5.644288	0.956168	-0.011289
1220	6.0950e-01	7.8082	13.179197	0.000115	1.154513	0.195580	-0.002309
1221	6.1000e-01	7.7972	13.151829	0.000274	2.736624	0.463597	-0.005474
1222	6.1050e-01	7.7856	13.110777	0.000410	4.104936	0.695395	-0.008210
1223	6.1100e-01	7.7740	13.115053	-0.000043	-0.427598	-0.072437	0.000855
1224	6.1150e-01	7.7655	13.060745	0.000543	5.430489	0.919950	-0.010862
1225	6.1200e-01	7.7557	13.032949	0.000278	2.779384	0.470840	-0.005559
1226	6.1250e-01	7.7441	13.003016	0.000299	2.993183	0.507059	-0.005987
1227	6.1300e-01	7.7350	12.969661	0.000334	3.335261	0.565008	-0.006671
1228	6.1350e-01	7.7258	12.975648	-0.000060	-0.598637	-0.101412	0.001197
1229	6.1400e-01	7.7142	12.920056	0.000556	5.558768	0.941681	-0.011118
1230	6.1450e-01	7.7100	12.907655	0.000124	1.240033	0.210067	-0.002480
1231	6.1500e-01	7.6959	12.884563	0.000231	2.309027	0.391160	-0.004618
1232	6.1550e-01	7.6868	12.829400	0.000552	5.516008	0.934437	-0.011033
1233	6.1600e-01	7.6773	12.816571	0.000128	1.282793	0.217311	-0.002566
1234	6.1650e-01	7.6660	12.788348	0.000282	2.822144	0.478084	-0.005645
1235	6.1700e-01	7.6569	12.761835	0.000265	2.651105	0.449109	-0.005303
1236	6.1750e-01	7.6465	12.734467	0.000274	2.736624	0.463597	-0.005474
1237	6.1800e-01	7.6343	12.716934	0.000175	1.753150	0.296992	-0.003507
1238	6.1850e-01	7.6263	12.684007	0.000329	3.292501	0.557765	-0.006585
1239	6.1900e-01	7.6160	12.655784	0.000282	2.822144	0.478084	-0.005645
1240	6.1950e-01	7.6080	12.645521	0.000103	1.026234	0.173849	-0.002053
1241	6.2000e-01	7.5946	12.603186	0.000423	4.233216	0.717126	-0.008467
1242	6.2050e-01	7.5854	12.581377	0.000218	2.180747	0.369429	-0.004362
1243	6.2100e-01	7.5763	12.558713	0.000227	2.266267	0.383916	-0.004533
1244	6.2150e-01	7.5650	12.515523	0.000432	4.318735	0.731614	-0.008638
1245	6.2200e-01	7.5549	12.524930	-0.000094	-0.940715	-0.159361	0.001882
1246	6.2250e-01	7.5458	12.439405	0.000855	8.551951	1.448740	-0.017105
1247	6.2300e-01	7.5348	12.408616	0.000308	3.078702	0.521546	-0.006158
1248	6.2350e-01	7.5275	12.424866	-0.000162	-1.624871	-0.275261	0.003250
1249	6.2400e-01	7.5171	12.392794	0.000321	3.206982	0.543277	-0.006414
1250	6.2450e-01	7.5058	12.361150	0.000316	3.164222	0.536034	-0.006329
1251	6.2500e-01	7.4976	12.334637	0.000265	2.651105	0.449109	-0.005303
1252	6.2550e-01	7.4863	12.288026	0.000466	4.660813	0.789563	-0.009322
1253	6.2600e-01	7.4786	12.277763	0.000103	1.026234	0.173849	-0.002053
1254	6.2650e-01	7.4637	12.246119	0.000316	3.164222	0.536034	-0.006329
1255	6.2700e-01	7.4579	12.201218	0.000449	4.489774	0.760588	-0.008980
1256	6.2750e-01	7.4481	12.185396	0.000158	1.582111	0.268017	-0.003164
1257	6.2800e-01	7.4365	12.173850	0.000115	1.154513	0.195580	-0.002309
1258	6.2850e-01	7.4243	12.151614	0.000222	2.223507	0.376672	-0.004447
1259	6.2900e-01	7.4164	12.096878	0.000547	5.473249	0.927193	-0.010947
1260	6.2950e-01	7.4054	12.072931	0.000239	2.394546	0.405647	-0.004789
1261	6.3000e-01	7.3962	12.046845	0.000261	2.608345	0.441866	-0.005217
1262	6.3050e-01	7.3871	12.017767	0.000291	2.907663	0.492571	-0.005816
1263	6.3100e-01	7.3773	11.987406	0.000304	3.035943	0.514303	-0.006072
1264	6.3150e-01	7.3669	11.951057	0.000363	3.634579	0.615714	-0.007270
1265	6.3200e-01	7.3572	11.946353	0.000047	0.470357	0.079681	-0.000941
1266	6.3250e-01	7.3450	11.907440	0.000389	3.891138	0.659177	-0.007783
1267	6.3300e-01	7.3376	11.880499	0.000269	2.693865	0.456353	-0.005388
1268	6.3350e-01	7.3273	11.865532	0.000150	1.496591	0.253529	-0.002993
1269	6.3400e-01	7.3169	11.827901	0.000376	3.762858	0.637445	-0.007526
1270	6.3450e-01	7.3083	11.816355	0.000115	1.154513	0.195580	-0.002309
1271	6.3500e-01	7.2955	11.772738	0.000436	4.361495	0.738857	-0.008724
1272	6.3550e-01	7.2858	11.735962	0.000368	3.677339	0.622958	-0.007355
1273	6.3600e-01	7.2754	11.717574	0.000184	1.838669	0.311479	-0.003678
1274	6.3650e-01	7.2662	11.680371	0.000372	3.720099	0.630202	-0.007441
1275	6.3700e-01	7.2571	11.689351	-0.000090	-0.897955	-0.152118	0.001796
1276	6.3750e-01	7.2455	11.636753	0.000526	5.259450	0.890975	-0.010520
1277	6.3800e-01	7.2369	11.601688	0.000351	3.506300	0.593983	-0.007013
1278	6.3850e-01	7.2272	11.587148	0.000145	1.453832	0.246286	-0.002908
1279	6.3900e-01	7.2176	11.541820	0.000453	4.532534	0.767832	-0.009066
1280	6.3950e-01	7.2046	11.524715	0.000171	1.710390	0.289748	-0.003421
1281	6.4000e-01	7.1970	11.490077	0.000346	3.463540	0.586740	-0.006928
1282	6.4050e-01	7.1869	11.475538	0.000145	1.453832	0.246286	-0.002908
1283	6.4100e-01	7.1759	11.445604	0.000299	2.993183	0.507059	-0.005987
1284	6.4150e-01	7.1677	11.404125	0.000415	4.147696	0.702639	-0.008296
1285	6.4200e-01	7.1588	11.390868	0.000133	1.325552	0.224555	-0.002651
1286	6.4250e-01	7.1454	11.339126	0.000517	5.173930	0.876488	-0.010349
1287	6.4300e-01	7.1368	11.301067	0.000381	3.805618	0.644689	-0.007612
1288	6.4350e-01	7.1262	11.293797	0.000073	0.726916	0.123143	-0.001454
1289	6.4400e-01	7.1175	11.262581	0.000312	3.121462	0.528790	-0.006243
1290	6.4450e-01	7.1057	11.234357	0.000282	2.822144	0.478084	-0.005645
1291	6.4500e-01	7.0966	11.209555	0.000248	2.480066	0.420135	-0.004960
1292	6.4550e-01	7.0874	11.177056	0.000325	3.249741	0.550521	-0.006500
1293	6.4600e-01	7.0764	11.154819	0.000222	2.223507	0.376672	-0.004447
1294	6.4650e-01	7.0642	11.120609	0.000342	3.420780	0.579496	-0.006842
1295	6.4700e-01	7.0532	11.101366	0.000192	1.924189	0.325966	-0.003849
1296	6.4750e-01	7.0477	11.064590	0.000368	3.677339	0.622958	-0.007355
1297	6.4800e-01	7.0334	11.031663	0.000329	3.292501	0.557765	-0.006585
1298	6.4850e-01	7.0270	11.006006	0.000257	2.565585	0.434622	-0.005132
1299	6.4900e-01	7.0154	10.970085	0.000359	3.591819	0.608471	-0.007184
1300	6.4950e-01	7.0050	10.961960	0.000081	0.812435	0.137630	-0.001625
1301	6.5000e-01	6.9986	10.920053	0.000419	4.190456	0.709882	-0.008381
1302	6.5050e-01	6.9879	10.899527	0.000205	2.052468	0.347698	-0.004105
1303	6.5100e-01	6.9763	10.860185	0.000393	3.933897	0.666420	-0.007868
1304	6.5150e-01	6.9672	10.835811	0.000244	2.437306	0.412891	-0.004875
1305	6.5200e-01	6.9592	10.797324	0.000385	3.848378	0.651933	-0.007697
1306	6.5250e-01	6.9470	10.770812	0.000265	2.651105	0.449109	-0.005303
1307	6.5300e-01	6.9379	10.752424	0.000184	1.838669	0.311479	-0.003678
1308	6.5350e-01	6.9214	10.737884	0.000145	1.453832	0.246286	-0.002908
1309	6.5400e-01	6.9165	10.697260	0.000406	4.062177	0.688151	-0.008125
1310	6.5450e-01	6.9067	10.677589	0.000197	1.966949	0.333210	-0.003934
1311	6.5500e-01	6.8976	10.618577	0.000590	5.900846	0.999630	-0.011802
1312	6.5550e-01	6.8878	10.601472	0.000171	1.710390	0.289748	-0.003421
1313	6.5600e-01	6.8774	10.574104	0.000274	2.736624	0.463597	-0.005474
1314	6.5650e-01	6.8671	10.559992	0.000141	1.411072	0.239042	-0.002822
1315	6.5700e-01	6.8567	10.526638	0.000334	3.335261	0.565008	-0.006671
1316	6.5750e-01	6.8488	10.494566	0.000321	3.206982	0.543277	-0.006414
1317	6.5800e-01	6.8384	10.513381	-0.000188	-1.881429	-0.318723	0.003763
1318	6.5850e-01	6.8274	10.430850	0.000825	8.252633	1.398034	-0.016506
1319	6.5900e-01	6.8146	10.423580	0.000073	0.726916	0.123143	-0.001454
1320	6.5950e-01	6.8069	10.406047	0.000175	1.753150	0.296992	-0.003507
1321	6.6000e-01	6.7966	10.341903	0.000641	6.413963	1.086555	-0.012829
1322	6.6050e-01	6.7854	10.329930	0.000120	1.197273	0.202824	-0.002395
1323	6.6100e-01	6.7761	10.301707	0.000282	2.822144	0.478084	-0.005645
1324	6.6150e-01	6.7694	10.267497	0.000342	3.420780	0.579496	-0.006842
1325	6.6200e-01	6.7566	10.232431	0.000351	3.506300	0.593983	-0.007013
1326	6.6250e-01	6.7456	10.197794	0.000346	3.463540	0.586740	-0.006928
1327	6.6300e-01	6.7371	10.175557	0.000222	2.223507	0.376672	-0.004447
1328	6.6350e-01	6.7291	10.152465	0.000231	2.309027	0.391160	-0.004618
1329	6.6400e-01	6.7152	10.105854	0.000466	4.660813	0.789563	-0.009322
1330	6.6450e-01	6.7084	10.057533	0.000483	4.831852	0.818538	-0.009664
1331	6.6500e-01	6.6963	10.063092	-0.000056	-0.555877	-0.094168	0.001112
1332	6.6550e-01	6.6898	10.009211	0.000539	5.387729	0.912706	-0.010776
1333	6.6600e-01	6.6779	9.999376	0.000098	0.983474	0.166605	-0.001967
1334	6.6650e-01	6.6653	9.963455	0.000359	3.591819	0.608471	-0.007184
1335	6.6700e-01	6.6553	9.928390	0.000351	3.506300	0.593983	-0.007013
1336	6.6750e-01	6.6467	9.902732	0.000257	2.565585	0.434622	-0.005132
1337	6.6800e-01	6.6364	9.900594	0.000021	0.213799	0.036218	-0.000428
1338	6.6850e-01	6.6235	9.868522	0.000321	3.206982	0.543277	-0.006414
1339	6.6900e-01	6.6159	9.795398	0.000731	7.311918	1.238672	-0.014625
1340	6.6950e-01	6.6064	9.773162	0.000222	2.223507	0.376672	-0.004447
1341	6.7000e-01	6.5961	9.759478	0.000137	1.368312	0.231798	-0.002737
1342	6.7050e-01	6.5881	9.731255	0.000282	2.822144	0.478084	-0.005645
1343	6.7100e-01	6.5784	9.703887	0.000274	2.736624	0.463597	-0.005474
1344	6.7150e-01	6.5659	9.663262	0.000406	4.062177	0.688151	-0.008125
1345	6.7200e-01	6.5564	9.635039	0.000282	2.822144	0.478084	-0.005645
1346	6.7250e-01	6.5485	9.614940	0.000201	2.009708	0.340454	-0.004020
1347	6.7300e-01	6.5344	9.571750	0.000432	4.318735	0.731614	-0.008638
1348	6.7350e-01	6.5256	9.538823	0.000329	3.292501	0.557765	-0.006585
1349	6.7400e-01	6.5149	9.534547	0.000043	0.427598	0.072437	-0.000855
1350	6.7450e-01	6.5063	9.493067	0.000415	4.147696	0.702639	-0.008296
1351	6.7500e-01	6.4975	9.456292	0.000368	3.677339	0.622958	-0.007355
1352	6.7550e-01	6.4865	9.443890	0.000124	1.240033	0.210067	-0.002480
1353	6.7600e-01	6.4777	9.387871	0.000560	5.601528	0.948925	-0.011204
1354	6.7650e-01	6.4656	9.388727	-0.000009	-0.085520	-0.014487	0.000171
1355	6.7700e-01	6.4572	9.352806	0.000359	3.591819	0.608471	-0.007184
1356	6.7750e-01	6.4474	9.318169	0.000346	3.463540	0.586740	-0.006928
1357	6.7800e-01	6.4374	9.278827	0.000393	3.933897	0.666420	-0.007868
1358	6.7850e-01	6.4273	9.265143	0.000137	1.368312	0.231798	-0.002737
1359	6.7900e-01	6.4136	9.213828	0.000513	5.131171	0.869244	-0.010263
1360	6.7950e-01	6.4069	9.195868	0.000180	1.795910	0.304235	-0.003592
1361	6.8000e-01	6.3977	9.192447	0.000034	0.342078	0.057950	-0.000684
1362	6.8050e-01	6.3864	9.134717	0.000577	5.772567	0.977899	-0.011546
1363	6.8100e-01	6.3745	9.088106	0.000466	4.660813	0.789563	-0.009322
1364	6.8150e-01	6.3654	9.088534	-0.000004	-0.042760	-0.007244	0.000086
1365	6.8200e-01	6.3562	9.049620	0.000389	3.891138	0.659177	-0.007783
1366	6.8250e-01	6.3428	9.030377	0.000192	1.924189	0.325966	-0.003849
1367	6.8300e-01	6.3354	8.991463	0.000389	3.891138	0.659177	-0.007783
1368	6.8350e-01	6.3257	8.954259	0.000372	3.720099	0.630202	-0.007441
1369	6.8400e-01	6.3171	8.940575	0.000137	1.368312	0.231798	-0.002737
1370	6.8450e-01	6.3092	8.907221	0.000334	3.335261	0.565008	-0.006671
1371	6.8500e-01	6.2958	8.891399	0.000158	1.582111	0.268017	-0.003164
1372	6.8550e-01	6.2866	8.838373	0.000530	5.302210	0.898219	-0.010605
1373	6.8600e-01	6.2793	8.799031	0.000393	3.933897	0.666420	-0.007868
1374	6.8650e-01	6.2671	8.775940	0.000231	2.309027	0.391160	-0.004618
1375	6.8700e-01	6.2585	8.742157	0.000338	3.378021	0.572252	-0.006756
1376	6.8750e-01	6.2457	8.714362	0.000278	2.779384	0.470840	-0.005559
1377	6.8800e-01	6.2363	8.680152	0.000342	3.420780	0.579496	-0.006842
1378	6.8850e-01	6.2244	8.651928	0.000282	2.822144	0.478084	-0.005645
1379	6.8900e-01	6.2161	8.624133	0.000278	2.779384	0.470840	-0.005559
1380	6.8950e-01	6.2057	8.574528	0.000496	4.960132	0.840269	-0.009921
1381	6.9000e-01	6.1978	8.563838	0.000107	1.068994	0.181092	-0.002138
1382	6.9050e-01	6.1877	8.545022	0.000188	1.881429	0.318723	-0.003763
1383	6.9100e-01	6.1780	8.496273	0.000487	4.874612	0.825782	-0.009750
1384	6.9150e-01	6.1694	8.479595	0.000167	1.667630	0.282504	-0.003335
1385	6.9200e-01	6.1551	8.462063	0.000175	1.753150	0.296992	-0.003507
1386	6.9250e-01	6.1450	8.400912	0.000611	6.114645	1.035849	-0.012230
1387	6.9300e-01	6.1340	8.409037	-0.000081	-0.812435	-0.137630	0.001625
1388	6.9350e-01	6.1276	8.341900	0.000671	6.713281	1.137261	-0.013427
1389	6.9400e-01	6.1169	8.332920	0.000090	0.897955	0.152118	-0.001796
1390	6.9450e-01	6.1081	8.289302	0.000436	4.361495	0.738857	-0.008724
1391	6.9500e-01	6.0974	8.272625	0.000167	1.667630	0.282504	-0.003335
1392	6.9550e-01	6.0876	8.222593	0.000500	5.002891	0.847513	-0.010006
1393	6.9600e-01	6.0760	8.198646	0.000239	2.394546	0.405647	-0.004789
1394	6.9650e-01	6.0645	8.167429	0.000312	3.121462	0.528790	-0.006243
1395	6.9700e-01	6.0550	8.136212	0.000312	3.121462	0.528790	-0.006243
1396	6.9750e-01	6.0461	8.121245	0.000150	1.496591	0.253529	-0.002993
1397	6.9800e-01	6.0352	8.090456	0.000308	3.078702	0.521546	-0.006158
1398	6.9850e-01	6.0284	8.067365	0.000231	2.309027	0.391160	-0.004618
1399	6.9900e-01	6.0175	8.019043	0.000483	4.831852	0.818538	-0.009664
1400	6.9950e-01	6.0031	8.009208	0.000098	0.983474	0.166605	-0.001967
1401	7.0000e-01	5.9961	7.955754	0.000534	5.344969	0.905462	-0.010691
1402	7.0050e-01	5.9869	7.930097	0.000257	2.565585	0.434622	-0.005132
1403	7.0100e-01	5.9760	7.902301	0.000278	2.779384	0.470840	-0.005559
1404	7.0150e-01	5.9668	7.880065	0.000222	2.223507	0.376672	-0.004447
1405	7.0200e-01	5.9558	7.834309	0.000458	4.575294	0.775076	-0.009151
1406	7.0250e-01	5.9454	7.813355	0.000210	2.095228	0.354941	-0.004191
1407	7.0300e-01	5.9375	7.779145	0.000342	3.420780	0.579496	-0.006842
1408	7.0350e-01	5.9272	7.720133	0.000590	5.900846	0.999630	-0.011802
1409	7.0400e-01	5.9192	7.699607	0.000205	2.052468	0.347698	-0.004105
1410	7.0450e-01	5.9076	7.683357	0.000162	1.624871	0.275261	-0.003250
1411	7.0500e-01	5.8969	7.651713	0.000316	3.164222	0.536034	-0.006329
1412	7.0550e-01	5.8887	7.599115	0.000526	5.259450	0.890975	-0.010520
1413	7.0600e-01	5.8771	7.597832	0.000013	0.128279	0.021731	-0.000257
1414	7.0650e-01	5.8673	7.567898	0.000299	2.993183	0.507059	-0.005987
1415	7.0700e-01	5.8557	7.526419	0.000415	4.147696	0.702639	-0.008296
1416	7.0750e-01	5.8463	7.489643	0.000368	3.677339	0.622958	-0.007355
1417	7.0800e-01	5.8357	7.452012	0.000376	3.762858	0.637445	-0.007526
1418	7.0850e-01	5.8286	7.420795	0.000312	3.121462	0.528790	-0.006243
1419	7.0900e-01	5.8173	7.392572	0.000282	2.822144	0.478084	-0.005645
1420	7.0950e-01	5.8075	7.375895	0.000167	1.667630	0.282504	-0.003335
1421	7.1000e-01	5.7977	7.351520	0.000244	2.437306	0.412891	-0.004875
1422	7.1050e-01	5.7861	7.310040	0.000415	4.147696	0.702639	-0.008296
1423	7.1100e-01	5.7779	7.265995	0.000440	4.404255	0.746101	-0.008809
1424	7.1150e-01	5.7681	7.242048	0.000239	2.394546	0.405647	-0.004789
1425	7.1200e-01	5.7553	7.217246	0.000248	2.480066	0.420135	-0.004960
1426	7.1250e-01	5.7471	7.177904	0.000393	3.933897	0.666420	-0.007868
1427	7.1300e-01	5.7346	7.153957	0.000239	2.394546	0.405647	-0.004789
1428	7.1350e-01	5.7245	7.133003	0.000210	2.095228	0.354941	-0.004191
1429	7.1400e-01	5.7153	7.097938	0.000351	3.506300	0.593983	-0.007013
1430	7.1450e-01	5.7056	7.063300	0.000346	3.463540	0.586740	-0.006928
1431	7.1500e-01	5.6989	7.032084	0.000312	3.121462	0.528790	-0.006243
1432	7.1550e-01	5.6844	6.991459	0.000406	4.062177	0.688151	-0.008125
1433	7.1600e-01	5.6775	6.963236	0.000282	2.822144	0.478084	-0.005645
1434	7.1650e-01	5.6653	6.949980	0.000133	1.325552	0.224555	-0.002651
1435	7.1700e-01	5.6583	6.910211	0.000398	3.976657	0.673664	-0.007954
1436	7.1750e-01	5.6476	6.876428	0.000338	3.378021	0.572252	-0.006756
1437	7.1800e-01	5.6372	6.842218	0.000342	3.420780	0.579496	-0.006842
1438	7.1850e-01	5.6232	6.816988	0.000252	2.522826	0.427378	-0.005046
1439	7.1900e-01	5.6140	6.784489	0.000325	3.249741	0.550521	-0.006500
1440	7.1950e-01	5.6073	6.737022	0.000475	4.746333	0.804051	-0.009493
1441	7.2000e-01	5.5972	6.705378	0.000316	3.164222	0.536034	-0.006329
1442	7.2050e-01	5.5841	6.701102	0.000043	0.427598	0.072437	-0.000855
1443	7.2100e-01	5.5777	6.656201	0.000449	4.489774	0.760588	-0.008980
1444	7.2150e-01	5.5670	6.618570	0.000376	3.762858	0.637445	-0.007526
1445	7.2200e-01	5.5542	6.593768	0.000248	2.480066	0.420135	-0.004960
1446	7.2250e-01	5.5469	6.557420	0.000363	3.634579	0.615714	-0.007270
1447	7.2300e-01	5.5368	6.522355	0.000351	3.506300	0.593983	-0.007013
1448	7.2350e-01	5.5286	6.487289	0.000351	3.506300	0.593983	-0.007013
1449	7.2400e-01	5.5145	6.438968	0.000483	4.831852	0.818538	-0.009664
1450	7.2450e-01	5.5060	6.426139	0.000128	1.282793	0.217311	-0.002566
1451	7.2500e-01	5.4950	6.383804	0.000423	4.233216	0.717126	-0.008467
1452	7.2550e-01	5.4871	6.358574	0.000252	2.522826	0.427378	-0.005046
1453	7.2600e-01	5.4776	6.313673	0.000449	4.489774	0.760588	-0.008980
1454	7.2650e-01	5.4667	6.306831	0.000068	0.684156	0.115899	-0.001368
1455	7.2700e-01	5.4555	6.270911	0.000359	3.591819	0.608471	-0.007184
1456	7.2750e-01	5.4462	6.227721	0.000432	4.318735	0.731614	-0.008638
1457	7.2800e-01	5.4388	6.192655	0.000351	3.506300	0.593983	-0.007013
1458	7.2850e-01	5.4248	6.167426	0.000252	2.522826	0.427378	-0.005046
1459	7.2900e-01	5.4172	6.129794	0.000376	3.762858	0.637445	-0.007526
1460	7.2950e-01	5.4083	6.088742	0.000410	4.104936	0.695395	-0.008210
1461	7.3000e-01	5.4010	6.071210	0.000175	1.753150	0.296992	-0.003507
1462	7.3050e-01	5.3864	6.041704	0.000295	2.950423	0.499815	-0.005901
1463	7.3100e-01	5.3775	6.019467	0.000222	2.223507	0.376672	-0.004447
1464	7.3150e-01	5.3667	5.998086	0.000214	2.137988	0.362185	-0.004276
1465	7.3200e-01	5.3571	5.957034	0.000410	4.104936	0.695395	-0.008210
1466	7.3250e-01	5.3448	5.914271	0.000428	4.275975	0.724370	-0.008553
1467	7.3300e-01	5.3351	5.895028	0.000192	1.924189	0.325966	-0.003849
1468	7.3350e-01	5.3242	5.839009	0.000560	5.601528	0.948925	-0.011204
1469	7.3400e-01	5.3174	5.813779	0.000252	2.522826	0.427378	-0.005046
1470	7.3450e-01	5.3067	5.776576	0.000372	3.720099	0.630202	-0.007441
1471	7.3500e-01	5.2951	5.747498	0.000291	2.907663	0.492571	-0.005816
1472	7.3550e-01	5.2859	5.734241	0.000133	1.325552	0.224555	-0.002651
1473	7.3600e-01	5.2759	5.699603	0.000346	3.463540	0.586740	-0.006928
1474	7.3650e-01	5.2692	5.669242	0.000304	3.035943	0.514303	-0.006072
1475	7.3700e-01	5.2570	5.638453	0.000308	3.078702	0.521546	-0.006158
1476	7.3750e-01	5.2454	5.586283	0.000522	5.216690	0.883731	-0.010434
1477	7.3800e-01	5.2374	5.582007	0.000043	0.427598	0.072437	-0.000855
1478	7.3850e-01	5.2206	5.554211	0.000278	2.779384	0.470840	-0.005559
1479	7.3900e-01	5.2142	5.485791	0.000684	6.841561	1.158992	-0.013684
1480	7.3950e-01	5.2040	5.465692	0.000201	2.009708	0.340454	-0.004020
1481	7.4000e-01	5.1968	5.434903	0.000308	3.078702	0.521546	-0.006158
1482	7.4050e-01	5.1866	5.404542	0.000304	3.035943	0.514303	-0.006072
1483	7.4100e-01	5.1776	5.384016	0.000205	2.052468	0.347698	-0.004105
1484	7.4150e-01	5.1666	5.342964	0.000410	4.104936	0.695395	-0.008210
1485	7.4200e-01	5.1547	5.302340	0.000406	4.062177	0.688151	-0.008125
1486	7.4250e-01	5.1471	5.274544	0.000278	2.779384	0.470840	-0.005559
1487	7.4300e-01	5.1370	5.229643	0.000449	4.489774	0.760588	-0.008980
1488	7.4350e-01	5.1270	5.202275	0.000274	2.736624	0.463597	-0.005474
1489	7.4400e-01	5.1166	5.173197	0.000291	2.907663	0.492571	-0.005816
1490	7.4450e-01	5.1053	5.153526	0.000197	1.966949	0.333210	-0.003934
1491	7.4500e-01	5.0987	5.112474	0.000410	4.104936	0.695395	-0.008210
1492	7.4550e-01	5.0867	5.086816	0.000257	2.565585	0.434622	-0.005132
1493	7.4600e-01	5.0763	5.038067	0.000487	4.874612	0.825782	-0.009750
1494	7.4650e-01	5.0647	4.989318	0.000487	4.874612	0.825782	-0.009750
1495	7.4700e-01	5.0543	4.980338	0.000090	0.897955	0.152118	-0.001796
1496	7.4750e-01	5.0453	4.954253	0.000261	2.608345	0.441866	-0.005217
1497	7.4800e-01	5.0360	4.926885	0.000274	2.736624	0.463597	-0.005474
1498	7.4850e-01	5.0256	4.878135	0.000487	4.874612	0.825782	-0.009750
1499	7.4900e-01	5.0174	4.867017	0.000111	1.111754	0.188336	-0.002224
1500	7.4950e-01	5.0061	4.822972	0.000440	4.404255	0.746101	-0.008809
1501	7.5000e-01	4.9966	4.779782	0.000432	4.318735	0.731614	-0.008638
1502	7.5050e-01	4.9850	4.757545	0.000222	2.223507	0.376672	-0.004447
1503	7.5100e-01	4.9797	4.715210	0.000423	4.233216	0.717126	-0.008467
1504	7.5150e-01	4.9677	4.687414	0.000278	2.779384	0.470840	-0.005559
1505	7.5200e-01	4.9524	4.652349	0.000351	3.506300	0.593983	-0.007013
1506	7.5250e-01	4.9438	4.609159	0.000432	4.318735	0.731614	-0.008638
1507	7.5300e-01	4.9350	4.604455	0.000047	0.470357	0.079681	-0.000941
1508	7.5350e-01	4.9268	4.553140	0.000513	5.131171	0.869244	-0.010263
1509	7.5400e-01	4.9164	4.506957	0.000462	4.618053	0.782319	-0.009237
1510	7.5450e-01	4.9063	4.473602	0.000334	3.335261	0.565008	-0.006671
1511	7.5500e-01	4.8969	4.444951	0.000286	2.864904	0.485328	-0.005730
1512	7.5550e-01	4.8865	4.417155	0.000278	2.779384	0.470840	-0.005559
1513	7.5600e-01	4.8761	4.376958	0.000402	4.019417	0.680908	-0.008039
1514	7.5650e-01	4.8663	4.339327	0.000376	3.762858	0.637445	-0.007526
1515	7.5700e-01	4.8602	4.321795	0.000175	1.753150	0.296992	-0.003507
1516	7.5750e-01	4.8462	4.296137	0.000257	2.565585	0.434622	-0.005132
1517	7.5800e-01	4.8370	4.264065	0.000321	3.206982	0.543277	-0.006414
1518	7.5850e-01	4.8267	4.218737	0.000453	4.532534	0.767832	-0.009066
1519	7.5900e-01	4.8154	4.176402	0.000423	4.233216	0.717126	-0.008467
1520	7.5950e-01	4.8047	4.154593	0.000218	2.180747	0.369429	-0.004362
1521	7.6000e-01	4.7955	4.116535	0.000381	3.805618	0.644689	-0.007612
1522	7.6050e-01	4.7858	4.087456	0.000291	2.907663	0.492571	-0.005816
1523	7.6100e-01	4.7775	4.053674	0.000338	3.378021	0.572252	-0.006756
1524	7.6150e-01	4.7687	4.019891	0.000338	3.378021	0.572252	-0.006756
1525	7.6200e-01	4.7556	3.987819	0.000321	3.206982	0.543277	-0.006414
1526	7.6250e-01	4.7473	3.964728	0.000231	2.309027	0.391160	-0.004618
1527	7.6300e-01	4.7366	3.920682	0.000440	4.404255	0.746101	-0.008809
1528	7.6350e-01	4.7260	3.884762	0.000359	3.591819	0.608471	-0.007184
1529	7.6400e-01	4.7151	3.865946	0.000188	1.881429	0.318723	-0.003763
1530	7.6450e-01	4.7073	3.812493	0.000534	5.344969	0.905462	-0.010691
1531	7.6500e-01	4.6950	3.784697	0.000278	2.779384	0.470840	-0.005559
1532	7.6550e-01	4.6867	3.747922	0.000368	3.677339	0.622958	-0.007355
1533	7.6600e-01	4.6767	3.715850	0.000321	3.206982	0.543277	-0.006414
1534	7.6650e-01	4.6686	3.678219	0.000376	3.762858	0.637445	-0.007526
1535	7.6700e-01	4.6552	3.636312	0.000419	4.190456	0.709882	-0.008381
1536	7.6750e-01	4.6463	3.595687	0.000406	4.062177	0.688151	-0.008125
1537	7.6800e-01	4.6370	3.573451	0.000222	2.223507	0.376672	-0.004447
1538	7.6850e-01	4.6283	3.529405	0.000440	4.404255	0.746101	-0.008809
1539	7.6900e-01	4.6152	3.531116	-0.000017	-0.171039	-0.028975	0.000342
1540	7.6950e-01	4.6069	3.481511	0.000496	4.960132	0.840269	-0.009921
1541	7.7000e-01	4.5947	3.430624	0.000509	5.088411	0.862000	-0.010177
1542	7.7050e-01	4.5863	3.428913	0.000017	0.171039	0.028975	-0.000342
1543	7.7100e-01	4.5784	3.387434	0.000415	4.147696	0.702639	-0.008296
1544	7.7150e-01	4.5647	3.339540	0.000479	4.789093	0.811294	-0.009579
1545	7.7200e-01	4.5532	3.310889	0.000286	2.864904	0.485328	-0.005730
1546	7.7250e-01	4.5474	3.275396	0.000355	3.549060	0.601227	-0.007099
1547	7.7300e-01	4.5374	3.246745	0.000286	2.864904	0.485328	-0.005730
1548	7.7350e-01	4.5270	3.202699	0.000440	4.404255	0.746101	-0.008809
1549	7.7400e-01	4.5175	3.176187	0.000265	2.651105	0.449109	-0.005303
1550	7.7450e-01	4.5053	3.122734	0.000534	5.344969	0.905462	-0.010691
1551	7.7500e-01	4.4949	3.109477	0.000133	1.325552	0.224555	-0.002651
1552	7.7550e-01	4.4839	3.075695	0.000338	3.378021	0.572252	-0.006756
1553	7.7600e-01	4.4788	3.019248	0.000564	5.644288	0.956168	-0.011289
1554	7.7650e-01	4.4661	3.010268	0.000090	0.897955	0.152118	-0.001796
1555	7.7700e-01	4.4543	2.956815	0.000534	5.344969	0.905462	-0.010691
1556	7.7750e-01	4.4454	2.920894	0.000359	3.591819	0.608471	-0.007184
1557	7.7800e-01	4.4382	2.893526	0.000274	2.736624	0.463597	-0.005474
1558	7.7850e-01	4.4275	2.882836	0.000107	1.068994	0.181092	-0.002138
1559	7.7900e-01	4.4165	2.834087	0.000487	4.874612	0.825782	-0.009750
1560	7.7950e-01	4.4057	2.801587	0.000325	3.249741	0.550521	-0.006500
1561	7.8000e-01	4.3958	2.733595	0.000680	6.798801	1.151748	-0.013598
1562	7.8050e-01	4.3881	2.719911	0.000137	1.368312	0.231798	-0.002737
1563	7.8100e-01	4.3784	2.699812	0.000201	2.009708	0.340454	-0.004020
1564	7.8150e-01	4.3646	2.642510	0.000573	5.729807	0.970656	-0.011460
1565	7.8200e-01	4.3568	2.625405	0.000171	1.710390	0.289748	-0.003421
1566	7.8250e-01	4.3469	2.607445	0.000180	1.795910	0.304235	-0.003592
1567	7.8300e-01	4.3353	2.541591	0.000659	6.585002	1.115530	-0.013171
1568	7.8350e-01	4.3280	2.516361	0.000252	2.522826	0.427378	-0.005046
1569	7.8400e-01	4.3176	2.502249	0.000141	1.411072	0.239042	-0.002822
1570	7.8450e-01	4.3045	2.449651	0.000526	5.259450	0.890975	-0.010520
1571	7.8500e-01	4.2960	2.409882	0.000398	3.976657	0.673664	-0.007954
1572	7.8550e-01	4.2853	2.372679	0.000372	3.720099	0.630202	-0.007441
1573	7.8600e-01	4.2767	2.344028	0.000286	2.864904	0.485328	-0.005730
1574	7.8650e-01	4.2657	2.304259	0.000398	3.976657	0.673664	-0.007954
1575	7.8700e-01	4.2554	2.276036	0.000282	2.822144	0.478084	-0.005645
1576	7.8750e-01	4.2456	2.244391	0.000316	3.164222	0.536034	-0.006329
1577	7.8800e-01	4.2352	2.215313	0.000291	2.907663	0.492571	-0.005816
1578	7.8850e-01	4.2267	2.163142	0.000522	5.216690	0.883731	-0.010434
1579	7.8900e-01	4.2151	2.134492	0.000286	2.864904	0.485328	-0.005730
1580	7.8950e-01	4.2061	2.113966	0.000205	2.052468	0.347698	-0.004105
1581	7.9000e-01	4.1963	2.050249	0.000637	6.371203	1.079311	-0.012743
1582	7.9050e-01	4.1876	2.013901	0.000363	3.634579	0.615714	-0.007270
1583	7.9100e-01	4.1776	2.005349	0.000086	0.855195	0.144874	-0.001711
1584	7.9150e-01	4.1650	1.962586	0.000428	4.275975	0.724370	-0.008553
1585	7.9200e-01	4.1562	1.927093	0.000355	3.549060	0.601227	-0.007099
1586	7.9250e-01	4.1449	1.902719	0.000244	2.437306	0.412891	-0.004875
1587	7.9300e-01	4.1354	1.839002	0.000637	6.371203	1.079311	-0.012743
1588	7.9350e-01	4.1261	1.820187	0.000188	1.881429	0.318723	-0.003763
1589	7.9400e-01	4.1199	1.786832	0.000334	3.335261	0.565008	-0.006671
1590	7.9450e-01	4.1095	1.756898	0.000299	2.993183	0.507059	-0.005987
1591	7.9500e-01	4.0970	1.715846	0.000410	4.104936	0.695395	-0.008210
1592	7.9550e-01	4.0853	1.670946	0.000449	4.489774	0.760588	-0.008980
1593	7.9600e-01	4.0796	1.641440	0.000295	2.950423	0.499815	-0.005901
1594	7.9650e-01	4.0674	1.608940	0.000325	3.249741	0.550521	-0.006500
1595	7.9700e-01	4.0558	1.551211	0.000577	5.772567	0.977899	-0.011546
1596	7.9750e-01	4.0460	1.522560	0.000286	2.864904	0.485328	-0.005730
1597	7.9800e-01	4.0405	1.505455	0.000171	1.710390	0.289748	-0.003421
1598	7.9850e-01	4.0286	1.458416	0.000470	4.703573	0.796807	-0.009408
1599	7.9900e-01	4.0149	1.425061	0.000334	3.335261	0.565008	-0.006671
1600	7.9950e-01	4.0057	1.384437	0.000406	4.062177	0.688151	-0.008125
1601	8.0000e-01	3.9970	1.360062	0.000244	2.437306	0.412891	-0.004875
1602	8.0050e-01	3.9865	1.322859	0.000372	3.720099	0.630202	-0.007441
1603	8.0100e-01	3.9764	1.289504	0.000334	3.335261	0.565008	-0.006671
1604	8.0150e-01	3.9662	1.253156	0.000363	3.634579	0.615714	-0.007270
1605	8.0200e-01	3.9563	1.206545	0.000466	4.660813	0.789563	-0.009322
1606	8.0250e-01	3.9465	1.189440	0.000171	1.710390	0.289748	-0.003421
1607	8.0300e-01	3.9365	1.135559	0.000539	5.387729	0.912706	-0.010776
1608	8.0350e-01	3.9260	1.106053	0.000295	2.950423	0.499815	-0.005901
1609	8.0400e-01	3.9182	1.064145	0.000419	4.190456	0.709882	-0.008381
1610	8.0450e-01	3.9047	1.027797	0.000363	3.634579	0.615714	-0.007270
1611	8.0500e-01	3.8956	1.009837	0.000180	1.795910	0.304235	-0.003592
1612	8.0550e-01	3.8867	0.972634	0.000372	3.720099	0.630202	-0.007441
1613	8.0600e-01	3.8759	0.929016	0.000436	4.361495	0.738857	-0.008724
1614	8.0650e-01	3.8684	0.897799	0.000312	3.121462	0.528790	-0.006243
1615	8.0700e-01	3.8568	0.860168	0.000376	3.762858	0.637445	-0.007526
1616	8.0750e-01	3.8470	0.813129	0.000470	4.703573	0.796807	-0.009408
1617	8.0800e-01	3.8392	0.788755	0.000244	2.437306	0.412891	-0.004875
1618	8.0850e-01	3.8284	0.733164	0.000556	5.558768	0.941681	-0.011118
1619	8.0900e-01	3.8159	0.711782	0.000214	2.137988	0.362185	-0.004276
1620	8.0950e-01	3.8062	0.668164	0.000436	4.361495	0.738857	-0.008724
1621	8.1000e-01	3.7964	0.621553	0.000466	4.660813	0.789563	-0.009322
1622	8.1050e-01	3.7871	0.605731	0.000158	1.582111	0.268017	-0.003164
1623	8.1100e-01	3.7747	0.570666	0.000351	3.506300	0.593983	-0.007013
1624	8.1150e-01	3.7689	0.530469	0.000402	4.019417	0.680908	-0.008039
1625	8.1200e-01	3.7585	0.491128	0.000393	3.933897	0.666420	-0.007868
1626	8.1250e-01	3.7444	0.453497	0.000376	3.762858	0.637445	-0.007526
1627	8.1300e-01	3.7372	0.425701	0.000278	2.779384	0.470840	-0.005559
1628	8.1350e-01	3.7268	0.374814	0.000509	5.088411	0.862000	-0.010177
1629	8.1400e-01	3.7164	0.350011	0.000248	2.480066	0.420135	-0.004960
1630	8.1450e-01	3.7061	0.302117	0.000479	4.789093	0.811294	-0.009579
1631	8.1500e-01	3.6929	0.264914	0.000372	3.720099	0.630202	-0.007441
1632	8.1550e-01	3.6859	0.245671	0.000192	1.924189	0.325966	-0.003849
1633	8.1600e-01	3.6763	0.199915	0.000458	4.575294	0.775076	-0.009151
1634	8.1650e-01	3.6642	0.151593	0.000483	4.831852	0.818538	-0.009664
1635	8.1700e-01	3.6574	0.109258	0.000423	4.233216	0.717126	-0.008467
1636	8.1750e-01	3.6446	0.075476	0.000338	3.378021	0.572252	-0.006756
1637	8.1800e-01	3.6359	0.051956	0.000235	2.351786	0.398403	-0.004704
1638	8.1850e-01	3.6267	-0.000214	0.000522	5.216690	0.883731	-0.010434
1639	8.1900e-01	3.6151	-0.021595	0.000214	2.137988	0.362185	-0.004276
1640	8.1950e-01	3.6041	-0.070772	0.000492	4.917372	0.833025	-0.009835
1641	8.2000e-01	3.5971	-0.100706	0.000299	2.993183	0.507059	-0.005987
1642	8.2050e-01	3.5868	-0.137482	0.000368	3.677339	0.622958	-0.007355
1643	8.2100e-01	3.5735	-0.168698	0.000312	3.121462	0.528790	-0.006243
1644	8.2150e-01	3.5651	-0.208040	0.000393	3.933897	0.666420	-0.007868
1645	8.2200e-01	3.5559	-0.240967	0.000329	3.292501	0.557765	-0.006585
1646	8.2250e-01	3.5472	-0.278598	0.000376	3.762858	0.637445	-0.007526
1647	8.2300e-01	3.5355	-0.321788	0.000432	4.318735	0.731614	-0.008638
1648	8.2350e-01	3.5254	-0.380800	0.000590	5.900846	0.999630	-0.011802
1649	8.2400e-01	3.5132	-0.399616	0.000188	1.881429	0.318723	-0.003763
1650	8.2450e-01	3.5030	-0.427839	0.000282	2.822144	0.478084	-0.005645
1651	8.2500e-01	3.4958	-0.455207	0.000274	2.736624	0.463597	-0.005474
1652	8.2550e-01	3.4854	-0.481720	0.000265	2.651105	0.449109	-0.005303
1653	8.2600e-01	3.4742	-0.528759	0.000470	4.703573	0.796807	-0.009408
1654	8.2650e-01	3.4641	-0.579646	0.000509	5.088411	0.862000	-0.010177
1655	8.2700e-01	3.4540	-0.598889	0.000192	1.924189	0.325966	-0.003849
1656	8.2750e-01	3.4442	-0.651487	0.000526	5.259450	0.890975	-0.010520
1657	8.2800e-01	3.4346	-0.679283	0.000278	2.779384	0.470840	-0.005559
1658	8.2850e-01	3.4256	-0.722473	0.000432	4.318735	0.731614	-0.008638
1659	8.2900e-01	3.4141	-0.753262	0.000308	3.078702	0.521546	-0.006158
1660	8.2950e-01	3.4058	-0.809708	0.000564	5.644288	0.956168	-0.011289
1661	8.3000e-01	3.3972	-0.834938	0.000252	2.522826	0.427378	-0.005046
1662	8.3050e-01	3.3838	-0.867010	0.000321	3.206982	0.543277	-0.006414
1663	8.3100e-01	3.3751	-0.910200	0.000432	4.318735	0.731614	-0.008638
1664	8.3150e-01	3.3664	-0.947831	0.000376	3.762858	0.637445	-0.007526
1665	8.3200e-01	3.3545	-0.985035	0.000372	3.720099	0.630202	-0.007441
1666	8.3250e-01	3.3466	-1.029080	0.000440	4.404255	0.746101	-0.008809
1667	8.3300e-01	3.3369	-1.052600	0.000235	2.351786	0.398403	-0.004704
1668	8.3350e-01	3.3231	-1.103487	0.000509	5.088411	0.862000	-0.010177
1669	8.3400e-01	3.3162	-1.144539	0.000410	4.104936	0.695395	-0.008210
1670	8.3450e-01	3.3047	-1.172335	0.000278	2.779384	0.470840	-0.005559
1671	8.3500e-01	3.2965	-1.219801	0.000475	4.746333	0.804051	-0.009493
1672	8.3550e-01	3.2889	-1.239899	0.000201	2.009708	0.340454	-0.004020
1673	8.3600e-01	3.2761	-1.288649	0.000487	4.874612	0.825782	-0.009750
1674	8.3650e-01	3.2655	-1.330556	0.000419	4.190456	0.709882	-0.008381
1675	8.3700e-01	3.2578	-1.376312	0.000458	4.575294	0.775076	-0.009151
1676	8.3750e-01	3.2458	-1.388713	0.000124	1.240033	0.210067	-0.002480
1677	8.3800e-01	3.2361	-1.430193	0.000415	4.147696	0.702639	-0.008296
1678	8.3850e-01	3.2263	-1.474238	0.000440	4.404255	0.746101	-0.008809
1679	8.3900e-01	3.2176	-1.508021	0.000338	3.378021	0.572252	-0.006756
1680	8.3950e-01	3.2080	-1.539665	0.000316	3.164222	0.536034	-0.006329
1681	8.4000e-01	3.1970	-1.596111	0.000564	5.644288	0.956168	-0.011289
1682	8.4050e-01	3.1845	-1.632459	0.000363	3.634579	0.615714	-0.007270
1683	8.4100e-01	3.1782	-1.664104	0.000316	3.164222	0.536034	-0.006329
1684	8.4150e-01	3.1665	-1.705583	0.000415	4.147696	0.702639	-0.008296
1685	8.4200e-01	3.1570	-1.729958	0.000244	2.437306	0.412891	-0.004875
1686	8.4250e-01	3.1439	-1.756471	0.000265	2.651105	0.449109	-0.005303
1687	8.4300e-01	3.1348	-1.815055	0.000586	5.858086	0.992387	-0.011717
1688	8.4350e-01	3.1247	-1.868936	0.000539	5.387729	0.912706	-0.010776
1689	8.4400e-01	3.1169	-1.902719	0.000338	3.378021	0.572252	-0.006756
1690	8.4450e-01	3.1047	-1.937356	0.000346	3.463540	0.586740	-0.006928
1691	8.4500e-01	3.0965	-1.960876	0.000235	2.351786	0.398403	-0.004704
1692	8.4550e-01	3.0843	-1.999790	0.000389	3.891138	0.659177	-0.007783
1693	8.4600e-01	3.0753	-2.061368	0.000616	6.157405	1.043093	-0.012316
1694	8.4650e-01	3.0661	-2.090874	0.000295	2.950423	0.499815	-0.005901
1695	8.4700e-01	3.0540	-2.138768	0.000479	4.789093	0.811294	-0.009579
1696	8.4750e-01	3.0429	-2.159721	0.000210	2.095228	0.354941	-0.004191
1697	8.4800e-01	3.0345	-2.198635	0.000389	3.891138	0.659177	-0.007783
1698	8.4850e-01	3.0257	-2.248240	0.000496	4.960132	0.840269	-0.009921
1699	8.4900e-01	3.0145	-2.282450	0.000342	3.420780	0.579496	-0.006842
1700	8.4950e-01	3.0064	-2.307680	0.000252	2.522826	0.427378	-0.005046
1701	8.5000e-01	2.9950	-2.356857	0.000492	4.917372	0.833025	-0.009835
1702	8.5050e-01	2.9878	-2.394915	0.000381	3.805618	0.644689	-0.007612
1703	8.5100e-01	2.9764	-2.457349	0.000624	6.242924	1.057580	-0.012487
1704	8.5150e-01	2.9659	-2.473598	0.000162	1.624871	0.275261	-0.003250
1705	8.5200e-01	2.9572	-2.518499	0.000449	4.489774	0.760588	-0.008980
1706	8.5250e-01	2.9465	-2.541591	0.000231	2.309027	0.391160	-0.004618
1707	8.5300e-01	2.9366	-2.605735	0.000641	6.413963	1.086555	-0.012829
1708	8.5350e-01	2.9254	-2.659188	0.000534	5.344969	0.905462	-0.010691
1709	8.5400e-01	2.9150	-2.675010	0.000158	1.582111	0.268017	-0.003164
1710	8.5450e-01	2.9053	-2.707509	0.000325	3.249741	0.550521	-0.006500
1711	8.5500e-01	2.8957	-2.764384	0.000569	5.687047	0.963412	-0.011375
1712	8.5550e-01	2.8839	-2.791752	0.000274	2.736624	0.463597	-0.005474
1713	8.5600e-01	2.8745	-2.825534	0.000338	3.378021	0.572252	-0.006756
1714	8.5650e-01	2.8674	-2.872145	0.000466	4.660813	0.789563	-0.009322
1715	8.5700e-01	2.8564	-2.923460	0.000513	5.131171	0.869244	-0.010263
1716	8.5750e-01	2.8442	-2.946124	0.000227	2.266267	0.383916	-0.004533
1717	8.5800e-01	2.8358	-2.980334	0.000342	3.420780	0.579496	-0.006842
1718	8.5850e-01	2.8233	-3.012406	0.000321	3.206982	0.543277	-0.006414
1719	8.5900e-01	2.8162	-3.067142	0.000547	5.473249	0.927193	-0.010947
1720	8.5950e-01	2.8058	-3.093655	0.000265	2.651105	0.449109	-0.005303
1721	8.6000e-01	2.7983	-3.148819	0.000552	5.516008	0.934437	-0.011033
1722	8.6050e-01	2.7869	-3.183884	0.000351	3.506300	0.593983	-0.007013
1723	8.6100e-01	2.7760	-3.233489	0.000496	4.960132	0.840269	-0.009921
1724	8.6150e-01	2.7658	-3.259146	0.000257	2.565585	0.434622	-0.005132
1725	8.6200e-01	2.7557	-3.319441	0.000603	6.029125	1.021361	-0.012059
1726	8.6250e-01	2.7460	-3.336119	0.000167	1.667630	0.282504	-0.003335
1727	8.6300e-01	2.7370	-3.379736	0.000436	4.361495	0.738857	-0.008724
1728	8.6350e-01	2.7248	-3.410953	0.000312	3.121462	0.528790	-0.006243
1729	8.6400e-01	2.7142	-3.447301	0.000363	3.634579	0.615714	-0.007270
1730	8.6450e-01	2.7075	-3.504175	0.000569	5.687047	0.963412	-0.011375
1731	8.6500e-01	2.6956	-3.533254	0.000291	2.907663	0.492571	-0.005816
1732	8.6550e-01	2.6877	-3.587135	0.000539	5.387729	0.912706	-0.010776
1733	8.6600e-01	2.6776	-3.630752	0.000436	4.361495	0.738857	-0.008724
1734	8.6650e-01	2.6631	-3.667956	0.000372	3.720099	0.630202	-0.007441
1735	8.6700e-01	2.6550	-3.707297	0.000393	3.933897	0.666420	-0.007868
1736	8.6750e-01	2.6454	-3.732955	0.000257	2.565585	0.434622	-0.005132
1737	8.6800e-01	2.6355	-3.795388	0.000624	6.242924	1.057580	-0.012487
1738	8.6850e-01	2.6260	-3.828743	0.000334	3.335261	0.565008	-0.006671
1739	8.6900e-01	2.6178	-3.852690	0.000239	2.394546	0.405647	-0.004789
1740	8.6950e-01	2.6055	-3.899729	0.000470	4.703573	0.796807	-0.009408
1741	8.7000e-01	2.5980	-3.929235	0.000295	2.950423	0.499815	-0.005901
1742	8.7050e-01	2.5862	-3.993379	0.000641	6.413963	1.086555	-0.012829
1743	8.7100e-01	2.5766	-4.038279	0.000449	4.489774	0.760588	-0.008980
1744	8.7150e-01	2.5659	-4.056240	0.000180	1.795910	0.304235	-0.003592
1745	8.7200e-01	2.5558	-4.100285	0.000440	4.404255	0.746101	-0.008809
1746	8.7250e-01	2.5466	-4.134067	0.000338	3.378021	0.572252	-0.006756
1747	8.7300e-01	2.5340	-4.177257	0.000432	4.318735	0.731614	-0.008638
1748	8.7350e-01	2.5253	-4.229428	0.000522	5.216690	0.883731	-0.010434
1749	8.7400e-01	2.5130	-4.252092	0.000227	2.266267	0.383916	-0.004533
1750	8.7450e-01	2.5056	-4.293144	0.000410	4.104936	0.695395	-0.008210
1751	8.7500e-01	2.4969	-4.327782	0.000346	3.463540	0.586740	-0.006928
1752	8.7550e-01	2.4835	-4.367978	0.000402	4.019417	0.680908	-0.008039
1753	8.7600e-01	2.4751	-4.424425	0.000564	5.644288	0.956168	-0.011289
1754	8.7650e-01	2.4680	-4.466332	0.000419	4.190456	0.709882	-0.008381
1755	8.7700e-01	2.4561	-4.521496	0.000552	5.516008	0.934437	-0.011033
1756	8.7750e-01	2.4461	-4.542877	0.000214	2.137988	0.362185	-0.004276
1757	8.7800e-01	2.4367	-4.580936	0.000381	3.805618	0.644689	-0.007612
1758	8.7850e-01	2.4258	-4.621133	0.000402	4.019417	0.680908	-0.008039
1759	8.7900e-01	2.4139	-4.675441	0.000543	5.430489	0.919950	-0.010862
1760	8.7950e-01	2.4065	-4.716493	0.000410	4.104936	0.695395	-0.008210
1761	8.8000e-01	2.3978	-4.743861	0.000274	2.736624	0.463597	-0.005474
1762	8.8050e-01	2.3874	-4.790900	0.000470	4.703573	0.796807	-0.009408
1763	8.8100e-01	2.3761	-4.847346	0.000564	5.644288	0.956168	-0.011289
1764	8.8150e-01	2.3669	-4.889254	0.000419	4.190456	0.709882	-0.008381
1765	8.8200e-01	2.3543	-4.920043	0.000308	3.078702	0.521546	-0.006158
1766	8.8250e-01	2.3462	-4.965799	0.000458	4.575294	0.775076	-0.009151
1767	8.8300e-01	2.3352	-5.011982	0.000462	4.618053	0.782319	-0.009237
1768	8.8350e-01	2.3282	-5.056883	0.000449	4.489774	0.760588	-0.008980
1769	8.8400e-01	2.3153	-5.095369	0.000385	3.848378	0.651933	-0.007697
1770	8.8450e-01	2.3079	-5.141125	0.000458	4.575294	0.775076	-0.009151
1771	8.8500e-01	2.2946	-5.174907	0.000338	3.378021	0.572252	-0.006756
1772	8.8550e-01	2.2865	-5.219380	0.000445	4.447014	0.753345	-0.008895
1773	8.8600e-01	2.2778	-5.236913	0.000175	1.753150	0.296992	-0.003507
1774	8.8650e-01	2.2644	-5.284807	0.000479	4.789093	0.811294	-0.009579
1775	8.8700e-01	2.2551	-5.344247	0.000594	5.943606	1.006874	-0.011888
1776	8.8750e-01	2.2456	-5.359214	0.000150	1.496591	0.253529	-0.002993
1777	8.8800e-01	2.2336	-5.410101	0.000509	5.088411	0.862000	-0.010177
1778	8.8850e-01	2.2258	-5.469113	0.000590	5.900846	0.999630	-0.011802
1779	8.8900e-01	2.2137	-5.490922	0.000218	2.180747	0.369429	-0.004362
1780	8.8950e-01	2.2073	-5.549935	0.000590	5.900846	0.999630	-0.011802
1781	8.9000e-01	2.1951	-5.581579	0.000316	3.164222	0.536034	-0.006329
1782	8.9050e-01	2.1889	-5.629473	0.000479	4.789093	0.811294	-0.009579
1783	8.9100e-01	2.1766	-5.661972	0.000325	3.249741	0.550521	-0.006500
1784	8.9150e-01	2.1619	-5.685919	0.000239	2.394546	0.405647	-0.004789
1785	8.9200e-01	2.1537	-5.750491	0.000646	6.456723	1.093798	-0.012914
1786	8.9250e-01	2.1438	-5.803516	0.000530	5.302210	0.898219	-0.010605
1787	8.9300e-01	2.1335	-5.836871	0.000334	3.335261	0.565008	-0.006671
1788	8.9350e-01	2.1246	-5.863384	0.000265	2.651105	0.449109	-0.005303
1789	8.9400e-01	2.1165	-5.908712	0.000453	4.532534	0.767832	-0.009066
1790	8.9450e-01	2.1063	-5.975849	0.000671	6.713281	1.137261	-0.013427
1791	8.9500e-01	2.0938	-6.003217	0.000274	2.736624	0.463597	-0.005474
1792	8.9550e-01	2.0889	-6.054532	0.000513	5.131171	0.869244	-0.010263
1793	8.9600e-01	2.0763	-6.090025	0.000355	3.549060	0.601227	-0.007099
1794	8.9650e-01	2.0664	-6.114828	0.000248	2.480066	0.420135	-0.004960
1795	8.9700e-01	2.0547	-6.159301	0.000445	4.447014	0.753345	-0.008895
1796	8.9750e-01	2.0476	-6.232852	0.000735	7.354678	1.245916	-0.014710
1797	8.9800e-01	2.0367	-6.271338	0.000385	3.848378	0.651933	-0.007697
1798	8.9850e-01	2.0239	-6.270911	-0.000004	-0.042760	-0.007244	0.000086
1799	8.9900e-01	2.0151	-6.337193	0.000663	6.627762	1.122773	-0.013256
1800	8.9950e-01	2.0052	-6.389363	0.000522	5.216690	0.883731	-0.010434
1801	9.0000e-01	1.9968	-6.432126	0.000428	4.275975	0.724370	-0.008553
1802	9.0050e-01	1.9843	-6.461632	0.000295	2.950423	0.499815	-0.005901
1803	9.0100e-01	1.9751	-6.507815	0.000462	4.618053	0.782319	-0.009237
1804	9.0150e-01	1.9653	-6.550150	0.000423	4.233216	0.717126	-0.008467
1805	9.0200e-01	1.9563	-6.624129	0.000740	7.397438	1.253160	-0.014796
1806	9.0250e-01	1.9463	-6.632254	0.000081	0.812435	0.137630	-0.001625
1807	9.0300e-01	1.9338	-6.705806	0.000735	7.354678	1.245916	-0.014710
1808	9.0350e-01	1.9235	-6.729325	0.000235	2.351786	0.398403	-0.004704
1809	9.0400e-01	1.9148	-6.783206	0.000539	5.387729	0.912706	-0.010776
1810	9.0450e-01	1.9072	-6.810574	0.000274	2.736624	0.463597	-0.005474
1811	9.0500e-01	1.8951	-6.859751	0.000492	4.917372	0.833025	-0.009835
1812	9.0550e-01	1.8848	-6.893961	0.000342	3.420780	0.579496	-0.006842
1813	9.0600e-01	1.8739	-6.940572	0.000466	4.660813	0.789563	-0.009322
1814	9.0650e-01	1.8661	-6.983762	0.000432	4.318735	0.731614	-0.008638
1815	9.0700e-01	1.8548	-7.016262	0.000325	3.249741	0.550521	-0.006500
1816	9.0750e-01	1.8458	-7.073991	0.000577	5.772567	0.977899	-0.011546
1817	9.0800e-01	1.8342	-7.119747	0.000458	4.575294	0.775076	-0.009151
1818	9.0850e-01	1.8243	-7.156523	0.000368	3.677339	0.622958	-0.007355
1819	9.0900e-01	1.8172	-7.176621	0.000201	2.009708	0.340454	-0.004020
1820	9.0950e-01	1.8060	-7.225370	0.000487	4.874612	0.825782	-0.009750
1821	9.1000e-01	1.7954	-7.280106	0.000547	5.473249	0.927193	-0.010947
1822	9.1050e-01	1.7834	-7.325435	0.000453	4.532534	0.767832	-0.009066
1823	9.1100e-01	1.7761	-7.382309	0.000569	5.687047	0.963412	-0.011375
1824	9.1150e-01	1.7648	-7.404545	0.000222	2.223507	0.376672	-0.004447
1825	9.1200e-01	1.7552	-7.467834	0.000633	6.328444	1.072067	-0.012658
1826	9.1250e-01	1.7464	-7.490070	0.000222	2.223507	0.376672	-0.004447
1827	9.1300e-01	1.7360	-7.551221	0.000611	6.114645	1.035849	-0.012230
1828	9.1350e-01	1.7250	-7.574313	0.000231	2.309027	0.391160	-0.004618
1829	9.1400e-01	1.7131	-7.630332	0.000560	5.601528	0.948925	-0.011204
1830	9.1450e-01	1.7047	-7.674805	0.000445	4.447014	0.753345	-0.008895
1831	9.1500e-01	1.6946	-7.718422	0.000436	4.361495	0.738857	-0.008724
1832	9.1550e-01	1.6873	-7.760757	0.000423	4.233216	0.717126	-0.008467
1833	9.1600e-01	1.6757	-7.790263	0.000295	2.950423	0.499815	-0.005901
1834	9.1650e-01	1.6649	-7.840723	0.000505	5.045651	0.854756	-0.010092
1835	9.1700e-01	1.6573	-7.897170	0.000564	5.644288	0.956168	-0.011289
1836	9.1750e-01	1.6458	-7.960886	0.000637	6.371203	1.079311	-0.012743
1837	9.1800e-01	1.6373	-7.979274	0.000184	1.838669	0.311479	-0.003678
1838	9.1850e-01	1.6236	-8.029734	0.000505	5.045651	0.854756	-0.010092
1839	9.1900e-01	1.6171	-8.075917	0.000462	4.618053	0.782319	-0.009237
1840	9.1950e-01	1.6035	-8.106279	0.000304	3.035943	0.514303	-0.006072
1841	9.2000e-01	1.5952	-8.170850	0.000646	6.456723	1.093798	-0.012914
1842	9.2050e-01	1.5858	-8.195652	0.000248	2.480066	0.420135	-0.004960
1843	9.2100e-01	1.5727	-8.258941	0.000633	6.328444	1.072067	-0.012658
1844	9.2150e-01	1.5644	-8.302559	0.000436	4.361495	0.738857	-0.008724
1845	9.2200e-01	1.5540	-8.335913	0.000334	3.335261	0.565008	-0.006671
1846	9.2250e-01	1.5466	-8.383380	0.000475	4.746333	0.804051	-0.009493
1847	9.2300e-01	1.5352	-8.424859	0.000415	4.147696	0.702639	-0.008296
1848	9.2350e-01	1.5245	-8.470615	0.000458	4.575294	0.775076	-0.009151
1849	9.2400e-01	1.5158	-8.496700	0.000261	2.608345	0.441866	-0.005217
1850	9.2450e-01	1.5061	-8.554857	0.000582	5.815327	0.985143	-0.011631
1851	9.2500e-01	1.4948	-8.607883	0.000530	5.302210	0.898219	-0.010605
1852	9.2550e-01	1.4870	-8.666040	0.000582	5.815327	0.985143	-0.011631
1853	9.2600e-01	1.4750	-8.672454	0.000064	0.641396	0.108655	-0.001283
1854	9.2650e-01	1.4658	-8.741302	0.000688	6.884320	1.166235	-0.013770
1855	9.2700e-01	1.4561	-8.772946	0.000316	3.164222	0.536034	-0.006329
1856	9.2750e-01	1.4453	-8.822978	0.000500	5.002891	0.847513	-0.010006
1857	9.2800e-01	1.4355	-8.853340	0.000304	3.035943	0.514303	-0.006072
1858	9.2850e-01	1.4268	-8.899096	0.000458	4.575294	0.775076	-0.009151
1859	9.2900e-01	1.4140	-8.958108	0.000590	5.900846	0.999630	-0.011802
1860	9.2950e-01	1.4047	-9.002153	0.000440	4.404255	0.746101	-0.008809
1861	9.3000e-01	1.3953	-9.039784	0.000376	3.762858	0.637445	-0.007526
1862	9.3050e-01	1.3867	-9.100080	0.000603	6.029125	1.021361	-0.012059
1863	9.3100e-01	1.3751	-9.142415	0.000423	4.233216	0.717126	-0.008467
1864	9.3150e-01	1.3647	-9.197578	0.000552	5.516008	0.934437	-0.011033
1865	9.3200e-01	1.3567	-9.229650	0.000321	3.206982	0.543277	-0.006414
1866	9.3250e-01	1.3454	-9.265143	0.000355	3.549060	0.601227	-0.007099
1867	9.3300e-01	1.3329	-9.317741	0.000526	5.259450	0.890975	-0.010520
1868	9.3350e-01	1.3229	-9.350240	0.000325	3.249741	0.550521	-0.006500
1869	9.3400e-01	1.3168	-9.419088	0.000688	6.884320	1.166235	-0.013770
1870	9.3450e-01	1.3038	-9.449877	0.000308	3.078702	0.521546	-0.006158
1871	9.3500e-01	1.2946	-9.493923	0.000440	4.404255	0.746101	-0.008809
1872	9.3550e-01	1.2869	-9.534119	0.000402	4.019417	0.680908	-0.008039
1873	9.3600e-01	1.2760	-9.596553	0.000624	6.242924	1.057580	-0.012487
1874	9.3650e-01	1.2680	-9.638888	0.000423	4.233216	0.717126	-0.008467
1875	9.3700e-01	1.2524	-9.677374	0.000385	3.848378	0.651933	-0.007697
1876	9.3750e-01	1.2460	-9.747077	0.000697	6.969840	1.180723	-0.013941
1877	9.3800e-01	1.2350	-9.796681	0.000496	4.960132	0.840269	-0.009921
1878	9.3850e-01	1.2283	-9.818918	0.000222	2.223507	0.376672	-0.004447
1879	9.3900e-01	1.2161	-9.865101	0.000462	4.618053	0.782319	-0.009237
1880	9.3950e-01	1.2054	-9.901877	0.000368	3.677339	0.622958	-0.007355
1881	9.4000e-01	1.1948	-9.976711	0.000748	7.482957	1.267647	-0.014967
1882	9.4050e-01	1.1855	-10.007500	0.000308	3.078702	0.521546	-0.006158
1883	9.4100e-01	1.1748	-10.055395	0.000479	4.789093	0.811294	-0.009579
1884	9.4150e-01	1.1666	-10.102006	0.000466	4.660813	0.789563	-0.009322
1885	9.4200e-01	1.1536	-10.141347	0.000393	3.933897	0.666420	-0.007868
1886	9.4250e-01	1.1449	-10.177695	0.000363	3.634579	0.615714	-0.007270
1887	9.4300e-01	1.1346	-10.212333	0.000346	3.463540	0.586740	-0.006928
1888	9.4350e-01	1.1275	-10.254668	0.000423	4.233216	0.717126	-0.008467
1889	9.4400e-01	1.1154	-10.302990	0.000483	4.831852	0.818538	-0.009664
1890	9.4450e-01	1.1076	-10.364140	0.000611	6.114645	1.035849	-0.012230
1891	9.4500e-01	1.0969	-10.423152	0.000590	5.900846	0.999630	-0.011802
1892	9.4550e-01	1.0884	-10.447527	0.000244	2.437306	0.412891	-0.004875
1893	9.4600e-01	1.0736	-10.506539	0.000590	5.900846	0.999630	-0.011802
1894	9.4650e-01	1.0680	-10.552723	0.000462	4.618053	0.782319	-0.009237
1895	9.4700e-01	1.0558	-10.593347	0.000406	4.062177	0.688151	-0.008125
1896	9.4750e-01	1.0477	-10.646800	0.000534	5.344969	0.905462	-0.010691
1897	9.4800e-01	1.0368	-10.694267	0.000475	4.746333	0.804051	-0.009493
1898	9.4850e-01	1.0272	-10.741305	0.000470	4.703573	0.796807	-0.009408
1899	9.4900e-01	1.0121	-10.757983	0.000167	1.667630	0.282504	-0.003335
1900	9.4950e-01	1.0033	-10.822127	0.000641	6.413963	1.086555	-0.012829
1901	9.5000e-01	0.9948	-10.877718	0.000556	5.558768	0.941681	-0.011118
1902	9.5050e-01	0.9864	-10.908507	0.000308	3.078702	0.521546	-0.006158
1903	9.5100e-01	0.9778	-10.961105	0.000526	5.259450	0.890975	-0.010520
1904	9.5150e-01	0.9665	-10.995315	0.000342	3.420780	0.579496	-0.006842
1905	9.5200e-01	0.9546	-11.059031	0.000637	6.371203	1.079311	-0.012743
1906	9.5250e-01	0.9469	-11.115050	0.000560	5.601528	0.948925	-0.011204
1907	9.5300e-01	0.9369	-11.163372	0.000483	4.831852	0.818538	-0.009664
1908	9.5350e-01	0.9257	-11.208272	0.000449	4.489774	0.760588	-0.008980
1909	9.5400e-01	0.9173	-11.258304	0.000500	5.002891	0.847513	-0.010006
1910	9.5450e-01	0.9018	-11.325442	0.000671	6.713281	1.137261	-0.013427
1911	9.5500e-01	0.8953	-11.366066	0.000406	4.062177	0.688151	-0.008125
1912	9.5550e-01	0.8853	-11.382316	0.000162	1.624871	0.275261	-0.003250
1913	9.5600e-01	0.8747	-11.449881	0.000676	6.756041	1.144504	-0.013513
1914	9.5650e-01	0.8652	-11.476821	0.000269	2.693865	0.456353	-0.005388
1915	9.5700e-01	0.8551	-11.523004	0.000462	4.618053	0.782319	-0.009237
1916	9.5750e-01	0.8439	-11.564912	0.000419	4.190456	0.709882	-0.008381
1917	9.5800e-01	0.8372	-11.598694	0.000338	3.378021	0.572252	-0.006756
1918	9.5850e-01	0.8245	-11.660272	0.000616	6.157405	1.043093	-0.012316
1919	9.5900e-01	0.8171	-11.719712	0.000594	5.943606	1.006874	-0.011888
1920	9.5950e-01	0.8043	-11.766323	0.000466	4.660813	0.789563	-0.009322
1921	9.6000e-01	0.7973	-11.818921	0.000526	5.259450	0.890975	-0.010520
1922	9.6050e-01	0.7869	-11.873657	0.000547	5.473249	0.927193	-0.010947
1923	9.6100e-01	0.7765	-11.914709	0.000410	4.104936	0.695395	-0.008210
1924	9.6150e-01	0.7648	-11.961748	0.000470	4.703573	0.796807	-0.009408
1925	9.6200e-01	0.7550	-12.000662	0.000389	3.891138	0.659177	-0.007783
1926	9.6250e-01	0.7477	-12.048128	0.000475	4.746333	0.804051	-0.009493
1927	9.6300e-01	0.7353	-12.103720	0.000556	5.558768	0.941681	-0.011118
1928	9.6350e-01	0.7240	-12.146054	0.000423	4.233216	0.717126	-0.008467
1929	9.6400e-01	0.7145	-12.200791	0.000547	5.473249	0.927193	-0.010947
1930	9.6450e-01	0.7034	-12.236711	0.000359	3.591819	0.608471	-0.007184
1931	9.6500e-01	0.6941	-12.296151	0.000594	5.943606	1.006874	-0.011888
1932	9.6550e-01	0.6876	-12.342334	0.000462	4.618053	0.782319	-0.009237
1933	9.6600e-01	0.6781	-12.385525	0.000432	4.318735	0.731614	-0.008638
1934	9.6650e-01	0.6670	-12.408189	0.000227	2.266267	0.383916	-0.004533
1935	9.6700e-01	0.6561	-12.466346	0.000582	5.815327	0.985143	-0.011631
1936	9.6750e-01	0.6426	-12.512102	0.000458	4.575294	0.775076	-0.009151
1937	9.6800e-01	0.6350	-12.565983	0.000539	5.387729	0.912706	-0.010776
1938	9.6850e-01	0.6244	-12.626278	0.000603	6.029125	1.021361	-0.012059
1939	9.6900e-01	0.6173	-12.672889	0.000466	4.660813	0.789563	-0.009322
1940	9.6950e-01	0.6055	-12.714368	0.000415	4.147696	0.702639	-0.008296
1941	9.7000e-01	0.5941	-12.760980	0.000466	4.660813	0.789563	-0.009322
1942	9.7050e-01	0.5875	-12.823413	0.000624	6.242924	1.057580	-0.012487
1943	9.7100e-01	0.5759	-12.865320	0.000419	4.190456	0.709882	-0.008381
1944	9.7150e-01	0.5685	-12.908938	0.000436	4.361495	0.738857	-0.008724
1945	9.7200e-01	0.5566	-12.966667	0.000577	5.772567	0.977899	-0.011546
1946	9.7250e-01	0.5447	-13.014134	0.000475	4.746333	0.804051	-0.009493
1947	9.7300e-01	0.5362	-13.045778	0.000316	3.164222	0.536034	-0.006329
1948	9.7350e-01	0.5283	-13.094100	0.000483	4.831852	0.818538	-0.009664
1949	9.7400e-01	0.5133	-13.153540	0.000594	5.943606	1.006874	-0.011888
1950	9.7450e-01	0.5054	-13.183473	0.000299	2.993183	0.507059	-0.005987
1951	9.7500e-01	0.4969	-13.245907	0.000624	6.242924	1.057580	-0.012487
1952	9.7550e-01	0.4859	-13.287386	0.000415	4.147696	0.702639	-0.008296
1953	9.7600e-01	0.4763	-13.352813	0.000654	6.542242	1.108286	-0.013085
1954	9.7650e-01	0.4640	-13.373339	0.000205	2.052468	0.347698	-0.004105
1955	9.7700e-01	0.4533	-13.421661	0.000483	4.831852	0.818538	-0.009664
1956	9.7750e-01	0.4466	-13.484949	0.000633	6.328444	1.072067	-0.012658
1957	9.7800e-01	0.4369	-13.539258	0.000543	5.430489	0.919950	-0.010862
1958	9.7850e-01	0.4236	-13.587579	0.000483	4.831852	0.818538	-0.009664
1959	9.7900e-01	0.4159	-13.639322	0.000517	5.173930	0.876488	-0.010349
1960	9.7950e-01	0.4046	-13.686788	0.000475	4.746333	0.804051	-0.009493
1961	9.8000e-01	0.3967	-13.735110	0.000483	4.831852	0.818538	-0.009664
1962	9.8050e-01	0.3845	-13.765899	0.000308	3.078702	0.521546	-0.006158
1963	9.8100e-01	0.3742	-13.819780	0.000539	5.387729	0.912706	-0.010776
1964	9.8150e-01	0.3644	-13.878792	0.000590	5.900846	0.999630	-0.011802
1965	9.8200e-01	0.3538	-13.914713	0.000359	3.591819	0.608471	-0.007184
1966	9.8250e-01	0.3477	-13.988692	0.000740	7.397438	1.253160	-0.014796
1967	9.8300e-01	0.3377	-14.038724	0.000500	5.002891	0.847513	-0.010006
1968	9.8350e-01	0.3262	-14.073789	0.000351	3.506300	0.593983	-0.007013
1969	9.8400e-01	0.3156	-14.118690	0.000449	4.489774	0.760588	-0.008980
1970	9.8450e-01	0.3051	-14.167867	0.000492	4.917372	0.833025	-0.009835
1971	9.8500e-01	0.2952	-14.203787	0.000359	3.591819	0.608471	-0.007184
1972	9.8550e-01	0.2864	-14.258523	0.000547	5.473249	0.927193	-0.010947
1973	9.8600e-01	0.2768	-14.319674	0.000611	6.114645	1.035849	-0.012230
1974	9.8650e-01	0.2633	-14.357305	0.000376	3.762858	0.637445	-0.007526
1975	9.8700e-01	0.2550	-14.404771	0.000475	4.746333	0.804051	-0.009493
1976	9.8750e-01	0.2448	-14.470198	0.000654	6.542242	1.108286	-0.013085
1977	9.8800e-01	0.2357	-14.517664	0.000475	4.746333	0.804051	-0.009493
1978	9.8850e-01	0.2230	-14.567269	0.000496	4.960132	0.840269	-0.009921
1979	9.8900e-01	0.2142	-14.618584	0.000513	5.131171	0.869244	-0.010263
1980	9.8950e-01	0.2076	-14.657925	0.000393	3.933897	0.666420	-0.007868
1981	9.9000e-01	0.1949	-14.710523	0.000526	5.259450	0.890975	-0.010520
1982	9.9050e-01	0.1852	-14.771246	0.000607	6.071885	1.028605	-0.012145
1983	9.9100e-01	0.1748	-14.808449	0.000372	3.720099	0.630202	-0.007441
1984	9.9150e-01	0.1659	-14.876014	0.000676	6.756041	1.144504	-0.013513
1985	9.9200e-01	0.1547	-14.914928	0.000389	3.891138	0.659177	-0.007783
1986	9.9250e-01	0.1450	-14.947855	0.000329	3.292501	0.557765	-0.006585
1987	9.9300e-01	0.1340	-15.000026	0.000522	5.216690	0.883731	-0.010434
1988	9.9350e-01	0.1254	-15.034663	0.000346	3.463540	0.586740	-0.006928
1989	9.9400e-01	0.1142	-15.103939	0.000693	6.927080	1.173479	-0.013855
1990	9.9450e-01	0.1023	-15.161668	0.000577	5.772567	0.977899	-0.011546
1991	9.9500e-01	0.0951	-15.194167	0.000325	3.249741	0.550521	-0.006500
1992	9.9550e-01	0.0844	-15.263870	0.000697	6.969840	1.180723	-0.013941
1993	9.9600e-01	0.0748	-15.293377	0.000295	2.950423	0.499815	-0.005901
1994	9.9650e-01	0.0661	-15.361369	0.000680	6.798801	1.151748	-0.013598
1995	9.9700e-01	0.0573	-15.424230	0.000629	6.285684	1.064824	-0.012572
1996	9.9750e-01	0.0430	-15.444328	0.000201	2.009708	0.340454	-0.004020
1997	9.9800e-01	0.0339	-15.498209	0.000539	5.387729	0.912706	-0.010776
1998	9.9850e-01	0.0291	-15.532847	0.000346	3.463540	0.586740	-0.006928
1999	9.9900e-01	0.0147	-15.611957	0.000791	7.910555	1.340084	-0.015822
2000	9.9950e-01	0.0050	-15.645740	0.000338	3.378021	0.572252	-0.006756
2001	1.0000e+00	-0.0030	-15.676529	0.000338	3.378021	0.572252	-0.006158

PMax (uC/cm2):	3.68e+01
Pr (uC/cm2):	2.71e+00
-Pr (uC/cm2):	0.00e+00
PLoss (uC/cm2):	0.00e+00
C (Max-Eff) (nF):	3.68e-01
K (Eff):	6.23e+02
Vert. (+/-Pr) Shift (uC/cm2):	1.36e+00
Offset (uC/cm2):	1.84e+01

A (Loop Area - uC/cm2·Volts):	-2.32e-02



Hysteresis Version: 5.48.1 - Radiant Technologies, Inc., 1999 - 9/12/24

